// Start Time: Unknown
// Update Rate: 100.0Hz
// Filter Profile: human (46.1)
// Firmware Version: 4.4.0
PacketCounter,SampleTimeFine,Acc_X,Acc_Y,Acc_Z,FreeAcc_X,FreeAcc_Y,FreeAcc_Z,Gyr_X,Gyr_Y,Gyr_Z,Mag_X,Mag_Y,Mag_Z,VelInc_X,VelInc_Y,VelInc_Z,OriInc_q0,OriInc_q1,OriInc_q2,OriInc_q3,Quat_q0,Quat_q1,Quat_q2,Quat_q3
43781,NaN,6.947894,-3.534274,-0.184560,0.000000,-0.000000,-2.015423,-0.347710,-1.431787,0.110768,-0.716064,0.563965,-0.203125,0.069509,-0.035307,-0.001287,0.999973,-0.001739,-0.007159,0.000554,0.696361,-0.395522,-0.593138,-0.082647
43782,NaN,5.604887,-6.210697,0.664021,0.000000,-0.000000,-1.420569,0.301548,-2.055998,0.036459,-0.715820,0.561768,-0.188477,0.055989,-0.062107,0.007122,0.999946,0.001508,-0.010280,0.000182,-0.467733,-0.030787,0.675735,-0.568912
43783,NaN,6.856423,-7.946798,1.408604,-1.111969,-2.038592,0.519457,0.899378,-2.328694,-0.005904,-0.724121,0.557373,-0.181885,0.068394,-0.079535,0.014525,0.999922,0.004497,-0.011643,-0.000030,0.682402,-0.234810,-0.655552,0.222358
43784,NaN,4.486341,-7.791535,2.158813,-2.011558,-3.363238,-1.437846,0.702476,-1.527285,0.226942,-0.724365,0.561768,-0.173584,0.044787,-0.077940,0.021657,0.999964,0.003512,-0.007636,0.001135,0.677944,-0.231451,-0.659692,0.227220
43785,NaN,6.325851,-6.871624,2.128537,-1.945682,-1.523514,-0.557454,0.622646,-1.355973,0.354900,-0.722168,0.561768,-0.169434,0.063235,-0.068671,0.021500,0.999971,0.003113,-0.006780,0.001774,0.674439,-0.228203,-0.662704,0.232117
43786,NaN,7.178358,-5.654318,2.457568,-2.332939,-0.047262,-0.642385,0.767589,-1.594008,0.205943,-0.724365,0.563721,-0.160889,0.071644,-0.056565,0.024930,0.999960,0.003838,-0.007970,0.001030,0.669768,-0.224438,-0.666927,0.237165
43787,NaN,7.097357,-4.217708,1.456818,-1.425299,1.038684,-1.616806,0.263668,-1.688299,-0.037224,-0.724121,0.559570,-0.152344,0.070840,-0.042210,0.015111,0.999963,0.001318,-0.008441,-0.000186,0.665167,-0.221389,-0.671209,0.240869
43788,NaN,8.420293,-2.729251,2.298286,-2.428229,2.971395,-1.511736,0.518114,-1.381567,-0.043784,-0.728271,0.557373,-0.143799,0.084036,-0.027371,0.023493,0.999973,0.002591,-0.006908,-0.000219,0.661139,-0.217849,-0.675210,0.243985
43789,NaN,10.410439,-0.311723,2.338377,-2.671277,6.047737,-1.432354,0.612812,-1.296522,-0.013308,-0.726074,0.557373,-0.137451,0.103950,-0.003197,0.024048,0.999974,0.003064,-0.006483,-0.000067,0.659216,-0.213530,-0.677494,0.246662
43790,NaN,12.071994,0.895091,2.290497,-2.864392,7.989307,-0.882666,0.569734,-1.064227,0.070951,-0.730225,0.557373,-0.137451,0.120593,0.008927,0.023572,0.999982,0.002849,-0.005321,0.000355,0.656119,-0.210576,-0.680211,0.249957
43791,NaN,13.703330,0.636218,2.767782,-3.345398,8.612651,0.698065,0.607920,-0.862339,0.148618,-0.732666,0.561523,-0.133301,0.136907,0.006379,0.028288,0.999986,0.003040,-0.004312,0.000743,0.659654,-0.205875,-0.679997,0.245106
43792,NaN,13.963905,0.391837,2.084024,-2.769667,8.607989,1.037109,0.510753,-0.632319,0.201893,-0.730469,0.563721,-0.129150,0.139568,0.004005,0.021292,0.999991,0.002554,-0.003162,0.001009,0.657777,-0.204100,-0.681242,0.248157
43793,NaN,14.015630,-0.530095,2.244370,-2.596527,7.581233,1.915003,0.264203,-0.416223,0.213120,-0.726318,0.563721,-0.129150,0.140115,-0.005182,0.022728,0.999996,0.001321,-0.002081,0.001066,0.667726,-0.199324,-0.678825,0.231535
43794,NaN,13.511300,-1.683540,3.041598,-3.375999,6.324793,2.155620,0.157389,-0.213833,0.182838,-0.730713,0.570068,-0.129150,0.135096,-0.016736,0.030547,0.999999,0.000787,-0.001069,0.000914,0.666944,-0.199171,-0.679174,0.232892
43795,NaN,12.878160,-2.814251,3.629851,-3.506551,4.576543,2.584980,0.188079,-0.106736,0.083680,-0.730469,0.561523,-0.129150,0.128774,-0.028123,0.036341,0.999999,0.000940,-0.000534,0.000418,0.681769,-0.192845,-0.674320,0.208074
43796,NaN,12.334281,-3.809919,3.534966,-3.400287,3.440638,2.667136,0.149805,-0.140770,-0.063062,-0.726074,0.557373,-0.129150,0.123306,-0.038165,0.035408,0.999999,0.000749,-0.000704,-0.000315,0.681504,-0.191975,-0.674704,0.208500
43797,NaN,12.467722,-5.001281,2.954172,-2.384771,1.951365,3.592125,0.237796,-0.254552,-0.136819,-0.734619,0.563721,-0.129150,0.124605,-0.050133,0.029641,0.999998,0.001189,-0.001273,-0.000684,0.697730,-0.183830,-0.668001,0.182082
43798,NaN,13.338570,-6.899788,2.218574,-1.619475,0.702997,5.264764,0.364562,-0.358780,-0.136215,-0.730469,0.565918,-0.122803,0.133299,-0.069129,0.022299,0.999996,0.001823,-0.001794,-0.000681,0.696989,-0.181776,-0.669044,0.183153
43799,NaN,14.991697,-8.316227,1.544473,-0.459021,-0.446552,7.388643,0.428139,-0.403097,-0.128484,-0.734619,0.559326,-0.120605,0.149832,-0.083292,0.015569,0.999995,0.002141,-0.002015,-0.000642,0.711002,-0.172768,-0.662206,0.161586
43800,NaN,17.538074,-8.849368,1.144386,0.098004,0.207434,9.863498,0.184358,-0.199300,-0.117109,-0.734619,0.561523,-0.129150,0.175317,-0.088607,0.011537,0.999999,0.000922,-0.000997,-0.000586,0.710595,-0.171563,-0.662866,0.161952
43801,NaN,20.044559,-9.322132,0.593187,1.278499,0.207056,12.263562,0.007265,0.181154,-0.068826,-0.736572,0.555176,-0.126953,0.200419,-0.093291,0.005747,1.000000,0.000036,0.000906,-0.000344,0.722067,-0.166677,-0.655581,0.145091
43802,NaN,19.259638,-9.116228,-0.617832,2.497535,-0.015140,11.357607,0.364423,0.571708,0.007337,-0.734619,0.561523,-0.139648,0.192581,-0.091143,-0.006895,0.999994,0.001822,0.002859,0.000037,0.724235,-0.165799,-0.653243,0.145835
43803,NaN,16.723677,-8.966787,-1.445713,3.452677,-1.402933,8.849541,1.048532,1.133036,0.078723,-0.734619,0.559570,-0.150146,0.167185,-0.089521,-0.015874,0.999970,0.005243,0.005665,0.000394,0.733668,-0.154964,-0.646142,0.142190
43804,NaN,15.134048,-8.198745,-1.401518,3.516856,-1.341110,7.040974,0.899518,1.825488,0.143349,-0.724365,0.563721,-0.171387,0.151261,-0.081811,-0.015764,0.999948,0.004498,0.009127,0.000717,0.740122,-0.153418,-0.638661,0.144200
43805,NaN,13.873055,-7.052020,0.156619,2.090282,-0.917632,5.581997,0.048207,2.401095,0.183326,-0.722168,0.563965,-0.186279,0.138800,-0.070393,-0.000117,0.999927,0.000241,0.012005,0.000917,0.746765,-0.145263,-0.632717,0.144603
43806,NaN,13.055948,-6.236792,1.761490,0.665817,-0.401686,4.742242,-0.994312,2.693332,0.276670,-0.718262,0.568115,-0.196777,0.130870,-0.062104,0.016163,0.999896,-0.004971,0.013466,0.001383,0.754286,-0.151782,-0.623113,0.140519
43807,NaN,12.916696,-6.058898,2.683424,0.015425,-0.300213,4.701209,-1.858172,3.051588,0.431376,-0.711914,0.570312,-0.205322,0.129692,-0.060069,0.025418,0.999838,-0.009290,0.015257,0.002157,0.763576,-0.162874,-0.612132,0.125369
43808,NaN,12.929058,-6.965778,2.801904,0.225371,-0.980223,5.104040,-2.065785,3.699828,0.656569,-0.699707,0.585449,-0.224609,0.130015,-0.068954,0.026333,0.999770,-0.010328,0.018498,0.003283,0.772630,-0.175051,-0.598627,0.118512
43809,NaN,12.958464,-8.508807,3.212359,0.166336,-2.310775,5.847846,-1.560711,4.383355,0.768759,-0.693604,0.591797,-0.247803,0.130582,-0.084348,0.029929,0.999722,-0.007803,0.021915,0.003843,0.785734,-0.188948,-0.580170,0.101607
43810,NaN,14.272079,-10.524031,3.615406,0.636552,-3.421059,7.946017,-1.118586,4.950828,0.973787,-0.677246,0.606934,-0.273438,0.144076,-0.104350,0.033184,0.999666,-0.005592,0.024751,0.004868,0.798280,-0.198618,-0.560176,0.097477
43811,NaN,14.868341,-11.258014,4.635354,0.558737,-3.708004,9.033399,-0.349092,5.231630,1.200467,-0.660400,0.611328,-0.298828,0.150503,-0.111604,0.042628,0.999638,-0.001745,0.026155,0.006002,0.811740,-0.199480,-0.540574,0.095219
43812,NaN,14.015253,-10.009533,5.509000,0.338198,-2.595601,8.077408,0.677286,4.918265,0.998601,-0.643799,0.613525,-0.341309,0.141943,-0.099568,0.051276,0.999679,0.003386,0.024589,0.004992,0.824972,-0.201707,-0.519122,0.096166
43813,NaN,13.118479,-6.909076,5.296295,1.075030,-0.373100,5.889209,0.815039,4.135492,0.715272,-0.624756,0.615723,-0.364746,0.132485,-0.068826,0.049951,0.999772,0.004075,0.020676,0.003576,0.840141,-0.211495,-0.494262,0.071683
43814,NaN,11.526011,-4.575312,3.725146,2.414675,0.738259,2.886202,-0.124675,4.112477,0.673914,-0.608154,0.622314,-0.381592,0.116147,-0.045340,0.034898,0.999783,-0.000623,0.020561,0.003369,0.849748,-0.215111,-0.476213,0.069841
43815,NaN,11.023078,-1.600403,4.029045,2.883550,2.878755,1.308724,0.145058,3.534608,0.480880,-0.599609,0.622314,-0.406982,0.110958,-0.015766,0.038322,0.999841,0.000725,0.017672,0.002404,0.863275,-0.224497,-0.450929,0.031952
43816,NaN,13.782204,1.792663,-1.738063,9.909618,4.480483,-0.986640,1.856853,2.634483,-0.084251,-0.593262,0.614014,-0.438721,0.137586,0.018040,-0.019027,0.999870,0.009284,0.013172,-0.000421,0.871199,-0.216684,-0.439298,0.032813
43817,NaN,12.168064,1.225962,-5.077939,11.582206,2.202150,-3.783660,5.356231,1.466101,-0.759984,-0.592529,0.586182,-0.478760,0.121355,0.013168,-0.051325,0.999607,0.026778,0.007330,-0.003799,0.883538,-0.171653,-0.434573,0.032274
43818,NaN,10.235261,0.821319,-5.552928,10.749007,1.462501,-5.501574,5.716708,0.291665,-0.870329,-0.593994,0.562744,-0.508057,0.102311,0.009353,-0.055422,0.999581,0.028580,0.001458,-0.004351,0.888848,-0.144485,-0.432928,0.040584
43820,NaN,8.490148,-2.711006,-5.557940,18.637226,-6.239782,-2.405487,2.475316,2.478145,-0.668513,-0.574707,0.545654,-0.548340,0.166603,-0.052499,-0.116628,0.999364,0.024748,0.024776,-0.006684,0.903262,-0.129808,-0.408948,-0.005398
43821,NaN,8.569847,-1.024189,-4.693287,9.105673,-1.427865,-6.415266,-1.952485,5.331235,-0.811214,-0.544922,0.545654,-0.571533,0.084365,-0.011058,-0.049088,0.999589,-0.009761,0.026653,-0.004056,0.912501,-0.136768,-0.385181,-0.016512
43822,NaN,8.243416,-2.086887,-1.893769,6.584107,-2.634639,-4.754945,-2.530022,6.656208,-0.573135,-0.511475,0.558594,-0.590820,0.081688,-0.021364,-0.021397,0.999362,-0.012647,0.033274,-0.002865,0.915163,-0.165621,-0.359868,-0.074437
43823,NaN,6.768444,-3.815976,1.536095,3.133432,-3.194191,-3.278109,-3.179956,7.042336,-0.603319,-0.480225,0.577881,-0.601807,0.068068,-0.038139,0.013575,0.999249,-0.015896,0.035203,-0.003016,0.924287,-0.176338,-0.326699,-0.088693
43827,NaN,4.384729,-2.761953,1.582883,7.822384,-9.083282,8.212640,-2.218441,6.381753,-0.812241,-0.345703,0.614502,-0.648926,0.180154,-0.111101,0.045407,0.990753,-0.044232,0.127241,-0.016195,0.945134,-0.200191,-0.220400,-0.134421
43828,NaN,0.253152,0.618139,1.177168,0.031488,1.017528,-8.920894,-1.174697,4.388613,0.249733,-0.318359,0.627441,-0.657715,0.002781,0.006254,0.011676,0.999741,-0.005873,0.021941,0.001249,0.948717,-0.203015,-0.198568,-0.138895
43829,NaN,-1.262125,0.207604,0.202142,-1.111659,0.482490,-10.268862,-1.357866,4.426444,0.634912,-0.286865,0.635986,-0.653564,-0.012579,0.002051,0.002286,0.999727,-0.006789,0.022130,0.003174,0.949621,-0.209278,-0.191372,-0.133410
43830,NaN,-0.600435,0.146620,0.418045,-0.610439,0.424581,-9.751024,-1.562862,4.397088,0.875263,-0.259521,0.648926,-0.653809,-0.005917,0.001473,0.004300,0.999718,-0.007814,0.021983,0.004376,0.952509,-0.214544,-0.168486,-0.135315
43831,NaN,2.016029,-0.330786,0.344893,1.634745,-0.472581,-8.630991,-1.849794,4.250022,0.984198,-0.224121,0.668213,-0.654053,0.020244,-0.003179,0.003049,0.999719,-0.009248,0.021248,0.004921,0.952957,-0.223407,-0.158542,-0.129716
43832,NaN,1.576610,-0.440887,1.101212,1.069771,-0.147025,-8.161579,-1.775768,3.971354,1.131394,-0.196777,0.680908,-0.650146,0.016005,-0.004223,0.010734,0.999747,-0.008878,0.019855,0.005656,0.954614,-0.230132,-0.137167,-0.130139
43833,NaN,1.798276,-1.733125,1.457172,0.851890,-1.089624,-7.273563,-1.739184,3.573360,1.198649,-0.163086,0.687256,-0.645996,0.018344,-0.017096,0.014395,0.999785,-0.008695,0.017866,0.005993,0.954495,-0.238975,-0.128883,-0.123364
43834,NaN,1.910279,-2.070228,1.825133,0.880571,-1.204495,-6.806184,-1.617894,3.204487,1.128841,-0.137695,0.693848,-0.631348,0.019510,-0.020446,0.018107,0.999823,-0.008089,0.016021,0.005644,0.955154,-0.245404,-0.111223,-0.122829
43835,NaN,0.334601,-2.939485,1.864254,-0.801630,-1.605625,-6.811578,-1.405169,2.619215,1.008989,-0.123291,0.708740,-0.623047,0.003739,-0.029245,0.018801,0.999877,-0.007026,0.013096,0.005045,0.954441,-0.253284,-0.106510,-0.116386
43836,NaN,-0.606431,-3.821174,2.305311,-1.928203,-1.940525,-6.235082,-0.967826,1.947532,0.856611,-0.108643,0.715088,-0.623047,-0.005675,-0.038124,0.023294,0.999932,-0.004839,0.009737,0.004283,0.954685,-0.257208,-0.095563,-0.115275
43837,NaN,-0.785189,-4.848156,2.941791,-2.414227,-2.418647,-5.219599,-0.521921,1.195997,0.631705,-0.097900,0.712891,-0.618896,-0.007522,-0.048429,0.029590,0.999974,-0.002610,0.005980,0.003158,0.953998,-0.261826,-0.096515,-0.109635
43838,NaN,-0.876641,-5.798096,3.119791,-2.723235,-3.095695,-4.604999,-0.265298,0.536477,0.355540,-0.095947,0.719482,-0.623291,-0.008580,-0.057955,0.031298,0.999994,-0.001326,0.002682,0.001778,0.954098,-0.262968,-0.093347,-0.108771
43839,NaN,-1.437928,-5.870630,3.613825,-3.347137,-2.786569,-4.278849,-0.087906,-0.059790,0.015665,-0.097900,0.715088,-0.618896,-0.014385,-0.058692,0.036160,1.000000,-0.000440,-0.000299,0.000078,0.952949,-0.266332,-0.099148,-0.105472
43840,NaN,-2.014469,-6.260196,3.569036,-4.008068,-3.046318,-4.277221,-0.010730,-0.577571,-0.218395,-0.102295,0.717285,-0.623291,-0.020316,-0.062578,0.035635,0.999995,-0.000054,-0.002888,-0.001092,0.952528,-0.266579,-0.102187,-0.105751
43841,NaN,-2.334747,-6.758790,3.473319,-4.483961,-3.439420,-4.221596,0.036319,-0.934694,-0.487183,-0.108643,0.719482,-0.614746,-0.023674,-0.067537,0.034611,0.999986,0.000182,-0.004673,-0.002436,0.950744,-0.269881,-0.110766,-0.104787
43842,NaN,-1.962039,-6.223364,3.210093,-4.018193,-3.187270,-4.657199,0.259053,-1.468436,-0.768295,-0.131836,0.717285,-0.618896,-0.020094,-0.062198,0.031874,0.999965,0.001295,-0.007342,-0.003841,0.949844,-0.268984,-0.118917,-0.106313
43843,NaN,-0.299464,-4.726817,2.319175,-1.977844,-2.622309,-5.686919,0.315635,-1.875118,-0.990080,-0.148682,0.708740,-0.620850,-0.003445,-0.047288,0.023086,0.999943,0.001578,-0.009375,-0.004950,0.947449,-0.271472,-0.130931,-0.107242
43844,NaN,0.881810,-3.518152,2.790903,-0.713196,-1.521540,-5.555981,0.327296,-1.932998,-1.258449,-0.167725,0.706543,-0.627197,0.008326,-0.035281,0.027933,0.999932,0.001636,-0.009665,-0.006292,0.945888,-0.270116,-0.141965,-0.110360
43845,NaN,1.161114,-1.776021,4.970387,-0.544685,1.097188,-4.549173,0.827769,-2.372732,-1.613917,-0.193115,0.700195,-0.624756,0.010876,-0.018056,0.049761,0.999889,0.004139,-0.011863,-0.008069,0.943269,-0.269845,-0.156900,-0.113184
43846,NaN,1.075653,-0.531538,6.708917,-0.847549,3.058172,-3.781570,1.001905,-2.831701,-1.818617,-0.222656,0.691650,-0.628906,0.009755,-0.005744,0.067204,0.999846,0.005009,-0.014158,-0.009093,0.941224,-0.265254,-0.173254,-0.117139
43847,NaN,1.152246,-0.496697,7.503541,-1.219424,3.530489,-3.185426,0.429407,-3.207343,-1.924185,-0.258545,0.689453,-0.620361,0.010268,-0.005231,0.075196,0.999823,0.002147,-0.016036,-0.009620,0.936948,-0.266015,-0.191906,-0.120566
43848,NaN,1.955720,-0.530105,6.922831,-0.596022,3.113265,-3.333671,-0.182463,-3.596000,-2.083858,-0.292236,0.680908,-0.609619,0.018252,-0.005432,0.069569,0.999784,-0.000912,-0.017979,-0.010419,0.931796,-0.266980,-0.211373,-0.125696
43849,NaN,3.630896,-3.593092,9.817044,-1.468070,2.081200,0.956108,-0.345109,-3.255600,-2.072537,-0.319824,0.680908,-0.598877,0.034330,-0.036123,0.098802,0.999812,-0.001725,-0.016277,-0.010362,0.925926,-0.270080,-0.229470,-0.130617
43850,NaN,5.729406,-6.201706,10.231517,-1.177487,-0.020351,3.399769,0.177628,-2.621695,-1.884871,-0.353516,0.674316,-0.592285,0.055359,-0.062636,0.102994,0.999869,0.000888,-0.013108,-0.009424,0.921805,-0.268772,-0.244241,-0.135584
43851,NaN,7.529850,-4.443943,2.694913,3.507613,-3.007232,-1.916143,0.995644,-2.957774,-1.990854,-0.378662,0.659424,-0.596436,0.074443,-0.045320,0.027830,0.999829,0.004978,-0.014788,-0.009954,0.917693,-0.265067,-0.261228,-0.139063
43852,NaN,9.818514,-8.024682,4.979350,2.674463,-4.929122,2.601913,1.078139,-4.095943,-1.617476,-0.405762,0.642090,-0.587646,0.096489,-0.081306,0.051345,0.999743,0.005390,-0.020478,-0.008087,0.912411,-0.260787,-0.282849,-0.139614
43853,NaN,19.397816,-15.535461,9.718848,4.613200,-9.406830,14.728417,1.742298,-3.530477,-0.997948,-0.433105,0.637939,-0.585449,0.191457,-0.157173,0.099219,0.999794,0.008711,-0.017651,-0.004989,0.908308,-0.255296,-0.302325,-0.135646
43854,NaN,25.308335,-14.754439,7.193833,10.014775,-10.602552,16.591628,1.394802,-3.590193,-0.717629,-0.460449,0.627197,-0.576660,0.251217,-0.148966,0.075424,0.999808,0.006974,-0.017950,-0.003588,0.904000,-0.250263,-0.320435,-0.132190
43855,NaN,26.310448,-12.917824,2.939861,12.944695,-10.935148,14.281564,0.440452,-3.670951,-0.826056,-0.479248,0.616455,-0.566162,0.261973,-0.130333,0.033928,0.999821,0.002202,-0.018354,-0.004130,0.896929,-0.251198,-0.340986,-0.127071
43856,NaN,17.991768,-8.524664,7.666287,5.313648,-4.045276,10.448397,0.607175,-2.997644,-1.211318,-0.504395,0.609863,-0.553223,0.178223,-0.086567,0.079081,0.999865,0.003036,-0.014988,-0.006056,0.891689,-0.248280,-0.356292,-0.127689
43857,NaN,11.627555,-4.126706,5.260736,3.332820,-1.099209,3.132252,0.460301,-3.207251,-1.406243,-0.531738,0.601318,-0.546631,0.115119,-0.042203,0.054363,0.999844,0.002301,-0.016035,-0.007031,0.883991,-0.247278,-0.376969,-0.123725
43858,NaN,8.329695,-2.933463,2.522877,2.846179,-1.401965,-1.194120,0.869492,-3.347208,-1.291672,-0.554688,0.594971,-0.529541,0.082668,-0.029983,0.026486,0.999830,0.004347,-0.016735,-0.006458,0.877806,-0.243028,-0.393836,-0.123638
43859,NaN,6.968350,-2.411715,2.736408,1.723837,-0.701598,-2.171140,0.801589,-3.187571,-0.958470,-0.569092,0.579834,-0.523193,0.069120,-0.024562,0.028371,0.999853,0.004008,-0.015937,-0.004792,0.870208,-0.240522,-0.413804,-0.116847
43860,NaN,6.653084,-2.292328,2.978838,1.184501,-0.431338,-2.276215,0.572326,-3.097763,-0.543507,-0.592529,0.584229,-0.508301,0.065997,-0.023190,0.030747,0.999872,0.002862,-0.015488,-0.002717,0.864057,-0.238686,-0.428220,-0.114289
43861,NaN,7.872229,-3.212191,3.349988,1.029092,-0.871327,-0.774520,0.347047,-3.190924,-0.143418,-0.607178,0.579834,-0.489258,0.078152,-0.032238,0.034694,0.999871,0.001735,-0.015954,-0.000717,0.855864,-0.239226,-0.446349,-0.105069
43862,NaN,9.743786,-2.690329,3.334195,2.046613,-0.231071,0.629658,0.190460,-3.661185,0.054788,-0.619873,0.579834,-0.472168,0.096813,-0.026910,0.035092,0.999832,0.000952,-0.018305,0.000274,0.847805,-0.240416,-0.461978,-0.100016
43863,NaN,11.765080,-3.479193,2.176470,3.316407,-1.071033,2.149629,0.242681,-3.764158,0.289654,-0.636719,0.579590,-0.448975,0.117264,-0.034650,0.023932,0.999821,0.001213,-0.018820,0.001448,0.837756,-0.242076,-0.481353,-0.088677
43864,NaN,13.429287,-3.553216,2.379120,3.637220,-0.651233,3.787310,0.787979,-3.604483,0.469189,-0.645264,0.581787,-0.434082,0.133920,-0.035317,0.026068,0.999827,0.003940,-0.018021,0.002346,0.830096,-0.241460,-0.496151,-0.080440
43865,NaN,14.318272,-3.738775,2.706762,3.287917,-0.175022,4.865764,1.014967,-3.614092,0.628906,-0.653564,0.579590,-0.423340,0.142782,-0.037084,0.029462,0.999819,0.005075,-0.018069,0.003144,0.820631,-0.239981,-0.514414,-0.065964
43867,NaN,13.393129,-4.128699,1.688819,5.984517,-1.500719,17.733223,0.627679,-3.413906,0.421846,-0.672607,0.579590,-0.387451,0.266859,-0.081695,0.042385,0.999389,0.006276,-0.034132,0.004218,0.804354,-0.239105,-0.541515,-0.051045
43868,NaN,10.913045,-3.593245,1.950068,1.381780,-0.242918,1.755964,0.627709,-2.759494,0.045251,-0.687256,0.577393,-0.372559,0.108857,-0.035972,0.020891,0.999900,0.003138,-0.013797,0.000226,0.795434,-0.236649,-0.556425,-0.040903
43869,NaN,9.081564,-2.877486,2.483596,0.216088,0.322311,0.024373,0.629185,-2.614348,-0.309785,-0.693604,0.570801,-0.361816,0.090437,-0.028996,0.025929,0.999908,0.003146,-0.013071,-0.001549,0.788767,-0.233797,-0.567270,-0.037290
43870,NaN,7.255274,-2.405104,2.186358,-0.275022,0.300772,-1.873261,0.556858,-2.531336,-0.615790,-0.706299,0.570801,-0.351318,0.072194,-0.024336,0.022711,0.999911,0.002784,-0.012656,-0.003079,0.780028,-0.229443,-0.581354,-0.030671
43871,NaN,6.071924,-1.360696,1.879569,-0.244194,0.846752,-3.372739,0.623194,-2.807350,-0.978024,-0.720459,0.555664,-0.330078,0.060380,-0.013963,0.019602,0.999885,0.003116,-0.014036,-0.004890,0.772340,-0.224572,-0.593456,-0.029452
43872,NaN,5.188269,-0.493249,1.103697,0.254523,1.151302,-4.617796,0.182771,-3.024344,-1.012209,-0.735107,0.549316,-0.315186,0.051682,-0.005205,0.011815,0.999872,0.000914,-0.015121,-0.005061,0.761494,-0.220344,-0.609037,-0.025471
43873,NaN,4.223741,-1.007582,0.378947,0.373296,0.205830,-5.474938,-0.048531,-2.502038,-0.633381,-0.737061,0.547119,-0.296143,0.042153,-0.010208,0.004320,0.999917,-0.000243,-0.012510,-0.003167,0.753675,-0.218900,-0.619207,-0.025274
43874,NaN,3.393153,-1.279998,-0.185008,0.517336,-0.407863,-6.241728,0.091605,-1.969381,-0.319274,-0.749756,0.549072,-0.283203,0.033927,-0.012853,-0.001522,0.999950,0.000458,-0.009847,-0.001596,0.745918,-0.216806,-0.629427,-0.020564
43875,NaN,3.352183,-1.159286,0.407639,-0.060610,-0.086148,-6.243940,0.074504,-1.468644,0.070465,-0.749756,0.546875,-0.270508,0.033495,-0.011583,0.004318,0.999973,0.000373,-0.007343,0.000352,0.741362,-0.216894,-0.634822,-0.018477
43876,NaN,1.761393,-3.064685,3.415212,-3.806871,-1.169909,-6.932269,-0.360852,-2.244636,0.018446,-0.754395,0.559814,-0.258057,0.017232,-0.030583,0.034402,0.999935,-0.001804,-0.011223,0.000092,0.732229,-0.217529,-0.645233,-0.014000
43877,NaN,1.886658,-3.732421,2.549135,-3.233399,-2.027201,-6.742920,0.075107,-3.075487,0.260213,-0.758301,0.553223,-0.234619,0.018520,-0.037310,0.025764,0.999881,0.000376,-0.015377,0.001301,0.722318,-0.218282,-0.656141,-0.009461
43878,NaN,3.567022,-3.613669,1.132293,-1.706767,-1.908935,-5.284288,0.934969,-3.633105,0.274045,-0.764648,0.555420,-0.211426,0.035508,-0.036142,0.011800,0.999823,0.004675,-0.018164,0.001370,0.710012,-0.215125,-0.670524,0.001487
43879,NaN,6.395669,-1.915989,0.333431,-0.316571,0.261791,-3.140771,2.057829,-3.823723,0.486663,-0.770752,0.548828,-0.198730,0.063926,-0.019046,0.004360,0.999761,0.010288,-0.019117,0.002433,0.699231,-0.209371,-0.683402,0.014223
43880,NaN,10.479884,-0.374386,-5.158846,5.396616,1.690658,0.413992,3.155772,-3.134645,0.654472,-0.770752,0.548828,-0.200684,0.105600,-0.002602,-0.049985,0.999747,0.015778,-0.015672,0.003272,0.690393,-0.199495,-0.694584,0.033351
43881,NaN,7.253618,-1.324077,-4.184289,3.989957,0.249738,-2.336583,2.747243,-1.284038,0.341942,-0.768555,0.546875,-0.198730,0.072825,-0.012544,-0.041551,0.999884,0.013736,-0.006420,0.001710,0.688534,-0.190960,-0.698140,0.045347
43882,NaN,5.198061,-2.915926,-3.304708,2.728369,-1.564879,-3.767036,1.403538,-1.514226,0.397667,-0.770752,0.553223,-0.188232,0.052287,-0.028824,-0.032855,0.999945,0.007018,-0.007571,0.001988,0.683050,-0.186250,-0.704036,0.055564
43883,NaN,5.084798,-5.466455,-1.969212,0.896313,-3.646812,-3.066461,0.397228,-1.852723,0.549764,-0.772949,0.555176,-0.183838,0.051178,-0.054486,-0.019327,0.999951,0.001986,-0.009263,0.002749,0.676709,-0.186303,-0.709710,0.060560
43884,NaN,7.004928,-7.500782,0.010655,-1.522005,-4.438023,-0.684862,0.731523,-2.013659,0.749243,-0.764893,0.568115,-0.171387,0.070326,-0.074746,0.000540,0.999936,0.003658,-0.010068,0.003746,0.668476,-0.184924,-0.716949,0.070198
43885,NaN,7.802275,-6.796852,0.663249,-2.162685,-3.328361,-0.233748,0.579981,-1.895144,0.717809,-0.769043,0.565918,-0.165039,0.078200,-0.067708,0.007176,0.999944,0.002900,-0.009476,0.003589,0.661927,-0.184881,-0.722379,0.076422
43886,NaN,7.979785,-5.978424,0.512991,-2.024837,-2.442314,-0.346201,-0.155343,-1.973304,0.454186,-0.764893,0.572266,-0.145996,0.079877,-0.059598,0.005964,0.999948,-0.000777,-0.009866,0.002271,0.653055,-0.185190,-0.729705,0.082182
43887,NaN,10.623422,-4.103946,1.908362,-3.460570,0.506022,1.192174,-0.152478,-1.587243,0.402336,-0.764893,0.574463,-0.137451,0.106160,-0.040811,0.019958,0.999966,-0.000762,-0.007936,0.002012,0.646933,-0.186496,-0.734557,0.084404
43888,NaN,11.314902,-2.704771,2.801105,-4.084996,2.689979,1.108085,0.055893,-1.502224,0.285400,-0.762451,0.567871,-0.126953,0.112973,-0.026894,0.028853,0.999971,0.000279,-0.007511,0.001427,0.644215,-0.227118,-0.728381,0.053533
43889,NaN,11.105641,-0.988466,4.036150,-4.940685,4.441871,0.008759,0.227515,-1.119437,0.314659,-0.762451,0.570068,-0.114258,0.110844,-0.009757,0.040971,0.999982,0.001138,-0.005597,0.001573,0.640298,-0.227226,-0.731559,0.056643
43890,NaN,12.605737,-0.586864,5.095963,-5.560065,6.189665,0.957196,0.199102,-0.879338,0.229204,-0.764648,0.574463,-0.110107,0.125838,-0.005775,0.051507,0.999989,0.000996,-0.004397,0.001146,0.638787,-0.259840,-0.723469,0.032042
43891,NaN,13.406065,0.485261,5.261385,-5.463115,7.523353,1.196103,0.024407,-0.384338,0.180790,-0.760498,0.574463,-0.114258,0.133955,0.004967,0.052872,0.999998,0.000122,-0.001922,0.000904,0.637395,-0.260352,-0.724460,0.033205
43892,NaN,14.098132,0.694084,5.490578,-5.053771,8.483268,1.671173,0.144696,-0.100184,0.085206,-0.762695,0.578613,-0.110107,0.140951,0.006961,0.054981,1.000000,0.000723,-0.000501,0.000426,0.638084,-0.287075,-0.714361,0.011127
43893,NaN,14.286531,0.524607,4.578407,-4.304019,8.096037,2.073082,0.548836,-0.063484,0.000116,-0.764648,0.572266,-0.114258,0.142851,0.005120,0.045844,0.999996,0.002744,-0.000317,0.000001,0.638639,-0.285319,-0.714534,0.013177
43894,NaN,14.156540,-0.201920,2.704200,-2.446025,6.928947,2.587619,1.082076,-0.189922,-0.043687,-0.760498,0.576416,-0.122803,0.141539,-0.002197,0.027165,0.999985,0.005410,-0.000950,-0.000218,0.640165,-0.303861,-0.705585,-0.002758
43895,NaN,13.639112,-1.734758,1.070192,-1.675100,4.799469,3.006793,1.370292,-0.380224,-0.093378,-0.764648,0.572266,-0.122803,0.136362,-0.017485,0.010842,0.999975,0.006851,-0.001901,-0.000467,0.640885,-0.299142,-0.706948,0.002353
43896,NaN,13.080391,-3.524818,-0.148579,-1.195418,2.671379,3.415226,1.154321,-0.491311,-0.157854,-0.770996,0.570068,-0.122803,0.130779,-0.035343,-0.001368,0.999980,0.005772,-0.002457,-0.000789,0.641419,-0.313433,-0.700161,-0.010725
43897,NaN,12.575851,-4.920287,-0.588855,-1.474120,1.142016,3.575019,0.580428,-0.396263,-0.210686,-0.766846,0.570068,-0.124756,0.125718,-0.049318,-0.005782,0.999993,0.002902,-0.001981,-0.001053,0.640923,-0.310852,-0.701792,-0.008749
43898,NaN,12.492732,-6.335722,-0.309661,-2.365433,0.155998,3.996219,0.148703,-0.240176,-0.200547,-0.766602,0.567871,-0.116455,0.124867,-0.063480,-0.002994,0.999998,0.000744,-0.001201,-0.001003,0.640582,-0.325295,-0.695190,-0.023417
43899,NaN,13.342264,-6.735857,-0.405278,-2.472177,0.144100,4.932467,0.040807,-0.117232,-0.121806,-0.766602,0.567871,-0.124756,0.133384,-0.067439,-0.003988,1.000000,0.000204,-0.000586,-0.000609,0.640223,-0.324754,-0.695772,-0.023477
43900,NaN,15.302738,-6.581276,-0.949368,-1.805483,0.892276,6.750294,-0.044518,0.130121,-0.004468,-0.772949,0.567871,-0.118408,0.153020,-0.065818,-0.009579,1.000000,-0.000223,0.000651,-0.000022,0.640691,-0.338292,-0.688272,-0.036818
43901,NaN,17.550532,-7.168207,-1.144300,-1.798457,1.276785,9.051272,-0.223133,0.344995,0.081165,-0.770996,0.567871,-0.126953,0.175514,-0.071624,-0.011666,0.999998,-0.001116,0.001725,0.000406,0.641511,-0.339221,-0.686990,-0.037911
43902,NaN,18.424052,-8.248300,-1.466390,-1.923651,0.671025,10.323828,-0.365050,0.584085,0.086997,-0.769043,0.572266,-0.129150,0.184233,-0.082430,-0.015051,0.999994,-0.001825,0.002920,0.000435,0.642922,-0.351056,-0.678882,-0.050300
43903,NaN,16.755256,-8.759650,-0.922850,-2.689426,-0.161932,8.923941,-0.372092,0.921416,0.074169,-0.762451,0.565918,-0.133301,0.167541,-0.087552,-0.009837,0.999988,-0.001860,0.004607,0.000371,0.645404,-0.352267,-0.675691,-0.052943
43904,NaN,14.812838,-8.363558,-0.166586,-3.121292,-0.268124,6.907974,-0.387948,1.308470,0.054312,-0.766846,0.574463,-0.141846,0.148137,-0.083600,-0.002473,0.999977,-0.001940,0.006542,0.000272,0.649111,-0.361667,-0.666061,-0.064921
43905,NaN,13.547766,-7.605298,0.764892,-3.444817,0.214868,5.354782,-0.596536,1.612684,0.004179,-0.769043,0.574463,-0.150146,0.135536,-0.076029,0.006783,0.999963,-0.002983,0.008063,0.000021,0.653378,-0.363079,-0.660604,-0.069810
43906,NaN,12.380525,-6.886209,1.812862,-3.844843,0.868403,3.914842,-1.076064,1.740161,-0.059088,-0.767090,0.574463,-0.154541,0.123939,-0.068804,0.017421,0.999948,-0.005380,0.008701,-0.000295,0.657088,-0.372331,-0.650083,-0.083647
43907,NaN,11.730087,-6.239242,2.718169,-4.136250,1.577372,3.005771,-1.572919,2.002849,0.018006,-0.762695,0.574463,-0.158691,0.117574,-0.062172,0.026495,0.999919,-0.007864,0.010014,0.000090,0.660621,-0.376689,-0.642762,-0.092424
43908,NaN,11.907433,-6.194486,3.146976,-4.183622,1.967447,3.175184,-1.830472,2.436384,0.163469,-0.758789,0.578857,-0.169434,0.119501,-0.061565,0.030580,0.999884,-0.009152,0.012181,0.000817,0.664971,-0.387371,-0.629329,-0.108175
43909,NaN,12.273960,-6.030374,2.953839,-3.624919,2.027025,3.547097,-1.905739,3.129429,0.353134,-0.759033,0.589600,-0.179932,0.123294,-0.059813,0.028184,0.999831,-0.009528,0.015646,0.001766,0.671202,-0.393060,-0.617107,-0.119042
43910,NaN,13.363202,-6.070353,2.964217,-3.000559,2.259650,4.681504,-1.670031,4.112161,0.544024,-0.742432,0.595947,-0.201172,0.134375,-0.060104,0.027388,0.999750,-0.008349,0.020559,0.002720,0.680804,-0.401719,-0.597385,-0.135126
43911,NaN,14.486820,-6.596134,3.869457,-3.192010,2.677260,6.028905,-1.504610,4.810599,0.783191,-0.730225,0.606934,-0.235107,0.146007,-0.065115,0.035684,0.999675,-0.007522,0.024050,0.003916,0.692454,-0.405799,-0.578231,-0.146573
43912,NaN,16.368755,-7.985288,5.386435,-3.851453,3.144494,8.515708,-1.217471,5.211585,1.018564,-0.719971,0.615479,-0.264893,0.165428,-0.078701,0.050050,0.999629,-0.006087,0.026055,0.005092,0.705619,-0.411874,-0.553646,-0.161053
43913,NaN,15.887490,-8.224911,7.107330,-4.521529,3.833186,8.500415,-0.481912,5.108254,0.919814,-0.707275,0.619873,-0.292480,0.161000,-0.081347,0.067176,0.999660,-0.002409,0.025538,0.004599,0.719264,-0.411868,-0.533159,-0.169607
43914,NaN,14.266591,-7.471152,6.781439,-3.654698,3.314258,6.948956,0.630922,4.363632,0.718025,-0.684082,0.620117,-0.324219,0.144364,-0.074402,0.064442,0.999751,0.003154,0.021816,0.003590,0.732966,-0.409379,-0.513616,-0.177114
43915,NaN,11.345789,-5.193193,6.297386,-2.529872,3.454107,3.491420,1.282670,3.487532,0.489096,-0.682373,0.624268,-0.351807,0.114656,-0.052046,0.060648,0.999824,0.006413,0.017437,0.002445,0.744848,-0.402774,-0.500883,-0.179137
43916,NaN,10.676361,-4.282880,3.950778,-0.455771,1.780047,2.210254,1.305896,2.383144,0.254637,-0.667480,0.624512,-0.377197,0.107277,-0.042944,0.037951,0.999907,0.006529,0.011915,0.001273,0.753795,-0.398269,-0.489487,-0.183242
43917,NaN,10.174504,-3.772739,-0.986101,2.757678,-2.032849,0.530613,2.510602,1.549223,-0.197389,-0.669434,0.609619,-0.404541,0.101625,-0.037693,-0.011122,0.999891,0.012553,0.007746,-0.000987,0.762320,-0.386862,-0.486291,-0.180908
43918,NaN,9.192713,-0.928155,-4.886597,6.643553,-3.485296,-2.535455,5.036672,0.948231,-0.857926,-0.675293,0.588135,-0.431885,0.091656,-0.008433,-0.049521,0.999662,0.025181,0.004741,-0.004289,0.773404,-0.366492,-0.485835,-0.177466
43919,NaN,9.312085,0.916472,-10.144265,11.285397,-6.078119,-4.698882,3.122545,1.119798,-0.822183,-0.672852,0.573242,-0.459229,0.092592,0.010371,-0.101806,0.999854,0.015612,0.005599,-0.004111,0.781001,-0.351374,-0.485713,-0.175089
43920,NaN,10.586347,-0.310741,-8.170276,9.946372,-5.643471,-2.875652,1.408290,3.513877,-0.404027,-0.661865,0.560547,-0.490967,0.104400,-0.002735,-0.083566,0.999819,0.007041,0.017568,-0.002020,0.790746,-0.344810,-0.470657,-0.185224
43921,NaN,11.255608,0.233441,0.130447,5.673646,0.435699,-0.098552,1.438328,3.843525,-0.557886,-0.645020,0.558350,-0.516357,0.112560,0.002021,-0.000843,0.999786,0.007191,0.019216,-0.002789,0.801582,-0.334178,-0.457658,-0.190633
43922,NaN,8.466721,-2.191834,-0.495442,3.348372,-2.105244,-1.997505,-0.451720,4.986387,-0.131253,-0.619873,0.564941,-0.543945,0.084495,-0.021988,-0.007013,0.999686,-0.002258,0.024929,-0.000656,0.810550,-0.333920,-0.434336,-0.207020
43923,NaN,7.654027,-3.649227,-0.673242,2.296373,-3.502422,-2.409899,-1.516905,5.781378,-0.133035,-0.590332,0.569336,-0.565186,0.076284,-0.036604,-0.008663,0.999553,-0.007583,0.028903,-0.000665,0.820070,-0.333646,-0.409370,-0.220413
43924,NaN,7.512938,-3.623403,0.313643,1.842754,-3.094976,-2.283840,-2.235066,6.431137,-0.288697,-0.559082,0.584473,-0.588867,0.075135,-0.036322,0.001126,0.999420,-0.011173,0.032149,-0.001443,0.826528,-0.338383,-0.377263,-0.244994
43925,NaN,6.255479,-4.203406,1.224370,0.473577,-2.862475,-2.750527,-2.900079,6.302040,-0.271169,-0.525635,0.601562,-0.603760,0.062855,-0.041955,0.010875,0.999398,-0.014497,0.031504,-0.001356,0.832675,-0.341932,-0.347906,-0.262098
43926,NaN,8.198027,-3.685584,0.708836,2.326036,-3.620203,-1.890304,-3.353502,6.339490,-0.524699,-0.489990,0.620850,-0.616699,0.082066,-0.036974,0.005107,0.999354,-0.016764,0.031691,-0.002623,0.834083,-0.349352,-0.314268,-0.288955
43927,NaN,6.169600,-3.661262,4.227133,0.117121,-0.682633,-1.515347,-1.607481,5.862544,-0.649514,-0.464600,0.616699,-0.637939,0.062787,-0.036484,0.040735,0.999533,-0.008036,0.029308,-0.003247,0.839156,-0.346403,-0.288490,-0.304295
43928,NaN,5.198324,-2.046226,-0.123354,1.931095,-3.021632,-5.527931,-1.598454,5.907151,-0.244526,-0.430908,0.627441,-0.650879,0.051895,-0.020543,-0.002603,0.999531,-0.007991,0.029531,-0.001222,0.841783,-0.345456,-0.258899,-0.324088
43929,NaN,2.924168,-1.767577,-0.353974,0.710644,-2.362562,-7.422703,-1.934308,5.845203,-0.344229,-0.397461,0.642334,-0.661621,0.029094,-0.017765,-0.004220,0.999525,-0.009670,0.029221,-0.001721,0.845048,-0.343517,-0.231640,-0.337982
43930,NaN,1.791694,0.624762,1.518115,1.455597,0.649646,-7.978829,-1.569469,4.954037,0.161257,-0.368164,0.655273,-0.661865,0.018280,0.006379,0.014682,0.999662,-0.007846,0.024767,0.000806,0.845568,-0.343292,-0.205252,-0.353605
43931,NaN,2.210933,0.212365,1.209751,1.536724,-0.066072,-7.805278,-1.577599,4.589468,0.527883,-0.330322,0.666016,-0.670654,0.022373,0.002275,0.011569,0.999702,-0.007887,0.022945,0.002639,0.848250,-0.342288,-0.182096,-0.360765
43932,NaN,1.535917,0.146086,-0.138544,1.139011,-0.815771,-9.152188,-1.751337,4.764629,0.754900,-0.298828,0.683105,-0.670898,0.015315,0.001504,-0.001764,0.999671,-0.008756,0.023821,0.003774,0.847479,-0.342972,-0.154483,-0.374545
43933,NaN,1.942959,-0.981658,1.138896,0.606361,-0.741107,-7.550375,-1.621448,4.505662,0.983583,-0.260986,0.689697,-0.670898,0.019728,-0.009630,0.011025,0.999701,-0.008106,0.022526,0.004917,0.849766,-0.342064,-0.130625,-0.379245
43934,NaN,2.499207,-1.928818,1.942555,0.390147,-1.034010,-6.274767,-1.648926,4.188171,1.110343,-0.238037,0.704590,-0.666992,0.025500,-0.018989,0.019052,0.999731,-0.008244,0.020939,0.005551,0.848510,-0.342546,-0.105165,-0.389400
43935,NaN,2.672318,-2.718984,2.051876,0.050279,-1.505614,-5.753959,-1.668156,3.839093,1.199300,-0.206543,0.721680,-0.667236,0.027275,-0.026858,0.020224,0.999763,-0.008340,0.019194,0.005996,0.849804,-0.342700,-0.083554,-0.391674
43936,NaN,2.472297,-4.101855,2.134650,-0.993120,-2.012732,-5.073989,-1.568667,3.480404,1.120620,-0.172607,0.723877,-0.661133,0.025322,-0.040711,0.021229,0.999802,-0.007843,0.017401,0.005603,0.846923,-0.343507,-0.060707,-0.401298
43937,NaN,2.348115,-3.508034,2.497214,-0.467468,-1.503106,-5.167605,-1.467658,3.085428,0.993151,-0.156006,0.738770,-0.652832,0.024038,-0.034779,0.024860,0.999842,-0.007338,0.015426,0.004965,0.847196,-0.343780,-0.042984,-0.402775
43938,NaN,1.607217,-4.496065,2.363951,-1.610193,-1.557735,-4.978883,-1.330855,2.529150,0.948777,-0.124512,0.747314,-0.646484,0.016584,-0.044725,0.023730,0.999887,-0.006654,0.012645,0.004744,0.844181,-0.344737,-0.025468,-0.409715
43939,NaN,0.378878,-5.689984,2.448001,-3.151060,-1.217867,-4.607039,-1.005788,1.896586,0.849730,-0.109863,0.753662,-0.640381,0.004264,-0.056758,0.024727,0.999933,-0.005029,0.009483,0.004249,0.844372,-0.345184,-0.013939,-0.409500
43940,NaN,-0.404482,-6.546591,2.891105,-4.080307,-0.757102,-3.968280,-0.634521,1.239111,0.685671,-0.105469,0.753662,-0.642578,-0.003640,-0.065387,0.029142,0.999970,-0.003173,0.006195,0.003428,0.842242,-0.345515,-0.004203,-0.413800
43941,NaN,-0.589973,-6.634105,3.420291,-4.056415,-0.376462,-3.530861,-0.242152,0.627723,0.427397,-0.099121,0.755859,-0.636230,-0.005650,-0.066312,0.034301,0.999992,-0.001211,0.003139,0.002137,0.842713,-0.345244,-0.000322,-0.413088
43942,NaN,-0.684636,-6.309451,3.573547,-3.825349,-0.053698,-3.614949,0.064429,0.039117,0.122261,-0.101318,0.755859,-0.640381,-0.006801,-0.063110,0.035716,1.000000,0.000322,0.000196,0.000611,0.840603,-0.345077,0.002011,-0.417498
43943,NaN,-0.919484,-5.940153,3.626836,-3.718074,0.293143,-3.865025,0.254457,-0.527783,-0.180812,-0.105469,0.751709,-0.644531,-0.009344,-0.059439,0.036168,0.999995,0.001272,-0.002639,-0.000904,0.840664,-0.345112,-0.001052,-0.417350
43944,NaN,-0.516806,-5.710683,3.440550,-3.386486,0.046195,-4.046790,0.346753,-1.031443,-0.454247,-0.120361,0.751709,-0.644531,-0.005475,-0.057154,0.034279,0.999983,0.001734,-0.005157,-0.002271,0.838279,-0.346058,-0.005088,-0.421316
43945,NaN,-1.112712,-4.152691,3.765457,-2.633753,1.317242,-4.914812,0.397739,-1.457542,-0.690089,-0.131104,0.755859,-0.648682,-0.011544,-0.041562,0.037489,0.999966,0.001989,-0.007288,-0.003450,0.837446,-0.347433,-0.013231,-0.421663
43946,NaN,-0.290482,-3.961743,3.805758,-2.024506,0.909090,-4.779060,0.557232,-1.936408,-0.923574,-0.152100,0.745117,-0.650635,-0.003456,-0.039708,0.037915,0.999939,0.002786,-0.009682,-0.004618,0.834305,-0.349450,-0.022244,-0.425822
43947,NaN,-0.028153,-3.572338,3.960802,-1.636525,1.032913,-4.842418,0.721552,-2.367590,-1.154798,-0.179443,0.734619,-0.652588,-0.000956,-0.035862,0.039470,0.999907,0.003608,-0.011838,-0.005774,0.832765,-0.351322,-0.035674,-0.426384
43948,NaN,0.356383,-3.321767,4.396469,-1.215768,1.218758,-4.566325,0.764309,-2.668967,-1.320043,-0.207031,0.734619,-0.654541,0.002758,-0.033405,0.043878,0.999882,0.003821,-0.013344,-0.006600,0.829423,-0.353933,-0.049353,-0.429365
43949,NaN,0.650816,-3.000191,5.537509,-0.679596,1.963863,-3.832160,0.490320,-2.828155,-1.398961,-0.234375,0.725830,-0.648193,0.005514,-0.030179,0.055384,0.999873,0.002451,-0.014140,-0.006995,0.826482,-0.357582,-0.064605,-0.429987
43950,NaN,0.654490,-2.693027,6.731754,-0.325216,2.995750,-3.186043,-0.123547,-2.854009,-1.520499,-0.259766,0.723877,-0.641602,0.005379,-0.026932,0.067416,0.999869,-0.000618,-0.014269,-0.007602,0.820524,-0.364145,-0.077276,-0.433782
43951,NaN,1.034112,-1.891961,5.626287,0.194439,2.467639,-4.319658,-0.704616,-3.008700,-1.708574,-0.291504,0.728027,-0.628906,0.009332,-0.018803,0.056475,0.999844,-0.003523,-0.015043,-0.008542,0.814244,-0.372846,-0.091191,-0.435519
43952,NaN,2.323932,-0.198182,4.554386,2.018099,1.639580,-5.406033,-0.789488,-3.515454,-1.842381,-0.329834,0.730225,-0.614014,0.022416,-0.002010,0.045951,0.999795,-0.003947,-0.017576,-0.009211,0.806126,-0.383144,-0.106038,-0.438312
43953,NaN,4.058721,-1.715373,7.804295,2.228496,2.593953,-1.529143,0.085076,-3.677037,-1.855203,-0.359131,0.715088,-0.609619,0.038982,-0.017554,0.078762,0.999788,0.000425,-0.018384,-0.009275,0.800101,-0.389796,-0.124577,-0.438609
43954,NaN,4.887442,-4.117977,6.630114,0.350375,0.728283,-0.640074,1.660895,-3.772569,-1.823150,-0.394775,0.702393,-0.613525,0.047235,-0.042169,0.066855,0.999746,0.008304,-0.018861,-0.009115,0.796517,-0.390346,-0.146210,-0.437964
43955,NaN,6.456815,-3.542091,1.620881,0.915644,-3.558948,-3.228437,2.041970,-4.460502,-1.792241,-0.438721,0.683105,-0.606934,0.063869,-0.036168,0.017272,0.999659,0.010209,-0.022300,-0.008960,0.793044,-0.390540,-0.171893,-0.434755
43956,NaN,11.809942,-8.987106,3.652977,-0.621048,-6.359290,4.070070,0.463452,-4.546315,-1.339707,-0.466064,0.674316,-0.591797,0.116626,-0.090744,0.038983,0.999717,0.002317,-0.022729,-0.006698,0.787717,-0.397047,-0.193919,-0.429245
43957,NaN,18.768669,-16.543861,7.152886,-3.255917,-9.153857,14.326500,1.580521,-3.502567,-0.828566,-0.491211,0.659424,-0.591797,0.185722,-0.166786,0.073478,0.999807,0.007902,-0.017512,-0.004143,0.785527,-0.397461,-0.212714,-0.423941
43958,NaN,23.908178,-15.823275,6.827877,-0.131057,-11.149418,17.467429,1.227568,-4.056849,-0.571973,-0.516357,0.655029,-0.574707,0.237190,-0.159348,0.072127,0.999771,0.006137,-0.020283,-0.002860,0.784000,-0.399802,-0.233804,-0.413325
43959,NaN,29.390804,-13.442821,4.750624,4.549374,-13.740126,19.470458,0.395114,-3.843510,-0.674247,-0.548096,0.650635,-0.559814,0.292471,-0.135517,0.052869,0.999808,0.001975,-0.019216,-0.003371,0.778751,-0.405332,-0.250990,-0.407745
43960,NaN,21.497070,-8.507637,6.016310,3.945339,-6.816064,12.740017,0.997964,-3.326174,-1.314847,-0.566895,0.642090,-0.555420,0.213369,-0.086793,0.063290,0.999828,0.004990,-0.016630,-0.006574,0.774883,-0.406129,-0.269819,-0.402261
43961,NaN,14.289032,-4.179375,6.111519,3.300499,-1.873245,5.825923,0.862088,-3.128634,-1.550611,-0.587646,0.627197,-0.542480,0.141582,-0.043164,0.063153,0.999838,0.004310,-0.015642,-0.007753,0.769167,-0.406926,-0.286780,-0.400688
43962,NaN,9.063081,-2.674633,2.883042,1.953131,-1.808117,-0.298906,1.547056,-3.095583,-1.529887,-0.614990,0.616455,-0.535889,0.089963,-0.027665,0.030015,0.999821,0.007735,-0.015477,-0.007649,0.766613,-0.403720,-0.307132,-0.393682
43963,NaN,5.754127,-0.235161,3.106813,2.124760,0.611580,-3.654377,1.184005,-2.975046,-1.285171,-0.633545,0.601318,-0.525146,0.057053,-0.002907,0.031903,0.999851,0.005920,-0.014874,-0.006426,0.761789,-0.403006,-0.323415,-0.390727
43964,NaN,5.104070,-0.214669,2.443888,1.808062,0.421075,-4.462780,0.160985,-2.844724,-0.728272,-0.652588,0.599121,-0.508057,0.050678,-0.002352,0.025160,0.999892,0.000805,-0.014223,-0.003641,0.757698,-0.405487,-0.338147,-0.383575
43965,NaN,5.189168,-0.801040,2.796775,1.186711,0.615429,-4.015961,-0.090737,-2.580173,-0.436627,-0.667236,0.594727,-0.493164,0.051507,-0.008110,0.028638,0.999914,-0.000454,-0.012900,-0.002183,0.752248,-0.410008,-0.348606,-0.380120
43966,NaN,6.441871,-1.230013,3.610788,1.138238,0.978110,-2.478291,0.120011,-2.469895,-0.140373,-0.677490,0.590576,-0.478516,0.063958,-0.012367,0.036892,0.999923,0.000600,-0.012349,-0.000702,0.749397,-0.412665,-0.360480,-0.371708
43967,NaN,8.168249,-1.957114,3.225019,1.321499,0.099204,-0.913784,0.255871,-2.756187,0.234714,-0.686035,0.592529,-0.465820,0.081251,-0.019518,0.033347,0.999904,0.001279,-0.013780,0.001174,0.745319,-0.417213,-0.370766,-0.364645
43968,NaN,9.456472,-3.109966,2.625567,1.024442,-0.918093,0.389853,0.427683,-2.893470,0.688667,-0.700928,0.594727,-0.442383,0.094279,-0.030833,0.027555,0.999887,0.002138,-0.014467,0.003443,0.743885,-0.420198,-0.383503,-0.350705
43969,NaN,11.831408,-2.833227,1.806804,2.506131,-1.692753,2.108512,0.694982,-3.435680,0.521024,-0.705078,0.596680,-0.427734,0.118055,-0.028092,0.020000,0.999843,0.003475,-0.017178,0.002605,0.739552,-0.424572,-0.396347,-0.340162
43970,NaN,15.552173,-3.701709,2.678191,3.108709,-1.444352,6.029620,0.890143,-3.029587,0.423767,-0.722168,0.598877,-0.412842,0.155172,-0.036814,0.028970,0.999873,0.004451,-0.015147,0.002119,0.737324,-0.425668,-0.410258,-0.326876
43971,NaN,15.770248,-4.083106,3.163889,2.579419,-0.791011,6.560700,0.609139,-2.863421,0.200929,-0.724121,0.596680,-0.395752,0.157270,-0.040774,0.033768,0.999892,0.003046,-0.014317,0.001005,0.732994,-0.428470,-0.421340,-0.318757
43972,NaN,13.315870,-4.548521,2.784854,1.068189,-0.695232,4.474437,0.527370,-2.778075,-0.072615,-0.734619,0.594482,-0.383057,0.132739,-0.045610,0.029574,0.999900,0.002637,-0.013890,-0.000363,0.729193,-0.429126,-0.434640,-0.308573
43973,NaN,11.109007,-3.963082,2.162603,0.651556,-0.563569,2.147435,0.222400,-2.416155,-0.427864,-0.742920,0.590088,-0.372559,0.110733,-0.039893,0.022921,0.999924,0.001112,-0.012080,-0.002139,0.723701,-0.431082,-0.444679,-0.304442
43974,NaN,8.897732,-2.966127,2.175729,0.377789,0.197488,-0.194132,0.335011,-1.982640,-0.666382,-0.755615,0.592285,-0.355469,0.088657,-0.029994,0.022587,0.999944,0.001675,-0.009913,-0.003332,0.720442,-0.428981,-0.456558,-0.297480
43975,NaN,6.611881,-2.627315,2.172662,-0.399625,0.530783,-2.403416,0.519256,-1.844587,-0.619983,-0.763672,0.575195,-0.346924,0.065833,-0.026535,0.022266,0.999949,0.002596,-0.009223,-0.003100,0.716383,-0.428419,-0.465284,-0.294557
43976,NaN,4.433716,-3.108423,3.557360,-2.350496,1.631795,-4.000114,0.651621,-2.081738,-0.588076,-0.774170,0.572998,-0.338379,0.043873,-0.031330,0.035930,0.999936,0.003258,-0.010408,-0.002940,0.713092,-0.425808,-0.477140,-0.287271
43977,NaN,2.930811,-3.058705,3.406840,-2.910038,1.566808,-5.496719,0.552767,-2.531779,-0.299033,-0.784668,0.570801,-0.323486,0.028829,-0.030725,0.034351,0.999915,0.002764,-0.012659,-0.001495,0.707736,-0.426726,-0.487559,-0.281604
43978,NaN,3.663948,-2.566824,2.187488,-1.778898,0.777575,-5.227034,0.790035,-2.822418,0.103770,-0.791016,0.572754,-0.300293,0.036340,-0.025737,0.022288,0.999892,0.003950,-0.014112,0.000519,0.703881,-0.425610,-0.500889,-0.269292
43979,NaN,4.715027,-2.359286,1.414568,-0.938154,0.339908,-4.445949,1.050337,-2.940181,0.467276,-0.797363,0.572754,-0.289551,0.046992,-0.023559,0.014714,0.999875,0.005251,-0.014700,0.002336,0.699292,-0.426991,-0.511596,-0.258727
43980,NaN,5.940858,-1.986579,0.480772,0.188133,-0.059888,-3.533307,1.084334,-2.791379,0.662781,-0.801514,0.574951,-0.270508,0.059400,-0.019698,0.005530,0.999882,0.005421,-0.013956,0.003314,0.695980,-0.426716,-0.523017,-0.244906
43981,NaN,6.177141,-2.382151,0.511579,-0.105905,-0.066459,-3.173733,0.969301,-2.831287,0.797545,-0.799561,0.579102,-0.260010,0.061786,-0.023602,0.005876,0.999880,0.004846,-0.014156,0.003988,0.691534,-0.428846,-0.532294,-0.233527
43982,NaN,7.983884,-1.389492,-0.103350,1.530472,0.370653,-1.862818,0.773858,-2.617175,0.791407,-0.799561,0.583252,-0.245361,0.079898,-0.013577,-0.000041,0.999899,0.003869,-0.013085,0.003957,0.687788,-0.429330,-0.542338,-0.220214
43983,NaN,10.403486,0.139235,-0.971307,3.911419,1.059505,-0.180949,0.178469,-1.663713,0.861192,-0.795410,0.589844,-0.232666,0.104104,0.001849,-0.008846,0.999956,0.000892,-0.008318,0.004306,0.684574,-0.432866,-0.546386,-0.213188
43984,NaN,9.007505,-1.943678,-1.383382,2.111334,-0.465536,-0.748966,0.164639,-1.081470,0.801035,-0.797607,0.596191,-0.226318,0.090225,-0.019064,-0.013362,0.999977,0.000823,-0.005407,0.004005,0.683437,-0.433601,-0.550412,-0.204818
43985,NaN,8.202353,-3.892776,-0.171939,-0.311421,-0.581813,-0.755881,0.388502,-1.124356,0.406560,-0.797607,0.589600,-0.222168,0.082111,-0.038758,-0.001333,0.999980,0.001942,-0.005622,0.002033,0.681584,-0.434537,-0.553762,-0.199919
43986,NaN,6.064431,-4.044681,0.064730,-1.231062,-0.848736,-2.677938,0.553624,-1.489997,0.326007,-0.799561,0.591797,-0.211670,0.060704,-0.040350,0.000988,0.999967,0.002768,-0.007450,0.001630,0.679654,-0.432571,-0.560859,-0.190760
43987,NaN,6.329539,-4.775018,0.597961,-2.038774,-0.692181,-2.158594,0.696399,-1.757654,0.433706,-0.795410,0.593994,-0.203125,0.063344,-0.047635,0.006370,0.999953,0.003482,-0.008788,0.002168,0.676610,-0.433079,-0.566534,-0.183524
43988,NaN,6.357781,-4.930789,1.313841,-2.611332,-0.126211,-2.090978,0.616182,-1.614534,0.417685,-0.802002,0.604492,-0.188477,0.063573,-0.049216,0.013500,0.999960,0.003081,-0.008073,0.002088,0.673513,-0.433891,-0.571706,-0.176837
43989,NaN,6.221563,-4.408583,1.440753,-2.382184,0.302335,-2.433503,0.271577,-1.577167,0.324380,-0.799805,0.600342,-0.182129,0.062171,-0.044005,0.014838,0.999967,0.001358,-0.007886,0.001622,0.669854,-0.435285,-0.576538,-0.171542
43990,NaN,7.220547,-4.863451,2.212130,-2.974387,1.001685,-1.396531,0.271988,-1.605557,0.222968,-0.795410,0.600342,-0.169434,0.072079,-0.048585,0.022634,0.999966,0.001360,-0.008028,0.001115,0.665844,-0.436517,-0.581754,-0.166335
43991,NaN,7.004900,-4.221874,3.091548,-3.187229,2.054656,-1.934269,0.415999,-1.685204,0.186911,-0.803955,0.604492,-0.163086,0.069825,-0.042218,0.031417,0.999962,0.002080,-0.008426,0.000935,0.661976,-0.437062,-0.587284,-0.160819
43992,NaN,7.723930,-2.953545,2.665973,-1.892163,2.733408,-1.785428,0.594864,-1.720949,0.137628,-0.802002,0.608887,-0.150391,0.077027,-0.029563,0.027235,0.999958,0.002974,-0.008605,0.000688,0.658251,-0.436859,-0.593280,-0.154526
43993,NaN,8.891843,-1.381989,2.179336,-0.244718,3.707443,-1.332252,0.624721,-1.547600,0.116950,-0.802002,0.606689,-0.144043,0.088755,-0.013837,0.022437,0.999965,0.003124,-0.007738,0.000585,0.655088,-0.436332,-0.598583,-0.148903
43994,NaN,9.274545,-0.401345,1.903074,0.637480,4.277393,-1.380837,0.597038,-1.383047,0.114226,-0.801758,0.604492,-0.133301,0.092613,-0.004019,0.019659,0.999971,0.002985,-0.006915,0.000571,0.652306,-0.435677,-0.603418,-0.143421
43995,NaN,9.756848,0.168497,1.235899,1.517181,4.360163,-1.127182,0.521035,-1.129410,0.175415,-0.808105,0.606445,-0.126953,0.097495,0.001737,0.012914,0.999980,0.002605,-0.005647,0.000877,0.650142,-0.435310,-0.607084,-0.138814
43996,NaN,10.670163,-0.376975,0.673770,1.645405,4.034295,-0.042090,0.574627,-1.023296,0.206770,-0.801758,0.606445,-0.122803,0.106669,-0.003680,0.007273,0.999982,0.002873,-0.005116,0.001034,0.648405,-0.434754,-0.610404,-0.134042
43997,NaN,11.241853,-0.976163,0.024797,1.724228,3.507015,0.773129,0.602125,-1.086559,0.187115,-0.799805,0.610840,-0.116455,0.112424,-0.009658,0.000830,0.999980,0.003011,-0.005433,0.000936,0.646506,-0.434094,-0.613915,-0.129234
43998,NaN,11.695511,-1.903276,-0.175129,1.242596,3.080256,1.562939,0.624782,-1.120468,0.160661,-0.806152,0.613037,-0.114502,0.116978,-0.018935,-0.001155,0.999979,0.003124,-0.005602,0.000803,0.644483,-0.433334,-0.617562,-0.124421
43999,NaN,11.587077,-3.205004,0.093362,0.060145,2.549429,1.936222,0.462466,-1.092459,0.057284,-0.805908,0.606445,-0.101807,0.115873,-0.032020,0.001492,0.999982,0.002312,-0.005462,0.000286,0.642132,-0.432694,-0.621238,-0.120440
44000,NaN,11.787374,-4.632232,1.327460,-1.819367,2.719135,2.494107,0.182666,-0.955325,-0.014244,-0.803955,0.608643,-0.103760,0.117805,-0.046343,0.013795,0.999988,0.000913,-0.004777,-0.000071,0.639518,-0.432707,-0.624385,-0.118003
44001,NaN,12.313583,-6.123635,3.126201,-4.080228,3.359974,3.262390,-0.069655,-0.848566,0.007789,-0.803711,0.604248,-0.093262,0.123004,-0.061221,0.031805,0.999991,-0.000348,-0.004243,0.000039,0.636712,-0.433453,-0.627038,-0.116359
44002,NaN,14.026979,-8.116245,4.024111,-5.836653,3.538967,5.426452,-0.069840,-0.669066,0.065745,-0.801758,0.608643,-0.084717,0.140161,-0.081102,0.040738,0.999994,-0.000349,-0.003345,0.000329,0.634553,-0.434202,-0.628964,-0.114959
44003,NaN,17.750354,-7.131048,4.545685,-4.889381,6.040295,8.248280,-0.241766,-0.265702,0.045599,-0.803955,0.608643,-0.089111,0.177459,-0.071215,0.045779,0.999998,-0.001209,-0.001329,0.000228,0.633214,-0.435266,-0.629571,-0.114998
44004,NaN,21.314518,-6.811433,3.398706,-3.229217,6.895032,11.501302,-0.428277,0.122843,0.074968,-0.806152,0.612793,-0.084717,0.213192,-0.067962,0.034002,0.999997,-0.002141,0.000614,0.000375,0.632904,-0.436472,-0.628825,-0.116209
44005,NaN,21.428681,-6.855994,1.152118,-1.627956,5.316306,12.018618,0.084439,0.524899,-0.004190,-0.810059,0.606445,-0.093262,0.214315,-0.068569,0.010930,0.999996,0.000422,0.002624,-0.000021,0.634730,-0.435887,-0.627223,-0.117102
44006,NaN,18.115920,-6.701211,-0.392364,-0.949984,2.867987,9.269102,0.657602,0.994142,-0.138344,-0.806152,0.610840,-0.103760,0.181090,-0.067122,-0.005044,0.999982,0.003288,0.004971,-0.000692,0.639459,-0.432351,-0.624794,-0.117460
44007,NaN,15.932871,-6.736671,-0.519314,-1.145727,1.701517,7.371421,0.713533,1.549751,-0.223305,-0.812500,0.608643,-0.122803,0.159206,-0.067522,-0.006668,0.999963,0.003568,0.007749,-0.001117,0.645684,-0.428448,-0.620721,-0.119292
44008,NaN,14.379117,-6.884810,0.855575,-2.341655,1.742916,5.883276,0.381177,1.846882,-0.298408,-0.812256,0.602295,-0.131348,0.143758,-0.069077,0.007097,0.999954,0.001906,0.009234,-0.001492,0.652320,-0.424706,-0.615646,-0.122818
44009,NaN,13.089073,-7.376725,2.397204,-3.869226,1.848039,4.785088,-0.126533,1.960928,-0.357168,-0.812500,0.604492,-0.150391,0.130986,-0.073986,0.022735,0.999950,-0.000633,0.009804,-0.001786,0.657832,-0.422795,-0.609903,-0.128531
44010,NaN,12.499789,-7.307910,2.995571,-4.214647,1.918385,4.229238,-0.570050,2.176328,-0.314122,-0.814697,0.604492,-0.163086,0.125201,-0.073192,0.028803,0.999936,-0.002850,0.010881,-0.001571,0.663379,-0.421713,-0.603086,-0.135550
44011,NaN,12.440355,-7.788533,2.769919,-4.233107,1.272834,4.454434,-0.784669,2.613241,-0.210882,-0.816895,0.602539,-0.177734,0.124672,-0.077911,0.026377,0.999906,-0.003923,0.013066,-0.001054,0.669396,-0.421871,-0.594278,-0.144113
44012,NaN,12.748501,-6.754109,2.584572,-3.075768,1.634389,4.423864,-0.951637,3.321777,-0.068373,-0.812744,0.606689,-0.196777,0.127871,-0.067467,0.024045,0.999851,-0.004758,0.016608,-0.000342,0.677563,-0.421679,-0.582671,-0.153589
44013,NaN,12.855639,-6.412644,1.365640,-1.691590,0.677378,4.502167,-1.050218,4.196949,0.150921,-0.802246,0.606934,-0.230713,0.128858,-0.063966,0.011291,0.999766,-0.005251,0.020983,0.000755,0.687529,-0.422356,-0.567195,-0.164950
44014,NaN,14.197138,-7.361782,1.538445,-1.633627,0.208686,6.167739,-1.084045,5.018248,0.495113,-0.789795,0.613525,-0.266846,0.142486,-0.073194,0.012211,0.999667,-0.005420,0.025088,0.002475,0.700157,-0.422454,-0.547976,-0.176167
44015,NaN,14.393726,-7.552725,3.814052,-2.574642,1.521672,6.612408,-0.678375,4.905178,0.719658,-0.777588,0.622070,-0.294434,0.145089,-0.074885,0.034846,0.999687,-0.003392,0.024523,0.003598,0.712575,-0.422350,-0.528519,-0.185812
44016,NaN,13.619683,-7.012593,4.029912,-2.087028,1.477628,5.818877,-0.088967,3.950047,0.594251,-0.764893,0.624268,-0.315430,0.137165,-0.069702,0.037627,0.999800,-0.000445,0.019749,0.002971,0.723778,-0.419714,-0.513172,-0.191415
44017,NaN,12.771262,-5.733717,3.059750,-0.569763,0.994426,4.470672,0.088810,3.088483,0.483951,-0.754639,0.626465,-0.345215,0.128303,-0.057040,0.028594,0.999878,0.000444,0.015442,0.002420,0.732261,-0.417628,-0.501004,-0.195895
44018,NaN,12.803902,-4.998756,2.551691,0.585101,0.722948,4.135709,0.312981,3.137867,0.560258,-0.744385,0.639404,-0.366455,0.128557,-0.049666,0.023425,0.999872,0.001565,0.015689,0.002801,0.741787,-0.413992,-0.488750,-0.198710
44019,NaN,11.511404,-3.563235,1.661714,1.828205,0.404755,2.206042,0.655952,3.306732,0.586634,-0.731689,0.635254,-0.402344,0.115470,-0.035344,0.014594,0.999854,0.003280,0.016533,0.002933,0.751698,-0.409648,-0.475854,-0.201748
44020,NaN,9.992650,-2.187350,-1.177657,3.882727,-1.475858,-0.391293,1.275642,2.798944,0.152759,-0.725342,0.633301,-0.423584,0.099764,-0.021716,-0.013312,0.999881,0.006378,0.013994,0.000764,0.761543,-0.401652,-0.466368,-0.203048
44021,NaN,11.155472,0.001695,-2.505325,6.827166,-1.355819,-0.742543,1.915433,2.133211,0.093032,-0.720947,0.626709,-0.440430,0.111279,0.000316,-0.026239,0.999897,0.009577,0.010666,0.000465,0.770378,-0.392370,-0.459957,-0.202491
44022,NaN,11.733422,-1.497726,-4.035807,7.093288,-3.632474,-0.185291,1.151162,2.308234,-0.118079,-0.714600,0.620361,-0.469971,0.116849,-0.014809,-0.041794,0.999917,0.005756,0.011541,-0.000590,0.778124,-0.384788,-0.452456,-0.204314
44023,NaN,10.746140,-3.072748,-0.161020,3.573388,-1.860825,0.613450,1.558951,2.935993,-0.357846,-0.697510,0.609863,-0.499512,0.107365,-0.030898,-0.003427,0.999860,0.007794,0.014679,-0.001789,0.787289,-0.374862,-0.443253,-0.207800
44024,NaN,7.949732,-4.357819,3.709826,-0.657165,-0.011882,-0.039856,2.159762,3.099345,-0.264880,-0.692871,0.597168,-0.531250,0.079996,-0.044072,0.035387,0.999821,0.010798,0.015496,-0.001324,0.798012,-0.362158,-0.433686,-0.209606
44025,NaN,7.057792,-5.263272,2.483330,-0.873100,-1.819279,-0.890853,1.529990,3.616025,-0.056917,-0.665283,0.594971,-0.565186,0.070992,-0.052834,0.023149,0.999807,0.007649,0.018079,-0.000285,0.808408,-0.352072,-0.420882,-0.213024
44026,NaN,6.941315,-4.904581,0.511397,0.526092,-3.313342,-1.987372,0.531276,4.003262,-0.039016,-0.650635,0.595215,-0.588379,0.069486,-0.049070,0.003593,0.999796,0.002656,0.020015,-0.000195,0.817785,-0.345185,-0.405228,-0.218780
44027,NaN,6.855226,-4.288210,-2.359779,2.440938,-5.247204,-3.692794,-1.029172,4.480828,-0.215515,-0.625244,0.595215,-0.603271,0.067958,-0.043081,-0.024903,0.999735,-0.005145,0.022402,-0.001077,0.824634,-0.343965,-0.386048,-0.229423
44028,NaN,7.228534,-3.329632,-4.031695,4.075670,-6.138889,-4.784418,-2.206620,5.152755,-0.205333,-0.593994,0.614502,-0.622803,0.071187,-0.033825,-0.041789,0.999607,-0.011032,0.025760,-0.001027,0.830401,-0.346392,-0.362463,-0.243040
44029,NaN,6.846573,-3.231112,-2.528576,3.214794,-5.142988,-4.624792,-2.334898,5.544222,-0.148404,-0.562500,0.623047,-0.644043,0.067713,-0.032668,-0.026790,0.999547,-0.011673,0.027717,-0.000742,0.835846,-0.348924,-0.336703,-0.257378
44030,NaN,7.967692,-4.705523,-0.533923,2.197456,-5.043351,-2.353718,-1.897048,5.432885,-0.834237,-0.537354,0.627441,-0.665283,0.079304,-0.047448,-0.007048,0.999577,-0.009484,0.027161,-0.004171,0.840334,-0.348215,-0.312863,-0.273315
44031,NaN,8.883268,-1.629466,1.874784,4.168115,-1.936837,-1.816646,-1.129691,5.736255,-1.059848,-0.501465,0.634033,-0.682373,0.089236,-0.016670,0.016286,0.999559,-0.005648,0.028677,-0.005298,0.845520,-0.343313,-0.288929,-0.289401
44032,NaN,6.971314,-0.552546,2.034327,3.767430,-1.025498,-3.666118,-1.731003,6.454909,-0.705014,-0.467773,0.640381,-0.701660,0.070302,-0.005609,0.018129,0.999436,-0.008653,0.032268,-0.003524,0.850370,-0.340067,-0.260173,-0.305835
44033,NaN,2.903756,-0.618426,4.404931,0.608194,1.807324,-4.855354,-0.750993,5.188716,-0.066254,-0.436035,0.646973,-0.714355,0.030165,-0.006031,0.043299,0.999656,-0.003755,0.025941,-0.000331,0.855448,-0.335125,-0.236990,-0.315811
44034,NaN,5.810366,-0.865889,1.126798,3.227493,-1.993713,-5.188565,-1.768285,4.620015,0.255916,-0.400635,0.664062,-0.720947,0.058355,-0.008492,0.009997,0.999693,-0.008841,0.023098,0.001279,0.858046,-0.335594,-0.213904,-0.324622
44035,NaN,2.461870,-1.092047,-0.559034,1.036314,-2.063593,-8.318479,-1.898438,4.893627,0.561171,-0.366943,0.677002,-0.725586,0.024504,-0.010908,-0.006087,0.999652,-0.009491,0.024465,0.002806,0.860705,-0.336281,-0.188815,-0.332343
44036,NaN,2.004974,-1.277729,-0.132388,0.546269,-1.715120,-8.253987,-1.689539,4.670877,0.693957,-0.326904,0.689697,-0.734131,0.020057,-0.012721,-0.001685,0.999686,-0.008447,0.023352,0.003469,0.863048,-0.336364,-0.164648,-0.338967
44037,NaN,2.938819,-1.117750,0.449599,1.326375,-1.728157,-7.501606,-1.667052,4.527754,0.912873,-0.291260,0.704834,-0.732422,0.029532,-0.011009,0.003921,0.999699,-0.008334,0.022636,0.004564,0.865258,-0.336535,-0.140703,-0.343912
44038,NaN,3.492116,-0.309699,1.932723,2.344614,-0.653627,-6.634783,-1.762850,4.232024,1.018296,-0.251465,0.719727,-0.724121,0.035335,-0.002752,0.018608,0.999724,-0.008813,0.021158,0.005091,0.866653,-0.337539,-0.117584,-0.348073
44039,NaN,3.062707,-1.650998,1.226738,1.188463,-1.694468,-6.758860,-1.953485,4.031664,1.050753,-0.219971,0.736816,-0.726562,0.030954,-0.016231,0.011805,0.999735,-0.009767,0.020157,0.005253,0.867324,-0.339517,-0.094912,-0.351380
44042,NaN,0.875310,-3.008704,1.886464,-3.315678,-2.471937,0.347257,-1.811141,3.099127,0.896914,-0.146973,0.781738,-0.697510,0.030122,-0.088316,0.057671,0.998460,-0.027153,0.046463,0.013447,0.865742,-0.347509,-0.040325,-0.357913
44043,NaN,-1.051601,-5.571044,2.479449,-3.897233,-0.608109,-5.045024,-1.098547,1.924587,0.722207,-0.127930,0.781738,-0.693359,-0.010074,-0.055610,0.025198,0.999932,-0.005493,0.009623,0.003611,0.865454,-0.348944,-0.028772,-0.358328
44044,NaN,-0.847108,-5.819737,3.061879,-3.706295,-0.485685,-4.336476,-0.697358,1.207297,0.534424,-0.125977,0.788086,-0.689209,-0.008130,-0.058112,0.030871,0.999972,-0.003487,0.006036,0.002672,0.865262,-0.349903,-0.021369,-0.358376
44045,NaN,-1.315948,-6.085327,3.488382,-4.077934,-0.068615,-3.956296,-0.353601,0.516815,0.230965,-0.117432,0.788086,-0.685059,-0.012999,-0.060807,0.035025,0.999994,-0.001768,0.002584,0.001155,0.865107,-0.350531,-0.018096,-0.358317
44046,NaN,-2.343334,-4.981269,4.227436,-3.966875,1.566505,-4.336793,0.002475,-0.222785,-0.068115,-0.128174,0.790283,-0.693359,-0.023497,-0.049805,0.042248,0.999999,0.000012,-0.001114,-0.000341,0.864968,-0.350967,-0.019220,-0.358166
44047,NaN,-2.538040,-4.928228,4.332506,-4.086977,1.783362,-4.370673,0.272606,-0.997401,-0.308547,-0.132324,0.788330,-0.695557,-0.025672,-0.049302,0.043130,0.999985,0.001363,-0.004987,-0.001543,0.864785,-0.351541,-0.024564,-0.357719
44048,NaN,-2.498468,-5.404079,4.761294,-4.335927,1.824890,-3.813967,0.507677,-1.564274,-0.455295,-0.153320,0.781738,-0.691162,-0.025478,-0.054103,0.047278,0.999964,0.002538,-0.007821,-0.002276,0.863688,-0.352241,-0.032157,-0.359077
44049,NaN,-2.426584,-6.123359,4.272598,-4.944378,1.131881,-3.820264,0.533801,-1.985016,-0.591090,-0.168213,0.779785,-0.697510,-0.024868,-0.061274,0.042318,0.999943,0.002669,-0.009925,-0.002955,0.863197,-0.353387,-0.042728,-0.358027
44050,NaN,-1.778085,-5.835869,3.316778,-4.552476,0.327519,-4.579518,0.383062,-2.178730,-0.891100,-0.197754,0.777588,-0.699463,-0.018400,-0.058341,0.032858,0.999929,0.001915,-0.010893,-0.004455,0.860894,-0.355630,-0.053525,-0.359894
44051,NaN,-1.058094,-4.627669,2.977339,-3.381024,0.323904,-5.356041,0.145752,-2.399769,-1.253217,-0.223145,0.775391,-0.697266,-0.011227,-0.046229,0.029608,0.999908,0.000729,-0.011998,-0.006266,0.858176,-0.358955,-0.066341,-0.360949
44052,NaN,0.370943,-4.411720,3.185449,-2.259389,-0.167357,-4.851493,-0.148800,-2.288904,-1.528724,-0.246582,0.779541,-0.688721,0.003007,-0.044118,0.031924,0.999905,-0.000744,-0.011444,-0.007643,0.853522,-0.363449,-0.077780,-0.365179
44053,NaN,1.281210,-2.349699,4.293257,-0.166593,1.128949,-4.884182,0.006922,-2.618999,-1.890755,-0.286621,0.769043,-0.684326,0.012026,-0.023615,0.043093,0.999870,0.000035,-0.013094,-0.009453,0.848951,-0.367421,-0.092395,-0.368438
44054,NaN,2.269431,0.285436,3.969070,2.212910,1.652305,-6.158082,0.110251,-3.372014,-2.157081,-0.320557,0.762451,-0.675537,0.022050,0.002592,0.040068,0.999800,0.000551,-0.016859,-0.010785,0.842628,-0.372435,-0.109950,-0.373070
44055,NaN,3.796165,-1.202006,5.534546,2.198255,1.406302,-3.514252,0.260525,-3.629505,-2.172021,-0.358398,0.758301,-0.671143,0.036815,-0.012497,0.056004,0.999776,0.001303,-0.018146,-0.010859,0.836876,-0.376832,-0.129746,-0.375235
44056,NaN,6.159806,-4.433297,10.672332,1.479728,2.726008,2.909408,0.633292,-3.458534,-2.040928,-0.392090,0.745361,-0.666748,0.059283,-0.045286,0.107619,0.999793,0.003166,-0.017291,-0.010204,0.832046,-0.379236,-0.149286,-0.376288
44057,NaN,9.296896,-5.595379,10.695056,2.268988,0.941046,5.222705,0.676075,-3.238449,-1.880079,-0.429932,0.736816,-0.660156,0.090690,-0.057178,0.108239,0.999819,0.003380,-0.016191,-0.009400,0.827222,-0.381047,-0.167568,-0.377396
44058,NaN,13.690557,-5.393371,11.709660,4.847385,-0.032600,8.356076,0.371731,-2.915285,-1.680045,-0.461670,0.730225,-0.651611,0.134720,-0.055292,0.118969,0.999857,0.001859,-0.014576,-0.008400,0.822386,-0.383491,-0.183541,-0.378060
44059,NaN,17.370512,-9.202362,8.474540,3.883885,-5.487125,10.509868,1.154840,-3.319167,-1.030229,-0.488770,0.713135,-0.649170,0.171794,-0.093410,0.087070,0.999832,0.005774,-0.016595,-0.005151,0.819468,-0.384009,-0.201316,-0.374809
44060,NaN,18.945888,-13.895816,2.588112,1.152608,-12.475788,10.231060,2.713549,-3.455941,-0.731288,-0.515625,0.691650,-0.648926,0.188485,-0.140012,0.027249,0.999752,0.013567,-0.017278,-0.003656,0.819719,-0.378509,-0.221942,-0.368148
44061,NaN,19.488774,-15.541890,9.713557,-0.719245,-7.559624,15.839334,0.782031,-2.650752,-0.466173,-0.528564,0.693848,-0.636230,0.193219,-0.156255,0.099094,0.999902,0.003910,-0.013253,-0.002331,0.817318,-0.379631,-0.235106,-0.364138
44062,NaN,15.697126,-13.106276,7.469529,-1.276800,-6.301199,10.986730,-0.392377,-1.980386,-0.794446,-0.551758,0.693848,-0.631836,0.155698,-0.131534,0.076499,0.999941,-0.001962,-0.009902,-0.003972,0.812822,-0.383930,-0.244082,-0.363788
44063,NaN,10.036488,-6.632760,10.502430,-0.343413,1.568353,6.075586,-0.437761,-1.849050,-1.243063,-0.566650,0.691650,-0.616943,0.098973,-0.066714,0.106089,0.999936,-0.002189,-0.009245,-0.006215,0.807411,-0.387533,-0.253171,-0.365801
44064,NaN,6.688914,-2.171642,6.237882,1.428968,1.568482,-0.655209,0.656106,-2.808833,-1.270527,-0.597900,0.676514,-0.606201,0.065864,-0.022344,0.063236,0.999876,0.003280,-0.014044,-0.006352,0.802784,-0.388414,-0.268264,-0.364290
44065,NaN,4.779830,-1.518390,3.534108,1.006277,0.489469,-3.780576,1.541300,-3.122929,-1.127653,-0.620850,0.663818,-0.601807,0.047152,-0.015727,0.035961,0.999833,0.007706,-0.015614,-0.005638,0.799399,-0.386341,-0.285750,-0.360624
44066,NaN,4.843967,-1.226835,2.814699,1.244966,0.104173,-4.215505,1.509016,-2.888068,-0.747439,-0.637451,0.650879,-0.591064,0.047981,-0.012664,0.028748,0.999860,0.007545,-0.014440,-0.003737,0.796784,-0.384435,-0.301520,-0.355571
44067,NaN,4.999488,-1.671775,2.019756,1.027123,-0.711451,-4.307555,1.207252,-2.660284,-0.365452,-0.652100,0.642334,-0.586670,0.049690,-0.016933,0.020758,0.999892,0.006036,-0.013301,-0.001827,0.794357,-0.383765,-0.314934,-0.350055
44068,NaN,5.963504,-2.090628,2.918607,0.928759,-0.348127,-2.923098,0.662347,-2.566787,-0.055647,-0.664795,0.642334,-0.573975,0.059249,-0.021021,0.029879,0.999912,0.003312,-0.012834,-0.000278,0.791449,-0.385551,-0.326458,-0.344071
44069,NaN,7.325010,-2.660973,2.839244,1.159595,-0.932570,-1.652985,0.296482,-2.439636,0.205767,-0.677246,0.640137,-0.557129,0.072924,-0.026578,0.029244,0.999924,0.001482,-0.012198,0.001029,0.788330,-0.388884,-0.336201,-0.338044
44070,NaN,8.967976,-2.074304,2.407736,2.559737,-1.264745,-0.737041,0.058734,-2.740153,0.265383,-0.694336,0.644287,-0.544189,0.089366,-0.020632,0.025297,0.999905,0.000294,-0.013700,0.001327,0.784218,-0.393748,-0.346638,-0.331372
44071,NaN,11.258889,-2.579889,1.340944,3.632878,-2.702101,0.897523,-0.093772,-2.784929,0.611324,-0.696533,0.648438,-0.525391,0.112466,-0.025448,0.014988,0.999898,-0.000469,-0.013924,0.003057,0.780138,-0.399752,-0.356164,-0.323621
44072,NaN,13.655157,-3.618489,1.790073,3.926892,-2.995760,3.542249,0.251781,-2.689572,0.859781,-0.711426,0.654785,-0.506348,0.136449,-0.035622,0.019691,0.999900,0.001259,-0.013447,0.004299,0.777107,-0.404711,-0.365380,-0.314342
44073,NaN,14.857427,-5.544533,2.121399,2.926185,-3.487508,5.525092,0.535191,-2.686243,0.879619,-0.715820,0.654785,-0.495605,0.148515,-0.054852,0.023062,0.999897,0.002676,-0.013431,0.004398,0.774583,-0.408421,-0.374841,-0.304479
44074,NaN,14.033388,-7.025029,2.263079,1.230553,-3.570626,5.586444,0.592513,-2.901961,0.623225,-0.728516,0.659180,-0.476562,0.140206,-0.069884,0.024458,0.999885,0.002962,-0.014509,0.003116,0.771092,-0.411822,-0.385727,-0.295018
44075,NaN,12.366466,-6.517576,1.421663,0.954843,-3.493659,3.763149,0.611687,-2.904306,0.440637,-0.736816,0.658936,-0.463867,0.123586,-0.064950,0.015813,0.999887,0.003058,-0.014521,0.002203,0.767311,-0.414554,-0.396876,-0.286126
44076,NaN,11.448156,-5.731135,0.632611,1.278399,-3.417669,2.474950,0.117353,-2.318494,0.066584,-0.745361,0.656982,-0.455322,0.114417,-0.057277,0.007619,0.999933,0.000587,-0.011592,0.000333,0.762849,-0.417713,-0.405841,-0.280840
44077,NaN,10.795638,-4.574106,1.096125,1.539106,-2.183967,1.655830,-0.565085,-1.814459,-0.368367,-0.758057,0.656738,-0.438477,0.107766,-0.045907,0.012069,0.999953,-0.002825,-0.009072,-0.001842,0.757432,-0.421652,-0.412719,-0.279589
44078,NaN,8.149453,-3.612095,2.812553,0.156738,0.127883,-0.467733,-0.263233,-1.647619,-0.532628,-0.768555,0.658936,-0.425781,0.081162,-0.036300,0.028843,0.999962,-0.001316,-0.008238,-0.002663,0.752525,-0.424055,-0.419765,-0.278713
44079,NaN,6.283498,-3.092833,3.577813,-0.785545,1.271806,-2.091819,0.356406,-2.265647,-0.451943,-0.774658,0.652344,-0.406738,0.062355,-0.031134,0.036431,0.999932,0.001782,-0.011328,-0.002260,0.747842,-0.424897,-0.429717,-0.274843
44080,NaN,6.503626,-2.413145,1.506801,0.570231,-0.086848,-2.737712,0.590385,-2.951812,-0.232442,-0.787109,0.648193,-0.385498,0.064777,-0.024253,0.015954,0.999886,0.002952,-0.014758,-0.001162,0.742181,-0.426405,-0.442069,-0.268179
44081,NaN,7.631061,-1.720592,0.322727,2.025287,-0.637540,-2.277066,0.521411,-2.919812,-0.143611,-0.797607,0.641602,-0.378906,0.076241,-0.017271,0.004296,0.999890,0.002607,-0.014599,-0.000718,0.736563,-0.428024,-0.453862,-0.261305
44082,NaN,8.518223,-2.317343,0.441507,1.803057,-0.644945,-1.183988,0.258743,-2.542377,-0.044550,-0.808350,0.645996,-0.366211,0.085112,-0.023199,0.005467,0.999918,0.001294,-0.012712,-0.000223,0.731043,-0.430482,-0.463665,-0.255491
44083,NaN,8.065180,-3.177313,2.657533,-0.184851,0.998850,-0.803243,0.431045,-2.381104,0.063676,-0.814697,0.645752,-0.345215,0.080338,-0.031806,0.027465,0.999927,0.002155,-0.011905,0.000318,0.726476,-0.432068,-0.472749,-0.249115
44084,NaN,7.476182,-2.780820,2.392075,-0.126975,1.091580,-1.558139,0.521606,-2.598863,-0.024232,-0.820801,0.645752,-0.326172,0.074440,-0.027881,0.024817,0.999912,0.002608,-0.012994,-0.000121,0.721173,-0.433550,-0.482880,-0.242426
44085,NaN,7.510467,-2.214251,2.258614,0.248811,1.416195,-1.791478,0.892555,-3.008153,-0.127286,-0.828857,0.632812,-0.304688,0.074740,-0.022294,0.023613,0.999877,0.004463,-0.015040,-0.000636,0.715599,-0.433620,-0.495026,-0.234180
44086,NaN,7.872590,-1.091733,1.167847,1.646036,1.277969,-2.054766,0.859425,-3.317406,-0.095095,-0.841553,0.635010,-0.290039,0.078513,-0.011008,0.012935,0.999853,0.004297,-0.016586,-0.000475,0.708851,-0.434359,-0.508053,-0.225263
44087,NaN,8.484135,-0.497540,-1.634605,3.678330,-0.502446,-1.995203,0.582603,-2.684044,0.110317,-0.841797,0.641357,-0.277344,0.085053,-0.004883,-0.015220,0.999906,0.002913,-0.013420,0.000552,0.703353,-0.435560,-0.517936,-0.217542
44088,NaN,7.732179,-0.814782,-1.136794,2.835204,-0.213710,-2.487524,0.463325,-1.164125,0.269469,-0.845703,0.634766,-0.264648,0.077397,-0.008018,-0.010936,0.999979,0.002317,-0.005821,0.001347,0.701413,-0.436155,-0.521927,-0.213030
44089,NaN,6.255749,-0.932686,1.383925,0.814173,1.662620,-3.608482,-0.629530,-0.605273,0.160699,-0.841553,0.639160,-0.260498,0.062523,-0.009233,0.014058,0.999990,-0.003148,-0.003026,0.000803,0.698621,-0.439426,-0.523025,-0.212787
44090,NaN,6.152020,-0.895115,1.571462,0.686889,1.878659,-3.720357,-1.593533,-0.796684,0.002316,-0.841553,0.639160,-0.241455,0.061457,-0.008824,0.016030,0.999960,-0.007968,-0.003983,0.000012,0.692778,-0.446117,-0.524055,-0.215416
44091,NaN,5.232472,-2.737424,2.233037,-1.438634,1.425115,-3.832971,-1.263690,-1.362000,0.020653,-0.848145,0.647461,-0.220215,0.052173,-0.027226,0.022858,0.999957,-0.006318,-0.006810,0.000103,0.686380,-0.451999,-0.527345,-0.215608
44092,NaN,6.366867,-4.053719,2.764192,-2.402280,1.521586,-2.294517,0.064480,-1.857666,-0.008141,-0.854248,0.643311,-0.205322,0.063407,-0.040549,0.028219,0.999957,0.000322,-0.009288,-0.000041,0.681372,-0.454009,-0.533745,-0.211480
44093,NaN,6.402471,-3.710657,1.643999,-1.606823,0.826233,-2.450764,1.176090,-2.133316,-0.076232,-0.860596,0.643311,-0.201172,0.063832,-0.037229,0.016903,0.999926,0.005880,-0.010666,-0.000381,0.678214,-0.452025,-0.542392,-0.203743
44094,NaN,6.254608,-3.564014,1.116498,-1.325603,0.481188,-2.665686,1.678617,-2.058148,-0.039961,-0.860352,0.638916,-0.192627,0.062422,-0.035748,0.011508,0.999912,0.008393,-0.010290,-0.000200,0.676148,-0.448511,-0.551096,-0.194821
44095,NaN,6.069912,-3.385233,0.686596,-1.062692,0.229186,-2.913945,1.356283,-2.099516,0.049086,-0.858154,0.636719,-0.188477,0.060633,-0.033886,0.007273,0.999922,0.006781,-0.010497,0.000245,0.673396,-0.446075,-0.559364,-0.186194
44096,NaN,6.403133,-4.003654,0.740408,-1.510853,0.095282,-2.377290,0.884374,-1.943943,0.196113,-0.862549,0.643066,-0.171631,0.063996,-0.040008,0.007849,0.999943,0.004422,-0.009720,0.000981,0.669922,-0.445636,-0.566242,-0.178840
44097,NaN,6.936640,-4.591213,1.391839,-2.226759,0.515819,-1.694297,0.539320,-1.596091,0.361415,-0.868652,0.636719,-0.167236,0.069336,-0.045825,0.014348,0.999963,0.002697,-0.007980,0.001807,0.666898,-0.446267,-0.571247,-0.172539
44098,NaN,7.908848,-4.695862,1.643506,-2.222848,1.018386,-0.794762,0.261897,-1.480514,0.356020,-0.864502,0.643066,-0.152588,0.079048,-0.046840,0.016959,0.999970,0.001309,-0.007402,0.001780,0.663416,-0.447843,-0.575590,-0.167367
44099,NaN,8.236508,-4.362491,1.946111,-2.115682,1.618069,-0.671363,0.200308,-1.153359,0.282971,-0.864746,0.645264,-0.146240,0.082313,-0.043528,0.019892,0.999982,0.001002,-0.005767,0.001415,0.660766,-0.448953,-0.578942,-0.163266
44100,NaN,9.191750,-2.772352,1.956112,-0.733717,2.858317,-0.469694,0.100103,-1.024178,0.198071,-0.864746,0.651611,-0.142090,0.091843,-0.027642,0.020018,0.999986,0.000501,-0.005121,0.000990,0.658087,-0.450146,-0.581960,-0.160042
44101,NaN,9.978893,-2.015275,1.623320,0.192208,3.338288,-0.061135,0.058014,-1.038022,0.206863,-0.860596,0.649414,-0.133545,0.099724,-0.020054,0.016745,0.999986,0.000290,-0.005190,0.001034,0.655349,-0.451385,-0.584950,-0.156854
44102,NaN,10.625963,-2.019442,1.440757,0.419522,3.496584,0.515030,-0.114231,-1.065166,0.192405,-0.860596,0.655762,-0.118896,0.106200,-0.020084,0.014985,0.999985,-0.000571,-0.005326,0.000962,0.652042,-0.453250,-0.587904,-0.154189
44103,NaN,10.510409,-2.471095,1.461593,-0.020460,3.331481,0.560867,-0.178196,-1.193637,0.154508,-0.866699,0.651611,-0.104004,0.105033,-0.024616,0.015265,0.999981,-0.000891,-0.005968,0.000773,0.648232,-0.455201,-0.591299,-0.151501
44105,NaN,11.473793,-4.622263,1.776499,-3.342000,5.811130,14.264520,0.089331,-1.253089,0.139185,-0.864746,0.653564,-0.087158,0.229136,-0.092160,0.038320,0.999920,0.000893,-0.012531,0.001392,0.641328,-0.457395,-0.598858,-0.144422
44106,NaN,13.670471,-6.344647,2.566600,-3.023325,3.533222,4.750904,0.353143,-1.104595,0.225266,-0.864746,0.657959,-0.078613,0.136632,-0.063339,0.026309,0.999983,0.001766,-0.005523,0.001126,0.638974,-0.457730,-0.602132,-0.140114
44107,NaN,16.649021,-5.171507,2.719791,-1.621876,5.493388,6.876314,0.366581,-0.772929,0.260976,-0.866699,0.655762,-0.074463,0.166451,-0.051548,0.027747,0.999990,0.001833,-0.003865,0.001305,0.637656,-0.457891,-0.604250,-0.136428
44108,NaN,18.889378,-4.325920,2.647220,-0.460279,6.832830,8.507522,-0.015127,-0.277580,0.281237,-0.858398,0.657959,-0.078613,0.188917,-0.042992,0.026738,0.999998,-0.000076,-0.001388,0.001406,0.636969,-0.458981,-0.604482,-0.134941
44109,NaN,19.854782,-4.990709,2.455960,-0.562730,6.736006,9.667060,-0.227183,0.215434,0.211568,-0.862793,0.659912,-0.078613,0.198627,-0.049669,0.024402,0.999998,-0.001136,0.001077,0.001058,0.637270,-0.460163,-0.603141,-0.135492
44110,NaN,18.851892,-6.211957,1.552652,-1.022337,4.972722,9.438755,0.152300,0.725152,0.094035,-0.869141,0.662109,-0.084961,0.188603,-0.062042,0.014796,0.999993,0.000761,0.003626,0.000470,0.639862,-0.459470,-0.600716,-0.136400
44111,NaN,17.062301,-7.051232,0.827209,-1.466548,3.147109,8.338507,0.512404,1.269030,-0.083461,-0.871094,0.657959,-0.101807,0.170641,-0.070603,0.007009,0.999977,0.002562,0.006345,-0.000417,0.644839,-0.456630,-0.597158,-0.138107
44113,NaN,14.372220,-7.608987,1.792871,-5.912606,4.546439,22.045943,0.032360,1.719120,-0.307515,-0.867188,0.657959,-0.131348,0.287534,-0.153074,0.030865,0.999847,0.000324,0.017190,-0.003075,0.654724,-0.452145,-0.587434,-0.147725
44114,NaN,12.723910,-8.066344,3.021325,-4.314960,2.112747,4.782040,-0.836252,2.121862,-0.336159,-0.875488,0.653809,-0.144043,0.127417,-0.080754,0.029200,0.999934,-0.004181,0.010609,-0.001681,0.658887,-0.452146,-0.580582,-0.156068
44115,NaN,12.534389,-7.766500,3.676002,-4.403833,2.568008,4.503338,-1.100120,2.612218,-0.217229,-0.869141,0.653809,-0.156738,0.125729,-0.077604,0.035546,0.999899,-0.005500,0.013061,-0.001086,0.663742,-0.453059,-0.571553,-0.165866
44116,NaN,12.950444,-7.535996,4.059816,-4.130299,2.934137,4.860740,-1.148791,3.075138,-0.099769,-0.867432,0.664551,-0.180176,0.130075,-0.075198,0.039033,0.999865,-0.005744,0.015375,-0.000499,0.669923,-0.453748,-0.560558,-0.176325
44117,NaN,13.175148,-7.065578,3.498154,-3.100853,2.546905,5.007097,-0.861628,3.632588,0.011320,-0.865479,0.662598,-0.209717,0.132365,-0.070504,0.032885,0.999826,-0.004308,0.018162,0.000057,0.678039,-0.453388,-0.547510,-0.186912
44118,NaN,14.002281,-6.251277,3.079947,-1.621703,2.479419,5.543872,-0.745163,4.250930,0.214962,-0.857178,0.666992,-0.241455,0.140705,-0.062254,0.028046,0.999767,-0.003726,0.021253,0.001075,0.688245,-0.452143,-0.531812,-0.197637
44119,NaN,15.016122,-6.061506,3.731784,-1.050890,2.929653,6.510072,-0.821224,4.244428,0.412338,-0.851074,0.671387,-0.271240,0.151036,-0.060159,0.034366,0.999764,-0.004106,0.021220,0.002062,0.697916,-0.451768,-0.515341,-0.207949
44120,NaN,15.826859,-6.548821,3.793864,-0.699679,2.455582,7.543019,-0.284526,3.720817,0.421100,-0.840820,0.675781,-0.300781,0.159076,-0.065103,0.035077,0.999824,-0.001423,0.018603,0.002105,0.707413,-0.449601,-0.501036,-0.215378
44121,NaN,15.244777,-5.839524,3.181004,0.279415,1.786135,6.720043,0.813309,3.028689,0.166286,-0.832275,0.673584,-0.332520,0.152952,-0.058391,0.029259,0.999877,0.004066,0.015143,0.000831,0.716917,-0.443827,-0.490766,-0.219534
44122,NaN,13.877005,-4.931330,2.035511,1.255849,0.688332,4.984673,1.026368,3.110420,0.091974,-0.817627,0.677979,-0.362305,0.139084,-0.049346,0.017940,0.999866,0.005132,0.015551,0.000460,0.727072,-0.436601,-0.480475,-0.223361
44123,NaN,12.580240,-3.456249,0.965692,2.568327,0.037821,3.014152,0.626772,3.206427,-0.002892,-0.811279,0.669434,-0.394043,0.125934,-0.034590,0.007530,0.999867,0.003134,0.016031,-0.000014,0.736039,-0.430680,-0.469463,-0.228835
44124,NaN,12.535286,-2.490196,-0.468807,4.159399,-1.027716,2.236621,0.567431,2.847442,-0.301625,-0.800781,0.669678,-0.421387,0.125231,-0.025074,-0.006543,0.999893,0.002837,0.014237,-0.001508,0.743734,-0.424312,-0.460214,-0.234570
44125,NaN,12.406880,0.374988,-1.742784,6.962202,-0.886080,0.572126,1.452401,2.324596,-0.351814,-0.798340,0.658936,-0.448975,0.123862,0.003665,-0.018841,0.999905,0.007262,0.011623,-0.001759,0.751678,-0.415338,-0.453977,-0.237445
44126,NaN,11.406695,-0.954371,-2.830829,6.132246,-2.805170,-0.140273,1.229478,2.514797,-0.667471,-0.793945,0.648438,-0.480469,0.113666,-0.009743,-0.029799,0.999896,0.006147,0.012574,-0.003337,0.759207,-0.405979,-0.447274,-0.242347
44127,NaN,9.903575,-1.728207,1.504745,2.849200,0.088363,-0.055847,1.629238,3.113845,-0.559920,-0.781250,0.639893,-0.514404,0.099203,-0.017673,0.013361,0.999842,0.008146,0.015568,-0.002799,0.768676,-0.394708,-0.438495,-0.247111
44128,NaN,8.364913,-3.733123,3.145898,-0.013604,0.033813,-0.128002,1.404904,3.314834,-0.292744,-0.766113,0.629395,-0.548096,0.084097,-0.037667,0.029804,0.999837,0.007024,0.016573,-0.001464,0.778306,-0.384368,-0.427931,-0.251746
44129,NaN,6.856600,-6.333524,2.473253,-2.166397,-2.229149,-0.670991,1.354722,3.720085,0.000851,-0.742676,0.616455,-0.583984,0.069005,-0.063495,0.023022,0.999804,0.006773,0.018599,0.000004,0.788715,-0.374344,-0.415076,-0.255944
44130,NaN,6.642848,-5.950164,-0.257289,-0.584623,-4.454814,-2.105358,0.551733,4.160283,-0.124129,-0.719727,0.631592,-0.618164,0.066317,-0.059533,-0.004117,0.999780,0.002758,0.020800,-0.000621,0.798129,-0.366361,-0.399457,-0.263066
44131,NaN,6.986359,-5.347713,-4.896631,2.107431,-8.069117,-4.171757,-1.769641,5.125858,-0.172329,-0.694824,0.642334,-0.639404,0.068540,-0.053977,-0.050258,0.999632,-0.008847,0.025626,-0.000862,0.804602,-0.366205,-0.376847,-0.276579
44132,NaN,6.320831,-5.315349,-2.950982,0.875582,-6.594225,-4.098072,-2.870770,5.722369,-0.099632,-0.648438,0.657471,-0.660889,0.062318,-0.053618,-0.030534,0.999488,-0.014351,0.028607,-0.000498,0.809630,-0.369368,-0.349806,-0.292749
44133,NaN,6.526062,-4.172768,-0.768735,1.049512,-4.455456,-3.517199,-2.878019,6.122227,0.057613,-0.610840,0.670410,-0.677979,0.065009,-0.041833,-0.009079,0.999428,-0.014387,0.030605,0.000288,0.814642,-0.371949,-0.320509,-0.308685
44134,NaN,7.797423,-3.159614,1.537555,2.007372,-2.672316,-1.941036,-2.093659,5.841705,-0.074491,-0.572998,0.685547,-0.701416,0.078374,-0.031478,0.013420,0.999519,-0.010467,0.029204,-0.000372,0.819628,-0.371109,-0.293444,-0.323077
44135,NaN,8.410633,-2.480177,3.908819,2.523765,-0.981178,-0.602993,-0.842670,5.289501,-0.281094,-0.539307,0.687744,-0.727051,0.085068,-0.024762,0.036951,0.999640,-0.004213,0.026444,-0.001405,0.825074,-0.365476,-0.270825,-0.335163
44136,NaN,9.371971,-1.481091,1.209246,4.571108,-3.336640,-2.102728,-1.324684,5.109684,-0.800564,-0.507812,0.698486,-0.746338,0.093929,-0.015117,0.009794,0.999644,-0.006623,0.025545,-0.004002,0.827930,-0.361132,-0.248867,-0.349543
44137,NaN,5.455338,-2.132004,-0.919744,1.953751,-4.057925,-5.957872,-2.128521,6.473409,-0.643604,-0.465820,0.711426,-0.759277,0.054153,-0.021603,-0.010726,0.999414,-0.010641,0.032361,-0.003217,0.830531,-0.357621,-0.219373,-0.366336
44138,NaN,2.853721,-0.076383,1.129564,1.675973,-0.542535,-7.298792,-1.771762,5.705378,0.198064,-0.419678,0.728516,-0.768066,0.028845,-0.000640,0.010482,0.999553,-0.008857,0.028523,0.000990,0.833558,-0.354582,-0.191968,-0.377627
44139,NaN,4.510023,0.220432,-0.091280,3.080408,-2.271720,-7.416374,-2.373282,5.413574,0.824470,-0.375488,0.745605,-0.768311,0.045043,0.002369,-0.002160,0.999555,-0.011865,0.027064,0.004122,0.835730,-0.354887,-0.163382,-0.385897
44140,NaN,1.769121,-0.457891,0.222877,0.811500,-1.010442,-8.505400,-2.295271,5.163749,0.924229,-0.329346,0.764893,-0.768555,0.017763,-0.004474,0.001822,0.999590,-0.011475,0.025815,0.004621,0.837233,-0.355123,-0.135656,-0.393098
44141,NaN,2.386355,-0.949008,1.008735,0.933247,-1.090671,-7.456632,-2.040613,4.942665,1.249100,-0.287598,0.786377,-0.773193,0.024163,-0.009240,0.009588,0.999623,-0.010202,0.024710,0.006245,0.839100,-0.354667,-0.108690,-0.397880
44144,NaN,1.916228,-1.512349,1.740562,1.362374,-2.104798,-1.180618,-1.687322,4.142725,1.392379,-0.165527,0.826904,-0.757080,0.061537,-0.042835,0.049581,0.997532,-0.025289,0.062090,0.020868,0.843024,-0.352560,-0.038847,-0.404356
44146,NaN,-0.169702,-3.609665,1.599567,-4.446440,-0.858444,-3.336483,-1.771814,3.078084,1.274862,-0.104736,0.856934,-0.734131,-0.001466,-0.071637,0.033329,0.999288,-0.017714,0.030774,0.012746,0.842526,-0.355297,-0.001221,-0.404861
44147,NaN,-1.003255,-6.342927,2.434880,-4.249690,-0.520920,-4.442909,-1.313631,2.275401,0.982092,-0.083740,0.867676,-0.725830,-0.009440,-0.063314,0.024875,0.999902,-0.006568,0.011377,0.004910,0.842042,-0.356186,0.012771,-0.404887
44148,NaN,-2.236965,-6.032592,3.590459,-4.397843,1.127452,-4.009761,-0.751505,1.551237,0.806641,-0.066650,0.863281,-0.719482,-0.021846,-0.060279,0.036302,0.999955,-0.003757,0.007756,0.004033,0.842198,-0.356145,0.022258,-0.404187
44149,NaN,-1.191455,-6.493992,3.874096,-3.833422,0.341681,-3.195450,-0.153387,0.733952,0.602787,-0.064697,0.865479,-0.723877,-0.011576,-0.064945,0.038834,0.999988,-0.000767,0.003670,0.003014,0.843029,-0.355241,0.026729,-0.402979
44150,NaN,-0.973101,-6.203222,4.094492,-3.395109,0.405684,-3.141830,0.258058,0.075587,0.319683,-0.056152,0.863281,-0.730225,-0.009616,-0.062100,0.040868,0.999998,0.001290,0.000378,0.001598,0.844119,-0.353960,0.027094,-0.401799
44151,NaN,-1.757164,-5.594130,3.784642,-3.638443,1.012771,-3.944010,0.342339,-0.420710,0.035362,-0.064453,0.859131,-0.728027,-0.017641,-0.056009,0.037714,0.999996,0.001712,-0.002104,0.000177,0.844863,-0.353370,0.024686,-0.400907
44152,NaN,-2.108113,-5.431876,2.838189,-4.105645,0.778259,-4.858641,0.173974,-0.748534,-0.218636,-0.068848,0.859131,-0.738525,-0.021246,-0.054320,0.028255,0.999992,0.000870,-0.003743,-0.001093,0.844817,-0.354163,0.020788,-0.400526
44153,NaN,-2.233184,-5.257535,2.295112,-4.281155,0.638881,-5.435521,0.051837,-1.014090,-0.528114,-0.079346,0.856934,-0.732178,-0.022587,-0.052522,0.022823,0.999984,0.000259,-0.005070,-0.002641,0.843996,-0.356046,0.015457,-0.400828
44154,NaN,-1.689452,-4.738301,1.994462,-3.703290,0.333245,-5.881052,0.311914,-1.359127,-0.766864,-0.104736,0.854736,-0.742676,-0.017211,-0.047348,0.019755,0.999968,0.001560,-0.006796,-0.003834,0.843091,-0.357505,0.007729,-0.401656
44155,NaN,-0.521056,-4.403264,2.287472,-2.660173,-0.126009,-5.593719,0.757141,-1.599019,-0.956996,-0.119385,0.850586,-0.748779,-0.005603,-0.044093,0.022664,0.999949,0.003786,-0.007995,-0.004785,0.842635,-0.357572,-0.002254,-0.402621
44156,NaN,0.331827,-3.606723,3.214744,-1.369052,0.215472,-5.172503,1.257184,-1.892773,-1.042680,-0.142578,0.842041,-0.757080,0.002826,-0.036284,0.031948,0.999922,0.006286,-0.009464,-0.005213,0.842695,-0.356049,-0.014624,-0.403584
44157,NaN,0.592550,-2.735019,4.313914,-0.427703,1.110407,-4.810338,1.538223,-2.289453,-1.069420,-0.172119,0.829102,-0.767578,0.005285,-0.027711,0.042990,0.999891,0.007691,-0.011447,-0.005347,0.843128,-0.354098,-0.029288,-0.403599
44158,NaN,1.109580,-1.537959,6.020037,0.996957,2.396089,-4.059547,1.372237,-2.738074,-1.165853,-0.201416,0.816406,-0.773682,0.010180,-0.015854,0.060236,0.999866,0.006861,-0.013690,-0.005829,0.842690,-0.353623,-0.045660,-0.403411
44159,NaN,1.531156,-1.368229,7.704254,1.546026,3.379613,-2.759037,0.788192,-3.057008,-1.375127,-0.241699,0.812012,-0.775635,0.014036,-0.014086,0.077209,0.999852,0.003941,-0.015284,-0.006875,0.840600,-0.356107,-0.062559,-0.403319
44160,NaN,2.197804,-0.970297,7.818032,2.087033,3.375326,-2.661603,0.077255,-3.310630,-1.690504,-0.277832,0.814209,-0.762939,0.020597,-0.009911,0.078525,0.999827,0.000386,-0.016552,-0.008452,0.836147,-0.361871,-0.079628,-0.404435
44161,NaN,3.763712,-1.589816,10.569825,2.885669,4.247939,0.288275,-0.476535,-3.207426,-1.854160,-0.311279,0.803467,-0.756348,0.035787,-0.015983,0.106320,0.999826,-0.002383,-0.016036,-0.009270,0.830216,-0.369522,-0.095405,-0.406316
44162,NaN,4.800517,-4.461736,15.503438,1.840220,6.213263,5.721098,-0.143547,-2.462483,-1.716133,-0.343262,0.805664,-0.756104,0.045707,-0.044905,0.155639,0.999887,-0.000718,-0.012312,-0.008580,0.825195,-0.374262,-0.108495,-0.408912
44163,NaN,5.256000,-4.805672,7.585616,0.561527,0.470679,0.565912,0.945272,-2.672420,-1.634744,-0.381104,0.790527,-0.764404,0.051145,-0.048839,0.076316,0.999866,0.004726,-0.013362,-0.008173,0.822154,-0.374825,-0.124467,-0.409971
44164,NaN,6.073425,-4.195732,-0.041780,0.563132,-5.111961,-4.517396,1.727316,-3.541259,-1.733924,-0.420898,0.773438,-0.755615,0.060367,-0.042482,0.000288,0.999768,0.008636,-0.017705,-0.008669,0.819442,-0.373820,-0.145784,-0.409292
44165,NaN,7.961156,-11.484545,3.640548,-3.883938,-6.083368,2.694191,0.581173,-4.104150,-1.253376,-0.454590,0.767090,-0.751221,0.078125,-0.115446,0.037684,0.999766,0.002906,-0.020519,-0.006266,0.814861,-0.378783,-0.166074,-0.406135
44166,NaN,16.269212,-17.455222,7.381470,-3.653503,-9.699623,12.911915,1.396345,-3.215416,-0.613983,-0.481934,0.751953,-0.753174,0.160953,-0.175570,0.075188,0.999842,0.006981,-0.016076,-0.003070,0.813458,-0.379056,-0.183146,-0.401323
44167,NaN,20.912836,-18.820917,12.885034,-2.203919,-8.023565,19.992246,0.890155,-2.874708,-0.039515,-0.500732,0.747803,-0.744629,0.207218,-0.188830,0.130998,0.999887,0.004451,-0.014373,-0.000198,0.812438,-0.381113,-0.196692,-0.394980
44168,NaN,24.201955,-14.533353,6.712076,3.048221,-12.176894,16.348243,0.275927,-2.950413,-0.161630,-0.524170,0.745605,-0.733887,0.240879,-0.145624,0.070479,0.999890,0.001380,-0.014752,-0.000808,0.809653,-0.385620,-0.209508,-0.389700
44169,NaN,18.897520,-8.813015,7.904311,4.016869,-5.971820,11.292738,1.387448,-2.869716,-0.722472,-0.549316,0.737061,-0.727295,0.187500,-0.089367,0.081123,0.999866,0.006937,-0.014348,-0.003612,0.807868,-0.384833,-0.225243,-0.385381
44170,NaN,12.987516,-4.922891,8.250466,3.156328,-1.134306,5.989629,1.247392,-2.859475,-0.870710,-0.576416,0.719727,-0.727051,0.128463,-0.050311,0.084037,0.999869,0.006237,-0.014297,-0.004353,0.805263,-0.384275,-0.240842,-0.381941
44171,NaN,8.476410,-2.931762,4.775043,2.109002,-0.928606,0.083172,1.336466,-2.936486,-0.885264,-0.597168,0.707031,-0.716309,0.083921,-0.030014,0.048788,0.999860,0.006682,-0.014682,-0.004426,0.802506,-0.383452,-0.256938,-0.378063
44172,NaN,6.300505,-1.701429,5.557963,1.521735,1.280904,-1.474784,0.935663,-2.756549,-0.726570,-0.620361,0.700439,-0.716309,0.062169,-0.017504,0.056359,0.999887,0.004678,-0.013782,-0.003633,0.799294,-0.383934,-0.271131,-0.374448
44173,NaN,5.006171,-1.156322,3.784785,1.317484,0.710843,-3.609491,0.678436,-2.775840,-0.577944,-0.643311,0.691895,-0.699219,0.049496,-0.011837,0.038498,0.999894,0.003392,-0.013879,-0.002890,0.795662,-0.385665,-0.284623,-0.370370
44174,NaN,4.359151,-1.488124,2.816455,0.732790,0.128801,-4.465380,0.638203,-2.873904,-0.425439,-0.657959,0.687500,-0.688477,0.043149,-0.015064,0.028739,0.999889,0.003191,-0.014369,-0.002127,0.791926,-0.387803,-0.298027,-0.365571
44175,NaN,4.035814,-1.880005,3.170173,0.068817,0.479795,-4.368853,0.585778,-3.009572,-0.285203,-0.685303,0.681152,-0.671387,0.039849,-0.018951,0.032249,0.999881,0.002929,-0.015047,-0.001426,0.787947,-0.390581,-0.311575,-0.359871
44176,NaN,4.725058,-2.326885,2.733156,0.079135,-0.180077,-3.882276,0.440192,-3.139689,-0.071849,-0.702148,0.676758,-0.658691,0.046806,-0.023347,0.028017,0.999874,0.002201,-0.015698,-0.000359,0.783686,-0.394338,-0.324837,-0.353291
44177,NaN,5.810190,-2.408995,2.499442,0.569093,-0.577658,-3.093460,0.173327,-3.189513,0.236615,-0.719238,0.680908,-0.635498,0.057722,-0.024044,0.025896,0.999872,0.000867,-0.015947,0.001183,0.779149,-0.399689,-0.337173,-0.345673
44178,NaN,9.061368,-1.838172,2.121738,2.772658,-1.279401,-0.831860,-0.222002,-3.539465,0.255442,-0.740479,0.687256,-0.612061,0.090242,-0.018242,0.022837,0.999842,-0.001110,-0.017696,0.001277,0.773055,-0.407042,-0.350014,-0.337924
44179,NaN,13.073588,-1.494189,1.699631,5.148125,-2.069700,2.238595,0.218525,-3.722098,0.110480,-0.761719,0.685059,-0.593018,0.130398,-0.014890,0.019409,0.999826,0.001093,-0.018609,0.000552,0.767002,-0.412682,-0.364522,-0.329432
44180,NaN,14.915850,-0.918443,3.009395,5.999965,-0.594435,4.187535,0.883678,-3.534153,0.085406,-0.780273,0.676514,-0.569580,0.148600,-0.009261,0.032682,0.999834,0.004418,-0.017670,0.000427,0.762396,-0.415204,-0.379294,-0.320147
44181,NaN,16.308119,-1.535154,3.525314,5.817845,-0.147624,5.898422,0.458062,-3.710532,0.231925,-0.803711,0.678467,-0.537842,0.162408,-0.015248,0.038236,0.999825,0.002290,-0.018552,0.001160,0.756454,-0.419873,-0.393651,-0.310681
44182,NaN,15.195257,-4.491637,3.299926,2.779456,-1.003972,6.099680,0.134638,-3.426913,0.622281,-0.807861,0.682861,-0.522949,0.151497,-0.044468,0.035568,0.999848,0.000673,-0.017134,0.003111,0.750842,-0.425851,-0.405455,-0.300821
44183,NaN,13.613639,-3.950320,2.902258,2.397857,-0.498186,4.447261,-0.096620,-3.039647,-0.100983,-0.820557,0.680664,-0.497559,0.135654,-0.039557,0.031106,0.999884,-0.000483,-0.015198,-0.000505,0.744102,-0.430669,-0.416905,-0.295004
44184,NaN,9.387174,-5.468642,-2.002520,0.807272,-4.905932,0.051862,-0.011962,-2.799544,-0.320911,-0.837158,0.671875,-0.484863,0.094052,-0.054838,-0.018706,0.999901,-0.000060,-0.013997,-0.001605,0.737692,-0.434134,-0.427953,-0.290165
44185,NaN,7.781831,-5.370299,2.026693,-1.509622,-1.062685,-0.320862,0.785214,-1.454643,-0.879077,-0.845459,0.665527,-0.482666,0.077432,-0.054124,0.020619,0.999956,0.003926,-0.007273,-0.004395,0.734822,-0.431609,-0.436364,-0.288681
44186,NaN,7.412995,-2.956861,5.600076,-1.263339,3.273472,-0.716344,-0.300205,-0.950419,-0.903029,-0.853760,0.661133,-0.471924,0.073728,-0.029818,0.056396,0.999977,-0.001501,-0.004752,-0.004515,0.730778,-0.432107,-0.441363,-0.290596
44187,NaN,4.978795,-2.058595,4.484915,-1.280808,2.856986,-3.540812,-0.002370,-1.678316,-0.800198,-0.866211,0.652588,-0.454834,0.049326,-0.020783,0.045265,0.999957,-0.000012,-0.008391,-0.004001,0.725739,-0.432913,-0.449219,-0.289985
44188,NaN,4.201332,-1.866933,2.567680,-0.794692,1.333726,-4.781016,0.278781,-2.587968,-0.686368,-0.876465,0.645996,-0.435791,0.041612,-0.018849,0.026191,0.999909,0.001394,-0.012939,-0.003432,0.719466,-0.434077,-0.460460,-0.286221
44189,NaN,3.903988,-1.670778,2.171713,-0.694138,1.157575,-5.238225,0.561959,-3.008083,-0.339966,-0.895508,0.641846,-0.414551,0.038679,-0.016836,0.022254,0.999882,0.002810,-0.015040,-0.001700,0.713071,-0.435652,-0.472781,-0.279670
44190,NaN,5.164432,-1.878539,1.288189,-0.064189,0.397188,-4.182749,0.725070,-2.877146,0.253991,-0.903809,0.639648,-0.395508,0.051476,-0.018768,0.013555,0.999889,0.003625,-0.014385,0.001270,0.708123,-0.437645,-0.483448,-0.270753
44191,NaN,6.660465,-1.943568,0.859906,0.594792,0.189334,-2.849442,0.825684,-2.651578,0.698883,-0.899658,0.648193,-0.378662,0.066551,-0.019241,0.009402,0.999897,0.004128,-0.013257,0.003494,0.704285,-0.440075,-0.492384,-0.260527
44192,NaN,8.158140,-2.309492,0.799675,0.861566,0.240293,-1.343620,0.742211,-2.491179,0.977467,-0.906250,0.650146,-0.365967,0.081586,-0.022728,0.008928,0.999904,0.003711,-0.012455,0.004887,0.700988,-0.443074,-0.499926,-0.249751
44193,NaN,7.600339,-3.629496,1.187903,-0.601033,0.078203,-1.328610,0.727058,-2.412823,1.144144,-0.910645,0.660889,-0.349121,0.076060,-0.035905,0.012665,0.999904,0.003635,-0.012064,0.005721,0.697818,-0.446479,-0.506713,-0.238637
44194,NaN,8.113769,-2.820164,0.687381,0.454921,0.291902,-1.212495,0.307758,-2.456277,1.031050,-0.913086,0.671631,-0.334473,0.081189,-0.027795,0.007828,0.999910,0.001539,-0.012281,0.005155,0.693447,-0.450912,-0.513304,-0.228755
44195,NaN,11.107391,-1.304653,-1.134992,3.624830,0.132302,0.826954,-0.050564,-2.171803,0.778429,-0.908936,0.677979,-0.311279,0.111238,-0.012616,-0.010139,0.999933,-0.000253,-0.010859,0.003892,0.688497,-0.455660,-0.518989,-0.221352
44196,NaN,10.474272,-1.424335,-3.416739,4.475720,-1.806526,0.193131,0.543318,-0.706336,0.718975,-0.906982,0.684326,-0.317627,0.104913,-0.013774,-0.033835,0.999984,0.002717,-0.003532,0.003595,0.688683,-0.456433,-0.520377,-0.215854
44197,NaN,7.612863,-2.147500,0.696357,0.780013,0.904784,-1.962520,-0.728228,0.293888,0.512135,-0.905029,0.690674,-0.309082,0.076193,-0.021255,0.006929,0.999989,-0.003641,0.001469,0.002561,0.688193,-0.460103,-0.517397,-0.216787
44198,NaN,6.504167,-2.583152,1.712533,-0.467146,1.417721,-2.764217,-1.512838,-0.425882,0.306891,-0.902832,0.690674,-0.294434,0.065044,-0.025600,0.017458,0.999968,-0.007564,-0.002129,0.001534,0.683918,-0.466553,-0.516502,-0.218657
44199,NaN,7.008533,-2.707576,1.323598,-0.201096,1.202758,-2.281785,-0.504118,-1.214948,0.179273,-0.905029,0.694824,-0.281738,0.070027,-0.026979,0.013730,0.999978,-0.002521,-0.006075,0.000896,0.679652,-0.470201,-0.519665,-0.216642
44200,NaN,6.930739,-2.847001,0.613235,-0.027765,0.591337,-2.318324,0.542895,-1.511514,-0.034062,-0.909180,0.692871,-0.279541,0.069254,-0.028499,0.006579,0.999968,0.002714,-0.007557,-0.000170,0.676938,-0.469893,-0.525454,-0.211787
44201,NaN,6.430620,-3.608822,0.564803,-0.829292,0.154427,-2.465345,1.180486,-1.795987,-0.040384,-0.915283,0.684082,-0.262451,0.064246,-0.036136,0.006012,0.999942,0.005902,-0.008980,-0.000202,0.674786,-0.467803,-0.532835,-0.204721
44202,NaN,6.047648,-2.872392,0.048286,-0.168538,0.051083,-3.119762,0.959831,-2.015538,0.043870,-0.923828,0.688477,-0.258301,0.060475,-0.028714,0.000954,0.999938,0.004799,-0.010077,0.000219,0.671660,-0.466719,-0.540484,-0.197289
44203,NaN,6.833653,-2.668412,-0.562445,0.527688,-0.075450,-2.474433,0.566795,-2.141587,0.033022,-0.923584,0.686279,-0.241455,0.068396,-0.026658,-0.004968,0.999939,0.002834,-0.010708,0.000165,0.667069,-0.467122,-0.548114,-0.190755
44204,NaN,7.073689,-2.949049,-0.537318,0.313841,-0.011627,-2.136589,0.784144,-2.248602,0.094992,-0.929932,0.684082,-0.226562,0.070806,-0.029438,-0.004693,0.999929,0.003921,-0.011243,0.000475,0.662777,-0.466882,-0.556103,-0.183023
44205,NaN,6.640025,-3.698710,-2.511860,0.673247,-1.996691,-2.090127,0.653138,-2.346321,0.153277,-0.936035,0.679688,-0.207520,0.066718,-0.036855,-0.024458,0.999926,0.003266,-0.011731,0.000766,0.657752,-0.467392,-0.564064,-0.175326
44206,NaN,7.626013,-4.471375,-3.185042,0.746866,-2.495312,-0.784544,0.642112,-2.051260,0.270384,-0.940430,0.686035,-0.197021,0.076643,-0.044509,-0.031209,0.999941,0.003210,-0.010256,0.001352,0.653661,-0.467817,-0.570710,-0.167822
44207,NaN,7.963672,-5.185553,-3.406003,0.411676,-2.771297,-0.114291,0.466348,-2.067633,0.339809,-0.934082,0.692383,-0.182129,0.080072,-0.051641,-0.033354,0.999942,0.002332,-0.010338,0.001699,0.648973,-0.469122,-0.577019,-0.160646
44208,NaN,6.685070,-5.712860,-3.301684,-0.430965,-3.231194,-1.003609,0.048950,-1.792340,0.476727,-0.932129,0.696777,-0.167480,0.067279,-0.056961,-0.032429,0.999957,0.000245,-0.008962,0.002384,0.644268,-0.471761,-0.581734,-0.154747
44209,NaN,8.086664,-6.229385,-2.214733,-1.119923,-1.995113,0.378850,-0.441997,-1.445818,0.616680,-0.929932,0.700928,-0.144287,0.081215,-0.062092,-0.021424,0.999967,-0.002210,-0.007229,0.003083,0.639341,-0.476244,-0.584565,-0.150724
44210,NaN,9.269730,-5.571719,-1.683799,-0.678492,-0.640218,1.092968,-0.906526,-1.529614,0.654195,-0.930176,0.705078,-0.133789,0.093003,-0.055487,-0.015876,0.999955,-0.004533,-0.007648,0.003271,0.633171,-0.482189,-0.587190,-0.147633
44211,NaN,10.137994,-4.699462,-0.631688,-0.491039,1.142957,1.309888,-1.042022,-1.498408,0.602215,-0.927979,0.707275,-0.114746,0.101563,-0.046718,-0.005313,0.999954,-0.005210,-0.007492,0.003011,0.626544,-0.488497,-0.589678,-0.145238
44212,NaN,11.163581,-4.209629,1.266778,-1.044287,3.456738,1.628843,-0.675724,-1.337757,0.550113,-0.926025,0.718018,-0.093750,0.111662,-0.041744,0.013556,0.999968,-0.003379,-0.006689,0.002751,0.621324,-0.493194,-0.592018,-0.142235
44213,NaN,11.776684,-3.980204,2.828268,-1.691564,5.201879,1.702859,-0.190372,-1.327542,0.537550,-0.924072,0.719971,-0.085205,0.117682,-0.039458,0.029102,0.999974,-0.000952,-0.006638,0.002688,0.617175,-0.496445,-0.594656,-0.137918
44214,NaN,11.903490,-3.549470,3.983456,-2.067960,6.486285,1.314298,0.149539,-1.101858,0.478282,-0.919678,0.717773,-0.076660,0.118898,-0.035240,0.040463,0.999982,0.000748,-0.005509,0.002391,0.614584,-0.498160,-0.596964,-0.133260
44215,NaN,12.707426,-2.928034,4.738446,-1.889834,7.802810,1.503170,0.305130,-0.854591,0.387451,-0.924072,0.726318,-0.070557,0.126927,-0.029107,0.047883,0.999988,0.001526,-0.004273,0.001937,0.612964,-0.499036,-0.598809,-0.129095
44216,NaN,12.638219,-1.898983,4.820706,-1.220480,8.392154,0.894846,0.277680,-0.757128,0.323715,-0.917725,0.726318,-0.074707,0.126229,-0.018853,0.048659,0.999991,0.001388,-0.003786,0.001619,0.611588,-0.499641,-0.600499,-0.125380
44217,NaN,11.658623,-1.137655,4.146914,-0.515821,7.858387,-0.200515,0.240438,-0.614605,0.247663,-0.917725,0.728516,-0.064209,0.116472,-0.011282,0.041814,0.999994,0.001202,-0.003073,0.001238,0.610458,-0.500076,-0.601891,-0.122445
44218,NaN,10.813836,-1.468778,3.128791,-0.377507,6.590661,-0.576552,0.355167,-0.463161,0.178199,-0.917969,0.732910,-0.062012,0.108079,-0.014647,0.031512,0.999995,0.001776,-0.002316,0.000891,0.610053,-0.499812,-0.603077,-0.119673
44219,NaN,10.784081,-2.489954,1.959762,-0.450755,5.243423,0.119088,0.316102,-0.419253,0.124965,-0.919922,0.726318,-0.064209,0.107815,-0.024863,0.019784,0.999996,0.001581,-0.002096,0.000625,0.609645,-0.499482,-0.604210,-0.117394
44220,NaN,10.984882,-3.949591,0.924270,-0.866328,3.896185,1.195959,0.128707,-0.333524,0.096622,-0.920166,0.734863,-0.064209,0.109852,-0.039449,0.009400,0.999998,0.000644,-0.001668,0.000483,0.609009,-0.499580,-0.605063,-0.115877
44221,NaN,11.237999,-5.467517,-0.144255,-1.285402,2.521465,2.360933,-0.070884,-0.241613,0.091111,-0.915771,0.734863,-0.057861,0.112407,-0.054624,-0.001287,0.999999,-0.000354,-0.001208,0.000456,0.608168,-0.500194,-0.605507,-0.115323
44222,NaN,11.935390,-6.544837,-0.835032,-1.504279,1.853982,3.614355,-0.246998,-0.180492,0.112778,-0.924316,0.732910,-0.057861,0.119398,-0.065391,-0.008162,0.999999,-0.001235,-0.000902,0.000564,0.607063,-0.501392,-0.605634,-0.115276
44223,NaN,12.868880,-6.896595,-1.384426,-1.217477,1.752002,4.697163,-0.452857,-0.106022,0.146527,-0.919922,0.732666,-0.053711,0.128747,-0.068903,-0.013620,0.999997,-0.002264,-0.000530,0.000733,0.605721,-0.503233,-0.605305,-0.116040
44224,NaN,13.924517,-7.621642,-1.385242,-1.518348,1.954674,5.928156,-0.610939,0.030283,0.207361,-0.924316,0.737061,-0.051514,0.139322,-0.076114,-0.013641,0.999995,-0.003055,0.000151,0.001037,0.604387,-0.505693,-0.604337,-0.117336
44225,NaN,14.578491,-8.316149,-0.849813,-2.203518,2.383765,6.675943,-0.405770,0.127758,0.261003,-0.919922,0.732666,-0.053711,0.145888,-0.082988,-0.008423,0.999997,-0.002029,0.000639,0.001305,0.603945,-0.507577,-0.603032,-0.118188
44226,NaN,14.552221,-8.164469,-0.535270,-2.247596,2.700809,6.508031,0.003088,0.207366,0.296881,-0.920166,0.737061,-0.060059,0.145638,-0.081428,-0.005505,0.999998,0.000015,0.001037,0.001484,0.604748,-0.508342,-0.601656,-0.117809
44227,NaN,14.190925,-7.572436,-0.479477,-1.859040,2.838001,5.917643,0.209261,0.275720,0.322018,-0.918213,0.745605,-0.062256,0.142024,-0.075491,-0.005070,0.999997,0.001046,0.001379,0.001610,0.606366,-0.508432,-0.600110,-0.116981
44228,NaN,13.070079,-7.278305,0.106848,-2.193957,2.870003,4.704919,0.562760,0.347366,0.351239,-0.920410,0.750000,-0.066406,0.130830,-0.072556,0.000637,0.999993,0.002814,0.001737,0.001756,0.609035,-0.507576,-0.598492,-0.115110
44229,NaN,12.701247,-6.387369,0.628913,-1.844395,3.452819,3.869081,0.787743,0.470102,0.332794,-0.916260,0.747803,-0.089600,0.127132,-0.063686,0.005739,0.999988,0.003939,0.002351,0.001664,0.612716,-0.505788,-0.596649,-0.112993
44230,NaN,12.349666,-5.268941,0.891566,-1.165575,3.939644,3.000978,0.783121,0.718638,0.265890,-0.910156,0.750000,-0.100342,0.123597,-0.052558,0.008266,0.999985,0.003916,0.003593,0.001329,0.616977,-0.503771,-0.594211,-0.111658
44231,NaN,11.934646,-4.381091,1.305579,-0.771717,4.383100,2.167509,0.547791,1.090854,0.171981,-0.914551,0.752197,-0.121338,0.119452,-0.043743,0.012285,0.999981,0.002739,0.005454,0.000860,0.621792,-0.501840,-0.590694,-0.112304
44232,NaN,11.570408,-3.841904,1.891692,-0.723210,4.800816,1.529232,0.431883,1.490640,0.072534,-0.912354,0.750244,-0.129883,0.115854,-0.038417,0.017971,0.999970,0.002159,0.007453,0.000363,0.627296,-0.499862,-0.586105,-0.114540
44233,NaN,11.654200,-3.472135,2.232760,-0.505515,5.120271,1.429376,0.447977,1.851970,-0.040292,-0.912354,0.743896,-0.157227,0.116735,-0.034793,0.021169,0.999955,0.002240,0.009260,-0.000201,0.633919,-0.497098,-0.580608,-0.118042
44234,NaN,12.065483,-2.640046,2.471568,0.230632,5.687443,1.423286,0.268445,2.302328,-0.202050,-0.918701,0.746094,-0.180664,0.120902,-0.026554,0.023289,0.999932,0.001342,0.011511,-0.001010,0.641104,-0.494270,-0.573935,-0.123618
44235,NaN,12.740284,-2.013094,3.010058,0.757577,6.442407,1.734543,-0.308244,2.793901,-0.304286,-0.910400,0.748291,-0.201660,0.127776,-0.020281,0.028348,0.999900,-0.001541,0.013969,-0.001521,0.648253,-0.492429,-0.565454,-0.132451
44236,NaN,13.432757,-1.580657,3.480594,1.252703,7.015125,2.197995,-0.927367,3.091189,-0.360309,-0.908203,0.739746,-0.222900,0.134816,-0.015894,0.032798,0.999868,-0.004637,0.015455,-0.001801,0.654382,-0.492305,-0.555636,-0.143834
44237,NaN,13.899471,-0.897048,3.109263,2.384842,6.910022,2.443670,-1.212277,2.887113,-0.370635,-0.906250,0.739746,-0.241943,0.139408,-0.009048,0.029137,0.999876,-0.006061,0.014435,-0.001853,0.659233,-0.492902,-0.546117,-0.155614
44238,NaN,13.765289,-1.025387,0.423294,3.949190,4.335900,2.689765,-0.855239,2.045763,-0.299613,-0.901855,0.737793,-0.258789,0.137671,-0.010446,0.002869,0.999937,-0.004276,0.010229,-0.001498,0.662434,-0.493282,-0.539415,-0.163970
44239,NaN,12.575731,-1.453375,-2.941132,5.152124,0.759045,2.094802,0.378724,1.346563,-0.232897,-0.901855,0.731445,-0.273438,0.125538,-0.014623,-0.030285,0.999975,0.001894,0.006733,-0.001164,0.666953,-0.490074,-0.535766,-0.167200
44240,NaN,12.023055,-2.246838,-5.853488,6.042904,-2.365102,2.093255,1.692397,1.231785,-0.482929,-0.905762,0.720703,-0.302979,0.119812,-0.022257,-0.059463,0.999942,0.008462,0.006159,-0.002415,0.673954,-0.482080,-0.534228,-0.167286
44241,NaN,13.559681,-4.915850,-6.809268,5.317555,-4.219399,4.620114,2.001109,1.715521,-0.470567,-0.897217,0.714355,-0.332764,0.134888,-0.048784,-0.069741,0.999910,0.010005,0.008577,-0.002353,0.683024,-0.472424,-0.531144,-0.167865
44242,NaN,9.810546,-6.757936,-6.042008,2.284414,-5.797881,2.001636,1.324650,2.240241,-0.272468,-0.890869,0.708008,-0.364258,0.097325,-0.067305,-0.061960,0.999914,0.006623,0.011201,-0.001362,0.691813,-0.465257,-0.525206,-0.170556
44243,NaN,9.824818,-7.682354,-3.898775,0.504747,-4.752306,2.348805,-0.238731,2.379253,-0.241023,-0.888672,0.703857,-0.372803,0.097683,-0.076989,-0.040060,0.999928,-0.001194,0.011896,-0.001205,0.697326,-0.463248,-0.517237,-0.177774
44244,NaN,11.451045,-6.923653,-1.793568,0.563828,-2.443607,3.453376,-2.206393,2.643236,-0.306532,-0.880371,0.710205,-0.381348,0.114160,-0.069615,-0.018679,0.999851,-0.011031,0.013216,-0.001533,0.698672,-0.467730,-0.506695,-0.190646
44245,NaN,11.138534,-5.152461,-0.603901,1.158202,-0.835044,2.391257,-2.819816,3.368194,-0.070459,-0.857422,0.718750,-0.396240,0.111253,-0.051660,-0.007186,0.999759,-0.014098,0.016840,-0.000352,0.700436,-0.473954,-0.492226,-0.206084
44246,NaN,9.668002,-4.355792,0.882354,0.524032,0.359070,0.808636,-2.663522,3.824965,0.228268,-0.845215,0.733887,-0.409180,0.096882,-0.043341,0.007550,0.999728,-0.013316,0.019123,0.001141,0.703580,-0.479774,-0.475414,-0.220848
44247,NaN,9.829952,-6.145270,-0.540200,0.020000,-1.847861,1.644445,-2.561827,3.569621,0.522728,-0.828613,0.744629,-0.424072,0.098352,-0.061273,-0.006372,0.999755,-0.012808,0.017847,0.002613,0.706381,-0.485844,-0.458594,-0.233823
44248,NaN,8.379293,-5.915687,-1.116232,-0.150989,-2.579915,0.175974,-2.303082,3.360129,0.434817,-0.813965,0.755371,-0.434814,0.083726,-0.059109,-0.011889,0.999790,-0.011515,0.016799,0.002174,0.708849,-0.490944,-0.442885,-0.245682
44249,NaN,7.537590,-4.296482,-0.576556,0.558009,-1.652869,-1.294345,-1.752928,3.016064,0.253486,-0.795166,0.763916,-0.451904,0.075336,-0.042924,-0.006526,0.999847,-0.008764,0.015080,0.001267,0.711477,-0.493819,-0.429289,-0.256229
44250,NaN,7.629647,-2.498638,-0.486292,2.054868,-1.030813,-2.105336,-1.337778,2.861670,0.256045,-0.780518,0.770508,-0.466797,0.076250,-0.024925,-0.005787,0.999874,-0.006689,0.014308,0.001280,0.714554,-0.495399,-0.416712,-0.265225
44251,NaN,7.394239,-1.552271,-1.015564,2.911025,-1.357567,-2.899245,-1.021600,2.719341,-0.037630,-0.770264,0.774902,-0.477295,0.073793,-0.015592,-0.011080,0.999895,-0.005108,0.013596,-0.000188,0.717601,-0.495199,-0.405629,-0.274395
44252,NaN,7.386315,-1.137235,0.027505,2.929667,-0.404428,-2.949522,-0.449655,2.118599,-0.735557,-0.765625,0.764160,-0.485840,0.073818,-0.011644,-0.000481,0.999935,-0.002248,0.010593,-0.003678,0.719727,-0.492381,-0.399207,-0.283176
44253,NaN,8.563184,0.209421,0.920902,4.328685,0.705021,-2.397732,-0.653842,1.916963,-1.684319,-0.773926,0.751221,-0.498291,0.085729,0.001401,0.008382,0.999913,-0.003269,0.009585,-0.008421,0.719510,-0.488510,-0.395433,-0.295458
44254,NaN,11.387663,2.387915,0.769008,7.511284,0.928633,-0.942645,-1.407593,2.215429,-2.394606,-0.775635,0.740723,-0.508789,0.114227,0.022560,0.006264,0.999842,-0.007038,0.011077,-0.011972,0.716800,-0.485489,-0.391172,-0.312222
44255,NaN,13.559601,4.679759,1.744921,10.182337,2.031032,0.236275,-0.649385,2.951183,-1.708285,-0.767090,0.734131,-0.525635,0.136226,0.045688,0.015293,0.999849,-0.003247,0.014755,-0.008541,0.718198,-0.479693,-0.383605,-0.327007
44256,NaN,11.123837,3.852609,1.033601,8.452376,0.908596,-1.604730,-0.966184,2.724735,-1.369463,-0.764648,0.725586,-0.536133,0.111624,0.037807,0.008633,0.999872,-0.004831,0.013623,-0.006847,0.718775,-0.476018,-0.375479,-0.340273
44257,NaN,8.415403,1.669516,-0.561576,5.598857,-1.239068,-3.406922,-1.168373,2.399720,-1.373744,-0.760254,0.715088,-0.542480,0.084190,0.016080,-0.006721,0.999887,-0.005842,0.011998,-0.006868,0.718005,-0.473399,-0.368027,-0.353439
44258,NaN,7.094525,0.410842,-2.831696,4.235608,-3.776523,-4.683225,-1.764575,2.691050,-1.487054,-0.754150,0.721436,-0.553223,0.070582,0.003327,-0.029300,0.999843,-0.008822,0.013455,-0.007435,0.716038,-0.472166,-0.358713,-0.368340
44259,NaN,5.912331,0.235284,-1.403059,3.180080,-2.477247,-5.260162,-1.915968,3.340336,-1.288850,-0.743408,0.719238,-0.561523,0.058891,0.001832,-0.015035,0.999794,-0.009579,0.016701,-0.006444,0.714869,-0.470366,-0.346136,-0.384590
44260,NaN,6.839100,0.301515,0.139008,3.405792,-1.451648,-4.053247,-2.200313,3.539866,-1.173258,-0.726807,0.728027,-0.572266,0.068417,0.002620,0.000149,0.999766,-0.011001,0.017698,-0.005866,0.713395,-0.469281,-0.331934,-0.400828
44261,NaN,7.509035,-0.704805,-0.410995,2.810137,-2.635108,-3.316184,-2.443599,3.486813,-1.336432,-0.718262,0.730225,-0.578613,0.074955,-0.007609,-0.005327,0.999751,-0.012217,0.017433,-0.006682,0.710450,-0.468570,-0.317600,-0.418131
44262,NaN,7.007252,-0.844086,-1.817897,2.415015,-4.070033,-4.270734,-2.794875,3.972048,-1.526214,-0.699463,0.736572,-0.591553,0.069626,-0.009239,-0.019439,0.999676,-0.013973,0.019858,-0.007630,0.706787,-0.467616,-0.301125,-0.437162
44263,NaN,5.674877,-1.173698,-0.191138,1.372868,-2.404934,-4.719067,-2.710297,4.477709,-1.530926,-0.686768,0.736572,-0.593750,0.056597,-0.012207,-0.003016,0.999628,-0.013550,0.022386,-0.007654,0.703415,-0.464818,-0.282805,-0.457355
44264,NaN,5.257326,-1.661299,1.867616,0.756579,-0.624121,-4.074804,-2.422854,3.645866,-1.371695,-0.676270,0.743164,-0.606445,0.052790,-0.016754,0.017918,0.999737,-0.012113,0.018228,-0.006858,0.699615,-0.462939,-0.267559,-0.473960
44265,NaN,5.648337,-2.334349,0.434924,0.154474,-2.296969,-4.134636,-2.491319,3.251510,-1.566906,-0.667969,0.743164,-0.612793,0.056362,-0.023736,0.003726,0.999760,-0.012456,0.016256,-0.007834,0.694139,-0.461620,-0.253808,-0.490571
44266,NaN,5.447899,-1.676176,0.272529,0.565959,-2.401728,-4.667513,-2.507881,3.116160,-1.722262,-0.661621,0.745117,-0.602295,0.054368,-0.017201,0.002091,0.999763,-0.012538,0.015580,-0.008611,0.687913,-0.460384,-0.240761,-0.506809
44267,NaN,6.438374,-0.225175,0.014056,2.108937,-3.147950,-4.602838,-2.694511,2.928966,-1.754504,-0.655273,0.751709,-0.604492,0.064354,-0.002823,-0.000767,0.999764,-0.013471,0.014644,-0.008772,0.680442,-0.459883,-0.227812,-0.523074
44268,NaN,7.411273,0.372509,0.156219,2.876766,-3.672458,-4.040158,-2.678805,2.742261,-1.874518,-0.651367,0.755859,-0.606689,0.074155,0.003042,0.000502,0.999772,-0.013393,0.013710,-0.009372,0.672346,-0.459584,-0.215740,-0.538693
44269,NaN,7.565592,0.787297,-0.077319,3.086959,-4.146203,-4.232552,-2.716021,2.619689,-1.880463,-0.653320,0.755859,-0.600342,0.075706,0.007141,-0.001865,0.999778,-0.013579,0.013097,-0.009402,0.663508,-0.459399,-0.203875,-0.554206
44270,NaN,6.103602,-0.044192,1.066602,2.008752,-2.514432,-4.517983,-2.249867,2.271333,-1.752225,-0.655518,0.762207,-0.593994,0.061146,-0.000862,0.009980,0.999834,-0.011249,0.011356,-0.008761,0.655687,-0.458705,-0.194101,-0.567441
44271,NaN,5.899710,-1.039561,1.232149,0.974538,-2.297144,-4.228987,-1.993289,1.898129,-1.671395,-0.653564,0.762207,-0.596191,0.059022,-0.010769,0.011867,0.999870,-0.009966,0.009490,-0.008357,0.647900,-0.458043,-0.186029,-0.579496
44272,NaN,5.632191,-2.126704,1.121457,-0.216997,-2.180221,-4.094208,-1.816982,1.592964,-1.617357,-0.657715,0.764404,-0.593994,0.056236,-0.021622,0.010962,0.999894,-0.009085,0.007965,-0.008087,0.640462,-0.457759,-0.179294,-0.590016
44273,NaN,5.881089,-2.554743,1.135288,-0.637800,-2.281530,-3.747213,-1.720999,1.387236,-1.617802,-0.661865,0.758057,-0.585449,0.058680,-0.025926,0.011168,0.999906,-0.008605,0.006936,-0.008089,0.632699,-0.457555,-0.173467,-0.600203
44274,NaN,6.082827,-2.431380,1.672991,-0.385098,-1.996457,-3.364691,-1.745778,1.085518,-1.629653,-0.661865,0.760010,-0.581299,0.060719,-0.024663,0.016614,0.999914,-0.008729,0.005427,-0.008148,0.624698,-0.458366,-0.168513,-0.609309
44275,NaN,6.183717,-2.247341,2.112900,-0.118513,-1.732243,-3.124029,-1.834966,0.734081,-1.666216,-0.672363,0.760010,-0.564209,0.061726,-0.022794,0.021110,0.999916,-0.009175,0.003670,-0.008331,0.615750,-0.460293,-0.164449,-0.618012
44276,NaN,6.084559,-1.820654,2.441637,0.315182,-1.470819,-3.176780,-1.989253,0.396595,-1.739628,-0.680664,0.753662,-0.562012,0.060734,-0.018492,0.024479,0.999911,-0.009946,0.001983,-0.008698,0.606062,-0.463719,-0.161076,-0.625866
44277,NaN,6.150040,-1.094184,2.390519,0.910615,-1.670861,-3.400708,-2.286417,0.161147,-1.853099,-0.691406,0.757812,-0.545166,0.061416,-0.011237,0.023983,0.999891,-0.011432,0.000806,-0.009265,0.594794,-0.468476,-0.157729,-0.633934
44278,NaN,6.166313,-0.806158,2.732123,1.267102,-1.458110,-3.300703,-2.617508,0.084619,-1.941792,-0.708252,0.757812,-0.523926,0.061595,-0.008302,0.027403,0.999867,-0.013087,0.000423,-0.009709,0.582491,-0.474397,-0.153715,-0.641891
44279,NaN,6.062718,-0.845119,3.057197,1.325117,-1.106777,-3.191798,-2.887968,0.000973,-1.993318,-0.723145,0.759766,-0.507080,0.060542,-0.008612,0.030695,0.999846,-0.014439,0.000005,-0.009966,0.568917,-0.481073,-0.149167,-0.650117
44280,NaN,5.754049,-1.565823,3.141105,0.685314,-0.587804,-3.133472,-3.031649,-0.072836,-1.958720,-0.735840,0.761963,-0.481689,0.057375,-0.015742,0.031670,0.999837,-0.015157,-0.000364,-0.009793,0.555106,-0.488393,-0.144213,-0.657672
44281,NaN,6.138362,-2.034019,2.493862,-0.000054,-1.051226,-2.962118,-3.188048,-0.115887,-1.886994,-0.750488,0.759766,-0.460449,0.061176,-0.020517,0.025300,0.999828,-0.015939,-0.000579,-0.009434,0.540698,-0.496045,-0.138651,-0.665102
44282,NaN,5.667465,-1.986938,1.698802,-0.403568,-1.282239,-3.717901,-3.232716,0.005628,-1.723115,-0.756836,0.759766,-0.437012,0.056503,-0.020079,0.017310,0.999832,-0.016163,0.000028,-0.008615,0.526858,-0.503487,-0.132143,-0.671907
44283,NaN,5.286140,-1.896691,1.191610,-0.635511,-1.380994,-4.276519,-2.874364,0.030030,-1.514081,-0.765137,0.759521,-0.420166,0.052718,-0.019193,0.012183,0.999868,-0.014371,0.000150,-0.007570,0.514253,-0.509758,-0.126217,-0.678056
44284,NaN,5.315785,-2.098478,0.860553,-0.997392,-1.466402,-4.312131,-2.103024,-0.151145,-1.242437,-0.769287,0.757324,-0.403320,0.053020,-0.021222,0.008868,0.999925,-0.010515,-0.000756,-0.006212,0.504540,-0.514855,-0.122641,-0.682145
44285,NaN,5.865121,-2.494374,0.825579,-1.327022,-1.535232,-3.714776,-1.474392,-0.580030,-1.019911,-0.775635,0.755371,-0.396729,0.058499,-0.025180,0.008611,0.999956,-0.007372,-0.002900,-0.005099,0.496663,-0.519778,-0.121715,-0.684355
44286,NaN,7.259876,-2.790344,1.171916,-1.296915,-1.821645,-2.271913,-1.379803,-1.149051,-0.880672,-0.790283,0.750977,-0.371338,0.072406,-0.028139,0.012329,0.999950,-0.006899,-0.005745,-0.004403,0.489333,-0.526574,-0.122138,-0.684365
44287,NaN,9.217962,-3.741613,2.479457,-1.151827,-1.372395,0.282113,-1.405064,-1.370217,-0.683957,-0.796631,0.755127,-0.354492,0.091877,-0.037552,0.025688,0.999946,-0.007025,-0.006851,-0.003420,0.482214,-0.534139,-0.122502,-0.683490
44288,NaN,11.227139,-4.887343,5.386856,-0.093158,0.303125,3.560722,-1.273818,-1.303899,-0.424258,-0.807129,0.752930,-0.331055,0.111812,-0.048763,0.054909,0.999956,-0.006369,-0.006519,-0.002121,0.476536,-0.541383,-0.122428,-0.681784
44289,NaN,13.197460,-5.370824,8.580610,1.753286,1.888259,6.619005,-1.311729,-1.125762,-0.270319,-0.811523,0.757080,-0.320557,0.131415,-0.053319,0.086897,0.999962,-0.006559,-0.005629,-0.001352,0.471150,-0.548050,-0.121392,-0.680384
44290,NaN,14.600450,-5.319920,11.321486,3.784498,3.136877,8.774516,-1.392308,-0.591866,-0.133357,-0.809082,0.754883,-0.312256,0.145633,-0.052505,0.114013,0.999971,-0.006961,-0.002959,-0.000667,0.466501,-0.553247,-0.118421,-0.679905
44291,NaN,13.719681,-5.357885,12.444464,4.621600,4.385544,8.386381,-1.281244,-0.145774,0.050610,-0.811523,0.761475,-0.297363,0.137119,-0.052745,0.124884,0.999979,-0.006406,-0.000729,0.000253,0.462829,-0.556623,-0.114277,-0.680368
44292,NaN,12.609517,-5.545222,11.971995,4.310789,4.690838,7.289578,-1.395945,-0.050520,0.217221,-0.809570,0.770020,-0.286865,0.126124,-0.054478,0.120134,0.999975,-0.006980,-0.000253,0.001086,0.459636,-0.560136,-0.109047,-0.680509
44293,NaN,13.256926,-7.017784,10.668508,2.593268,4.251502,7.907550,-1.747666,0.112836,0.303287,-0.807373,0.767822,-0.278320,0.132735,-0.069041,0.107217,0.999961,-0.008738,0.000564,0.001516,0.455615,-0.563756,-0.101981,-0.681318
44294,NaN,17.438874,-10.611495,9.682641,-0.281100,3.417878,12.519034,-1.657740,0.650287,0.316821,-0.799072,0.774170,-0.270020,0.174871,-0.105034,0.097132,0.999959,-0.008289,0.003251,0.001584,0.452326,-0.565456,-0.093965,-0.683250
44295,NaN,21.220510,-10.525676,1.733564,-5.409769,-3.767197,13.005002,-0.769075,0.678131,0.256067,-0.794922,0.780518,-0.274414,0.212398,-0.104919,0.017020,0.999986,-0.003845,0.003391,0.001280,0.451153,-0.564819,-0.089057,-0.685208
44296,NaN,16.123084,-6.483617,-9.579430,-10.526665,-10.707150,3.160404,0.393366,-0.202601,0.593020,-0.788574,0.780518,-0.276367,0.161519,-0.064169,-0.095757,0.999993,0.001967,-0.001013,0.002965,0.454194,-0.564887,-0.089196,-0.683121
44297,NaN,10.151250,-9.070870,-8.194563,-11.667111,-5.439115,-0.497887,2.147872,-0.058535,0.698392,-0.786621,0.780762,-0.293457,0.101851,-0.089467,-0.082881,0.999936,0.010739,-0.000293,0.003492,0.462426,-0.560367,-0.094708,-0.680574
44298,NaN,3.492747,-8.386135,-6.941155,-10.643662,-1.759315,-6.028414,1.448509,-0.948496,0.476567,-0.786377,0.780518,-0.284912,0.035457,-0.083272,-0.069849,0.999960,0.007242,-0.004742,0.002383,0.467630,-0.560449,-0.100501,-0.676105
44299,NaN,-2.182816,-5.570741,-10.613921,-11.355046,-2.876506,-13.165203,-0.429587,-1.334230,0.369680,-0.780273,0.787109,-0.272217,-0.021017,-0.055975,-0.106161,0.999974,-0.002148,-0.006671,0.001848,0.466874,-0.566069,-0.101168,-0.671833
44300,NaN,-5.440366,-5.250111,-5.458535,-7.967402,2.066475,-14.195041,-1.923376,-0.395721,0.405665,-0.776123,0.791260,-0.255371,-0.054189,-0.053134,-0.054184,0.999950,-0.009617,-0.001979,0.002028,0.462561,-0.572066,-0.094489,-0.670708
44301,NaN,-4.426796,-4.589140,5.559519,0.216438,8.455991,-9.897174,-3.800658,0.927996,0.618426,-0.772217,0.806152,-0.232422,-0.043867,-0.044957,0.056660,0.999804,-0.019002,0.004640,0.003092,0.454038,-0.577891,-0.077847,-0.673670
44302,NaN,4.024983,2.371622,9.363275,8.704585,2.245941,-4.458570,-3.911575,1.225183,0.668037,-0.768066,0.814697,-0.215576,0.040737,0.025673,0.092895,0.999784,-0.019556,0.006125,0.003340,0.445357,-0.582781,-0.059956,-0.677074
44303,NaN,18.407744,9.646491,1.347579,9.127064,-14.579987,1.926337,0.794447,-2.850510,0.611192,-0.761719,0.814697,-0.209229,0.183561,0.096965,0.016479,0.999886,0.003972,-0.014252,0.003056,0.448761,-0.590716,-0.067216,-0.667196
44304,NaN,24.892403,12.088022,-2.125842,9.722481,-21.101120,5.364887,3.295586,-2.973477,1.636475,-0.753662,0.829590,-0.217773,0.248182,0.123201,-0.015547,0.999720,0.016476,-0.014866,0.008182,0.462820,-0.593626,-0.080040,-0.653452
44305,NaN,25.116650,8.984251,-5.875403,5.994842,-21.605314,5.784419,3.305292,-1.636521,2.097047,-0.749512,0.831787,-0.230469,0.250661,0.093404,-0.055177,0.999775,0.016525,-0.008182,0.010484,0.478568,-0.591996,-0.088490,-0.642404
44306,NaN,21.922906,4.404508,-5.174272,3.338227,-16.979561,5.264642,1.535531,-1.076348,0.601844,-0.740967,0.831787,-0.226318,0.219367,0.045095,-0.050219,0.999952,0.007678,-0.005382,0.003009,0.484539,-0.592018,-0.094224,-0.637071
44307,NaN,15.173978,0.128458,-3.440285,0.383884,-10.065277,2.046596,-1.326337,-0.615499,-0.479893,-0.747314,0.829590,-0.205078,0.151847,0.000694,-0.033942,0.999970,-0.006632,-0.003077,-0.002399,0.478564,-0.596957,-0.093111,-0.637141
44308,NaN,11.475257,-1.901653,-1.429680,-0.375734,-5.669278,0.437149,-3.467135,0.017565,-0.190223,-0.743164,0.838135,-0.175537,0.114733,-0.019370,-0.013973,0.999849,-0.017335,0.000088,-0.000951,0.467538,-0.605020,-0.082590,-0.639170
44309,NaN,8.457222,-3.784284,-1.260628,-2.064356,-2.924663,-1.174503,-4.576978,0.753557,0.210163,-0.738770,0.840088,-0.139648,0.084566,-0.038034,-0.012056,0.999731,-0.022883,0.003767,0.001051,0.454323,-0.613257,-0.065783,-0.642790
44310,NaN,7.621547,-6.285933,-1.103827,-3.642170,-0.818196,-0.599711,-5.065204,0.813331,0.243455,-0.740967,0.846436,-0.110107,0.076251,-0.063024,-0.009753,0.999670,-0.025323,0.004066,0.001217,0.439685,-0.622029,-0.046902,-0.646187
44311,NaN,6.388426,-10.015464,-0.679244,-5.574696,2.595390,0.372918,-5.823363,0.912372,0.207249,-0.740967,0.850586,-0.076416,0.063965,-0.100235,-0.004166,0.999565,-0.029113,0.004561,0.001036,0.422056,-0.631687,-0.025664,-0.649755
44312,NaN,5.900308,-12.888712,1.157838,-5.329261,6.028426,1.912809,-5.895647,0.943438,0.608090,-0.730225,0.852783,-0.025635,0.059459,-0.128296,0.015087,0.999550,-0.029474,0.004716,0.003040,0.405335,-0.640859,-0.002603,-0.651917
44313,NaN,5.954127,-13.187877,2.261581,-3.964739,7.039557,2.401313,-4.331241,-0.378941,-0.031872,-0.731934,0.843994,0.001953,0.059474,-0.131356,0.025577,0.999764,-0.021654,-0.001895,-0.000159,0.391077,-0.650748,0.010426,-0.650751
