// Start Time: Unknown
// Update Rate: 100.0Hz
// Filter Profile: human (46.1)
// Firmware Version: 4.4.0
PacketCounter,SampleTimeFine,Acc_X,Acc_Y,Acc_Z,FreeAcc_X,FreeAcc_Y,FreeAcc_Z,Gyr_X,Gyr_Y,Gyr_Z,Mag_X,Mag_Y,Mag_Z,VelInc_X,VelInc_Y,VelInc_Z,OriInc_q0,OriInc_q1,OriInc_q2,OriInc_q3,Quat_q0,Quat_q1,Quat_q2,Quat_q3
43922,NaN,11.918274,-2.120986,-0.528654,0.000000,0.000000,2.304265,-0.184141,-0.786514,1.272202,-0.757080,0.565186,0.364258,0.119334,-0.020456,-0.004798,0.999972,-0.000921,-0.003933,0.006361,0.351628,-0.674136,-0.255618,-0.597124
43923,NaN,12.021175,-2.401352,-1.169640,0.000000,0.000000,2.501539,-0.178464,-0.780286,1.328398,-0.748779,0.578125,0.349121,0.120412,-0.023224,-0.011206,0.999970,-0.000892,-0.003901,0.006642,0.373740,-0.681115,-0.285626,-0.561087
43924,NaN,11.083304,-1.316205,-1.052962,0.371674,-0.670657,1.371688,-0.075257,-0.797986,1.351115,-0.729736,0.580078,0.376953,0.110959,-0.012417,-0.010082,0.999969,-0.000376,-0.003990,0.006756,0.364223,-0.680191,-0.268440,-0.576734
43925,NaN,9.144059,-0.959411,-1.902427,-0.057263,-1.473421,-0.540285,-0.088692,-0.833458,1.359050,-0.730225,0.595215,0.361816,0.091581,-0.008980,-0.018639,0.999968,-0.000443,-0.004167,0.006795,0.366710,-0.684558,-0.265072,-0.571525
43926,NaN,7.588830,-3.104999,-3.198255,-2.682209,-1.158197,-1.510702,-0.174205,-0.846154,1.339315,-0.710938,0.594971,0.394043,0.076228,-0.030568,-0.031634,0.999968,-0.000871,-0.004231,0.006697,0.368216,-0.689244,-0.261906,-0.566361
43927,NaN,6.978847,-4.522059,-4.342738,-4.465004,-1.210029,-1.651156,-0.118216,-0.846025,1.278580,-0.711426,0.614258,0.380859,0.070259,-0.044798,-0.043104,0.999970,-0.000591,-0.004230,0.006393,0.370311,-0.693511,-0.258715,-0.561230
43928,NaN,6.721723,-3.734011,-3.758161,-3.415394,-1.174773,-2.053696,0.105922,-0.808028,1.156251,-0.689941,0.614258,0.400391,0.067583,-0.036930,-0.037329,0.999975,0.000530,-0.004040,0.005781,0.372560,-0.698930,-0.257181,-0.553673
43929,NaN,4.473704,-3.592391,-2.407038,-3.002508,-0.062380,-4.363497,0.200929,-0.729938,1.010443,-0.690674,0.631348,0.385010,0.045005,-0.035673,-0.023942,0.999980,0.001005,-0.003650,0.005052,0.375113,-0.701862,-0.255561,-0.548971
43930,NaN,1.285744,-6.153658,-2.313417,-5.709813,1.657349,-6.726688,0.118173,-0.598103,0.852411,-0.675537,0.629150,0.408691,0.013189,-0.061467,-0.023131,0.999986,0.000591,-0.002991,0.004262,0.378352,-0.706269,-0.255189,-0.541213
43931,NaN,0.804798,-8.173540,-3.035195,-7.786462,2.268019,-6.512146,-0.022182,-0.431340,0.662877,-0.677979,0.637939,0.391357,0.008384,-0.081711,-0.030325,0.999992,-0.000111,-0.002157,0.003314,0.379514,-0.708319,-0.253603,-0.538460
43932,NaN,1.859311,-8.787032,-4.522217,-8.701998,1.381054,-4.966328,-0.015599,-0.163834,0.360215,-0.675781,0.637695,0.415039,0.018788,-0.087840,-0.045200,0.999998,-0.000078,-0.000819,0.001801,0.382330,-0.712873,-0.247575,-0.533238
43933,NaN,1.141733,-7.752687,-6.382724,-9.191252,-0.696249,-5.667451,0.100702,0.091906,-0.053373,-0.684326,0.637939,0.393555,0.011367,-0.077498,-0.063871,1.000000,0.000504,0.000460,-0.000267,0.382660,-0.712369,-0.247858,-0.533543
43934,NaN,2.398173,-7.871575,-8.874944,-10.214334,-2.699505,-3.908683,0.132839,0.313263,-0.408825,-0.673340,0.631348,0.404297,0.023682,-0.078705,-0.088839,0.999996,0.000664,0.001566,-0.002044,0.385147,-0.716638,-0.242446,-0.528500
43935,NaN,7.429762,-8.269647,-8.980593,-9.012694,-2.872097,0.899927,0.308853,0.596553,-0.842078,-0.692627,0.631348,0.380859,0.073680,-0.082869,-0.090154,0.999985,0.001544,0.002983,-0.004210,0.384746,-0.713436,-0.245127,-0.531877
43936,NaN,14.085667,-6.713786,-7.700338,-4.680158,-3.107524,6.655772,0.577499,0.826432,-1.277739,-0.698730,0.616455,0.380859,0.140105,-0.067811,-0.077779,0.999967,0.002887,0.004132,-0.006389,0.388573,-0.715895,-0.250955,-0.522998
43937,NaN,21.307624,-6.424982,-4.770165,-0.816683,-1.264018,12.897843,0.835786,1.114708,-1.612052,-0.722168,0.614502,0.350830,0.212279,-0.065760,-0.049159,0.999943,0.004179,0.005573,-0.008060,0.388726,-0.709293,-0.256730,-0.529041
43938,NaN,27.194870,-5.561800,-1.230602,3.680641,1.275040,17.697208,0.952676,1.520417,-1.946510,-0.732422,0.599365,0.353271,0.271285,-0.058194,-0.014643,0.999912,0.004763,0.007602,-0.009732,0.392890,-0.707004,-0.270023,-0.522370
43939,NaN,31.109890,-4.348816,0.200505,5.785114,1.569698,21.021828,0.994660,1.960970,-2.288684,-0.757812,0.593262,0.310303,0.310572,-0.047043,-0.001270,0.999874,0.004973,0.009804,-0.011443,0.393027,-0.696750,-0.276825,-0.532389
43940,NaN,32.763663,-1.839065,0.576048,7.938865,0.547281,22.026546,1.140839,2.203247,-2.646238,-0.778564,0.571777,0.310547,0.327391,-0.022742,0.002031,0.999836,0.005704,0.011016,-0.013230,0.395591,-0.688984,-0.285728,-0.535881
43941,NaN,33.289841,3.371338,1.200218,11.540337,-1.775869,21.565092,1.389780,2.136117,-2.960991,-0.805908,0.554932,0.263428,0.333453,0.028711,0.008654,0.999809,0.006948,0.010680,-0.014804,0.395421,-0.676151,-0.295372,-0.547008
43942,NaN,28.274666,8.161965,1.885153,13.786217,-3.203412,16.056498,1.537396,1.803048,-3.191531,-0.826416,0.527100,0.263672,0.284158,0.076958,0.016897,0.999803,0.007686,0.009015,-0.015957,0.395289,-0.663642,-0.310333,-0.554094
43943,NaN,19.980775,10.963918,2.220814,13.967448,-3.901694,7.907325,1.749399,1.587527,-3.432804,-0.853516,0.503662,0.225342,0.201821,0.105996,0.021549,0.999783,0.008746,0.007937,-0.017163,0.393961,-0.650316,-0.323364,-0.563311
43944,NaN,10.286107,14.190457,5.395872,16.222145,-1.738949,-1.442763,1.946265,1.624014,-3.657820,-0.869873,0.477783,0.219238,0.105868,0.139458,0.054472,0.999752,0.009731,0.008119,-0.018288,0.391483,-0.630411,-0.350564,-0.571338
43945,NaN,11.899556,10.766674,6.790069,13.592133,1.266408,1.014800,1.053849,1.542103,-3.598791,-0.900879,0.450195,0.183105,0.121424,0.105140,0.067529,0.999795,0.005269,0.007710,-0.017993,0.387147,-0.617506,-0.361827,-0.581278
43946,NaN,20.262893,-3.090743,0.973302,-2.125754,2.336621,10.462036,0.723973,1.227377,-3.165856,-0.910645,0.417969,0.185547,0.202160,-0.034142,0.008372,0.999849,0.003620,0.006137,-0.015828,0.377620,-0.596168,-0.384121,-0.595347
43947,NaN,15.692949,-12.225530,-2.638760,-12.492580,2.791191,5.640844,1.760290,0.701924,-2.551040,-0.929443,0.403076,0.155762,0.155259,-0.124001,-0.028021,0.999874,0.008801,0.003509,-0.012755,0.376574,-0.585781,-0.395591,-0.598799
43948,NaN,11.051237,-24.341621,-12.050439,-27.712344,-1.355398,-0.325028,1.514479,0.008192,-1.965887,-0.937500,0.390381,0.168701,0.108114,-0.243565,-0.122353,0.999923,0.007572,0.000041,-0.009829,0.372834,-0.572351,-0.410138,-0.604314
43949,NaN,1.849954,-21.754591,-10.118526,-24.036359,-1.134568,-9.782962,1.904248,-0.278624,-2.303255,-0.949707,0.368896,0.143311,0.016143,-0.216764,-0.103228,0.999887,0.009521,-0.001393,-0.011516,0.370710,-0.564856,-0.422956,-0.603837
43950,NaN,-2.896591,-22.119297,-3.283482,-21.543776,4.530825,-14.686456,1.255086,-0.623132,-1.700482,-0.953613,0.358154,0.164795,-0.030739,-0.220724,-0.034315,0.999939,0.006275,-0.003116,-0.008502,0.372852,-0.562404,-0.435428,-0.595890
43951,NaN,6.390409,-2.481656,2.510910,-2.067301,3.510970,-3.754716,1.175360,-0.391026,-1.101265,-0.961914,0.351807,0.145752,0.063717,-0.025315,0.025086,0.999966,0.005877,-0.001955,-0.005506,0.372012,-0.558961,-0.442741,-0.594264
43952,NaN,2.390798,7.234052,-2.802836,5.674406,-4.909403,-6.714082,1.178350,-0.386810,-0.046449,-0.955566,0.351807,0.165039,0.023978,0.072498,-0.027555,0.999981,0.005892,-0.001934,-0.000232,0.378310,-0.564107,-0.440884,-0.586758
43953,NaN,2.121968,5.396401,-2.881764,3.984953,-4.356497,-7.153858,0.313307,-0.151096,0.670897,-0.960205,0.364746,0.147705,0.021060,0.054080,-0.028717,0.999993,0.001567,-0.000755,0.003354,0.380827,-0.565433,-0.440194,-0.584368
43954,NaN,0.533132,-0.873246,-1.822866,-1.436094,-1.420016,-9.273423,-0.636728,-0.046290,1.046982,-0.951904,0.368896,0.171143,0.005381,-0.008762,-0.018200,0.999981,-0.003184,-0.000231,0.005235,0.386211,-0.572072,-0.437003,-0.576718
43955,NaN,0.848954,-4.477580,-0.319732,-4.365474,1.202950,-9.207123,-1.294921,0.092936,1.188731,-0.952148,0.379639,0.153809,0.008754,-0.044744,-0.002912,0.999961,-0.006475,0.000465,0.005944,0.386123,-0.576879,-0.429672,-0.577496
43956,NaN,0.689017,-5.775542,1.304677,-5.023182,3.178931,-9.371374,-1.456759,0.142840,1.261382,-0.946289,0.390381,0.173096,0.007263,-0.057613,0.013462,0.999953,-0.007284,0.000714,0.006307,0.389951,-0.585069,-0.422621,-0.571859
43957,NaN,0.853108,-6.008306,1.740802,-5.045574,3.737771,-9.158255,-1.031348,0.026491,1.283932,-0.944580,0.405273,0.166504,0.008918,-0.059936,0.017716,0.999966,-0.005157,0.000132,0.006420,0.390648,-0.589698,-0.415851,-0.571593
43958,NaN,1.519661,-3.644331,1.523658,-2.829046,2.779337,-8.334995,-0.412224,-0.104297,1.314058,-0.938477,0.413818,0.183350,0.015428,-0.036311,0.015320,0.999976,-0.002061,-0.000521,0.006570,0.395592,-0.598626,-0.405594,-0.566257
43959,NaN,1.944558,-1.473093,0.970594,-0.957934,1.503157,-7.884953,0.005585,-0.171284,1.344750,-0.934570,0.424561,0.172607,0.019536,-0.014600,0.009722,0.999977,0.000028,-0.000856,0.006724,0.399060,-0.601814,-0.401914,-0.563060
43960,NaN,1.892660,-0.208752,0.472846,0.096946,0.572773,-7.938708,0.272024,-0.192489,1.399259,-0.924316,0.439453,0.183105,0.018936,-0.001962,0.004744,0.999974,0.001360,-0.000962,0.006996,0.406589,-0.608709,-0.394371,-0.555545
43961,NaN,1.515009,0.385471,-0.059734,0.457240,-0.152554,-8.324391,0.389095,-0.220579,1.403850,-0.920410,0.450195,0.172363,0.015123,0.003962,-0.000573,0.999973,0.001945,-0.001103,0.007019,0.411226,-0.611282,-0.391616,-0.551238
43962,NaN,1.111007,1.177710,0.065498,1.232956,-0.338151,-8.817168,0.402326,-0.187633,1.353911,-0.914307,0.460938,0.193604,0.011029,0.011851,0.000689,0.999975,0.002012,-0.000938,0.006769,0.417559,-0.617097,-0.384047,-0.545292
43963,NaN,0.599405,2.016766,0.467999,2.107924,-0.268852,-9.452184,0.248756,-0.165231,1.309325,-0.908447,0.482422,0.176025,0.005858,0.020200,0.004710,0.999977,0.001244,-0.000826,0.006547,0.421570,-0.619528,-0.381022,-0.541559
43964,NaN,0.419083,2.351841,0.779239,2.510010,-0.091223,-9.738881,0.059321,-0.122154,1.261155,-0.897705,0.482422,0.191162,0.004038,0.023542,0.007802,0.999980,0.000297,-0.000611,0.006306,0.427686,-0.623923,-0.376177,-0.535066
43965,NaN,0.702102,2.639139,0.748003,2.808172,-0.222197,-9.525947,-0.187585,-0.044966,1.161929,-0.891846,0.497314,0.176025,0.006866,0.026439,0.007457,0.999983,-0.000938,-0.000225,0.005810,0.430118,-0.626619,-0.372140,-0.532784
43966,NaN,0.494964,2.570386,0.786797,2.726894,-0.181143,-9.767076,-0.453617,0.082048,1.070398,-0.887939,0.505859,0.190918,0.004815,0.025748,0.007808,0.999983,-0.002268,0.000410,0.005352,0.432525,-0.630830,-0.365095,-0.530736
43967,NaN,0.459743,1.597163,0.746409,1.812298,0.116485,-9.666438,-0.661757,0.168943,0.986488,-0.885986,0.514404,0.175781,0.004525,0.016019,0.007407,0.999982,-0.003309,0.000845,0.004932,0.433357,-0.633603,-0.359856,-0.530333
43968,NaN,0.235185,0.384242,0.921130,0.732171,0.709890,-9.705879,-0.719195,0.162208,0.944624,-0.875488,0.522949,0.199219,0.002341,0.003887,0.009195,0.999982,-0.003596,0.000811,0.004723,0.434042,-0.637773,-0.351973,-0.530065
43969,NaN,0.138634,-0.487756,0.843832,-0.100153,0.963724,-9.638399,-0.657170,0.091365,0.921752,-0.873779,0.531494,0.179932,0.001413,-0.004843,0.008454,0.999984,-0.003286,0.000457,0.004609,0.434543,-0.640569,-0.347088,-0.529503
43970,NaN,0.350971,-0.365918,0.405380,-0.102691,0.508321,-9.422215,-0.582894,0.002698,0.935382,-0.867188,0.531494,0.203369,0.003527,-0.003631,0.004064,0.999985,-0.002914,0.000013,0.004677,0.435387,-0.644404,-0.340394,-0.528501
43971,NaN,0.336996,-0.046730,0.399532,0.184731,0.377998,-9.499055,-0.506200,-0.006681,0.911359,-0.856934,0.542236,0.190430,0.003372,-0.000442,0.003997,0.999986,-0.002531,-0.000033,0.004557,0.436147,-0.647066,-0.336130,-0.527350
43972,NaN,-0.141927,0.228474,-0.183721,0.099818,-0.255231,-9.988727,-0.482692,-0.051522,0.822418,-0.857178,0.548584,0.209717,-0.001428,0.002274,-0.001843,0.999989,-0.002413,-0.000258,0.004112,0.437053,-0.650207,-0.330768,-0.526126
43973,NaN,-0.191624,0.481767,-0.883979,0.032303,-0.996647,-10.049090,-0.532464,-0.100357,0.794968,-0.848633,0.550781,0.194824,-0.001931,0.004786,-0.008854,0.999988,-0.002662,-0.000502,0.003975,0.437242,-0.652942,-0.326998,-0.524937
43974,NaN,-0.296141,1.913306,0.878980,1.972725,0.031681,-10.605381,-0.695819,0.015969,0.737315,-0.842285,0.552734,0.218262,-0.003031,0.019152,0.008723,0.999987,-0.003479,0.000080,0.003687,0.437193,-0.656198,-0.321486,-0.524322
43975,NaN,-0.980228,3.125793,1.512646,3.123189,0.118986,-11.615734,-0.686845,0.016892,0.729548,-0.838135,0.561523,0.205322,-0.009915,0.031274,0.015020,0.999987,-0.003434,0.000084,0.003648,0.436874,-0.658819,-0.317251,-0.523880
43976,NaN,-0.694670,3.759247,2.400928,4.105715,0.626067,-11.581860,-0.639150,0.029065,0.822139,-0.823242,0.561279,0.226807,-0.007098,0.037640,0.023890,0.999986,-0.003196,0.000145,0.004111,0.437071,-0.661496,-0.312248,-0.523349
43977,NaN,-0.343578,0.980434,1.375718,1.341930,0.842671,-10.491671,-0.546524,0.073168,0.937986,-0.814941,0.574219,0.209473,-0.003477,0.009826,0.013732,0.999985,-0.002733,0.000366,0.004690,0.437826,-0.663953,-0.307550,-0.522386
43978,NaN,-2.787642,-33.138680,-10.908685,-33.957955,4.730406,-2.786711,-1.293627,-0.532597,1.947839,-0.796387,0.589111,0.250000,-0.024356,-0.332332,-0.107007,0.999928,-0.006468,-0.002663,0.009739,0.437392,-0.670968,-0.298105,-0.519253
43979,NaN,20.599379,-58.284948,-24.745379,-53.951413,3.533383,29.039733,-4.154931,-1.316085,3.382340,-0.775391,0.608398,0.260742,0.217436,-0.584190,-0.233920,0.999620,-0.020772,-0.006580,0.016910,0.430107,-0.688256,-0.278737,-0.513437
43980,NaN,34.101578,-36.969149,-10.184666,-23.037398,7.021569,35.499069,-2.527925,-0.834581,1.832345,-0.760498,0.604004,0.301514,0.344799,-0.367780,-0.095756,0.999869,-0.012639,-0.004173,0.009161,0.427229,-0.702873,-0.261895,-0.504832
43981,NaN,20.079186,37.895481,-1.834795,36.545709,-21.736218,-3.938020,-0.573618,-1.643906,1.746499,-0.737549,0.625244,0.301270,0.197621,0.380638,-0.017805,0.999924,-0.002868,-0.008219,0.008732,0.427437,-0.710482,-0.257801,-0.496037
43982,NaN,-1.097836,34.427717,3.756113,28.173947,-14.186626,-24.145113,-2.323394,-1.943060,2.539391,-0.709717,0.627197,0.350830,-0.015690,0.344502,0.033423,0.999805,-0.011616,-0.009715,0.012696,0.424912,-0.725816,-0.247002,-0.481280
43983,NaN,23.150444,0.007027,-8.739441,5.670406,-8.517217,12.716882,-2.539150,-2.385843,2.724161,-0.686768,0.648682,0.365479,0.232505,0.002146,-0.084643,0.999756,-0.012695,-0.011928,0.013620,0.419203,-0.740139,-0.236015,-0.469852
43984,NaN,30.667309,5.844879,-11.183018,13.170608,-13.537074,17.444044,-0.747232,-1.701203,2.544769,-0.665527,0.652832,0.395508,0.306838,0.061940,-0.109448,0.999876,-0.003736,-0.008506,0.012723,0.422055,-0.748661,-0.235222,-0.453924
43985,NaN,26.747101,-0.524806,6.850977,15.936438,5.196508,12.132952,-1.277294,-0.929803,1.850282,-0.644531,0.665527,0.393311,0.267179,-0.002332,0.069773,0.999926,-0.006386,-0.004649,0.009251,0.420349,-0.755588,-0.227341,-0.448007
43986,NaN,23.584486,-3.881228,7.447365,12.572902,7.890567,10.346494,-1.425330,-1.214192,1.272795,-0.631592,0.661133,0.425537,0.235624,-0.036773,0.076172,0.999936,-0.007126,-0.006071,0.006364,0.416762,-0.761943,-0.228604,-0.439878
43987,NaN,14.369485,-9.788569,5.030359,2.876277,9.351017,5.414873,-1.041611,-1.021469,1.177620,-0.623291,0.671875,0.418945,0.144006,-0.096772,0.051544,0.999956,-0.005208,-0.005107,0.005888,0.414198,-0.767674,-0.223944,-0.434702
43988,NaN,14.175105,-9.304306,2.059323,1.932311,6.730369,5.766153,-1.607956,-0.856061,1.522960,-0.597412,0.667480,0.455811,0.142361,-0.091788,0.021943,0.999930,-0.008040,-0.004280,0.007615,0.410081,-0.773499,-0.218981,-0.430790
43989,NaN,11.748267,-11.971527,-1.444508,-2.602590,5.495604,5.885859,-1.371787,-0.456437,1.056751,-0.595459,0.676025,0.447021,0.118145,-0.119186,-0.013357,0.999960,-0.006859,-0.002282,0.005284,0.406536,-0.778422,-0.212865,-0.428341
43990,NaN,10.530193,-8.407687,-10.180915,-5.032489,-3.576650,5.906879,-1.134907,-0.289504,0.574585,-0.588623,0.665283,0.468750,0.105691,-0.084349,-0.101178,0.999979,-0.005674,-0.001448,0.002873,0.403805,-0.780740,-0.210520,-0.427865
43991,NaN,13.820475,-8.157571,-13.796828,-4.836652,-6.626511,9.696286,-0.215585,-0.045841,0.040700,-0.595459,0.676025,0.451172,0.138253,-0.081696,-0.137849,0.999999,-0.001078,-0.000229,0.000204,0.403002,-0.781316,-0.209992,-0.427829
43992,NaN,18.320512,-6.500701,-8.702417,1.223017,-3.523904,11.156772,0.549024,0.143581,-0.356221,-0.588623,0.663086,0.466553,0.183027,-0.065094,-0.087334,0.999994,0.002745,0.000718,-0.001781,0.404129,-0.779374,-0.213312,-0.428666
43993,NaN,21.942370,-9.132435,-1.913041,4.626136,3.411395,13.327867,0.773577,0.572223,-0.601858,-0.608154,0.671875,0.440674,0.219091,-0.091907,-0.020112,0.999984,0.003868,0.002861,-0.003009,0.406458,-0.775931,-0.216155,-0.431278
43994,NaN,22.964914,-10.374112,1.009129,5.443215,6.435324,13.956510,0.770655,0.888171,-0.894730,-0.614502,0.665527,0.442871,0.229222,-0.104802,0.008670,0.999973,0.003853,0.004441,-0.004474,0.408076,-0.771210,-0.220564,-0.435960
43995,NaN,23.155867,-10.171301,0.792760,5.205739,6.018724,14.206813,0.836501,1.124852,-1.127528,-0.629395,0.663330,0.416992,0.231018,-0.103045,0.006198,0.999960,0.004182,0.005624,-0.005638,0.410069,-0.765777,-0.224430,-0.441656
43996,NaN,22.932390,-10.182174,-0.895886,3.729021,4.483611,14.607434,1.003793,1.191849,-1.482750,-0.646240,0.652832,0.415039,0.228500,-0.103467,-0.010839,0.999942,0.005019,0.005959,-0.007414,0.411486,-0.758746,-0.229709,-0.449686
43997,NaN,23.095248,-11.029772,-3.136027,1.503520,2.954382,15.757831,1.179077,1.485331,-2.047063,-0.667480,0.650635,0.380615,0.229564,-0.112458,-0.033727,0.999903,0.005895,0.007426,-0.010235,0.413023,-0.750556,-0.237047,-0.458133
43998,NaN,24.273471,-8.795537,-2.847888,2.985498,1.747239,15.929164,1.447088,1.869932,-2.621852,-0.692627,0.629395,0.374268,0.241271,-0.090905,-0.031390,0.999844,0.007235,0.009349,-0.013109,0.414255,-0.739208,-0.245835,-0.470670
43999,NaN,25.676191,-3.020999,-1.210240,7.854350,-0.093002,14.846525,1.996493,1.872585,-3.287852,-0.728760,0.623047,0.331299,0.256090,-0.034285,-0.014831,0.999771,0.009982,0.009362,-0.016438,0.416104,-0.726457,-0.258749,-0.481838
44000,NaN,25.456405,3.036311,0.507970,12.287742,-1.741341,12.623781,2.330367,1.657834,-3.760374,-0.753662,0.595215,0.318848,0.255106,0.025525,0.003283,0.999721,0.011651,0.008288,-0.018800,0.417123,-0.711305,-0.274485,-0.494684
44001,NaN,21.291378,7.505473,0.759435,13.716642,-3.407700,7.805379,2.560625,1.418642,-4.123879,-0.787109,0.571777,0.273926,0.214451,0.070551,0.006999,0.999680,0.012802,0.007092,-0.020617,0.417844,-0.696570,-0.292436,-0.504656
44002,NaN,14.632981,12.257394,1.661377,15.364230,-4.392992,0.756247,2.941372,1.391659,-4.375771,-0.816406,0.544189,0.265625,0.149080,0.119080,0.017351,0.999628,0.014705,0.006957,-0.021876,0.418452,-0.678004,-0.313821,-0.516455
44003,NaN,9.002179,13.856841,4.953084,16.390368,-1.721505,-4.721971,2.358256,1.472111,-4.282526,-0.849365,0.510010,0.225342,0.093322,0.136002,0.050466,0.999674,0.011790,0.007360,-0.021410,0.417562,-0.662329,-0.331244,-0.526536
44004,NaN,13.927674,-1.688049,4.012979,2.912131,4.361601,3.803375,2.046762,1.210231,-3.641058,-0.870117,0.490723,0.221191,0.139172,-0.019819,0.039095,0.999764,0.010233,0.006051,-0.018204,0.414538,-0.646018,-0.347789,-0.538388
44005,NaN,21.750267,-11.372381,2.489950,-5.753569,6.946290,13.147590,2.605392,1.097924,-3.038214,-0.884521,0.473633,0.185059,0.215865,-0.117312,0.022199,0.999785,0.013026,0.005489,-0.015190,0.416596,-0.632239,-0.362265,-0.543586
44006,NaN,20.486059,-22.190102,-10.329727,-21.679563,-1.139689,13.584136,2.718150,0.430255,-2.310201,-0.898926,0.452393,0.187256,0.202063,-0.222811,-0.106758,0.999839,0.013590,0.002151,-0.011550,0.419231,-0.617419,-0.378900,-0.547242
44007,NaN,12.999381,-19.998005,-22.367034,-25.096844,-13.824491,5.940118,2.696160,0.325395,-2.982664,-0.919678,0.430908,0.151123,0.126656,-0.198844,-0.226564,0.999797,0.013480,0.001627,-0.014912,0.419925,-0.605100,-0.394726,-0.549281
44008,NaN,-0.184736,-17.622325,-17.726247,-22.392089,-11.002250,-8.295955,1.829588,0.125177,-3.102051,-0.933838,0.405273,0.164307,-0.004675,-0.174534,-0.178862,0.999838,0.009147,0.000626,-0.015509,0.416189,-0.593340,-0.409972,-0.553765
44009,NaN,5.498057,-8.762425,1.248406,-7.740634,4.075556,-4.153202,1.221567,0.154436,-3.072858,-0.949951,0.375244,0.147461,0.053634,-0.088529,0.011903,0.999863,0.006108,0.000772,-0.015364,0.411565,-0.583988,-0.422094,-0.558040
44010,NaN,3.996659,4.423479,3.354975,5.273823,1.985569,-5.934862,1.749157,-0.097617,-2.204456,-0.955811,0.362549,0.151855,0.040432,0.043495,0.033952,0.999901,0.008745,-0.000488,-0.011022,0.406649,-0.577819,-0.430963,-0.561279
44011,NaN,1.112265,0.334096,-1.529196,-0.126872,-1.510117,-8.633454,2.189189,-0.210818,-1.048403,-0.964355,0.358154,0.136963,0.011157,0.003450,-0.015243,0.999926,0.010946,-0.001054,-0.005242,0.409547,-0.571653,-0.440533,-0.558045
44012,NaN,0.571069,-4.273819,-2.449489,-4.781523,-1.187926,-9.250230,2.440970,-0.376820,-0.371838,-0.964355,0.358154,0.147705,0.005678,-0.042446,-0.025003,0.999922,0.012205,-0.001884,-0.001859,0.413188,-0.566969,-0.449126,-0.553269
44013,NaN,1.516887,-6.335902,-0.957342,-6.398477,0.713966,-8.430756,1.872682,-0.323936,-0.042635,-0.968750,0.358398,0.130615,0.015171,-0.063269,-0.010142,0.999955,0.009363,-0.001620,-0.000213,0.417632,-0.563871,-0.455078,-0.548212
44014,NaN,1.433407,-5.856521,-0.092633,-5.726375,1.396724,-8.540049,0.985871,-0.159753,0.149473,-0.970947,0.362549,0.143311,0.014379,-0.058549,-0.001203,0.999987,0.004929,-0.000799,0.000747,0.417912,-0.564354,-0.455803,-0.546899
44015,NaN,0.322543,-1.874593,0.321844,-1.750381,0.769264,-9.555561,0.289953,-0.067659,0.252082,-0.973145,0.362549,0.128418,0.003248,-0.018746,0.003192,0.999998,0.001450,-0.000338,0.001260,0.419263,-0.564502,-0.456027,-0.545523
44016,NaN,-0.413429,0.940319,0.782317,1.102301,0.512719,-10.247650,-0.129335,-0.044748,0.405495,-0.970947,0.362549,0.143311,-0.004155,0.009400,0.007816,0.999998,-0.000647,-0.000224,0.002027,0.419041,-0.566897,-0.453767,-0.545095
44017,NaN,-0.324967,2.396541,1.382800,2.658805,0.749577,-10.173257,-0.333444,-0.068697,0.620860,-0.962646,0.373291,0.132568,-0.003329,0.023978,0.013787,0.999994,-0.001667,-0.000343,0.003104,0.419628,-0.569183,-0.451242,-0.544357
44018,NaN,-0.173739,0.948203,1.484840,1.279576,1.197657,-10.062320,-0.480618,-0.076849,0.901857,-0.965088,0.381836,0.151611,-0.001786,0.009510,0.014825,0.999987,-0.002403,-0.000384,0.004509,0.420761,-0.572877,-0.447416,-0.542762
44019,NaN,0.464455,-0.461995,1.201018,-0.141656,1.301857,-9.416849,-0.640105,-0.085402,1.103924,-0.963379,0.390381,0.140869,0.004665,-0.004556,0.012027,0.999980,-0.003201,-0.000427,0.005520,0.421722,-0.576908,-0.442690,-0.541620
44020,NaN,0.359208,-1.678336,0.766932,-1.415042,1.190650,-9.475096,-0.930833,-0.088385,1.257919,-0.950928,0.403076,0.164307,0.003694,-0.016724,0.007749,0.999969,-0.004654,-0.000442,0.006290,0.422472,-0.582286,-0.436501,-0.540303
44021,NaN,0.352394,-2.000487,0.867886,-1.681044,1.388853,-9.459960,-1.168500,-0.137219,1.326092,-0.946777,0.409668,0.162109,0.003650,-0.019930,0.008798,0.999961,-0.005842,-0.000686,0.006630,0.422335,-0.587992,-0.429759,-0.539636
44022,NaN,0.635520,-1.838200,0.973697,-1.456944,1.479621,-9.165495,-1.287915,-0.239569,1.337070,-0.942871,0.418213,0.178955,0.006466,-0.018276,0.009863,0.999956,-0.006439,-0.001198,0.006685,0.421984,-0.594568,-0.422584,-0.538368
44023,NaN,1.327241,-0.266710,1.030718,0.136931,1.125037,-8.543617,-1.355526,-0.206423,1.327182,-0.938965,0.426758,0.170410,0.013279,-0.002509,0.010338,0.999954,-0.006778,-0.001032,0.006636,0.421070,-0.600757,-0.415409,-0.537798
44024,NaN,0.855405,0.375774,1.015336,0.738892,0.885969,-9.055805,-1.364457,-0.175421,1.320744,-0.937256,0.439453,0.195801,0.008520,0.003883,0.010135,0.999955,-0.006822,-0.000877,0.006604,0.419688,-0.607772,-0.406855,-0.537535
44025,NaN,1.075584,0.394155,0.958244,0.781331,0.823605,-8.842325,-1.311891,-0.136011,1.324492,-0.931152,0.452393,0.189209,0.010723,0.004075,0.009563,0.999956,-0.006559,-0.000680,0.006622,0.418965,-0.613554,-0.399575,-0.536992
44026,NaN,1.039369,0.573391,1.349001,1.101860,1.113168,-8.932037,-1.193209,-0.022352,1.348672,-0.918701,0.460938,0.210693,0.010353,0.005884,0.013456,0.999959,-0.005966,-0.000112,0.006743,0.418303,-0.619694,-0.390896,-0.536845
44027,NaN,0.471383,0.365436,1.573758,0.938863,1.361302,-9.499948,-1.028665,0.054838,1.372713,-0.914551,0.471680,0.193359,0.004693,0.003767,0.015717,0.999963,-0.005143,0.000274,0.006863,0.418890,-0.624354,-0.383756,-0.536138
44028,NaN,0.185621,0.266851,1.391334,0.764632,1.205996,-9.764009,-0.775192,0.048092,1.327158,-0.908691,0.482178,0.212646,0.001842,0.002735,0.013902,0.999970,-0.003876,0.000240,0.006636,0.419793,-0.628987,-0.376346,-0.535269
44029,NaN,0.249197,0.627921,0.740246,0.881879,0.463505,-9.704106,-0.540397,-0.037632,1.196700,-0.902344,0.488770,0.206055,0.002453,0.006314,0.007386,0.999978,-0.002702,-0.000188,0.005983,0.421214,-0.632456,-0.371209,-0.533649
44030,NaN,0.537100,1.249579,0.082340,1.261642,-0.381529,-9.467173,-0.390433,-0.048152,1.072776,-0.894287,0.501465,0.223145,0.005304,0.012526,0.000800,0.999984,-0.001952,-0.000241,0.005364,0.422344,-0.635968,-0.365718,-0.532372
44031,NaN,0.645918,1.539052,-0.279523,1.412737,-0.830086,-9.389444,-0.239778,-0.026957,0.964196,-0.883789,0.508057,0.205811,0.006385,0.015418,-0.002813,0.999988,-0.001199,-0.000135,0.004821,0.424092,-0.638298,-0.362069,-0.530687
44032,NaN,0.249096,1.352844,0.441062,1.440705,-0.105171,-9.820790,-0.150590,0.081883,0.907777,-0.883789,0.512207,0.218750,0.002431,0.013543,0.004399,0.999989,-0.000753,0.000409,0.004539,0.425784,-0.640500,-0.357640,-0.529680
44033,NaN,-0.080099,0.897901,1.639495,1.414076,1.172064,-10.169390,-0.033419,0.056249,0.860580,-0.868896,0.518555,0.208008,-0.000835,0.008978,0.016394,0.999991,-0.000167,0.000281,0.004303,0.428051,-0.641951,-0.354675,-0.528087
44034,NaN,0.250823,1.002553,1.510748,1.525636,1.010197,-9.860784,-0.015891,-0.016928,0.816075,-0.867188,0.525146,0.218506,0.002466,0.010037,0.015107,0.999992,-0.000079,-0.000085,0.004080,0.429729,-0.643852,-0.351145,-0.526768
44035,NaN,0.729019,1.053429,0.999360,1.476417,0.515413,-9.371744,-0.138630,0.058008,0.845358,-0.859131,0.542236,0.203369,0.007248,0.010572,0.009984,0.999991,-0.000693,0.000290,0.004227,0.431606,-0.645472,-0.347933,-0.525381
44036,NaN,0.556754,0.378991,0.140196,0.511432,-0.020953,-9.353058,-0.184040,0.083020,0.843124,-0.848389,0.546387,0.218262,0.005552,0.003815,0.001396,0.999991,-0.000920,0.000415,0.004216,0.433467,-0.647088,-0.344291,-0.524259
44037,NaN,0.593717,1.163278,0.806887,1.481883,0.284999,-9.530616,-0.302156,0.087851,0.867311,-0.846191,0.546387,0.201172,0.005890,0.011671,0.008049,0.999989,-0.001511,0.000439,0.004337,0.434908,-0.648995,-0.340502,-0.523182
44038,NaN,0.502943,1.617098,0.779884,1.860824,0.075484,-9.724497,-0.570879,0.074341,0.935106,-0.835938,0.559326,0.218262,0.004957,0.016216,0.007751,0.999985,-0.002854,0.000372,0.004676,0.435844,-0.651476,-0.335773,-0.522375
44039,NaN,1.860323,1.819172,1.374087,2.591434,0.497404,-8.510678,-0.788226,0.148008,1.106792,-0.827881,0.570068,0.207275,0.018512,0.018348,0.013655,0.999977,-0.003941,0.000740,0.005534,0.436404,-0.654646,-0.329781,-0.521761
44040,NaN,1.960411,1.252858,1.680854,2.254245,0.976711,-8.328649,-0.937968,0.204818,1.280885,-0.815186,0.576416,0.224609,0.019540,0.012732,0.016729,0.999968,-0.004690,0.001024,0.006404,0.437495,-0.657852,-0.323095,-0.520997
44041,NaN,1.672130,-0.028762,0.967314,0.794363,0.834439,-8.261835,-1.047896,0.176426,1.449912,-0.804932,0.593506,0.217773,0.016731,-0.000116,0.009659,0.999960,-0.005239,0.000882,0.007249,0.438091,-0.661997,-0.315200,-0.520082
44042,NaN,0.510223,-25.122088,-6.282027,-24.253324,4.979799,-2.212517,-2.081413,-0.096201,2.548401,-0.777344,0.604004,0.247803,0.008337,-0.251764,-0.060198,0.999865,-0.010407,-0.000481,0.012741,0.438046,-0.670351,-0.301862,-0.517325
44043,NaN,8.035271,-46.959082,-16.246208,-44.469760,6.371956,12.878329,-4.307233,-1.021839,3.193154,-0.754639,0.625488,0.269043,0.088666,-0.471566,-0.151881,0.999628,-0.021533,-0.005109,0.015964,0.430163,-0.686992,-0.282149,-0.513219
44044,NaN,46.075940,-78.191447,-28.843519,-61.736874,10.219198,61.956353,-3.747385,-1.515155,3.942984,-0.718506,0.631592,0.322754,0.478215,-0.777778,-0.270256,0.999601,-0.018734,-0.007575,0.019712,0.425640,-0.704931,-0.260866,-0.503837
44045,NaN,44.898468,31.354148,-9.154898,36.747905,-26.247008,22.489285,-2.073707,-2.569956,1.280864,-0.699707,0.650879,0.335449,0.448123,0.315481,-0.089051,0.999843,-0.010368,-0.012849,0.006404,0.418138,-0.717375,-0.256559,-0.494683
44046,NaN,-18.492752,46.414793,11.596882,34.072120,-13.511705,-45.686642,-1.033973,-1.872181,3.646585,-0.665771,0.663574,0.369629,-0.194415,0.461246,0.111789,0.999777,-0.005169,-0.009360,0.018232,0.421340,-0.729723,-0.243633,-0.480229
44047,NaN,13.153256,-5.084847,0.227414,2.061798,2.287964,3.949559,-2.518066,-2.214222,3.050346,-0.636230,0.676270,0.386719,0.132247,-0.048789,0.004359,0.999743,-0.012589,-0.011070,0.015250,0.416671,-0.743869,-0.231063,-0.468673
44048,NaN,35.167961,8.925347,-4.428479,20.796477,-10.196386,18.462707,-0.988364,-1.915546,2.737421,-0.602295,0.684814,0.418945,0.350822,0.093850,-0.041378,0.999848,-0.004942,-0.009577,0.013686,0.417456,-0.753902,-0.222549,-0.455888
44049,NaN,23.213376,6.759428,-1.358428,15.614791,-5.956258,7.710820,-1.623369,-1.355509,2.159383,-0.583008,0.691162,0.423340,0.231474,0.069991,-0.012576,0.999886,-0.008117,-0.006777,0.010797,0.414703,-0.762694,-0.213515,-0.448029
44050,NaN,21.897424,-8.126197,3.201689,7.321958,6.355861,11.675553,-1.317905,-1.732263,1.432034,-0.568115,0.691162,0.453369,0.219256,-0.079471,0.034443,0.999915,-0.006589,-0.008661,0.007160,0.410988,-0.770874,-0.209511,-0.439258
44051,NaN,26.356560,-8.054315,0.916122,9.118906,4.473167,15.822812,-0.613395,-1.817134,1.473359,-0.551270,0.703857,0.451172,0.264050,-0.078566,0.011802,0.999927,-0.003067,-0.009085,0.007367,0.409925,-0.777610,-0.206207,-0.429840
44052,NaN,23.690070,-10.448838,-0.967718,5.647469,4.616429,15.048949,-1.296215,-1.277823,1.479492,-0.527588,0.699463,0.483398,0.237718,-0.102785,-0.007490,0.999931,-0.006481,-0.006389,0.007397,0.407133,-0.784175,-0.201705,-0.422643
44053,NaN,21.597822,-9.271298,-4.033299,4.178607,1.630984,13.608592,-1.192826,-0.850005,1.249877,-0.521484,0.710205,0.472656,0.216720,-0.091595,-0.038864,0.999954,-0.005964,-0.004250,0.006249,0.404220,-0.789622,-0.196008,-0.417952
44054,NaN,16.733717,-6.966587,-8.549701,0.914632,-3.150799,9.957983,-0.713596,-0.583194,1.118859,-0.506348,0.703613,0.498535,0.167972,-0.069031,-0.084761,0.999974,-0.003568,-0.002916,0.005594,0.403907,-0.792801,-0.193233,-0.413506
44055,NaN,13.405400,-8.300652,-9.318424,-2.083556,-2.857513,8.157579,-0.149402,-0.344616,0.714082,-0.504395,0.716553,0.481201,0.134510,-0.082596,-0.092891,0.999992,-0.000747,-0.001723,0.003570,0.404454,-0.794497,-0.190790,-0.410843
44056,NaN,12.713295,-10.135569,-6.227094,-2.043736,0.693173,7.463782,0.385889,-0.016873,0.335601,-0.495850,0.712158,0.496338,0.127308,-0.101022,-0.062455,0.999997,0.001929,-0.000084,0.001678,0.407592,-0.793453,-0.192811,-0.408809
44057,NaN,11.759460,-9.698759,-3.309075,-0.892424,2.735728,5.517661,0.432771,0.346164,-0.022583,-0.504639,0.718750,0.479004,0.117526,-0.096929,-0.033504,0.999996,0.002164,0.001731,-0.000113,0.409594,-0.791837,-0.193082,-0.409813
44058,NaN,11.914754,-10.020480,-3.207171,-1.053657,2.925114,5.775425,0.428375,0.680331,-0.336324,-0.504639,0.716553,0.487549,0.118868,-0.100335,-0.032691,0.999991,0.002142,0.003402,-0.001682,0.411906,-0.788784,-0.195629,-0.412168
44059,NaN,14.483594,-9.875584,-4.165921,-0.083505,1.885039,8.106349,0.609446,0.914891,-0.647879,-0.523926,0.716553,0.459717,0.144322,-0.099095,-0.042622,0.999980,0.003047,0.004574,-0.003239,0.413860,-0.784991,-0.197555,-0.416509
44060,NaN,17.980968,-9.789388,-4.436443,1.582998,1.370318,11.030438,0.916634,1.064942,-0.977961,-0.532227,0.710205,0.459717,0.179088,-0.098563,-0.045770,0.999963,0.004583,0.005325,-0.004890,0.417077,-0.779457,-0.202490,-0.421296
44061,NaN,20.749068,-9.283500,-4.710285,2.967616,0.604568,13.202582,1.215503,1.227079,-1.434276,-0.555664,0.710449,0.431641,0.206523,-0.094025,-0.048941,0.999937,0.006077,0.006135,-0.007171,0.420008,-0.772834,-0.208071,-0.427816
44062,NaN,22.201494,-8.995915,-2.604733,4.439174,1.968671,13.788187,1.370441,1.620187,-1.815876,-0.574951,0.703857,0.427490,0.220963,-0.091779,-0.028465,0.999902,0.006852,0.008101,-0.009079,0.423651,-0.764062,-0.215862,-0.436041
44063,NaN,23.265755,-7.749119,-0.594773,6.175670,2.731352,13.767951,1.494836,1.960069,-2.251521,-0.608887,0.697754,0.386719,0.231689,-0.080044,-0.008814,0.999861,0.007474,0.009800,-0.011257,0.426508,-0.754084,-0.223543,-0.446628
44064,NaN,23.522338,-3.280446,0.697841,9.354131,1.295307,11.988918,1.707200,1.978863,-2.817762,-0.630127,0.684814,0.375977,0.234781,-0.036159,0.004355,0.999815,0.008535,0.009894,-0.014088,0.429299,-0.742183,-0.234789,-0.457975
44065,NaN,22.098119,1.539449,0.915117,11.627283,-0.969616,9.037898,1.851138,1.700235,-3.262697,-0.670410,0.676514,0.341553,0.221260,0.011712,0.007391,0.999788,0.009255,0.008501,-0.016312,0.430601,-0.730327,-0.247438,-0.469021
44066,NaN,18.515994,5.198426,0.225179,11.915978,-3.104205,4.960519,1.859512,1.402290,-3.573306,-0.704102,0.650879,0.337646,0.186061,0.048649,0.001412,0.999773,0.009297,0.007011,-0.017865,0.431166,-0.717642,-0.263078,-0.479454
44067,NaN,13.345986,6.298919,-0.310053,10.044453,-3.732565,0.338186,2.111825,1.230794,-3.721319,-0.733643,0.638184,0.299072,0.134582,0.060526,-0.003279,0.999752,0.010558,0.006153,-0.018605,0.431333,-0.705064,-0.278776,-0.488999
44068,NaN,10.357116,5.939370,2.582758,9.638942,-0.734297,-2.346309,2.160360,1.347046,-3.695162,-0.754150,0.610352,0.286377,0.104815,0.057186,0.025750,0.999748,0.010801,0.006735,-0.018474,0.431318,-0.691208,-0.294633,-0.499386
44069,NaN,12.334621,1.706846,2.823426,6.503478,1.483788,1.073676,1.401727,1.330151,-3.211502,-0.781494,0.593262,0.260742,0.123782,0.014889,0.027521,0.999824,0.007008,0.006650,-0.016057,0.430026,-0.680009,-0.306314,-0.508760
44070,NaN,16.990644,-2.189129,2.249776,3.813538,2.616894,6.834347,0.884008,1.317897,-2.445780,-0.804443,0.572021,0.258789,0.169764,-0.024064,0.021276,0.999894,0.004420,0.006589,-0.012228,0.428356,-0.670236,-0.314614,-0.517990
44071,NaN,17.954223,-5.822796,-0.080844,-0.511927,2.014163,8.947166,0.666332,1.252682,-1.724824,-0.821045,0.561279,0.235352,0.179021,-0.059768,-0.002128,0.999938,0.003332,0.006263,-0.008624,0.428064,-0.662806,-0.319420,-0.524806
44072,NaN,13.753961,-7.696238,-6.073957,-6.097614,-2.552501,5.730560,0.105657,1.238827,-1.314997,-0.831299,0.548584,0.235596,0.136650,-0.077830,-0.061629,0.999959,0.000528,0.006194,-0.006575,0.425489,-0.657072,-0.320670,-0.533279
44073,NaN,5.591600,-10.917621,-14.424248,-14.565497,-8.448060,-1.153311,-0.198386,1.146267,-1.626137,-0.845947,0.535645,0.214111,0.054198,-0.109765,-0.144448,0.999950,-0.000992,0.005731,-0.008131,0.422315,-0.651794,-0.323032,-0.540800
44074,NaN,0.259660,-10.080810,-14.009766,-14.943960,-8.120299,-6.864114,-0.919170,0.650683,-1.810645,-0.860352,0.514160,0.231689,0.001225,-0.101466,-0.139638,0.999943,-0.004596,0.003253,-0.009053,0.414318,-0.648960,-0.324665,-0.549349
44075,NaN,6.884067,-10.106175,-7.141358,-10.841633,-1.968132,-0.918990,-2.100871,0.351570,-1.637851,-0.870361,0.492920,0.225342,0.067882,-0.102364,-0.070463,0.999910,-0.010504,0.001758,-0.008189,0.403533,-0.649625,-0.323455,-0.557248
44076,NaN,2.222674,-1.925257,3.001852,0.122368,3.495495,-7.483650,-1.912735,0.394853,-1.881369,-0.884766,0.471436,0.249268,0.022106,-0.019173,0.030158,0.999908,-0.009563,0.001974,-0.009407,0.390555,-0.650071,-0.321783,-0.566860
44077,NaN,1.952478,2.272930,1.063621,2.757670,-0.233054,-8.247285,-0.909313,-0.077807,-1.334380,-0.890869,0.460693,0.245117,0.019672,0.022646,0.010541,0.999967,-0.004547,-0.000389,-0.006672,0.383676,-0.649895,-0.323688,-0.570662
44078,NaN,0.858869,1.729850,-0.971387,1.105810,-1.724581,-9.122320,-0.267287,-0.192387,-0.826411,-0.896973,0.452148,0.251709,0.008669,0.017250,-0.009729,0.999990,-0.001336,-0.000962,-0.004132,0.377254,-0.650796,-0.323483,-0.574024
44079,NaN,0.861266,0.998347,-2.058520,-0.067325,-2.288691,-8.956344,0.252320,-0.313540,-0.615014,-0.899170,0.454346,0.242920,0.008676,0.009983,-0.020559,0.999993,0.001262,-0.001568,-0.003075,0.375796,-0.650216,-0.326802,-0.573757
44080,NaN,1.440464,0.471163,-2.249727,-0.539685,-2.185986,-8.299942,0.277077,-0.248330,-0.539264,-0.903076,0.445801,0.253906,0.014445,0.004704,-0.022473,0.999995,0.001385,-0.001242,-0.002696,0.374254,-0.649385,-0.330048,-0.573849
44081,NaN,0.702017,-1.275657,-1.626976,-1.819458,-0.767884,-8.881501,0.204656,-0.161943,-0.528714,-0.907227,0.441406,0.243164,0.007000,-0.012758,-0.016277,0.999996,0.001023,-0.000810,-0.002644,0.373128,-0.648587,-0.332657,-0.573977
44082,NaN,0.783212,-1.889120,-0.449149,-1.757704,0.555942,-8.820050,0.361485,-0.155595,-0.502595,-0.909180,0.435059,0.251953,0.007788,-0.018903,-0.004520,0.999995,0.001807,-0.000778,-0.002513,0.372465,-0.647235,-0.336212,-0.573863
44083,NaN,0.856880,-1.159036,0.322384,-0.746839,0.860736,-8.873063,0.662818,-0.191404,-0.463367,-0.911621,0.439453,0.239014,0.008539,-0.011621,0.003194,0.999991,0.003314,-0.000957,-0.002317,0.372950,-0.645761,-0.339971,-0.572992
44084,NaN,0.754987,-0.298293,0.445125,0.037172,0.544598,-9.064927,0.934980,-0.161921,-0.436613,-0.915771,0.435059,0.249756,0.007540,-0.003020,0.004443,0.999986,0.004675,-0.000810,-0.002183,0.374840,-0.643190,-0.345425,-0.571386
44085,NaN,0.412474,0.401513,0.526520,0.643685,0.279416,-9.471865,1.126627,-0.092981,-0.393439,-0.922119,0.435059,0.230225,0.004130,0.003977,0.005290,0.999982,0.005633,-0.000465,-0.001967,0.377167,-0.640649,-0.350082,-0.569874
44086,NaN,-0.024789,0.703061,0.408303,0.805252,0.036029,-9.921699,1.264269,-0.033309,-0.407809,-0.917725,0.432861,0.234619,-0.000234,0.007005,0.004127,0.999978,0.006321,-0.000167,-0.002039,0.380383,-0.637102,-0.356048,-0.568014
44087,NaN,-0.120446,1.289681,0.700474,1.447774,0.040180,-10.078681,1.295843,-0.025480,-0.516359,-0.926514,0.435059,0.223877,-0.001172,0.012854,0.007088,0.999976,0.006479,-0.000127,-0.002582,0.382986,-0.633770,-0.361418,-0.566600
44088,NaN,0.807068,1.144715,0.978644,1.526174,0.400016,-9.156780,1.278430,-0.059780,-0.394995,-0.922119,0.432861,0.230469,0.008090,0.011368,0.009862,0.999978,0.006392,-0.000299,-0.001975,0.386276,-0.630171,-0.367464,-0.564487
44089,NaN,0.305240,0.601559,2.130844,1.469011,1.679785,-9.687016,1.293403,0.000511,-0.458238,-0.928467,0.435059,0.206787,0.003066,0.005871,0.021347,0.999976,0.006467,0.000003,-0.002291,0.389045,-0.626810,-0.372553,-0.562990
44090,NaN,0.252745,0.205207,2.524979,1.237319,2.223533,-9.733001,1.301943,0.024286,-0.538061,-0.928223,0.428711,0.215332,0.002536,0.001881,0.025262,0.999975,0.006510,0.000121,-0.002690,0.392157,-0.622548,-0.378914,-0.561312
44091,NaN,0.338090,0.030103,2.237697,0.940498,2.049144,-9.615471,1.270539,0.063198,-0.587699,-0.936768,0.426758,0.198242,0.003389,0.000149,0.022377,0.999975,0.006353,0.000316,-0.002938,0.394567,-0.618745,-0.384181,-0.560246
44092,NaN,0.389138,0.120223,1.798668,0.827987,1.624964,-9.538880,1.188817,0.133864,-0.645536,-0.932373,0.422363,0.200439,0.003907,0.001083,0.017991,0.999977,0.005944,0.000669,-0.003228,0.397015,-0.614227,-0.390034,-0.559444
44093,NaN,0.381342,0.064783,1.442504,0.622571,1.325395,-9.519194,1.110614,0.110250,-0.678448,-0.936768,0.424561,0.181152,0.003823,0.000555,0.014426,0.999979,0.005553,0.000551,-0.003392,0.398730,-0.610372,-0.395002,-0.558957
44094,NaN,0.703364,-0.075662,0.716548,0.228653,0.721282,-9.148349,0.961194,0.075089,-0.672980,-0.932129,0.416016,0.187744,0.007034,-0.000815,0.007159,0.999983,0.004806,0.000375,-0.003365,0.400759,-0.605995,-0.400868,-0.558092
44095,NaN,0.988911,-0.325455,0.255575,-0.162390,0.392886,-8.828590,0.813794,0.048978,-0.632881,-0.940674,0.416016,0.168457,0.009879,-0.003296,0.002540,0.999987,0.004069,0.000245,-0.003164,0.401547,-0.602946,-0.404958,-0.557876
44096,NaN,1.172339,-0.095768,0.222151,0.039342,0.289780,-8.651922,0.700918,0.056438,-0.589997,-0.938477,0.416016,0.179199,0.011721,-0.001000,0.002215,0.999989,0.003505,0.000282,-0.002950,0.403210,-0.599083,-0.410080,-0.557096
44097,NaN,0.891001,0.353812,0.280570,0.462968,0.183138,-8.946718,0.533496,0.068502,-0.511781,-0.942383,0.407471,0.162109,0.008920,0.003508,0.002812,0.999993,0.002667,0.000343,-0.002559,0.403515,-0.596757,-0.412963,-0.557241
44098,NaN,0.941747,0.645830,0.204675,0.709782,0.022874,-8.895322,0.295543,0.063835,-0.418156,-0.938232,0.407471,0.183594,0.009432,0.006436,0.002053,0.999997,0.001478,0.000319,-0.002091,0.404466,-0.594005,-0.416396,-0.556938
44099,NaN,1.147627,1.671606,1.560089,2.122302,0.979831,-8.772998,0.097614,0.142112,-0.287585,-0.937988,0.405273,0.157959,0.011511,0.016692,0.015601,0.999999,0.000488,0.000711,-0.001438,0.404246,-0.592806,-0.417239,-0.557744
44100,NaN,1.265458,1.338892,1.697048,1.849925,1.225924,-8.651277,0.003702,0.171187,-0.026181,-0.933594,0.398926,0.168701,0.012671,0.013387,0.016960,1.000000,0.000019,0.000856,-0.000131,0.404884,-0.591714,-0.417657,-0.558127
44101,NaN,1.283856,1.784356,3.187780,2.755142,2.486458,-8.707761,-0.202882,0.259138,0.203392,-0.931641,0.407471,0.155762,0.012862,0.017889,0.031843,0.999998,-0.001014,0.001296,0.001017,0.405387,-0.591819,-0.415968,-0.558911
44102,NaN,2.184674,1.732977,1.922997,2.325794,1.338882,-7.745812,-0.278317,0.251388,0.488618,-0.925293,0.409424,0.170654,0.021828,0.017410,0.019178,0.999995,-0.001392,0.001257,0.002443,0.407240,-0.591784,-0.414351,-0.558803
44104,NaN,1.965172,0.415391,0.649078,1.363519,1.065518,-5.961990,-0.539650,0.343919,0.827001,-0.908447,0.422363,0.164062,0.039277,0.008702,0.012800,0.999945,-0.005396,0.003439,0.008270,0.410066,-0.595448,-0.405023,-0.559682
44105,NaN,-0.912497,-34.507535,-15.385848,-37.689403,-2.505879,-8.602717,-1.941164,-0.375613,2.009042,-0.900879,0.445801,0.172363,-0.005363,-0.346614,-0.150512,0.999901,-0.009705,-0.001878,0.010045,0.408628,-0.604523,-0.394083,-0.558814
44106,NaN,31.169610,-101.235216,-30.081974,-101.864952,11.630716,30.283590,-6.021260,-1.343833,4.482393,-0.869629,0.471436,0.225830,0.336279,-1.013399,-0.268111,0.999273,-0.030099,-0.006718,0.022407,0.400005,-0.628961,-0.366181,-0.557059
44107,NaN,61.749308,-34.542043,-6.990693,-26.587480,9.387877,55.454044,-2.633438,-1.015073,1.003758,-0.871826,0.477783,0.223633,0.619548,-0.343168,-0.062237,0.999888,-0.013167,-0.005075,0.005019,0.392948,-0.639544,-0.356924,-0.556040
44108,NaN,-0.018410,84.741082,5.599157,78.108879,-31.454188,-20.816418,1.321145,-1.629595,3.665661,-0.843018,0.507812,0.255371,-0.016195,0.846818,0.061499,0.999777,0.006605,-0.008147,0.018327,0.404363,-0.647873,-0.352003,-0.541152
44109,NaN,9.649915,30.193931,0.126188,28.566674,-12.910912,-5.130025,-3.015568,-1.620800,3.251216,-0.820068,0.531250,0.265869,0.091585,0.303436,-0.002551,0.999721,-0.015076,-0.008103,0.016255,0.401042,-0.663920,-0.336906,-0.533733
44110,NaN,41.086477,-3.457809,-9.028289,2.251936,-5.688251,31.947038,-1.402929,-1.872617,4.071538,-0.789062,0.559082,0.304199,0.412283,-0.026808,-0.086221,0.999724,-0.007014,-0.009362,0.020356,0.403980,-0.678400,-0.323315,-0.521575
44111,NaN,30.577737,4.383382,-1.259709,11.196064,-2.645638,18.881881,-0.827433,-1.176492,2.803494,-0.776611,0.576172,0.297607,0.305191,0.048067,-0.010994,0.999876,-0.004137,-0.005882,0.014017,0.406846,-0.687564,-0.314589,-0.512607
44112,NaN,7.266372,-13.659919,13.592609,-3.274710,18.584942,-1.565777,-1.608661,-1.021118,1.627162,-0.766113,0.578125,0.336182,0.073067,-0.134905,0.137388,0.999922,-0.008043,-0.005105,0.008136,0.403845,-0.695955,-0.306929,-0.508282
44113,NaN,5.083478,-16.202006,5.550949,-9.476895,12.834427,-1.773796,-0.349719,-1.490961,0.788418,-0.751221,0.588867,0.327393,0.051056,-0.161721,0.056173,0.999963,-0.001749,-0.007455,0.003942,0.402615,-0.701512,-0.306788,-0.501661
44114,NaN,5.360141,-11.796149,-0.204873,-8.208543,5.775971,-1.616543,-0.941195,-0.989270,0.913003,-0.738281,0.582275,0.355469,0.054147,-0.117722,-0.001227,0.999966,-0.004706,-0.004946,0.004565,0.400069,-0.707261,-0.303211,-0.497785
44115,NaN,9.871101,-0.087173,-2.369998,2.040847,-1.678806,-0.010700,-2.228071,-0.859232,0.807071,-0.736328,0.588623,0.366211,0.098815,-0.000734,-0.023267,0.999921,-0.011140,-0.004296,0.004035,0.393422,-0.714864,-0.296954,-0.495992
44116,NaN,13.511476,-1.846964,-9.981838,-1.790847,-6.997392,5.465703,-2.652427,-1.123390,0.341482,-0.725098,0.569336,0.405029,0.135704,-0.019553,-0.098803,0.999895,-0.013262,-0.005617,0.001707,0.383075,-0.723295,-0.291339,-0.495196
44117,NaN,26.733252,-3.329642,-13.668378,-0.240303,-8.385367,19.207759,-1.765418,-1.338574,0.355521,-0.723145,0.575684,0.405029,0.268298,-0.034014,-0.134592,0.999937,-0.008827,-0.006693,0.001778,0.375335,-0.730771,-0.287715,-0.492257
44118,NaN,36.274680,-6.996267,-6.461865,3.985112,0.208340,27.478377,0.280560,0.332982,0.698512,-0.716553,0.573486,0.405029,0.362880,-0.068604,-0.065320,0.999992,0.001403,0.001665,0.003493,0.378552,-0.730421,-0.285231,-0.491760
44119,NaN,18.976606,-4.347864,4.233317,5.312520,6.678344,8.190264,0.543545,1.363925,-0.160664,-0.727539,0.582275,0.379150,0.190013,-0.043744,0.040919,0.999973,0.002718,0.006820,-0.000803,0.382743,-0.725511,-0.285486,-0.495620
44120,NaN,6.994470,-4.671343,2.959006,0.182081,5.243746,-2.603703,0.220873,0.623567,0.080992,-0.720947,0.575684,0.398682,0.070055,-0.046718,0.029320,0.999994,0.001104,0.003118,0.000405,0.384629,-0.723652,-0.284549,-0.497414
44121,NaN,6.193693,-6.285423,-1.886148,-3.820027,1.994545,-1.884567,-0.025704,0.235321,-0.066911,-0.736328,0.584473,0.374756,0.061894,-0.062877,-0.018926,0.999999,-0.000129,0.001177,-0.000335,0.385107,-0.722870,-0.284699,-0.498095
44122,NaN,8.078204,-5.458196,-2.638535,-2.922794,0.954115,-0.191985,0.050213,0.381849,-0.275855,-0.733643,0.571533,0.389893,0.080656,-0.054687,-0.026553,0.999997,0.000251,0.001909,-0.001379,0.385140,-0.721424,-0.285089,-0.499938
44123,NaN,9.539120,-4.692680,-2.540510,-1.826538,0.641569,0.944724,0.160276,0.403851,-0.554142,-0.744629,0.578125,0.368408,0.095209,-0.047170,-0.025635,0.999994,0.000801,0.002019,-0.002771,0.385328,-0.719170,-0.287090,-0.501892
44124,NaN,8.978101,-4.315915,-1.450966,-1.248332,1.334645,0.086728,0.123781,0.434969,-0.790167,-0.739990,0.567383,0.375000,0.089578,-0.043504,-0.014731,0.999990,0.000619,0.002175,-0.003951,0.384407,-0.716695,-0.289406,-0.504800
44125,NaN,8.533914,-5.210714,-2.099219,-2.527168,1.257662,0.006514,0.189128,0.366090,-0.957987,-0.752441,0.558838,0.364258,0.085050,-0.052495,-0.021198,0.999986,0.000946,0.001830,-0.004790,0.383223,-0.714120,-0.292356,-0.507642
44126,NaN,8.786981,-5.821916,-2.035032,-3.023937,1.649468,0.354940,0.340790,0.416296,-1.162162,-0.760742,0.545898,0.368896,0.087487,-0.058693,-0.020632,0.999979,0.001704,0.002081,-0.005811,0.382088,-0.710694,-0.296571,-0.510852
44127,NaN,8.919283,-5.533118,-1.678125,-2.708585,1.800453,0.306845,0.555551,0.431858,-1.401263,-0.777832,0.545898,0.345215,0.088766,-0.055907,-0.017128,0.999969,0.002778,0.002159,-0.007006,0.381244,-0.706491,-0.302043,-0.514095
44128,NaN,8.839941,-4.974985,-1.852385,-2.520505,1.355466,0.093559,0.717488,0.435195,-1.578596,-0.775146,0.528809,0.358398,0.087963,-0.050378,-0.018896,0.999960,0.003587,0.002176,-0.007893,0.380359,-0.701589,-0.308626,-0.517542
44129,NaN,9.037772,-4.445225,-1.913067,-2.223174,1.034307,0.141517,0.863014,0.440641,-1.708255,-0.792236,0.531006,0.330322,0.089951,-0.045138,-0.019523,0.999952,0.004315,0.002203,-0.008541,0.379722,-0.696257,-0.315751,-0.520902
44130,NaN,9.089496,-3.462662,-1.872576,-1.545511,0.574733,-0.045707,0.953869,0.402428,-1.838125,-0.800049,0.507568,0.339111,0.090534,-0.035369,-0.019076,0.999944,0.004769,0.002012,-0.009190,0.378866,-0.690453,-0.323857,-0.524263
44131,NaN,9.564739,-2.553796,-1.949681,-0.870928,0.088939,0.239094,1.012763,0.383199,-1.846088,-0.810791,0.507568,0.313477,0.095369,-0.026319,-0.019812,0.999943,0.005064,0.001916,-0.009230,0.378197,-0.684669,-0.331801,-0.527355
44132,NaN,9.649544,-2.009705,-1.776924,-0.481894,-0.002411,0.191074,1.013838,0.407438,-1.853024,-0.823242,0.492432,0.328613,0.096268,-0.020899,-0.018070,0.999942,0.005069,0.002037,-0.009265,0.377432,-0.678560,-0.340032,-0.530546
44133,NaN,9.568618,-1.368336,-1.669868,-0.062490,-0.202129,-0.005953,0.961552,0.444282,-1.827515,-0.840088,0.486328,0.294189,0.095519,-0.014476,-0.016979,0.999944,0.004808,0.002221,-0.009137,0.376678,-0.672605,-0.347610,-0.533746
44134,NaN,9.032454,-0.921068,-1.597374,0.095063,-0.363651,-0.601725,0.841114,0.519098,-1.769683,-0.843750,0.464844,0.309570,0.090197,-0.009941,-0.016249,0.999949,0.004205,0.002595,-0.008848,0.375664,-0.666521,-0.354814,-0.537339
44135,NaN,8.351067,-0.287708,-1.642113,0.370083,-0.729675,-1.336332,0.689622,0.547732,-1.708365,-0.852051,0.460449,0.281738,0.083437,-0.003533,-0.016661,0.999954,0.003448,0.002739,-0.008542,0.374388,-0.660875,-0.360978,-0.541085
44136,NaN,8.269347,-0.053770,-1.962488,0.285497,-1.110989,-1.391342,0.572664,0.568242,-1.635165,-0.862061,0.437012,0.290527,0.082629,-0.001157,-0.019862,0.999958,0.002863,0.002841,-0.008176,0.372864,-0.655283,-0.366855,-0.544971
44137,NaN,8.404380,0.371938,-1.753878,0.646169,-1.096952,-1.314115,0.468157,0.579825,-1.560188,-0.872559,0.430664,0.271484,0.084018,0.003105,-0.017775,0.999963,0.002341,0.002899,-0.007801,0.371267,-0.650110,-0.371882,-0.548836
44138,NaN,8.588730,0.836131,-1.620939,1.011409,-1.158450,-1.168238,0.384702,0.554273,-1.481126,-0.874268,0.417725,0.282227,0.085901,0.007757,-0.016432,0.999967,0.001923,0.002771,-0.007406,0.369469,-0.645096,-0.376714,-0.552658
44139,NaN,9.009393,1.089147,-1.388616,1.258319,-1.016417,-0.775780,0.264206,0.543662,-1.434352,-0.889160,0.415771,0.260742,0.090131,0.010264,-0.014117,0.999970,0.001321,0.002718,-0.007172,0.367539,-0.640475,-0.380986,-0.556378
44140,NaN,9.350170,0.629303,-1.208722,0.821961,-0.613073,-0.419620,0.147059,0.526524,-1.359189,-0.892822,0.394287,0.269775,0.093509,0.005667,-0.012329,0.999973,0.000735,0.002633,-0.006796,0.365219,-0.636130,-0.384773,-0.560271
44141,NaN,9.789565,0.216093,-1.173872,0.368780,-0.356316,0.035954,0.095979,0.525116,-1.314368,-0.905273,0.383545,0.248291,0.097876,0.001523,-0.011995,0.999975,0.000480,0.002626,-0.006572,0.362971,-0.632061,-0.388133,-0.564008
44142,NaN,9.682226,0.648082,-1.119304,0.640165,-0.495452,-0.078129,0.033191,0.523138,-1.261034,-0.902832,0.370605,0.259277,0.096831,0.005872,-0.011445,0.999977,0.000166,0.002616,-0.006305,0.360524,-0.628059,-0.391256,-0.567876
44143,NaN,9.426233,0.461207,-1.187555,0.307971,-0.491668,-0.318526,0.005007,0.519531,-1.160187,-0.913330,0.366455,0.235596,0.094256,0.004066,-0.012120,0.999980,0.000025,0.002598,-0.005801,0.358380,-0.624365,-0.393914,-0.571458
44144,NaN,9.327572,0.887069,-1.386178,0.487440,-0.860003,-0.392828,0.028806,0.505107,-1.078349,-0.915039,0.353516,0.246582,0.093286,0.008370,-0.014096,0.999982,0.000144,0.002526,-0.005392,0.356375,-0.620731,-0.396453,-0.574904
44145,NaN,9.797842,1.446378,-1.256180,0.953759,-0.946757,0.079770,0.044145,0.487815,-1.000653,-0.921143,0.347168,0.233887,0.098018,0.013976,-0.012798,0.999984,0.000221,0.002439,-0.005003,0.354596,-0.617431,-0.398571,-0.578085
44146,NaN,9.929453,1.322939,-0.767707,0.950021,-0.444346,0.178946,0.003581,0.461721,-0.911566,-0.920898,0.336426,0.242432,0.099335,0.012777,-0.007906,0.999987,0.000018,0.002309,-0.004558,0.352886,-0.614262,-0.400574,-0.581115
44147,NaN,10.003966,1.017749,-0.538874,0.679981,-0.103348,0.233791,-0.039680,0.436811,-0.832251,-0.931396,0.330078,0.218994,0.100069,0.009760,-0.005609,0.999989,-0.000198,0.002184,-0.004161,0.351379,-0.611455,-0.402257,-0.583819
44148,NaN,10.078290,1.094592,-0.453166,0.694559,-0.056780,0.311004,-0.068414,0.408421,-0.766083,-0.933105,0.321533,0.229736,0.100814,0.010558,-0.004741,0.999991,-0.000342,0.002042,-0.003830,0.349749,-0.608833,-0.403680,-0.586549
44149,NaN,9.943409,1.279613,-0.429216,0.793640,-0.130838,0.189589,-0.058932,0.367886,-0.683726,-0.939453,0.319580,0.208496,0.099469,0.012455,-0.004479,0.999992,-0.000295,0.001839,-0.003419,0.348289,-0.606616,-0.404745,-0.588976
44150,NaN,9.829527,1.447773,-0.013182,1.054579,0.158877,0.065473,-0.041467,0.319098,-0.610087,-0.935059,0.312988,0.227783,0.098338,0.014178,-0.000292,0.999994,-0.000207,0.001595,-0.003050,0.347008,-0.604507,-0.405918,-0.591090
44151,NaN,10.013101,1.597518,0.321851,1.269128,0.407738,0.244182,-0.036964,0.252836,-0.534529,-0.943359,0.308838,0.210693,0.100177,0.015708,0.003089,0.999996,-0.000185,0.001264,-0.002673,0.345785,-0.602920,-0.406730,-0.592867
44152,NaN,9.863567,1.002733,0.566281,0.789865,0.872963,0.047837,-0.051744,0.188106,-0.466392,-0.941162,0.300049,0.228027,0.098664,0.009799,0.005567,0.999997,-0.000259,0.000941,-0.002332,0.344626,-0.601498,-0.407658,-0.594347
44153,NaN,9.609004,0.484460,0.478075,0.253329,1.001410,-0.235157,-0.045954,0.103139,-0.405109,-0.940918,0.300049,0.210938,0.096102,0.004651,0.004730,0.999998,-0.000230,0.000516,-0.002026,0.343616,-0.600498,-0.408565,-0.595319
44154,NaN,9.767706,0.308517,0.201757,-0.068328,0.851473,-0.075430,0.039389,0.038839,-0.363545,-0.942871,0.289551,0.219482,0.097683,0.002907,0.001999,0.999998,0.000197,0.000194,-0.001818,0.342729,-0.599568,-0.409709,-0.595982
44155,NaN,9.973368,1.000611,0.079747,0.461752,0.474635,0.189165,0.107647,0.015085,-0.351615,-0.945068,0.293701,0.208740,0.099751,0.009830,0.000795,0.999998,0.000538,0.000075,-0.001758,0.342113,-0.598678,-0.411007,-0.596336
44156,NaN,10.129018,1.298258,-0.451609,0.462307,-0.102953,0.398190,0.137927,0.004047,-0.310325,-0.942871,0.287354,0.223877,0.101310,0.012829,-0.004509,0.999999,0.000690,0.000020,-0.001552,0.341607,-0.597788,-0.412341,-0.596597
44157,NaN,9.924386,1.092228,-0.913181,0.067461,-0.435153,0.203617,0.130506,-0.004305,-0.245812,-0.951416,0.287354,0.208740,0.099257,0.010806,-0.009123,0.999999,0.000653,-0.000022,-0.001229,0.341372,-0.597124,-0.413459,-0.596624
44158,NaN,9.868957,1.117558,-1.034306,0.022111,-0.549800,0.157881,0.140691,0.017254,-0.211569,-0.945068,0.291504,0.225830,0.098700,0.011078,-0.010344,0.999999,0.000703,0.000086,-0.001058,0.341195,-0.596392,-0.414482,-0.596747
44159,NaN,9.901059,1.008512,-1.012214,-0.082239,-0.474221,0.179358,0.123974,0.038973,-0.192570,-0.951172,0.282959,0.208984,0.099018,0.009996,-0.010135,0.999999,0.000620,0.000195,-0.000963,0.341224,-0.595720,-0.415368,-0.596785
44160,NaN,9.795938,1.130878,-1.078813,-0.011183,-0.591224,0.089506,0.104493,0.059833,-0.173425,-0.940674,0.287354,0.217529,0.097966,0.011229,-0.010812,0.999999,0.000522,0.000299,-0.000867,0.341141,-0.595001,-0.416096,-0.597044
44161,NaN,9.672202,0.850208,-1.250113,-0.343561,-0.637574,-0.049871,0.099820,0.077709,-0.168846,-0.953125,0.281006,0.204590,0.096724,0.008427,-0.012534,0.999999,0.000499,0.000389,-0.000844,0.341183,-0.594329,-0.416702,-0.597266
