// Start Time: Unknown
// Update Rate: 100.0Hz
// Filter Profile: human (46.1)
// Firmware Version: 4.4.0
PacketCounter,SampleTimeFine,Acc_X,Acc_Y,Acc_Z,FreeAcc_X,FreeAcc_Y,FreeAcc_Z,Gyr_X,Gyr_Y,Gyr_Z,Mag_X,Mag_Y,Mag_Z,VelInc_X,VelInc_Y,VelInc_Z,OriInc_q0,OriInc_q1,OriInc_q2,OriInc_q3,Quat_q0,Quat_q1,Quat_q2,Quat_q3
05448,NaN,9.750163,1.064080,-0.667584,-0.000000,-0.000000,0.018059,-0.116836,0.113904,0.212664,-1.041260,-0.189453,-0.157471,0.097486,0.010741,-0.006738,0.999999,-0.000584,0.000570,0.001063,0.679571,0.146328,-0.716140,0.062576
05449,NaN,9.769183,1.036716,-0.685028,-0.004239,-0.081636,0.034863,-0.134275,0.113167,0.225063,-1.054199,-0.189453,-0.178955,0.097676,0.010472,-0.006913,0.999999,-0.000671,0.000566,0.001125,0.679425,0.136748,-0.719061,0.051312
05450,NaN,9.842184,1.012955,-0.515066,-0.158427,-0.133418,0.092716,-0.129684,0.107318,0.234543,-1.037109,-0.183105,-0.157471,0.098407,0.010242,-0.005210,0.999999,-0.000648,0.000537,0.001173,0.679838,0.135437,-0.718890,0.051715
05451,NaN,9.844907,0.866216,-0.475154,-0.152981,-0.259143,0.077090,-0.126855,0.102885,0.247522,-1.054199,-0.187256,-0.181152,0.098436,0.008781,-0.004808,0.999999,-0.000634,0.000514,0.001238,0.680229,0.134087,-0.718740,0.052172
05452,NaN,9.667339,0.846707,-0.361925,-0.245698,-0.259100,-0.108164,-0.105650,0.103616,0.256706,-1.045898,-0.180908,-0.164062,0.096661,0.008589,-0.003674,0.999999,-0.000528,0.000518,0.001284,0.680605,0.132778,-0.718586,0.052735
05453,NaN,9.895056,0.888661,-0.366128,-0.257871,-0.217165,0.123216,-0.080934,0.093106,0.274524,-1.056396,-0.185059,-0.187500,0.098937,0.009021,-0.003711,0.999999,-0.000405,0.000466,0.001373,0.680925,0.131487,-0.718468,0.053444
05454,NaN,10.011494,0.998724,-0.466822,-0.191344,-0.069809,0.257260,-0.093909,0.094052,0.288439,-1.043945,-0.176758,-0.157471,0.100098,0.010129,-0.004720,0.999999,-0.000470,0.000470,0.001442,0.681246,0.130106,-0.718362,0.054150
05455,NaN,10.016836,1.223964,-0.713972,-0.008324,0.240958,0.300997,-0.132325,0.104326,0.317705,-1.054199,-0.183105,-0.183350,0.100145,0.012394,-0.007200,0.999998,-0.000662,0.000522,0.001589,0.681632,0.128478,-0.718237,0.054832
05456,NaN,10.132095,1.366680,-0.962336,0.194587,0.464198,0.444008,-0.153287,0.124682,0.360828,-1.043945,-0.170166,-0.161865,0.101290,0.013842,-0.009697,0.999998,-0.000766,0.000623,0.001804,0.682078,0.126626,-0.718085,0.055591
05457,NaN,10.225462,1.402539,-0.996596,0.221278,0.538520,0.540151,-0.155392,0.152527,0.413332,-1.061279,-0.170166,-0.187744,0.102218,0.014229,-0.010055,0.999997,-0.000777,0.000763,0.002067,0.682612,0.124576,-0.717862,0.056532
05458,NaN,10.220638,1.442391,-0.923449,0.148490,0.607519,0.531554,-0.133427,0.191619,0.483271,-1.046631,-0.157471,-0.166504,0.102162,0.014665,-0.009342,0.999996,-0.000667,0.000958,0.002416,0.683244,0.122331,-0.717544,0.057822
05459,NaN,9.764178,1.292467,0.013947,-0.693134,0.327186,0.006786,-0.056790,0.243564,0.548952,-1.059326,-0.159424,-0.192139,0.097606,0.013193,0.000017,0.999995,-0.000284,0.001218,0.002745,0.683980,0.120132,-0.717068,0.059605
05460,NaN,9.492061,0.279366,-0.186209,-0.223818,-0.515591,-0.331353,-0.034835,0.237743,0.591514,-1.046875,-0.150879,-0.173096,0.094909,0.003074,-0.001975,0.999995,-0.000174,0.001189,0.002958,0.684673,0.117821,-0.716617,0.061646
05461,NaN,9.905044,0.642324,-0.703956,0.179643,-0.007421,0.136448,-0.015997,0.262297,0.650445,-1.066162,-0.148682,-0.192383,0.099020,0.006745,-0.007170,0.999994,-0.000080,0.001311,0.003252,0.685439,0.115385,-0.716081,0.063934
05462,NaN,10.096458,1.461480,-1.357571,0.607674,1.005266,0.411648,-0.031695,0.282267,0.721873,-1.047363,-0.137939,-0.171143,0.100892,0.014977,-0.013720,0.999992,-0.000158,0.001411,0.003609,0.686232,0.112601,-0.715535,0.066457
05463,NaN,10.015034,1.515934,-1.354598,0.601760,1.141917,0.324729,0.083178,0.276096,0.775745,-1.070557,-0.144287,-0.203125,0.100072,0.015553,-0.013678,0.999991,0.000416,0.001380,0.003879,0.686894,0.110082,-0.715001,0.069505
05464,NaN,9.638962,-0.014785,0.181276,-0.478673,-0.616252,-0.203670,0.247809,0.262115,0.804862,-1.052002,-0.125244,-0.177734,0.096391,0.000238,0.001687,0.999990,0.001239,0.001311,0.004024,0.687409,0.107963,-0.714451,0.073299
05465,NaN,9.353235,-0.647082,0.780961,-0.885083,-1.286758,-0.535188,0.233740,0.212377,0.818190,-1.073242,-0.129395,-0.203369,0.093566,-0.006097,0.007703,0.999990,0.001169,0.001062,0.004091,0.687713,0.105848,-0.714089,0.076975
05466,NaN,9.615174,-0.061829,0.506525,-0.779586,-0.585258,-0.233482,0.199738,0.181079,0.811633,-1.061035,-0.110107,-0.177979,0.096158,-0.000233,0.004978,0.999991,0.000999,0.000905,0.004058,0.687935,0.103566,-0.713812,0.080574
05467,NaN,9.364848,0.462823,0.462298,-0.866523,0.018081,-0.465139,0.198119,0.166975,0.777418,-1.076172,-0.107910,-0.201660,0.093633,0.004988,0.004550,0.999992,0.000991,0.000835,0.003887,0.688176,0.101411,-0.713490,0.084033
05468,NaN,8.892026,0.072277,0.242410,-0.542907,-0.217128,-0.936324,0.156541,0.130667,0.769598,-1.061279,-0.103760,-0.184570,0.088918,0.001063,0.002367,0.999992,0.000783,0.000653,0.003848,0.688234,0.099148,-0.713359,0.087305
05469,NaN,8.594209,-0.625030,0.148333,-0.264904,-0.793219,-1.235195,0.043176,0.080411,0.735589,-1.074463,-0.097168,-0.203857,0.085965,-0.005934,0.001447,0.999993,0.000216,0.000402,0.003678,0.688308,0.096644,-0.713294,0.090023
05470,NaN,8.746167,-1.543294,-0.017525,0.117856,-1.578815,-1.073656,-0.051166,0.013071,0.664039,-1.059570,-0.090820,-0.180420,0.087512,-0.015142,-0.000177,0.999994,-0.000256,0.000065,0.003320,0.688077,0.094093,-0.713589,0.092131
05471,NaN,9.760425,-1.706264,-0.075099,0.167224,-1.668126,-0.046831,-0.118768,0.002473,0.619959,-1.076904,-0.088623,-0.199707,0.097657,-0.016760,-0.000742,0.999995,-0.000594,0.000012,0.003100,0.688005,0.091359,-0.713775,0.093958
05472,NaN,9.919702,-0.611890,0.650862,-0.837181,-0.742096,0.084112,-0.101325,0.064672,0.585971,-1.062500,-0.073730,-0.180664,0.099216,-0.005825,0.006480,0.999996,-0.000507,0.000323,0.002930,0.688004,0.088889,-0.713865,0.095641
05473,NaN,10.207488,0.099344,0.541765,-0.932697,0.040931,0.366914,-0.040404,0.037317,0.594732,-1.077148,-0.077881,-0.204346,0.102072,0.001298,0.005398,0.999996,-0.000202,0.000187,0.002974,0.688064,0.086382,-0.713822,0.097798
05474,NaN,10.937568,0.547613,-0.537691,-0.049114,0.824527,1.120598,-0.085630,-0.007561,0.638089,-1.073486,-0.067383,-0.178711,0.109358,0.005823,-0.005375,0.999995,-0.000428,-0.000038,0.003190,0.687759,0.083813,-0.714161,0.099684
05475,NaN,10.247667,0.736809,-0.486154,-0.132065,1.055440,0.417761,-0.017164,-0.005027,0.696476,-1.084229,-0.062988,-0.202393,0.102450,0.007724,-0.004860,0.999994,-0.000086,-0.000025,0.003482,0.687633,0.081109,-0.714241,0.102188
05476,NaN,10.355422,0.011675,-0.147586,-0.297545,0.342210,0.533835,0.081751,-0.015715,0.751397,-1.065430,-0.048096,-0.174561,0.103553,0.000506,-0.001468,0.999993,0.000409,-0.000079,0.003757,0.687154,0.078714,-0.714553,0.105056
05477,NaN,9.293428,0.029373,0.043402,-0.454908,0.351402,-0.536929,-0.019570,-0.001197,0.784434,-1.084961,-0.045654,-0.200439,0.092932,0.000658,0.000435,0.999992,-0.000098,-0.000006,0.003922,0.686977,0.075778,-0.714638,0.107762
05478,NaN,9.497927,-0.492213,-0.398966,0.074053,0.041039,-0.294053,-0.080866,-0.073957,0.799474,-1.068115,-0.032959,-0.174805,0.094999,-0.004544,-0.003953,0.999992,-0.000404,-0.000370,0.003997,0.686307,0.072683,-0.715233,0.110190
05479,NaN,9.286125,-0.313854,-0.699562,0.309408,0.353800,-0.506849,-0.221167,-0.050414,0.826431,-1.083252,-0.030762,-0.194336,0.092875,-0.002762,-0.006969,0.999991,-0.001106,-0.000252,0.004132,0.685988,0.068960,-0.715584,0.112268
05480,NaN,9.384909,-1.108394,-0.072485,-0.126032,-0.495878,-0.376161,0.033090,-0.077980,0.813204,-1.077393,-0.015869,-0.166504,0.093893,-0.010702,-0.000690,0.999992,0.000165,-0.000390,0.004066,0.685235,0.066207,-0.716108,0.115148
05481,NaN,10.262775,-1.318254,0.347183,-0.546801,-0.672021,0.503885,-0.129474,-0.073133,0.816730,-1.090088,-0.017822,-0.190186,0.102679,-0.012761,0.003518,0.999991,-0.000647,-0.000366,0.004084,0.684757,0.062839,-0.716484,0.117517
05482,NaN,9.177910,-1.071675,0.116159,-0.355325,-0.378576,-0.586312,-0.195569,-0.073379,0.782446,-1.079834,-0.005127,-0.160400,0.091820,-0.010356,0.001206,0.999992,-0.000978,-0.000367,0.003912,0.684090,0.059409,-0.717090,0.119472
05483,NaN,10.110384,-1.599558,-0.553406,0.347250,-0.572020,0.416506,-0.225587,-0.102687,0.769511,-1.086182,-0.005127,-0.190430,0.101167,-0.015613,-0.005464,0.999992,-0.001128,-0.000513,0.003848,0.683585,0.055850,-0.717537,0.121381
05484,NaN,9.687760,-0.971729,-1.111530,0.728213,0.206264,-0.042366,-0.284562,-0.055688,0.766328,-1.078369,0.014160,-0.162842,0.096917,-0.009362,-0.011075,0.999992,-0.001423,-0.000278,0.003832,0.682994,0.052161,-0.718108,0.122962
05485,NaN,9.644144,-1.429106,-1.027478,0.739913,-0.187764,-0.039029,-0.163949,-0.047079,0.760275,-1.091309,0.018555,-0.186523,0.096497,-0.013933,-0.010241,0.999992,-0.000820,-0.000235,0.003801,0.682571,0.048787,-0.718378,0.125095
05486,NaN,9.286604,-1.305588,-0.808427,0.498478,-0.090852,-0.413645,-0.220018,0.003171,0.764708,-1.078857,0.029053,-0.165039,0.092915,-0.012710,-0.008072,0.999992,-0.001100,0.000016,0.003824,0.682153,0.045287,-0.718686,0.126914
05487,NaN,9.186398,-1.111536,-0.520783,0.163465,0.085501,-0.546500,-0.179922,0.010671,0.744483,-1.096191,0.029297,-0.184570,0.091904,-0.010778,-0.005203,0.999993,-0.000900,0.000053,0.003722,0.681843,0.041858,-0.718824,0.128960
05488,NaN,9.885851,-1.940897,-0.494247,0.267560,-0.570982,0.254256,-0.264606,0.018125,0.740653,-1.083740,0.041992,-0.161133,0.098929,-0.019049,-0.004926,0.999992,-0.001323,0.000091,0.003703,0.681480,0.038281,-0.719082,0.130537
05489,NaN,9.775516,-1.740811,-0.555217,0.270420,-0.303955,0.123785,-0.246701,0.050171,0.706453,-1.094482,0.041992,-0.180420,0.097814,-0.017070,-0.005556,0.999993,-0.001234,0.000251,0.003532,0.681297,0.034713,-0.719127,0.132237
05490,NaN,10.451956,-2.202221,-0.399774,0.163932,-0.629180,0.856419,-0.180293,0.065233,0.663532,-1.079834,0.056885,-0.156982,0.104591,-0.021679,-0.004012,0.999994,-0.000901,0.000326,0.003318,0.681120,0.031670,-0.719134,0.133859
05491,NaN,9.723999,-1.663472,-0.653330,0.327827,-0.080522,0.068399,-0.207302,0.097969,0.623911,-1.099121,0.052734,-0.182617,0.097288,-0.016338,-0.006564,0.999994,-0.001037,0.000490,0.003120,0.681109,0.028455,-0.718978,0.135467
05492,NaN,9.264795,-1.710800,-0.508833,0.223593,-0.168183,-0.381694,-0.148801,0.108149,0.593144,-1.086914,0.069824,-0.165771,0.092695,-0.016837,-0.005126,0.999995,-0.000744,0.000541,0.002966,0.681114,0.025743,-0.718792,0.136967
05493,NaN,9.610972,-2.428142,-0.641000,0.481316,-0.714109,0.083557,-0.193551,0.115510,0.574811,-1.095215,0.063477,-0.189209,0.096175,-0.024011,-0.006442,0.999995,-0.000968,0.000578,0.002874,0.681147,0.022736,-0.718577,0.138454
05494,NaN,9.157480,-2.331230,-0.539743,0.387687,-0.662740,-0.378936,-0.207427,0.122692,0.533217,-1.084961,0.078369,-0.165771,0.091633,-0.023074,-0.005430,0.999996,-0.001037,0.000613,0.002666,0.681239,0.020029,-0.718360,0.139538
05495,NaN,10.051879,-2.824762,-0.033932,-0.066091,-1.048826,0.575579,-0.180536,0.140171,0.500949,-1.100098,0.080811,-0.189697,0.100589,-0.027996,-0.000384,0.999996,-0.000903,0.000701,0.002505,0.681349,0.017247,-0.718065,0.140883
05496,NaN,9.552878,-2.194311,-0.175074,-0.030870,-0.446116,-0.019681,-0.210399,0.170107,0.457018,-1.089600,0.084961,-0.168213,0.095577,-0.021727,-0.001809,0.999996,-0.001052,0.000851,0.002285,0.681654,0.014770,-0.717671,0.141698
05497,NaN,9.619564,-2.258846,-0.258639,0.060462,-0.423846,0.062627,-0.149782,0.170215,0.432548,-1.097900,0.084961,-0.193848,0.096242,-0.022382,-0.002651,0.999997,-0.000749,0.000851,0.002163,0.681919,0.012262,-0.717212,0.142979
05498,NaN,9.839194,-2.743445,-0.643207,0.526568,-0.721140,0.383022,-0.137103,0.172484,0.405267,-1.085449,0.095703,-0.166260,0.098442,-0.027239,-0.006498,0.999997,-0.000686,0.000862,0.002026,0.682254,0.010218,-0.716745,0.143880
05499,NaN,9.557924,-2.634814,-0.450584,0.338247,-0.660032,0.084232,-0.045131,0.170465,0.372168,-1.096191,0.091309,-0.196045,0.095624,-0.026171,-0.004581,0.999998,-0.000226,0.000852,0.001861,0.682521,0.008245,-0.716217,0.145360
05500,NaN,9.736359,-2.576962,0.311196,-0.421099,-0.700095,0.230553,0.041522,0.167440,0.348800,-1.081543,0.102051,-0.172607,0.097411,-0.025600,0.003025,0.999998,0.000208,0.000837,0.001744,0.682864,0.007016,-0.715629,0.146706
05501,NaN,9.561951,-2.087454,0.667691,-0.853097,-0.296529,-0.044454,0.068195,0.148852,0.315923,-1.100830,0.104248,-0.204834,0.095657,-0.020726,0.006599,0.999998,0.000341,0.000744,0.001580,0.683096,0.005612,-0.715063,0.148436
05502,NaN,9.470537,-2.149948,0.672421,-0.831333,-0.343706,-0.119588,0.063959,0.113108,0.285551,-1.085938,0.104248,-0.174805,0.094740,-0.021366,0.006664,0.999999,0.000320,0.000566,0.001428,0.683286,0.004725,-0.714637,0.149643
05503,NaN,9.513992,-2.511365,0.361345,-0.450844,-0.572570,0.006804,0.011475,0.062897,0.268919,-1.098633,0.104248,-0.202881,0.095175,-0.024986,0.003582,0.999999,0.000057,0.000314,0.001345,0.683335,0.003382,-0.714312,0.151001
05504,NaN,9.147236,-2.342161,0.239686,-0.344965,-0.433342,-0.383570,0.000052,0.024734,0.239316,-1.088135,0.110596,-0.179199,0.091501,-0.023312,0.002386,0.999999,0.000000,0.000124,0.001197,0.683242,0.002509,-0.714231,0.151820
05505,NaN,9.387881,-2.412193,0.682924,-0.780788,-0.515988,-0.141004,-0.001242,-0.006360,0.220968,-1.098633,0.106445,-0.200684,0.093905,-0.024018,0.006832,0.999999,-0.000006,-0.000032,0.001105,0.683114,0.001342,-0.714108,0.152980
05506,NaN,9.612986,-2.435152,0.653191,-0.768925,-0.465374,0.084700,-0.055113,-0.032009,0.192289,-1.092773,0.114990,-0.175049,0.096152,-0.024257,0.006554,0.999999,-0.000276,-0.000160,0.000961,0.682853,0.000491,-0.714261,0.153440
05507,NaN,9.538170,-2.404395,0.089311,-0.226769,-0.300074,0.017078,-0.105565,-0.057527,0.166571,-1.103271,0.114990,-0.200928,0.095401,-0.023964,0.000933,0.999999,-0.000528,-0.000288,0.000833,0.682651,-0.000792,-0.714322,0.154050
05508,NaN,9.544268,-2.419359,-0.399715,0.240883,-0.192428,0.036731,-0.100908,-0.075800,0.157815,-1.084229,0.121338,-0.172852,0.095463,-0.024120,-0.003949,0.999999,-0.000505,-0.000379,0.000789,0.682258,-0.001642,-0.714657,0.154229
05509,NaN,9.537383,-2.306148,-0.193808,0.008025,-0.106945,0.000876,-0.049202,-0.075320,0.158121,-1.101318,0.117188,-0.200928,0.095393,-0.022987,-0.001896,1.000000,-0.000246,-0.000377,0.000791,0.681983,-0.002675,-0.714750,0.154996
05510,NaN,9.558410,-2.357679,-0.035883,-0.148609,-0.173588,0.029614,-0.051861,-0.084438,0.139069,-1.088623,0.121338,-0.175049,0.095601,-0.023510,-0.000312,1.000000,-0.000259,-0.000422,0.000695,0.681573,-0.003284,-0.715076,0.155286
05511,NaN,9.506133,-2.510628,0.001440,-0.158838,-0.318040,0.012963,-0.079074,-0.087305,0.117580,-1.099121,0.114990,-0.192139,0.095076,-0.025050,0.000066,1.000000,-0.000395,-0.000437,0.000588,0.681280,-0.004240,-0.715242,0.155784
05512,NaN,9.593512,-2.621009,-0.291654,0.131632,-0.332791,0.130256,-0.086199,-0.080115,0.086878,-1.093018,0.127686,-0.170898,0.095948,-0.026170,-0.002867,1.000000,-0.000431,-0.000401,0.000434,0.680924,-0.004782,-0.715580,0.155773
05513,NaN,9.490633,-2.749193,-0.567729,0.426982,-0.402475,0.066998,-0.088313,-0.068824,0.061270,-1.101318,0.119385,-0.187988,0.094917,-0.027465,-0.005632,1.000000,-0.000442,-0.000344,0.000306,0.680729,-0.005578,-0.715702,0.156039
05514,NaN,9.459892,-2.819585,-0.525598,0.393790,-0.482751,0.052795,-0.055579,-0.056583,0.033428,-1.088623,0.121338,-0.168701,0.094605,-0.028181,-0.005221,1.000000,-0.000278,-0.000283,0.000167,0.680499,-0.005843,-0.715937,0.155955
05515,NaN,9.502064,-2.832813,-0.164500,0.036594,-0.553024,0.088521,-0.027072,-0.038494,0.003949,-1.101562,0.125732,-0.188232,0.095022,-0.028326,-0.001623,1.000000,-0.000135,-0.000192,0.000020,0.680413,-0.006261,-0.715951,0.156247
05516,NaN,9.630999,-2.701077,0.067642,-0.230064,-0.450964,0.177319,-0.019839,-0.031069,-0.024104,-1.088623,0.121338,-0.166504,0.096307,-0.027022,0.000694,1.000000,-0.000099,-0.000155,-0.000121,0.680320,-0.006218,-0.716073,0.156095
05517,NaN,9.625437,-2.522910,-0.041473,-0.160149,-0.253026,0.133476,-0.033822,-0.024136,-0.049401,-1.101562,0.125732,-0.190186,0.096248,-0.025253,-0.000399,1.000000,-0.000169,-0.000121,-0.000247,0.680330,-0.006484,-0.716042,0.156186
05518,NaN,9.582827,-2.496852,-0.233541,0.023695,-0.202801,0.090731,-0.032160,-0.018601,-0.068809,-1.088867,0.125732,-0.168701,0.095820,-0.025002,-0.002322,1.000000,-0.000161,-0.000093,-0.000344,0.680316,-0.006332,-0.716132,0.155838
05519,NaN,9.606583,-2.477352,-0.290345,0.074161,-0.164472,0.110792,-0.020610,-0.021910,-0.077181,-1.110107,0.121338,-0.190186,0.096057,-0.024811,-0.002890,1.000000,-0.000103,-0.000110,-0.000386,0.680355,-0.006439,-0.716088,0.155864
05520,NaN,9.597126,-2.368720,-0.153127,-0.081752,-0.100846,0.072769,-0.012920,-0.018458,-0.081517,-1.088623,0.121338,-0.166504,0.095962,-0.023726,-0.001521,1.000000,-0.000065,-0.000092,-0.000408,0.680352,-0.006177,-0.716164,0.155541
05521,NaN,9.561304,-2.323291,0.134528,-0.368315,-0.126575,0.020045,-0.007958,-0.028926,-0.086890,-1.101318,0.119385,-0.187988,0.095603,-0.023274,0.001360,1.000000,-0.000040,-0.000145,-0.000434,0.680368,-0.006179,-0.716144,0.155556
05522,NaN,9.548260,-2.383482,0.328690,-0.546455,-0.237729,0.016003,-0.027666,-0.039976,-0.092443,-1.088623,0.119141,-0.160156,0.095471,-0.023878,0.003309,1.000000,-0.000138,-0.000200,-0.000462,0.680296,-0.005911,-0.716305,0.155144
05523,NaN,9.655977,-2.472923,0.287764,-0.497449,-0.292124,0.142374,-0.048099,-0.057544,-0.102551,-1.105469,0.114990,-0.185791,0.096546,-0.024778,0.002911,1.000000,-0.000240,-0.000288,-0.000513,0.680250,-0.005947,-0.716391,0.154945
05524,NaN,9.780560,-2.458324,0.176352,-0.405897,-0.239294,0.262619,-0.029961,-0.077456,-0.115494,-1.088379,0.116943,-0.164307,0.097791,-0.024639,0.001805,1.000000,-0.000150,-0.000387,-0.000577,0.680061,-0.005576,-0.716681,0.154447
05525,NaN,9.858213,-2.526472,0.090496,-0.317238,-0.274409,0.355874,0.007522,-0.103003,-0.133361,-1.107666,0.112793,-0.185791,0.098565,-0.025330,0.000955,1.000000,0.000038,-0.000515,-0.000667,0.679902,-0.005262,-0.716859,0.154333
05526,NaN,9.729077,-2.512142,0.137135,-0.362871,-0.314811,0.224931,0.036073,-0.116925,-0.145293,-1.083984,0.114990,-0.157959,0.097272,-0.025192,0.001424,1.000000,0.000180,-0.000585,-0.000726,0.679595,-0.004529,-0.717232,0.153972
05527,NaN,9.534542,-2.512162,0.197671,-0.410816,-0.378718,0.033393,0.053485,-0.126380,-0.159062,-1.096924,0.112793,-0.183594,0.095324,-0.025198,0.002030,0.999999,0.000267,-0.000632,-0.000795,0.679386,-0.003938,-0.717444,0.153927
05528,NaN,9.639221,-2.351911,0.303912,-0.562481,-0.244893,0.094989,0.076971,-0.138841,-0.168013,-1.090332,0.110596,-0.157715,0.096370,-0.023601,0.003097,0.999999,0.000385,-0.000694,-0.000840,0.679019,-0.002968,-0.717859,0.153636
05529,NaN,9.490808,-2.330845,0.177368,-0.436355,-0.240363,-0.050950,0.084895,-0.162670,-0.172788,-1.101074,0.112793,-0.177246,0.094886,-0.023391,0.001841,0.999999,0.000424,-0.000813,-0.000864,0.678711,-0.002182,-0.718149,0.153651
05530,NaN,9.567201,-2.484007,-0.023662,-0.224784,-0.346995,0.063102,0.094500,-0.182242,-0.191295,-1.086182,0.110596,-0.153564,0.095648,-0.024931,-0.000161,0.999999,0.000473,-0.000911,-0.000956,0.678204,-0.001034,-0.718696,0.153343
05531,NaN,9.628427,-2.746408,-0.334369,0.121150,-0.531287,0.190520,0.141456,-0.203485,-0.221646,-1.103027,0.104248,-0.172852,0.096257,-0.027568,-0.003265,0.999999,0.000707,-0.001017,-0.001108,0.677794,0.000160,-0.719074,0.153388
05532,NaN,9.867539,-2.608562,-0.320148,0.049636,-0.379705,0.391660,0.202994,-0.201690,-0.258160,-1.085693,0.099854,-0.149170,0.098645,-0.026210,-0.003129,0.999998,0.001015,-0.001008,-0.001291,0.677266,0.001930,-0.719600,0.153243
05533,NaN,9.885728,-2.473638,-0.327222,0.022242,-0.267596,0.379534,0.229766,-0.206826,-0.295645,-1.098389,0.095703,-0.170410,0.098824,-0.024879,-0.003199,0.999998,0.001149,-0.001034,-0.001478,0.676879,0.003687,-0.719933,0.153355
05534,NaN,9.812327,-2.490671,-0.502432,0.195721,-0.291834,0.317173,0.259161,-0.202653,-0.325417,-1.085693,0.095459,-0.144775,0.098088,-0.025060,-0.004957,0.999997,0.001296,-0.001013,-0.001627,0.676393,0.005890,-0.720412,0.153183
05535,NaN,9.866305,-2.379953,-0.621090,0.281007,-0.175052,0.350195,0.296078,-0.192788,-0.350490,-1.102539,0.089111,-0.168213,0.098627,-0.023963,-0.006151,0.999997,0.001480,-0.000964,-0.001752,0.676074,0.008063,-0.720657,0.153337
05536,NaN,9.729296,-2.002763,-0.640803,0.226358,0.127287,0.137858,0.307100,-0.165524,-0.352614,-1.087646,0.091309,-0.138184,0.097263,-0.020189,-0.006358,0.999997,0.001535,-0.000828,-0.001763,0.675734,0.010498,-0.720965,0.153245
05537,NaN,9.329862,-1.774766,-0.528814,0.101893,0.215106,-0.303795,0.281003,-0.154958,-0.340680,-1.104492,0.082764,-0.161865,0.093272,-0.017899,-0.005241,0.999997,0.001405,-0.000775,-0.001703,0.675514,0.012572,-0.721114,0.153355
05538,NaN,8.994760,-1.689192,-0.596870,0.175306,0.218824,-0.645537,0.249647,-0.157641,-0.320190,-1.087158,0.078369,-0.135986,0.089925,-0.017028,-0.005919,0.999998,0.001248,-0.000788,-0.001601,0.675174,0.014690,-0.721433,0.153164
05539,NaN,8.930544,-1.766118,-0.621936,0.221313,0.117433,-0.691406,0.217421,-0.154427,-0.289429,-1.099854,0.074219,-0.157227,0.089285,-0.017784,-0.006170,0.999998,0.001087,-0.000772,-0.001447,0.674901,0.016394,-0.721647,0.153181
05540,NaN,9.038032,-1.718902,-0.632718,0.207064,0.159340,-0.594626,0.162318,-0.149328,-0.255511,-1.084961,0.074219,-0.133789,0.090363,-0.017299,-0.006274,0.999999,0.000812,-0.000747,-0.001278,0.674544,0.017977,-0.722005,0.152893
05541,NaN,9.244879,-1.537294,-0.686643,0.194789,0.364585,-0.424843,0.113181,-0.137984,-0.228127,-1.097656,0.069824,-0.155029,0.092436,-0.015475,-0.006811,0.999999,0.000566,-0.000690,-0.001141,0.674272,0.019116,-0.722267,0.152715
05542,NaN,9.615919,-1.401458,-0.788410,0.222556,0.563896,-0.082116,0.084463,-0.119854,-0.195767,-1.084717,0.069824,-0.133545,0.096150,-0.014105,-0.007832,0.999999,0.000422,-0.000599,-0.000979,0.673980,0.020199,-0.722587,0.152349
05543,NaN,9.783084,-1.428421,-0.845456,0.265186,0.567271,0.090432,0.049051,-0.091972,-0.165912,-1.101807,0.067627,-0.146484,0.097823,-0.014363,-0.008413,1.000000,0.000245,-0.000460,-0.000830,0.673815,0.020897,-0.722771,0.152113
05544,NaN,9.893353,-1.508455,-0.888250,0.312244,0.505039,0.216784,0.031011,-0.060964,-0.137440,-1.082520,0.067627,-0.127197,0.098926,-0.015151,-0.008855,1.000000,0.000155,-0.000305,-0.000687,0.673696,0.021544,-0.722938,0.151756
05545,NaN,9.909203,-1.531302,-0.873335,0.301302,0.472800,0.236470,0.019213,-0.031667,-0.109877,-1.099365,0.061279,-0.150635,0.099085,-0.015367,-0.008719,1.000000,0.000096,-0.000158,-0.000549,0.673690,0.021926,-0.722972,0.151568
05546,NaN,9.949251,-1.514533,-0.859708,0.281258,0.482675,0.272372,0.016879,-0.007219,-0.083663,-1.084717,0.065430,-0.127197,0.099486,-0.015186,-0.008595,1.000000,0.000084,-0.000036,-0.000418,0.673725,0.022290,-0.722974,0.151347
05547,NaN,9.941317,-1.466945,-0.777739,0.194085,0.502204,0.251939,0.018709,0.017239,-0.054669,-1.097412,0.061279,-0.148438,0.099408,-0.014696,-0.007787,1.000000,0.000094,0.000086,-0.000273,0.673837,0.022460,-0.722871,0.151316
05548,NaN,9.909820,-1.471949,-0.766273,0.191174,0.486132,0.221528,0.025213,0.041546,-0.027477,-1.088867,0.063477,-0.129150,0.099095,-0.014732,-0.007685,1.000000,0.000126,0.000208,-0.000137,0.674005,0.022613,-0.722708,0.151320
05549,NaN,9.851128,-1.482397,-0.644178,0.086309,0.437163,0.160207,0.041729,0.056339,-0.003924,-1.097168,0.057129,-0.156982,0.098509,-0.014825,-0.006473,1.000000,0.000209,0.000282,-0.000020,0.674207,0.022674,-0.722477,0.151518
05550,NaN,9.784558,-1.628197,-0.476127,-0.029014,0.247734,0.114703,0.031526,0.078428,0.023390,-1.082520,0.065430,-0.133545,0.097846,-0.016270,-0.004802,1.000000,0.000158,0.000392,0.000117,0.674469,0.022636,-0.722191,0.151721
05551,NaN,9.811596,-1.669106,-0.401248,-0.086611,0.200781,0.145550,0.033295,0.087031,0.036656,-1.097168,0.059082,-0.150635,0.098117,-0.016672,-0.004058,1.000000,0.000166,0.000435,0.000183,0.674750,0.022516,-0.721872,0.152009
05552,NaN,9.695660,-1.719888,-0.388855,-0.068162,0.136055,0.040834,0.024506,0.098528,0.053658,-1.082520,0.065430,-0.135742,0.096959,-0.017172,-0.003938,1.000000,0.000123,0.000493,0.000268,0.675062,0.022330,-0.721526,0.152290
05553,NaN,9.625709,-1.773771,-0.413887,-0.016690,0.087717,-0.016573,0.032448,0.099788,0.064972,-1.103760,0.061279,-0.159424,0.096261,-0.017706,-0.004190,1.000000,0.000162,0.000499,0.000325,0.675370,0.022106,-0.721166,0.152662
05554,NaN,9.600503,-1.822792,-0.400160,-0.008235,0.042384,-0.032581,0.033138,0.093992,0.075081,-1.082520,0.067627,-0.133545,0.096010,-0.018191,-0.004050,1.000000,0.000166,0.000470,0.000375,0.675648,0.021875,-0.720831,0.153046
05555,NaN,9.375868,-1.931345,-0.439222,0.081745,-0.080722,-0.230584,0.031432,0.084286,0.074255,-1.097412,0.063477,-0.157227,0.093764,-0.019278,-0.004435,1.000000,0.000157,0.000421,0.000371,0.675893,0.021630,-0.720525,0.153439
05556,NaN,9.350351,-1.980461,-0.427747,0.090201,-0.126056,-0.246589,0.028957,0.066888,0.072437,-1.082520,0.067627,-0.135742,0.093509,-0.019770,-0.004312,1.000000,0.000145,0.000334,0.000362,0.676076,0.021415,-0.720285,0.153796
05557,NaN,9.363420,-2.021844,-0.402474,0.078538,-0.160921,-0.226687,0.010051,0.051725,0.066107,-1.097412,0.065674,-0.165771,0.093640,-0.020187,-0.004050,1.000000,0.000050,0.000259,0.000331,0.676208,0.021149,-0.720107,0.154084
05558,NaN,9.387953,-2.159360,-0.438302,0.146964,-0.271687,-0.174576,0.005667,0.042713,0.054344,-1.084473,0.065430,-0.139893,0.093884,-0.021568,-0.004404,1.000000,0.000028,0.000214,0.000272,0.676320,0.020939,-0.719963,0.154293
05559,NaN,9.324760,-2.095298,-0.388741,0.091048,-0.228152,-0.250669,0.005767,0.029095,0.045364,-1.099609,0.065674,-0.161377,0.093252,-0.020932,-0.003902,1.000000,0.000029,0.000145,0.000227,0.676383,0.020744,-0.719865,0.154500
05560,NaN,9.342531,-2.079336,-0.364393,0.063865,-0.211677,-0.237176,0.006293,0.025497,0.030633,-1.086914,0.069824,-0.133545,0.093428,-0.020779,-0.003656,1.000000,0.000031,0.000127,0.000153,0.676451,0.020635,-0.719777,0.154629
05561,NaN,9.433300,-2.078331,-0.360877,0.053619,-0.191306,-0.148456,0.004928,0.014553,0.024097,-1.095215,0.063477,-0.157227,0.094335,-0.020772,-0.003616,1.000000,0.000025,0.000073,0.000120,0.676476,0.020518,-0.719727,0.154765
05562,NaN,9.522399,-2.020655,-0.379447,0.050996,-0.113723,-0.071662,0.005827,0.007481,0.012714,-1.082764,0.074219,-0.140137,0.095225,-0.020200,-0.003799,1.000000,0.000029,0.000037,0.000064,0.676492,0.020486,-0.719698,0.154831
05563,NaN,9.562617,-2.046046,-0.391064,0.064996,-0.125816,-0.026839,0.009068,0.000895,0.002135,-1.099609,0.063477,-0.161377,0.095626,-0.020459,-0.003912,1.000000,0.000045,0.000004,0.000011,0.676484,0.020469,-0.719690,0.154909
05564,NaN,9.585505,-1.971931,-0.366947,0.022221,-0.057415,-0.019768,0.015496,-0.003180,-0.007764,-1.084717,0.065430,-0.135742,0.095854,-0.019723,-0.003669,1.000000,0.000077,-0.000016,-0.000039,0.676477,0.020551,-0.719688,0.154939
05565,NaN,9.661251,-1.924800,-0.307964,-0.052505,-0.013537,0.043100,0.018392,-0.002868,-0.011550,-1.095215,0.061279,-0.165771,0.096611,-0.019253,-0.003080,1.000000,0.000092,-0.000014,-0.000058,0.676464,0.020618,-0.719684,0.155004
05566,NaN,9.675481,-1.934378,-0.337840,-0.022402,-0.013871,0.060012,0.026947,-0.010894,-0.016077,-1.082520,0.069824,-0.131348,0.096753,-0.019351,-0.003376,1.000000,0.000135,-0.000054,-0.000080,0.676435,0.020775,-0.719698,0.155046
05567,NaN,9.647801,-1.911219,-0.278643,-0.082845,-0.012169,0.026187,0.026236,-0.001666,-0.016021,-1.103760,0.063477,-0.157227,0.096477,-0.019120,-0.002788,1.000000,0.000131,-0.000008,-0.000080,0.676431,0.020886,-0.719682,0.155123
05568,NaN,9.581384,-1.871163,-0.283802,-0.081290,0.013750,-0.046525,0.023323,-0.004265,-0.018994,-1.082520,0.069824,-0.137939,0.095812,-0.018720,-0.002838,1.000000,0.000117,-0.000021,-0.000095,0.676428,0.021036,-0.719676,0.155143
05569,NaN,9.528938,-1.841932,-0.319011,-0.049793,0.040223,-0.102330,0.016953,-0.008145,-0.016968,-1.095215,0.063477,-0.159180,0.095288,-0.018427,-0.003188,1.000000,0.000085,-0.000041,-0.000085,0.676405,0.021127,-0.719687,0.155180
05570,NaN,9.541243,-1.795780,-0.370835,-0.012319,0.098028,-0.097344,0.004512,-0.013705,-0.008453,-1.082520,0.067627,-0.129395,0.095412,-0.017962,-0.003702,1.000000,0.000023,-0.000069,-0.000042,0.676362,0.021183,-0.719729,0.155166
05571,NaN,9.607902,-1.809597,-0.416182,0.027708,0.108037,-0.027638,-0.003268,-0.020577,-0.005088,-1.095459,0.067871,-0.159424,0.096079,-0.018098,-0.004152,1.000000,-0.000016,-0.000103,-0.000025,0.676289,0.021178,-0.719798,0.155164
05572,NaN,9.632328,-1.767452,-0.422195,0.019258,0.153416,-0.011668,0.000923,-0.023945,0.003385,-1.080322,0.065430,-0.142090,0.096324,-0.017673,-0.004211,1.000000,0.000005,-0.000120,0.000017,0.676200,0.021187,-0.719878,0.155177
05573,NaN,9.686760,-1.851684,-0.368115,-0.019879,0.070383,0.056062,-0.004008,-0.021402,0.014214,-1.097656,0.069824,-0.157227,0.096869,-0.018510,-0.003670,1.000000,-0.000020,-0.000107,0.000071,0.676109,0.021115,-0.719954,0.155232
05574,NaN,9.666174,-1.841055,-0.364269,-0.027011,0.076958,0.033654,0.006899,-0.025503,0.020635,-1.084717,0.069824,-0.133545,0.096664,-0.018400,-0.003631,1.000000,0.000034,-0.000128,0.000103,0.676001,0.021083,-0.720037,0.155324
05575,NaN,9.677913,-1.822370,-0.368222,-0.031352,0.100180,0.041631,0.008612,-0.019166,0.027141,-1.101807,0.069824,-0.159424,0.096782,-0.018210,-0.003674,1.000000,0.000043,-0.000096,0.000136,0.675906,0.021010,-0.720097,0.155465
05576,NaN,9.731760,-1.884787,-0.362760,-0.028677,0.051635,0.106369,0.007485,-0.019955,0.032948,-1.086914,0.072021,-0.137939,0.097321,-0.018832,-0.003619,1.000000,0.000037,-0.000100,0.000165,0.675808,0.020932,-0.720162,0.155602
05577,NaN,9.716894,-1.853470,-0.383915,-0.017136,0.087532,0.086444,0.009259,-0.019287,0.038348,-1.097656,0.069824,-0.155029,0.097173,-0.018516,-0.003831,1.000000,0.000046,-0.000096,0.000192,0.675706,0.020824,-0.720223,0.155779
05578,NaN,9.722325,-1.858804,-0.362057,-0.040094,0.081337,0.091939,0.008971,-0.019196,0.040648,-1.084717,0.069824,-0.129395,0.097227,-0.018568,-0.003612,1.000000,0.000045,-0.000096,0.000203,0.675605,0.020722,-0.720284,0.155947
05579,NaN,9.707571,-1.851992,-0.334100,-0.070251,0.082016,0.075021,0.010732,-0.019674,0.042669,-1.095459,0.069824,-0.157227,0.097080,-0.018499,-0.003332,1.000000,0.000054,-0.000098,0.000213,0.675497,0.020608,-0.720346,0.156140
05580,NaN,9.663347,-1.893893,-0.402781,0.007093,0.055305,0.042577,0.010786,-0.024195,0.044949,-1.080566,0.072021,-0.135742,0.096638,-0.018917,-0.004017,1.000000,0.000054,-0.000121,0.000225,0.675374,0.020501,-0.720424,0.156329
05581,NaN,9.656358,-1.920683,-0.379230,-0.011636,0.026688,0.040091,0.010143,-0.020636,0.043892,-1.099854,0.069824,-0.153076,0.096568,-0.019185,-0.003783,1.000000,0.000051,-0.000103,0.000219,0.675265,0.020383,-0.720488,0.156521
05582,NaN,9.598347,-1.975506,-0.369370,-0.006087,-0.034789,-0.006257,0.005230,-0.027186,0.043485,-1.082764,0.074219,-0.137939,0.095988,-0.019734,-0.003681,1.000000,0.000026,-0.000136,0.000217,0.675133,0.020265,-0.720580,0.156685
05583,NaN,9.613053,-2.046140,-0.380059,0.016630,-0.093003,0.022606,0.002812,-0.024294,0.037030,-1.097412,0.067871,-0.159424,0.096135,-0.020444,-0.003789,1.000000,0.000014,-0.000121,0.000185,0.675016,0.020151,-0.720661,0.156827
05584,NaN,9.578033,-2.002432,-0.395757,0.021098,-0.050985,-0.019730,-0.002441,-0.026229,0.036644,-1.084961,0.074219,-0.135742,0.095785,-0.020007,-0.003945,1.000000,-0.000012,-0.000131,0.000183,0.674893,0.020031,-0.720755,0.156940
05585,NaN,9.603634,-2.019558,-0.380819,0.005274,-0.063464,0.008177,0.005112,-0.026101,0.031075,-1.104004,0.067871,-0.159424,0.096040,-0.020181,-0.003796,1.000000,0.000026,-0.000131,0.000155,0.674775,0.019947,-0.720840,0.157071
05586,NaN,9.588923,-1.987449,-0.402554,0.016877,-0.027999,-0.011750,0.002133,-0.024174,0.025831,-1.084961,0.076172,-0.131592,0.095892,-0.019862,-0.004014,1.000000,0.000011,-0.000121,0.000129,0.674667,0.019879,-0.720922,0.157164
05587,NaN,9.620758,-1.981384,-0.413068,0.019752,-0.011564,0.018638,0.003318,-0.026765,0.025683,-1.095459,0.069824,-0.155029,0.096211,-0.019801,-0.004118,1.000000,0.000017,-0.000134,0.000128,0.674549,0.019808,-0.721011,0.157271
05588,NaN,9.632551,-1.962559,-0.417816,0.015529,0.011137,0.026616,-0.004002,-0.030419,0.018818,-1.087158,0.076172,-0.135986,0.096328,-0.019617,-0.004163,1.000000,-0.000020,-0.000152,0.000094,0.674425,0.019750,-0.721118,0.157317
