// Start Time: Unknown
// Update Rate: 100.0Hz
// Filter Profile: human (46.1)
// Firmware Version: 4.4.0
PacketCounter,SampleTimeFine,Acc_X,Acc_Y,Acc_Z,FreeAcc_X,FreeAcc_Y,FreeAcc_Z,Gyr_X,Gyr_Y,Gyr_Z,Mag_X,Mag_Y,Mag_Z,VelInc_X,VelInc_Y,VelInc_Z,OriInc_q0,OriInc_q1,OriInc_q2,OriInc_q3,Quat_q0,Quat_q1,Quat_q2,Quat_q3
36362,NaN,13.672713,0.027875,1.359385,0.000000,0.000000,3.927464,0.652719,0.109029,-0.038357,-1.080078,-0.371826,0.077637,0.136735,0.000208,0.013520,0.999995,0.003264,0.000545,-0.000192,-0.397293,-0.567327,0.359083,-0.625586
36363,NaN,15.940452,-0.266740,0.638495,0.000000,-0.000000,6.142776,0.660593,0.129686,0.055519,-1.077881,-0.374023,0.073486,0.159409,-0.002644,0.006273,0.999994,0.003303,0.000648,0.000278,-0.432566,-0.547450,0.425019,-0.576666
36364,NaN,18.345380,-0.724729,-0.762719,-0.161195,2.060126,8.446272,0.736391,0.175613,0.150554,-1.077881,-0.369629,0.083740,0.183452,-0.007081,-0.007815,0.999993,0.003682,0.000878,0.000753,-0.414370,-0.558574,0.392512,-0.601854
36365,NaN,20.700835,-0.739043,-1.171172,-0.416547,2.611365,10.765198,0.858385,0.159461,0.171428,-1.075684,-0.369629,0.083740,0.207005,-0.007162,-0.011908,0.999990,0.004292,0.000797,0.000857,-0.411765,-0.559530,0.390073,-0.604333
36366,NaN,23.781373,-0.008491,-1.068323,-1.204993,2.377116,13.843011,0.866262,-0.014837,0.231672,-1.077881,-0.367676,0.093750,0.237814,0.000237,-0.010665,0.999990,0.004331,-0.000074,0.001158,-0.407991,-0.561771,0.388696,-0.605700
36367,NaN,28.079340,1.216319,-1.813906,-2.864691,2.832697,18.061796,0.841036,0.046758,0.438954,-1.082520,-0.359131,0.085449,0.280761,0.012856,-0.018152,0.999989,0.004205,0.000234,0.002195,-0.404386,-0.562485,0.387282,-0.608354
36368,NaN,30.500159,1.932446,-1.646622,-3.504472,2.198672,20.512006,0.627933,0.153866,0.569372,-1.084717,-0.354736,0.091553,0.304932,0.020245,-0.016638,0.999991,0.003140,0.000769,0.002847,-0.400005,-0.566153,0.388666,-0.606964
36369,NaN,30.644667,3.103362,-2.688695,-5.176331,2.671373,20.552114,0.126295,0.041509,0.676410,-1.085205,-0.344238,0.083252,0.306334,0.032087,-0.026930,0.999994,0.000631,0.000208,0.003382,-0.397673,-0.564961,0.390113,-0.608676
36370,NaN,29.476917,3.574698,-3.500882,-5.187921,2.508102,19.525247,-0.262491,0.219981,0.701192,-1.087402,-0.339844,0.076904,0.294603,0.036734,-0.035381,0.999992,-0.001312,0.001100,0.003506,-0.396904,-0.575425,0.393984,-0.596766
36371,NaN,28.210049,2.790758,-2.428569,-4.239129,1.766686,18.265740,-0.565438,0.137765,0.758666,-1.091797,-0.331299,0.078857,0.281975,0.028908,-0.024561,0.999989,-0.002827,0.000689,0.003793,-0.396534,-0.572390,0.397576,-0.597548
36372,NaN,27.731021,0.800293,-2.270944,-0.975704,1.404486,17.970037,-0.648356,-0.147792,0.707758,-1.098633,-0.322754,0.078613,0.277296,0.008911,-0.022532,0.999988,-0.003242,-0.000739,0.003539,-0.398651,-0.591835,0.401288,-0.574262
36373,NaN,27.197219,-1.488147,-1.552726,1.282403,1.460321,17.400091,-0.518374,-0.243988,0.505998,-1.094727,-0.312256,0.072266,0.272027,-0.014233,-0.015158,0.999993,-0.002592,-0.001220,0.002530,-0.398240,-0.590483,0.404758,-0.573504
36374,NaN,25.715327,-2.520208,-0.172956,3.612199,-0.378485,15.769870,-0.418735,-0.342063,0.154950,-1.094727,-0.314453,0.074463,0.257175,-0.025006,-0.001237,0.999996,-0.002094,-0.001710,0.000775,-0.397262,-0.606337,0.409909,-0.553635
36375,NaN,23.421368,-2.123591,1.001208,3.561429,-1.576237,13.401605,-0.245530,-0.392752,-0.158980,-1.094727,-0.312256,0.078369,0.234176,-0.021409,0.010498,0.999997,-0.001228,-0.001964,-0.000795,-0.397641,-0.607261,0.410886,-0.551624
36376,NaN,20.149807,-1.497959,2.293505,3.298036,-3.148247,10.004715,-0.248244,-0.395062,-0.287867,-1.096680,-0.312256,0.078369,0.201430,-0.015241,0.023352,0.999996,-0.001241,-0.001975,-0.001439,-0.394544,-0.610668,0.415771,-0.546401
36377,NaN,16.004797,-0.737671,2.649629,2.537974,-3.471042,5.847080,-0.478141,-0.318159,-0.381290,-1.098633,-0.320801,0.076660,0.159991,-0.007618,0.026769,0.999994,-0.002391,-0.001591,-0.001906,-0.396382,-0.611383,0.416538,-0.543681
36378,NaN,10.817776,0.059504,2.906089,1.408612,-3.472791,0.743291,-0.744831,-0.173050,-0.293010,-1.096436,-0.322754,0.072510,0.108153,0.000545,0.029152,0.999992,-0.003724,-0.000865,-0.001465,-0.398640,-0.603990,0.418007,-0.549139
36379,NaN,4.927662,0.957277,3.370427,0.426639,-3.820172,-5.145549,-1.036968,0.008357,-0.044788,-1.100830,-0.316406,0.064209,0.049280,0.009736,0.033652,0.999987,-0.005185,0.000042,-0.000224,-0.401906,-0.601985,0.420697,-0.546900
36380,NaN,-1.556443,1.492656,3.749525,-0.272355,-3.965470,-11.518611,-1.246562,0.260849,0.262042,-1.107422,-0.312256,0.057861,-0.015535,0.015140,0.037422,0.999979,-0.006233,0.001304,0.001310,-0.409561,-0.588898,0.419525,-0.556289
36381,NaN,-6.868690,1.111258,4.084242,0.016452,-3.963992,-16.839872,-0.858791,0.247390,0.449118,-1.105469,-0.305664,0.045654,-0.068661,0.011134,0.040880,0.999987,-0.004294,0.001237,0.002246,-0.411354,-0.585502,0.422724,-0.556129
36382,NaN,-7.968720,0.401298,3.921400,0.721841,-3.826026,-17.805134,-0.171281,-0.040948,0.641460,-1.107910,-0.299316,0.053711,-0.079708,0.003791,0.039194,0.999994,-0.000856,-0.000205,0.003207,-0.417189,-0.574949,0.416147,-0.567634
36383,NaN,-5.955346,0.604325,2.631990,0.192168,-2.652516,-15.786448,0.405223,-0.137870,0.504563,-1.114502,-0.292969,0.049316,-0.059586,0.005840,0.026291,0.999995,0.002026,-0.000689,0.002523,-0.414303,-0.575133,0.416732,-0.569130
36384,NaN,-4.709362,1.583474,2.617552,-0.649879,-3.104739,-14.446808,0.935884,0.118834,0.534548,-1.116699,-0.284424,0.053467,-0.047120,0.015586,0.026277,0.999985,0.004679,0.000594,0.002673,-0.417709,-0.567110,0.406259,-0.582116
36385,NaN,-4.467112,1.660031,1.904775,-0.898562,-2.454199,-14.229495,1.338174,0.071749,0.539016,-1.119141,-0.275879,0.049072,-0.044709,0.016352,0.019174,0.999974,0.006691,0.000359,0.002695,-0.412481,-0.568586,0.403732,-0.586149
36386,NaN,-2.702768,0.682853,1.612477,-0.038532,-1.893903,-12.417079,1.516842,-0.062936,0.435320,-1.117188,-0.271729,0.059326,-0.027047,0.006647,0.016167,0.999969,0.007584,-0.000315,0.002177,-0.413863,-0.565033,0.390363,-0.597555
36387,NaN,-0.726254,-0.427038,0.993264,0.769948,-0.809372,-10.482347,1.591569,-0.142167,0.246942,-1.121582,-0.271729,0.061279,-0.007264,-0.004358,0.009893,0.999967,0.007958,-0.000711,0.001235,-0.408338,-0.568251,0.386587,-0.600751
36388,NaN,1.159226,-1.342261,0.276033,1.320583,0.333349,-8.643683,1.491094,-0.023028,0.114074,-1.121582,-0.265381,0.067383,0.011600,-0.013436,0.002662,0.999972,0.007455,-0.000115,0.000570,-0.409851,-0.565749,0.375912,-0.608802
36389,NaN,1.943929,-1.641292,-0.283325,1.356888,1.039459,-7.907086,1.082586,0.188790,0.047567,-1.121582,-0.267578,0.065430,0.019440,-0.016393,-0.002940,0.999985,0.005413,0.000944,0.000238,-0.406993,-0.567295,0.372358,-0.611460
36390,NaN,1.447813,-0.874670,-0.435161,0.587910,0.875429,-8.420368,0.527267,0.386004,-0.117135,-1.123779,-0.267578,0.063232,0.014465,-0.008744,-0.004403,0.999994,0.002636,0.001930,-0.000586,-0.409071,-0.563361,0.365829,-0.617620
36391,NaN,0.694647,0.287423,-0.245170,-0.381956,0.176084,-9.143093,-0.069032,0.459295,-0.252573,-1.123535,-0.271729,0.055176,0.006944,0.002865,-0.002469,0.999997,-0.000345,0.002296,-0.001263,-0.410885,-0.562262,0.364390,-0.618268
36392,NaN,0.497761,0.864388,-0.308614,-0.932273,-0.002431,-9.342549,-0.682951,0.469510,-0.297551,-1.121338,-0.275879,0.047119,0.004983,0.008626,-0.003127,0.999990,-0.003415,0.002348,-0.001488,-0.416716,-0.556746,0.363344,-0.619970
36393,NaN,0.578919,0.682806,-0.244800,-0.742965,0.029279,-9.257319,-1.191914,0.477261,-0.253877,-1.121094,-0.280273,0.039062,0.005792,0.006806,-0.002502,0.999979,-0.005960,0.002386,-0.001269,-0.421679,-0.553232,0.365330,-0.618591
36394,NaN,0.765712,0.332246,-0.009104,-0.337399,-0.018323,-9.049402,-1.613694,0.460128,-0.161190,-1.123291,-0.278076,0.024658,0.007660,0.003315,-0.000135,0.999964,-0.008068,0.002301,-0.000806,-0.429043,-0.547128,0.367613,-0.617603
36395,NaN,0.952562,0.475625,0.085165,-0.447001,-0.123217,-8.850481,-1.826329,0.427317,-0.060398,-1.119141,-0.278076,0.014404,0.009529,0.004761,0.000788,0.999956,-0.009132,0.002137,-0.000302,-0.434992,-0.541977,0.372155,-0.615259
36396,NaN,0.676050,0.177825,-0.026301,-0.199890,0.057324,-9.144771,-1.885942,0.422254,0.035390,-1.119141,-0.275879,0.012207,0.006760,0.001777,-0.000294,0.999953,-0.009430,0.002111,0.000177,-0.440881,-0.536312,0.374865,-0.614386
36397,NaN,0.176229,-0.645047,0.105962,0.638015,0.133356,-9.629621,-1.789045,0.393271,0.115274,-1.119141,-0.275879,0.000000,0.001768,-0.006440,0.001114,0.999958,-0.008945,0.001966,0.000576,-0.446042,-0.530922,0.379787,-0.612315
36398,NaN,0.285595,-0.867572,0.015268,0.818882,0.293885,-9.534247,-1.609026,0.372442,0.154025,-1.123535,-0.271484,-0.006104,0.002863,-0.008672,0.000217,0.999966,-0.008045,0.001862,0.000770,-0.450950,-0.525315,0.383330,-0.611348
36399,NaN,0.500864,-0.763112,-0.043156,0.695649,0.339547,-9.327053,-1.368282,0.350921,0.186516,-1.121582,-0.271484,-0.014404,0.005015,-0.007629,-0.000388,0.999975,-0.006841,0.001755,0.000933,-0.454635,-0.520786,0.387201,-0.610052
36400,NaN,0.359035,-0.869179,-0.101464,0.789055,0.395935,-9.473137,-1.168742,0.368196,0.252004,-1.119385,-0.269531,-0.020508,0.003599,-0.008693,-0.000970,0.999980,-0.005844,0.001841,0.001260,-0.457861,-0.515689,0.390443,-0.609904
36401,NaN,0.242039,-0.973345,-0.184726,0.875139,0.477816,-9.598386,-0.941546,0.394039,0.294852,-1.115479,-0.260986,-0.026855,0.002431,-0.009738,-0.001806,0.999986,-0.004708,0.001970,0.001474,-0.460153,-0.511749,0.393167,-0.609748
36402,NaN,0.163822,-0.925961,-0.171762,0.839564,0.433830,-9.668942,-0.730808,0.396274,0.319749,-1.117676,-0.258789,-0.031006,0.001650,-0.009263,-0.001687,0.999990,-0.003654,0.001981,0.001599,-0.461729,-0.507398,0.395718,-0.610541
36403,NaN,0.045110,-0.882365,-0.329699,0.766525,0.549305,-9.810624,-0.483731,0.357959,0.368839,-1.115479,-0.258789,-0.031006,0.000462,-0.008831,-0.003276,0.999994,-0.002419,0.001790,0.001844,-0.462536,-0.504456,0.397301,-0.611340
36404,NaN,-0.111915,-0.762761,-0.243997,0.684564,0.408519,-9.948139,-0.211142,0.317387,0.382666,-1.122070,-0.252441,-0.035156,-0.001108,-0.007632,-0.002430,0.999996,-0.001056,0.001587,0.001913,-0.462209,-0.501406,0.398907,-0.613049
36405,NaN,-0.175018,-0.542762,-0.127721,0.505748,0.230799,-9.992924,0.080897,0.289090,0.386288,-1.122070,-0.254395,-0.041260,-0.001742,-0.005430,-0.001277,0.999997,0.000404,0.001445,0.001931,-0.461397,-0.499935,0.398958,-0.614826
36406,NaN,-0.172030,-0.416801,0.165388,0.456918,-0.079614,-9.937417,0.333808,0.270020,0.378904,-1.122314,-0.248047,-0.033203,-0.001710,-0.004174,0.001649,0.999996,0.001669,0.001350,0.001895,-0.459767,-0.498098,0.399342,-0.617283
36407,NaN,-0.086225,-0.192676,0.266599,0.259660,-0.217773,-9.840699,0.469623,0.259584,0.365653,-1.122314,-0.246094,-0.039307,-0.000855,-0.001935,0.002663,0.999995,0.002348,0.001298,0.001828,-0.457984,-0.497644,0.398204,-0.619705
36408,NaN,-0.165156,0.028060,0.282526,0.060304,-0.303687,-9.922333,0.545416,0.264302,0.334395,-1.120361,-0.246094,-0.029053,-0.001648,0.000270,0.002828,0.999994,0.002727,0.001322,0.001672,-0.454886,-0.497302,0.396564,-0.623303
36409,NaN,-0.209030,0.124664,0.178776,-0.053501,-0.239550,-9.988609,0.520435,0.252824,0.298292,-1.120605,-0.239746,-0.035400,-0.002090,0.001239,0.001794,0.999995,0.002602,0.001264,0.001491,-0.453161,-0.497104,0.395106,-0.625639
36410,NaN,-0.376304,0.123012,0.117189,-0.047714,-0.211569,-10.164015,0.529291,0.265594,0.217534,-1.120361,-0.241699,-0.031250,-0.003763,0.001223,0.001180,0.999995,0.002646,0.001328,0.001088,-0.448062,-0.498735,0.390875,-0.630651
36411,NaN,-0.109512,0.005403,0.163466,0.052003,-0.174342,-9.887810,0.535101,0.171632,0.183859,-1.120361,-0.243896,-0.033203,-0.001094,0.000049,0.001636,0.999996,0.002675,0.000858,0.000919,-0.446481,-0.499031,0.389260,-0.632534
36412,NaN,0.503429,-0.235458,0.168765,0.219668,0.008066,-9.275060,0.488886,0.128583,0.134919,-1.120361,-0.241699,-0.025146,0.005037,-0.002355,0.001679,0.999997,0.002444,0.000643,0.000675,-0.435478,-0.504965,0.380488,-0.640779
36413,NaN,1.427540,-0.594130,0.279221,0.489708,0.187610,-8.331535,0.486751,0.028232,0.052225,-1.116211,-0.243896,-0.029053,0.014277,-0.005944,0.002776,0.999997,0.002434,0.000141,0.000261,-0.434134,-0.505834,0.378998,-0.641888
36414,NaN,3.193615,-1.188591,0.957277,1.062839,0.165865,-6.440572,0.608751,-0.048673,-0.030376,-1.111816,-0.248291,-0.024902,0.031932,-0.011920,0.009544,0.999995,0.003044,-0.000243,-0.000152,-0.402888,-0.524332,0.353835,-0.661482
36415,NaN,6.068852,-1.841182,1.943895,1.710646,0.041696,-3.403982,0.848652,-0.194374,-0.236271,-1.117920,-0.254639,-0.016602,0.060648,-0.018566,0.019419,0.999990,0.004243,-0.000972,-0.001181,-0.401097,-0.527097,0.350796,-0.661991
36416,NaN,11.482792,-2.408231,2.853498,1.993766,0.637256,2.079106,1.164083,-0.360810,-0.414127,-1.113281,-0.263184,-0.000244,0.114726,-0.024486,0.028600,0.999979,0.005820,-0.001804,-0.002071,-0.351757,-0.556798,0.307363,-0.686856
36417,NaN,18.396940,-2.868192,2.702644,1.468427,2.026297,8.834428,1.215108,-0.360231,-0.418454,-1.111084,-0.269531,0.006104,0.183860,-0.029232,0.027181,0.999978,0.006075,-0.001801,-0.002092,-0.349250,-0.560804,0.302651,-0.686969
36418,NaN,24.763707,-3.055266,1.402852,-0.189942,4.149055,14.830610,0.991235,-0.327132,-0.331920,-1.113037,-0.273682,0.014404,0.247563,-0.031034,0.014280,0.999985,0.004956,-0.001636,-0.001660,-0.309768,-0.580352,0.266238,-0.704523
36419,NaN,30.126126,-2.943386,-0.194449,-1.927943,5.949282,19.804416,0.795432,-0.296406,-0.305032,-1.110596,-0.280273,0.022705,0.301218,-0.029886,-0.001616,0.999990,0.003977,-0.001482,-0.001525,-0.308137,-0.583029,0.263007,-0.704241
36420,NaN,35.079486,-3.427517,-0.990267,-2.804622,7.388400,24.550684,0.610926,-0.534006,-0.311463,-1.106201,-0.284424,0.039062,0.350766,-0.034793,-0.009072,0.999991,0.003055,-0.002670,-0.001557,-0.296166,-0.590207,0.251789,-0.707490
36421,NaN,37.544183,-3.481198,-2.076565,-3.595246,8.524462,26.798746,0.995084,-0.390353,-0.779848,-1.103760,-0.297363,0.041260,0.375342,-0.036174,-0.020211,0.999978,0.004975,-0.001952,-0.003899,-0.295491,-0.594032,0.246540,-0.706420
36422,NaN,35.841386,-4.013820,0.169999,-1.336338,7.237441,25.494031,1.308375,0.113761,-1.097519,-1.101074,-0.307861,0.043701,0.358187,-0.042113,0.001225,0.999963,0.006542,0.000569,-0.005488,-0.284858,-0.601511,0.229903,-0.710060
36423,NaN,36.933129,-2.463080,2.540384,-0.544889,4.959464,26.952371,1.459233,-0.216463,-0.985277,-1.100830,-0.316406,0.056152,0.369176,-0.026636,0.025614,0.999961,0.007296,-0.001082,-0.004926,-0.283707,-0.605468,0.222058,-0.709654
36424,NaN,40.791115,-1.618292,2.047691,-1.521493,5.113410,30.712030,1.516768,-0.481254,-0.766958,-1.092041,-0.327148,0.064453,0.407794,-0.017906,0.021327,0.999961,0.007584,-0.002406,-0.003835,-0.279132,-0.611424,0.216965,-0.707935
36425,NaN,44.969349,-0.889222,1.027536,-2.871851,5.861431,34.701136,1.241730,-0.354154,-0.371957,-1.096191,-0.331299,0.072754,0.449657,-0.009795,0.011013,0.999977,0.006209,-0.001771,-0.001860,-0.276262,-0.614801,0.211922,-0.707664
36426,NaN,45.392245,0.184596,-0.630227,-4.613473,5.822672,34.972343,0.812817,-0.171078,0.043871,-1.096436,-0.324951,0.074707,0.453927,0.001970,-0.005906,0.999991,0.004064,-0.000855,0.000219,-0.273875,-0.617227,0.214547,-0.705686
36427,NaN,42.487253,1.358654,-2.190788,-6.346904,5.511613,31.914391,0.309341,0.163375,0.315478,-1.098633,-0.320801,0.062256,0.424832,0.014291,-0.022233,0.999997,0.001547,0.000817,0.001577,-0.271982,-0.616735,0.214204,-0.706951
36428,NaN,38.770520,2.611918,-1.835581,-6.623567,3.565064,28.354804,-0.169119,0.446336,0.525310,-1.101074,-0.314209,0.053955,0.387593,0.027121,-0.019244,0.999994,-0.000846,0.002232,0.002627,-0.274051,-0.614557,0.224026,-0.705002
36429,NaN,35.869474,3.293222,-0.962269,-6.427625,2.063969,25.582323,-0.556027,0.277268,0.883321,-1.105469,-0.303711,0.049561,0.358531,0.034488,-0.010214,0.999985,-0.002780,0.001386,0.004417,-0.272953,-0.611820,0.228316,-0.706431
36430,NaN,33.587752,2.871573,-1.012076,-6.114345,1.727037,23.308684,-0.778937,0.066515,1.240711,-1.112549,-0.286621,0.049316,0.335688,0.030759,-0.010350,0.999973,-0.003895,0.000333,0.006204,-0.273595,-0.609792,0.242020,-0.703368
36431,NaN,30.894321,2.559941,-0.126348,-5.294719,0.862529,20.719853,-0.934957,0.222188,1.307367,-1.115234,-0.271729,0.036865,0.308765,0.027611,-0.001733,0.999967,-0.004675,0.001111,0.006537,-0.272108,-0.606131,0.248981,-0.704678
36432,NaN,27.238483,2.572752,1.288144,-4.071539,-0.830158,17.260058,-0.957386,0.138885,1.390296,-1.122314,-0.250488,0.034424,0.272206,0.027681,0.012563,0.999964,-0.004787,0.000694,0.006951,-0.272310,-0.603806,0.262220,-0.701788
36433,NaN,22.661775,2.535087,1.559147,-3.571586,-1.515203,12.711807,-0.988740,0.035775,1.346473,-1.122803,-0.235596,0.028076,0.226443,0.026952,0.015420,0.999965,-0.004944,0.000179,0.006732,-0.270608,-0.600549,0.269696,-0.702408
36434,NaN,17.653210,2.779287,1.701841,-3.124318,-2.339954,7.709178,-1.016875,0.008419,1.119164,-1.127441,-0.222900,0.025635,0.176373,0.028866,0.016866,0.999971,-0.005084,0.000042,0.005596,-0.271627,-0.598978,0.281524,-0.698704
36435,NaN,12.408491,2.693203,2.169344,-2.181322,-2.947102,2.535771,-1.043970,-0.025905,1.039478,-1.130127,-0.205811,0.017090,0.123940,0.027689,0.021566,0.999973,-0.005220,-0.000130,0.005197,-0.271078,-0.596173,0.288312,-0.698549
36436,NaN,6.898364,2.447335,2.390634,-1.165599,-3.231169,-2.921240,-1.217415,-0.007134,0.962489,-1.130615,-0.193115,0.008789,0.068863,0.024950,0.023758,0.999970,-0.006087,-0.000036,0.004812,-0.272891,-0.594524,0.299200,-0.694659
36437,NaN,1.661751,1.765744,3.005100,0.422928,-3.381376,-7.996941,-1.542302,0.146826,0.856468,-1.137207,-0.180176,0.002441,0.016563,0.017959,0.029901,0.999961,-0.007711,0.000734,0.004282,-0.274709,-0.590606,0.306891,-0.693929
36438,NaN,-3.052730,0.388606,3.856178,2.636887,-3.224712,-12.456210,-1.661204,0.278749,0.825485,-1.137695,-0.169434,-0.012207,-0.030490,0.004081,0.038571,0.999956,-0.008306,0.001394,0.004127,-0.278536,-0.587149,0.318057,-0.690300
36439,NaN,-6.529058,-1.570312,3.647120,4.522292,-1.869473,-15.682083,-1.220884,0.160434,0.656240,-1.135986,-0.154785,-0.010254,-0.065210,-0.015694,0.036619,0.999976,-0.006104,0.000802,0.003281,-0.280102,-0.583837,0.323967,-0.689727
36440,NaN,-7.500851,-3.274520,3.211026,5.704373,-0.476846,-16.485666,-0.427404,-0.030990,0.362908,-1.138184,-0.152588,-0.014404,-0.074954,-0.032813,0.032169,0.999996,-0.002137,-0.000155,0.001815,-0.281282,-0.583310,0.329819,-0.686913
36441,NaN,-6.662878,-3.880858,2.785154,5.778393,0.252339,-15.622893,0.448291,-0.222189,0.021052,-1.146484,-0.156738,-0.014404,-0.066656,-0.038878,0.027690,0.999997,0.002241,-0.001111,0.000105,-0.279534,-0.584666,0.328653,-0.687032
36442,NaN,-5.305796,-3.096229,2.708358,4.894630,-0.139235,-14.405752,1.227874,-0.221304,-0.106123,-1.138184,-0.154785,-0.014404,-0.053104,-0.031099,0.026834,0.999980,0.006139,-0.001107,-0.000531,-0.276556,-0.587655,0.327083,-0.686437
36443,NaN,0.238296,-0.427273,3.531848,2.510802,-2.448723,-9.170267,1.171285,0.866681,-0.015832,-1.144531,-0.156738,-0.030762,0.002536,-0.004480,0.035282,0.999973,0.005856,0.004333,-0.000079,-0.274577,-0.586308,0.321811,-0.690860
36444,NaN,-4.736536,-0.183074,1.578039,1.920201,-1.105601,-14.290268,1.349607,1.032495,0.001865,-1.140137,-0.160889,-0.034668,-0.047283,-0.001939,0.016012,0.999964,0.006748,0.005162,0.000009,-0.272597,-0.584574,0.317684,-0.695012
36445,NaN,-5.659916,-0.611909,1.645844,2.468582,-0.891205,-15.125852,1.899486,0.230368,-0.248975,-1.142090,-0.163086,-0.032715,-0.056588,-0.006205,0.016465,0.999953,0.009497,0.001152,-0.001245,-0.268262,-0.586727,0.310029,-0.698333
36446,NaN,-2.412611,-0.483687,1.595544,1.803456,-0.886024,-11.948773,1.892623,-0.270847,-0.512019,-1.148438,-0.165283,-0.028564,-0.024160,-0.004926,0.015876,0.999951,0.009463,-0.001354,-0.002560,-0.264185,-0.591125,0.302983,-0.699270
36447,NaN,-0.008851,-0.067044,1.197380,0.855273,-0.829247,-9.674423,1.587600,-0.340371,-0.528908,-1.144043,-0.171631,-0.022217,-0.000111,-0.000765,0.011968,0.999964,0.007938,-0.001702,-0.002645,-0.260815,-0.595188,0.296310,-0.699948
36448,NaN,1.239597,0.714077,0.944161,-0.054930,-1.159548,-8.551599,1.125822,-0.196945,-0.561687,-1.141357,-0.182373,-0.018066,0.012407,0.007053,0.009494,0.999980,0.005629,-0.000985,-0.002808,-0.259210,-0.598349,0.291337,-0.699937
36449,NaN,1.325006,1.285885,0.596242,-0.698316,-1.302973,-8.556007,0.562814,0.031392,-0.505380,-1.141357,-0.186523,-0.018066,0.013283,0.012808,0.005996,0.999993,0.002814,0.000157,-0.002527,-0.259337,-0.599697,0.287815,-0.700193
36450,NaN,0.848551,1.369516,-0.070302,-1.140638,-0.892188,-9.103112,0.164969,0.021874,-0.533777,-1.147705,-0.186523,-0.026123,0.008522,0.013673,-0.000693,0.999996,0.000825,0.000109,-0.002669,-0.260768,-0.600802,0.285606,-0.699619
36451,NaN,2.272632,1.053944,-0.345466,-1.307885,-0.435814,-7.692667,-0.264476,0.302513,-0.432289,-1.147461,-0.194824,-0.030029,0.022744,0.010486,-0.003503,0.999996,-0.001322,0.001513,-0.002161,-0.263504,-0.600010,0.284839,-0.699586
36452,NaN,2.021795,0.472220,-0.792227,-1.165907,0.298552,-7.944594,-0.607452,0.473830,-0.314064,-1.141113,-0.192871,-0.040283,0.020206,0.004666,-0.007984,0.999991,-0.003037,0.002369,-0.001570,-0.267102,-0.598267,0.285243,-0.699549
36453,NaN,1.366563,-0.096070,-0.953526,-0.775267,0.801783,-8.570904,-0.747567,0.451276,-0.241690,-1.143066,-0.199219,-0.042236,0.013643,-0.001013,-0.009562,0.999990,-0.003738,0.002256,-0.001208,-0.270823,-0.596026,0.286532,-0.699505
36454,NaN,1.258470,-0.206603,-0.789338,-0.563708,0.764133,-8.651734,-0.756704,0.361203,-0.155800,-1.145020,-0.201172,-0.046387,0.012569,-0.002106,-0.007908,0.999991,-0.003784,0.001806,-0.000779,-0.274164,-0.594258,0.288103,-0.699062
36455,NaN,1.842104,-0.099971,-0.681476,-0.649162,0.644209,-8.071616,-0.844604,0.305568,-0.046880,-1.145020,-0.203369,-0.058594,0.018410,-0.001033,-0.006839,0.999990,-0.004223,0.001528,-0.000234,-0.277273,-0.592090,0.290496,-0.698685
36456,NaN,1.768618,0.114249,-0.612876,-0.747623,0.453491,-8.153748,-0.996398,0.350189,0.057255,-1.143066,-0.199219,-0.062744,0.017675,0.001117,-0.006165,0.999986,-0.004982,0.001751,0.000286,-0.280574,-0.589703,0.293604,-0.698087
36457,NaN,1.168799,0.156826,-0.439333,-0.577829,0.276626,-8.729503,-1.089152,0.378618,0.180608,-1.143066,-0.197021,-0.071045,0.011678,0.001555,-0.004424,0.999983,-0.005446,0.001893,0.000903,-0.283704,-0.586575,0.297404,-0.697849
36458,NaN,0.403652,0.167471,-0.354290,-0.415541,0.175209,-9.476342,-1.163058,0.373077,0.312859,-1.145752,-0.184326,-0.075195,0.004027,0.001660,-0.003560,0.999980,-0.005815,0.001865,0.001564,-0.286631,-0.583464,0.301810,-0.697369
36459,NaN,-0.150157,0.407880,-0.378271,-0.525115,0.015193,-10.049375,-1.157553,0.335410,0.366195,-1.141602,-0.182129,-0.079346,-0.001515,0.004054,-0.003804,0.999980,-0.005788,0.001677,0.001831,-0.289230,-0.580067,0.306430,-0.697115
36460,NaN,-0.583114,0.525301,-0.401607,-0.558094,-0.056522,-10.492820,-1.052302,0.256332,0.410056,-1.150146,-0.177734,-0.083496,-0.005847,0.005220,-0.004036,0.999983,-0.005261,0.001282,0.002050,-0.291304,-0.577329,0.310874,-0.696556
36461,NaN,-0.912898,0.486583,-0.523967,-0.546712,0.054388,-10.833877,-0.887097,0.110530,0.440878,-1.141846,-0.175781,-0.087646,-0.009143,0.004822,-0.005256,0.999988,-0.004435,0.000553,0.002204,-0.292496,-0.574956,0.315073,-0.696133
36462,NaN,-0.183792,0.574020,-0.629829,-0.798116,0.120816,-10.141890,-0.626986,0.140478,0.482876,-1.152588,-0.165039,-0.087891,-0.001856,0.005716,-0.006315,0.999992,-0.003135,0.000702,0.002414,-0.292901,-0.573103,0.318378,-0.695987
36463,NaN,-0.199028,0.676276,-0.636754,-0.876573,0.065858,-10.172821,-0.325335,0.206521,0.475353,-1.146729,-0.154541,-0.088135,-0.002013,0.006748,-0.006376,0.999995,-0.001627,0.001033,0.002377,-0.292505,-0.571145,0.320571,-0.696756
36464,NaN,-0.394904,0.507001,-0.446253,-0.593277,0.016494,-10.322481,-0.064550,0.224469,0.456592,-1.144775,-0.147949,-0.090332,-0.003966,0.005060,-0.004460,0.999997,-0.000323,0.001122,0.002283,-0.291526,-0.569868,0.321700,-0.697690
36465,NaN,-0.249852,0.401587,-0.449310,-0.537731,0.090565,-10.170767,0.079082,0.224515,0.417440,-1.142578,-0.150146,-0.094238,-0.002512,0.004012,-0.004489,0.999997,0.000395,0.001123,0.002087,-0.290203,-0.568524,0.322288,-0.699066
36466,NaN,-0.008162,0.348298,-0.642866,-0.658193,0.283801,-9.957232,0.102281,0.237802,0.369626,-1.146973,-0.147949,-0.094238,-0.000096,0.003486,-0.006427,0.999997,0.000511,0.001189,0.001848,-0.289071,-0.567578,0.322559,-0.700177
36467,NaN,-0.001908,0.396509,-0.646500,-0.698353,0.256219,-9.960472,0.022851,0.276775,0.310702,-1.146973,-0.147949,-0.094238,-0.000034,0.003966,-0.006465,0.999998,0.000114,0.001384,0.001554,-0.288363,-0.566136,0.322962,-0.701450
36468,NaN,-0.322783,0.434126,-0.807516,-0.762295,0.346168,-10.306456,-0.164484,0.318846,0.255515,-1.144775,-0.145996,-0.096436,-0.003246,0.004330,-0.008074,0.999998,-0.000822,0.001594,0.001278,-0.288520,-0.564707,0.323735,-0.702181
36469,NaN,-0.769081,0.486534,-0.935576,-0.789585,0.396902,-10.773169,-0.260223,0.304126,0.162436,-1.151367,-0.139404,-0.100586,-0.007709,0.004847,-0.009350,0.999998,-0.001301,0.001521,0.000812,-0.289174,-0.562996,0.324670,-0.702854
36470,NaN,-0.817380,0.177558,-0.894770,-0.513818,0.556480,-10.775272,-0.276992,0.207763,0.068049,-1.142822,-0.141602,-0.098389,-0.008184,0.001760,-0.008942,0.999998,-0.001385,0.001039,0.000340,-0.290135,-0.562100,0.325485,-0.702798
36471,NaN,-0.481312,-0.209470,-0.829620,-0.239151,0.760034,-10.386239,-0.304548,0.128409,-0.022068,-1.140869,-0.141602,-0.094482,-0.004819,-0.002107,-0.008290,0.999999,-0.001523,0.000642,-0.000110,-0.291275,-0.561238,0.326308,-0.702633
36472,NaN,-0.281345,-0.389278,-0.746114,-0.087189,0.814404,-10.154040,-0.312715,0.101386,-0.109009,-1.142578,-0.147949,-0.098389,-0.002819,-0.003903,-0.007454,0.999999,-0.001564,0.000507,-0.000545,-0.292801,-0.560931,0.326960,-0.701940
36473,NaN,-0.405037,-0.275863,-0.670870,-0.103703,0.679804,-10.278878,-0.260856,0.103793,-0.177675,-1.134033,-0.152344,-0.098389,-0.004056,-0.002764,-0.006703,0.999999,-0.001304,0.000519,-0.000888,-0.294324,-0.560472,0.327227,-0.701547
36474,NaN,-0.614695,-0.253417,-0.550444,-0.007523,0.560973,-10.468668,-0.191585,0.043242,-0.240295,-1.144531,-0.154541,-0.092041,-0.006151,-0.002532,-0.005501,0.999999,-0.000958,0.000216,-0.001201,-0.295875,-0.560739,0.327210,-0.700688
36475,NaN,-0.669768,-0.182220,-0.660393,-0.117645,0.600926,-10.549545,-0.135667,-0.012123,-0.287517,-1.131592,-0.163086,-0.089844,-0.006700,-0.001817,-0.006603,0.999999,-0.000678,-0.000061,-0.001438,-0.297241,-0.561047,0.326899,-0.700008
36476,NaN,-0.607527,-0.258632,-0.599288,-0.035382,0.601544,-10.469969,0.026405,-0.056035,-0.359084,-1.131592,-0.160889,-0.085938,-0.006078,-0.002575,-0.005995,0.999998,0.000132,-0.000280,-0.001795,-0.298453,-0.562154,0.325987,-0.699029
36477,NaN,-0.109491,-0.651372,-0.417941,0.283392,0.722204,-9.907863,0.202782,-0.167360,-0.407167,-1.131104,-0.175781,-0.081543,-0.001105,-0.006507,-0.004187,0.999997,0.001014,-0.000837,-0.002036,-0.299030,-0.563700,0.324385,-0.698281
36478,NaN,0.991591,-1.169287,-0.157360,0.640874,0.891091,-8.730799,0.447786,-0.290397,-0.447404,-1.135254,-0.182129,-0.071289,0.009892,-0.011711,-0.001585,0.999994,0.002239,-0.001452,-0.002237,-0.299000,-0.566354,0.322163,-0.697175
36479,NaN,2.860728,-1.839869,0.473224,1.213983,0.912490,-6.732690,0.888514,-0.394705,-0.525812,-1.122070,-0.190674,-0.064941,0.028549,-0.018495,0.004707,0.999985,0.004443,-0.001974,-0.002629,-0.297674,-0.569894,0.318164,-0.696694
36480,NaN,6.125885,-2.418585,1.745020,1.906097,0.470039,-3.288383,1.551055,-0.595558,-0.634274,-1.128174,-0.201416,-0.052490,0.061129,-0.024515,0.017443,0.999960,0.007755,-0.002978,-0.003171,-0.294651,-0.575471,0.312066,-0.696153
36481,NaN,11.223449,-3.154801,2.834157,2.407653,0.409148,1.933997,2.151974,-0.868886,-0.815907,-1.123291,-0.216309,-0.033691,0.111980,-0.032311,0.028484,0.999924,0.010760,-0.004344,-0.004079,-0.289920,-0.582892,0.303486,-0.695758
36482,NaN,19.078792,-3.394068,3.190784,1.819723,0.745827,9.727733,2.539276,-0.951855,-0.774831,-1.125244,-0.222656,-0.004883,0.190500,-0.035088,0.032374,0.999901,0.012696,-0.004759,-0.003874,-0.283866,-0.591138,0.294033,-0.695357
36483,NaN,27.232821,-3.470675,1.759438,0.055032,2.274986,17.602324,2.284724,-1.012956,-0.544067,-1.122803,-0.235596,0.009521,0.272140,-0.035656,0.018569,0.999918,0.011423,-0.005065,-0.002720,-0.277491,-0.598652,0.285897,-0.694894
36484,NaN,35.351582,-3.567863,-0.089333,-1.882711,3.977267,25.444971,2.089795,-0.864481,-0.417735,-1.122559,-0.241943,0.030029,0.353441,-0.036416,0.000257,0.999934,0.010449,-0.004322,-0.002089,-0.271568,-0.605219,0.278990,-0.694353
36485,NaN,43.824272,-4.271236,-0.187578,-2.142822,4.799784,33.904625,2.344155,-0.959711,-0.500383,-1.115479,-0.259033,0.048828,0.438138,-0.043799,-0.000282,0.999917,0.011720,-0.004798,-0.002502,-0.264849,-0.612380,0.270619,-0.693982
36486,NaN,45.034085,-5.393331,-1.095770,-1.688320,6.299468,35.085008,2.860912,-0.761424,-1.091455,-1.115234,-0.265381,0.057129,0.450077,-0.056242,-0.010037,0.999876,0.014304,-0.003807,-0.005457,-0.258933,-0.620351,0.258936,-0.693592
36487,NaN,41.163029,-4.478596,0.738013,-0.239718,4.590676,31.343570,2.916471,0.035298,-1.307313,-1.110596,-0.278076,0.063477,0.411327,-0.047576,0.006627,0.999872,0.014582,0.000176,-0.006536,-0.254432,-0.625617,0.244690,-0.695697
36488,NaN,40.682050,-0.923504,3.076784,-0.450169,0.737502,30.986560,2.600180,-0.196622,-1.100123,-1.103760,-0.291016,0.078125,0.406730,-0.011875,0.031025,0.999900,0.013000,-0.000983,-0.005500,-0.250003,-0.631049,0.233343,-0.696295
36489,NaN,43.614992,1.008548,1.897871,-2.435668,0.427106,33.784990,1.890913,-0.416180,-0.746274,-1.101562,-0.295166,0.086426,0.436142,0.008272,0.019970,0.999946,0.009454,-0.002081,-0.003731,-0.246134,-0.635697,0.224915,-0.696219
36490,NaN,47.135046,2.129706,1.325361,-3.544755,0.123281,37.255589,1.141103,-0.203402,-0.125664,-1.105713,-0.295166,0.092529,0.471350,0.020923,0.013853,0.999983,0.005705,-0.001017,-0.000628,-0.242844,-0.638135,0.221652,-0.696190
36491,NaN,45.611467,1.878316,1.158258,-3.395374,0.207972,35.725186,0.576978,-0.139696,0.571595,-1.106201,-0.282471,0.090088,0.456050,0.020052,0.011958,0.999992,0.002885,-0.000698,0.002858,-0.238854,-0.638683,0.221637,-0.697072
36492,NaN,41.585698,0.778642,0.869649,-2.795602,0.745029,31.688538,0.243883,0.058176,0.861840,-1.110840,-0.269775,0.092041,0.415821,0.009568,0.008586,0.999990,0.001219,0.000291,0.004309,-0.235264,-0.638090,0.224220,-0.698010
36493,NaN,37.790005,0.639683,1.492494,-2.186223,0.050245,27.948773,0.167761,0.137458,0.969131,-1.115479,-0.263428,0.089844,0.377873,0.008216,0.014672,0.999988,0.000839,0.000687,0.004846,-0.231496,-0.636713,0.226564,-0.699768
36494,NaN,34.281115,1.099832,1.394172,-2.455388,-0.669666,24.419787,0.330803,0.013992,0.942879,-1.117920,-0.250732,0.091553,0.342755,0.012591,0.013938,0.999988,0.001654,0.000070,0.004714,-0.227291,-0.636298,0.229073,-0.700706
36495,NaN,30.618183,1.834288,0.555426,-3.430369,-1.067602,20.654227,0.644621,0.084645,0.897037,-1.120361,-0.239990,0.079102,0.306098,0.019698,0.005487,0.999985,0.003223,0.000423,0.004485,-0.222189,-0.635696,0.229571,-0.702723
36496,NaN,26.591588,2.682632,1.597960,-2.855919,-2.679839,16.673549,0.993437,-0.013843,0.873907,-1.118408,-0.235840,0.089355,0.265794,0.027908,0.016135,0.999978,0.004967,-0.000069,0.004370,-0.216067,-0.636217,0.229416,-0.704209
36497,NaN,22.827726,2.424183,1.520510,-2.465085,-2.656408,12.906421,1.282368,-0.203823,0.785146,-1.121094,-0.222900,0.087158,0.228164,0.025039,0.015597,0.999971,0.006412,-0.001019,0.003926,-0.208982,-0.637401,0.227614,-0.705860
36498,NaN,19.248847,1.964655,2.659538,-0.911822,-3.110241,9.447262,1.512658,-0.092683,0.509779,-1.123535,-0.212402,0.086914,0.192426,0.019935,0.026835,0.999968,0.007563,-0.000463,0.002549,-0.202352,-0.639144,0.224321,-0.707268
36499,NaN,15.953975,1.563161,4.418835,1.103050,-3.831977,6.330362,1.451657,-0.043667,0.285354,-1.127930,-0.206055,0.088867,0.159508,0.015538,0.044336,0.999973,0.007258,-0.000218,0.001427,-0.196648,-0.640430,0.220139,-0.709026
36500,NaN,12.317801,1.229099,5.482794,2.585246,-4.140294,2.815624,1.153433,-0.019416,0.190315,-1.132080,-0.208008,0.090820,0.123161,0.012092,0.054910,0.999983,0.005767,-0.000097,0.000952,-0.192326,-0.641815,0.216818,-0.709982
36501,NaN,8.203585,1.109883,5.671776,3.250658,-4.106180,-1.252771,0.568636,0.063838,0.195192,-1.130127,-0.201660,0.084717,0.082043,0.011018,0.056723,0.999995,0.002843,0.000319,0.000976,-0.189875,-0.641921,0.215365,-0.710988
36502,NaN,3.588508,1.272452,4.982020,3.067075,-3.831629,-5.910293,-0.170349,0.176780,0.272025,-1.134766,-0.193115,0.078369,0.035912,0.012816,0.049778,0.999998,-0.000852,0.000884,0.001360,-0.189665,-0.641149,0.216612,-0.711361
36503,NaN,-0.951924,1.679565,3.762071,2.291767,-3.476303,-10.549794,-0.785332,0.338219,0.302899,-1.134766,-0.190918,0.053711,-0.009481,0.016929,0.037570,0.999990,-0.003927,0.001691,0.001514,-0.191468,-0.638867,0.220056,-0.711874
36504,NaN,-5.116059,2.109240,2.937941,1.816084,-3.352237,-14.784485,-0.980901,0.426193,0.280569,-1.132568,-0.190918,0.057861,-0.051128,0.021165,0.029385,0.999985,-0.004904,0.002131,0.001403,-0.194058,-0.636289,0.223824,-0.712306
36505,NaN,-7.748496,2.044403,2.184722,1.536634,-2.859656,-17.458137,-0.814623,0.319719,0.214024,-1.136963,-0.188721,0.047607,-0.077472,0.020450,0.021888,0.999990,-0.004073,0.001599,0.001070,-0.196242,-0.634114,0.227096,-0.712612
36506,NaN,-8.218604,1.070684,0.904742,1.109565,-1.335820,-17.967121,-0.233150,0.245288,0.000952,-1.139404,-0.182373,0.039307,-0.082175,0.010717,0.009136,0.999999,-0.001166,0.001226,0.000005,-0.197222,-0.633166,0.227343,-0.713106
36507,NaN,-7.342197,-0.245361,0.398659,1.344117,0.014973,-17.045951,0.657239,0.022739,-0.223132,-1.137207,-0.184570,0.041260,-0.073424,-0.002385,0.003987,0.999994,0.003286,0.000114,-0.001116,-0.195960,-0.633982,0.224272,-0.713701
36508,NaN,-5.769802,-1.352614,0.344594,1.718052,0.944714,-15.415782,1.385873,-0.114885,-0.283863,-1.136963,-0.193115,0.045654,-0.057719,-0.013468,0.003319,0.999975,0.006929,-0.000574,-0.001419,-0.192393,-0.636143,0.218199,-0.714630
36509,NaN,-3.860781,-1.961733,0.272179,1.737575,1.497495,-13.495927,2.010457,-0.185433,-0.372149,-1.136719,-0.193115,0.053711,-0.038647,-0.019571,0.002489,0.999947,0.010052,-0.000927,-0.001861,-0.187114,-0.639111,0.210001,-0.715839
36510,NaN,1.012541,-0.944168,0.959472,1.192027,0.294028,-8.659518,2.131311,0.229312,-0.529203,-1.138672,-0.203613,0.047852,0.010111,-0.009570,0.009482,0.999939,0.010656,0.001147,-0.002646,-0.182390,-0.640861,0.200201,-0.718297
36511,NaN,-1.506272,-0.970828,0.588093,1.167222,0.517586,-11.200816,1.746993,0.433523,-0.485051,-1.147217,-0.201416,0.045654,-0.015074,-0.009723,0.005829,0.999957,0.008735,0.002168,-0.002425,-0.178959,-0.641354,0.191971,-0.720962
36512,NaN,-1.660931,-1.491422,0.415023,1.283312,1.062692,-11.355089,1.923018,0.046339,-0.547069,-1.136230,-0.209961,0.043701,-0.016649,-0.014908,0.004011,0.999950,0.009615,0.000232,-0.002735,-0.174756,-0.643405,0.182993,-0.722499
36513,NaN,0.260345,-0.954724,0.291019,0.684232,0.700997,-9.489620,1.592402,0.053071,-0.707608,-1.135986,-0.220703,0.048096,0.002570,-0.009579,0.002833,0.999962,0.007962,0.000265,-0.003538,-0.172229,-0.645226,0.174913,-0.723482
36514,NaN,1.279889,0.310657,-0.211145,-0.467418,-0.139564,-8.571220,1.110508,0.078445,-0.814140,-1.133301,-0.233398,0.050293,0.012811,0.003066,-0.002099,0.999976,0.005552,0.000392,-0.004071,-0.171639,-0.646570,0.168020,-0.724056
36515,NaN,1.590609,1.008066,-0.423169,-1.004822,-0.641169,-8.294621,0.635400,0.186402,-0.824649,-1.135498,-0.235596,0.048340,0.015944,0.010028,-0.004215,0.999986,0.003177,0.000932,-0.004123,-0.172723,-0.647123,0.162893,-0.724476
36516,NaN,1.668634,0.829594,-0.870740,-1.320064,-0.263795,-8.257508,0.184355,0.268976,-0.830297,-1.135010,-0.250488,0.042480,0.016709,0.008235,-0.008722,0.999990,0.000922,0.001345,-0.004151,-0.175355,-0.646995,0.159158,-0.724787
36517,NaN,2.015133,0.013764,-1.160863,-1.233245,0.624882,-7.942619,-0.097230,0.315687,-0.758868,-1.130615,-0.252441,0.034424,0.020133,0.000056,-0.011640,0.999991,-0.000486,0.001578,-0.003794,-0.178668,-0.646362,0.156779,-0.725061
36518,NaN,1.759532,-1.098568,-1.177495,-0.704921,1.620853,-8.211068,-0.221789,0.348294,-0.732350,-1.132324,-0.260986,0.034424,0.017534,-0.011063,-0.011793,0.999991,-0.001109,0.001741,-0.003662,-0.182308,-0.645514,0.154778,-0.725340
36519,NaN,1.799315,-1.850295,-0.643410,0.116301,2.056493,-8.129720,-0.257702,0.292876,-0.658139,-1.125732,-0.271729,0.030518,0.017923,-0.018570,-0.006436,0.999993,-0.001289,0.001464,-0.003291,-0.185751,-0.644720,0.153322,-0.725483
36520,NaN,1.768962,-1.768247,-0.463439,0.247052,1.908459,-8.149128,-0.371513,0.256664,-0.550185,-1.127686,-0.275879,0.024658,0.017635,-0.017740,-0.004624,0.999994,-0.001858,0.001283,-0.002751,-0.189142,-0.643927,0.152621,-0.725458
36521,NaN,1.195113,-1.369211,-0.853605,-0.217354,1.700639,-8.767583,-0.524375,0.273745,-0.465195,-1.123291,-0.284424,0.018555,0.011908,-0.013742,-0.008516,0.999993,-0.002622,0.001369,-0.002326,-0.192724,-0.642787,0.152767,-0.725496
36522,NaN,0.315576,-0.800846,-1.011025,-0.529200,1.207027,-9.651014,-0.689695,0.216993,-0.318807,-1.127441,-0.282227,0.018555,0.003132,-0.008048,-0.010086,0.999992,-0.003448,0.001085,-0.001594,-0.196271,-0.641637,0.154066,-0.725288
36523,NaN,-1.225028,-0.378356,-0.867673,-0.451837,0.638136,-11.148850,-0.565730,-0.407622,-0.356449,-1.121094,-0.284424,0.018555,-0.012239,-0.003786,-0.008691,0.999992,-0.002829,-0.002038,-0.001782,-0.199061,-0.642828,0.155375,-0.723191
36524,NaN,1.942446,0.424849,-0.691824,-0.991962,0.138484,-7.960922,-1.181538,0.169904,-0.000137,-1.121094,-0.284424,0.012451,0.019419,0.004207,-0.006960,0.999982,-0.005908,0.000850,-0.000001,-0.202996,-0.641099,0.159538,-0.722725
36525,NaN,0.294202,0.061601,-1.442390,-1.297388,0.690022,-9.705662,-1.466527,0.380976,0.138290,-1.129639,-0.284424,0.008301,0.002914,0.000512,-0.014433,0.999971,-0.007333,0.001905,0.000691,-0.207494,-0.638103,0.164891,-0.722898
36526,NaN,-0.911103,-0.797837,-1.232717,-0.543481,1.229665,-10.898388,-1.468008,0.325752,0.266194,-1.123535,-0.273682,-0.001953,-0.009120,-0.008081,-0.012253,0.999971,-0.007340,0.001629,0.001331,-0.211493,-0.635256,0.170767,-0.722883
36527,NaN,-0.609716,-1.472465,-1.837371,-0.707578,2.153117,-10.695401,-1.175257,0.326319,0.356688,-1.125488,-0.277832,-0.008057,-0.006101,-0.014843,-0.018277,0.999980,-0.005876,0.001632,0.001783,-0.214210,-0.632514,0.175800,-0.723280
36528,NaN,-0.396480,-1.994204,-2.177141,-0.711828,2.800671,-10.536206,-0.763098,0.275718,0.412572,-1.125732,-0.269531,-0.010254,-0.003953,-0.020033,-0.021690,0.999990,-0.003815,0.001379,0.002063,-0.215393,-0.630429,0.179680,-0.723795
36529,NaN,-0.586172,-2.211280,-1.924678,-0.343687,2.838747,-10.685103,-0.464151,0.191492,0.444314,-1.125977,-0.265137,-0.014404,-0.005831,-0.022170,-0.019190,0.999994,-0.002321,0.000957,0.002222,-0.215418,-0.628832,0.182555,-0.724458
36530,NaN,-0.431131,-1.671293,-1.633723,-0.401002,2.245892,-10.478498,-0.235142,0.085481,0.475608,-1.126221,-0.254639,-0.012695,-0.004278,-0.016742,-0.016316,0.999996,-0.001176,0.000427,0.002378,-0.214541,-0.627942,0.185003,-0.724869
36531,NaN,0.117490,-0.724591,-1.492653,-0.859460,1.420853,-9.909406,-0.219147,0.108933,0.538040,-1.130615,-0.254395,-0.016846,0.001186,-0.007259,-0.014919,0.999996,-0.001096,0.000545,0.002690,-0.213378,-0.626810,0.187371,-0.725584
36532,NaN,-0.121453,-0.306530,-1.274128,-0.873039,0.937487,-10.114403,-0.336954,0.166958,0.587071,-1.120361,-0.246094,-0.014893,-0.001216,-0.003090,-0.012735,0.999994,-0.001685,0.000835,0.002935,-0.212492,-0.625406,0.190493,-0.726241
36533,NaN,-0.496147,-0.377855,-0.968436,-0.528274,0.809398,-10.439266,-0.495842,0.140454,0.628858,-1.122559,-0.239746,-0.014893,-0.004956,-0.003818,-0.009671,0.999992,-0.002479,0.000702,0.003144,-0.211890,-0.623764,0.194111,-0.726872
36534,NaN,-0.614154,-0.495418,-0.772591,-0.279119,0.798697,-10.522396,-0.719514,0.092256,0.638588,-1.126953,-0.235352,-0.012939,-0.006129,-0.005002,-0.007705,0.999988,-0.003598,0.000461,0.003193,-0.211946,-0.622165,0.198865,-0.726940
36535,NaN,-0.600174,-0.334689,-0.730692,-0.327411,0.649196,-10.503681,-0.967839,0.064643,0.615883,-1.123047,-0.224854,-0.015137,-0.005994,-0.003401,-0.007289,0.999983,-0.004839,0.000323,0.003079,-0.212778,-0.620280,0.204229,-0.726821
36536,NaN,-0.843844,-0.245064,-0.555978,-0.192650,0.471442,-10.719250,-1.194408,0.030195,0.588725,-1.129639,-0.218506,-0.017334,-0.008432,-0.002509,-0.005544,0.999978,-0.005972,0.000151,0.002944,-0.214410,-0.618421,0.210608,-0.726105
36537,NaN,-0.955709,-0.465800,-0.219189,0.230716,0.459944,-10.768514,-1.347116,-0.038106,0.558424,-1.127686,-0.212158,-0.017578,-0.009544,-0.004699,-0.002162,0.999973,-0.006736,-0.000191,0.002792,-0.216501,-0.616509,0.217263,-0.725149
36538,NaN,-0.747665,-0.981299,-0.139450,0.575511,0.841990,-10.520653,-1.480791,-0.124097,0.514659,-1.125977,-0.205811,-0.011475,-0.007451,-0.009842,-0.001326,0.999969,-0.007404,-0.000620,0.002573,-0.219093,-0.614908,0.224598,-0.723493
36539,NaN,-0.397388,-1.348239,-0.061976,0.817706,1.098721,-10.134618,-1.530173,-0.188497,0.476619,-1.119385,-0.205811,-0.009277,-0.003941,-0.013496,-0.000520,0.999967,-0.007651,-0.000942,0.002383,-0.221853,-0.613357,0.231799,-0.721695
36540,NaN,-0.253241,-1.394403,0.571715,1.333487,0.742128,-9.892491,-1.427520,-0.176998,0.406709,-1.120117,-0.190918,-0.007568,-0.002509,-0.013908,0.005814,0.999972,-0.007138,-0.000885,0.002034,-0.224598,-0.612067,0.238656,-0.719703
36541,NaN,0.005777,-1.128084,1.135968,1.573320,0.173675,-9.572891,-1.224299,-0.222822,0.373155,-1.119873,-0.193115,-0.003418,0.000066,-0.011211,0.011429,0.999979,-0.006121,-0.001114,0.001866,-0.226729,-0.611035,0.244450,-0.717965
36542,NaN,0.818130,-0.931608,1.622944,1.701590,-0.285680,-8.719933,-1.040442,-0.306138,0.295876,-1.119873,-0.193115,0.004639,0.008170,-0.009219,0.016290,0.999984,-0.005202,-0.001531,0.001479,-0.228506,-0.610705,0.249738,-0.715860
36543,NaN,2.827405,-1.084767,2.139660,1.890336,-0.478923,-6.658917,-0.796592,-0.421251,0.205928,-1.119873,-0.197266,0.006836,0.028240,-0.010733,0.021499,0.999989,-0.003983,-0.002106,0.001030,-0.229671,-0.611039,0.253698,-0.713807
36544,NaN,6.187066,-1.835344,2.518322,2.174062,-0.122713,-3.236330,-0.257347,-0.526150,0.057685,-1.115723,-0.195312,0.019043,0.061809,-0.018303,0.025369,0.999996,-0.001287,-0.002631,0.000288,-0.229609,-0.612687,0.255619,-0.711726
36545,NaN,11.884945,-3.471453,3.678593,3.321702,0.439098,2.661610,0.599799,-0.578887,-0.137653,-1.117432,-0.201660,0.033447,0.118719,-0.034907,0.037025,0.999991,0.002999,-0.002894,-0.000688,-0.227517,-0.615607,0.253727,-0.710554
36546,NaN,19.457998,-4.822782,4.446914,3.818893,1.080307,10.334154,1.308481,-0.672719,-0.307895,-1.113037,-0.205811,0.043945,0.194355,-0.048820,0.044805,0.999972,0.006542,-0.003364,-0.001539,-0.223728,-0.619957,0.249102,-0.709611
36547,NaN,27.939796,-5.421913,3.628408,2.614118,2.131493,18.679672,1.150031,-0.868108,-0.121610,-1.111084,-0.206055,0.064209,0.279205,-0.054601,0.037183,0.999974,0.005750,-0.004341,-0.000608,-0.219506,-0.624460,0.245611,-0.708196
36548,NaN,36.252873,-5.648536,1.711992,0.460200,3.383215,26.758342,0.772963,-1.056057,0.073837,-1.115234,-0.208008,0.076660,0.362453,-0.056422,0.018816,0.999979,0.003865,-0.005280,0.000369,-0.215507,-0.628926,0.244511,-0.705849
36549,NaN,44.274803,-3.856397,0.086067,-2.542401,2.697773,34.474779,0.413639,-1.022657,0.027080,-1.119141,-0.216553,0.089111,0.442741,-0.038509,0.003045,0.999985,0.002068,-0.005113,0.000135,-0.212855,-0.632940,0.244236,-0.703156
36550,NaN,41.602442,-2.795180,-0.329213,-2.954152,2.133784,31.725168,0.380451,0.014753,-0.880735,-1.108398,-0.223145,0.091309,0.415896,-0.029777,-0.003378,0.999988,0.001902,0.000074,-0.004404,-0.214741,-0.634341,0.240369,-0.702653
36551,NaN,35.648460,-0.332877,4.138070,-0.171454,-2.224015,26.007188,0.301144,0.345959,-0.762887,-1.105713,-0.235840,0.089355,0.356539,-0.004750,0.040758,0.999990,0.001506,0.001730,-0.003814,-0.216878,-0.634361,0.236520,-0.703284
36552,NaN,34.061942,1.957419,4.690497,-0.897368,-4.236467,24.353010,0.193205,-0.081859,-0.129831,-1.107910,-0.231445,0.093506,0.340613,0.019308,0.047063,0.999999,0.000966,-0.000409,-0.000649,-0.216611,-0.635011,0.235744,-0.703040
36553,NaN,38.765157,2.589163,5.117325,-1.418131,-5.017783,29.025920,-0.081840,-0.027059,0.334909,-1.110352,-0.223145,0.091309,0.387601,0.026562,0.051215,0.999999,-0.000409,-0.000135,0.001675,-0.215659,-0.634623,0.237126,-0.703218
36554,NaN,42.271665,2.121219,5.198091,-1.593132,-4.918220,32.515451,-0.353989,-0.010329,0.964594,-1.112793,-0.214600,0.093018,0.422605,0.023343,0.051963,0.999987,-0.001770,-0.000052,0.004823,-0.213369,-0.633134,0.241545,-0.703755
36555,NaN,42.879655,-0.158840,4.410488,-1.192045,-3.031109,33.169951,-0.419293,-0.031583,1.276325,-1.111328,-0.197510,0.092773,0.428788,0.001241,0.044172,0.999977,-0.002096,-0.000158,0.006382,-0.210160,-0.631244,0.247091,-0.704493
36556,NaN,42.572678,-1.495583,3.557228,-1.313696,-1.888059,32.872345,-0.195803,-0.097797,1.155840,-1.111572,-0.188965,0.086426,0.425786,-0.012460,0.035793,0.999983,-0.000979,-0.000489,0.005779,-0.206585,-0.629961,0.251550,-0.705120
36557,NaN,40.859919,-1.843483,2.330833,-2.100584,-1.174516,31.084269,0.270091,-0.035696,0.913385,-1.118408,-0.176270,0.092285,0.408674,-0.016600,0.023358,0.999989,0.001350,-0.000178,0.004567,-0.202464,-0.629211,0.253511,-0.706281
36558,NaN,36.388310,-1.794608,2.241891,-1.827862,-1.230544,26.622135,0.703234,0.102612,0.644723,-1.120605,-0.172119,0.090332,0.363950,-0.016851,0.022172,0.999988,0.003516,0.000513,0.003224,-0.198111,-0.628764,0.252943,-0.708115
36559,NaN,31.038694,-1.360784,2.478969,-1.333598,-1.617958,21.283941,0.991404,0.089339,0.404730,-1.120850,-0.163574,0.082031,0.310425,-0.013102,0.024585,0.999986,0.004957,0.000447,0.002024,-0.193669,-0.628911,0.250615,-0.710039
36560,NaN,26.077695,-0.228618,2.179043,-1.625385,-2.173034,16.215810,1.031876,0.012778,0.120374,-1.116699,-0.163574,0.088135,0.260780,-0.002242,0.021762,0.999987,0.005159,0.000064,0.000602,-0.190023,-0.629740,0.247288,-0.711454
36561,NaN,21.655519,1.216051,2.194195,-1.855673,-3.148186,11.679173,0.779695,0.082408,-0.098510,-1.121094,-0.159180,0.079834,0.216570,0.011968,0.021900,0.999992,0.003898,0.000412,-0.000493,-0.188016,-0.630307,0.244126,-0.712577
36562,NaN,17.569860,1.774429,2.563295,-1.315675,-3.605377,7.613988,0.442231,0.200188,-0.238101,-1.123047,-0.163574,0.069580,0.175745,0.017479,0.025496,0.999996,0.002211,0.001001,-0.001191,-0.187731,-0.630338,0.241557,-0.713500
36563,NaN,13.652683,1.375716,3.224221,-0.020772,-3.468885,3.849309,0.068739,0.200055,-0.279788,-1.118896,-0.161377,0.071777,0.136578,0.013555,0.032110,0.999998,0.000344,0.001000,-0.001399,-0.188752,-0.630027,0.240243,-0.713948
36564,NaN,10.530702,-0.200991,3.485426,1.513794,-2.193532,0.956762,-0.324730,0.198137,-0.339397,-1.120850,-0.163574,0.059326,0.105338,-0.002132,0.034753,0.999997,-0.001624,0.000991,-0.001697,-0.191242,-0.629455,0.240062,-0.713851
36565,NaN,7.730726,-1.787498,3.835485,3.083099,-1.008763,-1.618353,-0.690923,0.233109,-0.420783,-1.123047,-0.165527,0.055420,0.077314,-0.017905,0.038327,0.999991,-0.003455,0.001166,-0.002104,-0.195195,-0.628464,0.240981,-0.713345
36566,NaN,4.514526,-3.330753,3.632613,4.252468,0.432582,-4.674585,-0.841598,0.245937,-0.494038,-1.118408,-0.171875,0.045166,0.045108,-0.033266,0.036411,0.999987,-0.004208,0.001230,-0.002470,-0.199905,-0.627368,0.242106,-0.712624
36567,NaN,0.748392,-4.309292,3.485937,5.223815,1.351979,-8.341083,-0.706145,0.226546,-0.640996,-1.128906,-0.180420,0.039307,0.007386,-0.042993,0.035003,0.999988,-0.003531,0.001133,-0.003205,-0.204674,-0.626625,0.242384,-0.711829
36568,NaN,-3.013129,-4.413047,3.255757,5.602641,1.583278,-12.105577,-0.424909,0.128739,-0.682492,-1.126709,-0.182373,0.037354,-0.030260,-0.043958,0.032671,0.999992,-0.002125,0.000644,-0.003412,-0.208586,-0.626539,0.241569,-0.711045
36569,NaN,-5.855692,-3.743277,2.519291,4.974095,1.477339,-15.078024,-0.038141,-0.000659,-0.610037,-1.126221,-0.190918,0.035400,-0.058671,-0.037249,0.025200,0.999995,-0.000191,-0.000003,-0.003050,-0.210871,-0.627237,0.239795,-0.710356
36570,NaN,-6.544987,-2.120737,2.344412,3.927988,0.271523,-15.922332,0.275947,-0.092743,-0.460737,-1.124268,-0.193115,0.027100,-0.065509,-0.021089,0.023385,0.999996,0.001380,-0.000464,-0.002304,-0.211507,-0.628368,0.237442,-0.709958
36571,NaN,-1.029874,0.248619,2.437368,1.906405,-1.675076,-10.601922,-0.052607,1.012948,-0.383962,-1.121826,-0.197266,0.008789,-0.010170,0.002512,0.024425,0.999985,-0.000263,0.005065,-0.001920,-0.214233,-0.625165,0.235349,-0.712660
36572,NaN,-5.165655,-0.556425,1.036304,1.823267,-0.263155,-14.779948,0.332585,1.119387,-0.419943,-1.119629,-0.199463,-0.003418,-0.051609,-0.005473,0.010643,0.999981,0.001663,0.005597,-0.002100,-0.215982,-0.621946,0.231618,-0.716162
36573,NaN,-5.559911,-1.713957,1.081359,2.628015,0.590501,-15.081877,0.562799,0.707945,-0.262013,-1.121582,-0.205811,-0.011475,-0.055583,-0.017097,0.010962,0.999989,0.002814,0.003540,-0.001310,-0.215985,-0.620317,0.228022,-0.718723
36574,NaN,-3.450464,-0.961893,0.621138,1.533961,0.300084,-13.095011,0.709389,0.263489,-0.556500,-1.123779,-0.205811,-0.015625,-0.034523,-0.009545,0.006223,0.999989,0.003547,0.001317,-0.002782,-0.216064,-0.620688,0.223437,-0.719818
36575,NaN,-1.006982,-0.697595,0.762850,1.153913,0.081057,-10.675532,0.799535,-0.010484,-0.470632,-1.119141,-0.214355,-0.007080,-0.010087,-0.006983,0.007600,0.999989,0.003998,-0.000052,-0.002353,-0.215261,-0.622110,0.219110,-0.720162
36576,NaN,0.277328,-0.822139,0.472764,0.820470,0.404472,-9.439116,0.534872,0.080663,-0.466367,-1.127441,-0.222656,-0.011230,0.002756,-0.008240,0.004705,0.999994,0.002674,0.000403,-0.002332,-0.215329,-0.622834,0.215629,-0.720566
36577,NaN,0.857096,-0.845302,-0.373252,0.076409,0.942344,-8.979252,0.217432,0.144926,-0.492095,-1.123047,-0.224854,-0.010986,0.008547,-0.008470,-0.003748,0.999996,0.001087,0.000725,-0.002460,-0.216578,-0.623076,0.213158,-0.720718
36578,NaN,1.304231,-0.914542,-1.083873,-0.512285,1.435513,-8.634111,-0.095759,0.193768,-0.533178,-1.123047,-0.229004,-0.021240,0.013007,-0.009185,-0.010847,0.999996,-0.000479,0.000969,-0.002666,-0.218989,-0.622780,0.211628,-0.720696
36579,NaN,2.197531,-1.141214,-1.523304,-0.843011,1.931039,-7.809600,-0.358609,0.297918,-0.478654,-1.120850,-0.231201,-0.023193,0.021925,-0.011492,-0.015245,0.999994,-0.001793,0.001490,-0.002393,-0.222143,-0.621817,0.211104,-0.720715
36580,NaN,2.574256,-1.728033,-2.273828,-1.142668,2.879610,-7.535562,-0.350086,0.335270,-0.389554,-1.120605,-0.237549,-0.027100,0.025671,-0.017370,-0.022751,0.999995,-0.001750,0.001676,-0.001948,-0.224956,-0.620568,0.210783,-0.721013
36581,NaN,2.007399,-2.161883,-3.144790,-1.502999,3.715069,-8.221358,-0.149308,0.148494,-0.333815,-1.124512,-0.246094,-0.027100,0.020014,-0.021676,-0.031447,0.999998,-0.000747,0.000742,-0.001669,-0.226777,-0.620216,0.210120,-0.720940
36582,NaN,1.360563,-2.052380,-2.608344,-1.050762,3.274612,-8.793045,0.115386,-0.285544,-0.361552,-1.118164,-0.243896,-0.027100,0.013606,-0.020533,-0.026076,0.999997,0.000577,-0.001428,-0.001808,-0.227406,-0.621723,0.208930,-0.719788
36583,NaN,3.971842,0.074094,-1.984289,-2.117982,1.370779,-6.158440,-0.300193,-0.015743,-0.132754,-1.115967,-0.246094,-0.027100,0.039720,0.000685,-0.019841,0.999999,-0.001501,-0.000079,-0.000664,-0.228798,-0.621577,0.209618,-0.719273
36584,NaN,1.839886,0.980707,-2.754793,-3.002363,0.955443,-8.395375,-0.493460,0.178002,0.092728,-1.120117,-0.250244,-0.027100,0.018370,0.009748,-0.027588,0.999996,-0.002467,0.000890,0.000464,-0.230161,-0.620251,0.211507,-0.719430
36585,NaN,-0.075233,1.096896,-1.635363,-1.941299,0.081991,-10.141136,-0.535345,0.178730,0.150697,-1.115967,-0.246094,-0.031250,-0.000775,0.010925,-0.016382,0.999996,-0.002677,0.000894,0.000753,-0.231465,-0.618830,0.213695,-0.719588
36586,NaN,-0.980063,0.970685,-1.379714,-1.546696,-0.019651,-11.001678,-0.620723,0.043873,0.244821,-1.120605,-0.237549,-0.031250,-0.009816,0.009652,-0.013825,0.999994,-0.003104,0.000219,0.001224,-0.232549,-0.617690,0.216663,-0.719332
36587,NaN,-1.118537,0.937579,-0.985122,-1.196368,-0.227648,-11.084502,-0.575767,-0.059361,0.276976,-1.126953,-0.237549,-0.035400,-0.011195,0.009332,-0.009881,0.999995,-0.002879,-0.000297,0.001385,-0.233263,-0.616931,0.219659,-0.718843
36588,NaN,-1.071864,0.905730,-0.492037,-0.796241,-0.487604,-10.970087,-0.547688,-0.084153,0.297686,-1.125000,-0.231201,-0.035645,-0.010730,0.009028,-0.004950,0.999995,-0.002738,-0.000421,0.001488,-0.233763,-0.616267,0.222670,-0.718323
36589,NaN,-0.744117,1.004403,-0.115822,-0.607414,-0.767233,-10.599039,-0.569466,-0.123188,0.291175,-1.123047,-0.229004,-0.029541,-0.007455,0.010030,-0.001191,0.999995,-0.002847,-0.000616,0.001456,-0.234331,-0.615716,0.225757,-0.717646
36590,NaN,-0.540247,0.941043,-0.141533,-0.618493,-0.683782,-10.402065,-0.598297,-0.119162,0.272589,-1.125244,-0.224854,-0.035645,-0.005414,0.009399,-0.001447,0.999994,-0.002991,-0.000596,0.001363,-0.235041,-0.615139,0.228902,-0.716913
36591,NaN,-0.599251,0.711485,-0.221420,-0.533231,-0.451999,-10.465142,-0.675273,-0.124348,0.232892,-1.125244,-0.222656,-0.027588,-0.005999,0.007100,-0.002242,0.999993,-0.003376,-0.000622,0.001164,-0.236137,-0.614521,0.232186,-0.716026
36592,NaN,-0.425685,0.565357,-0.432440,-0.629445,-0.191306,-10.317701,-0.758609,-0.149117,0.246652,-1.123291,-0.220459,-0.031494,-0.004261,0.005632,-0.004349,0.999992,-0.003793,-0.000746,0.001233,-0.237397,-0.613877,0.235850,-0.714963
36593,NaN,-0.398442,0.343461,-0.663121,-0.670029,0.133678,-10.312327,-0.759894,-0.114357,0.168732,-1.121338,-0.216309,-0.029541,-0.003984,0.003406,-0.006646,0.999992,-0.003799,-0.000572,0.000844,-0.238988,-0.613180,0.239220,-0.713911
36594,NaN,-0.426213,0.232082,-0.627621,-0.567256,0.201844,-10.329316,-0.797829,-0.151313,0.104300,-1.123291,-0.220459,-0.027588,-0.004259,0.002294,-0.006289,0.999992,-0.003989,-0.000757,0.000521,-0.240873,-0.612650,0.242581,-0.712597
36595,NaN,-0.587853,0.286636,-0.732988,-0.658978,0.226325,-10.505164,-0.777248,-0.161044,0.030478,-1.119141,-0.218506,-0.027588,-0.005873,0.002837,-0.007346,0.999992,-0.003886,-0.000805,0.000152,-0.242946,-0.612247,0.245638,-0.711192
36596,NaN,-0.698362,0.123555,-0.616739,-0.450685,0.275791,-10.589966,-0.671151,-0.186529,-0.056586,-1.119141,-0.216309,-0.021484,-0.006978,0.001217,-0.006178,0.999994,-0.003356,-0.000933,-0.000283,-0.244985,-0.612186,0.248086,-0.709693
36597,NaN,-0.385994,-0.025548,-0.311639,-0.165808,0.206382,-10.233017,-0.608813,-0.245528,-0.126879,-1.119141,-0.218506,-0.015381,-0.003856,-0.000263,-0.003120,0.999994,-0.003044,-0.001228,-0.000634,-0.246990,-0.612466,0.250159,-0.708027
36598,NaN,0.210041,0.274702,0.098811,-0.134093,-0.262294,-9.606379,-0.642898,-0.282543,-0.219415,-1.116455,-0.231201,-0.017090,0.002102,0.002748,0.000982,0.999993,-0.003214,-0.001413,-0.001097,-0.249366,-0.612994,0.252133,-0.706034
36599,NaN,0.928124,0.978414,0.237607,-0.587836,-0.847779,-8.912197,-0.750127,-0.308259,-0.290558,-1.118652,-0.231201,-0.012939,0.009292,0.009779,0.002354,0.999991,-0.003751,-0.001541,-0.001453,-0.252298,-0.613509,0.254274,-0.703774
36600,NaN,1.489515,1.611426,0.186263,-1.119633,-1.252997,-8.389153,-0.914621,-0.267495,-0.331860,-1.116455,-0.231201,-0.006836,0.014919,0.016098,0.001809,0.999987,-0.004573,-0.001337,-0.001659,-0.255977,-0.613767,0.256803,-0.701298
36601,NaN,1.733888,2.031055,0.372092,-1.303783,-1.665313,-8.140306,-0.978805,-0.204435,-0.369016,-1.110107,-0.235596,-0.004639,0.017373,0.020296,0.003639,0.999986,-0.004894,-0.001022,-0.001845,-0.260007,-0.613697,0.259363,-0.698930
36602,NaN,2.213104,2.088875,0.419529,-1.371411,-1.704101,-7.655728,-0.932152,-0.176657,-0.436337,-1.103516,-0.241943,-0.000488,0.022173,0.020860,0.004118,0.999986,-0.004661,-0.000883,-0.002182,-0.264172,-0.613748,0.261526,-0.696513
36603,NaN,3.700662,1.340018,0.860127,-0.699045,-1.382573,-6.093793,-0.731320,-0.224958,-0.536862,-1.105225,-0.252686,0.010010,0.037033,0.013332,0.008594,0.999989,-0.003657,-0.001125,-0.002684,-0.267987,-0.614263,0.262722,-0.694148
36604,NaN,6.251193,0.073271,1.433422,0.356589,-0.735545,-3.451150,-0.404531,-0.362473,-0.646419,-1.104736,-0.263184,0.010010,0.062488,0.000560,0.014446,0.999991,-0.002023,-0.001812,-0.003232,-0.271046,-0.615976,0.262638,-0.691469
36605,NaN,9.748379,-0.824844,1.926588,1.068449,-0.245397,0.097940,0.013357,-0.518501,-0.741013,-1.096191,-0.269531,0.024658,0.097402,-0.008611,0.019518,0.999990,0.000067,-0.002592,-0.003705,-0.272880,-0.618756,0.261012,-0.688876
36606,NaN,14.136502,-0.759828,2.401812,1.108723,-0.373339,4.498718,0.209389,-0.610048,-0.782821,-1.095947,-0.278076,0.026855,0.141260,-0.008177,0.024441,0.999987,0.001047,-0.003050,-0.003914,-0.274214,-0.622337,0.258708,-0.685984
36607,NaN,18.640420,0.666157,1.373129,-0.793746,-0.410689,8.868666,-0.145062,-0.623765,-0.790631,-1.091064,-0.291016,0.041260,0.186385,0.005935,0.014308,0.999987,-0.000725,-0.003119,-0.003953,-0.276564,-0.625296,0.257599,-0.682759
36608,NaN,21.914335,2.250190,-0.649763,-3.362143,0.083115,11.968261,-0.645608,-0.527349,-0.706062,-1.086670,-0.301514,0.045654,0.219237,0.021708,-0.005991,0.999985,-0.003228,-0.002637,-0.003530,-0.280389,-0.627238,0.258334,-0.679130
36609,NaN,23.494846,3.161960,-1.681847,-4.645281,0.303939,13.493116,-0.809499,-0.451478,-0.649745,-1.084229,-0.310059,0.049805,0.235087,0.030789,-0.016414,0.999984,-0.004047,-0.002257,-0.003249,-0.284544,-0.628471,0.259676,-0.675743
36610,NaN,24.845700,3.257812,-1.740971,-4.667157,0.419812,14.865095,-0.807048,-0.273462,-0.470284,-1.079590,-0.318604,0.050049,0.248556,0.031924,-0.017200,0.999988,-0.004035,-0.001367,-0.002351,-0.288360,-0.628916,0.261304,-0.673077
36611,NaN,23.671278,1.951035,-0.687486,-2.850529,0.587297,13.769869,-0.636084,0.026351,-0.477694,-1.077393,-0.322998,0.052246,0.236758,0.018923,-0.006967,0.999992,-0.003180,0.000132,-0.002388,-0.291997,-0.628535,0.261904,-0.671631
36612,NaN,23.329044,1.306398,0.665364,-1.356904,0.138648,13.522518,-0.569534,0.038708,-0.577496,-1.074951,-0.333496,0.056396,0.233328,0.012409,0.006573,0.999992,-0.002848,0.000194,-0.002887,-0.295799,-0.628359,0.261934,-0.670118
36613,NaN,24.857938,1.711754,-0.053249,-2.101193,0.570106,15.008846,-0.468567,-0.127661,-0.528872,-1.070557,-0.335693,0.060547,0.248624,0.016459,-0.000413,0.999994,-0.002343,-0.000638,-0.002644,-0.298871,-0.628788,0.262031,-0.668312
36614,NaN,25.466261,1.945845,-0.795820,-2.697841,1.057858,15.575337,-0.253138,-0.077210,-0.387950,-1.068115,-0.346191,0.052490,0.254703,0.018954,-0.007884,0.999997,-0.001266,-0.000386,-0.001940,-0.300882,-0.629209,0.261765,-0.667117
36615,NaN,23.393513,1.801958,0.161959,-1.817414,0.387623,13.576958,-0.187388,0.151506,-0.435855,-1.063965,-0.344238,0.060791,0.233975,0.017511,0.001426,0.999997,-0.000937,0.000758,-0.002179,-0.303120,-0.628995,0.260792,-0.666686
36616,NaN,22.349560,1.537590,1.349891,-0.739915,-0.287590,12.616273,-0.173281,0.120737,-0.412597,-1.063477,-0.359131,0.050781,0.223535,0.014926,0.013351,0.999997,-0.000866,0.000604,-0.002063,-0.305220,-0.628905,0.259883,-0.666168
36617,NaN,23.274361,1.167307,1.294156,-0.469106,0.136983,13.521708,-0.047025,-0.097470,-0.324442,-1.063477,-0.356934,0.054932,0.232756,0.011299,0.013052,0.999999,-0.000235,-0.000487,-0.001622,-0.306319,-0.629584,0.259169,-0.665300
36618,NaN,23.291607,0.989404,0.912694,-0.518686,0.570682,13.505020,-0.118259,-0.146885,-0.356919,-1.056885,-0.365479,0.059082,0.232926,0.009484,0.009292,0.999998,-0.000591,-0.000734,-0.001785,-0.307710,-0.630392,0.258658,-0.664091
36619,NaN,21.544076,1.975317,0.051692,-1.712364,0.431146,11.749612,-0.464748,-0.148033,-0.477115,-1.059082,-0.365479,0.063232,0.215487,0.019241,0.000631,0.999994,-0.002324,-0.000740,-0.002386,-0.310564,-0.630787,0.258925,-0.662281
36620,NaN,18.656370,2.860526,-0.618832,-2.701436,0.149413,8.877006,-0.640793,-0.050243,-0.546792,-1.050293,-0.376221,0.059326,0.186642,0.028075,-0.006232,0.999991,-0.003204,-0.000251,-0.002734,-0.314351,-0.630701,0.259394,-0.660389
36621,NaN,16.115856,2.741614,-0.306135,-2.322810,-0.155743,6.370968,-0.757849,-0.074593,-0.488519,-1.054443,-0.376221,0.063477,0.161226,0.027011,-0.003104,0.999990,-0.003789,-0.000373,-0.002443,-0.318251,-0.630389,0.260472,-0.658392
36622,NaN,14.961982,1.956934,-0.089485,-1.531242,0.149792,5.198340,-0.744391,-0.137777,-0.469530,-1.050049,-0.382568,0.053223,0.149666,0.019215,-0.000864,0.999990,-0.003722,-0.000689,-0.002348,-0.321988,-0.630309,0.261654,-0.656179
36623,NaN,14.576797,0.681409,0.343834,-0.225254,0.660324,4.767381,-0.652994,-0.189995,-0.473345,-1.043213,-0.393066,0.057617,0.145780,0.006481,0.003555,0.999991,-0.003265,-0.000950,-0.002367,-0.325346,-0.630501,0.262609,-0.653954
36624,NaN,14.063533,-0.425395,0.696785,0.913405,1.086058,4.202842,-0.570827,-0.259740,-0.520080,-1.039062,-0.395264,0.055664,0.140614,-0.004599,0.007163,0.999992,-0.002854,-0.001299,-0.002600,-0.328530,-0.631146,0.263252,-0.651477
36625,NaN,13.560467,-1.056608,0.851101,1.573925,1.342506,3.657529,-0.512344,-0.333408,-0.638016,-1.045166,-0.401611,0.057861,0.135556,-0.010976,0.008765,0.999990,-0.002562,-0.001667,-0.003190,-0.331780,-0.632229,0.263454,-0.648691
36626,NaN,13.176520,-1.158679,0.844440,1.746737,1.392439,3.251966,-0.404093,-0.393980,-0.803427,-1.029785,-0.412354,0.062012,0.131700,-0.012098,0.008728,0.999988,-0.002020,-0.001970,-0.004017,-0.335162,-0.633931,0.262876,-0.645519
36627,NaN,12.776073,-1.151793,1.019461,1.964962,1.239518,2.844127,-0.192706,-0.449989,-0.958699,-1.027344,-0.422852,0.070557,0.127680,-0.012120,0.010493,0.999986,-0.000964,-0.002250,-0.004793,-0.338269,-0.636317,0.261211,-0.642218
36628,NaN,12.103798,-0.967667,1.280657,2.102629,0.882479,2.182177,-0.064253,-0.552199,-1.080420,-1.018799,-0.429443,0.068604,0.120947,-0.010326,0.013144,0.999982,-0.000321,-0.002761,-0.005402,-0.341229,-0.639419,0.258916,-0.638489
36629,NaN,11.136847,-0.385379,0.914467,1.515059,0.716297,1.241900,-0.041667,-0.689182,-1.097707,-1.010010,-0.439941,0.076904,0.111313,-0.004463,0.009529,0.999979,-0.000208,-0.003446,-0.005488,-0.343965,-0.642962,0.256711,-0.634340
36630,NaN,9.900290,0.201771,0.687196,0.981734,0.406694,0.056349,0.016017,-0.719471,-1.205264,-1.009521,-0.450684,0.079102,0.098987,0.001421,0.007228,0.999975,0.000080,-0.003597,-0.006026,-0.346812,-0.646836,0.254028,-0.629916
36631,NaN,9.072387,0.736125,0.813052,0.722724,-0.096033,-0.703454,-0.012996,-0.737457,-1.261118,-1.006836,-0.465576,0.091797,0.090737,0.006790,0.008465,0.999973,-0.000065,-0.003687,-0.006306,-0.349877,-0.650727,0.251264,-0.625305
36632,NaN,8.781405,0.904861,0.878672,0.737563,-0.265914,-0.975954,-0.033365,-0.755628,-1.238954,-0.995850,-0.476318,0.093994,0.087834,0.008506,0.009117,0.999974,-0.000167,-0.003778,-0.006195,-0.352906,-0.654602,0.248663,-0.620581
36633,NaN,8.508575,0.521934,1.248684,1.358802,-0.326109,-1.311301,-0.052921,-0.765607,-1.203437,-0.991211,-0.489014,0.104492,0.085066,0.004711,0.012811,0.999975,-0.000265,-0.003828,-0.006017,-0.355850,-0.658369,0.246235,-0.615865
36634,NaN,8.394466,0.159590,1.350551,1.803952,-0.179992,-1.504336,-0.111520,-0.785604,-1.193216,-0.980225,-0.499756,0.106689,0.083898,0.001103,0.013834,0.999974,-0.000558,-0.003928,-0.005966,-0.358918,-0.662069,0.244053,-0.610967
36635,NaN,8.389121,0.006096,1.334368,2.024419,-0.063723,-1.563175,-0.126805,-0.780044,-1.164197,-0.973633,-0.512451,0.121338,0.083837,-0.000419,0.013671,0.999975,-0.000634,-0.003900,-0.005821,-0.361931,-0.665634,0.241982,-0.606120
36636,NaN,8.215000,0.042744,1.422221,2.136504,-0.167864,-1.755584,-0.111674,-0.755407,-1.125757,-0.967041,-0.514648,0.119385,0.082096,-0.000027,0.014532,0.999977,-0.000558,-0.003777,-0.005629,-0.364790,-0.669090,0.239946,-0.601392
36637,NaN,8.121788,-0.034518,1.499492,2.333649,-0.185108,-1.892336,-0.050256,-0.752673,-1.085309,-0.960205,-0.533936,0.129883,0.081157,-0.000782,0.015301,0.999978,-0.000251,-0.003763,-0.005427,-0.367309,-0.672555,0.237836,-0.596816
36638,NaN,8.251737,-0.031519,1.273266,2.315425,0.008451,-1.790771,-0.000137,-0.760542,-1.056316,-0.949463,-0.536133,0.136230,0.082465,-0.000751,0.013046,0.999979,-0.000001,-0.003803,-0.005282,-0.369543,-0.676081,0.235688,-0.592287
36639,NaN,8.379819,0.220377,0.972940,2.063177,0.106240,-1.630533,0.028014,-0.727529,-1.007876,-0.948975,-0.548828,0.140381,0.083772,0.001780,0.010034,0.999981,0.000140,-0.003638,-0.005039,-0.371566,-0.679467,0.233539,-0.587981
36640,NaN,8.175032,0.518151,0.601911,1.664082,0.191107,-1.771826,0.001400,-0.708879,-0.959663,-0.936035,-0.555176,0.150879,0.081752,0.004789,0.006309,0.999982,0.000007,-0.003544,-0.004798,-0.373538,-0.682672,0.231601,-0.583772
36641,NaN,7.990242,0.714523,0.244344,1.346200,0.330191,-1.907482,0.015756,-0.671336,-0.896201,-0.935547,-0.568115,0.157227,0.079925,0.006787,0.002712,0.999984,0.000079,-0.003357,-0.004481,-0.375314,-0.685694,0.229749,-0.579810
36642,NaN,7.927220,0.750910,0.320730,1.437830,0.243446,-1.978127,0.007522,-0.618686,-0.856439,-0.929199,-0.570068,0.159424,0.079293,0.007169,0.003453,0.999986,0.000038,-0.003093,-0.004282,-0.377041,-0.688482,0.227964,-0.576078
36643,NaN,8.025926,0.720397,0.548614,1.705660,0.099329,-1.918654,0.059789,-0.578587,-0.806243,-0.920410,-0.578613,0.165771,0.080271,0.006879,0.005720,0.999988,0.000299,-0.002893,-0.004031,-0.378491,-0.691177,0.226106,-0.572622
36644,NaN,8.282868,0.608933,0.755292,2.054779,0.039704,-1.730422,0.078928,-0.527693,-0.732897,-0.918213,-0.580811,0.167725,0.082830,0.005783,0.007774,0.999990,0.000395,-0.002638,-0.003664,-0.379698,-0.693661,0.224361,-0.569497
36645,NaN,8.560772,0.650322,0.874241,2.237991,-0.041413,-1.478223,0.068099,-0.460178,-0.671249,-0.916016,-0.587158,0.174072,0.085608,0.006213,0.008942,0.999992,0.000340,-0.002301,-0.003356,-0.380851,-0.695853,0.222713,-0.566692
36646,NaN,8.696865,0.833133,0.842115,2.181198,-0.106837,-1.311548,0.017375,-0.387451,-0.595348,-0.907471,-0.589355,0.174072,0.086976,0.008072,0.008590,0.999994,0.000087,-0.001937,-0.002977,-0.382021,-0.697639,0.221347,-0.564238
