// Start Time: Unknown
// Update Rate: 100.0Hz
// Filter Profile: human (46.1)
// Firmware Version: 4.4.0
PacketCounter,SampleTimeFine,Acc_X,Acc_Y,Acc_Z,FreeAcc_X,FreeAcc_Y,FreeAcc_Z,Gyr_X,Gyr_Y,Gyr_Z,Mag_X,Mag_Y,Mag_Z,VelInc_X,VelInc_Y,VelInc_Z,OriInc_q0,OriInc_q1,OriInc_q2,OriInc_q3,Quat_q0,Quat_q1,Quat_q2,Quat_q3
07251,NaN,8.360123,1.831109,3.148130,0.000000,0.000000,-0.693814,-1.562049,1.092484,-0.021697,-0.977051,-0.188965,0.019287,0.083773,0.018545,0.030880,0.999955,-0.007810,0.005462,-0.000108,-0.066424,-0.569695,-0.078294,-0.815418
07252,NaN,8.229920,1.316607,2.729120,-0.210834,0.588866,-1.065069,-1.445952,1.013245,0.034835,-0.979248,-0.191162,0.008545,0.082433,0.013375,0.026778,0.999961,-0.007230,0.005066,0.000174,-0.054540,-0.569301,-0.093330,-0.814992
07253,NaN,8.190295,0.936123,2.403267,-0.605661,0.878444,-1.292497,-1.409922,0.896949,0.096384,-0.981445,-0.193115,-0.004150,0.082005,0.009568,0.023598,0.999965,-0.007050,0.004485,0.000482,-0.057740,-0.565286,-0.087551,-0.818200
07254,NaN,8.042490,0.641896,2.472211,-0.567443,1.123442,-1.468780,-1.366959,0.773390,0.118393,-0.979248,-0.193115,-0.014648,0.080516,0.006634,0.024366,0.999969,-0.006835,0.003867,0.000592,-0.062105,-0.561812,-0.082652,-0.820780
07255,NaN,7.947928,0.773683,2.586116,-0.496257,0.940797,-1.486566,-1.271300,0.641348,0.113869,-0.981445,-0.190918,-0.025146,0.079557,0.007945,0.025556,0.999974,-0.006356,0.003207,0.000569,-0.064943,-0.558818,-0.077312,-0.823121
07256,NaN,7.787377,1.106305,2.613874,-0.470704,0.547943,-1.555732,-1.121354,0.530875,0.085625,-0.979492,-0.190918,-0.033691,0.077938,0.011242,0.025869,0.999981,-0.005607,0.002654,0.000428,-0.068297,-0.556654,-0.072119,-0.824785
07257,NaN,7.631850,1.485901,2.798373,-0.305846,0.122688,-1.555867,-0.907730,0.424902,0.031102,-0.977295,-0.186523,-0.035889,0.076375,0.014997,0.027754,0.999987,-0.004539,0.002124,0.000156,-0.070541,-0.554596,-0.068433,-0.826295
07258,NaN,7.566821,1.783344,3.066914,-0.080055,-0.202004,-1.458304,-0.663507,0.296150,-0.048939,-0.979492,-0.188721,-0.040039,0.075718,0.017916,0.030498,0.999993,-0.003318,0.001481,-0.000245,-0.073159,-0.553597,-0.064854,-0.827026
07259,NaN,7.431048,2.195387,3.417215,0.243930,-0.633380,-1.371311,-0.504965,0.169703,-0.146508,-0.983643,-0.190918,-0.044189,0.074356,0.021985,0.034054,0.999996,-0.002525,0.000849,-0.000733,-0.075107,-0.552661,-0.063233,-0.827603
07260,NaN,7.461279,2.589500,3.645808,0.405481,-1.009177,-1.182204,-0.404691,0.031197,-0.270304,-0.977295,-0.193115,-0.041992,0.074653,0.025868,0.036394,0.999997,-0.002023,0.000156,-0.001352,-0.077683,-0.552525,-0.062056,-0.827545
07261,NaN,7.365360,2.855450,3.783839,0.542014,-1.274566,-1.163917,-0.322638,-0.044821,-0.378840,-0.974854,-0.197266,-0.035645,0.073699,0.028476,0.037809,0.999997,-0.001613,-0.000224,-0.001894,-0.080155,-0.552466,-0.061750,-0.827372
07262,NaN,7.252491,2.856393,4.099216,0.875303,-1.247274,-1.138629,-0.249167,-0.132725,-0.445134,-0.977051,-0.201660,-0.040039,0.072561,0.028454,0.041005,0.999997,-0.001246,-0.000664,-0.002226,-0.082004,-0.552474,-0.063986,-0.827015
07263,NaN,7.154547,2.780760,4.272911,1.082701,-1.166847,-1.173005,-0.226694,-0.224068,-0.477642,-0.972656,-0.205811,-0.041992,0.071564,0.027685,0.042778,0.999996,-0.001133,-0.001120,-0.002388,-0.084677,-0.553152,-0.064276,-0.826270
07264,NaN,7.208513,2.719682,4.419395,1.211159,-1.016243,-1.072512,-0.279062,-0.272491,-0.492522,-0.978760,-0.214600,-0.035645,0.072092,0.027081,0.044254,0.999995,-0.001395,-0.001362,-0.002463,-0.085415,-0.552984,-0.068751,-0.825946
07265,NaN,7.093789,2.825579,4.635673,1.461556,-1.116330,-1.071247,-0.270985,-0.331619,-0.534040,-0.976562,-0.218750,-0.033447,0.070936,0.028129,0.046436,0.999994,-0.001355,-0.001658,-0.002670,-0.088483,-0.554051,-0.068966,-0.824889
07266,NaN,7.073425,2.986482,4.604656,1.442692,-1.173462,-1.055019,-0.168931,-0.381610,-0.581499,-0.972168,-0.223145,-0.035645,0.070733,0.029698,0.046156,0.999994,-0.000845,-0.001908,-0.002907,-0.088379,-0.553617,-0.075732,-0.824598
07267,NaN,6.909263,2.997805,4.862565,1.767500,-1.180222,-1.103374,-0.084888,-0.432985,-0.608198,-0.965576,-0.223145,-0.031250,0.069078,0.029789,0.048763,0.999993,-0.000424,-0.002165,-0.003041,-0.091285,-0.555131,-0.076874,-0.823157
07268,NaN,6.790481,2.942648,5.314466,2.250168,-1.002384,-1.040849,-0.080107,-0.452796,-0.590686,-0.967773,-0.227295,-0.027100,0.067871,0.029247,0.053287,0.999993,-0.000401,-0.002264,-0.002953,-0.089637,-0.554228,-0.085594,-0.823086
07269,NaN,6.822651,2.631526,5.073054,2.061158,-0.670077,-1.180664,-0.089909,-0.439401,-0.555974,-0.965088,-0.238037,-0.016357,0.068188,0.026149,0.050869,0.999994,-0.000450,-0.002197,-0.002780,-0.092361,-0.555755,-0.086568,-0.821652
07270,NaN,6.587011,2.277079,4.603843,1.726175,-0.280722,-1.645035,-0.049748,-0.426212,-0.506541,-0.962891,-0.244629,-0.014404,0.065829,0.022616,0.046173,0.999994,-0.000249,-0.002131,-0.002533,-0.089879,-0.554066,-0.095369,-0.822093
07271,NaN,6.494545,2.070021,4.457786,1.663671,-0.083037,-1.840166,0.053471,-0.417592,-0.446666,-0.962891,-0.244629,-0.014404,0.064898,0.020543,0.044719,0.999995,0.000267,-0.002088,-0.002233,-0.091766,-0.555591,-0.096639,-0.820706
07272,NaN,6.577216,1.835372,4.812223,1.957638,0.285574,-1.696542,0.045935,-0.388785,-0.376201,-0.964844,-0.248779,-0.012207,0.065713,0.018219,0.048254,0.999996,0.000230,-0.001944,-0.001881,-0.089974,-0.553937,-0.103491,-0.821187
07273,NaN,6.777666,1.855672,5.138495,2.213656,0.361521,-1.401186,-0.067295,-0.352221,-0.309272,-0.962402,-0.255371,-0.010010,0.067715,0.018469,0.051498,0.999997,-0.000336,-0.001761,-0.001546,-0.091612,-0.555192,-0.103912,-0.820105
07274,NaN,7.140547,2.021303,5.159909,2.054853,0.373741,-1.018621,-0.143747,-0.292267,-0.254342,-0.951904,-0.253174,-0.001465,0.071356,0.020159,0.051689,0.999998,-0.000719,-0.001461,-0.001272,-0.090859,-0.552659,-0.108213,-0.821342
07275,NaN,7.488577,2.087290,5.278464,2.050836,0.420663,-0.652183,-0.184177,-0.221661,-0.226047,-0.951904,-0.250977,-0.003662,0.074851,0.020837,0.052848,0.999998,-0.000921,-0.001108,-0.001130,-0.092416,-0.553362,-0.107981,-0.820725
07276,NaN,7.933441,2.061646,5.485569,2.035079,0.630811,-0.182429,-0.284041,-0.148774,-0.204259,-0.953857,-0.257568,-0.005859,0.079315,0.020613,0.054885,0.999998,-0.001420,-0.000744,-0.001021,-0.090907,-0.550976,-0.110988,-0.822097
07277,NaN,8.448485,2.186857,5.582179,1.928691,0.655804,0.344577,-0.364766,-0.047184,-0.170074,-0.951904,-0.255371,-0.007812,0.084490,0.021899,0.055802,0.999998,-0.001824,-0.000236,-0.000850,-0.092637,-0.550908,-0.109935,-0.822090
07278,NaN,8.469089,2.384831,5.519024,1.772721,0.478409,0.409889,-0.395008,0.085408,-0.149594,-0.947510,-0.261719,-0.012207,0.084732,0.023894,0.055107,0.999998,-0.001975,0.000427,-0.000748,-0.094035,-0.547236,-0.109678,-0.824415
07279,NaN,8.219403,2.418842,5.352451,1.691955,0.357905,0.140566,-0.376155,0.146409,-0.164530,-0.953857,-0.263916,-0.014160,0.082253,0.024221,0.053419,0.999998,-0.001881,0.000732,-0.000823,-0.095662,-0.546364,-0.108646,-0.824943
07280,NaN,8.083999,2.413045,5.171184,1.496287,0.266515,-0.034905,-0.301548,0.111974,-0.198109,-0.951660,-0.261719,-0.011963,0.080893,0.024128,0.051630,0.999998,-0.001508,0.000560,-0.000991,-0.101615,-0.543760,-0.103381,-0.826627
07281,NaN,7.987285,2.495702,5.312073,1.643178,0.172719,-0.039587,-0.242986,0.050906,-0.213594,-0.947510,-0.263916,-0.016357,0.079913,0.024936,0.053070,0.999999,-0.001215,0.000255,-0.001068,-0.103132,-0.543315,-0.102983,-0.826781
07282,NaN,7.869450,2.484050,5.389333,1.690333,0.177731,-0.104194,-0.228338,0.013823,-0.200411,-0.945312,-0.266113,-0.011963,0.078723,0.024823,0.053860,0.999999,-0.001142,0.000069,-0.001002,-0.102806,-0.540181,-0.104123,-0.828730
07283,NaN,7.752559,2.381529,5.355747,1.704015,0.243612,-0.247393,-0.251399,-0.000953,-0.179298,-0.945312,-0.261719,-0.010010,0.077547,0.023813,0.053528,0.999999,-0.001257,-0.000005,-0.000896,-0.104228,-0.539961,-0.103564,-0.828766
07284,NaN,7.760167,2.205941,5.234024,1.547043,0.429712,-0.330948,-0.299930,-0.015372,-0.145921,-0.943115,-0.268066,-0.016357,0.077614,0.022081,0.052313,0.999999,-0.001500,-0.000077,-0.000730,-0.102926,-0.537426,-0.105133,-0.830377
07285,NaN,7.866101,2.004651,5.078121,1.368715,0.636122,-0.357348,-0.357917,-0.046381,-0.118492,-0.943115,-0.265869,-0.018311,0.078661,0.020091,0.050764,0.999998,-0.001790,-0.000232,-0.000592,-0.104404,-0.537371,-0.103941,-0.830379
07286,NaN,7.940290,1.678113,5.005544,1.246610,0.951258,-0.407327,-0.403997,-0.100350,-0.112579,-0.945068,-0.274658,-0.020508,0.079387,0.016838,0.050061,0.999998,-0.002020,-0.000502,-0.000563,-0.106062,-0.535545,-0.102129,-0.831572
07287,NaN,8.297614,1.375458,5.017442,1.139242,1.330724,-0.176906,-0.435016,-0.176880,-0.106371,-0.945312,-0.265869,-0.018311,0.082939,0.013820,0.050218,0.999997,-0.002175,-0.000884,-0.000532,-0.107759,-0.535993,-0.100511,-0.831262
07288,NaN,8.682565,1.359290,5.123459,1.044302,1.417300,0.206548,-0.467223,-0.247755,-0.100393,-0.945068,-0.270264,-0.016357,0.086769,0.013669,0.051310,0.999996,-0.002336,-0.001239,-0.000502,-0.111381,-0.534647,-0.095997,-0.832184
07289,NaN,9.102925,1.488957,5.380419,1.118569,1.404780,0.713682,-0.508869,-0.314040,-0.081686,-0.938721,-0.270264,-0.014160,0.090951,0.014989,0.053909,0.999995,-0.002544,-0.001570,-0.000408,-0.113232,-0.535629,-0.093922,-0.831540
07290,NaN,9.478496,1.664453,5.619032,1.154955,1.296708,1.195051,-0.561444,-0.360003,-0.056429,-0.945068,-0.268066,-0.018311,0.094688,0.016776,0.056314,0.999994,-0.002807,-0.001800,-0.000282,-0.115975,-0.535347,-0.089434,-0.831838
07291,NaN,9.603557,1.800878,5.584886,1.087198,1.168345,1.328014,-0.618877,-0.355332,-0.022428,-0.938721,-0.268066,-0.011963,0.095938,0.018171,0.055963,0.999994,-0.003094,-0.001777,-0.000112,-0.117883,-0.536452,-0.086713,-0.831146
07292,NaN,9.778074,2.070733,5.613968,0.989233,0.919011,1.571159,-0.684305,-0.312659,0.018580,-0.940918,-0.270264,-0.014160,0.097691,0.020909,0.056221,0.999993,-0.003422,-0.001563,0.000093,-0.117648,-0.535553,-0.084502,-0.831986
07293,NaN,9.896694,2.255272,5.906609,1.199805,0.731311,1.846826,-0.812221,-0.223405,0.050860,-0.941162,-0.263916,-0.020508,0.098895,0.022818,0.059084,0.999991,-0.004061,-0.001117,0.000254,-0.119704,-0.536021,-0.080854,-0.831754
07294,NaN,9.799196,2.061023,6.294143,1.565604,0.804090,1.883049,-0.935106,-0.116622,0.058711,-0.936768,-0.268066,-0.018555,0.097949,0.020933,0.062901,0.999989,-0.004676,-0.000583,0.000294,-0.122418,-0.534552,-0.075071,-0.832846
07295,NaN,9.318223,1.962577,6.576373,2.008606,0.694588,1.563265,-1.005580,-0.030308,0.030817,-0.941162,-0.263916,-0.024902,0.093169,0.019970,0.065678,0.999987,-0.005028,-0.000152,0.000154,-0.124987,-0.534066,-0.070781,-0.833152
07296,NaN,9.243900,1.632915,6.221383,1.710537,0.879603,1.283337,-0.965512,-0.088595,-0.013942,-0.936768,-0.270264,-0.024658,0.092413,0.016623,0.062175,0.999988,-0.004828,-0.000443,-0.000070,-0.130079,-0.532865,-0.062932,-0.833771
07297,NaN,9.696340,1.241866,6.183334,1.544950,1.325466,1.573744,-1.044614,-0.138218,-0.048987,-0.938477,-0.276611,-0.022705,0.096924,0.012718,0.061834,0.999986,-0.005223,-0.000691,-0.000245,-0.133107,-0.532737,-0.058616,-0.833689
07298,NaN,9.991275,0.842177,5.822435,1.163480,1.607878,1.610812,-1.194022,-0.159694,-0.106547,-0.936768,-0.270264,-0.029053,0.099871,0.008716,0.058253,0.999982,-0.005970,-0.000798,-0.000533,-0.146969,-0.532150,-0.041626,-0.832757
07299,NaN,10.365027,0.860189,5.264440,0.516628,1.696139,1.708774,-1.193266,-0.259258,-0.217216,-0.934326,-0.276611,-0.033203,0.103591,0.008804,0.052727,0.999981,-0.005966,-0.001296,-0.001086,-0.151099,-0.532294,-0.037043,-0.832142
07300,NaN,12.028371,2.283042,4.969553,-0.716442,0.737776,3.360495,-1.002233,-0.434390,-0.364451,-0.934326,-0.274658,-0.024658,0.120217,0.022861,0.049842,0.999983,-0.005011,-0.002172,-0.001822,-0.159659,-0.532372,-0.026020,-0.830910
07301,NaN,13.995651,4.121196,4.037583,-2.701607,-0.300832,5.079431,-0.764512,-0.488515,-0.487008,-0.932129,-0.278809,-0.029053,0.139958,0.041026,0.040561,0.999987,-0.003823,-0.002443,-0.002435,-0.163779,-0.533717,-0.023749,-0.829312
07302,NaN,14.622590,5.154003,1.204293,-5.706383,-0.687945,4.637131,-0.416099,-0.443004,-0.646540,-0.929688,-0.291748,-0.028809,0.146365,0.051092,0.012260,0.999990,-0.002080,-0.002215,-0.003233,-0.168099,-0.534737,-0.020437,-0.827877
07303,NaN,13.146471,4.028607,-1.993593,-7.654366,0.492022,1.771812,0.344689,-0.531348,-0.881554,-0.927246,-0.300293,-0.018311,0.131693,0.039740,-0.019517,0.999985,0.001723,-0.002657,-0.004408,-0.170879,-0.537125,-0.023773,-0.825671
07304,NaN,10.269116,0.994336,-2.866953,-6.482602,2.748213,-1.745144,1.480149,-0.569700,-1.010233,-0.922852,-0.304688,-0.007568,0.102821,0.009635,-0.028305,0.999956,0.007401,-0.002848,-0.005051,-0.178277,-0.540882,-0.022485,-0.821680
07305,NaN,7.585757,-2.202986,-3.179599,-4.934117,4.958247,-4.957078,2.702243,-0.544082,-0.968300,-0.918457,-0.308838,0.011475,0.075838,-0.021967,-0.031887,0.999893,0.013511,-0.002720,-0.004841,-0.174990,-0.545355,-0.035717,-0.818957
07306,NaN,5.867336,-4.987757,-4.241693,-4.660428,7.110154,-7.572501,3.734110,-0.636968,-0.706405,-0.914062,-0.309082,0.026123,0.058635,-0.049284,-0.043154,0.999814,0.018669,-0.003185,-0.003532,-0.168764,-0.552646,-0.049475,-0.814649
07307,NaN,6.795611,-6.800755,-2.651567,-3.292705,8.872376,-6.666811,3.657544,-0.725619,-0.199111,-0.913818,-0.311279,0.047363,0.067987,-0.067578,-0.027508,0.999826,0.018287,-0.003628,-0.000995,-0.159620,-0.558537,-0.064301,-0.811433
07308,NaN,8.439563,-7.312274,1.538328,0.074229,9.533475,-3.798724,2.397122,-0.441213,0.367606,-0.909912,-0.302734,0.064209,0.084497,-0.073146,0.014693,0.999924,0.011985,-0.002206,0.001838,-0.152256,-0.565041,-0.068922,-0.807958
07309,NaN,9.422958,-5.430220,2.692806,0.432847,8.009374,-1.990096,1.454627,-0.383006,0.682418,-0.914062,-0.300537,0.062012,0.094363,-0.054175,0.026714,0.999966,0.007273,-0.001915,0.003412,-0.145517,-0.567906,-0.072576,-0.806871
07310,NaN,11.192471,-2.012167,2.344026,-0.824379,5.241526,0.515003,1.486832,-0.699611,0.638079,-0.912109,-0.291992,0.081055,0.111906,-0.019940,0.023683,0.999961,0.007434,-0.003498,0.003190,-0.144566,-0.574919,-0.066384,-0.802597
07311,NaN,12.343116,1.378431,1.812625,-2.103796,2.367542,2.332479,2.083390,-0.959153,0.549568,-0.916504,-0.289795,0.093750,0.123304,0.013929,0.018862,0.999930,0.010417,-0.004796,0.002748,-0.136679,-0.580412,-0.072465,-0.799493
07312,NaN,12.272101,3.597291,0.663225,-3.254995,0.189980,2.570731,2.786390,-1.085644,0.450621,-0.916748,-0.277100,0.116943,0.122599,0.036146,0.007801,0.999886,0.013931,-0.005428,0.002253,-0.134335,-0.589314,-0.069813,-0.793593
07313,NaN,11.013950,5.562524,-0.722499,-4.245361,-2.059644,1.610881,3.239269,-1.035867,0.416793,-0.916748,-0.270752,0.137939,0.110055,0.055956,-0.005750,0.999853,0.016196,-0.005179,0.002084,-0.123478,-0.595654,-0.080730,-0.789577
07314,NaN,9.253852,6.143457,-1.827856,-4.669399,-3.165235,-0.071735,3.500291,-0.994500,0.414805,-0.910645,-0.260010,0.152588,0.092496,0.061928,-0.016738,0.999832,0.017500,-0.004972,0.002074,-0.118822,-0.604735,-0.082003,-0.783232
07315,NaN,8.146053,5.802518,-1.882191,-4.147838,-3.257988,-1.109618,3.555055,-0.948649,0.422900,-0.910889,-0.251709,0.180176,0.081422,0.058515,-0.017398,0.999829,0.017774,-0.004743,0.002114,-0.106784,-0.610628,-0.094066,-0.779026
07316,NaN,7.443711,4.788404,-1.399343,-3.239260,-2.542178,-1.854361,3.570474,-0.933937,0.422178,-0.906982,-0.236572,0.194824,0.074397,0.048277,-0.012786,0.999828,0.017851,-0.004669,0.002111,-0.100789,-0.619034,-0.097247,-0.772775
07317,NaN,7.144427,4.683270,-1.416813,-2.962664,-2.596575,-2.101728,3.271520,-1.017395,0.433054,-0.903076,-0.221680,0.211670,0.071411,0.047207,-0.013035,0.999851,0.016357,-0.005087,0.002165,-0.089469,-0.624728,-0.108017,-0.768142
07318,NaN,7.059386,4.020994,-1.290582,-2.611392,-2.027941,-2.280552,2.910543,-1.274308,0.413271,-0.907471,-0.210938,0.230469,0.070588,0.040534,-0.011868,0.999872,0.014552,-0.006371,0.002066,-0.084283,-0.633895,-0.110008,-0.760902
07319,NaN,7.815394,4.728069,-0.886974,-2.137456,-2.526594,-1.253167,2.065398,-1.457522,0.426802,-0.896729,-0.211182,0.251709,0.078112,0.047532,-0.007810,0.999918,0.010327,-0.007287,0.002134,-0.076907,-0.640490,-0.115888,-0.755267
07320,NaN,8.468249,4.819008,-0.483857,-1.655685,-2.462470,-0.519630,0.896464,-1.324460,0.516989,-0.892822,-0.204590,0.255859,0.084586,0.048428,-0.004061,0.999965,0.004482,-0.006622,0.002585,-0.075569,-0.648203,-0.112444,-0.749319
07321,NaN,8.826662,2.723563,0.564397,-0.596316,-0.317394,-0.582932,0.777699,-1.211824,0.560212,-0.895020,-0.196289,0.270508,0.088153,0.027459,0.006285,0.999970,0.003888,-0.006059,0.002801,-0.071627,-0.653330,-0.113079,-0.745146
07322,NaN,8.628105,1.609312,0.507165,-0.504771,0.650456,-1.059890,1.266934,-1.473318,0.511128,-0.891113,-0.185547,0.289551,0.086199,0.016278,0.005810,0.999950,0.006335,-0.007366,0.002556,-0.066475,-0.660779,-0.114071,-0.738877
07323,NaN,8.777671,2.728212,0.289980,-0.523141,-0.442338,-0.641913,1.280231,-1.405763,0.569877,-0.891357,-0.177002,0.302002,0.087674,0.027510,0.003692,0.999951,0.006401,-0.007029,0.002849,-0.060937,-0.666688,-0.116442,-0.733658
07324,NaN,9.208126,3.542725,-0.601590,-1.220586,-1.263963,-0.085770,0.830624,-1.208536,0.656344,-0.889404,-0.168457,0.308350,0.091998,0.035752,-0.005312,0.999968,0.004153,-0.006043,0.003282,-0.057039,-0.673133,-0.114891,-0.728312
07325,NaN,9.242104,1.885923,-0.050462,-0.660688,0.341780,-0.409448,0.904367,-1.081411,0.691190,-0.883301,-0.157715,0.322998,0.092356,0.019179,0.000081,0.999969,0.004522,-0.005407,0.003456,-0.052096,-0.677703,-0.115543,-0.724330
07326,NaN,9.536323,2.008503,0.023003,-0.451805,0.227504,-0.080331,1.055575,-0.952315,0.703725,-0.879150,-0.149170,0.333496,0.095289,0.020417,0.000791,0.999969,0.005278,-0.004762,0.003519,-0.046721,-0.683024,-0.115272,-0.719727
07327,NaN,9.077725,1.835978,-0.435987,-0.782515,0.189679,-0.575995,1.053092,-0.898674,0.653366,-0.875244,-0.140625,0.346191,0.090735,0.018677,-0.003854,0.999971,0.005265,-0.004493,0.003267,-0.041288,-0.686859,-0.116614,-0.716185
07328,NaN,8.771694,1.720419,-0.310505,-0.521550,0.191074,-0.885804,1.176742,-0.941953,0.526063,-0.875244,-0.134277,0.346191,0.087684,0.017451,-0.002590,0.999968,0.005884,-0.004710,0.002630,-0.036137,-0.691889,-0.117469,-0.711466
07329,NaN,8.792364,1.800089,-0.124073,-0.224299,0.105489,-0.840563,1.237056,-0.839208,0.465625,-0.873535,-0.121338,0.360840,0.087885,0.018211,-0.000760,0.999969,0.006185,-0.004196,0.002328,-0.030691,-0.695349,-0.120101,-0.707901
07330,NaN,8.797265,2.069735,-0.171651,-0.116386,-0.201479,-0.776642,1.246962,-0.786536,0.408198,-0.869385,-0.114990,0.371338,0.087936,0.020886,-0.001241,0.999971,0.006235,-0.003933,0.002041,-0.025531,-0.699576,-0.121739,-0.703648
07331,NaN,9.251165,2.166036,-0.134140,0.029728,-0.219421,-0.313021,1.192477,-0.876653,0.364378,-0.869629,-0.106445,0.379639,0.092476,0.021835,-0.000806,0.999971,0.005962,-0.004383,0.001822,-0.020609,-0.703012,-0.124541,-0.699885
07332,NaN,9.551642,2.588017,-0.786872,-0.423170,-0.695100,0.081123,0.856217,-0.911186,0.373780,-0.859131,-0.100098,0.385986,0.095502,0.026091,-0.007322,0.999979,0.004281,-0.004556,0.001869,-0.016959,-0.707442,-0.125078,-0.695409
07333,NaN,9.639142,2.032254,-1.003595,-0.604734,-0.196930,0.068839,0.855582,-1.020333,0.365743,-0.850830,-0.091553,0.396484,0.096403,0.020540,-0.009457,0.999976,0.004278,-0.005102,0.001829,-0.013297,-0.711272,-0.126667,-0.691282
07334,NaN,9.570953,2.397481,-1.363529,-0.759548,-0.653275,0.097170,0.775494,-1.017167,0.382628,-0.853027,-0.089355,0.404785,0.095731,0.024209,-0.013055,0.999978,0.003877,-0.005086,0.001913,-0.009877,-0.715897,-0.127112,-0.686467
07335,NaN,9.243777,2.019800,-1.550919,-0.898688,-0.408637,-0.275570,0.875270,-0.954719,0.363641,-0.849121,-0.076660,0.415283,0.092473,0.020432,-0.014979,0.999977,0.004376,-0.004774,0.001818,-0.006101,-0.719430,-0.128762,-0.682498
07336,NaN,9.278780,2.030354,-1.392836,-0.612476,-0.420239,-0.241616,0.949984,-0.824534,0.381371,-0.851318,-0.074463,0.419678,0.092805,0.020545,-0.013449,0.999978,0.004750,-0.004123,0.001907,-0.001845,-0.723280,-0.130019,-0.678202
07337,NaN,9.233773,1.781124,-1.169368,-0.342215,-0.178903,-0.344191,0.912599,-0.779230,0.392832,-0.843018,-0.063721,0.427979,0.092347,0.018045,-0.011252,0.999980,0.004563,-0.003896,0.001964,0.002282,-0.726170,-0.131681,-0.674783
07338,NaN,9.421613,1.868746,-0.674122,0.284340,-0.171869,-0.189681,0.863375,-0.766736,0.399602,-0.836670,-0.061768,0.438477,0.094203,0.018904,-0.006299,0.999981,0.004317,-0.003834,0.001998,0.006376,-0.729705,-0.132705,-0.670730
07339,NaN,9.516300,2.102571,-0.084919,1.009261,-0.293659,-0.123399,0.823119,-0.776633,0.405873,-0.839111,-0.055176,0.442627,0.095122,0.021221,-0.000393,0.999982,0.004116,-0.003883,0.002029,0.010226,-0.732538,-0.134004,-0.667328
07340,NaN,9.371679,1.655391,0.055810,1.153050,0.113230,-0.366593,0.892013,-0.779509,0.390579,-0.833008,-0.044678,0.448975,0.093681,0.016733,0.000998,0.999981,0.004460,-0.003898,0.001953,0.014355,-0.735953,-0.135222,-0.663236
07341,NaN,9.137018,1.884943,0.439832,1.649961,-0.087717,-0.620259,1.080742,-0.770850,0.361077,-0.824463,-0.040283,0.453125,0.091318,0.018989,0.004853,0.999976,0.005404,-0.003854,0.001805,0.019009,-0.738657,-0.137527,-0.659630
07342,NaN,8.950521,2.311595,0.718115,2.107330,-0.484644,-0.796344,1.168090,-0.767512,0.353907,-0.822754,-0.029541,0.465576,0.089435,0.023230,0.007660,0.999974,0.005840,-0.003838,0.001770,0.024043,-0.741785,-0.139820,-0.655460
07343,NaN,8.863637,2.956506,0.965856,2.591369,-1.066333,-0.846938,1.120388,-0.790748,0.344823,-0.822998,-0.016846,0.469727,0.088546,0.029662,0.010175,0.999975,0.005602,-0.003954,0.001724,0.028777,-0.744463,-0.142302,-0.651688
07344,NaN,9.021206,3.577256,1.002096,2.912173,-1.625658,-0.644343,1.003540,-0.802481,0.348597,-0.816895,-0.012451,0.478271,0.090108,0.035878,0.010562,0.999978,0.005018,-0.004012,0.001743,0.033231,-0.747474,-0.144327,-0.647571
07345,NaN,9.218130,3.989055,0.700538,2.860559,-2.057699,-0.380866,0.915033,-0.772322,0.358765,-0.808594,0.000244,0.482178,0.092081,0.040022,0.007544,0.999980,0.004575,-0.003862,0.001794,0.037256,-0.750066,-0.146071,-0.643953
07346,NaN,9.360213,4.291935,0.288580,2.680064,-2.425450,-0.166394,0.905764,-0.694456,0.394449,-0.806641,0.004639,0.492676,0.093506,0.043089,0.003405,0.999982,0.004529,-0.003472,0.001972,0.041677,-0.752509,-0.148024,-0.640377
07347,NaN,9.353327,4.173400,-0.181259,2.300555,-2.447225,-0.135265,0.899169,-0.579767,0.435932,-0.802734,0.015381,0.494873,0.093446,0.041945,-0.001353,0.999983,0.004496,-0.002899,0.002180,0.046028,-0.754487,-0.149379,-0.637430
07348,NaN,9.331553,3.823485,-0.467752,2.022809,-2.206272,-0.171338,0.853683,-0.485610,0.458483,-0.794434,0.021729,0.499023,0.093238,0.038468,-0.004287,0.999985,0.004268,-0.002428,0.002292,0.050709,-0.756100,-0.151344,-0.634694
07349,NaN,9.589294,3.565642,-0.565020,1.973536,-1.973944,0.046102,0.724336,-0.421617,0.469086,-0.792480,0.030273,0.503174,0.095820,0.035901,-0.005318,0.999988,0.003622,-0.002108,0.002345,0.054617,-0.757600,-0.151971,-0.632427
07350,NaN,10.026377,3.359081,-0.536010,2.081412,-1.716624,0.425446,0.592099,-0.401212,0.447578,-0.794678,0.030273,0.500977,0.100199,0.033830,-0.005059,0.999991,0.002960,-0.002006,0.002238,0.058389,-0.758852,-0.153449,-0.630228
07351,NaN,10.755018,3.134491,-0.507612,2.220828,-1.411285,1.088179,0.418510,-0.376950,0.422770,-0.794922,0.038818,0.511475,0.107493,0.031582,-0.004808,0.999994,0.002093,-0.001885,0.002114,0.061021,-0.760236,-0.153270,-0.628352
07352,NaN,11.277727,2.804897,-0.021041,2.724316,-0.880622,1.450403,0.267038,-0.403629,0.406246,-0.786377,0.038818,0.509277,0.112720,0.028278,0.000055,0.999995,0.001335,-0.002018,0.002031,0.064577,-0.761164,-0.155455,-0.626332
07353,NaN,11.319052,1.775621,0.203819,2.673829,0.136869,1.329435,0.287672,-0.392847,0.336588,-0.784424,0.047363,0.511475,0.113156,0.017943,0.002286,0.999996,0.001438,-0.001964,0.001683,0.066421,-0.762559,-0.155199,-0.624504
07354,NaN,11.812710,1.540216,1.388569,3.827448,0.800451,1.525312,0.403020,-0.307760,0.222327,-0.788574,0.047363,0.515625,0.118088,0.015505,0.014099,0.999996,0.002015,-0.001539,0.001112,0.069553,-0.763003,-0.157982,-0.622921
07355,NaN,11.843117,1.553281,1.822086,4.274709,0.922505,1.450877,0.550925,-0.156213,0.111584,-0.784668,0.053711,0.513428,0.118408,0.015548,0.018356,0.999996,0.002755,-0.000781,0.000558,0.071880,-0.763382,-0.159323,-0.621850
07356,NaN,11.604803,2.018993,1.734407,4.308185,0.457318,1.277233,0.758713,0.067167,0.039693,-0.786865,0.053711,0.511475,0.116050,0.020147,0.017382,0.999993,0.003794,0.000336,0.000198,0.075925,-0.762288,-0.163483,-0.621631
07357,NaN,11.702371,3.559963,1.575850,4.703603,-1.010226,1.543266,0.821122,0.347540,0.017566,-0.789062,0.058105,0.507080,0.117048,0.035545,0.015701,0.999990,0.004106,0.001738,0.000088,0.079394,-0.760902,-0.165832,-0.622274
07358,NaN,12.335912,5.319956,0.854376,4.730958,-2.763360,2.483179,0.690202,0.621730,-0.024285,-0.791260,0.060303,0.498535,0.123392,0.053156,0.008344,0.999989,0.003451,0.003109,-0.000121,0.083015,-0.757998,-0.169332,-0.624399
07359,NaN,12.395414,6.253621,0.854278,5.017253,-3.627446,2.643317,0.594013,0.967431,-0.117277,-0.800049,0.066650,0.488037,0.124031,0.062439,0.008128,0.999984,0.002970,0.004837,-0.000586,0.085720,-0.754618,-0.171224,-0.627603
07360,NaN,12.627760,7.032817,1.125390,5.480955,-4.184606,2.940111,0.390947,1.278308,-0.246835,-0.804199,0.066650,0.486084,0.126433,0.070151,0.010583,0.999977,0.001955,0.006391,-0.001234,0.088634,-0.749222,-0.175316,-0.632515
07361,NaN,13.177015,7.429997,1.585681,5.960298,-4.317235,3.498406,0.050416,1.600779,-0.413312,-0.816895,0.062500,0.471191,0.132045,0.074023,0.014819,0.999966,0.000252,0.008004,-0.002067,0.088917,-0.743747,-0.176306,-0.638631
07362,NaN,13.509943,7.272531,1.552562,5.663137,-4.100311,3.932404,-0.373227,1.894940,-0.560079,-0.827393,0.051758,0.452393,0.135441,0.072374,0.014108,0.999949,-0.001866,0.009475,-0.002800,0.088452,-0.736178,-0.179063,-0.646649
07363,NaN,13.464643,6.516951,1.699833,5.196966,-3.396631,3.902265,-0.828942,2.207261,-0.640198,-0.837646,0.041260,0.433350,0.135029,0.064803,0.015240,0.999925,-0.004145,0.011036,-0.003201,0.085301,-0.728779,-0.177747,-0.655752
07364,NaN,13.049601,5.198376,1.216127,3.841915,-2.424313,3.534346,-1.291619,2.446645,-0.687037,-0.852295,0.032715,0.416748,0.130807,0.051605,0.010228,0.999898,-0.006458,0.012233,-0.003435,0.081105,-0.719431,-0.177365,-0.666621
07365,NaN,11.959235,2.925205,0.267378,1.702372,-0.871576,2.352092,-1.644888,2.683193,-0.762056,-0.860596,0.019775,0.393555,0.119722,0.028808,0.000830,0.999869,-0.008224,0.013415,-0.003810,0.075019,-0.710383,-0.173509,-0.677955
07366,NaN,11.661679,0.460403,-0.061448,0.128991,1.253507,1.789566,-1.736227,2.826181,-0.846299,-0.870850,0.002930,0.370361,0.116610,0.004095,-0.002299,0.999854,-0.008681,0.014130,-0.004231,0.069392,-0.699296,-0.172238,-0.690292
07367,NaN,12.741451,-1.358111,-0.682840,-1.439397,2.885657,2.606863,-1.633050,2.853775,-0.923378,-0.883301,-0.010010,0.351562,0.127236,-0.014234,-0.008530,0.999854,-0.008165,0.014268,-0.004617,0.062944,-0.689115,-0.168813,-0.701898
07368,NaN,14.500954,-1.690722,-1.695634,-3.012442,3.146312,4.223759,-1.299660,2.874014,-0.949990,-0.891357,-0.027100,0.322021,0.144664,-0.017714,-0.018924,0.999864,-0.006498,0.014369,-0.004750,0.057685,-0.677530,-0.168061,-0.713709
07369,NaN,15.734507,-0.040046,-1.737436,-3.087383,1.769920,5.611638,-0.941802,2.978315,-0.915999,-0.906006,-0.035645,0.299072,0.157059,-0.001209,-0.019710,0.999868,-0.004709,0.014891,-0.004580,0.053722,-0.666312,-0.166920,-0.724762
07370,NaN,16.476767,2.309676,-1.633564,-2.909244,-0.293559,6.646713,-0.796526,3.096505,-0.835336,-0.912354,-0.046143,0.267334,0.164582,0.022337,-0.018975,0.999863,-0.003982,0.015482,-0.004176,0.050225,-0.653787,-0.166588,-0.736403
07371,NaN,15.759572,3.898502,-1.228825,-2.495592,-1.793949,6.174886,-0.733275,3.089741,-0.807632,-0.922852,-0.054688,0.237793,0.157535,0.038297,-0.014864,0.999866,-0.003666,0.015448,-0.004038,0.047423,-0.641832,-0.165727,-0.747219
07372,NaN,14.146426,3.615913,-0.500515,-2.127763,-1.551971,4.557147,-0.624568,3.080076,-0.774280,-0.931152,-0.062988,0.208252,0.141502,0.035591,-0.007296,0.999869,-0.003123,0.015400,-0.003871,0.045268,-0.628999,-0.166202,-0.758082
07373,NaN,12.838071,3.127358,0.167434,-1.811335,-1.099720,3.230284,-0.553346,3.066988,-0.810814,-0.939453,-0.071533,0.187256,0.128511,0.030754,-0.000381,0.999870,-0.002767,0.015334,-0.004054,0.042999,-0.616742,-0.165937,-0.768275
07374,NaN,12.459836,1.632980,0.447487,-2.287686,0.333124,2.546797,-0.515235,2.976930,-0.901005,-0.947754,-0.084473,0.162109,0.124718,0.015776,0.002578,0.999876,-0.002576,0.014884,-0.004505,0.040827,-0.603894,-0.167274,-0.778244
07375,NaN,13.437515,1.370188,1.352230,-2.181388,0.991867,3.548299,-0.483190,2.889663,-0.976433,-0.945557,-0.090820,0.132568,0.134616,0.013075,0.011546,0.999881,-0.002416,0.014448,-0.004882,0.037982,-0.591858,-0.167730,-0.787482
07376,NaN,13.643689,1.550419,-0.366694,-4.172517,0.365091,3.269114,-1.327859,2.292313,-1.238539,-0.955811,-0.105713,0.105225,0.136475,0.014627,-0.005330,0.999893,-0.006639,0.011461,-0.006192,0.030803,-0.581565,-0.166224,-0.795741
07377,NaN,14.297648,3.262274,-1.038148,-4.957979,-1.263247,3.969536,-2.339650,2.017731,-1.497083,-0.951172,-0.124756,0.086182,0.143098,0.031416,-0.012197,0.999853,-0.011698,0.010088,-0.007485,0.019717,-0.572565,-0.160932,-0.803668
07378,NaN,12.694822,2.107758,-1.307978,-5.267071,-0.340527,1.995874,-2.465063,1.832040,-1.694686,-0.950684,-0.141846,0.071533,0.126991,0.019829,-0.014492,0.999846,-0.012325,0.009160,-0.008473,0.007305,-0.563655,-0.156312,-0.811053
07379,NaN,11.379946,0.316587,-0.409301,-4.558823,1.541622,0.512292,-1.672573,1.459165,-1.814306,-0.954346,-0.163330,0.054932,0.113788,0.002095,-0.004944,0.999897,-0.008363,0.007296,-0.009071,-0.003625,-0.556320,-0.154571,-0.816457
07380,NaN,10.752885,0.807470,0.481963,-3.586193,1.367417,0.275614,-1.287994,0.746510,-2.011252,-0.947510,-0.182617,0.040039,0.107620,0.007022,0.004371,0.999922,-0.006440,0.003732,-0.010056,-0.015547,-0.551662,-0.154968,-0.819398
07381,NaN,10.115753,4.395811,-3.661959,-6.802765,-2.956719,-0.866903,-3.463454,1.492103,-1.617928,-0.949219,-0.199707,0.021240,0.101225,0.042488,-0.038119,0.999790,-0.017316,0.007460,-0.008089,-0.030567,-0.543907,-0.145323,-0.825901
07382,NaN,8.165507,2.343828,0.763422,-2.489756,-0.357955,-1.662850,-3.048775,1.964995,-1.083529,-0.944824,-0.208252,-0.006104,0.081848,0.023100,0.006477,0.999821,-0.015243,0.009824,-0.005417,-0.042412,-0.534524,-0.136151,-0.833036
07383,NaN,7.839568,0.956566,0.190377,-3.170732,0.827863,-2.624617,-3.635802,1.768623,-0.871845,-0.948730,-0.223145,-0.033447,0.078448,0.009248,0.001040,0.999786,-0.018178,0.008842,-0.004359,-0.054546,-0.525676,-0.123683,-0.839876
07384,NaN,7.118328,1.945726,-0.558019,-3.663639,-0.353832,-3.392710,-4.120898,1.903615,-0.638103,-0.950928,-0.227295,-0.058838,0.071185,0.019100,-0.006654,0.999737,-0.020603,0.009517,-0.003190,-0.067438,-0.516159,-0.108681,-0.846889
07385,NaN,5.607453,0.306281,0.368723,-2.295345,1.016485,-4.775797,-4.048757,1.874752,-0.487323,-0.946533,-0.229248,-0.084229,0.056113,0.002993,0.003100,0.999748,-0.020242,0.009373,-0.002436,-0.078913,-0.506458,-0.093399,-0.853551
07386,NaN,4.869844,0.863316,0.058828,-2.344225,0.295741,-5.467565,-3.890270,1.768124,-0.385032,-0.948975,-0.229248,-0.109619,0.048717,0.008543,-0.000009,0.999770,-0.019450,0.008840,-0.001925,-0.090466,-0.497324,-0.078393,-0.859267
07387,NaN,4.203029,0.983414,0.286871,-1.925532,0.039833,-5.939083,-3.512418,1.473395,-0.330581,-0.942627,-0.227051,-0.139160,0.042065,0.009809,0.002386,0.999817,-0.017561,0.007367,-0.001653,-0.100025,-0.489182,-0.064776,-0.864002
07388,NaN,3.956637,0.941106,-0.056248,-2.166963,0.031214,-6.370803,-3.261151,1.237484,-0.339135,-0.942627,-0.229248,-0.149902,0.039577,0.009330,-0.000960,0.999846,-0.016305,0.006187,-0.001696,-0.109554,-0.482238,-0.052283,-0.867589
07389,NaN,3.769319,0.978780,-0.449365,-2.470090,-0.024222,-6.768786,-3.154753,0.989015,-0.268372,-0.942627,-0.231201,-0.173096,0.037683,0.009663,-0.004833,0.999862,-0.015773,0.004945,-0.001342,-0.118051,-0.476080,-0.039779,-0.870534
07390,NaN,3.557724,0.239788,-0.204486,-2.067174,0.657910,-6.975342,-2.860386,0.829434,-0.225385,-0.940674,-0.226807,-0.187988,0.035571,0.002327,-0.002226,0.999888,-0.014301,0.004147,-0.001127,-0.127034,-0.471000,-0.028105,-0.872486
07391,NaN,3.590320,-0.312983,-0.357326,-2.119418,1.226542,-7.144417,-2.592912,0.572519,-0.194363,-0.938721,-0.224609,-0.198486,0.035890,-0.003212,-0.003635,0.999911,-0.012964,0.002863,-0.000972,-0.133897,-0.466783,-0.017612,-0.874000
07392,NaN,3.343001,-0.525384,-0.259853,-1.857371,1.380751,-7.330170,-2.318896,0.337500,-0.204300,-0.940918,-0.224609,-0.200684,0.033420,-0.005318,-0.002594,0.999931,-0.011594,0.001687,-0.001021,-0.141494,-0.463996,-0.007932,-0.874428
07393,NaN,3.174865,-1.155667,-0.107335,-1.479780,1.934143,-7.468301,-2.076124,0.082002,-0.259178,-0.934570,-0.222412,-0.208984,0.031733,-0.011608,-0.000966,0.999945,-0.010380,0.000410,-0.001296,-0.147434,-0.462129,0.000486,-0.874471
07394,NaN,2.828845,-0.016625,-0.480807,-1.873062,0.825728,-7.801818,-1.889238,-0.155827,-0.345537,-0.936768,-0.222412,-0.211182,0.028292,-0.000260,-0.004784,0.999954,-0.009446,-0.000779,-0.001728,-0.154798,-0.461773,0.008450,-0.873345
07395,NaN,2.377620,0.600433,-0.893689,-2.135974,0.207076,-8.327106,-2.180772,-0.173496,-0.262298,-0.938965,-0.220459,-0.213379,0.023792,0.005875,-0.008981,0.999939,-0.010904,-0.000867,-0.001311,-0.160963,-0.460823,0.017500,-0.872598
07396,NaN,1.819802,-0.259459,0.059826,-0.818629,0.720366,-8.331646,-1.994786,-0.393560,-0.282049,-0.941162,-0.220459,-0.215332,0.018193,-0.002614,0.000660,0.999947,-0.009974,-0.001968,-0.001410,-0.167980,-0.461310,0.026172,-0.870799
07397,NaN,1.431135,-0.762405,1.105311,0.388317,0.871095,-8.097619,-1.548614,-0.761792,-0.323126,-0.940918,-0.222412,-0.213379,0.014257,-0.007561,0.011166,0.999961,-0.007743,-0.003809,-0.001616,-0.172855,-0.463347,0.032808,-0.868536
07398,NaN,1.527981,-1.330378,1.756769,1.076847,1.262427,-7.706177,-1.130307,-1.193014,-0.384969,-0.945312,-0.220459,-0.200684,0.015149,-0.013233,0.017733,0.999964,-0.005651,-0.005965,-0.001925,-0.178409,-0.467917,0.038354,-0.864727
07399,NaN,1.984529,-1.670305,2.679934,1.746705,1.458547,-6.857759,-0.668271,-1.639167,-0.446097,-0.949219,-0.226807,-0.181396,0.019587,-0.016657,0.027016,0.999958,-0.003341,-0.008196,-0.002230,-0.181582,-0.474471,0.041659,-0.860331
07400,NaN,2.834676,-1.746968,3.572397,2.157746,1.508629,-5.699710,-0.216941,-2.070461,-0.483930,-0.947021,-0.231201,-0.160400,0.027932,-0.017499,0.036034,0.999943,-0.001085,-0.010352,-0.002420,-0.184437,-0.483588,0.043565,-0.854533
07401,NaN,3.559678,-1.693497,3.832078,2.120611,1.563528,-4.987656,0.258936,-2.459609,-0.514896,-0.946777,-0.233398,-0.139160,0.035078,-0.017076,0.038732,0.999920,0.001295,-0.012298,-0.002574,-0.185463,-0.494407,0.043478,-0.848101
07402,NaN,4.820895,-1.617662,4.244704,2.031542,1.707503,-3.743926,0.753359,-2.763667,-0.484967,-0.950684,-0.242188,-0.111572,0.047577,-0.016454,0.043046,0.999894,0.003767,-0.013818,-0.002425,-0.185820,-0.507122,0.042047,-0.840554
07403,NaN,7.465608,-0.942062,4.919601,1.468524,1.603046,-1.089534,0.998858,-2.815092,-0.368117,-0.952881,-0.235840,-0.084229,0.073936,-0.009806,0.050192,0.999887,0.004994,-0.014075,-0.001841,-0.184224,-0.519898,0.039525,-0.833190
07404,NaN,11.323602,0.643247,6.239744,0.833487,0.783885,3.081233,0.968330,-2.535820,-0.179998,-0.952393,-0.246582,-0.062988,0.112438,0.006024,0.063856,0.999907,0.004841,-0.012679,-0.000900,-0.182035,-0.531543,0.037458,-0.826391
07405,NaN,15.341880,1.847853,7.551184,0.424622,0.315470,7.377925,0.643545,-2.066173,0.011784,-0.954590,-0.242432,-0.037598,0.152626,0.018241,0.077150,0.999941,0.003218,-0.010331,0.000059,-0.179881,-0.540631,0.036707,-0.820983
07406,NaN,19.565795,3.131526,8.613282,-0.208105,-0.181189,11.791223,0.139326,-1.616812,0.131840,-0.952393,-0.242432,-0.027100,0.194932,0.031383,0.087732,0.999967,0.000697,-0.008084,0.000659,-0.179157,-0.547493,0.038327,-0.816508
07407,NaN,23.748511,3.777932,8.616935,-1.542607,0.124185,15.684651,-0.188698,-1.124859,0.169793,-0.954346,-0.242432,-0.014404,0.236963,0.038063,0.087467,0.999983,-0.000943,-0.005624,0.000849,-0.178764,-0.551872,0.040568,-0.813532
07408,NaN,24.749467,3.046085,8.601367,-1.462580,0.944354,16.507766,-0.155915,-0.407829,0.126016,-0.956787,-0.236084,-0.012207,0.247299,0.030684,0.086494,0.999997,-0.000780,-0.002039,0.000630,-0.179171,-0.553506,0.042344,-0.812241
07409,NaN,20.370537,1.539654,7.995982,-0.065682,1.417298,12.079127,0.084931,0.332961,0.009226,-0.954346,-0.242432,-0.016357,0.203837,0.015372,0.079627,0.999999,0.000425,0.001665,0.000046,-0.178971,-0.552225,0.041725,-0.813189
07410,NaN,15.216409,0.138247,6.897534,1.032824,1.792373,6.766016,0.127972,0.793688,-0.035733,-0.954590,-0.235840,-0.024902,0.152436,0.001311,0.068372,0.999992,0.000640,0.003968,-0.000179,-0.179203,-0.549290,0.040665,-0.815177
07411,NaN,11.732144,-0.648489,6.290378,1.803347,1.870111,3.259497,-0.086924,0.909424,0.023134,-0.956787,-0.235840,-0.037598,0.117607,-0.006444,0.062372,0.999990,-0.000435,0.004547,0.000116,-0.179533,-0.545492,0.040266,-0.817670
07412,NaN,8.576904,-1.329918,5.943661,2.705111,1.826013,0.187636,-0.225665,0.818165,0.152925,-0.960938,-0.240234,-0.041748,0.086021,-0.013167,0.059100,0.999991,-0.001128,0.004091,0.000765,-0.179454,-0.542067,0.040885,-0.819932
07413,NaN,7.507229,-1.243694,6.265465,3.255240,1.391497,-0.613335,-0.151012,0.589133,0.331930,-0.963135,-0.235840,-0.043945,0.075277,-0.012265,0.062442,0.999994,-0.000755,0.002946,0.001660,-0.178624,-0.539443,0.041874,-0.821792
07414,NaN,7.571476,-0.405016,6.671612,3.248918,0.496202,-0.262832,-0.035268,0.405663,0.461861,-0.967529,-0.231689,-0.050293,0.075859,-0.003863,0.066563,0.999995,-0.000176,0.002028,0.002309,-0.177342,-0.537743,0.043374,-0.823104
07415,NaN,8.330531,0.495529,7.523467,3.363829,-0.398285,0.900465,0.160922,0.392918,0.519093,-0.969971,-0.222900,-0.054688,0.083440,0.005111,0.075075,0.999994,0.000805,0.001965,0.002595,-0.174860,-0.536151,0.043758,-0.824652
07416,NaN,10.412829,1.052473,7.626824,2.440354,-0.449889,2.897337,0.389934,0.747561,0.519855,-0.974365,-0.225098,-0.060791,0.104385,0.010648,0.075899,0.999988,0.001950,0.003738,0.002599,-0.171600,-0.533350,0.042955,-0.827191
07417,NaN,10.984414,1.031405,4.026338,-1.000287,0.630487,1.872047,0.219257,1.121773,0.367652,-0.968018,-0.222900,-0.067383,0.110049,0.010473,0.039658,0.999982,0.001096,0.005609,0.001838,-0.169735,-0.528808,0.042065,-0.830532
07418,NaN,11.212368,-0.630238,-3.483840,-7.140866,4.142486,-1.440243,0.606451,1.123793,-0.105374,-0.968018,-0.225098,-0.073730,0.111922,-0.006254,-0.035487,0.999979,0.003032,0.005619,-0.000527,-0.169614,-0.524667,0.038996,-0.833328
07419,NaN,9.359459,-1.923650,-5.343254,-7.674951,5.371998,-4.148219,1.374967,0.639431,-0.773897,-0.976074,-0.233643,-0.069336,0.093348,-0.019229,-0.053863,0.999964,0.006875,0.003197,-0.003869,-0.169352,-0.523299,0.030692,-0.834588
07420,NaN,6.541234,0.223788,-3.013157,-5.237701,2.133856,-5.348386,1.944804,-0.277383,-1.272847,-0.967285,-0.246582,-0.067139,0.065468,0.002114,-0.030020,0.999932,0.009724,-0.001387,-0.006364,-0.170093,-0.526462,0.020126,-0.832767
07421,NaN,6.376302,2.749630,-1.950184,-4.959856,-0.484895,-4.598854,2.500307,-0.735368,-1.497050,-0.966553,-0.263672,-0.041504,0.064038,0.027257,-0.018925,0.999887,0.012501,-0.003677,-0.007485,-0.169654,-0.531739,0.006397,-0.829717
07422,NaN,7.790444,2.724123,-2.078695,-5.482857,-0.018203,-3.303592,3.495354,-0.824299,-1.365273,-0.957764,-0.276611,-0.020508,0.078173,0.027062,-0.019991,0.999815,0.017476,-0.004121,-0.006826,-0.166282,-0.538361,-0.010537,-0.826079
07423,NaN,9.645316,2.206053,-2.944683,-6.666569,1.125565,-2.011591,4.238733,-0.829709,-0.868960,-0.953125,-0.281006,-0.001465,0.096669,0.022253,-0.028576,0.999757,0.021192,-0.004148,-0.004344,-0.158467,-0.545133,-0.029690,-0.822701
07424,NaN,11.613359,2.019932,-1.489034,-5.866593,1.639762,0.388269,3.951664,-0.657401,-0.147509,-0.961670,-0.276855,0.011230,0.116196,0.020398,-0.014107,0.999799,0.019757,-0.003287,-0.000737,-0.148108,-0.551202,-0.045694,-0.819849
07425,NaN,11.058129,-0.230147,1.258000,-2.629373,3.341116,0.475209,2.700936,-0.567069,0.424892,-0.964111,-0.270508,0.028320,0.110550,-0.002239,0.012863,0.999903,0.013504,-0.002835,0.002124,-0.139040,-0.555568,-0.055171,-0.817905
07426,NaN,10.040120,0.491683,0.824580,-2.736553,2.332151,-0.389460,1.985633,-0.787721,0.605202,-0.959961,-0.261963,0.040771,0.100352,0.005136,0.008691,0.999938,0.009928,-0.003939,0.003026,-0.129175,-0.560578,-0.062114,-0.815603
07427,NaN,9.628982,2.333401,1.320072,-2.286515,0.384121,-0.090185,1.982009,-1.027155,0.572629,-0.958008,-0.257568,0.057617,0.096152,0.023474,0.013927,0.999934,0.009910,-0.005136,0.002863,-0.121597,-0.566186,-0.067925,-0.812425
07428,NaN,9.629659,2.677861,1.266165,-2.205387,0.008583,0.017752,2.460054,-1.295875,0.446484,-0.966553,-0.249023,0.078857,0.096151,0.026830,0.013615,0.999901,0.012300,-0.006479,0.002232,-0.111607,-0.573341,-0.076625,-0.808055
07429,NaN,9.654976,2.953321,0.142203,-3.092525,-0.265462,-0.204256,3.041543,-1.537005,0.235675,-0.959961,-0.249268,0.108398,0.096498,0.029613,0.002614,0.999854,0.015207,-0.007685,0.001178,-0.102510,-0.581253,-0.087369,-0.802498
07430,NaN,9.488659,3.289363,-1.267193,-4.151937,-0.708574,-0.608712,3.709817,-1.595263,0.095786,-0.964355,-0.245117,0.133789,0.094965,0.033157,-0.011301,0.999796,0.018548,-0.007976,0.000479,-0.090790,-0.589799,-0.101658,-0.795965
07431,NaN,8.855729,4.056737,-2.229671,-4.635983,-1.718138,-1.129438,4.164614,-1.685591,0.059505,-0.956055,-0.232178,0.161133,0.088724,0.041036,-0.020698,0.999748,0.020821,-0.008427,0.000297,-0.079108,-0.598277,-0.117265,-0.788705
07432,NaN,8.100810,4.885112,-2.876856,-4.712416,-2.852061,-1.602298,4.262061,-1.810156,0.110495,-0.954102,-0.221680,0.190674,0.081230,0.049484,-0.026984,0.999732,0.021308,-0.009050,0.000552,-0.066155,-0.607382,-0.133249,-0.780356
07433,NaN,8.350250,5.404682,-2.912783,-4.431132,-3.354971,-1.065265,3.917072,-1.962836,0.228634,-0.950195,-0.210938,0.211670,0.083714,0.054688,-0.027240,0.999759,0.019584,-0.009813,0.001143,-0.054660,-0.616341,-0.147156,-0.771674
07434,NaN,8.530125,5.598031,-2.340752,-3.518381,-3.462416,-0.582254,3.297434,-2.063308,0.362346,-0.946045,-0.196045,0.243164,0.085428,0.056501,-0.021598,0.999809,0.016486,-0.010316,0.001812,-0.043048,-0.625571,-0.159135,-0.762551
07435,NaN,7.734027,4.736015,-0.695876,-1.557647,-2.568059,-1.227717,2.657537,-1.842050,0.581496,-0.942139,-0.185547,0.264160,0.077258,0.047665,-0.005615,0.999865,0.013287,-0.009210,0.002907,-0.033980,-0.633543,-0.167031,-0.754698
07436,NaN,7.885249,2.952179,0.326841,-0.613679,-0.640634,-1.433697,2.447287,-2.079742,0.612309,-0.936035,-0.170654,0.295898,0.078720,0.029713,0.004450,0.999866,0.012236,-0.010398,0.003061,-0.023863,-0.642355,-0.175242,-0.745722
07437,NaN,7.860509,2.256180,0.321246,-0.525756,0.003787,-1.645601,1.871347,-1.933797,0.743087,-0.934326,-0.159912,0.308350,0.078483,0.022817,0.004184,0.999903,0.009356,-0.009669,0.003715,-0.016775,-0.650377,-0.179585,-0.737888
07438,NaN,7.728582,1.743872,0.238313,-0.495905,0.408989,-1.912492,1.808847,-1.702820,0.874278,-0.927979,-0.149170,0.331543,0.077184,0.017750,0.003200,0.999913,0.009044,-0.008514,0.004371,-0.007796,-0.657704,-0.184271,-0.730349
07439,NaN,8.546461,2.475714,0.004848,-0.470415,-0.148434,-0.928760,1.710008,-1.797660,0.863945,-0.919922,-0.132080,0.352539,0.085350,0.025120,0.001030,0.999914,0.008550,-0.008988,0.004320,-0.000674,-0.665074,-0.187589,-0.722832
07440,NaN,9.307904,2.722649,0.422463,0.123934,-0.100738,-0.107055,1.434747,-1.615251,0.889100,-0.920166,-0.121582,0.365234,0.092918,0.027605,0.005173,0.999932,0.007174,-0.008076,0.004445,0.006363,-0.672049,-0.190079,-0.715668
07441,NaN,9.207382,2.243564,0.494492,0.253924,0.302118,-0.331330,0.987441,-1.183943,0.967496,-0.916504,-0.104248,0.379883,0.091932,0.022854,0.005602,0.999959,0.004937,-0.005920,0.004837,0.012017,-0.677145,-0.190392,-0.710690
07442,NaN,8.730259,-0.339101,-0.514176,-1.248374,2.239545,-1.444800,1.038369,-1.046980,0.901256,-0.912354,-0.093750,0.388184,0.087342,-0.002972,-0.004701,0.999963,0.005192,-0.005235,0.004506,0.018596,-0.681868,-0.191659,-0.705675
07443,NaN,8.725849,0.568007,-0.488285,-0.841617,1.363032,-1.202596,1.736966,-1.227876,0.796083,-0.908691,-0.078613,0.398682,0.087262,0.006066,-0.004296,0.999936,0.008685,-0.006139,0.003980,0.026148,-0.686758,-0.195176,-0.699704
07444,NaN,9.456514,1.089276,-0.915411,-0.987191,0.868259,-0.340623,1.737826,-0.922730,0.866782,-0.908936,-0.063721,0.411133,0.094557,0.011379,-0.008620,0.999942,0.008689,-0.004614,0.004334,0.035179,-0.690759,-0.199002,-0.694271
07445,NaN,8.473089,0.249819,-1.372865,-1.536920,1.207907,-1.450981,1.758016,-0.711192,0.840100,-0.905273,-0.044434,0.421631,0.084767,0.002973,-0.013403,0.999946,0.008790,-0.003556,0.004200,0.043456,-0.693718,-0.202318,-0.689880
07446,NaN,8.677440,0.951624,-1.937975,-1.725305,0.346103,-1.045625,1.890095,-0.687018,0.806351,-0.901611,-0.027344,0.432129,0.086800,0.010047,-0.018988,0.999941,0.009450,-0.003435,0.004032,0.053161,-0.696589,-0.206911,-0.684927
07447,NaN,8.343340,1.376464,-1.757831,-1.285608,-0.111317,-1.272814,1.806540,-0.665676,0.787957,-0.899658,-0.016602,0.431885,0.083436,0.014250,-0.017173,0.999946,0.009033,-0.003328,0.003940,0.061459,-0.699167,-0.210519,-0.680493
07448,NaN,8.701576,2.182470,-1.101703,-0.249451,-0.571889,-0.795834,1.520483,-0.766039,0.765004,-0.902100,-0.003906,0.446777,0.086972,0.022239,-0.010516,0.999956,0.007602,-0.003830,0.003825,0.069558,-0.702223,-0.213912,-0.675489
07449,NaN,9.019648,2.305722,-0.803714,0.199757,-0.534688,-0.485895,1.147647,-0.930991,0.742157,-0.898193,0.004639,0.450928,0.090146,0.023436,-0.007484,0.999966,0.005738,-0.004655,0.003711,0.075096,-0.705739,-0.215500,-0.670711
07450,NaN,9.272070,2.304832,-1.047138,0.127502,-0.604328,-0.221192,0.971517,-1.097355,0.712293,-0.887939,0.019775,0.465576,0.092693,0.023427,-0.009850,0.999967,0.004858,-0.005487,0.003561,0.079934,-0.710162,-0.216533,-0.665127
07451,NaN,9.506944,2.356235,-0.894722,0.441550,-0.556821,-0.003133,1.044887,-1.172316,0.661554,-0.885986,0.030273,0.469727,0.095040,0.023921,-0.008266,0.999964,0.005224,-0.005862,0.003308,0.084572,-0.714334,-0.218120,-0.659544
07452,NaN,9.544229,2.453629,-0.237197,1.242814,-0.374843,-0.041208,1.203889,-1.161483,0.616729,-0.882080,0.038818,0.482178,0.095377,0.024842,-0.001669,0.999960,0.006019,-0.005807,0.003084,0.089680,-0.718689,-0.220097,-0.653453
07453,NaN,9.135056,2.604285,0.990943,2.538531,-0.070648,-0.606023,1.313804,-1.106336,0.598174,-0.871826,0.053955,0.492676,0.091215,0.026248,0.010586,0.999959,0.006569,-0.005532,0.002991,0.095134,-0.722344,-0.222728,-0.647735
07454,NaN,8.478174,2.968474,1.967298,3.672177,-0.087603,-1.382542,1.412849,-1.063095,0.596228,-0.867920,0.068848,0.498779,0.084586,0.029795,0.020333,0.999956,0.007064,-0.005315,0.002981,0.101019,-0.726097,-0.225387,-0.641700
07455,NaN,8.068776,3.866878,2.576015,4.715142,-0.657117,-1.810962,1.467480,-0.987938,0.612249,-0.866211,0.081543,0.511475,0.080440,0.038723,0.026442,0.999956,0.007337,-0.004940,0.003061,0.107192,-0.729185,-0.228363,-0.636121
07456,NaN,8.034462,4.821215,2.758224,5.448991,-1.377858,-1.824408,1.411096,-0.887524,0.659775,-0.858154,0.094482,0.513428,0.080061,0.048279,0.028278,0.999960,0.007055,-0.004438,0.003299,0.113492,-0.732248,-0.230727,-0.630633
07457,NaN,8.638171,6.018982,2.667571,6.132619,-2.307470,-1.150901,1.271525,-0.757785,0.734910,-0.854248,0.109375,0.519775,0.086057,0.060334,0.027385,0.999966,0.006358,-0.003789,0.003675,0.119586,-0.734740,-0.232468,-0.625951
07458,NaN,8.953452,6.035617,1.202846,5.043042,-2.934732,-0.647911,1.080160,-0.614705,0.804705,-0.852539,0.122314,0.525879,0.089253,0.060649,0.012630,0.999973,0.005401,-0.003073,0.004023,0.125440,-0.737119,-0.233170,-0.621733
07459,NaN,9.242829,6.261123,0.454590,4.672319,-3.440046,-0.264280,1.061055,-0.471775,0.797293,-0.848633,0.133057,0.527832,0.092166,0.062953,0.005097,0.999975,0.005305,-0.002359,0.003986,0.131276,-0.738833,-0.233820,-0.618240
07460,NaN,9.454244,5.690818,0.316207,4.406515,-2.997779,-0.145060,0.754366,-0.429595,0.704471,-0.853027,0.143799,0.531982,0.094334,0.057228,0.003580,0.999984,0.003772,-0.002148,0.003522,0.135829,-0.740591,-0.233869,-0.615126
07461,NaN,9.843914,5.625681,0.386420,4.572245,-2.861776,0.167511,0.376210,-0.403955,0.603921,-0.842529,0.143799,0.531982,0.098260,0.056546,0.004169,0.999992,0.001881,-0.002020,0.003020,0.138606,-0.742280,-0.233063,-0.612773
07462,NaN,10.585608,5.531735,0.336549,4.654447,-2.704054,0.854657,0.022753,-0.307352,0.531891,-0.840576,0.152344,0.531982,0.105703,0.055598,0.003534,0.999995,0.000114,-0.001537,0.002659,0.140043,-0.743880,-0.231505,-0.611094
07463,NaN,11.352448,5.250830,0.462054,4.771756,-2.311016,1.525391,-0.240606,-0.220933,0.480083,-0.844971,0.154541,0.538330,0.113393,0.052786,0.004682,0.999996,-0.001203,-0.001105,0.002400,0.140358,-0.745278,-0.229139,-0.610210
07464,NaN,12.255077,4.893678,1.568696,5.691915,-1.357388,2.118576,-0.418973,-0.142273,0.442835,-0.840576,0.152344,0.540527,0.122431,0.049241,0.015671,0.999995,-0.002095,-0.000711,0.002214,0.140076,-0.746508,-0.226545,-0.609739
07465,NaN,13.077881,4.944603,2.465385,6.618210,-0.887896,2.716032,-0.578990,-0.025738,0.310536,-0.838379,0.152344,0.538330,0.130699,0.049720,0.024527,0.999995,-0.002895,-0.000129,0.001553,0.138831,-0.747341,-0.223639,-0.610076
07466,NaN,13.965869,5.129073,2.359750,6.741085,-1.005681,3.621122,-0.438262,0.315522,0.157583,-0.844727,0.150146,0.538330,0.139655,0.051452,0.023265,0.999996,-0.002191,0.001578,0.000788,0.138086,-0.746804,-0.221751,-0.611590
07467,NaN,14.710659,5.698335,1.292147,6.156093,-1.945982,4.639248,-0.266479,0.772404,-0.021155,-0.857422,0.147949,0.530029,0.147161,0.056984,0.012277,0.999992,-0.001332,0.003862,-0.000106,0.137881,-0.744598,-0.220481,-0.614777
07468,NaN,16.187832,6.121915,0.404592,5.666820,-2.558748,6.343524,-0.235926,1.280421,-0.224915,-0.861572,0.141602,0.521484,0.161968,0.061041,0.002937,0.999978,-0.001180,0.006402,-0.001125,0.137781,-0.740444,-0.220026,-0.619958
07469,NaN,15.116925,5.796115,0.607881,5.296285,-2.419925,5.305908,-0.476145,1.714881,-0.439934,-0.874023,0.128906,0.506836,0.151340,0.057641,0.004644,0.999958,-0.002381,0.008574,-0.002200,0.136535,-0.734942,-0.218990,-0.627106
07470,NaN,14.593491,4.825823,1.701591,5.398238,-1.203863,4.628701,-0.808563,1.988839,-0.673343,-0.882324,0.118164,0.489990,0.146255,0.047831,0.015369,0.999937,-0.004043,0.009944,-0.003367,0.133659,-0.728311,-0.217921,-0.635774
07471,NaN,13.798555,4.422077,1.820001,4.888672,-0.994531,3.911980,-1.186256,2.310152,-0.780522,-0.903320,0.111816,0.462646,0.138353,0.043782,0.016343,0.999908,-0.005931,0.011550,-0.003902,0.129362,-0.720845,-0.215430,-0.645940
07472,NaN,12.652685,4.347690,1.545422,4.152726,-1.312845,2.930864,-1.547576,2.646284,-0.771148,-0.911377,0.092529,0.446045,0.126880,0.043097,0.013442,0.999875,-0.007738,0.013231,-0.003856,0.124188,-0.712161,-0.211880,-0.657656
07473,NaN,11.739308,2.381961,0.720408,2.087821,-0.192474,2.002348,-1.935131,2.890088,-0.757085,-0.934570,0.079834,0.416504,0.117568,0.023432,0.005278,0.999842,-0.009675,0.014450,-0.003785,0.117849,-0.702946,-0.206386,-0.670360
07474,NaN,11.491192,0.701850,0.266955,0.547015,0.975196,1.648082,-2.154583,3.076328,-0.758136,-0.942383,0.058594,0.391357,0.114960,0.006598,0.000829,0.999816,-0.010772,0.015381,-0.003790,0.110963,-0.692746,-0.200397,-0.683835
07475,NaN,13.109092,-0.352002,-1.221953,-1.665272,1.413311,3.175004,-2.085604,3.088483,-0.779465,-0.954834,0.041504,0.357666,0.130866,-0.004172,-0.014200,0.999819,-0.010427,0.015441,-0.003897,0.104148,-0.682439,-0.194217,-0.696929
07476,NaN,15.687880,-0.149691,-2.769510,-3.576084,0.856702,5.687576,-1.914195,3.011244,-0.814044,-0.965088,0.026611,0.330322,0.156430,-0.002414,-0.030033,0.999833,-0.009570,0.015055,-0.004070,0.097739,-0.671811,-0.189064,-0.709487
07477,NaN,17.313525,1.263399,-3.193518,-4.069263,-0.447870,7.356028,-1.901854,2.997542,-0.819356,-0.979736,0.011719,0.301025,0.172679,0.011605,-0.034639,0.999834,-0.009509,0.014987,-0.004097,0.091261,-0.661223,-0.183574,-0.721635
07478,NaN,19.035248,2.299833,-2.467869,-3.814983,-0.977974,9.112773,-1.901951,3.098945,-0.744659,-0.989990,-0.003174,0.271484,0.190021,0.022036,-0.027837,0.999828,-0.009509,0.015494,-0.003723,0.085175,-0.649927,-0.178030,-0.733925
07479,NaN,18.092771,2.973319,-1.812845,-3.475500,-1.539378,8.214828,-1.801150,3.195281,-0.656992,-0.998047,-0.022461,0.242188,0.180700,0.028957,-0.021280,0.999826,-0.009005,0.015975,-0.003285,0.079740,-0.638273,-0.172166,-0.746062
07480,NaN,15.649460,3.124136,-1.033797,-2.878299,-1.729322,5.821645,-1.431400,3.265169,-0.712032,-1.002441,-0.024414,0.206299,0.156405,0.030597,-0.013113,0.999835,-0.007157,0.016325,-0.003560,0.075346,-0.625808,-0.168041,-0.757925
07481,NaN,15.025277,2.092848,0.158918,-2.516739,-0.483073,5.139702,-1.044709,3.251174,-0.806208,-1.010742,-0.035156,0.176758,0.150334,0.020322,-0.000961,0.999846,-0.005223,0.016255,-0.004031,0.071741,-0.613109,-0.165355,-0.769161
07482,NaN,13.867214,1.314756,0.945342,-2.252432,0.366221,3.960331,-0.665212,3.163179,-0.991398,-1.014404,-0.056396,0.147217,0.138861,0.012486,0.007216,0.999857,-0.003326,0.015815,-0.004957,0.068572,-0.600158,-0.164976,-0.779674
07483,NaN,14.214899,0.419703,0.670574,-3.329969,1.130593,3.982375,-0.290038,3.103327,-1.138450,-1.022949,-0.062744,0.113525,0.142251,0.003395,0.004494,0.999862,-0.001450,0.015516,-0.005692,0.065813,-0.587139,-0.166176,-0.789507
07484,NaN,13.975598,1.037017,0.589557,-3.602861,0.517002,3.732579,0.027529,3.093937,-1.244167,-1.020508,-0.073486,0.083984,0.139886,0.009500,0.003734,0.999861,0.000138,0.015469,-0.006221,0.063539,-0.573732,-0.169103,-0.798873
07485,NaN,12.639946,2.025432,-1.027995,-4.712771,-1.037938,2.088061,-1.120622,2.381811,-1.488016,-1.020020,-0.096924,0.067383,0.126410,0.019250,-0.011895,0.999886,-0.005603,0.011909,-0.007440,0.056386,-0.563252,-0.168121,-0.807033
07486,NaN,11.883369,3.666197,-3.446892,-6.465472,-3.297171,0.857299,-2.638097,1.180740,-2.073730,-1.017090,-0.122559,0.050537,0.118994,0.034964,-0.035640,0.999842,-0.013190,0.005903,-0.010368,0.041556,-0.557375,-0.163141,-0.813014
07487,NaN,10.680317,1.906145,0.139639,-3.520003,-0.448524,0.440283,-1.409138,1.352041,-2.183822,-1.014404,-0.144043,0.033691,0.107008,0.017900,0.000545,0.999893,-0.007045,0.006760,-0.010919,0.029849,-0.550332,-0.163202,-0.818297
07488,NaN,9.705672,2.206116,-0.817547,-4.124635,-0.963332,-0.768978,-2.059719,0.867406,-2.232578,-1.007568,-0.163330,0.021240,0.097257,0.020888,-0.008816,0.999875,-0.010298,0.004337,-0.011162,0.015692,-0.545229,-0.160943,-0.822542
07489,NaN,9.401495,3.664910,-2.833640,-5.742649,-2.760248,-1.491626,-3.555602,1.277331,-1.965749,-1.009277,-0.184570,0.000244,0.094179,0.035205,-0.029572,0.999773,-0.017777,0.006386,-0.009828,-0.001062,-0.538551,-0.151544,-0.828852
07490,NaN,7.826872,1.933523,0.029355,-3.040643,-0.498960,-2.362800,-3.458809,1.353083,-1.691081,-1.002197,-0.210205,-0.020752,0.078427,0.018668,-0.000563,0.999792,-0.017293,0.006765,-0.008455,-0.016348,-0.531594,-0.141973,-0.834856
07491,NaN,6.703474,1.291463,-1.638410,-4.286375,-0.337519,-4.263114,-4.328936,1.319143,-1.469008,-0.995605,-0.216553,-0.046143,0.067014,0.012057,-0.017093,0.999717,-0.021643,0.006595,-0.007344,-0.033046,-0.524542,-0.127878,-0.841077
07492,NaN,5.612765,0.497254,-0.259567,-2.752435,0.567816,-4.922079,-4.390170,1.487011,-1.146396,-0.995361,-0.233643,-0.071289,0.056133,0.004586,-0.003117,0.999715,-0.021949,0.007434,-0.005731,-0.048452,-0.516781,-0.112846,-0.847264
07493,NaN,4.452455,-0.582484,0.655670,-1.509838,1.548224,-5.823101,-4.188571,1.396618,-0.986129,-0.993408,-0.231445,-0.096680,0.044540,-0.005910,0.006369,0.999744,-0.020941,0.006982,-0.004930,-0.062653,-0.509163,-0.097962,-0.852778
07494,NaN,3.549121,-0.457816,0.542335,-1.212134,1.239771,-6.635643,-3.994747,1.298644,-0.898906,-0.980469,-0.237793,-0.122070,0.035505,-0.004631,0.005285,0.999769,-0.019972,0.006493,-0.004494,-0.076034,-0.501935,-0.083798,-0.857472
07495,NaN,2.733891,0.019487,0.165562,-1.195330,0.585475,-7.418894,-3.952332,1.169938,-0.804042,-0.982666,-0.241943,-0.143311,0.027349,0.000116,0.001493,0.999780,-0.019760,0.005849,-0.004020,-0.088894,-0.494971,-0.069300,-0.861568
07496,NaN,2.324751,0.288455,-0.476887,-1.597488,0.236640,-8.050040,-3.913633,0.958814,-0.732033,-0.980469,-0.248291,-0.157959,0.023234,0.002704,-0.004934,0.999790,-0.019567,0.004794,-0.003660,-0.101404,-0.488870,-0.054850,-0.864705
07497,NaN,2.439515,0.486836,-1.210786,-2.329473,0.119052,-8.325000,-3.746034,0.716154,-0.625168,-0.971924,-0.248291,-0.181152,0.024366,0.004563,-0.012283,0.999813,-0.018729,0.003581,-0.003126,-0.113049,-0.483614,-0.040537,-0.867003
07498,NaN,2.504451,0.461652,-1.222134,-2.383255,0.216583,-8.312066,-3.466989,0.494396,-0.553775,-0.971924,-0.248291,-0.187500,0.025026,0.004334,-0.012360,0.999843,-0.017334,0.002472,-0.002769,-0.123788,-0.479465,-0.027280,-0.868358
07499,NaN,3.147257,0.253958,-1.392918,-2.820878,0.642687,-7.931409,-3.291609,0.225526,-0.501240,-0.974121,-0.250488,-0.206543,0.031463,0.002231,-0.014003,0.999861,-0.016457,0.001128,-0.002506,-0.133809,-0.476316,-0.014328,-0.868915
07500,NaN,3.384365,0.263891,-1.760761,-3.243918,0.795701,-7.950630,-3.183819,-0.029798,-0.477302,-0.972168,-0.243896,-0.208740,0.033852,0.002277,-0.017641,0.999870,-0.015918,-0.000149,-0.002386,-0.143564,-0.474381,-0.001747,-0.868533
07501,NaN,3.330825,0.420807,-2.100676,-3.524673,0.752037,-8.171074,-3.132624,-0.194837,-0.431042,-0.967773,-0.248291,-0.217285,0.033337,0.003807,-0.021036,0.999875,-0.015662,-0.000974,-0.002155,-0.152851,-0.472918,0.010972,-0.867678
07502,NaN,2.921097,-0.207394,-1.727326,-2.817542,1.254505,-8.382023,-2.943626,-0.347751,-0.384262,-0.968018,-0.241699,-0.221436,0.029237,-0.002384,-0.017189,0.999888,-0.014718,-0.001739,-0.001921,-0.161601,-0.472330,0.022989,-0.866176
07503,NaN,2.559311,-0.825279,-1.106610,-1.912384,1.670386,-8.395608,-2.509062,-0.568940,-0.434769,-0.963867,-0.241699,-0.227783,0.025606,-0.008446,-0.010888,0.999915,-0.012545,-0.002845,-0.002174,-0.169333,-0.472779,0.033285,-0.864117
07504,NaN,2.504640,-1.311186,-0.491506,-1.187881,1.999779,-8.132328,-2.028746,-0.796448,-0.476843,-0.968018,-0.243896,-0.225830,0.025034,-0.013220,-0.004682,0.999938,-0.010144,-0.003982,-0.002384,-0.176271,-0.474749,0.041535,-0.861288
07505,NaN,2.572671,-1.658970,0.190320,-0.506297,2.181527,-7.717119,-1.478242,-1.033271,-0.505566,-0.968018,-0.246094,-0.212891,0.025674,-0.016639,0.002159,0.999956,-0.007391,-0.005166,-0.002528,-0.181737,-0.477983,0.047608,-0.858043
07506,NaN,2.551628,-2.471461,1.135588,0.611096,2.677265,-7.289403,-0.900413,-1.345125,-0.548558,-0.963623,-0.248291,-0.202393,0.025371,-0.024732,0.011638,0.999963,-0.004502,-0.006726,-0.002743,-0.186231,-0.483240,0.051396,-0.853906
07507,NaN,3.202979,-2.722396,2.175286,1.309440,2.785871,-6.217399,-0.339929,-1.686579,-0.579076,-0.967773,-0.250488,-0.183350,0.031766,-0.027279,0.022068,0.999959,-0.001700,-0.008433,-0.002895,-0.189086,-0.490257,0.053015,-0.849167
07508,NaN,4.260572,-2.571735,2.800477,1.386169,2.741223,-4.998942,0.202381,-2.032064,-0.568618,-0.961182,-0.252686,-0.164307,0.042245,-0.025866,0.028409,0.999944,0.001012,-0.010160,-0.002843,-0.190805,-0.499375,0.052764,-0.843465
07509,NaN,5.905905,-2.391802,3.544861,1.358644,2.798010,-3.218024,0.616791,-2.258347,-0.511257,-0.965088,-0.259033,-0.145264,0.058593,-0.024179,0.036038,0.999928,0.003084,-0.011291,-0.002556,-0.190814,-0.509590,0.051035,-0.837438
07510,NaN,8.071293,-1.936801,4.746310,1.501118,2.606336,-0.736671,0.742681,-2.325832,-0.379943,-0.962891,-0.263428,-0.124023,0.080117,-0.019699,0.048324,0.999924,0.003713,-0.011629,-0.001900,-0.190257,-0.520257,0.049314,-0.831086
07511,NaN,10.550112,-0.396126,6.566822,1.765894,1.297558,2.425615,0.654371,-2.266792,-0.169351,-0.964844,-0.261475,-0.098633,0.104744,-0.004268,0.066845,0.999930,0.003272,-0.011334,-0.000847,-0.188688,-0.530308,0.048305,-0.825129
07512,NaN,15.149746,1.634482,8.487154,1.300730,-0.008524,7.580295,0.145206,-2.012825,0.050945,-0.968994,-0.259277,-0.081787,0.150629,0.016321,0.086402,0.999949,0.000726,-0.010064,0.000255,-0.187934,-0.538853,0.049912,-0.819651
07513,NaN,18.358674,2.650307,9.468861,0.962143,-0.573121,10.983005,-0.500335,-1.618796,0.194261,-0.967041,-0.255127,-0.071289,0.182787,0.026920,0.096103,0.999964,-0.002502,-0.008094,0.000971,-0.188077,-0.544953,0.054003,-0.815314
07514,NaN,21.375029,3.131548,9.231743,-0.181024,-0.408808,13.675945,-0.767531,-1.280760,0.241718,-0.960693,-0.252930,-0.060791,0.213115,0.031931,0.093562,0.999971,-0.003838,-0.006404,0.001209,-0.189069,-0.549503,0.059113,-0.811668
07515,NaN,22.895699,2.678925,8.823997,-0.690421,0.306485,14.858718,-0.609768,-0.791328,0.238580,-0.965088,-0.248779,-0.056641,0.228573,0.027333,0.089062,0.999987,-0.003049,-0.003957,0.001193,-0.189542,-0.552064,0.062988,-0.809525
07516,NaN,20.711758,1.619136,8.454046,0.159647,0.767197,12.602823,-0.224029,-0.143782,0.129258,-0.962891,-0.248779,-0.058594,0.207046,0.016420,0.084671,0.999999,-0.001120,-0.000719,0.000646,-0.189804,-0.552524,0.064492,-0.809032
07517,NaN,16.682429,0.619946,7.529479,0.989534,1.018952,8.445543,0.210497,0.374202,0.008764,-0.967285,-0.248779,-0.067139,0.166965,0.006128,0.074989,0.999998,0.001052,0.001871,0.000044,-0.189309,-0.551210,0.063307,-0.810137
07518,NaN,13.397813,-0.587832,6.605758,1.637092,1.688699,4.950459,0.365663,0.579959,-0.041960,-0.960693,-0.250732,-0.064941,0.134168,-0.006027,0.065658,0.999994,0.001828,0.002900,-0.000210,-0.188874,-0.549342,0.061281,-0.811662
07519,NaN,11.761109,-1.446389,6.012078,1.906580,2.323364,3.130543,0.302729,0.560026,0.011325,-0.962891,-0.250732,-0.071289,0.117780,-0.014548,0.059769,0.999995,0.001514,0.002800,0.000057,-0.188169,-0.547353,0.059553,-0.813296
07520,NaN,10.162421,-1.901015,6.077488,2.603853,2.368881,1.651717,0.212953,0.468679,0.140628,-0.958740,-0.250732,-0.075684,0.101780,-0.019003,0.060516,0.999996,0.001065,0.002343,0.000703,-0.187390,-0.545715,0.058790,-0.814631
07521,NaN,9.115932,-2.097884,6.677617,3.492079,2.129634,0.927968,0.157476,0.403779,0.338947,-0.954346,-0.250732,-0.079834,0.091329,-0.020877,0.066575,0.999996,0.000787,0.002019,0.001695,-0.185700,-0.544120,0.058693,-0.816091
07522,NaN,7.721823,-0.895827,7.760421,4.411369,0.360887,0.240297,0.265967,0.443541,0.502505,-0.954834,-0.239990,-0.084229,0.077412,-0.008867,0.077421,0.999994,0.001330,0.002218,0.002513,-0.183326,-0.542489,0.058777,-0.817706
07523,NaN,8.498674,0.131264,7.575845,3.556213,-0.334107,0.998392,0.690233,0.615766,0.524976,-0.958984,-0.239990,-0.086182,0.085216,0.001275,0.075501,0.999986,0.003451,0.003079,0.002625,-0.179487,-0.540447,0.056811,-0.820045
07524,NaN,10.802987,0.697626,6.301761,1.356551,0.080246,2.639437,0.864739,1.062472,0.488759,-0.957275,-0.231445,-0.090576,0.108346,0.006970,0.062473,0.999974,0.004324,0.005312,0.002444,-0.175688,-0.536766,0.053834,-0.823479
07525,NaN,13.186487,0.098292,0.373445,-4.564009,2.871452,2.227024,1.142584,1.310346,0.206649,-0.955078,-0.233643,-0.094727,0.131884,0.001101,0.002876,0.999962,0.005713,0.006552,0.001033,-0.172118,-0.532303,0.048530,-0.827450
07526,NaN,12.986985,-0.716667,-5.519848,-9.451437,5.150942,-0.659593,1.550434,1.252158,-0.296900,-0.955078,-0.237793,-0.105225,0.129510,-0.006927,-0.056064,0.999949,0.007752,0.006261,-0.001484,-0.169766,-0.528574,0.040463,-0.830754
07527,NaN,8.356285,0.910127,-6.504302,-9.134605,2.726252,-5.112893,1.999096,0.384320,-0.971571,-0.946045,-0.252930,-0.096680,0.083483,0.009346,-0.065111,0.999936,0.009995,0.001922,-0.004858,-0.168587,-0.528842,0.029261,-0.831293
07528,NaN,4.813912,1.404638,-5.550556,-7.104588,1.103371,-7.748259,2.600590,-0.407382,-1.264408,-0.941406,-0.263672,-0.081787,0.048342,0.014460,-0.055221,0.999893,0.013002,-0.002037,-0.006322,-0.167217,-0.533011,0.015747,-0.829271
07529,NaN,4.389382,1.302957,-6.073933,-7.370073,1.072778,-8.268462,3.798159,-0.833272,-1.239906,-0.936523,-0.276611,-0.060547,0.044230,0.013904,-0.060297,0.999792,0.018989,-0.004166,-0.006199,-0.162138,-0.539632,-0.002613,-0.826137
07530,NaN,7.392480,1.358980,-3.968550,-6.556554,1.340997,-4.572903,4.419307,-1.119907,-0.897402,-0.936279,-0.285156,-0.033203,0.074207,0.014124,-0.038962,0.999730,0.022095,-0.005599,-0.004487,-0.154227,-0.547909,-0.022059,-0.821902
07531,NaN,11.347019,2.277390,-0.277616,-4.685926,1.024058,0.723397,3.643750,-0.845001,-0.322860,-0.934082,-0.283203,-0.020508,0.113516,0.022630,-0.001883,0.999824,0.018218,-0.004225,-0.001614,-0.145640,-0.554063,-0.037262,-0.818788
07532,NaN,11.547117,1.036014,0.762615,-3.426260,2.152210,1.078545,2.624348,-0.476226,0.328062,-0.936523,-0.274658,-0.003662,0.115435,0.010446,0.008038,0.999910,0.013121,-0.002381,0.001640,-0.137408,-0.558209,-0.046421,-0.816926
07533,NaN,10.602569,1.540542,-1.348016,-5.060477,1.504123,-0.392923,2.514453,-0.764332,0.669388,-0.945068,-0.270264,0.013428,0.106023,0.015925,-0.012877,0.999908,0.012572,-0.003822,0.003347,-0.127823,-0.563167,-0.054295,-0.814590
07534,NaN,10.421931,2.599735,0.577645,-3.221543,0.240303,0.447412,2.740732,-1.097496,0.706640,-0.943115,-0.257568,0.032227,0.104092,0.026278,0.006707,0.999885,0.013703,-0.005487,0.003533,-0.117756,-0.569820,-0.062434,-0.810889
07535,NaN,11.116778,3.242411,2.454002,-1.547270,-0.301014,1.918808,2.999980,-1.377065,0.605006,-0.936768,-0.251221,0.055420,0.110895,0.032379,0.025790,0.999859,0.014999,-0.006885,0.003025,-0.107171,-0.577283,-0.072055,-0.806267
07536,NaN,10.481457,3.433094,1.064990,-2.412309,-0.650102,0.982357,3.381134,-1.531534,0.384240,-0.934570,-0.249268,0.080811,0.104660,0.034336,0.012032,0.999826,0.016905,-0.007657,0.001921,-0.096594,-0.585624,-0.083433,-0.800471
07537,NaN,9.048770,4.856918,-0.861977,-3.610397,-2.448653,-0.476088,3.858400,-1.710200,0.142110,-0.928467,-0.238525,0.108154,0.090517,0.048778,-0.006906,0.999777,0.019291,-0.008550,0.000710,-0.085422,-0.594265,-0.097615,-0.793740
07538,NaN,7.508381,5.496423,-2.888838,-4.794020,-3.614099,-2.139808,4.267670,-2.100895,0.011670,-0.924316,-0.228027,0.141846,0.075370,0.055557,-0.026916,0.999717,0.021336,-0.010503,0.000058,-0.073898,-0.604597,-0.113289,-0.784963
07539,NaN,7.137413,6.269452,-2.857248,-4.255532,-4.525439,-2.079356,4.653798,-2.250171,0.129087,-0.922363,-0.221680,0.171387,0.071638,0.063370,-0.026298,0.999666,0.023266,-0.011250,0.000645,-0.060576,-0.615023,-0.130295,-0.775307
07540,NaN,7.361939,6.473004,-2.437225,-3.454196,-4.667592,-1.548148,4.147440,-2.329782,0.282348,-0.922363,-0.213135,0.205322,0.073794,0.065309,-0.022163,0.999716,0.020735,-0.011648,0.001412,-0.048326,-0.625658,-0.144550,-0.765063
07541,NaN,7.984363,5.806306,-1.672996,-2.504821,-3.776890,-0.884674,3.431074,-2.457798,0.385724,-0.907959,-0.198242,0.228271,0.079920,0.058482,-0.014747,0.999775,0.017154,-0.012288,0.001928,-0.037885,-0.636032,-0.155843,-0.754812
07542,NaN,8.063127,4.004984,-0.439304,-1.235527,-1.825479,-1.073029,2.557538,-2.073249,0.593455,-0.906006,-0.185547,0.260010,0.080548,0.040334,-0.003043,0.999860,0.012787,-0.010366,0.002967,-0.029189,-0.645047,-0.163046,-0.745975
07543,NaN,7.668016,3.109440,0.275961,-0.371565,-0.937033,-1.595468,2.023936,-2.110848,0.680876,-0.904297,-0.172607,0.281006,0.076537,0.031320,0.003884,0.999887,0.010119,-0.010554,0.003404,-0.021842,-0.653704,-0.168074,-0.737527
07544,NaN,7.435354,1.107067,0.507305,-0.283709,0.929042,-2.341311,1.571548,-1.881698,0.877285,-0.895996,-0.161865,0.295654,0.074251,0.011353,0.005860,0.999915,0.007858,-0.009408,0.004386,-0.015076,-0.661813,-0.170672,-0.729827
07545,NaN,7.306334,1.262836,0.041448,-0.517950,0.614627,-2.441778,1.347535,-1.981727,1.013449,-0.885742,-0.149170,0.320801,0.072989,0.012992,0.001225,0.999915,0.006737,-0.009908,0.005067,-0.008610,-0.669961,-0.172075,-0.722128
07546,NaN,8.563020,1.663205,0.154663,-0.248336,0.532798,-1.108320,1.083818,-2.101007,1.035851,-0.884033,-0.127930,0.337646,0.085519,0.017063,0.002537,0.999917,0.005419,-0.010505,0.005179,-0.003092,-0.678740,-0.172271,-0.713881
07547,NaN,9.138316,2.081695,0.045079,-0.104421,0.200105,-0.443045,0.585093,-1.672769,1.102245,-0.879883,-0.123535,0.350342,0.091258,0.021317,0.001276,0.999946,0.002925,-0.008364,0.005511,0.001385,-0.685638,-0.170586,-0.707672
07548,NaN,9.621030,-0.755767,-0.141005,-0.812755,2.873169,-0.634591,0.720915,-1.287565,1.117624,-0.875977,-0.108643,0.366943,0.096257,-0.007016,-0.000816,0.999957,0.003605,-0.006438,0.005588,0.006724,-0.691401,-0.169204,-0.702346
07549,NaN,9.145837,-1.208917,-0.957490,-1.557040,2.923784,-1.149563,1.326400,-1.381571,1.009179,-0.870117,-0.093750,0.375488,0.091581,-0.011566,-0.009020,0.999941,0.006632,-0.006908,0.005046,0.013682,-0.697028,-0.170412,-0.696366
07550,NaN,8.871604,-1.128459,-1.715030,-2.131572,2.523950,-1.327142,1.682209,-1.183750,0.908837,-0.870361,-0.078613,0.390137,0.088865,-0.010739,-0.016716,0.999937,0.008411,-0.005919,0.004544,0.021692,-0.702058,-0.173007,-0.690444
07551,NaN,8.579755,1.100885,-0.484694,-0.225907,0.630170,-1.175003,1.744329,-0.771572,0.982172,-0.866699,-0.063721,0.389893,0.085760,0.011470,-0.004417,0.999942,0.008721,-0.003858,0.004911,0.030535,-0.705348,-0.175657,-0.686073
07552,NaN,8.854338,1.395936,-1.176340,-0.698829,0.138484,-0.800310,1.302238,-0.451172,1.021690,-0.864990,-0.048584,0.394043,0.088496,0.014487,-0.011471,0.999963,0.006511,-0.002256,0.005108,0.038255,-0.707855,-0.176415,-0.682903
07553,NaN,8.728956,1.125137,-0.974635,-0.495580,0.350652,-0.978619,1.583766,-0.640463,0.916676,-0.863281,-0.033691,0.404541,0.087267,0.011727,-0.009375,0.999953,0.007919,-0.003202,0.004583,0.046421,-0.710521,-0.178695,-0.679024
07554,NaN,8.862697,2.057193,-0.274071,0.575521,-0.335099,-0.734696,1.386087,-0.643377,0.823197,-0.859375,-0.022949,0.410645,0.088549,0.020954,-0.002311,0.999962,0.006930,-0.003217,0.004116,0.053605,-0.713368,-0.180463,-0.675031
07555,NaN,9.117105,2.175028,-0.425764,0.585518,-0.488020,-0.461137,1.140158,-0.749514,0.712155,-0.859619,-0.012451,0.419189,0.091108,0.022097,-0.003791,0.999970,0.005701,-0.003748,0.003561,0.059396,-0.716220,-0.181969,-0.671109
07556,NaN,9.339255,2.535652,-0.626959,0.649238,-0.880533,-0.177016,0.996282,-0.866422,0.609044,-0.851562,0.002686,0.427490,0.093340,0.025670,-0.005738,0.999974,0.004981,-0.004332,0.003045,0.064232,-0.719636,-0.183209,-0.666658
07557,NaN,9.773779,2.975959,-0.735362,0.854422,-1.262652,0.316366,1.025588,-1.073360,0.497900,-0.847168,0.004639,0.437988,0.097700,0.030038,-0.006676,0.999969,0.005128,-0.005367,0.002489,0.068595,-0.723326,-0.185179,-0.661667
07558,NaN,9.512972,3.437508,-0.393421,1.482495,-1.615982,0.069446,1.188914,-1.179330,0.412214,-0.845459,0.017578,0.444092,0.095079,0.034591,-0.003168,0.999963,0.005944,-0.005897,0.002061,0.073192,-0.727425,-0.187871,-0.655896
07559,NaN,9.022735,3.569486,0.166416,2.172962,-1.608382,-0.492394,1.406484,-1.181240,0.370857,-0.833008,0.028320,0.456787,0.090148,0.035847,0.002448,0.999956,0.007032,-0.005906,0.001854,0.078410,-0.731108,-0.191562,-0.650105
07560,NaN,8.935633,3.960376,0.911815,3.161668,-1.679262,-0.672491,1.545749,-1.128333,0.358216,-0.826904,0.038818,0.465088,0.089231,0.039689,0.009928,0.999953,0.007729,-0.005642,0.001791,0.084192,-0.734701,-0.195607,-0.644099
07561,NaN,8.828618,4.158523,2.122884,4.480904,-1.378876,-0.994376,1.425393,-1.049422,0.358620,-0.825195,0.053955,0.471436,0.088098,0.041588,0.021988,0.999959,0.007127,-0.005247,0.001793,0.089551,-0.737809,-0.199318,-0.638663
07562,NaN,8.508618,4.093713,3.400331,5.706037,-0.838647,-1.599675,1.049800,-0.987322,0.410899,-0.821045,0.058105,0.477539,0.084832,0.040931,0.034637,0.999972,0.005249,-0.004937,0.002054,0.093822,-0.741066,-0.201538,-0.633562
07563,NaN,8.335253,4.248761,3.215963,5.687607,-1.048556,-1.786400,0.969150,-0.819359,0.495230,-0.814941,0.068848,0.490234,0.083114,0.042536,0.032706,0.999977,0.004846,-0.004097,0.002476,0.098153,-0.743696,-0.203156,-0.629292
07564,NaN,8.933460,5.001957,2.760583,5.777082,-1.784068,-1.101294,0.963583,-0.622880,0.607814,-0.811035,0.079590,0.488037,0.089095,0.050156,0.028125,0.999979,0.004818,-0.003114,0.003039,0.103072,-0.745935,-0.204191,-0.625510
07565,NaN,9.288913,5.526922,1.222277,4.782073,-2.824487,-0.459741,1.025521,-0.418480,0.707513,-0.813477,0.088135,0.494385,0.092667,0.055533,0.012701,0.999978,0.005128,-0.002092,0.003538,0.108679,-0.747430,-0.204975,-0.622514
07566,NaN,9.392406,5.629011,-0.218327,3.670825,-3.523820,-0.114372,1.022253,-0.293859,0.725678,-0.805176,0.098877,0.498535,0.093722,0.056640,-0.001757,0.999979,0.005111,-0.001469,0.003628,0.114516,-0.748629,-0.205610,-0.619810
07567,NaN,9.737699,6.046170,-0.786712,3.503716,-4.117423,0.324752,0.790300,-0.229247,0.694314,-0.807617,0.109619,0.496338,0.097175,0.060829,-0.007516,0.999986,0.003951,-0.001146,0.003472,0.119388,-0.749598,-0.205593,-0.617722
07568,NaN,10.829883,6.633858,-0.786992,4.018797,-4.509852,1.386578,0.421160,-0.135318,0.656042,-0.805908,0.120361,0.496094,0.108086,0.066710,-0.007657,0.999992,0.002106,-0.000677,0.003280,0.122903,-0.750522,-0.204573,-0.616247
07569,NaN,11.513840,6.781118,-0.371995,4.601481,-4.412074,1.936778,-0.085228,-0.052395,0.581310,-0.805908,0.126709,0.500244,0.114942,0.068144,-0.003719,0.999996,-0.000426,-0.000262,0.002907,0.124319,-0.751335,-0.202164,-0.615767
07570,NaN,11.865904,5.841225,0.371272,4.894885,-3.262839,2.038516,-0.531605,-0.052554,0.461408,-0.807861,0.122314,0.502441,0.118523,0.058695,0.003588,0.999994,-0.002658,-0.000263,0.002307,0.123763,-0.752342,-0.198982,-0.615687
07571,NaN,12.231563,4.614206,1.935238,5.771684,-1.499515,1.980789,-0.659132,-0.081792,0.251229,-0.805908,0.122314,0.502441,0.122250,0.046359,0.019250,0.999994,-0.003296,-0.000409,0.001256,0.121974,-0.753254,-0.196061,-0.615866
07572,NaN,12.605343,3.542269,3.322163,6.573353,0.065635,1.988403,-0.644477,-0.005167,0.032796,-0.799316,0.113770,0.500488,0.126047,0.035550,0.033110,0.999995,-0.003222,-0.000026,0.000164,0.119692,-0.753720,-0.194131,-0.616355
07573,NaN,12.455388,3.241190,3.677317,6.704542,0.434506,1.764218,-0.418725,0.314918,-0.084838,-0.805420,0.109619,0.500488,0.124625,0.032436,0.036509,0.999996,-0.002094,0.001575,-0.000424,0.118156,-0.752923,-0.192975,-0.617986
07574,NaN,12.153481,3.601062,2.755686,5.927929,-0.338828,1.720410,-0.119956,0.860016,-0.140141,-0.812012,0.113770,0.491943,0.121677,0.035942,0.027012,0.999990,-0.000600,0.004300,-0.000701,0.118122,-0.750196,-0.192777,-0.621362
07575,NaN,12.446559,4.164589,1.257515,4.760659,-1.465723,2.394979,-0.029157,1.393980,-0.193481,-0.822510,0.109619,0.483643,0.124589,0.041527,0.011701,0.999975,-0.000146,0.006970,-0.000967,0.118751,-0.745685,-0.192589,-0.626707
07576,NaN,12.782068,4.833469,1.303723,4.947540,-2.053298,2.826304,-0.157925,1.830805,-0.279920,-0.828857,0.109619,0.470947,0.128000,0.048165,0.011828,0.999957,-0.000790,0.009154,-0.001400,0.119077,-0.739710,-0.192229,-0.633796
07577,NaN,12.721519,4.490646,2.314371,5.440011,-1.401578,2.669018,-0.455876,2.209819,-0.419130,-0.837158,0.099121,0.445557,0.127554,0.044690,0.021634,0.999934,-0.002279,0.011049,-0.002096,0.118178,-0.732536,-0.191010,-0.642604
07578,NaN,12.897972,4.288019,2.762427,5.461352,-1.091716,2.889503,-0.734097,2.571234,-0.538271,-0.856201,0.088379,0.426758,0.129434,0.042629,0.025805,0.999907,-0.003670,0.012856,-0.002691,0.116236,-0.724069,-0.189295,-0.652978
07579,NaN,12.738374,4.457786,1.839654,4.324554,-1.746922,2.983954,-1.000562,2.863537,-0.632758,-0.870850,0.082031,0.405762,0.127768,0.044259,0.016347,0.999880,-0.005003,0.014317,-0.003164,0.113243,-0.714625,-0.186637,-0.664571
07580,NaN,13.233982,4.506372,0.716378,2.923289,-2.291947,3.683293,-1.457600,2.999402,-0.743264,-0.883301,0.067139,0.386963,0.132590,0.044612,0.004850,0.999854,-0.007288,0.014996,-0.003716,0.108373,-0.704604,-0.182944,-0.676994
07581,NaN,13.802759,2.717779,-0.220470,0.888898,-1.061113,4.187885,-1.861537,2.968697,-0.864974,-0.895752,0.050049,0.359619,0.138088,0.026546,-0.004503,0.999837,-0.009307,0.014843,-0.004325,0.101583,-0.694667,-0.178056,-0.689503
07582,NaN,15.594644,1.458745,-1.638572,-1.422051,-0.297060,5.867684,-2.171311,2.792668,-0.982372,-0.901611,0.030762,0.336426,0.155764,0.013627,-0.018713,0.999832,-0.010856,0.013963,-0.004912,0.093139,-0.685064,-0.172755,-0.701547
07583,NaN,16.989775,0.792537,-3.387916,-3.863811,-0.151121,7.092423,-2.373960,2.602616,-1.062859,-0.917969,0.009521,0.315674,0.169474,0.006604,-0.036170,0.999831,-0.011869,0.013012,-0.005314,0.083510,-0.676016,-0.166832,-0.712879
07584,NaN,18.770504,-0.061874,-3.407584,-4.835000,0.911142,8.618632,-2.536152,2.549258,-1.058135,-0.923828,-0.009766,0.296631,0.187242,-0.002062,-0.036444,0.999824,-0.012680,0.012746,-0.005290,0.073271,-0.666919,-0.160470,-0.723948
07585,NaN,20.506466,-0.747923,-2.448373,-4.876610,2.133458,10.154959,-2.378836,2.683293,-0.925464,-0.934082,-0.024658,0.271484,0.204674,-0.008739,-0.027133,0.999829,-0.011894,0.013416,-0.004627,0.064128,-0.657230,-0.153940,-0.735009
07586,NaN,18.850649,0.758577,-1.274002,-3.691867,0.923479,8.708434,-1.867558,3.005988,-0.824590,-0.942139,-0.041748,0.246338,0.188315,0.006672,-0.015637,0.999835,-0.009337,0.015029,-0.004123,0.057232,-0.646009,-0.148944,-0.746467
07587,NaN,16.740763,0.777590,-0.462039,-3.171552,0.898036,6.624364,-1.178089,3.391396,-0.810355,-0.948486,-0.050293,0.208252,0.167326,0.007059,-0.007501,0.999831,-0.005890,0.016956,-0.004052,0.052917,-0.632986,-0.146173,-0.758395
07588,NaN,15.507911,0.894166,0.923957,-2.161858,1.028215,5.562343,-0.581062,3.474309,-0.850495,-0.954590,-0.062988,0.185059,0.155244,0.008303,0.006519,0.999836,-0.002905,0.017371,-0.004252,0.050329,-0.619232,-0.145832,-0.769904
07589,NaN,14.448069,0.709681,1.480702,-1.977057,1.234109,4.539625,-0.362805,3.407162,-0.960159,-0.967529,-0.067139,0.149414,0.144737,0.006426,0.012331,0.999842,-0.001814,0.017035,-0.004801,0.047984,-0.605420,-0.146532,-0.780828
07590,NaN,14.533208,0.025092,1.010120,-3.118094,1.761388,4.307787,0.331921,3.395270,-1.025236,-0.969238,-0.082031,0.121826,0.145474,-0.000509,0.007632,0.999841,0.001660,0.016975,-0.005126,0.047397,-0.591257,-0.150174,-0.790959
07591,NaN,13.745043,1.501308,0.956096,-3.030150,0.279518,3.708327,0.708654,3.089024,-1.091314,-0.969238,-0.088379,0.096680,0.137656,0.014233,0.007487,0.999860,0.003543,0.015444,-0.005456,0.047486,-0.577981,-0.155454,-0.799698
07592,NaN,12.269691,4.283617,-0.667856,-3.696821,-2.945400,2.311189,-0.396720,2.349667,-1.403269,-0.975098,-0.107666,0.077637,0.122903,0.041959,-0.008205,0.999904,-0.001984,0.011748,-0.007016,0.042453,-0.567580,-0.157399,-0.807017
07593,NaN,11.837023,5.707370,-3.399749,-5.997335,-5.001566,1.289038,-2.465366,0.978444,-2.121184,-0.970215,-0.131348,0.069336,0.118793,0.055386,-0.035268,0.999856,-0.012326,0.004892,-0.010605,0.027659,-0.562415,-0.153245,-0.812060
07594,NaN,11.236428,2.255764,-0.328789,-4.042546,-0.715123,0.892075,-1.637070,1.496190,-2.067857,-0.965332,-0.154785,0.052734,0.112560,0.021362,-0.004308,0.999885,-0.008185,0.007481,-0.010339,0.015666,-0.554989,-0.152251,-0.817656
07595,NaN,10.461307,1.643648,0.099981,-3.704106,0.040970,0.108112,-1.674529,1.348128,-2.031767,-0.964844,-0.171875,0.031738,0.104776,0.015376,0.000162,0.999891,-0.008372,0.006740,-0.010158,0.003735,-0.548012,-0.150925,-0.822734
07596,NaN,10.169625,3.689387,-1.756202,-5.148639,-2.251409,-0.403670,-3.035540,1.324349,-1.865172,-0.964111,-0.195312,0.017090,0.101911,0.035665,-0.018784,0.999819,-0.015177,0.006621,-0.009325,-0.011409,-0.541200,-0.143549,-0.828472
07597,NaN,8.700679,2.649466,-0.979591,-4.239767,-1.180819,-1.793695,-3.683921,1.465222,-1.617690,-0.959473,-0.212402,-0.006104,0.087139,0.025596,-0.010911,0.999771,-0.018418,0.007326,-0.008088,-0.027027,-0.533647,-0.132722,-0.834791
07598,NaN,7.832934,1.197469,-1.082437,-4.289710,0.170019,-3.065402,-4.185112,1.257966,-1.514121,-0.950684,-0.227295,-0.027100,0.078345,0.011145,-0.011556,0.999733,-0.020924,0.006289,-0.007570,-0.043847,-0.526792,-0.119489,-0.840411
07599,NaN,6.303634,0.669323,-0.415687,-3.169198,0.589041,-4.338754,-4.405655,1.240857,-1.348107,-0.950195,-0.244385,-0.050293,0.063051,0.006169,-0.004688,0.999715,-0.022026,0.006204,-0.006740,-0.060364,-0.519669,-0.104770,-0.845768
07600,NaN,4.789115,-0.148337,-0.742531,-2.849862,1.111248,-6.050842,-4.444302,1.236030,-1.183187,-0.952148,-0.252930,-0.069336,0.047834,-0.001935,-0.007681,0.999717,-0.022219,0.006180,-0.005915,-0.076458,-0.512460,-0.089440,-0.850611
07601,NaN,3.148586,-0.370027,-0.338676,-1.749654,1.055039,-7.365121,-4.196309,1.143983,-1.089793,-0.945801,-0.257080,-0.090332,0.031445,-0.003944,-0.003486,0.999749,-0.020980,0.005719,-0.005449,-0.091317,-0.505387,-0.074805,-0.854781
07602,NaN,2.123499,-0.018562,-0.602246,-1.535069,0.510642,-8.311058,-3.989645,0.987263,-1.004401,-0.943359,-0.270020,-0.111328,0.021203,-0.000414,-0.006120,0.999776,-0.019947,0.004936,-0.005022,-0.105499,-0.498989,-0.060772,-0.858013
07603,NaN,1.445909,0.054371,-0.457824,-1.100992,0.311425,-8.815715,-3.676663,0.748909,-0.911333,-0.941162,-0.276367,-0.130371,0.014444,0.000393,-0.004640,0.999814,-0.018382,0.003744,-0.004556,-0.118337,-0.493480,-0.047661,-0.860350
07604,NaN,1.225550,0.361591,-1.237003,-1.717956,0.027362,-9.353884,-3.540053,0.508329,-0.843392,-0.941162,-0.278320,-0.155762,0.012238,0.003344,-0.012462,0.999831,-0.017699,0.002542,-0.004217,-0.130784,-0.489046,-0.034841,-0.861693
07605,NaN,1.291065,0.396645,-1.646488,-2.108097,0.096506,-9.527493,-3.417760,0.235713,-0.693164,-0.936768,-0.282715,-0.157959,0.012904,0.003639,-0.016544,0.999847,-0.017088,0.001179,-0.003466,-0.142069,-0.485613,-0.021963,-0.862272
07606,NaN,1.580016,0.590933,-1.484102,-2.157647,0.031939,-9.187022,-3.220041,0.096208,-0.512355,-0.937012,-0.282715,-0.174805,0.015808,0.005629,-0.014941,0.999867,-0.016099,0.000481,-0.002562,-0.152292,-0.482924,-0.009431,-0.862266
07607,NaN,1.785664,0.486204,-1.726226,-2.434044,0.278137,-9.178189,-3.112552,-0.158171,-0.417313,-0.934814,-0.282715,-0.181152,0.017880,0.004555,-0.017321,0.999876,-0.015562,-0.000791,-0.002086,-0.161597,-0.481170,0.003099,-0.861598
07608,NaN,1.602449,0.545274,-2.142720,-2.700861,0.307783,-9.554682,-3.185000,-0.358628,-0.340706,-0.937012,-0.284668,-0.183350,0.016072,0.005084,-0.021481,0.999870,-0.015924,-0.001793,-0.001703,-0.170961,-0.480222,0.016262,-0.860171
07609,NaN,1.451153,-0.424355,-1.748873,-1.984752,1.165887,-9.599105,-3.042273,-0.601047,-0.335305,-0.934814,-0.282715,-0.187500,0.014556,-0.004533,-0.017378,0.999878,-0.015211,-0.003005,-0.001676,-0.179641,-0.480189,0.029050,-0.858081
07610,NaN,1.163294,-1.074164,-1.636905,-1.499543,1.713707,-9.840610,-2.703723,-0.899239,-0.371841,-0.937012,-0.280518,-0.187500,0.011686,-0.010983,-0.016169,0.999897,-0.013518,-0.004496,-0.001859,-0.187916,-0.481759,0.040572,-0.854956
07611,NaN,1.113674,-1.585148,-1.176708,-0.874572,2.086001,-9.667614,-2.242834,-1.174873,-0.401613,-0.935059,-0.278320,-0.178955,0.011173,-0.016004,-0.011523,0.999918,-0.011214,-0.005874,-0.002008,-0.194783,-0.484730,0.050291,-0.851215
07612,NaN,1.196268,-2.105858,-0.372179,-0.016163,2.373489,-9.204192,-1.635041,-1.449480,-0.453861,-0.932617,-0.284668,-0.172607,0.011941,-0.021115,-0.003463,0.999938,-0.008175,-0.007247,-0.002269,-0.200686,-0.489522,0.057609,-0.846626
07613,NaN,2.057100,-2.303555,0.769093,0.655805,2.449216,-7.889025,-0.906335,-1.728166,-0.509102,-0.934570,-0.284912,-0.157959,0.020444,-0.023052,0.007972,0.999949,-0.004532,-0.008641,-0.002545,-0.204553,-0.496064,0.061929,-0.841572
07614,NaN,3.490755,-2.257433,2.053963,1.146863,2.394095,-6.011055,-0.280102,-2.000424,-0.556788,-0.934326,-0.293457,-0.132324,0.034637,-0.022642,0.020919,0.999945,-0.001400,-0.010002,-0.002784,-0.207436,-0.504454,0.063895,-0.835711
07615,NaN,4.569535,-2.534579,3.154210,1.830768,2.577012,-4.591614,0.249479,-2.233248,-0.586328,-0.929932,-0.297852,-0.111328,0.045265,-0.025519,0.032017,0.999933,0.001247,-0.011166,-0.002932,-0.208531,-0.514212,0.063683,-0.829485
07616,NaN,5.869216,-3.240610,4.295930,2.720915,3.194116,-3.045435,0.732373,-2.446004,-0.558148,-0.935791,-0.306396,-0.090088,0.058071,-0.032727,0.043553,0.999915,0.003662,-0.012230,-0.002791,-0.208680,-0.525355,0.061944,-0.822568
07617,NaN,8.678087,-2.921446,6.013999,3.231891,3.118952,0.178970,1.018791,-2.520490,-0.423812,-0.929199,-0.306641,-0.054199,0.085952,-0.029707,0.061076,0.999905,0.005094,-0.012602,-0.002119,-0.206948,-0.536880,0.059262,-0.815733
07618,NaN,12.947898,-1.069245,7.367118,2.504259,2.136093,4.755129,0.833994,-2.330623,-0.189862,-0.929199,-0.311035,-0.032959,0.128599,-0.011126,0.075127,0.999923,0.004170,-0.011653,-0.000949,-0.205265,-0.547352,0.057984,-0.809265
07619,NaN,18.301954,1.066216,8.635446,1.402409,1.114855,10.372636,0.042753,-1.896262,0.095024,-0.927002,-0.308838,-0.022461,0.182185,0.010730,0.088087,0.999955,0.000214,-0.009481,0.000475,-0.204206,-0.555031,0.060012,-0.804139
07620,NaN,23.091959,2.728122,8.787943,-0.248941,0.600192,15.036375,-0.825084,-1.458754,0.231738,-0.933350,-0.308838,-0.020264,0.230239,0.027915,0.089446,0.999964,-0.004125,-0.007294,0.001159,-0.205517,-0.560044,0.065662,-0.799876
07621,NaN,26.226917,3.760426,9.201994,-1.004023,0.078407,18.216724,-1.032602,-0.945636,0.248663,-0.931152,-0.311035,-0.007568,0.261783,0.038409,0.093062,0.999975,-0.005163,-0.004728,0.001243,-0.207100,-0.562684,0.071455,-0.797114
07622,NaN,24.273728,3.081483,9.305412,-0.022271,-0.004637,16.365520,-0.783448,-0.146682,0.152941,-0.929199,-0.304688,-0.011963,0.242645,0.031365,0.093110,0.999992,-0.003917,-0.000733,0.000765,-0.208986,-0.562481,0.075334,-0.796407
07623,NaN,18.065016,1.117043,8.176753,1.481310,0.586970,9.984070,-0.376001,0.633883,-0.013424,-0.931152,-0.311035,-0.024414,0.180909,0.011311,0.081173,0.999993,-0.001880,0.003169,-0.000067,-0.210336,-0.559581,0.076128,-0.798018
07624,NaN,13.578846,-0.394409,6.373391,1.717792,1.509258,5.017358,-0.326640,0.985793,-0.096455,-0.931396,-0.306641,-0.030762,0.136099,-0.003906,0.063070,0.999986,-0.001633,0.004929,-0.000482,-0.212337,-0.555413,0.076289,-0.800381
07625,NaN,10.857002,-0.682411,5.185573,1.493254,1.540807,2.045863,-0.541142,1.021621,-0.012065,-0.933350,-0.308838,-0.039307,0.108833,-0.006691,0.051318,0.999983,-0.002706,0.005108,-0.000060,-0.214275,-0.550760,0.077332,-0.802975
07626,NaN,8.525496,-1.227286,4.394544,1.661895,1.725062,-0.444439,-0.520372,0.810603,0.110029,-0.935547,-0.310791,-0.043457,0.085439,-0.012112,0.043631,0.999988,-0.002602,0.004053,0.000550,-0.215892,-0.546972,0.079024,-0.804964
07627,NaN,7.124243,-1.262285,5.227844,2.749789,1.088321,-1.390543,-0.155227,0.538483,0.255150,-0.927002,-0.312988,-0.049805,0.071399,-0.012491,0.052096,0.999995,-0.000776,0.002692,0.001276,-0.215503,-0.544550,0.079763,-0.806636
07628,NaN,6.562843,-1.575253,7.442534,4.886081,0.414218,-1.043532,0.150821,0.402926,0.438850,-0.933594,-0.308838,-0.049805,0.065813,-0.015664,0.074281,0.999995,0.000754,0.002015,0.002194,-0.213816,-0.542968,0.080110,-0.808115
07629,NaN,6.500340,-0.255943,10.669631,7.008270,-1.952266,0.347697,0.047889,0.438282,0.590925,-0.942383,-0.298096,-0.058350,0.065244,-0.002392,0.106553,0.999993,0.000239,0.002191,0.002955,-0.211475,-0.541024,0.081049,-0.809940
07630,NaN,9.663442,0.443425,10.410384,5.367242,-1.702599,3.235183,-0.244968,0.826523,0.658781,-0.931641,-0.300049,-0.062500,0.097048,0.004881,0.103698,0.999985,-0.001225,0.004133,0.003294,-0.210098,-0.537171,0.083122,-0.812648
07631,NaN,13.189721,0.281064,5.234634,-0.246613,1.178239,4.329333,-0.143231,1.227431,0.682165,-0.938477,-0.289307,-0.077393,0.132204,0.003298,0.051533,0.999975,-0.000716,0.006137,0.003411,-0.208217,-0.531753,0.084242,-0.816571
07632,NaN,13.535976,1.534577,-2.855398,-7.816931,3.035143,1.296395,0.861891,1.283640,0.305225,-0.934082,-0.291504,-0.081787,0.135149,0.015677,-0.029355,0.999969,0.004309,0.006418,0.001526,-0.205523,-0.527277,0.080373,-0.820536
07633,NaN,12.156945,0.947792,-5.344992,-9.254128,4.079089,-1.153599,1.622921,0.894906,-0.543714,-0.933838,-0.302246,-0.079590,0.121355,0.009584,-0.053916,0.999953,0.008114,0.004474,-0.002719,-0.203827,-0.525483,0.071356,-0.822940
07634,NaN,10.434177,-0.296715,-6.665195,-9.259181,5.194644,-3.435538,2.111675,0.114697,-1.081544,-0.933350,-0.312988,-0.068848,0.104288,-0.002827,-0.066742,0.999929,0.010558,0.000573,-0.005408,-0.203130,-0.527577,0.059934,-0.822684
07635,NaN,7.346231,0.431484,-6.827078,-8.591977,3.682461,-6.155028,2.893461,-0.381266,-1.193763,-0.922119,-0.332275,-0.051758,0.073620,0.004861,-0.068063,0.999876,0.014467,-0.001906,-0.005969,-0.200271,-0.532392,0.045261,-0.821220
07636,NaN,6.007584,0.780324,-6.394412,-7.896663,2.734045,-7.028320,3.916244,-0.746998,-1.143019,-0.921875,-0.336670,-0.030762,0.060362,0.008706,-0.063554,0.999785,0.019580,-0.003735,-0.005715,-0.194787,-0.539649,0.027190,-0.818595
07637,NaN,8.244481,0.829803,-4.666518,-7.162491,2.745370,-4.191688,4.035029,-0.873576,-0.735707,-0.919678,-0.341064,-0.003174,0.082679,0.008928,-0.046128,0.999780,0.020174,-0.004368,-0.003678,-0.186752,-0.547151,0.009533,-0.815879
07638,NaN,11.135576,-0.071273,0.059988,-3.571817,3.333342,0.194320,2.855315,-0.686875,-0.129724,-0.917236,-0.343262,0.009521,0.111352,-0.000797,0.000971,0.999892,0.014276,-0.003434,-0.000649,-0.179905,-0.552747,-0.001473,-0.813697
07639,NaN,11.298608,0.537248,0.365652,-3.460178,2.725309,0.612288,2.134808,-0.588708,0.421615,-0.919678,-0.332520,0.030518,0.112963,0.005569,0.004048,0.999936,0.010674,-0.002943,0.002108,-0.172286,-0.557046,-0.008466,-0.812370
07640,NaN,11.334409,2.203443,-1.224277,-5.268998,1.366626,0.443517,2.665897,-0.901607,0.651815,-0.921631,-0.334717,0.047607,0.113324,0.022560,-0.011433,0.999896,0.013329,-0.004508,0.003259,-0.162735,-0.563182,-0.016302,-0.809986
07641,NaN,11.380327,3.092391,1.115913,-3.185864,0.066436,1.596132,3.067730,-1.198827,0.649702,-0.924072,-0.324219,0.072754,0.113631,0.031110,0.012317,0.999859,0.015338,-0.005994,0.003248,-0.151544,-0.570522,-0.025922,-0.806763
07642,NaN,11.272930,3.278017,2.424722,-1.735641,-0.363032,2.042844,3.528415,-1.259022,0.586463,-0.919922,-0.313477,0.100342,0.112475,0.032667,0.025533,0.999820,0.017641,-0.006295,0.002932,-0.139821,-0.578487,-0.037059,-0.802764
07643,NaN,10.186797,3.964669,0.139101,-3.420674,-1.121226,0.509289,3.805467,-1.426984,0.379774,-0.922119,-0.304932,0.129883,0.101776,0.039795,0.002874,0.999792,0.019026,-0.007134,0.001899,-0.127530,-0.586840,-0.050232,-0.798017
07644,NaN,9.228588,4.717785,-0.755430,-3.808593,-2.098471,-0.374669,4.147925,-1.573769,0.168955,-0.917969,-0.298584,0.159424,0.092296,0.047389,-0.005847,0.999754,0.020738,-0.007868,0.000845,-0.115089,-0.595899,-0.065118,-0.792098
07645,NaN,8.196364,5.917400,-1.904059,-4.413961,-3.555593,-1.228907,4.261051,-1.953337,0.031609,-0.909668,-0.290283,0.190918,0.082127,0.059563,-0.016973,0.999725,0.021303,-0.009766,0.000158,-0.102877,-0.605948,-0.080760,-0.784679
07646,NaN,8.132641,6.376103,-2.156631,-4.277623,-4.093815,-1.073562,3.950175,-2.119706,0.153150,-0.905762,-0.275391,0.222656,0.081491,0.064221,-0.019438,0.999749,0.019749,-0.010598,0.000766,-0.091154,-0.616454,-0.094559,-0.776360
07647,NaN,8.207955,6.257736,-1.676469,-3.421214,-4.007216,-0.781488,3.811690,-2.209038,0.201684,-0.897217,-0.269043,0.254150,0.082186,0.062953,-0.014660,0.999757,0.019057,-0.011044,0.001008,-0.079650,-0.626726,-0.107706,-0.767639
07648,NaN,8.050065,4.865105,-1.608406,-2.963176,-2.751848,-1.170003,3.621098,-2.122792,0.352746,-0.893311,-0.251953,0.283691,0.080573,0.049063,-0.014343,0.999778,0.018104,-0.010613,0.001764,-0.068067,-0.636620,-0.119546,-0.758808
07649,NaN,7.959698,3.820592,-0.656832,-1.746459,-1.717654,-1.305204,3.173343,-2.156294,0.465665,-0.889404,-0.237061,0.312988,0.079568,0.038480,-0.005101,0.999813,0.015866,-0.010781,0.002328,-0.057480,-0.646056,-0.129351,-0.750051
07650,NaN,7.605053,3.140917,-0.139354,-0.965904,-1.114223,-1.716863,2.120310,-2.210577,0.548116,-0.878906,-0.226318,0.336182,0.075971,0.031624,-0.000219,0.999879,0.010601,-0.011052,0.002740,-0.049976,-0.655485,-0.134818,-0.741395
07651,NaN,7.012865,1.947286,0.435279,-0.234432,-0.063045,-2.525708,1.460686,-2.030911,0.765712,-0.875000,-0.213623,0.357178,0.070004,0.019705,0.005207,0.999914,0.007303,-0.010154,0.003828,-0.043719,-0.663854,-0.137209,-0.733867
07652,NaN,7.304301,2.071563,0.456670,-0.048377,-0.140406,-2.208226,1.511138,-1.940291,0.898976,-0.866699,-0.202881,0.378418,0.072899,0.021005,0.005432,0.999914,0.007555,-0.009701,0.004495,-0.036705,-0.672110,-0.139275,-0.726308
07653,NaN,8.412956,2.727861,0.801034,0.469807,-0.490772,-0.958571,1.334464,-1.911257,0.938108,-0.854492,-0.187988,0.397217,0.083918,0.027615,0.008996,0.999921,0.006672,-0.009556,0.004690,-0.030146,-0.679912,-0.140612,-0.719055
07654,NaN,8.427706,3.016100,0.712396,0.630769,-0.824777,-0.893658,1.022291,-1.814884,0.937870,-0.852295,-0.181641,0.411865,0.084064,0.030516,0.008043,0.999935,0.005111,-0.009074,0.004689,-0.024542,-0.687443,-0.140759,-0.712044
07655,NaN,9.130745,1.923875,0.622157,0.525970,0.319451,-0.481191,1.070954,-1.780820,0.925074,-0.854980,-0.166748,0.432861,0.091156,0.019624,0.007138,0.999935,0.005355,-0.008904,0.004625,-0.018824,-0.694536,-0.141170,-0.705220
07656,NaN,8.709105,-0.012116,0.790831,0.552509,2.061256,-1.332232,1.464447,-1.508612,0.987529,-0.842529,-0.149658,0.443359,0.087027,0.000248,0.008566,0.999933,0.007322,-0.007543,0.004938,-0.011288,-0.700871,-0.142697,-0.698778
07657,NaN,8.709554,0.169560,-0.076456,-0.130663,1.672074,-1.264218,1.855001,-1.267377,0.976114,-0.843262,-0.128174,0.462158,0.087088,0.002124,-0.000194,0.999925,0.009275,-0.006337,0.004880,-0.002285,-0.706063,-0.145681,-0.692999
07658,NaN,9.390012,0.911431,-1.118101,-0.863011,0.824216,-0.387888,1.835114,-1.078356,0.978341,-0.832764,-0.115479,0.472656,0.093912,0.009673,-0.010588,0.999931,0.009175,-0.005392,0.004892,0.006831,-0.710706,-0.148484,-0.687607
07659,NaN,9.213921,0.937136,-1.002806,-0.616645,0.706412,-0.544509,1.648354,-0.894019,1.004586,-0.833252,-0.100342,0.480957,0.092134,0.009914,-0.009536,0.999943,0.008242,-0.004470,0.005023,0.015474,-0.714444,-0.150610,-0.683115
07660,NaN,9.183146,1.368297,-0.965553,-0.358198,0.212136,-0.487467,1.445725,-0.723831,1.050316,-0.829590,-0.083252,0.485107,0.091792,0.014233,-0.009222,0.999954,0.007229,-0.003619,0.005252,0.023715,-0.717781,-0.151756,-0.679115
07661,NaN,8.765724,1.337823,-0.959941,-0.269173,0.078926,-0.898144,1.343569,-0.625390,1.080818,-0.825684,-0.066162,0.499756,0.087612,0.013915,-0.009233,0.999958,0.006718,-0.003127,0.005404,0.031727,-0.720551,-0.152514,-0.675677
07662,NaN,8.948189,1.376413,-0.356638,0.433854,0.144921,-0.763861,1.237098,-0.662626,1.039185,-0.819580,-0.057617,0.499756,0.089420,0.014249,-0.003183,0.999962,0.006185,-0.003313,0.005196,0.039225,-0.723573,-0.152957,-0.671943
07663,NaN,9.113977,1.701724,-0.243753,0.747098,-0.173818,-0.569848,0.955936,-0.865531,0.931638,-0.817871,-0.044678,0.510010,0.091068,0.017452,-0.001961,0.999968,0.004780,-0.004328,0.004658,0.045146,-0.726999,-0.152970,-0.667858
07664,NaN,9.541770,1.997158,-0.402886,0.836732,-0.479522,-0.103696,0.742726,-1.127201,0.777485,-0.807373,-0.036377,0.522705,0.095359,0.020356,-0.003416,0.999970,0.003714,-0.005636,0.003887,0.049615,-0.731374,-0.152782,-0.662788
07665,NaN,9.903777,2.300610,-0.093768,1.394614,-0.657577,0.237532,0.777318,-1.291124,0.651978,-0.799072,-0.025635,0.535400,0.098965,0.023331,-0.000208,0.999966,0.003887,-0.006456,0.003260,0.053627,-0.735949,-0.153296,-0.657269
07666,NaN,9.561435,2.840016,0.684881,2.430217,-1.016815,-0.168334,1.016165,-1.379450,0.550010,-0.792969,-0.014893,0.547852,0.095485,0.028625,0.007653,0.999960,0.005081,-0.006897,0.002750,0.058152,-0.740797,-0.154891,-0.651036
07667,NaN,8.929038,3.491278,1.630348,3.620074,-1.446606,-0.903439,1.269091,-1.368467,0.468727,-0.786865,-0.004150,0.558350,0.089093,0.035015,0.017136,0.999954,0.006345,-0.006842,0.002344,0.063312,-0.745227,-0.157683,-0.644798
07668,NaN,8.320824,3.900520,2.422906,4.579538,-1.658036,-1.651984,1.423236,-1.260983,0.408792,-0.772461,0.008545,0.564453,0.082972,0.038999,0.025030,0.999953,0.007116,-0.006305,0.002044,0.068973,-0.749304,-0.161069,-0.638625
07669,NaN,7.929843,4.329361,3.278320,5.603981,-1.810034,-2.217276,1.397116,-1.089477,0.420560,-0.766357,0.019287,0.570801,0.079026,0.043228,0.033516,0.999959,0.006985,-0.005447,0.002103,0.074666,-0.752625,-0.164331,-0.633227
07670,NaN,7.891724,4.433430,3.304483,5.777803,-1.865064,-2.329958,1.204244,-0.888263,0.522299,-0.758057,0.027832,0.574951,0.078653,0.044338,0.033662,0.999969,0.006021,-0.004441,0.002611,0.080152,-0.755542,-0.166453,-0.628510
07671,NaN,8.287455,5.327181,2.413221,5.439667,-2.912174,-1.762082,1.227960,-0.635137,0.651507,-0.760498,0.038574,0.579102,0.082623,0.053391,0.024722,0.999971,0.006140,-0.003176,0.003258,0.086304,-0.757582,-0.168109,-0.624788
07672,NaN,8.567465,5.689633,1.566647,4.948343,-3.498518,-1.356872,1.141575,-0.425105,0.738393,-0.754395,0.049316,0.585205,0.085430,0.057121,0.016174,0.999975,0.005708,-0.002126,0.003692,0.092602,-0.759141,-0.169032,-0.621738
07673,NaN,8.814539,6.339877,0.208844,4.092017,-4.566582,-0.849748,0.986925,-0.288749,0.766101,-0.750488,0.060059,0.585205,0.087898,0.063724,0.002529,0.999979,0.004935,-0.001444,0.003830,0.098480,-0.760230,-0.169330,-0.619419
07674,NaN,9.597420,7.159318,-0.433337,4.048062,-5.491180,0.036838,0.661217,-0.199371,0.748227,-0.750732,0.070801,0.587158,0.095710,0.071965,-0.004000,0.999987,0.003306,-0.000997,0.003741,0.103161,-0.761246,-0.168645,-0.617593
07675,NaN,10.616981,8.017054,-0.440552,4.616916,-6.211492,1.017279,0.180201,-0.122012,0.703192,-0.748779,0.074951,0.591309,0.105890,0.080547,-0.004268,0.999993,0.000901,-0.000610,0.003516,0.105911,-0.762133,-0.166596,-0.616589
07676,NaN,11.282496,8.126398,-0.190610,5.036722,-6.206369,1.566293,-0.295590,-0.113980,0.612069,-0.746826,0.074951,0.584961,0.112577,0.081606,-0.001962,0.999994,-0.001478,-0.000570,0.003060,0.106589,-0.763227,-0.163485,-0.615952
07677,NaN,12.045351,6.886736,1.306293,6.065562,-4.498301,1.900458,-0.677795,-0.194956,0.463146,-0.744385,0.070557,0.589355,0.120281,0.069190,0.012946,0.999991,-0.003389,-0.000975,0.002316,0.105265,-0.764576,-0.159741,-0.615488
07678,NaN,12.924161,5.423468,3.328171,7.523316,-2.382886,2.239112,-0.899036,-0.228921,0.231677,-0.744385,0.066406,0.587158,0.129141,0.054534,0.033185,0.999989,-0.004495,-0.001145,0.001158,0.102360,-0.765986,-0.156335,-0.615100
07679,NaN,13.128102,4.375664,3.897214,7.685969,-1.243646,2.272871,-0.867658,0.045337,0.031796,-0.739990,0.060059,0.585205,0.131283,0.043946,0.038752,0.999991,-0.004338,0.000227,0.000159,0.099166,-0.766324,-0.153529,-0.615908
07680,NaN,12.809753,3.759916,2.797779,6.347399,-1.119285,2.208596,-0.639625,0.556116,-0.091176,-0.744141,0.060059,0.578857,0.128192,0.037629,0.027501,0.999991,-0.003198,0.002781,-0.000456,0.096854,-0.764878,-0.151778,-0.618502
07681,NaN,13.586199,3.990546,0.837149,4.653661,-1.939664,3.445840,-0.413754,1.177295,-0.225576,-0.756836,0.053711,0.570557,0.135953,0.039768,0.007489,0.999980,-0.002069,0.005886,-0.001128,0.095463,-0.761267,-0.150797,-0.623394
07682,NaN,13.885343,4.931225,-0.161780,3.907811,-3.147579,4.042351,-0.427203,1.668305,-0.386532,-0.771240,0.038574,0.547363,0.138928,0.049039,-0.002881,0.999961,-0.002136,0.008341,-0.001933,0.093876,-0.755954,-0.150297,-0.630184
07683,NaN,14.420957,4.866363,0.673138,4.458600,-2.777214,4.487562,-0.604727,2.030445,-0.628570,-0.783936,0.036621,0.532715,0.144419,0.048227,0.005120,0.999939,-0.003024,0.010152,-0.003143,0.091126,-0.749338,-0.149814,-0.638548
07684,NaN,13.835211,4.385131,1.663656,4.788891,-2.079699,3.830594,-1.029008,2.314981,-0.851620,-0.794189,0.019531,0.509521,0.138716,0.043340,0.014808,0.999911,-0.005145,0.011575,-0.004258,0.085987,-0.741754,-0.148587,-0.648328
07685,NaN,13.578436,4.175469,1.541176,4.185528,-1.966749,3.706973,-1.515526,2.576418,-0.967587,-0.806396,-0.001953,0.492920,0.136165,0.041203,0.013346,0.999877,-0.007577,0.012882,-0.004838,0.079129,-0.733261,-0.146146,-0.659324
07686,NaN,13.437156,3.282950,0.869303,2.820897,-1.360197,3.687883,-1.967647,2.804114,-0.994545,-0.823242,-0.014648,0.467529,0.134634,0.032231,0.006487,0.999841,-0.009838,0.014020,-0.004972,0.070604,-0.723931,-0.142315,-0.671332
07687,NaN,14.266322,1.101795,0.240043,1.156313,0.615394,4.437419,-2.246044,2.948638,-1.023909,-0.830811,-0.044678,0.438232,0.142731,0.010298,0.000178,0.999815,-0.011230,0.014742,-0.005119,0.061119,-0.713982,-0.137424,-0.683819
07688,NaN,15.909372,-0.393584,-1.603736,-1.467659,1.768628,6.015519,-2.487520,2.885903,-1.082899,-0.851562,-0.063721,0.411133,0.158816,-0.005014,-0.018273,0.999804,-0.012437,0.014429,-0.005414,0.050500,-0.703948,-0.132081,-0.696033
07689,NaN,17.168735,-0.735716,-3.016271,-3.423011,1.989420,7.178659,-2.580904,2.768186,-1.101633,-0.861816,-0.087158,0.387939,0.171203,-0.008710,-0.032428,0.999806,-0.012904,0.013840,-0.005508,0.039397,-0.694120,-0.126260,-0.707604
07690,NaN,18.875576,-1.068674,-2.817408,-3.889584,2.702425,8.705076,-2.608094,2.799487,-1.049049,-0.867676,-0.104248,0.366943,0.188277,-0.012064,-0.030660,0.999803,-0.013040,0.013997,-0.005245,0.028394,-0.683898,-0.120279,-0.719034
07691,NaN,20.794395,-1.559762,-2.172721,-4.052683,3.678296,10.425236,-2.357643,2.932848,-0.924292,-0.877930,-0.123535,0.329102,0.207522,-0.016836,-0.024579,0.999812,-0.011787,0.014663,-0.004621,0.018764,-0.673025,-0.114533,-0.730457
07692,NaN,19.233102,-0.268107,-1.430147,-3.557349,2.457700,8.983603,-1.674921,3.179503,-0.854854,-0.886230,-0.136230,0.295410,0.192057,-0.003639,-0.017328,0.999829,-0.008374,0.015897,-0.004274,0.011828,-0.660952,-0.111122,-0.742061
07693,NaN,16.569438,-0.184665,-1.187764,-3.562816,2.134232,6.271912,-0.665632,3.373198,-0.923365,-0.898438,-0.151123,0.268066,0.165452,-0.002657,-0.014662,0.999842,-0.003328,0.016865,-0.004617,0.008070,-0.647879,-0.111494,-0.753497
07694,NaN,16.181443,0.429458,0.653523,-2.174017,1.871654,6.130766,0.114006,3.403681,-0.990675,-0.905029,-0.155273,0.236328,0.161913,0.003490,0.003782,0.999843,0.000570,0.017018,-0.004953,0.006612,-0.634402,-0.115101,-0.764358
07695,NaN,14.422332,0.063425,1.139625,-1.950136,2.144773,4.360574,0.635673,3.372181,-1.075391,-0.919678,-0.163818,0.204834,0.144389,-0.000173,0.008963,0.999838,0.003178,0.016860,-0.005377,0.006453,-0.620793,-0.120819,-0.774582
07696,NaN,14.740838,-0.677570,1.433278,-2.368515,3.046464,4.501333,1.253107,3.318042,-1.147456,-0.925781,-0.174561,0.183838,0.147576,-0.007701,0.011839,0.999826,0.006265,0.016589,-0.005737,0.007911,-0.607117,-0.129207,-0.783997
07697,NaN,13.824563,2.176605,0.084124,-3.391485,-0.041073,3.764621,0.739751,2.996283,-1.315031,-0.923340,-0.189453,0.156494,0.138377,0.020858,-0.001153,0.999859,0.003699,0.014981,-0.006575,0.006931,-0.594429,-0.135970,-0.792539
07698,NaN,11.932917,3.983304,-1.421183,-4.305842,-2.286666,1.870686,-0.842878,2.161684,-1.608118,-0.920654,-0.210693,0.135498,0.119480,0.038809,-0.015668,0.999900,-0.004214,0.010808,-0.008040,-0.000466,-0.584770,-0.137408,-0.799477
07699,NaN,11.736238,6.016767,-3.798042,-6.494902,-4.570034,1.379951,-3.270511,1.117454,-2.194936,-0.915771,-0.234131,0.110107,0.117790,0.058238,-0.039601,0.999790,-0.016351,0.005587,-0.010974,-0.018040,-0.578686,-0.130734,-0.804801
07700,NaN,10.539557,2.123653,0.693529,-2.683790,0.066359,0.620846,-1.712321,1.671440,-2.025005,-0.913086,-0.255615,0.097656,0.105656,0.020221,0.005877,0.999877,-0.008561,0.008357,-0.010125,-0.030026,-0.570465,-0.129953,-0.810420
07701,NaN,10.246544,1.962998,-1.618795,-4.988466,-0.060644,-0.508492,-2.982817,1.581661,-1.904734,-0.908447,-0.276855,0.061768,0.102511,0.018402,-0.017279,0.999812,-0.014913,0.007908,-0.009523,-0.045224,-0.562285,-0.123520,-0.816415
07702,NaN,8.753551,2.860992,-1.027706,-4.077041,-0.982771,-1.550121,-3.472151,1.747203,-1.625811,-0.905762,-0.296143,0.042969,0.087666,0.027705,-0.011529,0.999778,-0.017359,0.008735,-0.008128,-0.060508,-0.553312,-0.114401,-0.822859
07703,NaN,7.738321,1.294618,-0.179812,-3.155945,0.525633,-2.646781,-3.877847,1.523166,-1.404874,-0.903320,-0.311035,0.011475,0.077453,0.012357,-0.002631,0.999758,-0.019388,0.007615,-0.007024,-0.076135,-0.544958,-0.102773,-0.828651
07704,NaN,6.800142,0.946599,-0.448841,-3.172922,0.710079,-3.749258,-4.230314,1.542975,-1.228743,-0.907471,-0.321777,-0.018066,0.068019,0.008943,-0.005206,0.999728,-0.021150,0.007714,-0.006143,-0.091911,-0.536267,-0.089273,-0.834266
07705,NaN,5.257866,-0.035517,0.227993,-1.970845,1.376393,-5.130915,-4.207770,1.566070,-1.045256,-0.896729,-0.330078,-0.049805,0.052592,-0.000588,0.001879,0.999734,-0.021037,0.007830,-0.005226,-0.106834,-0.527216,-0.075227,-0.839626
07706,NaN,3.690911,-0.538856,0.307610,-1.235726,1.491195,-6.610031,-3.944685,1.429613,-0.973813,-0.890137,-0.340820,-0.077148,0.036904,-0.005510,0.002920,0.999768,-0.019722,0.007148,-0.004869,-0.120733,-0.518725,-0.062092,-0.844093
07707,NaN,1.947842,0.026408,-0.470051,-1.273604,0.522947,-8.356657,-3.894381,1.388100,-0.843127,-0.894531,-0.342773,-0.106934,0.019446,0.000089,-0.004838,0.999777,-0.019470,0.006940,-0.004215,-0.133938,-0.510163,-0.048673,-0.848189
07708,NaN,0.802350,0.129155,-0.793803,-1.077208,0.157336,-9.488176,-3.752078,1.229480,-0.713250,-0.888184,-0.347168,-0.134277,0.007979,0.001113,-0.008009,0.999799,-0.018759,0.006147,-0.003566,-0.146185,-0.502275,-0.035498,-0.851522
07709,NaN,0.403635,0.709128,-1.566626,-1.693866,-0.398343,-10.115755,-3.708161,1.041413,-0.554812,-0.881836,-0.346924,-0.151123,0.003973,0.006788,-0.015815,0.999811,-0.018540,0.005207,-0.002774,-0.157651,-0.494963,-0.021863,-0.854213
07710,NaN,0.644176,0.424616,-1.485614,-1.667230,-0.013930,-9.961562,-3.506683,0.912036,-0.423518,-0.879883,-0.342529,-0.176758,0.006382,0.003971,-0.014957,0.999834,-0.017532,0.004560,-0.002117,-0.167993,-0.488297,-0.008755,-0.856311
07711,NaN,1.262179,0.478006,-1.596917,-2.062447,0.188187,-9.525804,-3.295902,0.692707,-0.314301,-0.873535,-0.342529,-0.191406,0.012573,0.004496,-0.016088,0.999857,-0.016479,0.003463,-0.001571,-0.177334,-0.482505,0.004005,-0.857745
07712,NaN,1.917654,0.537501,-1.672892,-2.451766,0.398540,-9.041624,-3.177419,0.440834,-0.260365,-0.873779,-0.338379,-0.210449,0.019146,0.005083,-0.016853,0.999871,-0.015886,0.002204,-0.001302,-0.186085,-0.477872,0.016505,-0.858335
07713,NaN,2.087801,0.429549,-1.850968,-2.636416,0.647234,-9.038388,-3.212570,0.217457,-0.213175,-0.872070,-0.331787,-0.223389,0.020862,0.003975,-0.018598,0.999870,-0.016062,0.001087,-0.001066,-0.194672,-0.473931,0.029575,-0.858264
07714,NaN,2.544639,-0.149296,-1.465945,-2.318275,1.284460,-8.539104,-3.045363,-0.050961,-0.263054,-0.867920,-0.327393,-0.233887,0.025448,-0.001749,-0.014628,0.999883,-0.015226,-0.000255,-0.001315,-0.202975,-0.471314,0.041961,-0.857265
07715,NaN,2.564373,-0.693776,-1.139928,-1.828234,1.740214,-8.403509,-2.715610,-0.320277,-0.372485,-0.865967,-0.325195,-0.246582,0.025649,-0.007139,-0.011262,0.999905,-0.013578,-0.001601,-0.001862,-0.210887,-0.469991,0.053042,-0.855466
07716,NaN,2.239355,-1.256488,-0.699262,-1.058530,2.041800,-8.473736,-2.322153,-0.593622,-0.494779,-0.864014,-0.314697,-0.244629,0.022383,-0.012700,-0.006779,0.999925,-0.011610,-0.002968,-0.002474,-0.218281,-0.470333,0.062338,-0.852792
07717,NaN,1.966331,-1.739344,-0.064103,-0.184988,2.193343,-8.380665,-1.825466,-0.875796,-0.612003,-0.864014,-0.318848,-0.238281,0.019612,-0.017458,-0.000396,0.999944,-0.009127,-0.004379,-0.003060,-0.224900,-0.472266,0.069633,-0.849433
07718,NaN,1.394465,-2.334537,0.748241,1.014427,2.258355,-8.461758,-1.206762,-1.183686,-0.708278,-0.859619,-0.321045,-0.236084,0.013817,-0.023348,0.007705,0.999958,-0.006034,-0.005918,-0.003541,-0.230336,-0.476321,0.074334,-0.845303
07719,NaN,1.489591,-2.820758,1.841899,2.089162,2.315278,-7.852408,-0.524385,-1.578916,-0.788674,-0.855225,-0.321045,-0.221436,0.014638,-0.028217,0.018609,0.999958,-0.002622,-0.007894,-0.003943,-0.234323,-0.482691,0.076485,-0.840388
07720,NaN,2.802523,-2.407607,3.254718,2.506937,1.845328,-5.997844,0.074689,-2.002298,-0.821915,-0.854980,-0.325439,-0.206543,0.027598,-0.024202,0.032816,0.999941,0.000373,-0.010011,-0.004109,-0.236821,-0.491626,0.076470,-0.834489
07721,NaN,4.111835,-2.120137,4.599104,3.013160,1.504566,-4.226194,0.472896,-2.332959,-0.824138,-0.858887,-0.333984,-0.185303,0.040490,-0.021479,0.046415,0.999921,0.002364,-0.011664,-0.004121,-0.238187,-0.502223,0.075226,-0.827877
07722,NaN,5.507023,-2.118651,5.592647,3.443720,1.568635,-2.617564,0.881983,-2.548908,-0.785698,-0.848145,-0.338379,-0.155762,0.054268,-0.021649,0.056527,0.999901,0.004410,-0.012744,-0.003928,-0.238247,-0.514203,0.072588,-0.820710
07723,NaN,8.116976,-1.301931,6.356806,2.994694,1.387284,0.040678,1.248236,-2.715855,-0.685207,-0.847900,-0.340576,-0.132324,0.080251,-0.013696,0.064578,0.999882,0.006241,-0.013579,-0.003426,-0.236836,-0.527049,0.068929,-0.813251
07724,NaN,12.495301,0.308401,7.003982,1.692368,1.078197,4.373300,1.313470,-2.692852,-0.500152,-0.847656,-0.342773,-0.104980,0.124001,0.002306,0.071731,0.999885,0.006567,-0.013464,-0.002501,-0.234458,-0.539780,0.065426,-0.805845
07725,NaN,17.753319,1.611200,7.764244,0.556152,1.185787,9.586464,0.652916,-2.270455,-0.175579,-0.847656,-0.340820,-0.090088,0.176650,0.015699,0.079703,0.999930,0.003265,-0.011352,-0.000878,-0.232645,-0.549739,0.064977,-0.799651
07726,NaN,21.899037,2.478810,7.821604,-0.571192,1.471740,13.519336,-0.302075,-1.795336,0.069609,-0.845459,-0.340820,-0.077393,0.218268,0.024984,0.080140,0.999959,-0.001510,-0.008977,0.000348,-0.232609,-0.556629,0.068447,-0.794590
07727,NaN,24.936276,2.395803,8.263482,-0.678090,2.043718,16.477915,-0.758476,-1.355206,0.158011,-0.845703,-0.334473,-0.077393,0.248776,0.024472,0.084230,0.999970,-0.003792,-0.006776,0.000790,-0.233621,-0.561086,0.073473,-0.790699
07728,NaN,24.571207,1.343306,8.822556,0.547715,2.438803,16.209130,-0.812288,-0.644912,0.219038,-0.843750,-0.332275,-0.077393,0.245411,0.014062,0.088961,0.999986,-0.004061,-0.003225,0.001095,-0.234800,-0.562709,0.078048,-0.788756
07729,NaN,19.928556,0.045476,8.752910,2.283853,2.170026,11.724192,-0.528086,0.141955,0.200655,-0.845947,-0.330078,-0.083740,0.199347,0.000886,0.087386,0.999996,-0.002640,0.000710,0.001003,-0.235549,-0.561475,0.080527,-0.789163
07730,NaN,15.560821,-0.289005,7.783803,2.653133,1.586194,7.311966,-0.301917,0.675733,0.192165,-0.841797,-0.325684,-0.088135,0.155873,-0.002623,0.077316,0.999993,-0.001510,0.003379,0.000961,-0.235916,-0.558477,0.081479,-0.791080
07731,NaN,11.919356,-0.022960,6.685695,2.441898,0.766879,3.611835,-0.325655,0.849542,0.234277,-0.837646,-0.325684,-0.100830,0.119476,0.000019,0.066350,0.999989,-0.001628,0.004248,0.001171,-0.236242,-0.554658,0.082417,-0.793569
07732,NaN,9.367714,-0.564591,6.095924,2.788981,0.756506,0.998493,-0.165682,0.775587,0.342491,-0.835693,-0.321533,-0.103027,0.093922,-0.005435,0.060600,0.999991,-0.000828,0.003878,0.001712,-0.235667,-0.551332,0.083136,-0.795979
07733,NaN,7.314997,-1.253752,6.622323,4.057867,0.581762,-0.750059,0.314671,0.493691,0.443895,-0.840088,-0.314941,-0.107178,0.073341,-0.012479,0.066023,0.999993,0.001573,0.002468,0.002219,-0.233236,-0.549577,0.082524,-0.797970
07734,NaN,6.266745,0.098298,9.016969,5.705317,-1.811417,-0.606414,0.438830,0.350774,0.543553,-0.838135,-0.312744,-0.109375,0.062823,0.000956,0.090062,0.999992,0.002194,0.001754,0.002718,-0.230011,-0.548538,0.081896,-0.799684
07735,NaN,7.152184,0.853317,10.006628,5.885073,-2.590622,0.707222,0.190579,0.697542,0.583737,-0.842285,-0.310791,-0.117920,0.071845,0.008647,0.099824,0.999989,0.000953,0.003488,0.002919,-0.227437,-0.545750,0.081930,-0.802320
07736,NaN,8.693389,-1.147609,4.251467,1.410285,1.806808,-0.341033,0.197591,1.198260,0.484043,-0.829834,-0.306396,-0.124268,0.087214,-0.011307,0.041981,0.999979,0.000988,0.005991,0.002420,-0.225445,-0.541005,0.081123,-0.806168
07737,NaN,10.855923,-0.644082,-2.504950,-5.269627,4.500359,-1.065325,1.410507,1.275268,0.185733,-0.832031,-0.304199,-0.122070,0.108402,-0.006160,-0.025785,0.999954,0.007052,0.006376,0.000929,-0.221388,-0.537382,0.074498,-0.810345
07738,NaN,10.884465,0.543536,-2.079284,-5.550548,3.310388,-0.794799,2.109007,1.038494,-0.408742,-0.827393,-0.312744,-0.126221,0.108746,0.005436,-0.021300,0.999929,0.010545,0.005192,-0.002044,-0.217754,-0.535682,0.063749,-0.813366
07739,NaN,9.972252,1.091012,-2.810821,-6.135025,2.850290,-1.889696,1.802319,0.474680,-1.089011,-0.820801,-0.323486,-0.124268,0.099714,0.010621,-0.028248,0.999942,0.009011,0.002373,-0.005445,-0.217494,-0.536057,0.052981,-0.813961
07740,NaN,10.101167,1.215945,-2.867796,-6.242414,2.862767,-1.776999,1.336369,-0.245796,-1.295035,-0.811768,-0.338623,-0.115723,0.101123,0.011696,-0.028475,0.999956,0.006682,-0.001229,-0.006475,-0.219115,-0.538921,0.044400,-0.812146
07741,NaN,8.459990,3.675081,-2.698031,-6.480110,0.146536,-2.717456,1.897309,-0.415755,-1.222287,-0.803223,-0.343018,-0.100830,0.084879,0.036485,-0.026457,0.999934,0.009486,-0.002079,-0.006111,-0.218859,-0.542951,0.033853,-0.810037
07742,NaN,8.381941,4.609447,-6.942986,-10.394958,0.443997,-4.204686,3.575564,-0.643246,-0.935297,-0.800537,-0.355713,-0.079590,0.084259,0.046929,-0.068325,0.999824,0.017877,-0.003216,-0.004676,-0.212797,-0.549654,0.017598,-0.807644
07743,NaN,9.913910,1.728649,-5.511206,-8.481222,3.008184,-2.694884,3.667053,-0.712062,-0.416997,-0.802734,-0.353760,-0.066895,0.099371,0.018082,-0.054432,0.999823,0.018334,-0.003560,-0.002085,-0.204305,-0.556397,0.002397,-0.805405
07744,NaN,11.361995,-0.451861,-0.103724,-3.286354,4.125696,0.261428,2.511507,-0.803177,0.192809,-0.796143,-0.353760,-0.043701,0.113627,-0.004399,-0.000637,0.999913,0.012557,-0.004016,0.000964,-0.196511,-0.562313,-0.006292,-0.803211
07745,NaN,10.698707,0.364170,0.965598,-2.303094,2.882333,0.282571,1.900122,-0.881334,0.555119,-0.791992,-0.349609,-0.035156,0.106933,0.003844,0.010163,0.999941,0.009500,-0.004407,0.002776,-0.188958,-0.567731,-0.011498,-0.801152
07746,NaN,10.013541,1.356905,0.760423,-2.479946,1.713707,-0.137888,2.227137,-1.059681,0.656095,-0.798584,-0.338867,-0.014160,0.100048,0.013808,0.008287,0.999919,0.011135,-0.005298,0.003280,-0.180047,-0.574252,-0.017463,-0.798444
07747,NaN,10.312793,1.829575,0.943738,-2.376153,1.256706,0.354085,2.778351,-1.304605,0.607458,-0.796387,-0.336914,0.002686,0.103006,0.018469,0.010365,0.999878,0.013891,-0.006523,0.003037,-0.169738,-0.581971,-0.025636,-0.794885
07748,NaN,10.622727,1.257040,1.069020,-2.022887,1.803696,0.590038,3.379717,-1.425477,0.530822,-0.792236,-0.330566,0.032227,0.106113,0.012661,0.011660,0.999828,0.016898,-0.007127,0.002654,-0.157935,-0.590661,-0.036207,-0.790484
07749,NaN,10.338095,2.389386,-0.040710,-3.028028,0.729682,0.330313,3.891186,-1.477877,0.379573,-0.794434,-0.324219,0.055420,0.103332,0.024082,0.000824,0.999782,0.019455,-0.007389,0.001898,-0.145179,-0.599541,-0.049293,-0.785522
07750,NaN,9.489736,4.102909,-1.683683,-4.415695,-1.076498,-0.375714,4.320005,-1.667477,0.158166,-0.786133,-0.315674,0.082764,0.094996,0.041444,-0.015153,0.999732,0.021598,-0.008337,0.000791,-0.131957,-0.609299,-0.064450,-0.779223
07751,NaN,8.741971,6.269364,-3.193647,-5.625083,-3.394425,-0.716348,4.468091,-1.990834,0.047181,-0.783936,-0.309326,0.120850,0.087708,0.063394,-0.029653,0.999701,0.022338,-0.009953,0.000236,-0.118767,-0.619861,-0.080384,-0.771495
07752,NaN,8.836627,6.366208,-3.130858,-5.162716,-3.594100,-0.387956,4.281263,-2.192850,0.073419,-0.779785,-0.302979,0.150391,0.088669,0.064331,-0.028965,0.999711,0.021404,-0.010963,0.000367,-0.106026,-0.630922,-0.095252,-0.762642
07753,NaN,8.893978,5.584439,-2.512197,-4.107013,-2.922370,-0.264111,4.153724,-2.245383,0.119926,-0.775635,-0.294434,0.179932,0.089172,0.056390,-0.022954,0.999721,0.020767,-0.011226,0.000600,-0.093510,-0.641592,-0.109499,-0.753410
07754,NaN,8.370514,3.818324,-1.688638,-2.833537,-1.415363,-1.011874,4.265466,-2.040542,0.296317,-0.769531,-0.283936,0.207275,0.083809,0.038644,-0.015211,0.999719,0.021325,-0.010202,0.001481,-0.079754,-0.651474,-0.123560,-0.744281
07755,NaN,7.407543,3.440489,-1.071835,-1.798531,-1.323322,-1.883977,3.459795,-2.237947,0.401742,-0.763428,-0.273193,0.234619,0.074115,0.034723,-0.009290,0.999786,0.017298,-0.011189,0.002009,-0.068359,-0.661314,-0.134212,-0.734832
07756,NaN,7.418572,2.611666,0.131604,-0.403903,-0.422140,-1.968767,2.491265,-2.356162,0.479071,-0.754883,-0.266846,0.255859,0.074098,0.026268,0.002516,0.999850,0.012456,-0.011780,0.002395,-0.059877,-0.671264,-0.140895,-0.725236
07757,NaN,7.772607,1.893596,0.291295,-0.126346,0.366709,-1.817069,1.566488,-2.231956,0.605909,-0.746826,-0.249756,0.274658,0.077628,0.019143,0.003929,0.999902,0.007832,-0.011159,0.003029,-0.053993,-0.680212,-0.143865,-0.716728
07758,NaN,7.898108,1.737040,0.117582,-0.115812,0.502517,-1.741639,1.491156,-2.169027,0.695598,-0.746826,-0.247803,0.293701,0.078900,0.017631,0.002163,0.999907,0.007456,-0.010845,0.003478,-0.047925,-0.689038,-0.146183,-0.708210
07759,NaN,8.240488,2.277632,0.916079,0.925220,0.156627,-1.265824,1.148136,-1.815924,0.886900,-0.738770,-0.232666,0.310303,0.082214,0.023085,0.010040,0.999932,0.005741,-0.009079,0.004434,-0.042157,-0.696369,-0.146754,-0.701254
07760,NaN,8.070052,0.408495,0.833444,0.744518,1.833385,-1.934254,1.221978,-1.594679,0.979738,-0.739014,-0.222168,0.318848,0.080609,0.004426,0.009004,0.999938,0.006110,-0.007973,0.004899,-0.035575,-0.703097,-0.147217,-0.694778
07761,NaN,10.090662,0.773666,0.922715,1.030892,1.961819,0.104830,1.548745,-1.477761,0.980805,-0.735352,-0.202881,0.327148,0.100795,0.008156,0.010034,0.999931,0.007744,-0.007389,0.004904,-0.027812,-0.709203,-0.148883,-0.688543
07762,NaN,10.133888,0.005142,0.929648,1.055460,2.635970,-0.040483,1.522417,-0.992538,1.108390,-0.731201,-0.194336,0.341797,0.101289,0.000540,0.009802,0.999943,0.007612,-0.004963,0.005542,-0.019272,-0.713812,-0.149968,-0.683820
07763,NaN,10.046502,-0.294422,-0.403673,-0.201006,2.575882,-0.091345,1.777258,-0.865147,1.126004,-0.733643,-0.183594,0.352295,0.100496,-0.002345,-0.003625,0.999935,0.008886,-0.004326,0.005630,-0.009730,-0.717764,-0.151939,-0.679437
07764,NaN,9.107982,0.118701,-1.629960,-1.242617,1.623998,-0.788110,1.735366,-0.678085,1.112713,-0.732178,-0.162109,0.356445,0.091125,0.001833,-0.015977,0.999941,0.008677,-0.003390,0.005563,-0.000169,-0.721144,-0.153701,-0.675520
07765,NaN,8.438945,1.002143,-2.650726,-1.974375,0.307498,-1.137916,1.747733,-0.566691,1.141570,-0.726074,-0.149414,0.360352,0.084404,0.010733,-0.026176,0.999942,0.008738,-0.002833,0.005708,0.009549,-0.723918,-0.155486,-0.672068
07766,NaN,8.110607,1.331556,-2.655953,-1.813729,-0.195403,-1.369978,1.682271,-0.579012,1.129411,-0.728760,-0.134277,0.368896,0.081105,0.013995,-0.026209,0.999944,0.008411,-0.002895,0.005647,0.019055,-0.726811,-0.156964,-0.668389
07767,NaN,8.376457,1.912956,-1.539214,-0.471112,-0.532280,-1.112874,1.683954,-0.504968,1.073475,-0.727051,-0.121582,0.370850,0.083698,0.019706,-0.015016,0.999947,0.008420,-0.002525,0.005367,0.028362,-0.729166,-0.158738,-0.665067
07768,NaN,8.938643,2.209239,-0.265165,0.978588,-0.466920,-0.665374,1.578783,-0.570716,1.010576,-0.725098,-0.110840,0.377197,0.089280,0.022562,-0.002220,0.999952,0.007894,-0.002854,0.005053,0.037098,-0.731796,-0.160272,-0.661371
07769,NaN,9.443956,2.630792,0.480319,1.967800,-0.632116,-0.217554,1.310666,-0.861657,0.886995,-0.723145,-0.102295,0.385498,0.094299,0.026692,0.005384,0.999959,0.006553,-0.004308,0.004435,0.044131,-0.735107,-0.161523,-0.656948
07770,NaN,9.535998,3.071692,0.262813,2.048041,-1.130150,-0.067653,1.030682,-1.211101,0.726219,-0.715088,-0.087402,0.397949,0.095229,0.031047,0.003364,0.999962,0.005153,-0.006055,0.003631,0.049398,-0.739593,-0.162399,-0.651298
07771,NaN,9.111214,3.422236,0.236236,2.252643,-1.557814,-0.470421,1.055071,-1.436289,0.594624,-0.711182,-0.078857,0.410645,0.090989,0.034478,0.003198,0.999956,0.005275,-0.007181,0.002973,0.054064,-0.744483,-0.163993,-0.644925
07772,NaN,8.535548,3.965915,1.131029,3.375359,-1.902095,-1.161124,1.278318,-1.460852,0.492059,-0.700439,-0.074463,0.414795,0.085171,0.039793,0.012187,0.999950,0.006391,-0.007304,0.002460,0.059278,-0.749377,-0.166580,-0.638100
