// Start Time: Unknown
// Update Rate: 100.0Hz
// Filter Profile: human (46.1)
// Firmware Version: 4.4.0
PacketCounter,SampleTimeFine,Acc_X,Acc_Y,Acc_Z,FreeAcc_X,FreeAcc_Y,FreeAcc_Z,Gyr_X,Gyr_Y,Gyr_Z,Mag_X,Mag_Y,Mag_Z,VelInc_X,VelInc_Y,VelInc_Z,OriInc_q0,OriInc_q1,OriInc_q2,OriInc_q3,Quat_q0,Quat_q1,Quat_q2,Quat_q3
32171,NaN,-6.414222,9.620757,-3.208363,-0.000000,-0.000000,2.187017,2.148506,-1.032444,0.219750,-0.473145,0.833008,0.173096,-0.064085,0.096477,-0.031379,0.999928,0.010742,-0.005162,0.001099,0.558988,0.436237,0.663662,0.238292
32172,NaN,-1.449021,8.454100,-3.349545,0.000000,0.000000,-0.604539,0.502760,-1.116814,-0.718760,-0.481689,0.828613,0.177490,-0.014000,0.084676,-0.033362,0.999975,0.002514,-0.005584,-0.003594,-0.306546,-0.328992,-0.756913,-0.474211
32173,NaN,-0.704566,4.998662,-3.128474,-1.782240,0.982908,-4.233497,-0.411757,-0.702685,-1.069003,-0.492188,0.822266,0.181885,-0.006668,0.049958,-0.031411,0.999977,-0.002059,-0.003513,-0.005345,0.458369,0.362601,0.719191,0.375743
32174,NaN,-2.197403,1.883910,-3.809455,-2.541266,-1.821663,-6.191515,-0.963384,-0.501589,-1.556628,-0.502441,0.805176,0.197021,-0.021732,0.018825,-0.038240,0.999955,-0.004817,-0.002508,-0.007783,0.464823,0.355721,0.719021,0.374713
32175,NaN,-4.567121,-0.508179,-2.337598,-0.822639,-4.627093,-7.692789,-0.722936,-0.513740,-2.036706,-0.521729,0.798584,0.205566,-0.045660,-0.004702,-0.023476,0.999938,-0.003615,-0.002569,-0.010183,0.471716,0.346120,0.721414,0.370469
32176,NaN,-5.833461,-1.715408,-2.922445,-1.153258,-6.375421,-7.932493,-0.749545,-0.610080,-2.555457,-0.540527,0.781494,0.218506,-0.058459,-0.016517,-0.029340,0.999907,-0.003748,-0.003050,-0.012777,0.479903,0.336232,0.722942,0.366056
32177,NaN,-6.447560,-0.573536,-1.848659,0.149801,-6.005794,-6.775745,-1.032705,-0.671891,-2.909952,-0.563477,0.760254,0.229492,-0.064488,-0.004893,-0.018677,0.999875,-0.005163,-0.003359,-0.014549,0.491930,0.325552,0.724996,0.355531
32178,NaN,-5.547627,-0.654839,-1.940989,-0.224544,-5.250404,-7.101067,-1.132819,-0.477066,-3.410388,-0.592773,0.740967,0.246826,-0.055532,-0.005712,-0.019508,0.999836,-0.005664,-0.002385,-0.017051,0.501484,0.311198,0.727241,0.350414
32179,NaN,-6.002748,-4.570008,-2.635788,-1.296055,-7.880786,-9.542005,-1.038139,-0.238802,-3.714905,-0.626465,0.715332,0.247070,-0.060833,-0.044711,-0.026196,0.999813,-0.005190,-0.001194,-0.018573,0.517642,0.299552,0.730601,0.329451
32180,NaN,-6.032066,-8.189866,-0.634802,0.414230,-9.794904,-12.594312,-1.181144,-0.277612,-3.940409,-0.651367,0.691650,0.268555,-0.061910,-0.080725,-0.005954,0.999788,-0.005905,-0.001388,-0.019701,0.526806,0.282495,0.733683,0.323082
32181,NaN,-2.875405,-8.243791,1.834898,1.616133,-7.454763,-14.438372,-1.582470,-0.238969,-4.049739,-0.689209,0.663818,0.288086,-0.030436,-0.081685,0.018962,0.999763,-0.007912,-0.001195,-0.020247,0.551120,0.274397,0.735049,0.284034
32182,NaN,1.738439,-7.965568,3.418026,2.263152,-3.953388,-17.388579,-1.649951,0.127416,-4.104869,-0.720459,0.629639,0.299316,0.015771,-0.079705,0.034827,0.999755,-0.008249,0.000637,-0.020523,0.558610,0.254517,0.738509,0.278892
32183,NaN,5.724137,-9.025786,4.385431,2.150611,-2.921477,-20.780334,-1.799714,0.571944,-4.068602,-0.751465,0.593262,0.301758,0.055522,-0.091000,0.044511,0.999749,-0.008998,0.002859,-0.020341,0.581977,0.248683,0.739178,0.230381
32184,NaN,9.515547,-11.333651,4.358039,1.311712,-2.693071,-24.945260,-1.824608,0.972754,-3.927092,-0.793213,0.556885,0.308594,0.093125,-0.114777,0.044167,0.999754,-0.009122,0.004863,-0.019634,0.585030,0.227679,0.744608,0.226850
32185,NaN,12.463435,-12.221529,3.797052,0.047502,-3.135836,-27.398345,-1.859074,1.254455,-3.863118,-0.819580,0.511963,0.309082,0.122487,-0.124240,0.038346,0.999751,-0.009295,0.006272,-0.019314,0.601758,0.221544,0.746113,0.179225
32186,NaN,16.099082,-11.621464,2.118367,-2.128775,-1.292680,-29.623832,-1.760894,1.420601,-3.823451,-0.850342,0.468994,0.309570,0.158883,-0.119080,0.021090,0.999753,-0.008804,0.007102,-0.019116,0.601687,0.200656,0.752859,0.175820
32187,NaN,17.714024,-15.594950,1.322204,-3.927766,-5.569890,-32.444894,-1.766448,1.732667,-4.007018,-0.881104,0.424072,0.310059,0.174084,-0.159342,0.013102,0.999723,-0.008831,0.008663,-0.020033,0.610611,0.190877,0.757328,0.131056
32188,NaN,22.383397,-17.779788,-0.461576,-6.836782,-6.272029,-36.853263,-1.609427,1.657787,-3.328374,-0.896973,0.383545,0.308350,0.220793,-0.181529,-0.005004,0.999795,-0.008047,0.008288,-0.016641,0.607925,0.172236,0.764355,0.128544
32189,NaN,21.993099,-16.682435,-0.884169,-7.721021,-7.132830,-35.351619,-1.508473,1.481760,-2.818613,-0.921143,0.342773,0.302490,0.217483,-0.169969,-0.009185,0.999845,-0.007542,0.007408,-0.014092,0.613181,0.170686,0.767149,0.079735
32190,NaN,19.737245,-15.276377,-1.202859,-7.445191,-7.293460,-32.522002,-1.439611,1.402012,-2.490307,-0.924316,0.304199,0.296631,0.195364,-0.155293,-0.012291,0.999872,-0.007198,0.007010,-0.012451,0.609946,0.156140,0.772901,0.078808
32191,NaN,18.884262,-15.869503,-1.655129,-8.762467,-9.285635,-30.982565,-1.450828,1.419772,-2.226016,-0.936035,0.276367,0.284180,0.186942,-0.160904,-0.016721,0.999887,-0.007254,0.007099,-0.011130,0.611686,0.159057,0.774524,0.025552
32192,NaN,17.393466,-16.361997,-2.002733,-8.923938,-10.609692,-29.358339,-1.571717,1.352927,-2.062144,-0.939453,0.248535,0.282227,0.172099,-0.165558,-0.019900,0.999893,-0.007858,0.006764,-0.010310,0.607895,0.146075,0.780018,0.026405
32193,NaN,15.785423,-17.052893,-2.385143,-10.502650,-12.242420,-26.708634,-1.671583,1.096583,-1.506046,-0.942871,0.227051,0.278320,0.156434,-0.171907,-0.023279,0.999922,-0.008358,0.005483,-0.007530,0.607555,0.156527,0.777922,-0.034826
32194,NaN,12.683531,-13.076355,-2.718199,-8.922066,-9.293901,-22.975762,-1.748851,0.762971,-0.900878,-0.951172,0.212158,0.276367,0.126142,-0.131567,-0.026516,0.999944,-0.008744,0.003815,-0.004504,0.605765,0.147834,0.781206,-0.030162
32195,NaN,8.850713,-11.311050,-2.816163,-8.690911,-8.200032,-18.264311,-1.924567,0.581894,-0.420431,-0.944092,0.197021,0.285156,0.088188,-0.113562,-0.027327,0.999947,-0.009623,0.002909,-0.002102,0.604013,0.164676,0.774097,-0.093931
32196,NaN,5.663671,-10.970011,-1.444549,-6.488364,-8.932073,-15.524168,-1.941716,0.344643,-0.094857,-0.937256,0.184326,0.287598,0.056561,-0.109861,-0.013477,0.999951,-0.009708,0.001723,-0.000474,0.604204,0.158599,0.776090,-0.086413
32197,NaN,1.758031,-7.310956,-0.305128,-3.940948,-6.224553,-11.347818,-1.575191,0.060402,0.118459,-0.939209,0.177734,0.296143,0.017623,-0.073120,-0.002481,0.999969,-0.007876,0.000302,0.000592,0.601553,0.175841,0.765476,-0.145809
32198,NaN,3.624005,-9.523998,-3.384427,-7.926365,-6.734955,-12.478468,-0.789184,-0.267178,0.657013,-0.938965,0.173584,0.300537,0.036598,-0.095253,-0.033420,0.999986,-0.003946,-0.001336,0.003285,0.603740,0.175784,0.764660,-0.141045
32199,NaN,9.411991,-37.449789,-18.491469,-36.728683,-21.759560,-13.041252,-2.229066,-0.855572,1.211901,-0.938477,0.152100,0.328857,0.097173,-0.375942,-0.180319,0.999910,-0.011145,-0.004278,0.006059,0.604599,0.190105,0.750458,-0.187437
32200,NaN,11.814967,-24.613575,4.572476,-10.423430,-23.052174,-21.041862,-5.474959,-0.927928,-0.850433,-0.937256,0.115479,0.357178,0.116871,-0.245250,0.052991,0.999606,-0.027371,-0.004639,-0.004252,0.612248,0.169421,0.753296,-0.170275
32201,NaN,9.467341,-3.259128,5.307024,0.439832,-5.899793,-19.477821,1.384399,-0.879888,1.925712,-0.935303,0.119629,0.372070,0.094750,-0.032047,0.053264,0.999920,0.006922,-0.004399,0.009628,0.605998,0.199979,0.729306,-0.246752
32202,NaN,18.665327,26.618923,3.953908,15.512962,18.902980,-31.597584,-0.585598,-0.565835,1.988346,-0.926758,0.119629,0.389404,0.183883,0.268142,0.039279,0.999942,-0.002928,-0.002829,0.009942,0.611065,0.204745,0.726284,-0.239144
32203,NaN,12.822674,21.352288,8.987366,18.392251,9.407819,-26.374722,-1.674956,-0.178615,1.621403,-0.919678,0.106689,0.393799,0.126407,0.215296,0.088189,0.999932,-0.008375,-0.000893,0.008107,0.605926,0.220869,0.711439,-0.279152
32204,NaN,11.489130,8.343766,4.457590,6.837772,3.119600,-22.657721,-1.742561,-0.084374,1.271527,-0.911377,0.108887,0.415283,0.114337,0.084550,0.043891,0.999942,-0.008713,-0.000422,0.006358,0.609890,0.219982,0.712170,-0.269178
32205,NaN,13.956149,-1.977884,-3.010855,-5.750226,0.178290,-23.028289,-1.566345,-0.151868,1.459074,-0.900391,0.102295,0.417480,0.139725,-0.018994,-0.029852,0.999942,-0.007832,-0.000759,0.007295,0.608292,0.228429,0.703698,-0.287418
32206,NaN,18.772975,2.730847,-2.772102,-2.995175,3.438825,-28.434298,-1.211716,-0.381840,1.546485,-0.883301,0.108887,0.424072,0.187565,0.028592,-0.027533,0.999950,-0.006058,-0.001909,0.007732,0.613211,0.229625,0.702477,-0.278874
32207,NaN,20.575775,8.721404,3.228966,5.338077,3.359361,-31.493579,-1.485244,-0.473522,1.333878,-0.872803,0.113037,0.430420,0.205093,0.088822,0.032120,0.999947,-0.007426,-0.002368,0.006669,0.613632,0.234451,0.696304,-0.289223
32208,NaN,32.692577,-1.585842,2.604902,-3.404182,-3.606146,-42.269742,-1.663946,-0.065759,2.273526,-0.856445,0.138672,0.427979,0.327068,-0.011923,0.026267,0.999901,-0.008319,-0.000329,0.011367,0.619038,0.237142,0.695774,-0.276503
32209,NaN,34.600154,-5.488289,10.511253,-0.250709,-11.835074,-44.418239,-1.493549,-0.616173,2.625258,-0.844238,0.157959,0.434082,0.346348,-0.049546,0.106563,0.999881,-0.007467,-0.003081,0.013126,0.622786,0.244636,0.689019,-0.278466
32210,NaN,11.728862,-7.687429,5.132948,-2.594712,-9.241728,-21.251926,-1.339413,-1.647521,1.353283,-0.831787,0.168701,0.451172,0.117373,-0.075730,0.052806,0.999921,-0.006697,-0.008237,0.006766,0.631935,0.242814,0.684044,-0.271632
32211,NaN,8.266965,-4.837702,-2.732785,-5.981215,-1.764836,-17.579280,-1.198801,-1.451114,1.613290,-0.819580,0.187988,0.455322,0.083251,-0.047867,-0.026437,0.999923,-0.005994,-0.007255,0.008066,0.635997,0.247683,0.672592,-0.285974
32212,NaN,6.578540,-0.267070,-5.717356,-4.671477,3.591372,-16.240331,-1.117650,-1.348870,1.636561,-0.813477,0.198486,0.461670,0.066190,-0.002448,-0.056714,0.999928,-0.005588,-0.006744,0.008183,0.644211,0.247685,0.667826,-0.278662
32213,NaN,4.914194,-2.098167,-10.549548,-9.136441,5.812078,-14.565353,-0.666219,-1.022022,1.486947,-0.794678,0.213623,0.463623,0.049836,-0.020964,-0.105172,0.999954,-0.003331,-0.005110,0.007435,0.646386,0.252543,0.659374,-0.289194
32214,NaN,4.657480,-7.045425,-7.448510,-10.382234,0.115866,-14.172053,-0.161851,-0.623488,1.411760,-0.786865,0.234863,0.474121,0.047303,-0.070182,-0.074282,0.999970,-0.000809,-0.003117,0.007059,0.650667,0.255765,0.655791,-0.284877
32215,NaN,9.700250,-7.542676,-2.592351,-7.465881,-3.754857,-19.186375,0.210854,-0.494353,1.354339,-0.780762,0.247803,0.471680,0.097574,-0.074740,-0.025762,0.999973,0.001054,-0.002472,0.006772,0.649940,0.262295,0.650555,-0.292501
32216,NaN,12.283263,-9.269169,0.716125,-6.354216,-7.360975,-21.760337,0.313335,-0.331754,1.147087,-0.772705,0.264893,0.479980,0.123350,-0.091996,0.007221,0.999981,0.001567,-0.001659,0.005735,0.652273,0.266554,0.647503,-0.290223
32217,NaN,12.701580,-6.952403,-1.057598,-6.006204,-4.443852,-22.261003,-0.135623,-0.241564,0.938147,-0.768799,0.273438,0.475586,0.127353,-0.068934,-0.010375,0.999988,-0.000678,-0.001208,0.004691,0.650050,0.271154,0.643332,-0.300057
32218,NaN,14.713457,-3.187589,-4.672628,-5.559348,0.743686,-24.544240,-0.126468,-0.067649,1.043473,-0.769043,0.281982,0.475586,0.147314,-0.031137,-0.046657,0.999986,-0.000632,-0.000338,0.005217,0.651995,0.273994,0.641879,-0.296347
32219,NaN,18.709568,0.965266,-4.330526,-2.188493,3.116869,-28.660023,0.240397,-0.155830,1.452008,-0.756836,0.305664,0.470947,0.187052,0.011063,-0.043147,0.999973,0.001202,-0.000779,0.007260,0.649713,0.281179,0.637240,-0.304525
32220,NaN,18.177430,3.146935,-6.684832,-1.819423,6.504625,-28.234915,0.624773,-0.340454,1.639025,-0.749268,0.329102,0.472900,0.181620,0.033166,-0.066437,0.999960,0.003124,-0.001702,0.008195,0.652389,0.287901,0.632854,-0.301658
32221,NaN,21.419507,-2.310050,-1.558911,-2.410354,-0.885524,-31.259106,1.171478,-0.300995,2.122292,-0.741699,0.363525,0.470215,0.214447,-0.020735,-0.015393,0.999925,0.005857,-0.001505,0.010611,0.650924,0.298867,0.627380,-0.305565
32222,NaN,23.326732,-3.218233,0.323867,-1.432014,-2.701991,-33.162679,1.261402,-0.661654,2.284711,-0.723633,0.395508,0.474121,0.233603,-0.029538,0.003819,0.999909,0.006307,-0.003308,0.011423,0.654546,0.309101,0.619829,-0.303048
32223,NaN,26.840317,-2.173011,3.520847,1.837551,-4.481996,-36.533792,1.392791,-0.804210,2.621185,-0.703369,0.434082,0.465088,0.268515,-0.018461,0.036152,0.999882,0.006964,-0.004021,0.013105,0.655339,0.321199,0.611162,-0.306337
32224,NaN,28.856707,1.421491,3.069130,5.279941,-1.749768,-38.328461,1.313989,-1.197143,2.808311,-0.685303,0.472656,0.466797,0.288140,0.018053,0.032527,0.999862,0.006570,-0.005985,0.014041,0.661097,0.332207,0.600634,-0.303032
32225,NaN,26.742118,5.677826,1.733258,8.409078,1.768992,-35.821707,1.620677,-1.423328,3.000588,-0.654541,0.519775,0.453369,0.266396,0.060627,0.019712,0.999829,0.008103,-0.007116,0.015002,0.664677,0.344829,0.587831,-0.306189
32226,NaN,23.631339,5.139565,0.561917,7.786143,2.479787,-32.579581,2.156751,-1.460840,3.208679,-0.623779,0.562500,0.452881,0.235397,0.055100,0.007922,0.999786,0.010783,-0.007304,0.016042,0.670022,0.359116,0.574018,-0.304319
32227,NaN,22.621966,3.411098,1.705498,7.592025,0.513749,-31.453743,2.456595,-1.506660,3.357399,-0.582520,0.609619,0.433105,0.225468,0.037673,0.019204,0.999755,0.012282,-0.007533,0.016786,0.673651,0.374711,0.558853,-0.305727
32228,NaN,16.888111,5.073294,3.945731,9.733207,-0.602260,-25.023901,2.573214,-1.871932,3.128820,-0.553711,0.654541,0.424072,0.167682,0.052836,0.041701,0.999751,0.012865,-0.009359,0.015643,0.678675,0.389164,0.542616,-0.305810
32229,NaN,7.442469,7.823357,4.248943,10.422336,0.200064,-14.908107,2.741591,-2.302446,2.579979,-0.529053,0.682373,0.415039,0.072909,0.078581,0.044410,0.999757,0.013707,-0.011511,0.012899,0.682898,0.401865,0.525011,-0.310673
32230,NaN,-1.614605,10.370161,3.058810,9.765596,2.192491,-5.417809,3.051382,-2.142437,2.103025,-0.493408,0.710205,0.402100,-0.017570,0.103041,0.031980,0.999771,0.015256,-0.010711,0.010514,0.685500,0.414383,0.508612,-0.315736
32231,NaN,-8.336027,10.851082,0.925036,7.265319,4.080957,1.079530,3.608238,-1.617260,1.729735,-0.468262,0.738281,0.375977,-0.084375,0.107602,0.010518,0.999767,0.018040,-0.008086,0.008648,0.684736,0.428510,0.493223,-0.322874
32232,NaN,-9.174667,9.869782,1.509963,6.305681,2.873867,1.842352,3.287454,-1.186730,0.944029,-0.455811,0.753174,0.345947,-0.092304,0.098003,0.016168,0.999836,0.016436,-0.005933,0.004720,0.682030,0.440106,0.481751,-0.330239
32233,NaN,-7.140034,7.287401,-3.547581,2.916821,6.186695,-1.453479,5.084755,-0.252201,0.452455,-0.446045,0.783203,0.302490,-0.071523,0.073584,-0.033701,0.999673,0.025421,-0.001261,0.002262,0.672192,0.458025,0.471352,-0.340878
32234,NaN,-11.231858,1.497081,-0.135228,-2.333020,0.899339,1.239989,5.277559,0.128801,0.165159,-0.437988,0.800537,0.263916,-0.112332,0.014906,-0.000886,0.999651,0.026385,0.000644,0.000826,0.659850,0.476210,0.462249,-0.352347
32235,NaN,-12.114588,11.942686,5.824208,8.402794,-1.874485,5.972740,4.040055,-1.499325,-0.124354,-0.434082,0.815674,0.237793,-0.121516,0.118306,0.059729,0.999768,0.020199,-0.007496,-0.000622,0.653494,0.486558,0.450886,-0.364567
32236,NaN,-0.295860,17.387612,2.535209,16.441415,1.846485,-3.888772,2.902336,-1.334994,-0.433376,-0.427734,0.817871,0.220703,-0.002763,0.173490,0.027853,0.999870,0.014511,-0.006675,-0.002167,0.648567,0.492567,0.442231,-0.375727
32237,NaN,-1.696779,7.339190,-3.507451,5.546812,5.149959,-6.384300,1.796864,-0.183187,-0.464066,-0.425537,0.817871,0.208008,-0.016765,0.073742,-0.034428,0.999957,0.008984,-0.000916,-0.002320,0.644025,0.497157,0.439466,-0.380705
32238,NaN,-4.287226,3.778160,-2.157933,1.755827,3.145520,-4.879788,0.729984,-0.210157,-1.370317,-0.444824,0.820068,0.207764,-0.042589,0.038153,-0.021485,0.999969,0.003650,-0.001051,-0.006852,0.640043,0.496081,0.440794,-0.387233
32239,NaN,-1.879258,2.914869,-3.320967,1.551293,3.966859,-7.595981,-0.151715,-0.508057,-2.103131,-0.459961,0.815674,0.212158,-0.018400,0.029318,-0.033279,0.999941,-0.000759,-0.002540,-0.010515,0.637810,0.490103,0.445119,-0.393531
32240,NaN,-0.031132,0.247002,-4.367398,-0.570957,4.313056,-10.268349,-0.142502,-0.506735,-2.757010,-0.485107,0.798584,0.212158,-0.000167,0.002442,-0.043676,0.999902,-0.000712,-0.002534,-0.013785,0.633798,0.482467,0.450496,-0.403210
32241,NaN,-1.628033,-2.776083,-2.478574,-3.512576,1.949516,-9.211893,-0.583585,-0.223206,-3.183849,-0.501953,0.790039,0.214355,-0.016693,-0.027569,-0.024724,0.999868,-0.002918,-0.001116,-0.015919,0.629569,0.473040,0.459366,-0.410925
32242,NaN,-2.335168,-3.137863,-4.040162,-4.301253,3.448955,-8.705983,-0.917123,-0.154656,-3.672327,-0.529053,0.766602,0.220947,-0.023894,-0.031128,-0.040277,0.999821,-0.004585,-0.000773,-0.018361,0.624434,0.461316,0.469367,-0.420671
32243,NaN,-0.887925,-3.387257,-4.156920,-4.274590,3.348163,-10.054232,-1.060063,-0.275028,-3.801693,-0.562988,0.751465,0.233887,-0.009467,-0.033916,-0.041402,0.999804,-0.005300,-0.001375,-0.019007,0.619697,0.448426,0.480336,-0.429146
32244,NaN,0.376182,-3.828358,-2.307636,-4.136203,1.291174,-10.972617,-1.494518,-0.216099,-3.968430,-0.592285,0.725830,0.240479,0.003024,-0.038519,-0.022786,0.999775,-0.007472,-0.001080,-0.019841,0.614912,0.433700,0.491663,-0.438241
32245,NaN,1.390506,-5.106240,-0.707957,-4.938347,-0.748247,-11.698528,-1.792145,-0.014716,-4.155935,-0.619629,0.702393,0.251465,0.012840,-0.051397,-0.006619,0.999744,-0.008960,-0.000074,-0.020778,0.609813,0.417744,0.505413,-0.445170
32246,NaN,3.788248,-9.822624,1.511354,-8.825937,-4.463141,-13.722343,-1.420172,0.252869,-4.180704,-0.648438,0.670166,0.262451,0.035840,-0.098879,0.015768,0.999756,-0.007100,0.001264,-0.020902,0.602685,0.403310,0.517953,-0.453691
32247,NaN,6.251343,-12.600210,3.772471,-10.939366,-7.795837,-15.434545,-1.225792,0.376751,-4.092170,-0.682129,0.648926,0.260498,0.059993,-0.127013,0.038387,0.999770,-0.006128,0.001884,-0.020459,0.594826,0.389642,0.530650,-0.461272
32248,NaN,10.049526,-10.176765,3.925008,-8.788749,-7.902208,-18.771055,-0.765493,0.303449,-4.087073,-0.718018,0.625244,0.260742,0.098450,-0.103643,0.039494,0.999783,-0.003827,0.001517,-0.020434,0.585957,0.377137,0.541165,-0.470705
32249,NaN,13.462717,-8.732853,3.244427,-8.115340,-7.424016,-21.938271,-0.390511,0.518507,-3.808171,-0.742676,0.595459,0.260986,0.133017,-0.089808,0.032272,0.999813,-0.001952,0.002592,-0.019040,0.575947,0.366738,0.550710,-0.480112
32250,NaN,15.695777,-10.319288,2.531368,-10.486445,-7.528605,-23.689701,-0.163857,0.830530,-3.525700,-0.763428,0.569824,0.250488,0.155210,-0.105919,0.024753,0.999836,-0.000819,0.004152,-0.017628,0.565402,0.358491,0.559869,-0.488212
32251,NaN,16.619070,-13.364070,1.836572,-14.233611,-7.771372,-23.781674,-0.247555,1.077657,-3.346275,-0.784180,0.550537,0.244385,0.164021,-0.136375,0.017646,0.999845,-0.001238,0.005388,-0.016731,0.554003,0.350970,0.569005,-0.496120
32252,NaN,18.338998,-15.259734,0.115613,-17.276035,-6.824957,-24.782660,-0.497259,1.217648,-3.199128,-0.808838,0.520508,0.233887,0.180922,-0.155503,0.000434,0.999850,-0.002486,0.006088,-0.015995,0.543392,0.343458,0.579141,-0.501356
32253,NaN,19.317771,-15.459129,-1.591333,-18.677223,-5.316703,-25.224868,-0.765743,1.275896,-3.059842,-0.831787,0.497070,0.227783,0.190678,-0.157584,-0.016536,0.999855,-0.003829,0.006379,-0.015298,0.532323,0.335661,0.589030,-0.506959
32254,NaN,21.216335,-16.099718,-2.526424,-20.436965,-4.828560,-26.386253,-0.897895,1.297280,-2.694202,-0.850342,0.475586,0.225830,0.209801,-0.163949,-0.025899,0.999878,-0.004489,0.006486,-0.013470,0.523115,0.328584,0.599209,-0.509247
32255,NaN,18.398016,-14.843913,-1.478627,-18.763748,-5.036379,-23.360538,-0.728332,1.110112,-2.315799,-0.862549,0.454346,0.217529,0.182161,-0.150610,-0.015255,0.999911,-0.003642,0.005550,-0.011579,0.513778,0.322475,0.607081,-0.513317
32256,NaN,16.764997,-13.501293,-1.475195,-17.415801,-4.437218,-21.750229,-0.560285,0.975685,-2.295257,-0.870361,0.435059,0.213379,0.166012,-0.136967,-0.015183,0.999918,-0.002801,0.004878,-0.011476,0.505786,0.316546,0.614677,-0.515898
32257,NaN,16.942968,-14.572553,-2.068106,-18.929486,-4.097696,-21.151486,-0.316918,0.867856,-1.810284,-0.885010,0.424316,0.209229,0.168010,-0.147284,-0.021180,0.999948,-0.001585,0.004339,-0.009051,0.497406,0.312295,0.619903,-0.520364
32258,NaN,16.482886,-16.162658,-2.730153,-20.617385,-3.783294,-19.861028,-0.330811,0.728089,-1.512369,-0.890869,0.407227,0.203125,0.163500,-0.162912,-0.027630,0.999963,-0.001654,0.003640,-0.007562,0.491712,0.308667,0.624914,-0.521945
32259,NaN,14.676147,-17.707798,-3.022397,-21.674475,-3.599095,-17.252242,-0.305227,0.474517,-1.180918,-0.899170,0.396484,0.200928,0.145640,-0.177986,-0.030299,0.999979,-0.001526,0.002373,-0.005905,0.485865,0.305260,0.628157,-0.525519
32260,NaN,11.897825,-14.170304,-1.724136,-17.258367,-3.607741,-15.682718,-0.625782,0.156224,-1.090824,-0.901123,0.387939,0.209717,0.118190,-0.142402,-0.016889,0.999980,-0.003129,0.000781,-0.005454,0.483452,0.300717,0.631834,-0.525955
32261,NaN,8.137640,-8.864627,-1.061966,-11.085669,-2.390516,-13.974757,-0.782649,-0.003825,-0.721589,-0.909424,0.381592,0.207520,0.081056,-0.088980,-0.010270,0.999986,-0.003913,-0.000019,-0.003608,0.480806,0.296239,0.634540,-0.527662
32262,NaN,5.655599,-6.344254,-0.240984,-7.719374,-2.232506,-12.591259,-0.710998,0.031651,-0.079879,-0.903076,0.381592,0.209717,0.056530,-0.063473,-0.002193,0.999994,-0.003555,0.000158,-0.000399,0.481543,0.294357,0.636607,-0.525549
32263,NaN,6.103151,-8.735161,-1.699782,-10.429851,-1.575356,-12.087885,-0.786959,-0.017771,0.619228,-0.903320,0.390137,0.216064,0.061303,-0.087228,-0.016649,0.999987,-0.003935,-0.000089,0.003096,0.482496,0.294085,0.637345,-0.523931
32264,NaN,7.794444,-17.238144,-11.212200,-21.500986,4.553798,-10.560029,-2.944519,-0.369139,0.586389,-0.907227,0.379395,0.233398,0.078656,-0.173776,-0.109426,0.999886,-0.014722,-0.001846,0.002932,0.489481,0.287848,0.643234,-0.513617
32265,NaN,5.231428,-13.867631,-5.100230,-15.659246,-0.431167,-9.309588,-4.670271,-0.038357,-0.196234,-0.904785,0.364258,0.257324,0.052187,-0.139868,-0.047735,0.999727,-0.023349,-0.000192,-0.000981,0.493826,0.275163,0.655331,-0.500962
32266,NaN,2.019248,-30.039429,10.088704,-22.444355,-20.370379,-0.353984,-2.571007,-0.031377,0.559483,-0.904785,0.364258,0.261475,0.021014,-0.299006,0.104740,0.999913,-0.012855,-0.000157,0.002797,0.498822,0.270545,0.660868,-0.491157
32267,NaN,9.007712,-6.819799,4.446379,-7.249489,-7.805938,-15.637584,0.133000,-0.811987,1.310693,-0.894531,0.379150,0.261230,0.090340,-0.067636,0.044785,0.999970,0.000665,-0.004060,0.006553,0.502309,0.272915,0.656440,-0.492230
32268,NaN,11.837158,20.665943,-0.417492,13.506586,6.379239,-28.366370,-0.267287,-0.890484,1.602113,-0.884033,0.385742,0.274170,0.116729,0.207594,-0.003930,0.999957,-0.001336,-0.004452,0.008010,0.509516,0.275297,0.652648,-0.488524
32269,NaN,14.783121,17.451224,7.233294,13.024146,-2.172645,-29.838668,-1.250403,-0.405147,1.530182,-0.877930,0.398438,0.284668,0.146343,0.176085,0.071533,0.999949,-0.006252,-0.002026,0.007651,0.514377,0.275877,0.652233,-0.483632
32270,NaN,16.451103,10.995117,4.756741,6.241881,-2.294885,-29.045925,-1.574361,-0.130442,1.500383,-0.876221,0.406982,0.286621,0.163647,0.111551,0.046800,0.999941,-0.007872,-0.000652,0.007502,0.520569,0.276388,0.653598,-0.474792
32271,NaN,15.416661,1.508401,-4.983733,-5.445145,3.084135,-24.833407,-1.518499,-0.259172,1.672677,-0.863770,0.419922,0.299561,0.154100,0.015995,-0.049757,0.999935,-0.007592,-0.001296,0.008363,0.525906,0.277238,0.653674,-0.468265
32272,NaN,18.161613,3.730888,-6.170589,-4.646450,4.767033,-28.184400,-1.100681,-0.523600,1.804057,-0.848877,0.428223,0.312256,0.181433,0.038607,-0.061441,0.999941,-0.005503,-0.002618,0.009020,0.533333,0.278996,0.652337,-0.460623
32273,NaN,15.815997,3.106006,3.549317,-0.042786,-3.882251,-25.853517,-1.256787,-0.590236,1.688312,-0.845215,0.443359,0.324951,0.157784,0.032617,0.035757,0.999940,-0.006284,-0.002951,0.008441,0.539565,0.279580,0.651187,-0.454599
32274,NaN,11.898423,-5.444775,3.249155,-6.168877,-6.768615,-19.707007,-1.777923,-0.496124,1.726732,-0.830322,0.447510,0.339844,0.119365,-0.053125,0.033264,0.999920,-0.008889,-0.002481,0.008633,0.547545,0.279253,0.651426,-0.444811
32275,NaN,17.888074,-4.024435,1.603346,-6.938319,-5.422386,-25.974229,-1.626156,-0.340298,1.821440,-0.818115,0.464600,0.348389,0.179209,-0.038479,0.016656,0.999924,-0.008131,-0.001701,0.009107,0.553710,0.279892,0.651231,-0.436994
32276,NaN,27.754060,-2.458636,7.777893,-4.444905,-11.151514,-36.131316,-1.177401,-0.164858,2.291130,-0.807617,0.475342,0.354736,0.277730,-0.020946,0.078138,0.999917,-0.005887,-0.000824,0.011455,0.560851,0.283707,0.650089,-0.427013
32277,NaN,28.042281,-1.492616,2.527151,-5.679567,-6.081274,-36.751640,-0.762932,-1.251928,1.938911,-0.793457,0.496582,0.373779,0.280384,-0.012107,0.027076,0.999926,-0.003815,-0.006259,0.009694,0.568901,0.285233,0.644832,-0.423303
32278,NaN,14.448823,-4.889042,-0.363253,-6.920400,-3.721532,-22.891325,-0.848156,-1.407571,1.719617,-0.780762,0.502930,0.390869,0.144921,-0.047658,-0.002410,0.999929,-0.004241,-0.007038,0.008598,0.578245,0.285363,0.640128,-0.417656
32279,NaN,7.149519,-0.459583,-2.727965,-2.903566,1.266421,-16.793524,-0.602291,-1.359066,1.784262,-0.768555,0.518066,0.403564,0.071716,-0.004038,-0.026780,0.999933,-0.003011,-0.006795,0.008921,0.586028,0.286522,0.634268,-0.414947
32280,NaN,5.025167,-4.079903,-7.834799,-8.142799,4.113868,-14.290440,-0.149060,-1.100092,1.613736,-0.758057,0.528564,0.411865,0.051009,-0.040448,-0.078039,0.999952,-0.000745,-0.005500,0.008069,0.593047,0.288904,0.629014,-0.411304
32281,NaN,3.644630,-8.495373,-7.648369,-11.570556,1.953820,-12.313410,0.289026,-0.904215,1.413428,-0.739258,0.545654,0.416016,0.037391,-0.084581,-0.076438,0.999964,0.001445,-0.004521,0.007067,0.597445,0.292254,0.623413,-0.411100
32282,NaN,6.765493,-6.947383,-4.987532,-9.197978,0.043350,-15.669870,0.632086,-0.782545,1.171824,-0.735352,0.552246,0.420166,0.068255,-0.068918,-0.049827,0.999970,0.003160,-0.003913,0.005859,0.601348,0.296175,0.618048,-0.410704
32283,NaN,11.048871,-6.278974,-0.525715,-6.759249,-3.995134,-19.819145,0.745106,-0.493788,1.090110,-0.727051,0.564941,0.424316,0.110842,-0.062167,-0.005216,0.999975,0.003725,-0.002469,0.005451,0.603149,0.300581,0.613382,-0.411855
32284,NaN,13.835503,-4.373217,0.382571,-4.794298,-4.193810,-22.855584,0.547849,-0.531885,1.039322,-0.720703,0.569336,0.428711,0.138569,-0.043023,0.004076,0.999979,0.002739,-0.002659,0.005197,0.606082,0.304316,0.609078,-0.411194
32285,NaN,16.406386,-3.789821,-1.811832,-5.430067,-2.306268,-25.687400,0.250289,-0.256375,1.249648,-0.710449,0.582031,0.424316,0.164319,-0.036849,-0.017954,0.999979,0.001251,-0.001282,0.006248,0.608241,0.308195,0.605741,-0.410044
32286,NaN,20.322964,-2.912741,-2.778830,-5.159165,-1.440211,-29.825879,0.257596,-0.151552,1.629212,-0.704346,0.592773,0.426270,0.203479,-0.027435,-0.027670,0.999966,0.001288,-0.000758,0.008146,0.611619,0.313589,0.602224,-0.406092
32287,NaN,25.629284,-1.059423,-2.336461,-3.261252,-1.450109,-35.321086,0.613328,-0.301743,2.044410,-0.690186,0.614258,0.413086,0.256418,-0.007903,-0.023005,0.999942,0.003067,-0.001509,0.010222,0.614966,0.320836,0.596692,-0.403534
32288,NaN,30.200135,1.331367,-0.413749,0.211153,-2.343290,-39.952456,1.082394,-0.568379,2.489558,-0.667236,0.639893,0.421387,0.301814,0.017090,-0.003194,0.999904,0.005412,-0.002842,0.012447,0.619886,0.330411,0.588713,-0.399984
32289,NaN,31.815368,4.278217,0.774691,4.149494,-2.110809,-41.583286,1.418675,-0.935324,2.792637,-0.646729,0.665527,0.418945,0.317474,0.047155,0.009557,0.999866,0.007093,-0.004676,0.013963,0.625200,0.340969,0.578112,-0.398310
32290,NaN,33.027172,6.667485,-0.435100,6.786897,-0.034047,-42.816716,1.860259,-1.175000,3.027416,-0.617432,0.693359,0.414551,0.329227,0.071688,-0.001763,0.999825,0.009301,-0.005875,0.015136,0.631342,0.353132,0.565476,-0.396160
32291,NaN,32.546128,8.721487,2.036605,10.819277,-1.391937,-41.755302,2.372824,-1.298726,3.441310,-0.586426,0.729736,0.405518,0.323754,0.092529,0.023549,0.999761,0.011863,-0.006493,0.017205,0.637074,0.367584,0.550191,-0.395360
32292,NaN,26.087464,11.382143,2.941697,14.176558,-0.641187,-34.657454,2.731188,-1.594366,3.407018,-0.559570,0.757568,0.392334,0.258636,0.117805,0.033076,0.999730,0.013655,-0.007971,0.017034,0.642999,0.382401,0.533308,-0.394847
32293,NaN,13.541081,11.910276,3.380395,14.039690,0.051342,-21.622686,2.813558,-1.812483,3.018352,-0.527832,0.779053,0.381592,0.133274,0.120622,0.036708,0.999746,0.014067,-0.009062,0.015090,0.648042,0.395772,0.515563,-0.396990
32294,NaN,2.341473,9.102788,1.650614,9.379683,1.467456,-10.772879,3.167299,-2.039096,2.186921,-0.500732,0.804688,0.368408,0.022240,0.090996,0.018178,0.999763,0.015835,-0.010195,0.010934,0.651215,0.407527,0.498224,-0.402012
32295,NaN,-4.959477,8.126691,0.087444,6.671297,3.184619,-3.813339,3.942920,-1.813711,1.805493,-0.478027,0.830566,0.338135,-0.050340,0.080782,0.002016,0.999724,0.019713,-0.009068,0.009027,0.651091,0.421108,0.480053,-0.410240
32296,NaN,-10.444187,7.566756,0.095351,4.954475,3.459667,1.581179,5.061480,-1.115348,1.600937,-0.465820,0.858398,0.299316,-0.105053,0.074782,0.002269,0.999632,0.025304,-0.005576,0.008004,0.646153,0.438981,0.462498,-0.419377
32297,NaN,-10.107087,2.878658,-1.946892,0.059008,3.965547,0.112073,4.980261,-0.783867,0.986195,-0.453125,0.869141,0.256348,-0.101137,0.028767,-0.019149,0.999670,0.024899,-0.003919,0.004930,0.638909,0.455595,0.446834,-0.429614
32298,NaN,-8.302626,-0.746370,0.496632,-2.575395,0.583874,-1.890398,5.364297,-0.787888,0.173644,-0.456055,0.895020,0.215088,-0.083038,-0.007660,0.004435,0.999632,0.026818,-0.003939,0.000868,0.628586,0.471255,0.432240,-0.442682
32299,NaN,-8.845095,4.103800,3.454997,2.239851,-1.438208,0.183573,4.431277,-0.826234,0.110032,-0.447510,0.895020,0.185303,-0.088617,0.040216,0.035081,0.999746,0.022155,-0.004131,0.000550,0.620029,0.483492,0.419276,-0.453879
32300,NaN,-7.355084,10.247290,-2.983773,7.958950,5.207671,-1.007148,3.018805,-1.022174,0.797525,-0.441406,0.905762,0.170166,-0.073811,0.102618,-0.028666,0.999865,0.015093,-0.005111,0.003987,0.616597,0.492136,0.407276,-0.460148
32301,NaN,-3.001610,10.317181,-5.027921,9.055771,6.332719,-5.497411,1.361891,-1.340907,-0.201456,-0.443604,0.912354,0.165771,-0.029577,0.103542,-0.049774,0.999954,0.006809,-0.006704,-0.001007,0.615543,0.492877,0.400362,-0.466786
32302,NaN,-1.062849,7.081548,-2.384770,6.546230,3.078877,-7.660586,0.015258,-0.743184,-1.234835,-0.456299,0.899414,0.176514,-0.010102,0.070881,-0.023880,0.999974,0.000076,-0.003716,-0.006174,0.614092,0.488703,0.401076,-0.472439
32303,NaN,-2.662956,4.140914,-1.688779,3.373501,2.490526,-6.729428,-1.022175,-0.484297,-1.586165,-0.473145,0.890869,0.185059,-0.026259,0.041531,-0.017164,0.999953,-0.005111,-0.002421,-0.007931,0.613894,0.481369,0.405885,-0.476105
32304,NaN,-4.139299,2.440771,-1.549226,1.446505,2.547604,-5.700770,-1.775585,-0.482088,-1.794690,-0.488037,0.880127,0.217285,-0.041135,0.024638,-0.015810,0.999917,-0.008878,-0.002410,-0.008973,0.614819,0.471088,0.412921,-0.479134
32305,NaN,-3.769316,1.924572,-1.505027,1.065080,2.433138,-6.190310,-1.931643,-0.461134,-2.129662,-0.511230,0.867188,0.228271,-0.037451,0.019498,-0.015324,0.999894,-0.009658,-0.002306,-0.010648,0.615687,0.459412,0.421600,-0.481791
32306,NaN,-3.191409,1.568728,-0.584772,0.954635,1.423807,-6.642719,-1.966605,-0.345905,-2.555784,-0.534424,0.850098,0.256104,-0.031700,0.016034,-0.006059,0.999869,-0.009833,-0.001729,-0.012778,0.614693,0.447076,0.431092,-0.486247
32307,NaN,-4.270235,0.117034,-0.351111,-0.531044,1.272585,-5.754453,-1.887539,-0.321892,-2.856774,-0.559570,0.830811,0.260498,-0.042674,0.001746,-0.003594,0.999852,-0.009437,-0.001609,-0.014283,0.613141,0.434044,0.441565,-0.490595
32308,NaN,-4.267437,0.366813,-0.016727,-0.129821,1.019649,-5.654805,-2.107258,-0.405461,-2.901548,-0.582520,0.809326,0.286621,-0.042615,0.004284,-0.000297,0.999837,-0.010536,-0.002027,-0.014507,0.611389,0.420112,0.451719,-0.495641
32309,NaN,-1.954839,1.233758,-0.600363,0.961316,1.224161,-8.001370,-2.012694,-0.132121,-3.244635,-0.614014,0.785889,0.299561,-0.019341,0.012591,-0.006142,0.999818,-0.010063,-0.000661,-0.016222,0.607899,0.406375,0.463232,-0.500735
32310,NaN,0.168303,-2.076583,-1.010074,-2.201591,0.572311,-10.243621,-1.380936,0.241363,-3.329270,-0.645508,0.764404,0.306152,0.001324,-0.020859,-0.009959,0.999837,-0.006904,0.001207,-0.016645,0.601708,0.395003,0.474114,-0.507086
32311,NaN,1.668516,-6.341169,0.375976,-6.143048,-1.864576,-11.197399,-1.312365,0.642407,-3.471429,-0.675049,0.745117,0.306152,0.015594,-0.063662,0.004126,0.999823,-0.006561,0.003212,-0.017356,0.593728,0.384766,0.486158,-0.512926
32312,NaN,3.322576,-8.978219,0.972809,-8.685926,-3.330525,-12.271586,-1.560258,0.919194,-3.645996,-0.710449,0.710938,0.310791,0.031629,-0.090290,0.010283,0.999793,-0.007801,0.004596,-0.018229,0.585018,0.373548,0.499804,-0.518085
32313,NaN,8.146651,-10.521220,1.252794,-10.489784,-5.015223,-16.402590,-1.660869,1.250307,-3.699596,-0.750244,0.680908,0.313232,0.079583,-0.106590,0.012908,0.999775,-0.008304,0.006251,-0.018497,0.574484,0.363457,0.514138,-0.523000
32314,NaN,13.850815,-12.605379,0.985796,-13.353714,-6.454811,-21.288213,-1.631982,1.630025,-3.749697,-0.785645,0.648926,0.317871,0.136194,-0.128542,0.009784,0.999758,-0.008159,0.008149,-0.018747,0.563312,0.353303,0.529779,-0.526489
32315,NaN,18.335203,-16.543581,0.765220,-18.277412,-7.895568,-24.440884,-1.490371,1.746277,-3.699508,-0.820801,0.610352,0.311768,0.180316,-0.168735,0.007318,0.999763,-0.007451,0.008731,-0.018496,0.550528,0.344555,0.544542,-0.530731
32316,NaN,19.651019,-18.563000,0.226720,-21.124943,-8.008196,-24.655960,-1.408268,1.525174,-3.678539,-0.862549,0.574219,0.301514,0.193069,-0.189187,0.002110,0.999777,-0.007041,0.007625,-0.018391,0.538914,0.334632,0.558695,-0.534278
32317,NaN,18.713353,-18.122068,-0.349138,-21.237348,-7.138592,-23.103893,-1.212778,1.330107,-3.740482,-0.886963,0.535645,0.295410,0.183677,-0.184699,-0.003608,0.999785,-0.006063,0.006650,-0.018701,0.526646,0.324245,0.571511,-0.539337
32318,NaN,19.714727,-18.722066,-3.006258,-23.231001,-4.877312,-23.401986,-1.246572,1.574630,-3.531158,-0.915771,0.497070,0.289551,0.193560,-0.190848,-0.030414,0.999794,-0.006232,0.007873,-0.017655,0.514533,0.315049,0.584628,-0.542411
32319,NaN,22.343707,-21.923177,-1.852351,-27.127561,-6.994724,-23.898280,-0.710867,1.802524,-2.568673,-0.936523,0.471436,0.272705,0.220422,-0.222144,-0.019733,0.999871,-0.003554,0.009012,-0.012843,0.502547,0.310313,0.594982,-0.545114
32320,NaN,19.806327,-16.087380,-1.034861,-21.202788,-5.901179,-22.764264,-0.734622,1.528043,-2.549522,-0.956787,0.439453,0.266602,0.195907,-0.163421,-0.011254,0.999883,-0.003673,0.007640,-0.012747,0.492129,0.305009,0.604712,-0.546902
32321,NaN,18.844381,-11.969540,-1.971306,-17.798459,-3.791863,-22.892316,-0.634839,1.385378,-2.275108,-0.966553,0.411621,0.254150,0.186925,-0.121892,-0.020627,0.999906,-0.003174,0.006927,-0.011375,0.481484,0.299993,0.613046,-0.549865
32322,NaN,17.157031,-12.797728,-1.984222,-18.225011,-3.558326,-20.641150,-0.572699,1.316245,-1.687145,-0.980957,0.396729,0.245605,0.170348,-0.129476,-0.020597,0.999939,-0.002863,0.006581,-0.008436,0.473636,0.297040,0.620285,-0.550165
32323,NaN,14.388743,-12.403432,-2.380674,-17.146437,-2.552007,-17.938456,-0.673036,1.086578,-1.379928,-0.982666,0.381592,0.239502,0.142896,-0.125103,-0.024165,0.999956,-0.003365,0.005433,-0.006900,0.466109,0.293751,0.626538,-0.551274
32324,NaN,11.812248,-12.420119,-3.768407,-16.610463,-0.823376,-15.416267,-0.850430,0.841810,-0.998368,-0.990723,0.368896,0.233154,0.117341,-0.124948,-0.037649,0.999970,-0.004252,0.004209,-0.004992,0.461950,0.290949,0.632295,-0.549686
32325,NaN,9.055852,-10.571401,-2.946554,-13.724388,-0.832518,-13.472073,-1.216929,0.637533,-0.764242,-0.992432,0.351562,0.231201,0.090060,-0.106237,-0.029108,0.999969,-0.006085,0.003188,-0.003821,0.458173,0.287007,0.638130,-0.548174
32326,NaN,5.126676,-8.256560,-1.928501,-9.821857,-0.817331,-10.829998,-1.220599,0.359067,-0.411754,-1.000732,0.347412,0.231201,0.051062,-0.082787,-0.018872,0.999978,-0.006103,0.001795,-0.002059,0.457635,0.283871,0.642878,-0.544698
32327,NaN,2.474069,-6.258730,-0.277119,-6.515982,-1.610940,-9.250440,-0.863149,0.079022,-0.178687,-0.998535,0.340820,0.237793,0.024684,-0.062621,-0.002511,0.999990,-0.004316,0.000395,-0.000893,0.456734,0.281052,0.645682,-0.543597
32328,NaN,7.503181,-11.372400,-3.765828,-14.026582,-0.281109,-11.540590,-0.321200,-0.420052,0.567360,-0.994385,0.345215,0.246338,0.075433,-0.113571,-0.037318,0.999992,-0.001606,-0.002100,0.002837,0.460075,0.281002,0.644797,-0.541854
32329,NaN,7.485463,-24.377592,-18.380169,-29.553796,9.953405,-5.869336,-2.991099,-1.051905,-0.097900,-1.000000,0.317383,0.270264,0.075687,-0.246521,-0.179732,0.999874,-0.014955,-0.005259,-0.000489,0.466027,0.270438,0.650650,-0.535105
32330,NaN,7.694741,-19.097819,-0.615819,-19.554466,-6.260252,-8.169046,-3.538496,-0.712730,-0.511821,-1.001709,0.306641,0.283203,0.076471,-0.191240,-0.002503,0.999834,-0.017692,-0.003563,-0.002559,0.471677,0.258572,0.659043,-0.525664
32331,NaN,14.158720,-15.228362,10.381876,-15.020555,-16.725051,-15.712045,-0.335465,-0.690127,1.488769,-1.000000,0.317139,0.293945,0.142355,-0.151051,0.104563,0.999965,-0.001677,-0.003451,0.007444,0.476918,0.260220,0.656774,-0.522956
32332,NaN,17.914202,20.493718,8.434545,13.140532,-4.074969,-34.767473,-0.787898,-0.746610,1.951612,-0.993652,0.323730,0.302246,0.176814,0.207002,0.084196,0.999938,-0.003939,-0.003733,0.009758,0.485462,0.262777,0.654477,-0.516657
32333,NaN,15.693162,21.134943,8.506816,14.979658,-3.253307,-32.841099,-1.898794,-0.239136,1.961904,-0.987549,0.330078,0.310791,0.154743,0.213671,0.083233,0.999906,-0.009494,-0.001196,0.009809,0.492438,0.263568,0.656184,-0.507404
32334,NaN,12.107929,1.842456,1.362967,-2.370660,-2.427239,-21.659091,-2.085684,-0.109145,1.851026,-0.979492,0.342773,0.317139,0.120894,0.019685,0.013495,0.999903,-0.010428,-0.000546,0.009255,0.500187,0.264199,0.658707,-0.496101
32335,NaN,11.407500,-3.617857,-0.005700,-7.090384,-3.012731,-18.970436,-1.510210,-0.186993,2.054617,-0.971191,0.353516,0.319092,0.114438,-0.035003,0.000317,0.999918,-0.007551,-0.000935,0.010273,0.506768,0.266483,0.659114,-0.487588
32336,NaN,13.498085,2.395309,1.647297,-1.820403,-2.479072,-23.273126,-0.860347,-0.444216,1.875480,-0.954346,0.364258,0.333984,0.134711,0.025289,0.016666,0.999944,-0.004302,-0.002221,0.009377,0.513916,0.269381,0.657555,-0.480569
32337,NaN,11.861008,5.070857,-2.818284,-0.694955,2.913098,-22.672257,-1.495872,-0.642496,1.614408,-0.948242,0.370605,0.342529,0.118287,0.051453,-0.028185,0.999934,-0.007479,-0.003212,0.008072,0.520896,0.269099,0.657166,-0.473694
32338,NaN,18.820471,-0.723793,-4.724747,-8.416796,1.352903,-27.259166,-2.138237,-0.308465,1.745653,-0.940186,0.385498,0.353027,0.188334,-0.006097,-0.046888,0.999904,-0.010691,-0.001542,0.008728,0.528864,0.268504,0.659019,-0.462496
32339,NaN,28.984808,-3.459620,6.102116,-8.514075,-10.717928,-36.306235,-1.629158,0.105647,2.374101,-0.927979,0.404785,0.359375,0.290260,-0.030655,0.061128,0.999896,-0.008146,0.000528,0.011870,0.535282,0.272027,0.659852,-0.451741
32340,NaN,30.525638,-2.734064,8.591836,-6.479398,-12.586203,-38.319885,-0.841717,-0.773064,2.256885,-0.915527,0.421875,0.376221,0.305201,-0.023531,0.087203,0.999920,-0.004208,-0.003865,0.011284,0.544026,0.275446,0.656566,-0.443944
32341,NaN,11.901122,-5.753214,1.060506,-7.310374,-5.089226,-19.636597,-1.517166,-1.772596,1.235205,-0.892334,0.428223,0.397705,0.119260,-0.056708,0.012094,0.999913,-0.007586,-0.008863,0.006176,0.553708,0.271318,0.653125,-0.439570
32342,NaN,4.509849,-3.680191,-4.920192,-6.550609,1.936086,-13.193514,-1.460430,-1.131580,1.486643,-0.886230,0.440918,0.412598,0.045649,-0.036821,-0.048676,0.999930,-0.007302,-0.005658,0.007433,0.562607,0.269617,0.651144,-0.432195
32343,NaN,8.543697,-2.528268,-5.319409,-6.639518,2.182773,-17.482985,-1.357637,-0.831103,1.588123,-0.875732,0.445312,0.429688,0.085856,-0.024961,-0.052668,0.999937,-0.006788,-0.004155,0.007940,0.570329,0.268034,0.649822,-0.424987
32344,NaN,8.411822,-1.183222,-5.978064,-5.741331,3.371353,-17.785493,-0.894504,-0.912988,1.465848,-0.859131,0.462402,0.438232,0.084475,-0.011480,-0.059344,0.999953,-0.004472,-0.004565,0.007329,0.577576,0.268287,0.647129,-0.419109
32345,NaN,6.135872,-5.229830,-5.225262,-8.213955,0.964387,-14.701742,-0.384457,-0.656002,1.278860,-0.855225,0.475098,0.444336,0.061863,-0.052004,-0.051950,0.999972,-0.001922,-0.003280,0.006394,0.582105,0.269753,0.644335,-0.416197
32346,NaN,9.629828,-6.792531,-2.268703,-8.507687,-2.837188,-17.786868,0.151050,-0.465191,0.875844,-0.849121,0.481689,0.450684,0.096647,-0.067486,-0.022514,0.999987,0.000755,-0.002326,0.004379,0.585209,0.272036,0.641482,-0.414762
32347,NaN,9.704800,-9.658085,-1.888998,-10.654928,-4.623156,-17.304526,-0.180654,-0.354800,0.823396,-0.844971,0.488037,0.452881,0.097478,-0.096197,-0.018630,0.999990,-0.000903,-0.001774,0.004117,0.587536,0.273205,0.639777,-0.413336
32348,NaN,10.384946,-6.435105,-2.856343,-8.500070,-2.268229,-18.758033,-0.280050,-0.339483,0.842748,-0.838623,0.489990,0.459229,0.104168,-0.063952,-0.028297,0.999989,-0.001400,-0.001697,0.004214,0.590733,0.274367,0.638205,-0.410429
32349,NaN,10.457866,-1.543189,-4.479458,-5.219156,1.603422,-19.912328,-0.250376,-0.218004,0.878055,-0.830566,0.505127,0.458984,0.104694,-0.015028,-0.044662,0.999989,-0.001252,-0.001090,0.004390,0.592788,0.275770,0.636939,-0.408486
32350,NaN,11.028445,-3.490321,-3.939187,-6.562925,0.101714,-20.120103,-0.083057,0.039354,0.977786,-0.822266,0.511475,0.458984,0.110446,-0.034380,-0.039399,0.999988,-0.000415,0.000197,0.004889,0.594761,0.278707,0.635875,-0.405271
32351,NaN,11.733775,-4.631772,-2.446716,-6.760000,-1.782767,-20.594334,0.061636,0.096072,1.026365,-0.820312,0.520020,0.463135,0.117562,-0.045707,-0.024538,0.999987,0.000308,0.000480,0.005132,0.595711,0.282117,0.634750,-0.403275
32352,NaN,12.002105,-4.075292,-1.973924,-5.989776,-1.860041,-21.002699,0.213572,0.048046,0.977164,-0.814209,0.530762,0.463135,0.120213,-0.040145,-0.019811,0.999987,0.001068,0.000240,0.004886,0.597214,0.285940,0.633082,-0.400975
32353,NaN,13.801026,-2.820259,-1.802710,-4.986993,-1.499656,-23.024457,0.339280,-0.009594,1.061062,-0.808350,0.547852,0.456299,0.138158,-0.027439,-0.018067,0.999984,0.001696,-0.000048,0.005305,0.598162,0.290061,0.630994,-0.399891
32354,NaN,14.906446,-1.028166,-3.156840,-4.164688,0.531572,-24.495822,0.480972,-0.116144,1.215390,-0.797852,0.552246,0.460693,0.149141,-0.009300,-0.031505,0.999978,0.002405,-0.000581,0.006077,0.600242,0.295088,0.627915,-0.397940
32355,NaN,18.990167,-0.475399,-2.896920,-3.796860,0.244763,-28.647772,0.892215,-0.243225,1.492933,-0.787842,0.573486,0.458252,0.189965,-0.003208,-0.028755,0.999961,0.004461,-0.001216,0.007465,0.601964,0.301725,0.623346,-0.397544
32356,NaN,20.855355,-2.056450,0.345475,-3.352007,-3.396788,-30.221213,1.148831,-0.372300,1.820824,-0.775635,0.594971,0.460205,0.208723,-0.018686,0.003732,0.999940,0.005744,-0.001861,0.009104,0.604968,0.310092,0.617164,-0.396189
32357,NaN,22.407303,-1.285905,-0.220000,-2.733834,-2.570474,-31.941630,1.294258,-0.614005,1.979745,-0.755127,0.622803,0.453369,0.224191,-0.010629,-0.001585,0.999925,0.006471,-0.003070,0.009898,0.608104,0.318645,0.609762,-0.396061
32358,NaN,24.506878,-1.490502,1.368201,-1.749127,-4.132618,-33.989416,1.615696,-0.778743,2.373916,-0.730225,0.652832,0.453125,0.245168,-0.012110,0.014531,0.999889,0.008078,-0.003894,0.011869,0.612531,0.329210,0.600352,-0.394973
32359,NaN,26.322804,0.682338,1.976599,0.996797,-3.750628,-35.930807,1.886532,-1.117520,2.692195,-0.698975,0.684814,0.450684,0.262990,0.010168,0.021321,0.999849,0.009432,-0.005587,0.013460,0.617426,0.340591,0.588724,-0.395206
32360,NaN,27.089439,3.100788,1.729363,3.836134,-2.498786,-36.746270,2.115509,-1.406574,2.931956,-0.669922,0.712646,0.443848,0.270271,0.034774,0.019551,0.999812,0.010577,-0.007032,0.014659,0.623634,0.352901,0.575105,-0.394710
32361,NaN,24.937848,5.273277,1.575767,6.502580,-1.362274,-34.469869,2.531598,-1.616976,3.070254,-0.634521,0.746826,0.439209,0.248390,0.056329,0.018467,0.999769,0.012657,-0.008084,0.015350,0.629246,0.366145,0.559427,-0.396269
32362,NaN,19.706847,6.310391,1.950491,8.067658,-0.992839,-28.940185,2.770155,-1.725549,3.049602,-0.594727,0.779053,0.430420,0.195896,0.065803,0.022098,0.999751,0.013850,-0.008627,0.015247,0.634879,0.379872,0.542796,-0.397491
32363,NaN,11.454713,6.827716,2.631552,8.533767,-0.909266,-20.352031,2.674727,-1.868450,2.851367,-0.556885,0.806885,0.421631,0.113304,0.069529,0.028302,0.999765,0.013373,-0.009342,0.014256,0.640030,0.392118,0.525800,-0.400175
32364,NaN,3.476314,7.625638,1.304363,8.015602,1.169294,-12.324458,2.941603,-1.945524,2.209244,-0.527832,0.834717,0.410645,0.033783,0.076427,0.014499,0.999784,0.014707,-0.009727,0.011045,0.643652,0.403355,0.509252,-0.404574
32365,NaN,-3.057865,9.532182,-0.386797,8.286482,3.901520,-5.754890,3.522732,-1.710308,1.859091,-0.502686,0.854004,0.391357,-0.031438,0.095084,-0.002458,0.999765,0.017612,-0.008551,0.009295,0.645070,0.414756,0.493277,-0.410536
32366,NaN,-6.930902,10.550237,0.599133,8.819213,3.478524,-1.457309,3.669580,-1.091163,1.760037,-0.486084,0.875488,0.365234,-0.070271,0.104758,0.007536,0.999778,0.018347,-0.005455,0.008800,0.643614,0.428593,0.478475,-0.416089
32367,NaN,-6.404964,7.246536,2.249880,6.124393,0.655307,-2.024631,3.535022,-0.822157,1.179813,-0.469238,0.892578,0.335205,-0.064569,0.071676,0.023506,0.999818,0.017674,-0.004111,0.005899,0.641087,0.439925,0.466537,-0.421683
32368,NaN,-6.756544,8.489591,4.564086,7.625084,-1.489762,-0.970732,4.048655,-0.157558,0.508628,-0.458984,0.905518,0.300781,-0.067816,0.083777,0.047291,0.999792,0.020242,-0.000788,0.002543,0.633481,0.453658,0.456289,-0.429763
32369,NaN,-8.791605,8.170043,3.800403,6.603760,-0.841233,0.871914,3.016295,-0.147684,0.547592,-0.455078,0.922607,0.287598,-0.088167,0.080874,0.039163,0.999882,0.015081,-0.000738,0.002738,0.628738,0.463272,0.448499,-0.434645
32370,NaN,-5.388950,8.576553,-1.456126,6.855617,3.705798,-3.180644,2.116695,-0.580042,0.103352,-0.455322,0.924805,0.276855,-0.053893,0.085886,-0.013809,0.999940,0.010583,-0.002900,0.000517,0.625315,0.468864,0.441818,-0.440391
32371,NaN,-2.954595,4.623489,-4.211905,3.226028,5.309168,-6.771089,1.418500,-0.614421,-0.089194,-0.455078,0.922607,0.270508,-0.029396,0.046546,-0.041880,0.999970,0.007092,-0.003072,-0.000446,0.624517,0.470336,0.438133,-0.443623
32372,NaN,-1.067636,4.558394,-4.439887,3.613080,5.224212,-8.679492,0.418904,-0.630880,-0.998778,-0.465820,0.918457,0.279053,-0.010308,0.045729,-0.044336,0.999980,0.002095,-0.003154,-0.004994,0.622679,0.468042,0.437584,-0.449142
32373,NaN,-0.246230,3.364961,-4.091988,2.699623,4.563844,-9.708791,-0.445538,-0.487047,-1.693205,-0.476318,0.912109,0.287598,-0.002078,0.033577,-0.041000,0.999959,-0.002228,-0.002435,-0.008466,0.620973,0.461857,0.440881,-0.454648
32374,NaN,0.144114,1.293585,-5.235896,0.605008,5.284334,-10.717291,-0.567854,-0.221205,-2.065405,-0.503906,0.896973,0.296387,0.001632,0.012771,-0.052394,0.999942,-0.002839,-0.001106,-0.010327,0.618034,0.455005,0.446238,-0.460300
32375,NaN,-0.966179,-1.526201,-5.643563,-2.411202,5.402412,-10.148175,-0.344764,-0.037977,-2.329056,-0.522705,0.884277,0.302734,-0.009829,-0.015245,-0.056411,0.999931,-0.001724,-0.000190,-0.011645,0.613542,0.448658,0.452233,-0.466644
32376,NaN,-2.497362,-2.858783,-3.107032,-3.586009,2.982759,-8.294107,-0.310443,-0.060999,-2.619266,-0.545898,0.864990,0.322266,-0.025336,-0.028306,-0.031034,0.999913,-0.001552,-0.000305,-0.013096,0.608204,0.441596,0.458616,-0.474081
32377,NaN,-0.801602,-1.453211,-1.583180,-1.750451,1.438928,-9.457563,-1.152149,-0.323129,-2.963594,-0.571045,0.845703,0.337402,-0.008206,-0.014502,-0.015761,0.999872,-0.005760,-0.001616,-0.014817,0.604428,0.430482,0.467080,-0.480820
32378,NaN,1.388817,-1.761687,-2.929848,-2.075023,2.282021,-11.838064,-1.406436,-0.160805,-3.133023,-0.598145,0.822021,0.354736,0.013631,-0.018037,-0.029162,0.999852,-0.007032,-0.000804,-0.015664,0.600201,0.418459,0.476658,-0.487286
32379,NaN,0.984138,-5.150643,-2.780910,-5.493165,1.567537,-11.423744,-1.754136,0.103225,-3.218686,-0.631836,0.800537,0.380615,0.008994,-0.051897,-0.027360,0.999832,-0.008770,0.000516,-0.016093,0.595725,0.405687,0.488180,-0.492148
32380,NaN,-0.549336,-8.311461,-1.716386,-8.495865,0.147333,-9.470805,-2.181952,0.315481,-3.422166,-0.658447,0.760010,0.404785,-0.006942,-0.083185,-0.016246,0.999793,-0.010909,0.001577,-0.017110,0.590829,0.391522,0.501336,-0.496280
32381,NaN,0.170215,-9.254370,-0.949681,-9.243191,-1.048085,-9.650248,-2.091502,0.390194,-3.632150,-0.689697,0.725586,0.420166,0.000003,-0.092647,-0.008529,0.999779,-0.010457,0.001951,-0.018159,0.584803,0.377042,0.515017,-0.500602
32382,NaN,3.439609,-10.089189,-0.508082,-10.088111,-2.411751,-12.318404,-1.831361,0.611257,-3.707263,-0.725098,0.689209,0.439697,0.032504,-0.101548,-0.004254,0.999782,-0.009156,0.003056,-0.018535,0.577267,0.363583,0.528271,-0.505470
32383,NaN,6.834806,-10.817667,-0.038228,-11.039200,-3.810331,-15.041062,-1.753867,0.890716,-3.638205,-0.749756,0.657227,0.450684,0.066366,-0.109396,0.000275,0.999786,-0.008769,0.004453,-0.018190,0.568706,0.350942,0.542100,-0.509452
32384,NaN,10.704804,-11.848227,-0.075996,-12.681173,-4.880391,-18.198506,-1.737653,1.142934,-3.501711,-0.789551,0.622803,0.461914,0.104949,-0.120336,-0.000324,0.999793,-0.008688,0.005714,-0.017507,0.559611,0.339342,0.555815,-0.512595
32385,NaN,13.437318,-12.617219,-0.200179,-14.170335,-5.558860,-20.207978,-1.570897,1.282702,-3.461895,-0.813965,0.582275,0.472900,0.132150,-0.128487,-0.001851,0.999799,-0.007854,0.006413,-0.017308,0.549527,0.328350,0.569443,-0.515694
32386,NaN,15.634571,-14.121761,-0.900393,-16.563803,-5.729212,-21.536668,-1.170022,1.297529,-3.187835,-0.840820,0.550049,0.475586,0.154009,-0.143738,-0.009172,0.999835,-0.005850,0.006487,-0.015938,0.539435,0.319343,0.581171,-0.518913
32387,NaN,15.424756,-15.806356,-0.640590,-18.374509,-6.353724,-20.308008,-0.788952,1.217068,-2.667818,-0.863525,0.522217,0.475830,0.152081,-0.160128,-0.006707,0.999885,-0.003945,0.006085,-0.013339,0.529821,0.312339,0.590875,-0.522112
32388,NaN,14.734399,-14.096510,-1.273668,-17.115923,-5.144018,-19.711930,-0.562812,1.090458,-2.616925,-0.881836,0.496582,0.473877,0.145412,-0.142913,-0.013133,0.999896,-0.002814,0.005452,-0.013084,0.520582,0.305923,0.599264,-0.525631
32389,NaN,15.616264,-13.238174,-1.868018,-17.052240,-4.448421,-20.396499,-0.363332,1.100011,-2.347897,-0.898193,0.466553,0.469971,0.154489,-0.134237,-0.019290,0.999914,-0.001817,0.005500,-0.011739,0.511113,0.300510,0.606758,-0.529436
32390,NaN,16.235395,-14.134183,-1.991968,-18.347147,-4.580821,-20.287028,-0.328281,1.152226,-1.936259,-0.912354,0.440918,0.461670,0.160858,-0.142937,-0.020616,0.999935,-0.001641,0.005761,-0.009681,0.502942,0.296819,0.613448,-0.531629
32391,NaN,15.404237,-13.728329,-1.612394,-17.846027,-4.589544,-19.236000,-0.356246,1.136294,-1.803895,-0.922607,0.430176,0.448975,0.152702,-0.138694,-0.016748,0.999942,-0.001781,0.005681,-0.009019,0.494514,0.293047,0.620020,-0.534000
32392,NaN,12.753248,-15.227693,-1.281636,-18.345279,-4.757207,-15.893969,-0.158293,1.117211,-1.409108,-0.930420,0.408936,0.449219,0.126382,-0.153181,-0.013403,0.999959,-0.000791,0.005586,-0.007045,0.487490,0.291249,0.625251,-0.535340
32393,NaN,13.384109,-13.258763,-1.787403,-17.125069,-3.795108,-16.914915,-0.432568,0.783533,-1.877312,-0.944824,0.391846,0.447266,0.132518,-0.133875,-0.018106,0.999946,-0.002163,0.003918,-0.009386,0.479844,0.286018,0.631133,-0.538159
32394,NaN,14.925110,-12.099264,-3.263732,-17.262609,-2.314798,-18.555723,-0.530704,0.668201,-1.290007,-0.950684,0.374512,0.447510,0.148357,-0.122038,-0.032811,0.999970,-0.002653,0.003341,-0.006450,0.474998,0.282454,0.635997,-0.538613
32395,NaN,12.878855,-12.704094,-3.920841,-17.297312,-1.523482,-16.224516,-0.573515,0.574311,-0.751116,-0.956787,0.361816,0.449951,0.128197,-0.127636,-0.039212,0.999985,-0.002868,0.002872,-0.003756,0.471086,0.279811,0.640101,-0.538567
32396,NaN,14.294468,-14.431133,-5.835013,-19.971179,-0.428387,-16.712251,-0.760629,0.028735,-0.129650,-0.954590,0.361816,0.454102,0.142843,-0.144625,-0.057821,0.999993,-0.003803,0.000144,-0.000648,0.471695,0.277670,0.642400,-0.536400
32397,NaN,7.993446,-15.260448,-6.182330,-18.283293,0.414174,-10.545700,-1.825516,-0.383483,-0.461004,-0.951904,0.342529,0.473633,0.079698,-0.153343,-0.060273,0.999954,-0.009127,-0.001917,-0.002305,0.473266,0.270338,0.647252,-0.532918
32398,NaN,-0.057801,-8.246952,-3.482066,-8.138556,0.846941,-6.181893,-2.373460,-0.434659,-1.154638,-0.949463,0.331543,0.490967,-0.000981,-0.082870,-0.033841,0.999911,-0.011867,-0.002173,-0.005773,0.474750,0.259793,0.654058,-0.528516
32399,NaN,4.216403,-32.182019,-0.985541,-29.118218,-9.772243,0.725402,-1.089552,-0.405359,0.436014,-0.945068,0.327393,0.514648,0.042883,-0.321774,-0.008016,0.999981,-0.005448,-0.002027,0.002180,0.477685,0.257012,0.655746,-0.525128
32400,NaN,9.930763,-26.910074,4.443774,-25.031027,-14.385378,-6.808720,-0.397755,-0.824084,0.476467,-0.934570,0.335693,0.536133,0.099763,-0.268774,0.045383,0.999987,-0.001989,-0.004120,0.002382,0.482131,0.255447,0.654208,-0.523745
32401,NaN,16.922811,8.948075,6.783633,3.229026,-6.404111,-28.813154,0.242656,-1.028424,1.382769,-0.937256,0.350830,0.561523,0.168252,0.090563,0.068813,0.999962,0.001213,-0.005142,0.006914,0.487609,0.257287,0.649535,-0.523589
32402,NaN,16.045069,26.509556,12.568114,20.890802,-5.881419,-35.251041,-1.010724,-0.519237,1.492930,-0.926514,0.346436,0.574463,0.158138,0.266914,0.124748,0.999956,-0.005054,-0.002596,0.007465,0.494470,0.258290,0.648973,-0.517319
32403,NaN,12.341138,13.531402,6.462305,9.281455,-3.555865,-26.496847,-1.815501,-0.159097,1.255636,-0.922363,0.350586,0.589355,0.122505,0.136665,0.063484,0.999939,-0.009077,-0.000795,0.006278,0.499522,0.257082,0.651617,-0.509688
32404,NaN,13.308380,-2.289433,-2.339413,-7.672353,-0.963189,-21.127794,-1.989787,-0.147220,1.645514,-0.916016,0.354980,0.604492,0.133284,-0.022029,-0.023074,0.999916,-0.009949,-0.000736,0.008227,0.506699,0.257066,0.654158,-0.499250
32405,NaN,14.950105,-5.485076,-0.103634,-9.853715,-4.515934,-21.478997,-2.088717,-0.589640,1.814961,-0.903320,0.359131,0.621582,0.149992,-0.053495,-0.000031,0.999900,-0.010443,-0.002948,0.009075,0.514857,0.255915,0.655457,-0.489700
32406,NaN,10.883178,3.765948,-0.553668,-0.693125,0.147725,-21.320451,-2.149121,-1.000180,1.294372,-0.896729,0.352539,0.636719,0.108613,0.038304,-0.005402,0.999909,-0.010745,-0.005001,0.006472,0.523994,0.252141,0.656436,-0.480568
32407,NaN,5.308339,-0.436224,-4.945428,-4.316953,3.291295,-14.645544,-2.726261,-0.693184,1.108958,-0.887939,0.343994,0.651855,0.053280,-0.004739,-0.049207,0.999886,-0.013631,-0.003466,0.005545,0.531404,0.246665,0.659708,-0.470693
32408,NaN,18.709376,-5.035118,-2.072867,-10.872304,-3.617626,-25.573016,-2.313507,0.126771,1.740474,-0.884033,0.352539,0.666748,0.187511,-0.048957,-0.020276,0.999895,-0.011567,0.000634,0.008702,0.537867,0.246519,0.663282,-0.458241
32409,NaN,44.656939,0.479333,9.572267,-7.840118,-15.232641,-52.149652,-0.903765,0.055153,3.104864,-0.862793,0.365234,0.668945,0.446445,0.012157,0.095556,0.999869,-0.004519,0.000276,0.015524,0.544970,0.254192,0.661677,-0.447860
32410,NaN,28.767730,1.275623,6.108579,-3.540726,-9.179731,-37.555695,-1.454941,-1.902918,1.424722,-0.845703,0.365234,0.683838,0.286977,0.015259,0.063714,0.999903,-0.007274,-0.009514,0.007123,0.556240,0.250643,0.657883,-0.441548
32411,NaN,2.246026,-4.673240,-7.908853,-8.470396,4.115087,-10.677603,-1.292697,-1.668940,1.135164,-0.837402,0.375977,0.694580,0.023384,-0.047110,-0.078592,0.999928,-0.006463,-0.008344,0.005676,0.564894,0.246860,0.654528,-0.437663
32412,NaN,0.983637,-6.327561,-4.459015,-7.753911,0.440809,-9.058960,-1.157357,-0.877403,1.938139,-0.822754,0.384521,0.696533,0.010645,-0.063432,-0.044178,0.999927,-0.005787,-0.004387,0.009690,0.573382,0.247982,0.652151,-0.429462
32413,NaN,5.288855,-6.622130,-5.687188,-9.587790,0.519205,-13.272597,-0.669833,-0.767728,1.488528,-0.812256,0.395264,0.702881,0.053598,-0.066014,-0.056446,0.999959,-0.003349,-0.003839,0.007443,0.579009,0.248987,0.649566,-0.425228
32414,NaN,7.778098,-7.812623,-6.081112,-11.219868,-0.237893,-15.519801,-0.196208,-0.670008,1.259470,-0.802002,0.403809,0.707275,0.078474,-0.077693,-0.060473,0.999974,-0.000981,-0.003350,0.006297,0.584080,0.251065,0.646467,-0.421778
32415,NaN,11.684582,-4.768278,-3.082548,-7.763475,-1.843896,-20.064209,0.163522,-0.613079,1.275130,-0.787354,0.418701,0.709229,0.117240,-0.046911,-0.030505,0.999975,0.000818,-0.003065,0.006376,0.587650,0.254047,0.642863,-0.420541
32416,NaN,12.028116,-4.896862,-0.490247,-6.383804,-4.124492,-20.354431,0.067843,-0.438800,1.251267,-0.776855,0.427246,0.704834,0.120595,-0.048213,-0.004655,0.999978,0.000339,-0.002194,0.006256,0.591581,0.257326,0.639837,-0.417642
32417,NaN,11.094659,-7.535207,-2.026274,-9.135887,-4.026215,-18.994173,-0.055860,-0.309570,1.121748,-0.772949,0.435791,0.708984,0.111398,-0.074734,-0.020070,0.999983,-0.000279,-0.001548,0.005609,0.594098,0.259776,0.637727,-0.415776
32418,NaN,11.741973,-4.935510,-5.365589,-8.793518,0.041459,-20.475393,-0.073276,-0.249623,1.096301,-0.766846,0.448730,0.708740,0.117755,-0.048730,-0.053491,0.999984,-0.000366,-0.001248,0.005481,0.597246,0.262517,0.635713,-0.412614
32419,NaN,15.132568,0.199845,-5.468046,-4.986599,2.301770,-24.937700,0.205367,-0.296491,1.292118,-0.758789,0.461426,0.706543,0.151389,0.003032,-0.054453,0.999978,0.001027,-0.001482,0.006461,0.599686,0.266276,0.632870,-0.411035
32420,NaN,17.446324,0.479708,-4.955108,-4.557334,1.734196,-27.287602,0.611030,-0.424008,1.553420,-0.742188,0.480713,0.702148,0.174523,0.006303,-0.049163,0.999963,0.003055,-0.002120,0.007767,0.603372,0.272128,0.628261,-0.408872
32421,NaN,19.879250,-1.000436,-4.172640,-5.385463,0.030873,-29.423352,1.055541,-0.520867,1.780004,-0.726074,0.510742,0.693115,0.198978,-0.008015,-0.041254,0.999943,0.005278,-0.002604,0.008900,0.606345,0.279455,0.622327,-0.408608
32422,NaN,24.451363,-3.287225,1.161906,-4.566619,-6.178195,-33.285561,1.318281,-0.538858,2.260645,-0.707764,0.544922,0.684082,0.244833,-0.030185,0.012074,0.999911,0.006591,-0.002694,0.011303,0.610732,0.289345,0.614797,-0.406585
32423,NaN,26.756244,-0.454329,1.491783,-1.664105,-5.244306,-36.042777,1.324253,-0.937326,2.454038,-0.678467,0.568604,0.675293,0.267518,-0.001365,0.016156,0.999892,0.006621,-0.004686,0.012270,0.615825,0.298624,0.605839,-0.405638
32424,NaN,29.388635,0.603042,3.232861,0.736066,-6.470573,-38.657617,1.514485,-1.129048,2.978774,-0.649658,0.607178,0.662109,0.293567,0.010151,0.034053,0.999844,0.007572,-0.005645,0.014893,0.622917,0.309959,0.594761,-0.402689
32425,NaN,30.887717,2.464560,2.795159,3.031333,-5.347290,-40.309375,1.815629,-1.467834,3.445811,-0.614502,0.645752,0.646729,0.308177,0.029690,0.030469,0.999783,0.009077,-0.007339,0.017228,0.630559,0.322486,0.581139,-0.400843
32426,NaN,31.175236,4.232475,3.903687,6.305770,-5.496525,-40.389420,2.129798,-1.741088,3.766677,-0.576660,0.677734,0.629150,0.310529,0.047743,0.042233,0.999728,0.010648,-0.008705,0.018832,0.639549,0.336553,0.565163,-0.397868
32427,NaN,28.822993,6.655031,4.486233,9.773325,-4.767832,-37.683789,2.443406,-2.028578,3.698978,-0.530518,0.709961,0.605469,0.286460,0.071281,0.048626,0.999703,0.012216,-0.010142,0.018493,0.647759,0.350353,0.547324,-0.397614
32428,NaN,21.276184,10.688950,4.779512,13.889718,-2.553121,-29.566798,2.830974,-2.330294,3.570792,-0.493164,0.750488,0.583496,0.210229,0.109944,0.051797,0.999673,0.014153,-0.011650,0.017852,0.656051,0.364532,0.527730,-0.397762
32429,NaN,9.951994,12.935385,5.717399,15.428501,-1.353110,-17.501980,2.933222,-2.501189,3.172671,-0.455322,0.780518,0.561768,0.096719,0.130034,0.060299,0.999688,0.014665,-0.012505,0.015862,0.663000,0.377142,0.507450,-0.400860
32430,NaN,0.330832,12.630860,3.411659,12.861679,1.649616,-8.047746,3.325480,-2.216292,2.442766,-0.421631,0.806396,0.533936,0.001376,0.125743,0.036233,0.999726,0.016626,-0.011080,0.012213,0.667055,0.389804,0.488708,-0.405283
32431,NaN,-4.303737,10.099888,2.539727,9.283210,1.894852,-3.713933,3.961716,-1.397171,1.925111,-0.398926,0.832031,0.494873,-0.044189,0.100052,0.027079,0.999733,0.019807,-0.006985,0.009625,0.666213,0.404547,0.471721,-0.412288
32432,NaN,-6.653330,8.598252,2.974670,7.378889,1.053673,-1.358447,3.850902,-0.467822,1.493472,-0.382568,0.859863,0.453857,-0.067242,0.084890,0.031232,0.999784,0.019253,-0.002339,0.007467,0.662450,0.419832,0.459118,-0.417268
32433,NaN,-7.639651,7.838525,4.489424,6.640601,-0.739180,-0.050303,3.658895,-0.439357,1.528208,-0.370117,0.875000,0.421631,-0.077089,0.076961,0.046142,0.999801,0.018293,-0.002197,0.007641,0.658669,0.434269,0.446290,-0.422363
32434,NaN,-9.702622,10.588190,6.471763,8.880639,-1.907806,3.055904,4.558605,-0.973001,1.052683,-0.353516,0.898682,0.380615,-0.097898,0.103864,0.066626,0.999715,0.022791,-0.004865,0.005263,0.652965,0.449440,0.431063,-0.431074
32435,NaN,-7.195205,9.485027,3.162412,7.618646,0.209398,-0.136118,3.881219,-1.024827,1.452600,-0.334717,0.920166,0.352539,-0.072802,0.093691,0.033078,0.999772,0.019405,-0.005124,0.007262,0.649334,0.462774,0.415468,-0.437712
32436,NaN,-0.811747,7.652094,-3.217571,6.669057,4.640244,-7.926849,1.828994,-1.323061,0.857751,-0.332764,0.924561,0.341797,-0.008236,0.076776,-0.031529,0.999927,0.009145,-0.006615,0.004289,0.649668,0.467554,0.405172,-0.441770
32437,NaN,4.952119,4.277099,-3.293039,5.098145,2.916138,-14.190578,0.440758,-0.394641,-0.658129,-0.334717,0.917969,0.335449,0.049726,0.042680,-0.032738,0.999990,0.002204,-0.001973,-0.003291,0.647919,0.466672,0.403981,-0.446337
32438,NaN,2.732643,3.280934,-3.426494,3.493674,3.307694,-12.425271,-0.765337,0.182973,-1.346323,-0.349365,0.903076,0.344238,0.027514,0.032493,-0.034415,0.999970,-0.003827,0.000915,-0.006732,0.646298,0.461857,0.409428,-0.448727
32439,NaN,1.773909,1.533690,-4.538663,1.366733,4.278719,-12.246183,-1.738440,0.019864,-1.735741,-0.361816,0.892334,0.357178,0.017865,0.014787,-0.045519,0.999925,-0.008692,0.000099,-0.008678,0.646292,0.452639,0.416998,-0.451150
32440,NaN,1.607218,0.528930,-5.563253,0.113394,5.108459,-12.587957,-1.673975,0.209868,-2.146682,-0.376465,0.877197,0.370117,0.016066,0.004651,-0.055690,0.999907,-0.008370,0.001049,-0.010733,0.644727,0.443175,0.426288,-0.454094
32441,NaN,1.647503,-0.317287,-4.174516,-0.602309,3.591721,-12.454147,-1.456364,0.527540,-2.596687,-0.410400,0.862305,0.383057,0.016319,-0.003689,-0.041763,0.999886,-0.007282,0.002638,-0.012983,0.640831,0.434065,0.436782,-0.458414
32442,NaN,1.300407,-1.142865,-3.509009,-1.461787,2.847194,-12.063492,-1.403010,0.587258,-2.940056,-0.427002,0.847412,0.389648,0.012729,-0.011863,-0.035046,0.999863,-0.007015,0.002936,-0.014700,0.635754,0.424424,0.448216,-0.463448
32443,NaN,1.952354,-0.499004,-2.356671,-0.622550,1.730913,-12.308685,-1.606315,0.514098,-3.336787,-0.456787,0.832275,0.404785,0.019374,-0.005503,-0.023574,0.999825,-0.008031,0.002570,-0.016683,0.630137,0.412939,0.460468,-0.469444
32444,NaN,3.897107,2.280650,-1.923902,2.276837,1.516535,-13.887288,-2.703736,0.488914,-3.539891,-0.485596,0.798096,0.424316,0.039316,0.021849,-0.019635,0.999749,-0.013518,0.002444,-0.017698,0.626113,0.397303,0.475561,-0.473259
32445,NaN,4.182913,0.814784,-3.327355,0.351948,2.441559,-14.623245,-2.957836,0.719152,-3.583080,-0.519287,0.772461,0.443848,0.041840,0.006904,-0.033532,0.999724,-0.014788,0.003595,-0.017914,0.621605,0.381107,0.491735,-0.475984
32446,NaN,3.125915,-3.367204,-3.493196,-4.026103,1.708309,-13.577984,-2.798532,0.991041,-3.847156,-0.548340,0.742432,0.459229,0.030426,-0.034748,-0.034603,0.999705,-0.013991,0.004955,-0.019234,0.615148,0.365185,0.508673,-0.479045
32447,NaN,3.145007,-6.999770,-2.949369,-7.544933,0.105364,-13.073987,-2.285721,1.025664,-4.199644,-0.583984,0.716797,0.463623,0.029818,-0.070967,-0.028842,0.999701,-0.011427,0.005128,-0.020996,0.606446,0.349804,0.524824,-0.484171
32448,NaN,5.329323,-8.822730,-1.943776,-9.212034,-1.919916,-14.444331,-1.602611,1.063025,-4.439145,-0.617432,0.686768,0.466064,0.051214,-0.089533,-0.019000,0.999707,-0.008012,0.005315,-0.022194,0.595521,0.335754,0.539549,-0.491438
32449,NaN,7.503286,-7.458710,-0.164751,-7.761175,-3.706465,-15.974261,-1.121680,1.107855,-4.616159,-0.653076,0.658936,0.466309,0.073276,-0.076301,-0.001632,0.999703,-0.005608,0.005539,-0.023079,0.582818,0.322522,0.553241,-0.500228
32450,NaN,9.745623,-5.234483,0.035062,-6.218597,-3.772504,-18.146468,-0.649703,1.002723,-4.777222,-0.692627,0.624756,0.466553,0.096170,-0.054652,0.000041,0.999697,-0.003248,0.005013,-0.023884,0.568952,0.309811,0.565334,-0.510595
32451,NaN,12.613006,-4.783770,0.695737,-6.532251,-4.931191,-20.556776,-0.348922,1.086290,-4.688265,-0.726318,0.601318,0.460205,0.124998,-0.050765,0.006363,0.999709,-0.001744,0.005431,-0.023439,0.554144,0.298164,0.576428,-0.521300
32452,NaN,15.533696,-6.575687,1.587346,-9.091576,-6.925057,-22.318348,0.121893,1.120246,-4.507634,-0.763916,0.571289,0.456299,0.153888,-0.069246,0.014967,0.999730,0.000609,0.005601,-0.022536,0.538820,0.288335,0.585789,-0.532341
32453,NaN,17.508744,-9.164711,2.414115,-12.351726,-8.768307,-22.730208,0.577248,1.161356,-4.287908,-0.793457,0.554443,0.439209,0.173203,-0.095441,0.022860,0.999749,0.002886,0.005806,-0.021438,0.522806,0.280251,0.593357,-0.544114
32454,NaN,17.979502,-9.411227,3.400251,-13.079431,-9.719889,-22.373712,0.877257,1.145982,-4.180778,-0.826904,0.526611,0.430908,0.177963,-0.097990,0.032555,0.999755,0.004386,0.005729,-0.020902,0.506659,0.273175,0.599690,-0.555917
32455,NaN,18.676775,-7.185240,3.305915,-12.066100,-9.131776,-23.315742,0.932450,1.008963,-4.173885,-0.851807,0.500977,0.414062,0.185375,-0.075881,0.031774,0.999759,0.004662,0.005044,-0.020868,0.490254,0.265644,0.605042,-0.568339
32456,NaN,19.724355,-5.737446,2.383623,-12.153361,-8.065414,-24.469874,0.827578,1.105596,-3.932540,-0.883057,0.475342,0.401367,0.196190,-0.061334,0.022501,0.999783,0.004138,0.005528,-0.019661,0.474511,0.258845,0.610502,-0.578900
32457,NaN,19.082503,-6.436863,0.874093,-13.547205,-6.455850,-23.269689,0.266308,1.279298,-3.350889,-0.910156,0.451904,0.386475,0.189761,-0.067565,0.007436,0.999838,0.001331,0.006396,-0.016754,0.459961,0.252786,0.616740,-0.586658
32458,NaN,18.658463,-9.284649,-1.888591,-17.018001,-3.988228,-21.316694,0.013383,2.019791,-3.126008,-0.933105,0.428467,0.369629,0.184900,-0.095744,-0.020765,0.999827,0.000067,0.010098,-0.015629,0.444448,0.249042,0.625200,-0.591243
32459,NaN,19.841778,-8.801131,1.341997,-16.850771,-6.954675,-21.669361,0.559280,1.439325,-3.606754,-0.964111,0.396240,0.363525,0.196876,-0.091606,0.011747,0.999808,0.002796,0.007196,-0.018033,0.427853,0.243055,0.630842,-0.599920
32460,NaN,17.495975,-7.872376,-4.715093,-16.835552,-0.290523,-20.144828,-0.036596,0.831093,-3.538509,-0.984863,0.372803,0.353027,0.173333,-0.081809,-0.047859,0.999835,-0.000183,0.004155,-0.017692,0.414573,0.234252,0.636935,-0.606275
32461,NaN,15.274786,-7.998942,-4.987594,-16.116382,0.526923,-17.695048,-0.451248,1.073604,-3.206375,-1.002686,0.330078,0.347168,0.151168,-0.082535,-0.050506,0.999855,-0.002256,0.005368,-0.016031,0.401128,0.226101,0.643950,-0.610985
32462,NaN,14.760176,-11.697134,-8.497053,-19.753196,3.563307,-14.708214,-0.445577,0.844201,-2.947644,-1.023193,0.304199,0.341064,0.145495,-0.119316,-0.085324,0.999880,-0.002228,0.004221,-0.014738,0.389841,0.218252,0.650268,-0.614443
32463,NaN,18.071124,-17.054663,-8.008577,-25.817166,1.801324,-13.242492,0.323841,0.586878,-2.260333,-1.033203,0.282959,0.337158,0.178533,-0.172442,-0.080890,0.999931,0.001619,0.002934,-0.011301,0.379773,0.212973,0.652742,-0.619954
32464,NaN,8.897916,-10.220539,-5.657450,-14.489422,2.362124,-10.144260,0.682747,-0.503231,-2.341320,-1.043213,0.259277,0.341553,0.087919,-0.103045,-0.056703,0.999922,0.003414,-0.002516,-0.011706,0.373381,0.205034,0.652121,-0.627124
32465,NaN,5.124958,-6.038712,-6.127515,-9.096992,4.182614,-9.978630,1.692143,-0.856113,-1.893440,-1.049561,0.252930,0.345947,0.050941,-0.060350,-0.061567,0.999910,0.008460,-0.004280,-0.009467,0.367570,0.198806,0.647145,-0.637629
32466,NaN,7.242761,-9.070895,-2.610795,-11.877116,0.115857,-9.125091,2.688177,-1.061159,-1.189336,-1.049561,0.255127,0.356689,0.072029,-0.090780,-0.026945,0.999878,0.013440,-0.005306,-0.005946,0.364474,0.196473,0.637738,-0.649498
32467,NaN,5.300083,-10.289205,-1.722362,-11.297906,-0.154707,-6.771302,3.815175,-1.443883,-0.408027,-1.049805,0.263672,0.360840,0.052923,-0.102651,-0.018801,0.999790,0.019075,-0.007219,-0.002040,0.363060,0.196779,0.623114,-0.664225
32468,NaN,5.227264,-11.297599,-1.802204,-12.030825,0.253196,-6.153774,4.420679,-1.573543,0.229934,-1.043945,0.276367,0.364990,0.052555,-0.112487,-0.020099,0.999724,0.022101,-0.007867,0.001150,0.364254,0.200222,0.605189,-0.678953
32469,NaN,4.367737,-13.739906,-0.679980,-13.149059,-0.138966,-3.864802,4.719094,-1.503684,0.872276,-1.042969,0.308594,0.364502,0.044341,-0.137000,-0.009704,0.999684,0.023593,-0.007518,0.004361,0.366073,0.205572,0.585544,-0.693447
32470,NaN,3.391575,-27.382764,-7.674760,-23.913120,8.197425,3.642342,4.352091,-1.915027,1.625411,-1.022705,0.344971,0.379150,0.036901,-0.271785,-0.082333,0.999684,0.021758,-0.009574,0.008126,0.372702,0.211575,0.565106,-0.704971
32471,NaN,15.162268,-41.744565,-20.859803,-44.330578,18.740045,-0.271521,0.302097,-2.076062,2.588679,-1.014648,0.359863,0.402344,0.159164,-0.415104,-0.207600,0.999861,0.001510,-0.010380,0.012943,0.386497,0.211229,0.557732,-0.703518
32472,NaN,7.415043,-12.958316,19.011961,-11.708554,-19.577973,-1.819998,-4.221604,-0.535146,0.230293,-1.014404,0.351318,0.419678,0.073783,-0.125444,0.192995,0.999773,-0.021106,-0.002676,0.001151,0.393145,0.201767,0.571187,-0.691717
32473,NaN,-11.511777,-9.436111,8.927180,1.211147,-4.555883,6.891511,-1.414614,-0.446648,1.810899,-1.010498,0.364014,0.430176,-0.114461,-0.094766,0.089685,0.999932,-0.007073,-0.002233,0.009054,0.401129,0.201580,0.573857,-0.684944
32474,NaN,1.959367,-16.654453,2.768982,-13.610375,-3.429070,-0.232152,-5.679661,0.503840,2.314200,-1.014648,0.353271,0.460449,0.021590,-0.165428,0.032346,0.999527,-0.028394,0.002519,0.011569,0.413116,0.198443,0.591723,-0.663189
32475,NaN,20.065289,45.881754,-65.535241,6.403493,59.232307,-66.814071,-8.563002,-0.838772,-0.670573,-1.017578,0.312500,0.471680,0.204925,0.429558,-0.673312,0.999069,-0.042802,-0.004193,-0.003352,0.420450,0.174912,0.618969,-0.639926
32476,NaN,134.617299,58.188061,56.820366,-15.370361,-88.051162,-139.207514,3.818828,3.218686,6.284131,-0.992920,0.408936,0.455322,1.336267,0.613255,0.558154,0.999195,0.019089,0.016089,0.031412,0.426891,0.212517,0.607536,-0.635217
32477,NaN,-49.046551,-46.470466,38.666157,-0.129551,-28.385345,62.672092,-5.226132,-1.685750,1.493698,-0.985596,0.381104,0.490234,-0.490331,-0.458125,0.394557,0.999595,-0.026127,-0.008428,0.007467,0.442112,0.200442,0.618715,-0.617698
32478,NaN,4.568863,-22.364242,-21.756734,-27.117028,14.971641,-3.923518,-3.299906,-2.970879,2.710358,-0.960205,0.393799,0.522217,0.051933,-0.226508,-0.213105,0.999662,-0.016498,-0.014853,0.013550,0.462805,0.192271,0.619425,-0.604281
32479,NaN,12.021222,4.484197,-8.909030,-5.219033,5.233901,-23.572620,2.102233,-0.790996,2.285283,-0.952637,0.426025,0.510986,0.120032,0.047144,-0.088128,0.999872,0.010511,-0.003955,0.011426,0.470050,0.201777,0.608977,-0.606207
32480,NaN,-0.694639,-11.326670,10.361108,-5.502839,-11.495772,-1.228169,-0.425809,-0.805910,1.256046,-0.940186,0.432129,0.541016,-0.006654,-0.113088,0.103825,0.999970,-0.002129,-0.004030,0.006280,0.476703,0.202133,0.607099,-0.602766
32481,NaN,21.899060,1.466935,-13.859624,-13.584011,5.659111,-31.195864,-1.981885,-1.963815,1.296770,-0.925293,0.436523,0.553955,0.220243,0.014735,-0.136584,0.999882,-0.009909,-0.009819,0.006484,0.488484,0.195380,0.607017,-0.595601
32482,NaN,4.074273,3.212217,4.718173,2.549776,-5.025581,-13.986508,0.504418,-0.308136,1.635736,-0.919434,0.451416,0.557861,0.040406,0.032334,0.047326,0.999962,0.002522,-0.001541,0.008179,0.493756,0.200633,0.603153,-0.593429
32483,NaN,6.446951,-10.297203,2.021627,-10.525152,-6.388954,-9.532723,-1.637743,-0.768101,1.397963,-0.909180,0.464355,0.574951,0.065106,-0.102347,0.021305,0.999935,-0.008189,-0.003840,0.006990,0.501794,0.198486,0.604688,-0.585798
32484,NaN,15.290461,-13.883721,-10.712855,-21.874233,0.992612,-17.676829,-0.422802,-1.318900,0.436649,-0.897949,0.455566,0.588135,0.153908,-0.138727,-0.105822,0.999974,-0.002114,-0.006594,0.002183,0.507445,0.194858,0.602179,-0.584731
32485,NaN,9.428155,-6.110410,-7.684650,-11.866091,2.038916,-16.162424,0.267693,-0.923387,-0.417773,-0.895996,0.455566,0.590088,0.094507,-0.061199,-0.076492,0.999986,0.001338,-0.004617,-0.002089,0.508680,0.191534,0.599474,-0.587529
32486,NaN,8.636453,-0.386303,-3.974984,-5.372596,0.273183,-17.661143,0.717290,-0.731024,-0.213117,-0.900391,0.457764,0.594482,0.086505,-0.003813,-0.039448,0.999986,0.003586,-0.003655,-0.001066,0.509528,0.190551,0.595715,-0.590927
32487,NaN,12.068738,-1.636624,-3.794002,-7.729761,-1.518641,-19.846219,0.380765,-0.433122,-0.176524,-0.891846,0.459961,0.594482,0.120755,-0.016401,-0.037710,0.999995,0.001904,-0.002166,-0.000883,0.509869,0.189660,0.593689,-0.592956
32488,NaN,11.063287,-2.137925,-3.828168,-7.752534,-1.255928,-18.753755,0.137118,-0.217966,-0.267006,-0.891602,0.457764,0.598633,0.110646,-0.021501,-0.038176,0.999998,0.000686,-0.001090,-0.001335,0.509571,0.188551,0.592990,-0.594264
32489,NaN,10.452230,-2.014014,-3.647690,-7.343997,-1.172428,-18.256745,0.264810,-0.086512,-0.219597,-0.891602,0.457764,0.594482,0.104516,-0.020207,-0.036458,0.999998,0.001324,-0.000433,-0.001098,0.508849,0.188253,0.592230,-0.595732
32490,NaN,10.342846,-2.577875,-3.081927,-7.561316,-1.760585,-17.740171,0.464147,-0.029424,-0.206218,-0.893799,0.459961,0.592285,0.103406,-0.025814,-0.030864,0.999997,0.002321,-0.000147,-0.001031,0.507861,0.188716,0.590976,-0.597671
32491,NaN,10.192408,-2.214685,-2.849517,-7.119907,-1.828965,-17.741846,0.512310,-0.088169,-0.225682,-0.893799,0.457764,0.585938,0.101912,-0.022189,-0.028507,0.999996,0.002562,-0.000441,-0.001128,0.506872,0.189010,0.589478,-0.599893
32492,NaN,9.882089,-1.441482,-2.928046,-6.382875,-1.481043,-17.898009,0.658071,-0.174736,-0.248488,-0.889893,0.466309,0.592285,0.098829,-0.014441,-0.029242,0.999993,0.003290,-0.000874,-0.001242,0.505993,0.189402,0.587304,-0.602638
32493,NaN,9.870486,-0.977691,-2.510950,-5.841338,-1.770754,-18.024290,0.801539,-0.244273,-0.214966,-0.894043,0.466309,0.590088,0.098725,-0.009783,-0.025028,0.999991,0.004008,-0.001221,-0.001075,0.505195,0.189974,0.584518,-0.605827
32494,NaN,10.537824,-0.579685,-1.691188,-5.488205,-2.712543,-18.574169,0.874042,-0.291161,-0.154618,-0.889893,0.466309,0.583740,0.105398,-0.005805,-0.016784,0.999989,0.004370,-0.001456,-0.000773,0.504719,0.190827,0.581287,-0.609057
32495,NaN,10.556035,0.054494,-2.433688,-5.220372,-1.961471,-19.100095,0.664532,-0.304958,-0.064155,-0.890137,0.472656,0.583496,0.105597,0.000592,-0.024174,0.999993,0.003323,-0.001525,-0.000321,0.504653,0.191292,0.578597,-0.611521
32496,NaN,9.967474,-1.659553,-3.790786,-6.868029,-0.835409,-18.095616,0.767783,-0.295230,-0.031853,-0.883545,0.472656,0.583496,0.099728,-0.016466,-0.037824,0.999992,0.003839,-0.001476,-0.000159,0.504647,0.192215,0.575542,-0.614114
32497,NaN,9.845442,-2.405390,-3.291093,-7.251583,-1.377418,-17.498199,1.013114,-0.365789,-0.039399,-0.879639,0.483398,0.585449,0.098510,-0.023907,-0.032852,0.999985,0.005066,-0.001829,-0.000197,0.504465,0.193425,0.571587,-0.617568
32498,NaN,10.068961,-0.645651,-2.959632,-5.719768,-1.502482,-18.506758,1.033362,-0.440745,-0.018964,-0.879883,0.489990,0.579102,0.100754,-0.006314,-0.029407,0.999984,0.005167,-0.002204,-0.000095,0.504635,0.194595,0.567306,-0.621000
32499,NaN,10.298138,0.324389,-3.278297,-5.065070,-1.199154,-19.289547,1.022786,-0.429948,0.051735,-0.875732,0.491943,0.574707,0.103051,0.003437,-0.032544,0.999985,0.005114,-0.002150,0.000259,0.504863,0.195862,0.563041,-0.624289
32500,NaN,10.935752,-0.783357,-2.759542,-6.065918,-2.125254,-19.113608,1.056029,-0.412581,0.013990,-0.873779,0.502686,0.574707,0.109415,-0.007681,-0.027411,0.999984,0.005280,-0.002063,0.000070,0.505002,0.197259,0.558692,-0.627635
32501,NaN,9.859995,-1.009551,-2.512671,-5.702829,-1.966013,-18.068863,1.075927,-0.469606,0.191141,-0.876465,0.513428,0.572266,0.098668,-0.009867,-0.024949,0.999982,0.005380,-0.002348,0.000956,0.505679,0.198898,0.553986,-0.630735
32502,NaN,8.695445,-0.753306,-1.934056,-4.783696,-2.003550,-17.094208,1.052416,-0.578932,0.240457,-0.861572,0.519775,0.574463,0.087019,-0.007327,-0.019128,0.999981,0.005262,-0.002895,0.001202,0.506961,0.200378,0.548966,-0.633621
32503,NaN,8.195242,-0.472729,-1.081819,-4.041321,-2.566793,-16.568039,0.944743,-0.650061,0.332494,-0.857178,0.521973,0.574463,0.081995,-0.004541,-0.010573,0.999982,0.004724,-0.003250,0.001662,0.508663,0.201476,0.544035,-0.636157
32504,NaN,8.080765,-0.333447,-0.602480,-3.685543,-2.976759,-16.395104,0.748100,-0.683929,0.480913,-0.851318,0.534912,0.580566,0.080835,-0.003118,-0.005760,0.999984,0.003740,-0.003420,0.002405,0.511267,0.202491,0.539435,-0.637662
32505,NaN,8.031509,0.628468,-0.959816,-2.879268,-2.581117,-16.944900,0.385777,-0.679527,0.673928,-0.843018,0.543457,0.582764,0.080325,0.006573,-0.009313,0.999987,0.001929,-0.003398,0.003370,0.514655,0.202972,0.535818,-0.637834
32506,NaN,9.228760,0.518518,-1.713322,-3.583144,-2.493742,-18.138296,0.178289,-0.669613,0.873619,-0.830322,0.547607,0.584961,0.092320,0.005603,-0.016819,0.999984,0.000891,-0.003348,0.004368,0.519021,0.203616,0.532643,-0.636748
32507,NaN,9.887197,-1.127903,-1.814909,-5.219002,-2.924280,-17.969409,0.038610,-0.648692,1.007013,-0.821777,0.553955,0.593262,0.098985,-0.010777,-0.017830,0.999982,0.000193,-0.003243,0.005035,0.523696,0.204171,0.529830,-0.635088
32508,NaN,9.658140,-1.658048,-2.492004,-5.703312,-2.338818,-17.827650,-0.068306,-0.678560,1.115917,-0.813721,0.566895,0.597412,0.096756,-0.016049,-0.024586,0.999979,-0.000342,-0.003393,0.005580,0.529071,0.204772,0.527132,-0.632680
32509,NaN,9.924228,-1.968294,-3.051159,-6.140061,-2.069288,-18.160740,-0.005740,-0.743224,1.180586,-0.801270,0.575439,0.605957,0.099469,-0.019097,-0.030142,0.999976,-0.000029,-0.003716,0.005903,0.534527,0.205340,0.523986,-0.630520
32510,NaN,10.258564,-1.782075,-2.863350,-5.915586,-2.440937,-18.510859,0.091162,-0.830066,1.248046,-0.786377,0.581787,0.614502,0.102812,-0.017167,-0.028215,0.999972,0.000456,-0.004150,0.006240,0.540503,0.206214,0.520197,-0.628274
32511,NaN,11.053150,-0.978285,-2.203530,-5.126380,-3.368680,-19.318166,0.138578,-0.893792,1.349068,-0.780273,0.590332,0.616699,0.110691,-0.009022,-0.021547,0.999967,0.000693,-0.004469,0.006745,0.546655,0.207093,0.515965,-0.626148
32512,NaN,11.751231,-0.988430,-1.783591,-5.059372,-4.149197,-19.784287,0.127629,-0.946228,1.498009,-0.755127,0.609619,0.620850,0.117665,-0.008992,-0.017285,0.999961,0.000638,-0.004731,0.007490,0.553607,0.208319,0.511420,-0.623355
32513,NaN,12.273897,-0.714254,-1.831049,-4.792830,-4.414263,-20.398037,0.085457,-1.046806,1.645064,-0.740479,0.620117,0.637695,0.122886,-0.006125,-0.017670,0.999952,0.000427,-0.005234,0.008225,0.561022,0.209284,0.506530,-0.620389
32514,NaN,12.872524,-0.904030,-2.173059,-5.008011,-4.541718,-21.016581,0.152719,-1.172998,1.820454,-0.721436,0.633057,0.642090,0.128925,-0.007851,-0.020981,0.999941,0.000764,-0.005865,0.009102,0.569422,0.210656,0.500844,-0.616877
32515,NaN,13.656280,-1.228519,-2.246572,-5.270178,-5.040475,-21.638921,0.348880,-1.327973,1.987912,-0.700684,0.650146,0.644043,0.136821,-0.010888,-0.021578,0.999927,0.001744,-0.006640,0.009939,0.578171,0.212293,0.493846,-0.613813
32516,NaN,14.362200,-1.025149,-2.070268,-4.875050,-5.655244,-22.296644,0.597930,-1.488260,2.177728,-0.677490,0.665039,0.654541,0.143871,-0.008626,-0.019660,0.999909,0.002990,-0.007441,0.010888,0.587817,0.214796,0.485366,-0.610536
32517,NaN,15.209145,-0.330413,-2.225816,-4.094692,-6.010204,-23.358002,0.805139,-1.669582,2.323751,-0.646240,0.692871,0.658691,0.152294,-0.001449,-0.020996,0.999890,0.004026,-0.008348,0.011618,0.597706,0.217434,0.475411,-0.607828
32518,NaN,17.469493,0.150247,-1.942116,-3.520006,-7.530905,-25.299636,1.124714,-1.810227,2.573660,-0.616943,0.714111,0.662842,0.174822,0.003855,-0.017822,0.999860,0.005623,-0.009051,0.012868,0.608500,0.221365,0.463733,-0.604712
32519,NaN,20.912205,1.793063,-1.323511,-1.750808,-9.816246,-28.328016,1.434826,-1.857006,2.838918,-0.587646,0.739990,0.662598,0.208949,0.020982,-0.011151,0.999830,0.007174,-0.009285,0.014194,0.619344,0.226386,0.450430,-0.601893
32520,NaN,24.348451,2.836822,-0.144626,-0.084994,-12.687095,-30.785942,1.939235,-1.762382,3.118955,-0.549805,0.767578,0.657959,0.243001,0.032159,0.000996,0.999793,0.009696,-0.008811,0.015594,0.630352,0.234049,0.435527,-0.598493
32521,NaN,27.876831,3.167273,1.706311,1.293039,-16.341081,-32.643901,2.613284,-1.785997,3.304303,-0.505859,0.802002,0.640625,0.278027,0.036022,0.020000,0.999738,0.013065,-0.008929,0.016520,0.640516,0.243763,0.417874,-0.596405
32522,NaN,27.156370,3.843732,2.118044,3.092362,-16.427637,-31.657535,3.111335,-2.010225,3.421459,-0.463867,0.833984,0.625244,0.270622,0.042708,0.024546,0.999682,0.015555,-0.010050,0.017105,0.650899,0.254789,0.397873,-0.594231
32523,NaN,23.621204,3.847025,1.184355,3.867335,-14.017284,-28.855682,3.588508,-2.371691,3.283838,-0.423828,0.864014,0.601562,0.235372,0.042085,0.015372,0.999634,0.017940,-0.011857,0.016417,0.660129,0.265485,0.374716,-0.594421
32524,NaN,21.750087,2.946722,0.051143,3.589137,-12.522423,-27.475539,3.679916,-2.651929,3.304355,-0.377686,0.898193,0.583984,0.216938,0.033003,0.003976,0.999606,0.018397,-0.013258,0.016520,0.669749,0.275821,0.350511,-0.593718
32525,NaN,20.628287,0.528285,0.280796,1.924231,-12.759093,-25.916111,3.477545,-2.641247,3.419425,-0.333740,0.930420,0.566650,0.206091,0.008726,0.005663,0.999615,0.017385,-0.013205,0.017095,0.679020,0.285058,0.325846,-0.592873
32526,NaN,17.659171,-2.544665,2.303026,-0.504203,-13.168681,-22.057010,3.434289,-2.450534,3.468282,-0.285156,0.958252,0.540771,0.176706,-0.022798,0.024788,0.999627,0.017169,-0.012251,0.017339,0.688122,0.294985,0.302301,-0.589988
32527,NaN,16.328840,-3.143442,4.464579,-0.659734,-14.266184,-19.428486,3.273128,-2.489877,3.420496,-0.244873,0.977539,0.519287,0.163234,-0.029390,0.046186,0.999642,0.016364,-0.012448,0.017100,0.696429,0.303400,0.278100,-0.587874
32528,NaN,16.568420,-0.716766,4.478214,2.172341,-14.314706,-19.055157,3.201118,-2.616118,3.231007,-0.198242,1.000977,0.487061,0.165175,-0.005235,0.046851,0.999656,0.016004,-0.013079,0.016153,0.704445,0.311234,0.254604,-0.584865
32529,NaN,15.154488,1.195950,1.503540,4.163058,-11.181840,-19.349616,3.570645,-2.455405,3.333650,-0.149170,1.018066,0.450684,0.151119,0.014188,0.017133,0.999626,0.017851,-0.012275,0.016666,0.711007,0.320047,0.229203,-0.582670
32530,NaN,13.064184,1.000532,-0.614597,4.066752,-8.409041,-19.019866,5.294781,-1.712418,3.743059,-0.104980,1.050293,0.394775,0.130467,0.012586,-0.004718,0.999438,0.026469,-0.008560,0.018712,0.714979,0.337980,0.201594,-0.577870
32531,NaN,7.285735,-4.181321,-1.447862,-1.895938,-4.443873,-16.834718,5.436437,-1.868034,3.037938,-0.075195,1.065430,0.343262,0.073615,-0.040297,-0.014903,0.999472,0.027177,-0.009339,0.015187,0.715622,0.354072,0.172755,-0.576779
32532,NaN,8.871856,-4.099648,-5.276054,-0.385424,-2.933835,-20.516937,4.629301,-2.685120,1.679289,-0.050049,1.084717,0.298096,0.089758,-0.039029,-0.052479,0.999607,0.023143,-0.013424,0.008395,0.714286,0.364196,0.146778,-0.579322
32533,NaN,11.167031,-2.066099,-3.334787,2.042763,-5.993370,-19.812280,3.608700,-2.123154,0.901745,-0.037109,1.091309,0.268066,0.112108,-0.019564,-0.032519,0.999771,0.018042,-0.010615,0.004508,0.711284,0.370610,0.125804,-0.583863
32534,NaN,6.608824,-2.738137,1.518984,-1.050026,-6.023329,-13.824895,2.527685,-1.809839,-0.013377,-0.039307,1.093506,0.250732,0.065947,-0.027580,0.015439,0.999879,0.012638,-0.009049,-0.000067,0.707592,0.374258,0.112017,-0.588810
32535,NaN,4.242988,-3.480733,4.037032,-3.222762,-5.903824,-10.895646,1.544625,-1.882001,-0.958688,-0.047852,1.093506,0.233643,0.041881,-0.035321,0.040495,0.999914,0.007723,-0.009410,-0.004793,0.702407,0.372661,0.101244,-0.597912
32536,NaN,4.800089,-2.632091,4.200228,-2.495471,-6.368199,-10.721906,1.343248,-1.751652,-1.514722,-0.065186,1.095703,0.227051,0.047429,-0.026965,0.042240,0.999910,0.006716,-0.008758,-0.007573,0.696176,0.371337,0.093909,-0.607148
32537,NaN,2.319287,3.988760,5.368904,2.414794,-5.261660,-5.738830,1.253698,-1.627037,-2.224801,-0.093018,1.095703,0.218262,0.023193,0.039291,0.054125,0.999885,0.006268,-0.008135,-0.011124,0.687256,0.368675,0.087135,-0.619811
32538,NaN,2.692536,4.864602,4.844086,3.344287,-5.338941,-5.980094,0.942121,-1.478569,-2.581817,-0.123047,1.093750,0.209717,0.027188,0.048067,0.048869,0.999878,0.004710,-0.007393,-0.012909,0.678054,0.366157,0.083902,-0.631769
32539,NaN,4.327083,3.459812,4.678399,2.269191,-6.518406,-7.589897,0.327231,-1.158612,-2.544055,-0.146729,1.093750,0.211670,0.043433,0.033969,0.047091,0.999901,0.001636,-0.005793,-0.012720,0.669250,0.361514,0.082067,-0.643954
32540,NaN,3.641010,0.904089,4.200815,-0.152844,-5.481495,-8.528300,0.329360,-0.840884,-3.014914,-0.185303,1.087402,0.209473,0.036363,0.008423,0.042175,0.999876,0.001647,-0.004204,-0.015074,0.659185,0.358623,0.083651,-0.655642
32541,NaN,4.793628,0.005332,4.852883,-1.246657,-6.662394,-9.047737,0.138850,-0.571586,-3.447465,-0.223877,1.081055,0.215820,0.047788,-0.000805,0.048665,0.999847,0.000694,-0.002858,-0.017236,0.647108,0.354739,0.085850,-0.669359
32542,NaN,3.750658,-3.043871,5.123797,-4.426637,-5.450874,-9.287727,0.343506,-0.322366,-3.537659,-0.270996,1.078857,0.211182,0.036877,-0.031183,0.051245,0.999841,0.001717,-0.001612,-0.017687,0.634668,0.353193,0.089936,-0.681442
32543,NaN,3.207972,-5.665412,4.963976,-6.991239,-4.259325,-9.874091,0.581567,-0.214296,-3.727109,-0.317627,1.059814,0.204834,0.030962,-0.057382,0.049507,0.999822,0.002908,-0.001071,-0.018634,0.620182,0.351606,0.092122,-0.695170
32544,NaN,4.086117,-4.368263,4.227378,-5.654392,-4.605198,-10.492681,0.809249,-0.326398,-4.053670,-0.364990,1.055664,0.198242,0.039894,-0.044669,0.042160,0.999785,0.004046,-0.001632,-0.020267,0.604659,0.351034,0.095421,-0.708560
32545,NaN,4.330352,-1.746318,3.670382,-3.230267,-4.963312,-10.259425,0.819154,-0.291805,-4.356383,-0.415771,1.034180,0.200439,0.042854,-0.018550,0.036692,0.999753,0.004095,-0.001459,-0.021780,0.586960,0.349359,0.097498,-0.723823
32546,NaN,4.842988,-0.974543,3.767526,-2.801588,-5.521623,-10.318845,0.581993,-0.110733,-4.560148,-0.473145,1.015137,0.194092,0.048168,-0.010955,0.037671,0.999736,0.002910,-0.000554,-0.022799,0.569311,0.348346,0.103023,-0.737513
32547,NaN,4.787455,-1.087157,3.904567,-3.183329,-5.389161,-10.220127,0.169122,0.083714,-4.684134,-0.525879,0.985107,0.196289,0.047618,-0.012022,0.039016,0.999725,0.000846,0.000419,-0.023419,0.550642,0.345718,0.108921,-0.751937
32548,NaN,4.971403,-2.041383,3.717714,-4.199536,-4.927560,-10.696334,0.032119,0.239916,-4.902822,-0.578613,0.955322,0.194336,0.049238,-0.021631,0.037114,0.999699,0.000161,0.001199,-0.024512,0.531828,0.343929,0.117919,-0.764832
32549,NaN,4.967105,-2.344106,3.200350,-4.480083,-4.318998,-11.107881,0.175940,0.398239,-5.179094,-0.633545,0.923340,0.183838,0.049105,-0.024746,0.031884,0.999662,0.000880,0.001991,-0.025893,0.510316,0.341897,0.125241,-0.779101
32550,NaN,4.835089,-2.540672,2.003109,-4.328911,-3.267506,-11.915563,0.452630,0.489187,-5.345478,-0.696533,0.882812,0.177734,0.047697,-0.026733,0.019854,0.999637,0.002263,0.002446,-0.026724,0.488198,0.341480,0.133834,-0.791924
32551,NaN,4.344054,-2.670255,1.758119,-4.378164,-2.489714,-11.740971,0.659700,0.557360,-5.430262,-0.748779,0.837891,0.165283,0.042742,-0.027927,0.017371,0.999622,0.003298,0.002786,-0.027148,0.463952,0.340750,0.139816,-0.805661
32552,NaN,4.740095,-3.592458,0.919203,-5.079871,-1.535502,-12.649404,0.721284,0.490171,-5.533399,-0.796631,0.790771,0.156982,0.046405,-0.037250,0.008945,0.999608,0.003606,0.002451,-0.027663,0.439877,0.340388,0.147435,-0.817867
32553,NaN,5.324932,-5.131005,0.091067,-6.328347,-0.220903,-13.630954,0.885044,0.461292,-5.551272,-0.846191,0.733154,0.140625,0.051800,-0.052764,0.000559,0.999602,0.004425,0.002306,-0.027753,0.414043,0.339285,0.152216,-0.830834
32554,NaN,5.924389,-6.725686,-0.193696,-7.790173,0.985424,-14.135996,1.083831,0.448415,-5.620145,-0.891602,0.677490,0.130371,0.057318,-0.068873,-0.002437,0.999588,0.005418,0.002242,-0.028097,0.388313,0.338966,0.158129,-0.842205
32555,NaN,6.252158,-8.130337,-0.709684,-8.784306,2.510917,-14.524265,1.244462,0.406293,-5.523936,-0.921875,0.621826,0.118164,0.060230,-0.082941,-0.007733,0.999597,0.006221,0.002031,-0.027616,0.361331,0.337935,0.161023,-0.853997
32556,NaN,7.294765,-9.307084,-0.805333,-10.079649,3.403206,-15.034475,1.336030,0.340099,-5.431355,-0.954102,0.559814,0.104004,0.070371,-0.094948,-0.008805,0.999608,0.006679,0.001700,-0.027153,0.335433,0.337287,0.165063,-0.863989
32557,NaN,8.662024,-10.051509,-0.900746,-11.218913,3.990483,-15.732545,1.297931,0.293518,-5.271819,-0.977783,0.501953,0.089844,0.083918,-0.102689,-0.009794,0.999630,0.006489,0.001467,-0.026356,0.308983,0.335622,0.166953,-0.874079
32558,NaN,10.677386,-11.413810,-0.859446,-13.212778,4.833705,-16.669871,1.363374,0.303511,-5.197176,-1.003662,0.442139,0.086182,0.103748,-0.116798,-0.009544,0.999638,0.006816,0.001517,-0.025983,0.283582,0.334586,0.170141,-0.882432
32559,NaN,11.794626,-13.141815,-1.225747,-14.626615,6.736212,-17.157085,1.366122,0.238606,-5.042485,-1.016846,0.386475,0.072021,0.114570,-0.134247,-0.013306,0.999658,0.006830,0.001193,-0.025210,0.257665,0.332512,0.171181,-0.890922
32560,NaN,12.948726,-14.342455,-1.779192,-15.574110,8.379906,-17.793488,1.366191,0.128854,-4.762341,-1.036133,0.326416,0.068604,0.126014,-0.146326,-0.018867,0.999693,0.006830,0.000644,-0.023809,0.233953,0.330658,0.173142,-0.897749
32561,NaN,14.171905,-16.075778,-3.226333,-16.301473,10.941203,-18.986648,1.348097,-0.006419,-4.390406,-1.042969,0.274902,0.058594,0.138149,-0.163594,-0.033355,0.999736,0.006740,-0.000032,-0.021950,0.210960,0.327573,0.172915,-0.904595
32562,NaN,15.306596,-18.238056,-3.912495,-17.471555,13.554391,-19.465667,1.476326,-0.137333,-3.858028,-1.047852,0.229980,0.057129,0.149541,-0.184993,-0.040381,0.999786,0.007381,-0.000687,-0.019289,0.191127,0.325093,0.172391,-0.909981
32563,NaN,14.997722,-17.977059,-7.206370,-15.027734,15.516641,-21.362239,1.582348,-0.549841,-3.521196,-1.044189,0.189209,0.057617,0.146988,-0.181801,-0.073090,0.999810,0.007911,-0.002749,-0.017605,0.172128,0.320115,0.169368,-0.916086
32564,NaN,17.245409,-21.687169,-10.141347,-16.357614,20.078199,-23.949436,1.423456,-0.760658,-2.640066,-1.039062,0.159180,0.064453,0.169966,-0.218400,-0.102315,0.999880,0.007117,-0.003803,-0.013200,0.158339,0.315571,0.166415,-0.920679
32565,NaN,12.026223,-19.520417,-6.903450,-12.961451,18.197211,-18.425140,1.306536,-0.994463,-2.632036,-1.035889,0.133545,0.071289,0.118029,-0.196313,-0.069724,0.999880,0.006532,-0.004972,-0.013160,0.144376,0.308733,0.163291,-0.925838
32566,NaN,9.984532,-21.454384,-7.892652,-11.281677,20.923718,-17.374984,1.374607,-0.979933,-1.556692,-1.024658,0.116211,0.080322,0.098564,-0.214767,-0.079917,0.999934,0.006873,-0.004900,-0.007783,0.135796,0.303888,0.158629,-0.929542
32567,NaN,11.834829,-28.613912,-8.080896,-14.938873,27.355935,-17.065382,0.569985,-0.859403,-0.625053,-1.017822,0.107666,0.089111,0.117802,-0.286277,-0.081118,0.999982,0.002850,-0.004297,-0.003125,0.132405,0.298557,0.156456,-0.932124
32568,NaN,12.016460,-41.294922,-3.946449,-21.580706,37.382063,-11.258201,-0.213114,-0.728667,0.366511,-1.011719,0.116211,0.095459,0.121063,-0.412769,-0.038585,0.999991,-0.001066,-0.003643,0.001833,0.134957,0.295294,0.156435,-0.932800
32569,NaN,10.316441,-34.330770,-8.050117,-16.004948,32.685518,-14.845617,0.139995,-1.022886,0.302604,-1.011719,0.118408,0.099609,0.104094,-0.343094,-0.080211,0.999986,0.000700,-0.005114,0.001513,0.137149,0.289386,0.155696,-0.934454
32570,NaN,38.045027,-16.069162,14.245631,-42.878035,2.595130,-17.762849,-0.287312,0.542777,2.643580,-1.006592,0.152588,0.096924,0.382913,-0.155437,0.141645,0.999908,-0.001437,0.002714,0.013217,0.149436,0.293747,0.153588,-0.931554
32571,NaN,41.438551,14.728542,24.964432,-38.916729,-31.223190,-18.036851,-2.316009,0.412288,2.707899,-1.000732,0.174072,0.096680,0.412826,0.155753,0.247021,0.999839,-0.011579,0.002061,0.013539,0.165516,0.294204,0.162347,-0.927196
32572,NaN,10.208525,-1.790126,8.060867,-12.522858,-3.909698,-9.282743,-1.379119,-1.070747,1.487443,-0.988525,0.187012,0.113770,0.101778,-0.016585,0.081272,0.999934,-0.006895,-0.005354,0.007437,0.175253,0.289277,0.165674,-0.926368
32573,NaN,-5.754988,-1.378504,-7.081564,7.165342,5.509563,-11.674968,-0.523225,-1.010236,2.143296,-0.984863,0.206055,0.119873,-0.057038,-0.014584,-0.071067,0.999926,-0.002616,-0.005051,0.010716,0.186867,0.283903,0.165388,-0.925811
32574,NaN,10.112482,6.642885,-10.497430,0.108652,-4.064258,-25.306334,-1.242056,-0.317072,2.563912,-0.985596,0.229736,0.125977,0.100434,0.067066,-0.105230,0.999897,-0.006210,-0.001585,0.012819,0.200695,0.283356,0.167203,-0.922754
32575,NaN,8.468435,-2.866620,-1.026877,-7.293949,0.501955,-15.059647,-0.553769,0.355894,1.859153,-0.977539,0.246826,0.121338,0.084928,-0.027906,-0.010342,0.999951,-0.002769,0.001779,0.009296,0.209853,0.284092,0.168780,-0.920199
32576,NaN,7.464325,-7.344960,1.888048,-10.030268,3.180752,-11.393934,-1.129763,-0.036004,2.173055,-0.963379,0.268311,0.123291,0.075431,-0.072525,0.019305,0.999925,-0.005649,-0.000180,0.010865,0.221423,0.284544,0.170861,-0.916959
32577,NaN,12.055917,-8.668086,-0.832097,-12.968440,3.814225,-16.012563,-0.391160,-0.402246,1.728628,-0.959473,0.276855,0.134033,0.121319,-0.085650,-0.007909,0.999959,-0.001956,-0.002011,0.008643,0.230351,0.281796,0.171150,-0.915553
32578,NaN,10.194618,-6.630346,-0.672332,-10.650574,2.441926,-15.192643,0.071548,-0.742098,1.140363,-0.961914,0.289551,0.135986,0.102346,-0.065718,-0.006368,0.999977,0.000358,-0.003710,0.005702,0.236051,0.279440,0.168378,-0.915337
32579,NaN,9.009245,-3.460003,-1.921789,-7.626294,0.614579,-16.000746,0.513115,-0.942607,0.896010,-0.951416,0.298096,0.142334,0.090336,-0.034147,-0.018881,0.999976,0.002566,-0.004713,0.004480,0.240384,0.274451,0.165199,-0.916298
32580,NaN,9.251195,-4.121663,-1.112879,-8.514219,0.620132,-15.374516,0.462099,-0.830518,0.683533,-0.947510,0.302490,0.152832,0.092697,-0.040875,-0.010839,0.999983,0.002310,-0.004153,0.003418,0.243513,0.271751,0.161164,-0.916994
32581,NaN,10.100390,-2.674592,-1.892266,-8.091586,-0.643651,-16.658348,0.379791,-0.949004,0.385779,-0.943359,0.308838,0.159180,0.101144,-0.026516,-0.018493,0.999985,0.001899,-0.004745,0.001929,0.245705,0.266086,0.159310,-0.918394
32582,NaN,10.881854,-1.360517,-2.962367,-7.558936,-1.648830,-18.130399,0.308608,-0.871380,0.295460,-0.947754,0.308838,0.167725,0.108966,-0.013399,-0.029170,0.999988,0.001543,-0.004357,0.001477,0.247291,0.262687,0.156449,-0.919438
32583,NaN,10.223295,-1.379951,-2.723434,-7.249135,-1.559481,-17.484362,0.162067,-0.766194,0.217835,-0.941406,0.313232,0.172119,0.102351,-0.013666,-0.026853,0.999992,0.000810,-0.003831,0.001089,0.248838,0.257392,0.156013,-0.920592
32584,NaN,10.419404,-2.064814,-2.639846,-7.829537,-1.157898,-17.372676,0.133590,-0.660728,0.161451,-0.941650,0.319580,0.176270,0.104297,-0.020546,-0.026068,0.999994,0.000668,-0.003304,0.000807,0.249869,0.254632,0.154389,-0.921353
32585,NaN,10.747344,-2.226676,-2.925352,-8.116828,-1.080617,-17.684802,0.119000,-0.588600,0.109915,-0.943604,0.313232,0.176270,0.107571,-0.022190,-0.028950,0.999995,0.000595,-0.002943,0.000550,0.250812,0.249956,0.154476,-0.922363
32586,NaN,10.204320,-1.887407,-3.780144,-7.227416,-0.840530,-18.121579,0.144770,-0.486333,0.062536,-0.941406,0.312988,0.182861,0.102141,-0.018815,-0.037567,0.999997,0.000724,-0.002432,0.000313,0.251239,0.247933,0.153142,-0.923015
32587,NaN,9.952425,-1.469378,-4.330677,-6.669013,-0.892924,-18.455108,0.262099,-0.385612,-0.036674,-0.939453,0.317383,0.191406,0.099605,-0.014655,-0.043134,0.999997,0.001310,-0.001928,-0.000183,0.251152,0.244197,0.152981,-0.924060
32588,NaN,9.976523,-1.052810,-4.452149,-6.432550,-1.221320,-18.621301,0.359052,-0.242990,-0.029298,-0.939453,0.315186,0.189209,0.099818,-0.010463,-0.044419,0.999998,0.001795,-0.001215,-0.000146,0.250707,0.243493,0.151076,-0.924680
32589,NaN,9.673957,-0.757970,-4.233700,-6.172351,-1.453512,-18.290513,0.437093,-0.130286,-0.016689,-0.941650,0.317383,0.189209,0.096767,-0.007495,-0.042290,0.999997,0.002185,-0.000651,-0.000083,0.250286,0.241124,0.150368,-0.925530
32590,NaN,9.533711,-0.573443,-3.730998,-6.149441,-1.769361,-17.824837,0.467517,-0.042900,0.010401,-0.941650,0.321533,0.191162,0.095345,-0.005642,-0.037303,0.999997,0.002338,-0.000215,0.000052,0.249744,0.241509,0.148162,-0.925932
32591,NaN,9.533268,-0.584654,-3.103072,-6.416079,-2.020629,-17.269565,0.433228,0.023851,0.034439,-0.939453,0.317383,0.191406,0.095330,-0.005763,-0.031055,0.999998,0.002166,0.000119,0.000172,0.249422,0.239845,0.147552,-0.926548
32592,NaN,9.414087,-0.676651,-2.716087,-6.506439,-2.058868,-16.875782,0.356698,0.073120,0.068461,-0.941650,0.319580,0.180420,0.094133,-0.006686,-0.027207,0.999998,0.001783,0.000366,0.000342,0.249196,0.240670,0.145934,-0.926651
32593,NaN,9.099530,-0.781095,-2.397889,-6.461854,-1.980746,-16.406813,0.270554,0.080079,0.077919,-0.943848,0.319580,0.180420,0.090989,-0.007743,-0.024026,0.999999,0.001353,0.000400,0.000390,0.249190,0.239052,0.146038,-0.927055
32594,NaN,8.946562,-1.154053,-2.491803,-6.498636,-1.579921,-16.358942,0.252181,0.048574,0.079549,-0.939697,0.323730,0.176270,0.089464,-0.011473,-0.024954,0.999999,0.001261,0.000243,0.000398,0.249160,0.239641,0.144861,-0.927096
32595,NaN,9.115467,-1.806715,-2.517465,-6.988767,-1.101746,-16.342378,0.305032,0.007200,0.078091,-0.939697,0.328125,0.176025,0.091161,-0.017993,-0.025205,0.999999,0.001525,0.000036,0.000390,0.249131,0.237685,0.144666,-0.927637
32596,NaN,8.916520,-2.038728,-2.670701,-6.897133,-0.780535,-16.340604,0.400644,-0.087259,0.024814,-0.935547,0.328125,0.176270,0.089179,-0.020323,-0.026709,0.999998,0.002003,-0.000436,0.000124,0.248768,0.237789,0.142697,-0.928013
32597,NaN,9.420805,-1.874736,-2.842226,-7.164379,-1.064311,-16.732466,0.540485,-0.153967,-0.005004,-0.937744,0.334473,0.173828,0.094229,-0.018673,-0.028400,0.999996,0.002702,-0.000770,-0.000025,0.248175,0.235269,0.141285,-0.929030
32598,NaN,9.715515,-1.498311,-2.545684,-7.299140,-1.624339,-16.682964,0.675475,-0.211916,-0.013490,-0.942139,0.332275,0.184570,0.097181,-0.014904,-0.025404,0.999994,0.003377,-0.001060,-0.000067,0.247400,0.235103,0.137928,-0.929783
32599,NaN,9.709800,-0.670091,-2.397284,-6.952651,-2.393241,-16.625116,0.712882,-0.266260,-0.031163,-0.933594,0.334473,0.180420,0.097129,-0.006631,-0.023867,0.999993,0.003564,-0.001331,-0.000156,0.246546,0.232199,0.135567,-0.931086
32600,NaN,9.877222,-0.790007,-2.315134,-7.178369,-2.411348,-16.609732,0.712646,-0.253472,0.028722,-0.933350,0.330322,0.174072,0.098803,-0.007804,-0.023054,0.999993,0.003563,-0.001267,0.000144,0.245955,0.231907,0.131932,-0.931836
32601,NaN,9.573958,-1.008079,-2.626202,-6.981306,-2.023524,-16.649386,0.720792,-0.277862,0.073721,-0.931641,0.338867,0.178223,0.095780,-0.009951,-0.026165,0.999992,0.003604,-0.001389,0.000369,0.245559,0.228969,0.129329,-0.933032
32602,NaN,9.474992,-1.373548,-2.947306,-6.978751,-1.594374,-16.820083,0.814882,-0.364187,0.048448,-0.933838,0.343018,0.180176,0.094807,-0.013593,-0.029356,0.999990,0.004074,-0.001821,0.000242,0.245016,0.228292,0.125054,-0.933923
32603,NaN,10.220803,-0.937291,-2.616932,-7.494636,-2.420293,-16.895346,0.956842,-0.419827,0.126394,-0.931641,0.343018,0.180176,0.102269,-0.009184,-0.025999,0.999986,0.004784,-0.002099,0.000632,0.244673,0.224955,0.121063,-0.935347
32604,NaN,10.749125,-0.972262,-2.227899,-8.066865,-2.784849,-16.785672,0.994935,-0.444124,0.204150,-0.929688,0.347412,0.180176,0.107550,-0.009503,-0.022088,0.999985,0.004975,-0.002221,0.001021,0.244702,0.224208,0.115667,-0.936201
32605,NaN,10.190126,-0.594275,-2.293460,-7.452102,-2.917050,-16.551264,0.894517,-0.465802,0.290222,-0.927734,0.355957,0.180176,0.101963,-0.005693,-0.022723,0.999986,0.004473,-0.002329,0.001451,0.245199,0.220603,0.111661,-0.937413
32606,NaN,9.327443,-0.397797,-2.617704,-6.560506,-2.689144,-16.426286,0.815437,-0.477992,0.339792,-0.921387,0.358154,0.186523,0.093343,-0.003713,-0.025970,0.999987,0.004077,-0.002390,0.001699,0.246082,0.219543,0.106909,-0.937985
32607,NaN,8.682173,-0.839080,-2.928428,-6.204692,-2.013264,-16.301757,0.774772,-0.506504,0.397378,-0.921631,0.362305,0.182129,0.086912,-0.008105,-0.029096,0.999987,0.003874,-0.002533,0.001987,0.247208,0.215598,0.103230,-0.939015
32608,NaN,8.766114,-0.492591,-2.649429,-6.191387,-2.499636,-16.099569,0.745197,-0.563270,0.507968,-0.924072,0.370850,0.184082,0.087747,-0.004605,-0.026265,0.999986,0.003726,-0.002816,0.002540,0.249001,0.214128,0.098519,-0.939384
32609,NaN,9.264549,-0.412854,-2.090533,-6.768337,-3.022812,-15.764510,0.658939,-0.582149,0.640830,-0.915771,0.377441,0.190430,0.092718,-0.003763,-0.020648,0.999985,0.003295,-0.002911,0.003204,0.251413,0.209760,0.094984,-0.940091
32610,NaN,9.926316,-0.155263,-1.950420,-7.194028,-3.658269,-15.913679,0.553761,-0.595023,0.774868,-0.913818,0.383789,0.188232,0.099325,-0.001114,-0.019212,0.999984,0.002769,-0.002975,0.003874,0.254676,0.208018,0.090852,-0.940008
32611,NaN,9.782667,-0.030540,-1.630541,-7.143126,-3.891839,-15.486163,0.435604,-0.660847,0.946106,-0.903320,0.394531,0.192383,0.097880,0.000193,-0.015982,0.999981,0.002178,-0.003304,0.004730,0.258748,0.203080,0.087890,-0.940257
32612,NaN,10.599217,-0.166868,-1.028019,-8.032233,-4.420999,-15.231585,0.284965,-0.706328,1.080110,-0.899658,0.407227,0.200928,0.106034,-0.001082,-0.009908,0.999978,0.001425,-0.003532,0.005401,0.263761,0.200593,0.084573,-0.939702
32613,NaN,10.480606,-0.281202,-1.321215,-7.904589,-4.323408,-15.334583,0.141389,-0.763144,1.265120,-0.887207,0.422119,0.207031,0.104870,-0.002140,-0.012814,0.999972,0.000707,-0.003816,0.006326,0.269602,0.194855,0.082479,-0.939438
32614,NaN,11.040068,-0.418691,-1.872551,-8.199848,-4.482844,-15.995612,0.099193,-0.841886,1.435844,-0.874512,0.430664,0.211426,0.110504,-0.003385,-0.018262,0.999965,0.000496,-0.004209,0.007179,0.276506,0.191615,0.079512,-0.938353
32615,NaN,11.837548,-0.427291,-2.054513,-8.758939,-5.002831,-16.353301,0.129746,-0.926201,1.615848,-0.864258,0.445801,0.217529,0.118498,-0.003303,-0.019999,0.999956,0.000649,-0.004631,0.008079,0.283978,0.185153,0.076867,-0.937639
32616,NaN,12.467093,-0.219735,-2.213872,-9.018727,-5.666188,-16.663171,0.170780,-1.033362,1.776109,-0.860596,0.462891,0.228027,0.124796,-0.001071,-0.021495,0.999947,0.000854,-0.005167,0.008880,0.292445,0.181219,0.072986,-0.936114
32617,NaN,13.013099,-0.305190,-2.178681,-9.467252,-6.132883,-16.663382,0.208496,-1.169044,1.924369,-0.846191,0.477783,0.234375,0.130277,-0.001777,-0.021028,0.999936,0.001042,-0.005845,0.009622,0.301258,0.173736,0.069292,-0.935018
32618,NaN,13.724087,-0.497864,-2.432744,-9.962559,-6.579241,-17.021546,0.298992,-1.324116,2.085500,-0.834229,0.503418,0.246826,0.137440,-0.003511,-0.023424,0.999923,0.001495,-0.006620,0.010427,0.311098,0.168700,0.064118,-0.933085
32619,NaN,14.432779,-0.695001,-2.869311,-10.449472,-7.041790,-17.443489,0.493498,-1.514739,2.244127,-0.813477,0.524902,0.255371,0.144605,-0.005259,-0.027613,0.999905,0.002467,-0.007573,0.011220,0.321116,0.160002,0.058239,-0.931607
32620,NaN,15.060480,-0.558856,-3.477554,-10.562457,-7.754734,-18.028767,0.834971,-1.747597,2.365110,-0.792725,0.543945,0.263672,0.150952,-0.003663,-0.033475,0.999883,0.004175,-0.008738,0.011825,0.331848,0.153868,0.049680,-0.929373
32621,NaN,16.534950,0.012167,-3.942673,-11.090763,-9.423597,-18.594053,1.308831,-1.968370,2.533511,-0.767578,0.565430,0.263428,0.165705,0.002470,-0.037786,0.999850,0.006544,-0.009841,0.012667,0.342493,0.144277,0.038987,-0.927558
32622,NaN,19.811346,0.647007,-3.963754,-12.836200,-12.471161,-19.208084,1.926757,-2.088735,2.769687,-0.742920,0.597412,0.269531,0.198394,0.009584,-0.037484,0.999803,0.009633,-0.010443,0.013848,0.354197,0.138398,0.024504,-0.924548
32623,NaN,23.434036,0.857899,-3.806192,-15.077063,-15.633788,-19.433815,2.837222,-2.099951,3.019540,-0.726562,0.623291,0.258545,0.234551,0.012635,-0.035440,0.999730,0.014185,-0.010499,0.015096,0.365711,0.130648,0.006056,-0.921493
32624,NaN,26.346640,1.463511,-3.476087,-16.344187,-18.812262,-19.151998,4.008586,-2.209439,3.186734,-0.693359,0.659668,0.245361,0.263542,0.019487,-0.031491,0.999611,0.020040,-0.011046,0.015932,0.377607,0.127844,-0.018500,-0.916911
32625,NaN,26.117700,4.293203,-1.646610,-14.306440,-21.467398,-15.945964,5.094466,-2.557330,3.198238,-0.660156,0.696045,0.219238,0.260614,0.047446,-0.011961,0.999466,0.025468,-0.012784,0.015988,0.387831,0.121665,-0.048480,-0.912379
32626,NaN,20.852530,5.529333,0.581445,-10.111160,-18.982372,-11.564555,5.678398,-2.898496,3.098615,-0.633057,0.726074,0.197510,0.207509,0.058261,0.010453,0.999372,0.028386,-0.014489,0.015490,0.397472,0.118630,-0.081818,-0.906228
32627,NaN,16.084555,2.721993,-0.699181,-8.391253,-13.870781,-11.746826,5.638659,-3.092517,3.008935,-0.599609,0.753906,0.169434,0.160484,0.029772,-0.003693,0.999370,0.028187,-0.015459,0.015042,0.405405,0.110465,-0.115333,-0.900079
32628,NaN,16.576472,-1.481573,-3.387532,-10.641061,-12.218175,-14.899272,5.778286,-3.189415,3.112743,-0.568359,0.783936,0.134766,0.166475,-0.011293,-0.031584,0.999334,0.028885,-0.015944,0.015560,0.414018,0.105966,-0.149404,-0.891650
32629,NaN,16.969058,-6.367229,-0.528411,-15.054058,-9.464476,-13.353216,6.000047,-3.122344,3.203613,-0.536865,0.811768,0.102295,0.170754,-0.060800,-0.004476,0.999300,0.029993,-0.015608,0.016014,0.421724,0.097691,-0.184423,-0.882380
32630,NaN,15.154850,-6.389498,2.748070,-14.848141,-7.583335,-10.067081,5.948517,-3.070848,2.935038,-0.507080,0.824707,0.063721,0.152046,-0.062492,0.027940,0.999332,0.029736,-0.015351,0.014672,0.428559,0.093933,-0.218413,-0.871671
32631,NaN,14.192326,-2.663933,4.354512,-12.124123,-8.348302,-6.529562,5.431840,-3.477463,2.864517,-0.475586,0.848389,0.035645,0.141520,-0.025825,0.045300,0.999378,0.027154,-0.017384,0.014320,0.433837,0.082670,-0.250921,-0.861388
32632,NaN,14.225700,-1.686306,0.794058,-10.103492,-10.114954,-8.619714,5.133149,-3.712423,2.996817,-0.456299,0.856934,0.003662,0.142316,-0.014973,0.010182,0.999386,0.025660,-0.018558,0.014981,0.439604,0.074031,-0.282129,-0.849512
32633,NaN,11.886363,-2.471302,-1.375244,-8.363587,-8.877826,-10.518208,5.471547,-3.181848,2.942953,-0.428955,0.876221,-0.039307,0.119412,-0.022605,-0.012493,0.999391,0.027352,-0.015906,0.014712,0.444887,0.063582,-0.313433,-0.836536
32634,NaN,8.531690,-2.633594,-0.359299,-6.768820,-5.829399,-10.036162,5.806767,-3.190443,2.397613,-0.407471,0.880615,-0.071533,0.085674,-0.025218,-0.002971,0.999379,0.029028,-0.015949,0.011986,0.447699,0.059390,-0.345350,-0.822662
32635,NaN,7.782307,2.015864,-4.826855,-1.268630,-9.279926,-10.230902,5.200273,-3.451864,1.668852,-0.394287,0.876465,-0.105713,0.078456,0.022034,-0.046361,0.999478,0.025997,-0.017256,0.008343,0.446577,0.049039,-0.374928,-0.810921
32636,NaN,9.049524,0.480802,-2.037369,-4.244440,-8.151486,-8.469852,4.174283,-3.180722,0.982899,-0.385742,0.876465,-0.133545,0.090776,0.005657,-0.018819,0.999644,0.020869,-0.015902,0.004914,0.443323,0.043643,-0.399033,-0.801457
32637,NaN,7.472930,-0.379386,2.737869,-5.956784,-3.663263,-5.994734,2.773781,-3.063609,0.039641,-0.400635,0.872070,-0.142090,0.074300,-0.004169,0.028463,0.999786,0.013868,-0.015317,0.000198,0.436451,0.032471,-0.417124,-0.796532
32638,NaN,6.054366,0.281089,6.407156,-6.248288,-0.221240,-3.592763,1.908675,-3.025209,-0.836347,-0.413086,0.863525,-0.150635,0.059574,0.001943,0.064999,0.999831,0.009543,-0.015125,-0.004181,0.426332,0.026372,-0.431095,-0.794797
32639,NaN,5.882103,3.576091,7.483330,-4.429215,0.099911,-0.661067,1.035914,-2.818304,-1.385919,-0.429932,0.854980,-0.150635,0.058001,0.034966,0.075837,0.999863,0.005179,-0.014091,-0.006929,0.414410,0.015447,-0.441256,-0.795814
32640,NaN,4.948484,5.511410,8.281111,-2.951712,0.991769,0.852248,0.196556,-2.283910,-1.956258,-0.445068,0.850830,-0.139893,0.049070,0.054551,0.083427,0.999886,0.000983,-0.011419,-0.009781,0.401426,0.011129,-0.446545,-0.799582
32641,NaN,5.217119,4.422127,8.011342,-3.700611,1.123955,-0.014920,-0.428733,-1.721549,-2.205024,-0.468262,0.840088,-0.133301,0.051964,0.043820,0.080467,0.999900,-0.002144,-0.008607,-0.011025,0.388633,0.003509,-0.448429,-0.804900
32642,NaN,5.062653,2.695468,7.242825,-4.439442,1.265611,-1.809973,-0.770164,-1.349349,-2.467734,-0.487305,0.827393,-0.118164,0.050467,0.026611,0.072666,0.999894,-0.003851,-0.006747,-0.012338,0.375545,0.002165,-0.447837,-0.811421
32643,NaN,5.461353,0.646610,7.138259,-5.921784,1.738830,-3.247129,-0.664193,-1.044859,-2.981450,-0.512939,0.820801,-0.109863,0.054330,0.005892,0.071647,0.999870,-0.003321,-0.005224,-0.014907,0.360970,-0.001321,-0.447370,-0.818266
32644,NaN,4.652974,-2.009850,6.224338,-6.630978,2.576285,-6.094902,-0.119631,-0.866951,-3.216776,-0.540283,0.803711,-0.109619,0.045928,-0.020803,0.062456,0.999861,-0.000598,-0.004335,-0.016083,0.345711,0.002164,-0.448380,-0.824278
32645,NaN,4.690067,-4.475543,5.502300,-7.795303,3.111381,-8.452973,0.754403,-0.903350,-3.231390,-0.563232,0.784668,-0.115967,0.045919,-0.045710,0.055061,0.999852,0.003772,-0.004517,-0.016156,0.330318,0.002430,-0.453337,-0.827871
32646,NaN,4.608320,-5.776475,5.022949,-8.235882,3.460338,-9.962464,1.430751,-0.978344,-3.067188,-0.586670,0.776123,-0.115967,0.044941,-0.058818,0.050033,0.999845,0.007153,-0.004891,-0.015335,0.315224,0.007749,-0.460742,-0.829632
32647,NaN,5.463666,-6.276583,4.992641,-9.080409,3.379910,-10.346739,1.747704,-0.919016,-3.137965,-0.611816,0.756836,-0.126465,0.053410,-0.064045,0.049618,0.999828,0.008738,-0.004595,-0.015689,0.300176,0.009478,-0.469616,-0.830220
32648,NaN,4.903200,-6.929984,4.783649,-8.768647,3.926001,-11.435784,1.742932,-0.822830,-3.439021,-0.641357,0.744141,-0.135010,0.047630,-0.070541,0.047423,0.999806,0.008714,-0.004114,-0.017194,0.283713,0.016809,-0.477805,-0.831220
32649,NaN,5.249240,-5.589345,4.203787,-8.151512,2.993782,-10.835817,1.417459,-0.875899,-3.712243,-0.666260,0.720459,-0.132568,0.051256,-0.057150,0.041862,0.999793,0.007087,-0.004379,-0.018560,0.266431,0.019720,-0.484901,-0.832764
32650,NaN,5.467061,-2.469975,4.074065,-6.921545,1.760532,-8.558267,0.891386,-0.735615,-3.956965,-0.697754,0.697021,-0.134521,0.054015,-0.025955,0.040826,0.999788,0.004457,-0.003678,-0.019783,0.247910,0.027495,-0.489071,-0.835819
32651,NaN,5.205675,-2.530774,4.416721,-6.786602,2.366133,-8.651107,0.212072,-0.471434,-4.107593,-0.727295,0.677734,-0.132324,0.051418,-0.026415,0.044261,0.999786,0.001060,-0.002357,-0.020537,0.230051,0.031603,-0.490301,-0.840049
32652,NaN,5.086228,-4.016360,4.751637,-7.245279,3.472804,-9.945585,-0.015444,-0.346409,-4.251308,-0.765381,0.658447,-0.125732,0.049911,-0.041228,0.047607,0.999773,-0.000077,-0.001732,-0.021255,0.211176,0.040609,-0.489820,-0.844886
32653,NaN,4.527424,-3.031198,5.896806,-6.635906,4.391469,-8.748434,-0.159809,-0.305894,-4.498333,-0.790283,0.635010,-0.121338,0.044488,-0.031271,0.059061,0.999746,-0.000799,-0.001529,-0.022490,0.192045,0.046039,-0.488917,-0.849682
32654,NaN,4.878041,-0.881512,4.843273,-6.043574,2.583268,-7.615600,-0.098409,-0.082887,-4.712469,-0.828369,0.613525,-0.116943,0.048535,-0.009937,0.048458,0.999722,-0.000492,-0.000414,-0.023560,0.171668,0.057166,-0.487323,-0.854270
32655,NaN,4.955517,-1.361388,4.363003,-6.090992,2.534876,-8.428632,-0.096139,0.110104,-4.835934,-0.862061,0.590088,-0.112305,0.049231,-0.014786,0.043610,0.999707,-0.000481,0.000550,-0.024177,0.152002,0.065323,-0.485839,-0.858248
32656,NaN,5.819653,-1.614649,3.595240,-6.744495,1.892948,-9.244971,-0.087970,0.266926,-5.028316,-0.906250,0.562256,-0.103516,0.057814,-0.017588,0.035883,0.999683,-0.000440,0.001334,-0.025139,0.130927,0.078663,-0.483424,-0.861958
32657,NaN,5.674291,-1.343327,3.043093,-6.392197,1.518217,-9.512806,0.041070,0.397503,-5.127376,-0.948486,0.541016,-0.101318,0.056434,-0.014889,0.030316,0.999669,0.000205,0.001987,-0.025634,0.110551,0.088873,-0.481800,-0.864725
32658,NaN,5.190337,-2.652946,2.354019,-5.823382,1.907101,-11.213795,0.236237,0.475875,-5.013714,-1.001465,0.515381,-0.099121,0.051272,-0.027848,0.023385,0.999682,0.001181,0.002379,-0.025066,0.089752,0.103179,-0.480134,-0.866470
32659,NaN,6.898230,-4.992966,1.825080,-7.313199,2.443958,-13.859219,0.499252,0.563832,-5.068040,-1.056152,0.483398,-0.088135,0.067738,-0.051702,0.017931,0.999672,0.002496,0.002819,-0.025337,0.069758,0.114181,-0.480002,-0.867003
32660,NaN,6.980141,-6.742042,0.554783,-6.777241,2.504783,-16.313417,0.892510,0.560745,-5.039295,-1.115723,0.461914,-0.081787,0.068088,-0.069174,0.005049,0.999669,0.004462,0.002803,-0.025194,0.048595,0.129050,-0.480591,-0.866035
32661,NaN,8.227628,-8.875896,-0.303633,-7.298720,2.858688,-19.037232,1.225486,0.512772,-4.972575,-1.178955,0.425537,-0.075195,0.080027,-0.090746,-0.003795,0.999669,0.006127,0.002564,-0.024860,0.028498,0.139782,-0.483204,-0.863807
32662,NaN,10.458895,-10.127220,-0.899898,-8.628479,2.808813,-21.230804,1.289042,0.583509,-4.928208,-1.250977,0.387207,-0.066406,0.102025,-0.103745,-0.009963,0.999671,0.006445,0.002917,-0.024638,0.007581,0.154420,-0.485032,-0.860721
32663,NaN,12.222320,-10.316762,-0.831312,-9.776565,2.885236,-22.163910,1.262129,0.570033,-4.869728,-1.332764,0.329346,-0.055176,0.119639,-0.106045,-0.009320,0.999680,0.006310,0.002850,-0.024346,-0.011838,0.165092,-0.487376,-0.857362
32664,NaN,13.400334,-10.901792,-0.423430,-10.246593,3.597436,-23.251652,1.027463,0.582131,-4.684565,-1.416504,0.263184,-0.039551,0.131388,-0.112091,-0.005190,0.999708,0.005137,0.002910,-0.023421,-0.031478,0.178970,-0.487748,-0.853862
32665,NaN,13.327931,-11.893998,0.410865,-9.597766,5.052705,-24.010051,0.899720,0.580983,-4.534419,-1.495850,0.188232,-0.032471,0.130547,-0.121936,0.003183,0.999729,0.004498,0.002905,-0.022670,-0.048962,0.188806,-0.488368,-0.850560
32666,NaN,13.801666,-11.358287,0.699018,-9.567018,5.187231,-24.007648,0.858016,0.597459,-4.344229,-1.563721,0.098389,-0.020752,0.135525,-0.116572,0.006087,0.999750,0.004290,0.002987,-0.021719,-0.066909,0.201777,-0.487877,-0.846632
32667,NaN,14.778202,-11.690962,-0.094973,-9.565586,4.783719,-25.325472,0.944149,0.625978,-4.052239,-1.629150,0.000000,-0.021729,0.145368,-0.119864,-0.001968,0.999779,0.004720,0.003130,-0.020260,-0.082090,0.210527,-0.488734,-0.842662
32668,NaN,15.245976,-14.494101,-1.079754,-8.036438,5.470197,-28.497548,1.061689,0.577387,-3.639055,-1.683350,-0.113525,-0.009766,0.149756,-0.147621,-0.012011,0.999816,0.005308,0.002887,-0.018194,-0.097248,0.221460,-0.489456,-0.837814
32669,NaN,14.526926,-16.563215,-2.663029,-5.600354,5.236371,-30.636560,1.191668,0.357753,-3.243434,-1.714355,-0.212158,-0.001953,0.142511,-0.167795,-0.027882,0.999849,0.005958,0.001789,-0.016216,-0.109760,0.226950,-0.491754,-0.833441
32670,NaN,14.179123,-16.946133,-4.649430,-3.923263,3.716266,-31.735266,1.316721,0.111650,-2.833253,-1.736816,-0.308594,0.012207,0.139348,-0.171136,-0.047696,0.999878,0.006583,0.000558,-0.014166,-0.122908,0.233716,-0.493955,-0.828419
32671,NaN,13.173699,-17.393850,-5.735554,-2.168178,2.950847,-32.073818,1.317097,-0.063728,-2.360850,-1.746582,-0.400635,0.030762,0.129693,-0.175095,-0.058465,0.999909,0.006585,-0.000319,-0.011804,-0.132789,0.235237,-0.497318,-0.824443
32672,NaN,11.509086,-17.536811,-7.552157,0.218991,1.352669,-32.064546,1.239238,-0.288265,-1.791522,-1.757324,-0.465088,0.057373,0.113626,-0.175919,-0.076446,0.999940,0.006196,-0.001441,-0.008957,-0.142476,0.237756,-0.500023,-0.820457
32673,NaN,11.821789,-18.042588,-7.657070,0.332065,1.377327,-32.658006,1.070176,-0.412874,-1.146919,-1.763916,-0.522949,0.085938,0.117341,-0.180688,-0.077294,0.999967,0.005351,-0.002064,-0.005735,-0.147881,0.235070,-0.503468,-0.818164
32674,NaN,12.131729,-12.790751,-7.344202,-2.370618,-0.748823,-28.747799,0.760635,-0.654883,-0.809313,-1.758057,-0.572510,0.116699,0.121040,-0.128118,-0.073532,0.999979,0.003803,-0.003274,-0.004047,-0.153868,0.233953,-0.505059,-0.816398
32675,NaN,14.763041,-7.291376,-8.091077,-7.209971,-3.795103,-26.250151,0.586756,-0.616264,-0.162076,-1.763916,-0.591797,0.157715,0.147820,-0.072797,-0.080669,0.999991,0.002934,-0.003081,-0.000810,-0.155189,0.228396,-0.507508,-0.816203
32676,NaN,25.068955,-17.545732,5.448664,-14.155325,12.950118,-34.264371,-0.492267,0.808526,1.752911,-1.770996,-0.574463,0.138184,0.252432,-0.173117,0.053897,0.999950,-0.002461,0.004043,0.008764,-0.145553,0.227713,-0.508029,-0.817843
32677,NaN,46.799871,-23.718299,26.018004,-35.926633,33.607259,-41.577439,-2.306738,1.219335,3.611251,-1.776855,-0.525146,0.122314,0.473728,-0.225664,0.259951,0.999752,-0.011533,0.006096,0.018055,-0.123372,0.222122,-0.503950,-0.825515
32678,NaN,19.247585,-12.097404,8.869493,-13.885647,13.223713,-24.904608,-1.599895,-1.983237,1.326921,-1.768799,-0.510254,0.137207,0.192371,-0.118973,0.091560,0.999897,-0.007999,-0.009916,0.006634,-0.121246,0.211651,-0.497470,-0.832482
32679,NaN,-3.963849,13.239180,0.803719,-1.948917,-5.687712,2.656355,-1.710965,-1.482927,1.007250,-1.769775,-0.482422,0.145508,-0.040357,0.132250,0.006608,0.999923,-0.008555,-0.007414,0.005036,-0.116891,0.200894,-0.490383,-0.839942
32680,NaN,-1.589746,16.909956,-8.636514,-3.160997,-15.841353,0.292514,-0.193370,-0.857019,2.202867,-1.772949,-0.458740,0.147217,-0.017387,0.168830,-0.086601,0.999930,-0.000967,-0.004285,0.011014,-0.109688,0.192086,-0.491176,-0.842507
32681,NaN,3.215098,6.394381,-7.789301,-3.563307,-9.957690,-9.600940,-0.696822,-0.377179,1.670738,-1.771240,-0.441650,0.146973,0.031764,0.063938,-0.078056,0.999957,-0.003484,-0.001886,0.008354,-0.101043,0.183642,-0.489710,-0.846316
32682,NaN,10.650485,-8.638397,-4.251196,-5.916249,0.513032,-22.883832,-0.381269,-0.232876,2.172046,-1.783203,-0.409424,0.148438,0.107484,-0.085301,-0.042224,0.999939,-0.001906,-0.001164,0.010860,-0.092220,0.177613,-0.489872,-0.848513
32683,NaN,12.147181,-14.259500,1.290329,-7.022548,8.031724,-25.263139,-0.365045,0.115901,1.911984,-1.785889,-0.396729,0.152588,0.122835,-0.141401,0.013091,0.999952,-0.001825,0.000579,0.009560,-0.081715,0.170451,-0.490172,-0.850882
32684,NaN,10.076827,-3.350179,-1.475834,-8.054520,0.141692,-16.887150,-0.339126,-0.388930,0.847990,-1.790527,-0.383789,0.163086,0.100938,-0.033099,-0.014506,0.999988,-0.001696,-0.001945,0.004240,-0.078927,0.166949,-0.489216,-0.852389
32685,NaN,11.227567,2.513563,0.247094,-11.286357,-1.398184,-11.573025,0.149404,-0.523261,1.135550,-1.789062,-0.364502,0.169189,0.112124,0.025771,0.002784,0.999980,0.000747,-0.002616,0.005678,-0.073649,0.158782,-0.490578,-0.853637
32686,NaN,11.403054,-5.175930,0.258578,-9.341505,2.492465,-17.775682,0.271651,-0.402186,1.003677,-1.795898,-0.351807,0.179688,0.114283,-0.051190,0.002746,0.999984,0.001358,-0.002011,0.005018,-0.070727,0.154596,-0.492309,-0.853657
32687,NaN,9.327540,-6.337892,-1.865705,-6.799289,1.296900,-18.908836,0.383841,-0.546195,0.571481,-1.793945,-0.351807,0.192627,0.093507,-0.063076,-0.018523,0.999990,0.001919,-0.002731,0.002857,-0.068043,0.147615,-0.494148,-0.854048
32688,NaN,9.515114,0.044026,-2.004905,-8.668509,-2.020824,-13.728274,0.244596,-0.601156,0.306137,-1.798584,-0.338867,0.194580,0.095210,0.000610,-0.019762,0.999994,0.001223,-0.003006,0.001531,-0.068564,0.144304,-0.495140,-0.853997
32689,NaN,11.049541,-0.830289,-2.813444,-9.823236,-2.302134,-15.188663,0.328340,-0.358198,0.338680,-1.798828,-0.334717,0.200928,0.110559,-0.008070,-0.027950,0.999996,0.001642,-0.001791,0.001693,-0.066349,0.138729,-0.496618,-0.854238
32690,NaN,10.587399,-0.944973,-2.569324,-9.423112,-2.008005,-14.985700,0.375886,-0.388517,0.240547,-1.796875,-0.332520,0.207275,0.105935,-0.009274,-0.025505,0.999996,0.001879,-0.001943,0.001203,-0.066713,0.136445,-0.498190,-0.853662
