// Start Time: Unknown
// Update Rate: 100.0Hz
// Filter Profile: human (46.1)
// Firmware Version: 4.4.0
PacketCounter,SampleTimeFine,Acc_X,Acc_Y,Acc_Z,FreeAcc_X,FreeAcc_Y,FreeAcc_Z,Gyr_X,Gyr_Y,Gyr_Z,Mag_X,Mag_Y,Mag_Z,VelInc_X,VelInc_Y,VelInc_Z,OriInc_q0,OriInc_q1,OriInc_q2,OriInc_q3,Quat_q0,Quat_q1,Quat_q2,Quat_q3
43834,NaN,9.093429,-0.110799,1.504371,0.000000,0.000000,-0.595029,-0.629973,0.951368,-0.195696,-1.073975,-0.020020,-0.550537,0.091003,-0.001151,0.014615,0.999983,-0.003150,0.004757,-0.000978,0.760451,0.018610,-0.648367,0.031452
43835,NaN,9.126423,-0.275696,1.561622,0.000000,0.000000,-0.549553,-0.682005,0.944833,-0.155473,-1.069580,-0.022217,-0.556885,0.091335,-0.002776,0.015194,0.999983,-0.003410,0.004724,-0.000777,0.760584,0.030728,-0.645787,0.059390
43836,NaN,8.967628,-0.366572,1.699875,-0.215015,-0.188982,-0.682529,-0.732880,0.931485,-0.114026,-1.069824,-0.013428,-0.573730,0.089752,-0.003656,0.016594,0.999982,-0.003664,0.004657,-0.000570,0.762351,0.020461,-0.645538,0.041022
43837,NaN,8.779422,-0.558065,1.728329,-0.175824,-0.377012,-0.857063,-0.713652,0.948240,-0.062045,-1.059570,-0.004883,-0.576172,0.087873,-0.005547,0.016887,0.999982,-0.003568,0.004741,-0.000310,0.765484,0.017746,-0.642052,0.038579
43838,NaN,8.607583,-0.616070,1.779038,-0.171879,-0.418508,-1.013269,-0.635267,0.963917,-0.022266,-1.055420,-0.007080,-0.590820,0.086160,-0.006115,0.017395,0.999983,-0.003176,0.004820,-0.000111,0.768603,0.014578,-0.638500,0.036823
43839,NaN,8.628951,-0.574313,1.755864,-0.066734,-0.359010,-0.995786,-0.531516,0.992563,-0.003570,-1.051025,-0.009033,-0.599365,0.086375,-0.005699,0.017145,0.999984,-0.002658,0.004963,-0.000018,0.771798,0.012364,-0.634773,0.035184
43840,NaN,8.610367,-0.397973,1.980070,-0.211299,-0.170207,-0.972825,-0.465739,1.046461,-0.000845,-1.038574,-0.000488,-0.612061,0.086206,-0.003935,0.019359,0.999984,-0.002329,0.005232,-0.000004,0.775289,0.009885,-0.630598,0.034282
43841,NaN,8.666691,-0.127816,2.338756,-0.473661,0.096603,-0.848140,-0.505072,1.122476,-0.017446,-1.036621,-0.000488,-0.626953,0.086796,-0.001227,0.022904,0.999981,-0.002525,0.005612,-0.000087,0.778841,0.007790,-0.626321,0.032677
43842,NaN,8.939603,0.168086,2.410778,-0.378753,0.428103,-0.569914,-0.536187,1.179328,-0.051131,-1.028076,0.001709,-0.633301,0.089537,0.001722,0.023576,0.999979,-0.002681,0.005897,-0.000256,0.783245,0.005198,-0.620901,0.031342
43843,NaN,8.944879,0.406546,2.118097,0.009065,0.693262,-0.637691,-0.585495,1.297691,-0.081627,-1.017822,0.006104,-0.652344,0.089585,0.004090,0.020588,0.999975,-0.002927,0.006488,-0.000408,0.787282,0.002955,-0.615893,0.029237
43844,NaN,8.738571,0.415114,2.170951,0.061465,0.677579,-0.824717,-0.576741,1.447008,-0.094978,-1.011475,0.006104,-0.660889,0.087542,0.004171,0.021065,0.999970,-0.002884,0.007235,-0.000475,0.792637,0.001782,-0.609129,0.026163
43845,NaN,8.396494,0.234802,2.291532,0.000158,0.489058,-1.119782,-0.517401,1.569847,-0.113126,-1.007324,0.008301,-0.682129,0.084143,0.002359,0.022249,0.999966,-0.002587,0.007849,-0.000566,0.797411,-0.000130,-0.602954,0.024152
43846,NaN,7.960013,-0.022405,1.789439,0.525384,0.185849,-1.673134,-0.384438,1.648627,-0.115669,-0.990479,0.010498,-0.701172,0.079744,-0.000237,0.017238,0.999964,-0.001922,0.008243,-0.000578,0.802927,0.000708,-0.595726,0.020475
43847,NaN,7.546641,-0.201674,1.130689,1.173511,0.010521,-2.269991,-0.313062,1.716753,-0.119603,-0.977783,0.010498,-0.711914,0.075559,-0.002045,0.010662,0.999962,-0.001565,0.008584,-0.000598,0.808023,-0.000368,-0.588842,0.019068
43848,NaN,7.209422,-0.206119,0.943063,1.344468,-0.035436,-2.664441,-0.391392,1.759720,-0.136230,-0.960938,0.012695,-0.732910,0.072172,-0.002093,0.008800,0.999959,-0.001957,0.008798,-0.000681,0.811904,-0.000082,-0.583575,0.015856
43849,NaN,6.787202,-0.288119,1.286054,1.012041,-0.136571,-2.974643,-0.533954,1.849207,-0.150678,-0.950439,0.017090,-0.747803,0.067985,-0.002899,0.012240,0.999953,-0.002670,0.009246,-0.000753,0.817274,-0.001956,-0.576083,0.013685
43850,NaN,6.878389,-0.363257,1.633951,0.774461,-0.229802,-2.779906,-0.552824,1.851534,-0.160760,-0.931641,0.023438,-0.762695,0.068928,-0.003644,0.015712,0.999953,-0.002764,0.009258,-0.000804,0.819804,-0.003122,-0.572537,0.010661
43851,NaN,7.030704,-0.448925,2.151087,0.471273,-0.314696,-2.468508,-0.548525,1.797711,-0.150003,-0.923340,0.025635,-0.777588,0.070493,-0.004484,0.020890,0.999956,-0.002743,0.008988,-0.000750,0.824913,-0.005037,-0.565175,0.008447
43852,NaN,7.049823,-0.268643,2.890298,-0.152661,-0.130474,-2.191380,-0.495572,1.679126,-0.139937,-0.908691,0.027832,-0.796875,0.070736,-0.002665,0.028316,0.999961,-0.002478,0.008396,-0.000700,0.827131,-0.007101,-0.561932,0.005988
43853,NaN,7.825039,-0.264382,3.247175,-0.070554,-0.109227,-1.337609,-0.219658,1.543463,-0.122676,-0.899902,0.021484,-0.805176,0.078496,-0.002657,0.031870,0.999969,-0.001098,0.007717,-0.000613,0.831438,-0.007711,-0.555543,0.004808
43854,NaN,8.380916,0.142075,3.464479,0.023276,0.309301,-0.748210,0.060165,1.520264,-0.112239,-0.889404,0.023682,-0.822266,0.084070,0.001363,0.034007,0.999971,0.000301,0.007601,-0.000561,0.834070,-0.006732,-0.551585,0.005957
43855,NaN,8.515823,0.413877,3.373775,0.299151,0.567688,-0.666136,0.253642,1.566039,-0.132144,-0.876709,0.017334,-0.834961,0.085422,0.004040,0.033075,0.999968,0.001268,0.007830,-0.000661,0.838375,-0.005356,-0.545034,0.006053
43856,NaN,8.423695,0.374632,3.022590,0.680605,0.497482,-0.895148,0.303721,1.641683,-0.159893,-0.859619,0.015137,-0.854004,0.084484,0.003634,0.029539,0.999965,0.001519,0.008208,-0.000799,0.841448,-0.002813,-0.540291,0.006611
43857,NaN,8.099962,-0.024471,3.417047,0.343085,0.065525,-1.028498,0.686346,1.809245,-0.136871,-0.844482,0.006592,-0.860352,0.081304,-0.000416,0.033435,0.999953,0.003432,0.009046,-0.000684,0.846310,0.000385,-0.532633,0.007863
43858,NaN,7.929702,0.166928,2.630587,1.102928,0.220526,-1.532520,0.764712,1.722903,-0.140115,-0.827393,0.000244,-0.881348,0.079521,0.001515,0.025627,0.999955,0.003824,0.008614,-0.000701,0.850114,0.005244,-0.526479,0.009959
43859,NaN,7.992080,0.374141,3.449260,0.536873,0.384370,-1.125172,0.626831,1.681315,-0.122145,-0.812500,-0.008301,-0.894043,0.080209,0.003586,0.033831,0.999960,0.003134,0.008406,-0.000611,0.854495,0.008146,-0.519277,0.011133
43860,NaN,8.332891,-0.022774,5.600643,-1.088818,-0.117907,0.167431,0.396043,1.726887,-0.148855,-0.797607,-0.003906,-0.908936,0.083808,-0.000400,0.055283,0.999960,0.001980,0.008634,-0.000744,0.857746,0.012467,-0.513740,0.013710
43861,NaN,8.406630,-0.424468,6.963874,-2.059980,-0.599857,0.899019,0.407138,1.723689,-0.186206,-0.786865,-0.014648,-0.919434,0.084658,-0.004464,0.068902,0.999960,0.002036,0.008618,-0.000931,0.862127,0.014573,-0.506288,0.014064
43862,NaN,8.339436,-0.505988,6.971827,-1.905003,-0.688342,0.878541,0.497126,1.788926,-0.119770,-0.763428,-0.020996,-0.930176,0.084010,-0.005282,0.068956,0.999957,0.002486,0.008944,-0.000599,0.867132,0.011146,-0.497944,0.003161
43863,NaN,8.147856,-0.038539,6.453253,-1.370467,-0.244849,0.487425,0.465162,1.819362,-0.047713,-0.752686,-0.025146,-0.940674,0.082061,-0.000554,0.063787,0.999956,0.002326,0.009097,-0.000239,0.871598,0.013252,-0.490024,0.004213
43864,NaN,8.155642,0.751414,6.079863,-0.838390,0.472988,0.341843,0.329134,1.785698,-0.041207,-0.735596,-0.025146,-0.959717,0.082097,0.007398,0.060079,0.999959,0.001646,0.008928,-0.000206,0.877054,0.023264,-0.479520,0.017189
43865,NaN,8.216608,1.166926,5.426253,-0.101392,0.914104,0.060013,0.236683,1.770854,-0.061446,-0.712158,-0.029541,-0.966309,0.082646,0.011580,0.053546,0.999960,0.001183,0.008854,-0.000307,0.881242,0.024296,-0.471708,0.017692
43866,NaN,7.955301,1.245879,4.828314,0.477107,1.030135,-0.492789,0.199758,1.809165,-0.075065,-0.697510,-0.029297,-0.985352,0.079990,0.012381,0.047573,0.999959,0.000999,0.009046,-0.000375,0.886546,0.018732,-0.462189,0.008123
43867,NaN,7.449171,1.060203,4.956525,0.251880,0.826386,-0.844255,0.287367,1.805968,-0.130909,-0.676025,-0.035889,-0.993896,0.074942,0.010482,0.048905,0.999958,0.001437,0.009030,-0.000655,0.890661,0.020234,-0.454140,0.008375
43868,NaN,7.324097,0.639892,5.867911,-0.388961,0.326166,-0.419912,0.306621,1.760964,-0.178539,-0.661377,-0.035889,-1.004395,0.073760,0.006244,0.058041,0.999960,0.001533,0.008805,-0.000893,0.894430,0.024306,-0.446403,0.011323
43869,NaN,7.286433,0.351594,7.270704,-1.344705,-0.056964,0.398313,0.140324,1.786809,-0.170465,-0.642090,-0.040039,-1.015137,0.073513,0.003403,0.072055,0.999959,0.000702,0.008934,-0.000852,0.898375,0.025211,-0.438366,0.011091
43870,NaN,6.951589,0.129842,8.406741,-2.235067,-0.363035,0.858961,-0.027028,1.833999,-0.115144,-0.625244,-0.037842,-1.029785,0.070284,0.001269,0.083425,0.999958,-0.000135,0.009170,-0.000576,0.902543,0.026205,-0.429642,0.011689
43871,NaN,6.774731,0.314620,8.819101,-2.477059,-0.197666,1.031396,-0.053380,1.827928,-0.065263,-0.604004,-0.040039,-1.034180,0.068551,0.003147,0.087566,0.999958,-0.000267,0.009140,-0.000326,0.906443,0.025996,-0.421370,0.011519
43872,NaN,6.819325,0.954876,8.167512,-1.742580,0.492244,0.715435,-0.082327,1.773442,-0.042433,-0.580811,-0.033447,-1.047119,0.068916,0.009568,0.081062,0.999961,-0.000412,0.008867,-0.000212,0.911000,0.025205,-0.411498,0.010608
43873,NaN,6.974378,1.410143,7.309000,-0.835742,1.004343,0.303748,-0.122184,1.691811,-0.056637,-0.563721,-0.035645,-1.057617,0.070363,0.014126,0.072488,0.999964,-0.000611,0.008459,-0.000283,0.914466,0.024674,-0.403777,0.010312
43874,NaN,6.866296,1.308539,6.599707,-0.204277,0.951856,-0.248981,-0.134899,1.685592,-0.085278,-0.551270,-0.033447,-1.070312,0.069221,0.013100,0.065406,0.999964,-0.000674,0.008428,-0.000426,0.918274,0.027172,-0.394629,0.017366
43875,NaN,6.458662,0.888602,6.937199,-0.545065,0.519234,-0.322704,-0.168249,1.685986,-0.113059,-0.527832,-0.031250,-1.078857,0.065173,0.008907,0.068817,0.999964,-0.000841,0.008430,-0.000565,0.921601,0.026474,-0.386874,0.016744
43876,NaN,5.926323,0.345162,8.040240,-1.456689,-0.113445,0.074115,-0.232309,1.624382,-0.111826,-0.513184,-0.031250,-1.085449,0.059916,0.003511,0.079913,0.999966,-0.001162,0.008122,-0.000559,0.925642,0.029201,-0.376503,0.024083
43877,NaN,5.884008,0.111977,8.467690,-1.607303,-0.348735,0.367119,-0.353943,1.614819,-0.065144,-0.496094,-0.029053,-1.095947,0.059522,0.001250,0.084196,0.999966,-0.001770,0.008074,-0.000326,0.928709,0.027488,-0.369050,0.023351
43878,NaN,5.795282,-0.254049,8.534289,-1.478171,-0.669955,0.377871,-0.414666,1.682962,0.014328,-0.479492,-0.020508,-1.104492,0.058668,-0.002360,0.084856,0.999962,-0.002073,0.008415,0.000072,0.932797,0.024640,-0.358912,0.021577
43879,NaN,5.325570,-0.014293,8.552343,-1.685026,-0.398236,0.112233,-0.339059,1.695005,0.097012,-0.458496,-0.016113,-1.111084,0.053978,0.000028,0.085068,0.999963,-0.001695,0.008475,0.000485,0.935835,0.022699,-0.351042,0.021630
43880,NaN,5.248613,0.830552,8.468430,-1.522320,0.485410,0.056292,-0.352763,1.594677,0.124655,-0.439453,-0.011963,-1.121826,0.053154,0.008487,0.084247,0.999966,-0.001764,0.007973,0.000623,0.939499,0.022277,-0.340680,0.027978
43881,NaN,5.480696,1.440495,8.449656,-1.220754,1.150665,0.221921,-0.371147,1.512776,0.110354,-0.424805,-0.005371,-1.128174,0.055436,0.014592,0.084052,0.999970,-0.001856,0.007564,0.000552,0.942073,0.020131,-0.333628,0.028033
43882,NaN,5.552666,1.460269,8.523807,-1.018243,1.190790,0.344224,-0.411092,1.497078,0.048133,-0.407959,0.000977,-1.132568,0.056159,0.014791,0.084789,0.999970,-0.002055,0.007485,0.000241,0.945328,0.021923,-0.323057,0.038853
43883,NaN,5.401835,1.198011,8.900933,-1.191794,0.948100,0.556506,-0.501221,1.477766,-0.073170,-0.385010,0.007568,-1.141113,0.054678,0.012183,0.088577,0.999969,-0.002506,0.007389,-0.000366,0.947755,0.019382,-0.316152,0.037859
43884,NaN,5.163217,0.798805,9.049640,-1.232896,0.547531,0.549316,-0.491761,1.396774,-0.231927,-0.374268,0.007568,-1.145264,0.052272,0.008150,0.090113,0.999972,-0.002459,0.006984,-0.001160,0.950486,0.021328,-0.306047,0.049565
43885,NaN,4.958159,1.274935,8.652100,-1.074199,1.081675,0.124199,-0.553983,1.445624,-0.272004,-0.353516,0.018311,-1.149658,0.050223,0.012920,0.086124,0.999969,-0.002770,0.007228,-0.001360,0.952795,0.018749,-0.299276,0.047578
43886,NaN,4.068570,0.713360,8.728835,-1.596439,0.492269,-0.301551,-0.645318,1.512782,-0.219167,-0.336670,0.022461,-1.149902,0.041352,0.007369,0.086954,0.999966,-0.003227,0.007564,-0.001096,0.955716,0.016845,-0.289587,0.049620
43887,NaN,3.697602,0.297233,9.088395,-1.918424,0.092094,-0.186233,-0.700411,1.484492,-0.183444,-0.313477,0.026855,-1.162598,0.037652,0.003256,0.090595,0.999966,-0.003502,0.007422,-0.000917,0.957937,0.013391,-0.282643,0.047854
43888,NaN,3.663383,-0.088961,9.016313,-1.710043,-0.248703,-0.234899,-0.685547,1.512640,-0.147185,-0.305420,0.039551,-1.164795,0.037314,-0.000608,0.089885,0.999965,-0.003428,0.007563,-0.000736,0.960065,0.012081,-0.274555,0.052435
43889,NaN,3.375409,-0.207041,9.003310,-1.797386,-0.323655,-0.370307,-0.599965,1.502722,-0.096326,-0.279785,0.037598,-1.165039,0.034428,-0.001817,0.089782,0.999967,-0.003000,0.007514,-0.000482,0.962157,0.008935,-0.267484,0.051239
43890,NaN,3.418843,-0.341760,9.345360,-1.761732,-0.400794,-0.021116,-0.459341,1.437305,-0.055124,-0.258789,0.048340,-1.173584,0.034858,-0.003213,0.093212,0.999972,-0.002297,0.007186,-0.000276,0.964535,0.005975,-0.259350,0.048719
43891,NaN,3.777627,-0.238582,9.268556,-1.289582,-0.210532,0.113260,-0.388384,1.406141,-0.006835,-0.248291,0.048340,-1.165283,0.038427,-0.002207,0.092421,0.999973,-0.001942,0.007031,-0.000034,0.966346,0.003764,-0.252656,0.048224
43892,NaN,3.998962,0.007068,9.242237,-0.968350,0.102701,0.210322,-0.338200,1.398187,0.032858,-0.231445,0.054688,-1.175781,0.040634,0.000233,0.092139,0.999974,-0.001691,0.006991,0.000164,0.968060,0.002002,-0.245756,0.049589
43893,NaN,4.227556,0.383655,9.155253,-0.626564,0.547002,0.244376,-0.316580,1.400852,0.038652,-0.212402,0.056885,-1.176025,0.042915,0.003989,0.091247,0.999974,-0.001583,0.007004,0.000193,0.969750,0.000071,-0.239048,0.049401
43894,NaN,4.396878,0.955925,8.917793,-0.266171,1.181822,0.102153,-0.313472,1.413336,0.007341,-0.193604,0.063232,-1.182373,0.044597,0.009700,0.088849,0.999974,-0.001567,0.007067,0.000037,0.971660,-0.002185,-0.231607,0.047232
43895,NaN,4.071512,0.840335,8.997902,-0.443167,1.072935,0.030908,-0.258689,1.396487,-0.036241,-0.180908,0.067627,-1.182373,0.041344,0.008512,0.089681,0.999975,-0.001293,0.006982,-0.000181,0.973258,-0.003733,-0.224877,0.046742
43896,NaN,3.490336,0.497441,9.127521,-0.832647,0.708291,-0.089263,-0.278490,1.377812,-0.044295,-0.161865,0.065430,-1.190918,0.035532,0.005093,0.091025,0.999975,-0.001392,0.006889,-0.000221,0.975026,-0.005122,-0.217106,0.046501
43897,NaN,2.800953,0.254382,9.734973,-1.554049,0.435343,0.190979,-0.305479,1.421944,-0.016475,-0.142822,0.067627,-1.197510,0.028701,0.002690,0.097143,0.999974,-0.001527,0.007110,-0.000082,0.976540,-0.006928,-0.210239,0.046053
43898,NaN,2.125871,0.235150,9.761744,-1.998242,0.357875,-0.027824,-0.268254,1.387967,0.001400,-0.123779,0.071777,-1.188965,0.021935,0.002482,0.097464,0.999975,-0.001341,0.006940,0.000007,0.978380,-0.006657,-0.201513,0.046047
43899,NaN,2.101074,0.240283,9.701335,-1.867103,0.395381,-0.068752,-0.182669,1.325779,0.000116,-0.110840,0.067627,-1.187012,0.021653,0.002491,0.096869,0.999978,-0.000913,0.006629,0.000001,0.979688,-0.007859,-0.195063,0.045820
43900,NaN,2.108629,0.011002,9.549968,-1.641238,0.194550,-0.173420,-0.098302,1.300642,0.009031,-0.089844,0.073975,-1.189209,0.021707,0.000158,0.095360,0.999979,-0.000492,0.006503,0.000045,0.981250,-0.008750,-0.188003,0.041560
43901,NaN,2.286616,-0.196677,9.463818,-1.303976,0.021934,-0.162353,-0.079855,1.300004,0.026204,-0.074951,0.071777,-1.189209,0.023481,-0.001926,0.094488,0.999979,-0.000399,0.006500,0.000131,0.982443,-0.009439,-0.181633,0.041557
43902,NaN,2.443221,-0.214597,9.421271,-0.993133,0.035078,-0.128328,-0.040759,1.317327,0.023057,-0.062256,0.073975,-1.189209,0.025052,-0.002124,0.094049,0.999978,-0.000204,0.006587,0.000115,0.983951,-0.010186,-0.173990,0.038269
43903,NaN,2.430696,-0.153064,9.545542,-0.923944,0.106910,-0.005415,0.025895,1.316149,-0.000207,-0.045166,0.071777,-1.187256,0.024934,-0.001543,0.095293,0.999978,0.000129,0.006581,-0.000001,0.985077,-0.010312,-0.167502,0.038224
43904,NaN,2.278082,-0.102087,9.604351,-0.941278,0.158752,0.012335,0.086826,1.297376,-0.038065,-0.021729,0.069824,-1.195801,0.023403,-0.001067,0.095893,0.999979,0.000434,0.006487,-0.000190,0.986534,-0.010922,-0.160073,0.031745
43905,NaN,1.960823,0.022918,9.485633,-1.085297,0.258766,-0.191021,0.108687,1.287015,-0.053940,-0.010986,0.067627,-1.187256,0.020218,0.000172,0.094728,0.999979,0.000543,0.006435,-0.000270,0.987559,-0.010549,-0.153702,0.031496
43906,NaN,1.646024,0.141007,9.503849,-1.231044,0.358957,-0.251993,0.134184,1.253110,-0.049386,-0.000488,0.069580,-1.191650,0.017056,0.001342,0.094934,0.999980,0.000671,0.006266,-0.000247,0.989002,-0.010487,-0.145414,0.024903
43907,NaN,1.667787,0.147925,9.441008,-1.071928,0.358713,-0.291285,0.131864,1.258032,-0.052064,0.018799,0.063232,-1.183105,0.017272,0.001413,0.094304,0.999980,0.000659,0.006290,-0.000260,0.989911,-0.009955,-0.139170,0.024677
43908,NaN,1.606504,0.070801,9.408912,-0.974049,0.277392,-0.321295,0.130456,1.271206,-0.059849,0.037842,0.067627,-1.191650,0.016663,0.000642,0.093985,0.999980,0.000652,0.006356,-0.000299,0.991075,-0.009951,-0.131771,0.017544
43909,NaN,1.525557,-0.016550,9.350683,-0.912346,0.176702,-0.384113,0.142696,1.290919,-0.058305,0.048584,0.061035,-1.187500,0.015859,-0.000237,0.093406,0.999979,0.000713,0.006455,-0.000292,0.991918,-0.009320,-0.125354,0.017287
43910,NaN,1.449534,0.028677,9.391411,-0.837879,0.216518,-0.349584,0.134753,1.316614,-0.043019,0.067871,0.061035,-1.185547,0.015113,0.000220,0.093816,0.999978,0.000674,0.006583,-0.000215,0.993032,-0.009234,-0.117008,0.010521
43911,NaN,1.292989,-0.015171,9.233905,-0.828014,0.156342,-0.526907,0.130665,1.333781,-0.023593,0.080566,0.058838,-1.179199,0.013545,-0.000214,0.092250,0.999978,0.000653,0.006669,-0.000118,0.993799,-0.008642,-0.110369,0.010420
43912,NaN,1.193376,-0.002503,9.256757,-0.786543,0.159028,-0.513953,0.152335,1.331272,-0.027719,0.102051,0.054688,-1.181396,0.012550,-0.000097,0.092485,0.999978,0.000762,0.006656,-0.000139,0.994667,-0.008199,-0.102743,0.003817
43913,NaN,1.084118,0.000383,9.139184,-0.748077,0.143072,-0.641062,0.207004,1.290947,-0.043257,0.116943,0.050293,-1.179199,0.011431,-0.000093,0.091319,0.999979,0.001035,0.006455,-0.000216,0.995319,-0.007172,-0.096308,0.003657
43914,NaN,1.073568,0.001299,8.877535,-0.557915,0.117193,-0.888730,0.260631,1.296263,-0.079531,0.131836,0.048096,-1.179199,0.011311,-0.000107,0.088703,0.999978,0.001303,0.006481,-0.000398,0.996085,-0.005938,-0.088060,-0.004895
43915,NaN,1.004330,-0.102554,8.486723,-0.444392,-0.019818,-1.277781,0.354782,1.325456,-0.120277,0.144775,0.041748,-1.166504,0.010605,-0.001182,0.084796,0.999976,0.001774,0.006627,-0.000601,0.996654,-0.004086,-0.081458,-0.005375
43916,NaN,0.787305,-0.433924,7.858097,-0.443077,-0.397984,-1.925853,0.400567,1.299324,-0.131593,0.170654,0.035400,-1.166748,0.008380,-0.004502,0.078519,0.999977,0.002003,0.006497,-0.000658,0.997187,-0.001458,-0.074081,-0.011343
43917,NaN,0.952674,-0.520177,8.289105,-0.241879,-0.518525,-1.472479,0.318988,1.272056,-0.154874,0.183350,0.033203,-1.160400,0.010050,-0.005342,0.082820,0.999978,0.001595,0.006360,-0.000774,0.997630,0.000262,-0.067744,-0.012004
43918,NaN,0.924939,-0.531286,9.237400,-0.262457,-0.563449,-0.534772,0.235570,1.308509,-0.241719,0.200684,0.024658,-1.162354,0.009847,-0.005433,0.092305,0.999977,0.001178,0.006542,-0.001209,0.998005,0.001694,-0.059515,-0.021004
43919,NaN,-0.158578,-1.544252,10.315958,-1.382621,-1.559853,0.408984,0.231702,1.328955,-0.299974,0.215576,0.022461,-1.158203,-0.000924,-0.015560,0.103149,0.999976,0.001159,0.006645,-0.001500,0.998344,0.003080,-0.052891,-0.022418
43920,NaN,-1.031244,-1.412469,11.408186,-2.190369,-1.418390,1.429809,0.280048,1.347603,-0.212095,0.232666,0.020264,-1.147705,-0.009559,-0.014274,0.114128,0.999976,0.001400,0.006738,-0.001060,0.998601,0.005068,-0.044231,-0.028516
43921,NaN,-1.288947,-0.649489,12.330428,-2.332178,-0.692502,2.361125,0.326546,1.322516,-0.071006,0.250000,0.011719,-1.145508,-0.012076,-0.006692,0.123375,0.999977,0.001633,0.006613,-0.000355,0.998853,0.006903,-0.037658,-0.028761
43922,NaN,-1.670396,-0.469134,13.173520,-2.568491,-0.551596,3.212218,0.463852,1.189671,0.021856,0.260742,0.007324,-1.141357,-0.015919,-0.004999,0.131820,0.999980,0.002319,0.005948,0.000109,0.999016,0.009459,-0.030076,-0.031180
43923,NaN,-2.491416,-0.539009,13.383715,-3.271055,-0.657998,3.396659,0.667773,0.894967,0.030443,0.269531,-0.001221,-1.135010,-0.024314,-0.005841,0.133928,0.999984,0.003339,0.004475,0.000152,0.999109,0.012931,-0.025697,-0.030883
43924,NaN,-1.451257,-0.290108,13.932827,-2.108524,-0.597034,4.026017,0.916430,0.584592,-0.048905,0.280273,-0.011963,-1.139160,-0.014106,-0.003536,0.139355,0.999985,0.004582,0.002923,-0.000245,0.999092,0.017545,-0.021206,-0.032518
43925,NaN,-0.531028,0.628999,14.512810,-1.091481,0.101665,4.681988,0.963564,0.460408,-0.137303,0.282959,-0.022705,-1.128662,-0.004972,0.005594,0.145168,0.999986,0.004818,0.002302,-0.000687,0.999020,0.022449,-0.019036,-0.033058
43926,NaN,-0.447674,1.782028,15.516652,-0.854803,1.079964,5.751509,0.658691,0.446240,-0.125924,0.289307,-0.027100,-1.130615,-0.004119,0.017312,0.155234,0.999992,0.003293,0.002231,-0.000630,0.998937,0.025715,-0.015214,-0.035089
43927,NaN,-0.789731,2.596274,16.614244,-1.109421,1.781031,6.890425,0.279419,0.407865,-0.074580,0.293945,-0.033447,-1.126465,-0.007549,0.025733,0.166194,0.999997,0.001397,0.002039,-0.000373,0.998917,0.027189,-0.013201,-0.035385
43928,NaN,-1.204200,2.320873,16.746778,-1.432654,1.482134,7.011153,0.252977,0.255769,-0.073140,0.298096,-0.037598,-1.128418,-0.011819,0.023001,0.167512,0.999998,0.001265,0.001279,-0.000366,0.998846,0.028526,-0.010362,-0.037222
43929,NaN,-1.220236,1.416493,15.048634,-1.447667,0.627130,5.269338,0.376943,0.124848,-0.092866,0.298584,-0.046387,-1.124268,-0.012102,0.013887,0.150520,0.999998,0.001885,0.000624,-0.000464,0.998780,0.030438,-0.009780,-0.037646
43930,NaN,-0.783542,0.637665,12.491922,-0.969481,-0.087987,2.682141,0.496521,-0.013900,-0.180880,0.296143,-0.041992,-1.128418,-0.007839,0.006074,0.124934,0.999997,0.002483,-0.000069,-0.000904,0.998614,0.033030,-0.008359,-0.040109
43931,NaN,-0.035568,0.311390,9.923158,-0.209727,-0.363783,0.106521,0.583482,-0.105222,-0.291144,0.298584,-0.052734,-1.122070,-0.000404,0.002825,0.099240,0.999995,0.002917,-0.000526,-0.001456,0.998450,0.035935,-0.008939,-0.041552
43932,NaN,0.364253,0.648671,7.894193,0.271602,0.029413,-1.888235,0.529599,-0.079357,-0.325275,0.301025,-0.061279,-1.128418,0.003622,0.006272,0.078960,0.999995,0.002648,-0.000397,-0.001626,0.998225,0.038642,-0.007935,-0.044610
43933,NaN,0.014280,0.882751,7.294105,-0.047412,0.301150,-2.471680,0.448086,0.036191,-0.268269,0.303223,-0.063477,-1.124023,0.000168,0.008664,0.072961,0.999997,0.002240,0.000181,-0.001341,0.998077,0.040898,-0.007788,-0.045922
43934,NaN,-0.914745,1.290377,8.087720,-0.922540,0.692100,-1.652856,0.467201,0.086886,-0.210441,0.307617,-0.065674,-1.128418,-0.009099,0.012724,0.080911,0.999997,0.002336,0.000434,-0.001052,0.997875,0.043330,-0.006109,-0.048276
43935,NaN,-1.784742,1.518202,9.169591,-1.780797,0.868251,-0.558154,0.515116,0.024742,-0.166364,0.309814,-0.072021,-1.126221,-0.017824,0.014961,0.091737,0.999996,0.002576,0.000124,-0.000832,0.997721,0.045913,-0.006059,-0.049083
43936,NaN,-1.916073,1.357391,9.636432,-1.910289,0.634438,-0.100696,0.520453,-0.037088,-0.149785,0.307861,-0.080566,-1.128174,-0.019169,0.013337,0.096396,0.999996,0.002602,-0.000185,-0.000749,0.997493,0.048617,-0.005057,-0.051168
43937,NaN,-2.009753,1.487099,9.356655,-1.989618,0.757447,-0.364664,0.418003,0.003667,-0.149429,0.310303,-0.084961,-1.128174,-0.020085,0.014690,0.093598,0.999998,0.002090,0.000018,-0.000747,0.997351,0.050708,-0.005094,-0.051899
43938,NaN,-2.018074,1.531699,8.715623,-1.954884,0.840738,-0.989289,0.243001,0.056016,-0.195405,0.310303,-0.084961,-1.125977,-0.020141,0.015231,0.087180,0.999999,0.001215,0.000280,-0.000977,0.997162,0.052083,-0.003533,-0.054244
43939,NaN,-2.149751,1.680826,8.319312,-2.056605,1.029724,-1.364754,0.158343,0.074417,-0.264487,0.314453,-0.084961,-1.128174,-0.021444,0.016771,0.083214,0.999999,0.000792,0.000372,-0.001322,0.997049,0.052899,-0.003121,-0.055538
43940,NaN,-2.447540,1.679121,8.241056,-2.317486,1.062450,-1.432631,0.189855,0.027932,-0.337814,0.312256,-0.082764,-1.128174,-0.024436,0.016754,0.082430,0.999998,0.000949,0.000140,-0.001689,0.996814,0.054039,-0.001632,-0.058643
43941,NaN,-2.124722,1.791737,8.330135,-1.980704,1.113636,-1.330204,0.283649,-0.050639,-0.359112,0.312256,-0.082764,-1.126221,-0.021236,0.017837,0.083321,0.999997,0.001418,-0.000253,-0.001796,0.996629,0.055443,-0.001856,-0.060441
43942,NaN,-1.526330,1.810119,8.306108,-1.356106,1.041885,-1.346694,0.303970,-0.006404,-0.325501,0.310303,-0.084961,-1.130371,-0.015237,0.018000,0.083088,0.999998,0.001520,-0.000032,-0.001628,0.996340,0.057181,-0.000556,-0.063541
43943,NaN,-0.796069,1.752475,8.576890,-0.633233,0.840945,-1.085734,0.233030,0.126072,-0.260145,0.316895,-0.091309,-1.121826,-0.007884,0.017435,0.085794,0.999998,0.001165,0.000630,-0.001301,0.996189,0.058384,0.000087,-0.064797
43944,NaN,-0.318289,1.854386,9.164543,-0.102285,0.789275,-0.490917,0.086408,0.295339,-0.189575,0.325195,-0.091309,-1.121826,-0.003030,0.018507,0.091658,0.999998,0.000432,0.001477,-0.000948,0.995986,0.059170,0.002867,-0.067106
43945,NaN,-0.102988,2.106828,9.737799,0.179623,0.934343,0.105410,-0.035472,0.392609,-0.179535,0.331543,-0.089111,-1.121826,-0.000820,0.021086,0.097376,0.999998,-0.000177,0.001963,-0.000898,0.995928,0.059124,0.004903,-0.067880
43946,NaN,-0.712704,2.138550,10.300657,-0.348132,0.976356,0.680656,-0.105981,0.362695,-0.209827,0.327393,-0.089111,-1.117676,-0.006918,0.021447,0.103008,0.999998,-0.000530,0.001813,-0.001049,0.995756,0.059009,0.007985,-0.070168
43947,NaN,-1.274947,2.076781,10.551933,-0.871291,0.970678,0.938141,-0.092743,0.288182,-0.232724,0.335693,-0.086914,-1.124023,-0.012573,0.020831,0.105528,0.999998,-0.000464,0.001441,-0.001164,0.995689,0.058641,0.009537,-0.071235
43948,NaN,-1.113946,2.041585,10.439814,-0.659318,0.926949,0.822380,-0.077158,0.197039,-0.240125,0.333740,-0.089111,-1.119873,-0.011012,0.020469,0.104401,0.999999,-0.000386,0.000985,-0.001201,0.995489,0.058643,0.011735,-0.073660
43949,NaN,-0.750227,1.841827,9.896174,-0.310876,0.748093,0.248778,-0.070498,0.203080,-0.225608,0.337891,-0.084961,-1.117676,-0.007381,0.018462,0.098963,0.999999,-0.000352,0.001015,-0.001128,0.995413,0.058355,0.012853,-0.074716
43950,NaN,-0.498573,1.360975,9.468802,-0.093179,0.285704,-0.238312,-0.066829,0.250829,-0.241039,0.339844,-0.078369,-1.119873,-0.004851,0.013647,0.094690,0.999998,-0.000334,0.001254,-0.001205,0.995194,0.058449,0.015259,-0.077068
43951,NaN,-0.770738,1.209799,9.104872,-0.365318,0.224433,-0.605491,-0.049000,0.258209,-0.258602,0.343994,-0.078613,-1.113525,-0.007574,0.012130,0.091056,0.999998,-0.000245,0.001291,-0.001293,0.995087,0.058287,0.016654,-0.078273
43952,NaN,-0.823342,1.286862,9.090934,-0.360946,0.307955,-0.606504,-0.094082,0.190880,-0.268735,0.348389,-0.082764,-1.113525,-0.008129,0.012922,0.090911,0.999999,-0.000470,0.000954,-0.001344,0.994863,0.058204,0.018714,-0.080682
43953,NaN,-1.158250,1.256895,9.289540,-0.669185,0.320140,-0.396397,-0.183966,0.146218,-0.267501,0.350342,-0.072021,-1.111572,-0.011498,0.012670,0.092892,0.999998,-0.000920,0.000731,-0.001338,0.994793,0.057325,0.019610,-0.081950
43954,NaN,-1.464311,1.325827,9.858070,-0.904692,0.383149,0.193223,-0.192382,0.084624,-0.239340,0.354492,-0.072021,-1.117920,-0.014585,0.013371,0.098574,0.999999,-0.000962,0.000423,-0.001197,0.994612,0.056702,0.021130,-0.084173
43955,NaN,-1.281169,1.039850,10.628901,-0.737705,0.001965,0.918202,-0.144804,-0.005120,-0.201872,0.356445,-0.067871,-1.120117,-0.012804,0.010488,0.106281,0.999999,-0.000724,-0.000026,-0.001009,0.994568,0.055961,0.021238,-0.085160
43956,NaN,-0.980663,0.942640,10.595866,-0.437900,-0.131784,0.860340,-0.094146,-0.045744,-0.158894,0.352295,-0.067871,-1.113770,-0.009823,0.009484,0.105952,1.000000,-0.000471,-0.000229,-0.000794,0.994405,0.055759,0.022021,-0.086977
43957,NaN,-0.821119,0.731908,10.268634,-0.329680,-0.319409,0.504485,-0.034459,-0.022232,-0.119921,0.354492,-0.069824,-1.107422,-0.008218,0.007342,0.102684,1.000000,-0.000172,-0.000111,-0.000600,0.994364,0.055568,0.021975,-0.087574
43958,NaN,-0.827136,0.704677,9.848981,-0.337453,-0.297742,0.085829,-0.049066,-0.013565,-0.086846,0.350098,-0.065674,-1.109375,-0.008275,0.007075,0.098488,1.000000,-0.000245,-0.000068,-0.000434,0.994221,0.055576,0.022831,-0.088959
43959,NaN,-0.776748,0.751429,9.573472,-0.287966,-0.222071,-0.185274,-0.090406,-0.002003,-0.051493,0.347900,-0.067871,-1.115723,-0.007766,0.007560,0.095731,1.000000,-0.000452,-0.000010,-0.000257,0.994224,0.055122,0.022892,-0.089203
43960,NaN,-0.614135,0.919069,9.539718,-0.080243,-0.077990,-0.209795,-0.123029,0.012066,-0.017992,0.345703,-0.061279,-1.109375,-0.006135,0.009250,0.095392,1.000000,-0.000615,0.000060,-0.000090,0.994136,0.054748,0.023843,-0.090160
43961,NaN,-0.617151,0.990005,9.580573,-0.064447,-0.002057,-0.161563,-0.110734,0.028307,-0.006675,0.350098,-0.065674,-1.115723,-0.006158,0.009953,0.095801,1.000000,-0.000554,0.000142,-0.000033,0.994159,0.054212,0.024052,-0.090169
43962,NaN,-0.537839,0.969362,9.637224,0.032448,-0.039699,-0.112049,-0.074583,0.044200,-0.005657,0.352051,-0.059082,-1.120117,-0.005357,0.009730,0.096370,1.000000,-0.000373,0.000221,-0.000028,0.994066,0.054076,0.025085,-0.090994
43963,NaN,-0.634850,0.887865,9.672384,-0.070199,-0.101837,-0.079700,-0.033935,0.058798,-0.003114,0.354004,-0.059326,-1.113770,-0.006320,0.008895,0.096724,1.000000,-0.000170,0.000294,-0.000016,0.994066,0.053936,0.025410,-0.090987
43964,NaN,-0.670286,0.823272,9.799079,-0.091321,-0.176313,0.041732,-0.014221,0.055237,0.002890,0.352051,-0.063477,-1.115723,-0.006676,0.008240,0.097992,1.000000,-0.000071,0.000276,0.000014,0.993965,0.054089,0.026418,-0.091709
43965,NaN,-0.771185,0.806936,9.886212,-0.185472,-0.183212,0.132919,-0.017446,0.019906,-0.000486,0.349854,-0.059326,-1.111572,-0.007702,0.008078,0.098862,1.000000,-0.000087,0.000100,-0.000002,0.993966,0.054014,0.026542,-0.091701
43966,NaN,-0.734188,0.861026,9.800896,-0.128367,-0.129076,0.051633,-0.036150,-0.016167,-0.007530,0.354248,-0.063477,-1.113770,-0.007349,0.008628,0.098007,1.000000,-0.000181,-0.000081,-0.000038,0.993882,0.054002,0.027164,-0.092438
43967,NaN,-0.695508,0.904180,9.556159,-0.094457,-0.061511,-0.189344,-0.057024,-0.038064,-0.011157,0.341309,-0.059082,-1.120117,-0.006973,0.009069,0.095558,1.000000,-0.000285,-0.000190,-0.000056,0.993897,0.053703,0.027021,-0.092494
43968,NaN,-0.685742,0.882653,9.438522,-0.083818,-0.067395,-0.308823,-0.089101,-0.039176,-0.000852,0.347656,-0.057129,-1.117920,-0.006876,0.008869,0.094380,1.000000,-0.000446,-0.000196,-0.000004,0.993839,0.053401,0.027512,-0.093145
43969,NaN,-0.696007,0.865090,9.470098,-0.097798,-0.075858,-0.278526,-0.118388,-0.047837,0.017311,0.347656,-0.057129,-1.117920,-0.006983,0.008706,0.094694,1.000000,-0.000592,-0.000239,0.000087,0.993884,0.052796,0.027341,-0.093053
43970,NaN,-0.689166,0.908730,9.565477,-0.069032,-0.035768,-0.179774,-0.138073,-0.044334,0.044092,0.351807,-0.052734,-1.115967,-0.006915,0.009152,0.095647,1.000000,-0.000690,-0.000222,0.000220,0.993866,0.052240,0.027782,-0.093429
43971,NaN,-0.566537,0.913524,9.490460,0.047635,-0.032341,-0.261719,-0.131953,-0.024139,0.074018,0.347656,-0.054932,-1.115967,-0.005680,0.009196,0.094898,1.000000,-0.000660,-0.000121,0.000370,0.993938,0.051587,0.027721,-0.093047
43972,NaN,-0.585674,0.926987,9.527863,0.045129,-0.010912,-0.222050,-0.133341,0.010572,0.102700,0.345459,-0.054932,-1.120117,-0.005856,0.009330,0.095273,1.000000,-0.000667,0.000053,0.000514,0.993943,0.051079,0.028382,-0.093077
43973,NaN,-0.615273,0.898627,9.589696,0.016981,-0.027734,-0.161403,-0.142583,0.026589,0.128402,0.349854,-0.057129,-1.117920,-0.006146,0.009051,0.095891,1.000000,-0.000713,0.000133,0.000642,0.994034,0.050404,0.028564,-0.092409
43974,NaN,-0.546786,0.892610,9.724115,0.103502,-0.050837,-0.033074,-0.143915,0.019932,0.133303,0.345459,-0.050537,-1.117920,-0.005464,0.008992,0.097235,1.000000,-0.000720,0.000100,0.000667,0.994059,0.049847,0.029229,-0.092241
43975,NaN,-0.472821,0.825755,9.805429,0.170623,-0.125727,0.036523,-0.129931,0.012431,0.142262,0.343262,-0.050537,-1.109619,-0.004728,0.008318,0.098049,1.000000,-0.000650,0.000062,0.000711,0.994154,0.049231,0.029332,-0.091510
43976,NaN,-0.423316,0.785553,9.822165,0.224367,-0.168296,0.045940,-0.099343,0.009977,0.130973,0.349365,-0.044189,-1.118164,-0.004233,0.007902,0.098218,1.000000,-0.000497,0.000050,0.000655,0.994173,0.048876,0.029891,-0.091309
43977,NaN,-0.320451,0.758884,9.729625,0.317895,-0.195203,-0.055381,-0.080901,0.017421,0.130115,0.349609,-0.050537,-1.113770,-0.003201,0.007626,0.097293,1.000000,-0.000405,0.000087,0.000651,0.994249,0.048504,0.029999,-0.090644
43978,NaN,-0.408175,0.744072,9.686466,0.237898,-0.185473,-0.093795,-0.079014,0.016830,0.122586,0.349609,-0.050537,-1.115967,-0.004078,0.007476,0.096862,1.000000,-0.000395,0.000084,0.000613,0.994263,0.048241,0.030551,-0.090450
43979,NaN,-0.410616,0.688121,9.752455,0.231501,-0.238631,-0.033018,-0.101209,0.021811,0.120526,0.345215,-0.046387,-1.115967,-0.004100,0.006928,0.097521,1.000000,-0.000506,0.000109,0.000603,0.994337,0.047769,0.030693,-0.089828
