// Start Time: Unknown
// Update Rate: 100.0Hz
// Filter Profile: human (46.1)
// Firmware Version: 4.4.0
PacketCounter,SampleTimeFine,Acc_X,Acc_Y,Acc_Z,FreeAcc_X,FreeAcc_Y,FreeAcc_Z,Gyr_X,Gyr_Y,Gyr_Z,Mag_X,Mag_Y,Mag_Z,VelInc_X,VelInc_Y,VelInc_Z,OriInc_q0,OriInc_q1,OriInc_q2,OriInc_q3,Quat_q0,Quat_q1,Quat_q2,Quat_q3
34486,NaN,7.740744,0.234135,5.108107,0.000000,-0.000000,-0.535504,-1.572338,0.442015,-0.140364,-0.961914,-0.162598,-0.192627,0.077522,0.002688,0.050890,0.999966,-0.007862,0.002210,-0.000702,-0.170838,-0.468983,0.076039,-0.863184
34487,NaN,7.615482,0.085552,5.396406,-0.000000,-0.000000,-0.478690,-1.551314,0.444850,-0.168049,-0.966064,-0.162598,-0.200928,0.076276,0.001209,0.053786,0.999967,-0.007756,0.002224,-0.000840,-0.173476,-0.452801,0.082781,-0.870646
34488,NaN,7.515862,-0.212193,5.561797,0.495541,0.244010,-0.476674,-1.534366,0.442488,-0.176548,-0.962158,-0.156006,-0.209473,0.075280,-0.001762,0.055466,0.999968,-0.007672,0.002212,-0.000883,-0.175108,-0.459261,0.082542,-0.866951
34489,NaN,7.286442,-0.352824,5.351534,0.443938,0.331470,-0.782288,-1.624009,0.447291,-0.153761,-0.964111,-0.162598,-0.213623,0.072981,-0.003151,0.053379,0.999964,-0.008120,0.002236,-0.000769,-0.179682,-0.455947,0.088834,-0.867142
34490,NaN,6.876051,-0.278167,5.309570,0.527409,0.120062,-1.137682,-1.718458,0.454458,-0.102121,-0.958008,-0.156006,-0.226318,0.068880,-0.002361,0.052961,0.999960,-0.008592,0.002272,-0.000511,-0.184174,-0.452243,0.095788,-0.867399
34491,NaN,6.665222,-0.179839,5.371970,0.578471,-0.102428,-1.270452,-1.672697,0.432345,-0.085467,-0.955811,-0.153809,-0.234863,0.066768,-0.001378,0.053588,0.999963,-0.008363,0.002162,-0.000427,-0.188527,-0.448852,0.102447,-0.867464
34492,NaN,6.520316,-0.205198,5.122409,0.410084,-0.077202,-1.528911,-1.636704,0.423561,-0.075292,-0.956055,-0.145264,-0.234863,0.065311,-0.001658,0.051100,0.999964,-0.008183,0.002118,-0.000376,-0.193244,-0.445025,0.108660,-0.867642
34493,NaN,6.496225,-0.243357,5.253800,0.473009,-0.151887,-1.469115,-1.510425,0.417071,-0.056093,-0.958252,-0.147461,-0.243408,0.065071,-0.002056,0.052419,0.999969,-0.007552,0.002085,-0.000280,-0.197069,-0.441773,0.114681,-0.867669
34494,NaN,6.518642,-0.445432,5.349464,0.552561,-0.055184,-1.386594,-1.317023,0.395530,-0.047739,-0.954102,-0.147461,-0.247559,0.065291,-0.004118,0.053393,0.999976,-0.006585,0.001978,-0.000239,-0.200043,-0.438411,0.120066,-0.867965
34495,NaN,6.531171,-0.696429,5.420289,0.656349,0.099379,-1.322711,-1.177197,0.392999,-0.042891,-0.949951,-0.140869,-0.258301,0.065417,-0.006660,0.054114,0.999981,-0.005886,0.001965,-0.000214,-0.203041,-0.435545,0.124686,-0.868060
34496,NaN,6.526531,-0.937597,5.397225,0.691805,0.286034,-1.324813,-1.072071,0.391146,-0.026492,-0.954590,-0.134521,-0.264648,0.065370,-0.009096,0.053894,0.999984,-0.005360,0.001956,-0.000132,-0.205904,-0.432061,0.128812,-0.868524
34497,NaN,6.417730,-1.148338,5.265430,0.709539,0.459677,-1.475085,-1.046561,0.406278,0.016484,-0.950195,-0.134521,-0.270996,0.064285,-0.011203,0.052583,0.999984,-0.005233,0.002031,0.000082,-0.208352,-0.429201,0.132972,-0.868731
34498,NaN,6.191887,-1.226576,5.281489,0.816005,0.414976,-1.633468,-1.078071,0.425106,0.079985,-0.950195,-0.136475,-0.275146,0.062036,-0.011957,0.052748,0.999983,-0.005390,0.002126,0.000400,-0.210947,-0.425330,0.138402,-0.869161
34499,NaN,6.165636,-1.187318,5.151480,0.668590,0.383494,-1.727640,-1.154615,0.451716,0.152499,-0.950195,-0.134521,-0.277344,0.061781,-0.011529,0.051443,0.999980,-0.005773,0.002259,0.000762,-0.213048,-0.422035,0.143265,-0.869466
34500,NaN,5.075433,-1.486603,5.530105,1.597831,0.137382,-2.330743,-1.255274,0.457610,0.251738,-0.950684,-0.123779,-0.288086,0.050899,-0.014455,0.055276,0.999977,-0.006276,0.002288,0.001259,-0.216345,-0.417310,0.150482,-0.869714
34501,NaN,5.148767,-1.576331,5.534519,1.547260,0.168485,-2.249453,-1.150613,0.353552,0.341026,-0.950928,-0.119385,-0.292236,0.051612,-0.015357,0.055343,0.999980,-0.005753,0.001768,0.001705,-0.217525,-0.414263,0.155811,-0.869938
34502,NaN,5.149505,-1.902266,5.817389,1.812843,0.229098,-2.025624,-1.205762,0.320088,0.450499,-0.951172,-0.110840,-0.294434,0.051630,-0.018556,0.058204,0.999978,-0.006029,0.001600,0.002252,-0.219565,-0.409450,0.163685,-0.870258
34503,NaN,5.012891,-2.106245,6.158654,2.151733,0.127908,-1.885077,-1.279021,0.313327,0.566907,-0.945068,-0.100098,-0.300781,0.050284,-0.020526,0.061640,0.999974,-0.006395,0.001567,0.002835,-0.219968,-0.406208,0.170063,-0.870453
34504,NaN,4.904305,-2.104966,6.469884,2.299027,-0.166416,-1.748693,-1.297452,0.314927,0.681055,-0.949707,-0.089355,-0.301025,0.049215,-0.020462,0.064755,0.999972,-0.006487,0.001575,0.003405,-0.221088,-0.400446,0.179080,-0.871030
34505,NaN,4.978714,-2.330221,7.099412,2.684178,-0.366041,-1.252380,-1.231651,0.348877,0.788278,-0.949951,-0.083008,-0.311523,0.050001,-0.022668,0.071048,0.999972,-0.006158,0.001744,0.003941,-0.220427,-0.396848,0.185632,-0.871473
34506,NaN,4.784559,-2.556916,8.158583,3.414775,-0.864237,-0.670297,-0.967570,0.362432,0.850304,-0.943848,-0.072266,-0.318115,0.048100,-0.024970,0.081621,0.999978,-0.004838,0.001812,0.004251,-0.219403,-0.390353,0.192754,-0.873117
34507,NaN,4.560382,-2.691311,9.112006,4.105021,-1.370453,-0.203392,-0.648798,0.298457,0.850468,-0.941895,-0.065674,-0.320312,0.045853,-0.026423,0.091138,0.999985,-0.003244,0.001492,0.004252,-0.217241,-0.387512,0.196916,-0.873993
34508,NaN,4.229801,-2.034751,9.027052,3.748459,-2.013300,-0.570715,-0.614914,0.181085,0.769536,-0.946533,-0.050781,-0.316162,0.042457,-0.019907,0.090294,0.999987,-0.003075,0.000905,0.003848,-0.215413,-0.381129,0.201759,-0.876145
34509,NaN,4.218827,-0.917858,8.305271,2.686202,-2.642043,-1.244049,-0.895206,-0.039412,0.614373,-0.948730,-0.048584,-0.316162,0.042199,-0.008677,0.083101,0.999985,-0.004476,-0.000197,0.003072,-0.214385,-0.379713,0.206891,-0.875816
34510,NaN,4.779107,0.010364,7.862990,1.505446,-3.049926,-1.263009,-1.223626,-0.232142,0.416907,-0.942627,-0.044189,-0.320312,0.047699,0.000684,0.078682,0.999978,-0.006118,-0.001161,0.002085,-0.208484,-0.375310,0.207659,-0.878951
34511,NaN,5.336247,0.150339,7.638286,0.913006,-3.037723,-1.050322,-1.350221,-0.328109,0.202396,-0.944824,-0.037842,-0.313965,0.053235,0.002073,0.076458,0.999975,-0.006751,-0.001641,0.001012,-0.209783,-0.375125,0.214310,-0.877122
34512,NaN,5.790121,-0.322473,7.164664,0.524841,-2.349042,-0.915070,-1.321221,-0.304533,0.019114,-0.947021,-0.037842,-0.316162,0.057792,-0.002745,0.071754,0.999977,-0.006606,-0.001523,0.000096,-0.210366,-0.371778,0.217821,-0.877543
34513,NaN,5.684559,-1.138801,6.711858,0.753735,-1.544026,-1.111680,-1.132386,-0.226071,-0.144603,-0.947266,-0.029297,-0.312012,0.056762,-0.011049,0.067246,0.999983,-0.005662,-0.001130,-0.000723,-0.212855,-0.371730,0.222755,-0.875723
34514,NaN,4.772059,-1.941132,6.602264,1.650129,-0.995721,-1.663096,-0.811097,-0.189967,-0.321999,-0.938721,-0.031494,-0.318359,0.047627,-0.019220,0.066146,0.999990,-0.004055,-0.000950,-0.001610,-0.211960,-0.369039,0.221011,-0.877518
34515,NaN,4.254312,-2.805449,6.891573,2.625374,-0.593021,-1.675178,-0.307969,-0.347525,-0.547297,-0.942627,-0.040039,-0.307617,0.042346,-0.028064,0.069033,0.999994,-0.001540,-0.001738,-0.002736,-0.214544,-0.370840,0.221719,-0.875950
34516,NaN,3.961900,-3.388492,7.180120,3.312770,-0.265637,-1.585491,0.384294,-0.730672,-0.835078,-0.948730,-0.046387,-0.303467,0.039214,-0.034187,0.071879,0.999983,0.001921,-0.003653,-0.004175,-0.214949,-0.373120,0.215843,-0.876351
34517,NaN,4.969521,-3.483404,6.677584,2.567789,0.337884,-1.169167,0.869239,-1.142271,-1.101685,-0.944092,-0.057373,-0.284424,0.049119,-0.035396,0.066904,0.999959,0.004346,-0.005711,-0.005508,-0.216913,-0.380232,0.211197,-0.873938
34518,NaN,5.496508,-4.097282,3.642892,0.886645,2.695760,-2.586708,1.024211,-1.312789,-1.314250,-0.949707,-0.078857,-0.269287,0.054454,-0.041519,0.036576,0.999944,0.005121,-0.006564,-0.006571,-0.213835,-0.385812,0.200357,-0.874803
34519,NaN,5.062556,-5.245202,-1.763362,-1.336122,6.380955,-6.104739,1.699200,-1.480076,-1.445819,-0.949219,-0.093750,-0.256592,0.050376,-0.052667,-0.017707,0.999910,0.008496,-0.007400,-0.007229,-0.215380,-0.395516,0.191700,-0.872026
34520,NaN,6.603023,-6.916384,-4.411980,-2.965112,9.474668,-6.299886,3.016666,-1.802981,-1.343739,-0.948486,-0.115234,-0.230957,0.065967,-0.068937,-0.044566,0.999823,0.015082,-0.009014,-0.006718,-0.214302,-0.405896,0.180815,-0.869844
34521,NaN,10.776311,-7.917356,-1.410353,-2.995656,9.840628,-1.153055,3.638794,-1.938843,-1.172016,-0.941650,-0.128174,-0.207764,0.107437,-0.079542,-0.014506,0.999770,0.018193,-0.009693,-0.005860,-0.210213,-0.419193,0.164647,-0.867744
34522,NaN,13.524787,-8.158747,2.504617,-1.590324,8.857140,3.407553,2.946316,-1.752628,-1.053897,-0.945312,-0.145508,-0.190674,0.134595,-0.082667,0.025015,0.999839,0.014731,-0.008763,-0.005269,-0.211560,-0.430752,0.159965,-0.862616
34523,NaN,16.688262,-6.753887,5.837070,-1.505591,6.991804,7.709365,2.012503,-1.610460,-0.963380,-0.945068,-0.151855,-0.175781,0.166079,-0.068932,0.059021,0.999905,0.010062,-0.008052,-0.004817,-0.210073,-0.440556,0.150898,-0.859656
34524,NaN,19.874710,-2.144292,7.079547,-4.157015,3.090599,10.751265,1.763754,-1.313778,-0.944288,-0.946533,-0.169189,-0.158691,0.198171,-0.023010,0.071900,0.999928,0.008819,-0.006569,-0.004721,-0.217980,-0.448295,0.156584,-0.852642
34525,NaN,19.072265,4.193049,1.365499,-10.630268,0.216674,6.623115,3.370730,-0.919360,-0.905279,-0.941895,-0.186279,-0.141602,0.190842,0.040819,0.015226,0.999837,0.016853,-0.004597,-0.004526,-0.213529,-0.456524,0.141162,-0.852094
34526,NaN,15.073590,5.969727,-4.032603,-13.092142,0.234368,0.561920,5.525599,-1.030586,-0.863464,-0.941650,-0.190674,-0.114258,0.151194,0.060114,-0.037891,0.999596,0.027624,-0.005152,-0.004317,-0.213885,-0.467969,0.131142,-0.847384
34527,NaN,11.842107,4.310743,-1.274136,-8.466493,-0.471260,-0.403931,5.956030,-1.166945,-0.545466,-0.943359,-0.199219,-0.088623,0.118605,0.043124,-0.010765,0.999536,0.029776,-0.005834,-0.002727,-0.201398,-0.479422,0.105822,-0.847582
34528,NaN,10.027777,3.304669,3.430234,-3.185634,-1.847672,0.659764,5.150751,-1.021530,-0.125808,-0.938965,-0.199463,-0.069580,0.100118,0.032077,0.035649,0.999655,0.025751,-0.005107,-0.000629,-0.194721,-0.493855,0.092315,-0.842418
34529,NaN,8.705138,3.506804,4.285112,-1.727990,-2.578258,0.025995,4.148046,-0.835356,0.202966,-0.940918,-0.201660,-0.054932,0.086834,0.034253,0.043930,0.999776,0.020739,-0.004176,0.001015,-0.183194,-0.501208,0.076138,-0.842279
34530,NaN,7.420330,2.984779,1.853334,-2.706394,-1.637060,-2.236568,3.721613,-0.927637,0.315851,-0.932373,-0.203857,-0.031738,0.074068,0.029609,0.019430,0.999815,0.018607,-0.004638,0.001579,-0.177711,-0.512183,0.070169,-0.837355
34531,NaN,7.737491,2.365172,1.925781,-2.374308,-1.030686,-1.908944,3.326685,-1.180325,0.272802,-0.938965,-0.190918,-0.014893,0.077226,0.023427,0.020105,0.999843,0.016633,-0.005901,0.001364,-0.167607,-0.519906,0.057978,-0.835610
34532,NaN,8.815412,3.390256,1.907399,-2.949854,-1.786246,-0.815650,2.972150,-1.431053,0.241144,-0.938721,-0.193115,0.004150,0.087972,0.033714,0.020206,0.999863,0.014860,-0.007155,0.001206,-0.163511,-0.531012,0.053935,-0.829688
34533,NaN,10.084122,4.032757,1.033449,-4.166632,-1.943984,0.080466,3.093454,-1.473277,0.299634,-0.938965,-0.186768,0.019043,0.100698,0.040305,0.011700,0.999852,0.015467,-0.007366,0.001498,-0.153633,-0.539494,0.043095,-0.826732
34534,NaN,11.769263,3.038875,0.629618,-4.537168,-0.657941,1.462152,3.704832,-1.279747,0.520506,-0.941162,-0.182617,0.040039,0.117567,0.030562,0.007614,0.999805,0.018523,-0.006398,0.002602,-0.142465,-0.550281,0.032645,-0.822088
34535,NaN,13.317091,1.892896,0.875155,-4.349348,0.591443,2.931850,4.714827,-0.896351,0.787806,-0.939453,-0.165527,0.065430,0.133053,0.019230,0.009799,0.999704,0.023572,-0.004481,0.003939,-0.126066,-0.557033,0.016064,-0.820709
34536,NaN,14.301055,2.241651,1.630583,-3.787793,0.193861,4.251975,5.758706,-0.623938,1.015943,-0.939697,-0.150635,0.080078,0.142843,0.022652,0.017402,0.999568,0.028789,-0.003119,0.005079,-0.106534,-0.566039,-0.002525,-0.817462
34537,NaN,13.822387,4.493813,-0.083541,-5.370469,-2.048219,3.536936,4.745895,-0.523206,1.353073,-0.938232,-0.131348,0.094727,0.137915,0.045869,0.000607,0.999692,0.023727,-0.002616,0.006765,-0.087547,-0.570549,-0.017812,-0.816389
34538,NaN,13.097162,5.256054,-0.369079,-5.104377,-3.115041,2.975127,2.416795,-1.590043,1.126293,-0.942383,-0.125000,0.117920,0.130693,0.053328,-0.002010,0.999880,0.012083,-0.007950,0.005631,-0.076076,-0.581418,-0.023053,-0.809712
34539,NaN,12.876452,3.069578,2.519603,-1.747948,-1.270922,3.487333,1.463237,-2.563820,0.719679,-0.934082,-0.114258,0.138916,0.128314,0.030965,0.027069,0.999885,0.007316,-0.012819,0.003598,-0.069195,-0.592371,-0.025907,-0.802270
34540,NaN,11.812501,2.305395,3.487199,0.011921,-0.783124,2.692768,1.430604,-2.592574,0.813882,-0.929932,-0.107910,0.170654,0.117564,0.023276,0.036564,0.999882,0.007153,-0.012962,0.004069,-0.061101,-0.606503,-0.029235,-0.792191
34541,NaN,11.800261,3.486408,3.959882,0.787658,-2.027630,2.928379,2.063366,-2.824248,0.868057,-0.926270,-0.086670,0.197998,0.117273,0.034952,0.041619,0.999838,0.010316,-0.014120,0.004340,-0.051808,-0.618349,-0.033907,-0.783461
34542,NaN,12.596611,5.482485,3.605506,0.757193,-3.950811,3.808165,2.148599,-2.929819,0.987184,-0.919922,-0.080322,0.225342,0.125143,0.055039,0.038483,0.999823,0.010742,-0.014648,0.004936,-0.040668,-0.633086,-0.039932,-0.771981
34543,NaN,14.818180,6.887641,3.983691,1.269859,-5.151009,6.146750,2.161038,-3.393712,0.888079,-0.909668,-0.065430,0.261230,0.147163,0.069078,0.043086,0.999788,0.010804,-0.016967,0.004440,-0.031069,-0.646668,-0.044763,-0.760823
34544,NaN,17.576378,7.375624,5.223755,2.967138,-5.255761,9.005579,2.527122,-3.666518,0.690856,-0.903564,-0.048340,0.292725,0.174501,0.073666,0.056376,0.999746,0.012635,-0.018331,0.003454,-0.019331,-0.663003,-0.054967,-0.746346
34545,NaN,18.709296,9.324543,5.454669,3.967892,-7.064917,10.212968,1.619044,-3.282069,0.748896,-0.888916,-0.037842,0.322266,0.185806,0.093481,0.058359,0.999826,0.008095,-0.016409,0.003744,-0.012068,-0.675498,-0.058199,-0.734963
34546,NaN,17.643812,6.969632,6.965540,6.275606,-4.561886,8.846481,1.511620,-3.051403,0.642289,-0.880371,-0.033447,0.347412,0.175119,0.069718,0.072861,0.999850,0.007558,-0.015256,0.003211,-0.003047,-0.688044,-0.067206,-0.722544
34547,NaN,15.668884,5.835481,8.219457,8.146956,-3.452826,6.582332,1.554478,-3.110425,0.385504,-0.867920,-0.020752,0.368408,0.155269,0.058001,0.085069,0.999847,0.007772,-0.015551,0.001927,0.002649,-0.699329,-0.071437,-0.711216
34548,NaN,13.609029,3.134589,9.469164,9.686901,-0.528446,3.991597,1.591140,-2.809232,0.382062,-0.853271,-0.010254,0.395752,0.134681,0.030839,0.096837,0.999868,0.007955,-0.014046,0.001910,0.010908,-0.709485,-0.082479,-0.699792
34549,NaN,11.368881,2.465869,10.352211,10.816185,0.162011,1.388541,1.928684,-2.458384,0.459352,-0.845215,0.002686,0.414795,0.112348,0.023909,0.105142,0.999875,0.009643,-0.012291,0.002297,0.018342,-0.718084,-0.087722,-0.690162
34550,NaN,9.797425,3.692400,11.146218,12.017229,-0.688414,-0.381153,2.618801,-2.323528,0.537637,-0.836914,0.015381,0.437744,0.096570,0.035711,0.113062,0.999843,0.013093,-0.011617,0.002688,0.030437,-0.725118,-0.100969,-0.680501
34551,NaN,7.807020,6.045524,10.409607,11.878179,-3.087752,-2.381839,2.426627,-1.857730,0.660062,-0.833252,0.036865,0.450439,0.076897,0.059436,0.105539,0.999878,0.012133,-0.009288,0.003300,0.040539,-0.731316,-0.107102,-0.672357
34552,NaN,6.154857,6.795015,8.708067,10.478015,-3.993417,-3.969625,1.905346,-1.378892,0.626009,-0.822998,0.049561,0.458740,0.060732,0.067305,0.088145,0.999926,0.009526,-0.006894,0.003130,0.050442,-0.733989,-0.117471,-0.667021
34553,NaN,5.093020,5.746948,7.161438,8.777148,-3.319077,-5.101540,1.525681,-0.960661,0.484447,-0.821045,0.056152,0.462891,0.050446,0.057042,0.072294,0.999956,0.007628,-0.004803,0.002422,0.057091,-0.737061,-0.121019,-0.662447
34554,NaN,3.899897,4.512325,6.062052,7.380769,-2.319600,-6.282613,1.277733,-0.524849,0.387742,-0.812988,0.071045,0.464844,0.038752,0.044810,0.061009,0.999974,0.006389,-0.002624,0.001939,0.064314,-0.736096,-0.130606,-0.661035
34555,NaN,3.382696,4.376860,4.976639,6.298796,-2.473046,-6.718278,1.006281,0.015740,0.264960,-0.819336,0.073242,0.462646,0.033773,0.043562,0.049983,0.999986,0.005031,0.000079,0.001325,0.068903,-0.735885,-0.132949,-0.660341
34556,NaN,2.161783,5.351528,3.514080,5.131174,-3.816892,-7.630230,0.874884,0.586674,0.132481,-0.823975,0.081787,0.462646,0.021686,0.053375,0.035311,0.999986,0.004374,0.002933,0.000662,0.074497,-0.730799,-0.141875,-0.663517
34557,NaN,0.609018,6.562912,1.950176,3.929617,-5.563493,-8.890041,0.837831,0.979632,-0.101192,-0.826172,0.083984,0.454102,0.006220,0.065544,0.019746,0.999979,0.004189,0.004898,-0.000506,0.077916,-0.727150,-0.144657,-0.666525
34558,NaN,0.026186,6.849707,2.922914,5.015875,-5.491914,-9.435849,0.658196,1.186572,-0.325334,-0.832275,0.077637,0.441650,0.000547,0.068400,0.029452,0.999976,0.003291,0.005933,-0.001627,0.081869,-0.719505,-0.155023,-0.671996
34559,NaN,-0.590251,5.923896,4.145651,5.855283,-4.268258,-10.165338,0.039310,1.409502,-0.477444,-0.845215,0.077637,0.431152,-0.005469,0.059244,0.041508,0.999972,0.000197,0.007047,-0.002387,0.081497,-0.714364,-0.156291,-0.677212
34560,NaN,-0.624382,4.886732,3.525860,4.979335,-3.438191,-10.106001,-0.714779,1.605225,-0.585270,-0.842773,0.066895,0.418457,-0.005818,0.049010,0.035131,0.999957,-0.003574,0.008026,-0.002926,0.080204,-0.705255,-0.163264,-0.685221
34561,NaN,-0.073363,2.969272,3.225736,4.034754,-1.710980,-9.671326,-1.031212,1.763214,-0.684409,-0.859375,0.054199,0.401611,-0.000348,0.029860,0.032108,0.999942,-0.005156,0.008816,-0.003422,0.075658,-0.699029,-0.161427,-0.692514
34562,NaN,0.669758,1.057905,3.318131,3.457755,0.225950,-9.057670,-0.980980,1.994222,-0.633828,-0.867676,0.045654,0.389160,0.007061,0.010719,0.033060,0.999933,-0.004905,0.009971,-0.003169,0.073758,-0.688326,-0.167192,-0.702007
34563,NaN,1.333693,0.243477,3.050318,2.885204,0.955134,-8.432392,-1.021452,2.284702,-0.534649,-0.876221,0.039307,0.365967,0.013691,0.002554,0.030335,0.999918,-0.005107,0.011423,-0.002673,0.070270,-0.680181,-0.164591,-0.710863
34564,NaN,3.136468,0.778397,2.726422,2.546826,0.589042,-6.489716,-1.392170,2.666929,-0.424253,-0.888916,0.032959,0.342773,0.031741,0.007904,0.026788,0.999885,-0.006961,0.013334,-0.002121,0.068323,-0.667228,-0.166796,-0.722716
34565,NaN,6.760720,-0.003278,1.590259,0.712656,1.336157,-3.034864,-1.592230,3.229970,-0.384037,-0.899170,0.020264,0.306885,0.067852,-0.000042,0.014808,0.999836,-0.007961,0.016149,-0.001920,0.064306,-0.655672,-0.161193,-0.734831
34566,NaN,11.045669,1.288018,0.336687,-1.045050,0.178212,1.261517,-1.136785,3.967944,-0.398375,-0.916260,0.018066,0.277344,0.110519,0.012671,0.001102,0.999785,-0.005684,0.019838,-0.001992,0.064517,-0.637634,-0.162720,-0.750189
34567,NaN,14.722512,7.877035,1.199831,0.527919,-5.457613,6.002775,-1.327676,4.306531,-0.536342,-0.924805,0.009766,0.239502,0.147641,0.078438,0.008301,0.999743,-0.006638,0.021531,-0.002681,0.061760,-0.621310,-0.158020,-0.764977
34568,NaN,19.828666,11.501731,1.618299,-0.077623,-8.272164,11.624564,-2.212442,3.931631,-1.032370,-0.930420,-0.013916,0.208008,0.199128,0.114132,0.011008,0.999732,-0.011061,0.019656,-0.005161,0.056597,-0.602818,-0.157113,-0.780206
34569,NaN,24.476100,8.168914,0.048581,-4.798900,-5.216740,14.995627,-3.155212,3.524014,-1.481783,-0.944824,-0.035156,0.174316,0.245300,0.079822,-0.005103,0.999693,-0.015774,0.017618,-0.007408,0.044059,-0.588617,-0.148227,-0.793485
34570,NaN,25.989354,1.821702,-1.493329,-9.421094,0.687601,14.511675,-3.102792,3.358391,-1.648271,-0.950928,-0.047852,0.144775,0.259728,0.015796,-0.019553,0.999705,-0.015512,0.016790,-0.008241,0.033471,-0.571795,-0.145808,-0.806641
34571,NaN,25.607991,-0.069148,0.023667,-9.267169,3.039065,13.863696,-1.891104,3.631919,-1.669718,-0.958984,-0.069092,0.106934,0.256010,-0.002856,-0.004393,0.999756,-0.009455,0.018158,-0.008348,0.023971,-0.556108,-0.142311,-0.818485
34572,NaN,25.539433,-1.273272,2.542794,-8.322646,5.026604,13.971981,-0.477011,4.105735,-1.703717,-0.958740,-0.083984,0.071045,0.255724,-0.014858,0.020214,0.999750,-0.002385,0.020527,-0.008518,0.021335,-0.535953,-0.149498,-0.830632
34573,NaN,25.001176,0.004342,4.643630,-7.058906,4.471872,14.201528,0.883711,4.190852,-1.753754,-0.967041,-0.098877,0.026855,0.250898,-0.002344,0.041178,0.999732,0.004418,0.020952,-0.008768,0.019547,-0.517001,-0.157380,-0.841166
34574,NaN,25.135531,2.334912,7.011248,-5.788313,3.192427,15.536823,0.870756,4.051764,-1.647387,-0.960449,-0.111816,-0.004639,0.252887,0.020979,0.065094,0.999751,0.004353,0.020257,-0.008236,0.020191,-0.497091,-0.168224,-0.850996
34575,NaN,23.172805,4.726612,5.357331,-6.686073,0.347660,13.492387,-0.069851,3.369369,-1.713583,-0.961914,-0.133057,-0.030029,0.232980,0.045291,0.049639,0.999821,-0.000349,0.016846,-0.008567,0.015557,-0.481233,-0.171816,-0.859449
34576,NaN,21.301492,12.333393,3.604337,-6.524789,-7.439692,13.009634,-2.418366,2.475886,-2.070698,-0.959473,-0.152344,-0.059326,0.214692,0.121519,0.031916,0.999797,-0.012091,0.012379,-0.010353,0.005017,-0.468095,-0.168891,-0.867374
34577,NaN,21.060123,10.563956,5.550209,-6.031913,-5.094815,13.067731,-3.720223,2.001135,-2.533564,-0.956787,-0.171387,-0.080322,0.212453,0.103938,0.051438,0.999697,-0.018599,0.010005,-0.012667,-0.012987,-0.457230,-0.158587,-0.874998
34578,NaN,17.096688,10.654754,6.644792,-3.603353,-5.339913,10.396930,-3.597760,1.083319,-3.024658,-0.951904,-0.199219,-0.103516,0.172913,0.105104,0.063615,0.999709,-0.017987,0.005416,-0.015122,-0.030779,-0.449172,-0.153346,-0.879649
34579,NaN,15.172013,11.539363,2.831526,-6.161733,-7.304491,6.920249,-4.863296,0.718953,-2.539345,-0.942871,-0.218506,-0.120361,0.153268,0.114089,0.024981,0.999617,-0.024313,0.003594,-0.012695,-0.052304,-0.443143,-0.137713,-0.884264
34580,NaN,16.618953,12.300109,6.217164,-5.019283,-6.996453,9.984374,-5.160674,1.333468,-1.675055,-0.940430,-0.231201,-0.147705,0.167616,0.123132,0.057881,0.999610,-0.025800,0.006666,-0.008374,-0.066908,-0.434206,-0.123115,-0.889849
34581,NaN,12.982559,11.457846,2.694907,-6.383065,-7.691786,4.578874,-6.335661,1.217657,-1.181289,-0.944824,-0.233398,-0.173096,0.130649,0.114569,0.022525,0.999462,-0.031673,0.006087,-0.005905,-0.085130,-0.425711,-0.097837,-0.895517
34582,NaN,10.067952,8.019576,0.312302,-6.794251,-5.358089,-0.280430,-7.164955,1.110880,-0.791456,-0.945068,-0.229004,-0.204834,0.101001,0.079827,-0.000302,0.999335,-0.035817,0.005553,-0.003956,-0.099434,-0.417036,-0.072809,-0.900496
34583,NaN,7.788140,4.499797,-0.446823,-5.952855,-2.484704,-3.529464,-7.286098,0.927416,-0.511024,-0.943359,-0.218262,-0.236572,0.077969,0.044588,-0.006459,0.999322,-0.036422,0.004636,-0.002555,-0.116519,-0.408771,-0.041488,-0.904217
34584,NaN,5.774019,1.135245,-1.228805,-4.835209,0.363616,-6.259597,-6.991875,0.564293,-0.481741,-0.947998,-0.211670,-0.255615,0.057731,0.010771,-0.012834,0.999382,-0.034952,0.002821,-0.002408,-0.129157,-0.402291,-0.016083,-0.906213
34585,NaN,3.832298,-2.357733,-1.160319,-2.727000,3.347360,-8.095698,-6.202216,0.172076,-0.530545,-0.941895,-0.200928,-0.279053,0.038250,-0.024024,-0.010896,0.999515,-0.031006,0.000860,-0.002652,-0.143957,-0.397269,0.010844,-0.906276
34586,NaN,1.749437,-5.235897,-1.196005,-0.499337,5.625822,-9.814381,-4.974039,-0.227902,-0.713816,-0.944092,-0.203125,-0.279053,0.017319,-0.052696,-0.010632,0.999684,-0.024868,-0.001139,-0.003569,-0.154524,-0.395474,0.028065,-0.904950
34587,NaN,-1.370654,-6.638357,-1.431743,1.973903,6.197002,-12.198510,-3.721404,-0.611710,-0.856915,-0.943848,-0.205078,-0.279053,-0.013950,-0.066576,-0.013122,0.999813,-0.018606,-0.003058,-0.004284,-0.165645,-0.395413,0.043674,-0.902387
34588,NaN,-3.219974,-8.397515,-1.320359,3.965571,7.299359,-13.503289,-2.477838,-1.073807,-0.986612,-0.947998,-0.209473,-0.281006,-0.032546,-0.083972,-0.012337,0.999897,-0.012389,-0.005369,-0.004933,-0.174333,-0.399317,0.051211,-0.898628
34589,NaN,-4.193424,-8.600405,-0.910815,5.042044,7.070471,-13.931774,-1.257686,-1.598831,-1.046314,-0.949951,-0.218018,-0.261963,-0.042312,-0.085840,-0.008905,0.999935,-0.006288,-0.007994,-0.005231,-0.181125,-0.405646,0.056162,-0.894142
34590,NaN,-4.679823,-8.557208,-0.673595,5.500180,6.769858,-14.228122,-0.109704,-2.078457,-1.009063,-0.949463,-0.226807,-0.247070,-0.047156,-0.085339,-0.007178,0.999933,-0.000549,-0.010392,-0.005045,-0.186209,-0.415614,0.055513,-0.888543
34591,NaN,-4.630925,-8.496043,-1.254040,4.942566,6.847147,-14.699873,1.036659,-2.483293,-0.910307,-0.955566,-0.233154,-0.217285,-0.046531,-0.084680,-0.013557,0.999899,0.005183,-0.012416,-0.004551,-0.187392,-0.427823,0.051320,-0.882733
34592,NaN,-4.340160,-7.830959,-2.250247,3.608920,6.544827,-15.230962,2.217284,-2.752463,-0.798968,-0.954834,-0.250488,-0.181396,-0.043390,-0.077876,-0.023965,0.999836,0.011086,-0.013762,-0.003995,-0.186475,-0.442393,0.042404,-0.876195
34593,NaN,-3.790788,-6.714865,-2.953918,2.086375,5.821329,-15.283864,3.325189,-2.842005,-0.645327,-0.958740,-0.259033,-0.149414,-0.037688,-0.066517,-0.031185,0.999756,0.016625,-0.014209,-0.003226,-0.181300,-0.457972,0.029047,-0.869798
34594,NaN,-2.334946,-5.300226,-2.961459,0.547872,4.882108,-14.075368,4.319374,-2.735829,-0.480264,-0.962646,-0.267822,-0.103027,-0.023057,-0.052286,-0.031066,0.999670,0.021594,-0.013678,-0.002401,-0.174469,-0.473866,0.012497,-0.863050
34595,NaN,-1.713008,-4.165594,-3.239996,-0.641413,3.970882,-13.633204,5.179541,-2.516941,-0.357995,-0.964355,-0.274414,-0.064697,-0.016785,-0.040764,-0.033676,0.999584,0.025894,-0.012583,-0.001790,-0.163514,-0.489070,-0.008511,-0.856739
34596,NaN,-1.741625,-2.707297,-3.788411,-1.762074,2.533584,-13.709194,5.858681,-2.266166,-0.246897,-0.970459,-0.274414,-0.024658,-0.017012,-0.025923,-0.038849,0.999506,0.029289,-0.011329,-0.001234,-0.150829,-0.503559,-0.031576,-0.850107
34597,NaN,0.412144,-1.180140,-4.285756,-3.704055,1.551810,-11.760844,6.215136,-2.013899,-0.098536,-0.966064,-0.279053,0.011475,0.004550,-0.010465,-0.043152,0.999466,0.031070,-0.010068,-0.000493,-0.135840,-0.516520,-0.056703,-0.843528
34598,NaN,3.876780,0.121406,-3.834582,-5.083917,1.071223,-8.154502,5.806857,-1.672923,-0.029797,-0.968262,-0.270508,0.045166,0.039087,0.002314,-0.037963,0.999544,0.029030,-0.008363,-0.000149,-0.121099,-0.527578,-0.079729,-0.837043
34599,NaN,6.827479,0.814887,-1.832959,-4.534380,1.131003,-4.446426,4.582080,-1.126514,0.008490,-0.963867,-0.268311,0.062012,0.068376,0.008563,-0.017752,0.999722,0.022908,-0.005632,0.000042,-0.109394,-0.534923,-0.098180,-0.832016
34600,NaN,8.094282,1.420375,1.120348,-2.303705,1.026184,-1.911484,3.099563,-0.653887,-0.081274,-0.963867,-0.268555,0.087402,0.080911,0.013992,0.011686,0.999874,0.015497,-0.003269,-0.000406,-0.100716,-0.539582,-0.111013,-0.828483
34601,NaN,10.074563,2.786022,3.361054,-1.020178,0.517145,1.107311,1.758072,-0.214821,-0.130518,-0.961670,-0.266357,0.085205,0.100727,0.027497,0.033962,0.999961,0.008790,-0.001074,-0.000653,-0.096630,-0.541264,-0.118537,-0.826828
34602,NaN,12.111077,3.256003,7.107889,1.636689,1.053307,4.470634,0.703756,0.322806,-0.080832,-0.966064,-0.261963,0.081055,0.121238,0.032261,0.070997,0.999992,0.003519,0.001614,-0.000404,-0.094415,-0.540676,-0.121547,-0.827032
34603,NaN,10.760339,3.728192,9.351007,4.146382,0.482242,4.318809,0.183523,0.956009,0.041796,-0.970459,-0.264160,0.074707,0.108041,0.037219,0.093028,0.999988,0.000918,0.004780,0.000209,-0.093165,-0.536829,-0.122644,-0.829514
34604,NaN,9.815483,5.101446,7.199390,2.355935,-1.306973,3.107660,0.148235,2.245652,0.199548,-0.974854,-0.259766,0.051514,0.098904,0.051060,0.070924,0.999936,0.000741,0.011228,0.000998,-0.089256,-0.527872,-0.123982,-0.835472
34605,NaN,-0.305959,-2.674854,-6.367761,-5.553084,1.695144,-13.565596,0.935755,2.583564,0.428763,-0.981445,-0.257568,0.038818,-0.003826,-0.026458,-0.063756,0.999903,0.004679,0.012917,0.002144,-0.083386,-0.517713,-0.127902,-0.841820
34606,NaN,-5.623121,-4.517498,-12.417508,-8.599542,0.900705,-21.277133,4.131801,0.286939,-0.079769,-0.977051,-0.253418,0.055664,-0.056427,-0.042576,-0.124992,0.999786,0.020658,0.001435,-0.000399,-0.071670,-0.518306,-0.145748,-0.839631
34607,NaN,8.469879,-2.286416,-2.878637,-6.482543,3.921101,-4.535043,3.997221,-0.758100,-0.022150,-0.983643,-0.247070,0.070312,0.084806,-0.022296,-0.028914,0.999793,0.019985,-0.003790,-0.000111,-0.061944,-0.522798,-0.162285,-0.834571
34608,NaN,19.310372,4.007392,-2.384829,-10.399459,0.955564,7.086246,0.251728,-0.481143,0.327559,-0.987549,-0.253418,0.078857,0.193094,0.040420,-0.023333,0.999995,0.001259,-0.002406,0.001638,-0.059106,-0.525602,-0.162431,-0.832986
34609,NaN,30.217499,5.885521,8.824176,-4.774045,4.521188,21.529812,-0.160756,-1.474372,-0.397584,-0.979004,-0.251465,0.108398,0.301630,0.058327,0.090420,0.999971,-0.000804,-0.007372,-0.001988,-0.062381,-0.531357,-0.162367,-0.829099
34610,NaN,33.893901,29.091139,-25.976814,-34.257910,-23.799127,20.654005,10.199097,-2.160225,-0.800521,-0.979248,-0.236572,0.156982,0.342804,0.302152,-0.240856,0.998634,0.050972,-0.010796,-0.004001,-0.040379,-0.543040,-0.204987,-0.813301
34611,NaN,19.289171,4.547982,-4.696395,-11.094504,0.024987,7.266228,6.871833,-1.361938,-0.239739,-0.973145,-0.228027,0.177979,0.193254,0.046796,-0.044056,0.999386,0.034352,-0.006808,-0.001198,-0.024071,-0.549385,-0.233177,-0.802013
34612,NaN,11.863397,-2.754621,7.575525,1.498988,8.557336,1.599628,0.734843,-0.486985,1.232892,-0.979736,-0.217285,0.177979,0.118617,-0.027094,0.075944,0.999971,0.003674,-0.002435,0.006164,-0.015441,-0.553659,-0.234076,-0.799019
34613,NaN,8.603528,-1.862587,7.572220,3.024844,6.702395,-0.826501,-1.040174,-0.032857,1.924070,-0.982422,-0.197998,0.177734,0.086194,-0.017403,0.075829,0.999940,-0.005201,-0.000164,0.009620,-0.010672,-0.555929,-0.224579,-0.800246
34614,NaN,6.126681,-3.026501,-1.522246,-4.427077,3.726057,-5.872204,3.594474,-0.746917,1.938365,-0.989746,-0.166016,0.202881,0.061612,-0.029392,-0.015526,0.999785,0.017971,-0.003734,0.009691,0.008346,-0.561905,-0.234371,-0.793261
34615,NaN,10.986243,-1.772928,-7.628187,-11.219337,1.179604,-2.414510,4.347894,-1.229806,2.458982,-0.984131,-0.133789,0.219727,0.110523,-0.014719,-0.075945,0.999669,0.021737,-0.006148,0.012294,0.028868,-0.569297,-0.244682,-0.784346
34616,NaN,16.610759,0.229666,-3.334447,-8.410597,2.111150,4.742856,3.299315,-1.969420,2.287673,-0.987061,-0.104004,0.249023,0.166380,0.004730,-0.031642,0.999750,0.016495,-0.009846,0.011437,0.046647,-0.580110,-0.251880,-0.773209
34617,NaN,19.785152,2.834883,-0.084775,-5.117251,1.761675,9.427095,1.603588,-2.236966,2.262176,-0.989746,-0.086914,0.267822,0.197505,0.030578,0.001602,0.999841,0.008018,-0.011184,0.011310,0.057218,-0.591142,-0.252001,-0.764050
34618,NaN,23.195086,9.465082,-3.239395,-5.511589,-4.898981,14.346227,0.690645,-2.609657,2.213195,-0.979492,-0.065430,0.295166,0.231277,0.097317,-0.029040,0.999848,0.003453,-0.013048,0.011065,0.065213,-0.604939,-0.248468,-0.753697
34619,NaN,22.840293,14.207750,-0.531788,-0.323018,-8.049346,15.855725,-0.013213,-2.735136,2.101735,-0.969482,-0.041992,0.326660,0.226938,0.144467,-0.002217,0.999851,-0.000066,-0.013675,0.010508,0.069685,-0.617773,-0.242918,-0.744642
34620,NaN,20.228926,12.608364,2.589311,3.333720,-5.837534,13.200839,0.748795,-3.676297,1.496523,-0.959229,-0.027100,0.358398,0.200812,0.127483,0.030069,0.999796,0.003744,-0.018380,0.007482,0.073196,-0.634357,-0.241782,-0.730599
34621,NaN,19.250158,10.097479,4.059038,4.706452,-3.040740,11.577249,1.646766,-3.871253,1.134828,-0.946777,-0.012207,0.391846,0.191082,0.101703,0.045134,0.999763,0.008233,-0.019355,0.005674,0.077866,-0.649117,-0.245559,-0.715741
34622,NaN,21.081129,7.888944,5.063630,5.324321,-0.084622,12.634437,1.514118,-3.241345,1.085965,-0.932373,0.009033,0.421387,0.209516,0.079626,0.054640,0.999825,0.007570,-0.016206,0.005430,0.082993,-0.662481,-0.248600,-0.701733
34623,NaN,17.709875,5.911060,7.870151,7.993294,2.335823,8.657208,1.406501,-2.687951,1.223508,-0.922119,0.023926,0.446533,0.175652,0.059622,0.081487,0.999866,0.007032,-0.013439,0.006117,0.088592,-0.672761,-0.250566,-0.690478
34624,NaN,14.061644,6.914785,8.958361,10.254060,1.275214,4.985929,0.582038,-2.734785,1.230200,-0.913818,0.032471,0.469727,0.138944,0.069741,0.091694,0.999883,0.002910,-0.013673,0.006151,0.092090,-0.684133,-0.249954,-0.678973
34625,NaN,13.634023,3.675630,11.384825,11.314160,5.103318,3.413701,0.634880,-2.389319,1.315287,-0.899414,0.049561,0.492920,0.134722,0.037281,0.115582,0.999902,0.003174,-0.011946,0.006576,0.095731,-0.693530,-0.248688,-0.669333
34626,NaN,11.929909,2.892566,10.722334,10.724336,5.105466,1.348433,1.220227,-1.858202,1.363263,-0.889160,0.068848,0.503174,0.118097,0.029074,0.108501,0.999915,0.006101,-0.009291,0.006816,0.102176,-0.701499,-0.248401,-0.660119
34627,NaN,9.783476,5.293170,8.378495,10.044344,1.552503,-0.292930,1.739644,-1.553404,1.331566,-0.881348,0.088135,0.513672,0.096826,0.052843,0.085000,0.999910,0.008698,-0.007767,0.006658,0.110733,-0.707329,-0.250246,-0.651768
34628,NaN,5.996342,7.508839,6.585015,9.683745,-1.900466,-3.623337,1.693602,-1.360050,1.204194,-0.868896,0.103027,0.523926,0.059060,0.074882,0.066889,0.999923,0.008468,-0.006800,0.006021,0.119292,-0.712569,-0.252067,-0.643800
34629,NaN,4.926963,6.168326,3.811582,6.703519,-2.293322,-4.650094,1.097453,-1.292872,1.027520,-0.867188,0.120117,0.530273,0.048703,0.061723,0.038771,0.999951,0.005487,-0.006464,0.005138,0.124873,-0.717337,-0.252699,-0.637163
34630,NaN,3.320041,2.655951,1.426456,2.825106,-0.846172,-6.434230,0.658180,-0.909400,0.857242,-0.858887,0.126709,0.534424,0.033021,0.026654,0.014503,0.999975,0.003291,-0.004547,0.004286,0.128809,-0.721108,-0.251929,-0.632410
34631,NaN,1.807893,0.862722,2.563567,2.763969,0.930457,-8.370704,0.386308,-0.549130,0.768970,-0.859131,0.137207,0.534180,0.017975,0.008647,0.025702,0.999987,0.001932,-0.002746,0.003845,0.131940,-0.723557,-0.250730,-0.629438
34632,NaN,1.671521,1.766049,6.237924,6.345113,1.996884,-9.053423,-0.190449,-0.357433,0.572973,-0.859375,0.139404,0.538574,0.016553,0.017767,0.062392,0.999994,-0.000952,-0.001787,0.002865,0.132882,-0.725558,-0.248305,-0.627895
34633,NaN,1.827893,3.251665,8.100372,8.724628,1.690850,-9.069472,-0.270728,-0.008124,0.298575,-0.863525,0.135254,0.538574,0.018227,0.032654,0.080960,0.999998,-0.001354,-0.000041,0.001493,0.132827,-0.726134,-0.246379,-0.628000
34634,NaN,0.603146,6.750960,6.586859,9.171724,-2.269941,-9.582999,0.018607,0.416228,0.035403,-0.861328,0.135254,0.534180,0.006157,0.067505,0.065862,0.999998,0.000093,0.002081,0.000177,0.133556,-0.724839,-0.245768,-0.629579
34635,NaN,-0.368251,9.543366,1.365388,6.132863,-7.428658,-9.284802,0.012310,0.591915,-0.281650,-0.869629,0.128662,0.525879,-0.003508,0.095438,0.013670,0.999995,0.000062,0.002960,-0.001408,0.133441,-0.722619,-0.246432,-0.631891
34636,NaN,0.379886,9.917715,-3.332600,2.371024,-9.973774,-7.688251,-0.554599,0.560818,-0.607408,-0.869385,0.122314,0.519531,0.004006,0.099072,-0.033612,0.999988,-0.002773,0.002804,-0.003037,0.129844,-0.720422,-0.246112,-0.635266
34637,NaN,1.353125,6.049213,-3.116853,0.540442,-6.410987,-7.215560,-1.187219,0.677484,-0.786229,-0.866943,0.109619,0.517578,0.013662,0.060252,-0.031573,0.999969,-0.005936,0.003387,-0.003931,0.123900,-0.718052,-0.244727,-0.639655
34638,NaN,1.835626,1.393005,2.245134,2.736487,0.263438,-8.141584,-1.151917,1.272306,-0.755044,-0.883545,0.092285,0.502930,0.018551,0.013989,0.022253,0.999956,-0.005760,0.006361,-0.003775,0.118738,-0.713566,-0.243192,-0.646206
34639,NaN,2.074941,-1.070950,6.580049,5.251982,4.479546,-8.764826,-1.045707,2.033546,-0.589469,-0.894043,0.085938,0.484131,0.021386,-0.010428,0.065640,0.999930,-0.005228,0.010167,-0.002947,0.115567,-0.706852,-0.240694,-0.655035
34640,NaN,1.754730,-0.128563,7.439731,6.462245,3.973107,-8.866341,-1.361038,2.384245,-0.521355,-0.906494,0.073242,0.454590,0.018430,-0.000828,0.074188,0.999902,-0.006805,0.011921,-0.002607,0.111860,-0.698851,-0.236933,-0.665551
34641,NaN,2.583938,-0.733990,5.306356,4.306115,3.567888,-7.788302,-1.950215,2.509238,-0.491913,-0.920898,0.053955,0.433594,0.026486,-0.006889,0.052803,0.999871,-0.009751,0.012546,-0.002459,0.106367,-0.690920,-0.230730,-0.676815
34642,NaN,3.851634,-0.727410,0.124956,-0.359265,1.349088,-6.147980,-2.545652,2.721223,-0.365967,-0.933594,0.045654,0.406250,0.038516,-0.007332,0.000819,0.999825,-0.012728,0.013605,-0.001830,0.099754,-0.682043,-0.222330,-0.689518
34643,NaN,7.041658,1.329660,-4.073776,-3.547030,-1.832547,-2.601495,-1.833744,3.292032,-0.302634,-0.946045,0.034912,0.376709,0.069752,0.012809,-0.042009,0.999821,-0.009168,0.016459,-0.001513,0.096099,-0.671152,-0.215360,-0.702808
34644,NaN,10.986020,6.805521,-3.536727,-1.447848,-5.958406,2.099113,-1.767406,3.823770,-0.504116,-0.958496,0.020020,0.343018,0.109320,0.067451,-0.038059,0.999775,-0.008836,0.019117,-0.002520,0.093354,-0.657294,-0.209852,-0.717782
34645,NaN,15.075016,9.178567,1.299058,2.727485,-5.635699,6.737992,-3.292019,3.694692,-1.075615,-0.974854,-0.005615,0.301025,0.151429,0.091139,0.008693,0.999679,-0.016458,0.018471,-0.005378,0.082522,-0.644235,-0.199783,-0.733647
34646,NaN,19.003752,6.703230,4.289573,3.029167,-1.840494,10.481322,-3.405950,3.231557,-1.596115,-0.974365,-0.031250,0.265381,0.191216,0.066192,0.038680,0.999693,-0.017028,0.016156,-0.007980,0.068845,-0.631662,-0.191312,-0.748107
34647,NaN,23.975730,3.083548,1.137959,-2.960778,0.948494,14.185298,-2.641272,3.117098,-1.695652,-0.984375,-0.052490,0.238037,0.240142,0.028914,0.007248,0.999755,-0.013205,0.015584,-0.008478,0.057125,-0.619138,-0.185670,-0.760876
34648,NaN,26.864560,2.871773,0.202573,-5.539434,1.283340,16.598786,-2.336483,3.416752,-1.511369,-0.992676,-0.069580,0.200195,0.268831,0.026672,-0.002886,0.999757,-0.011681,0.017082,-0.007556,0.047248,-0.604928,-0.180692,-0.774068
34649,NaN,26.079392,0.485833,0.131087,-7.159297,3.386997,15.037939,-1.834257,4.056040,-1.473913,-1.005127,-0.086426,0.151611,0.260775,0.002916,-0.004011,0.999725,-0.009170,0.020278,-0.007369,0.039647,-0.588168,-0.177045,-0.788125
34650,NaN,26.906401,0.423539,1.842440,-7.087183,4.094656,15.885199,-0.942713,4.777522,-1.551498,-1.002441,-0.107666,0.105225,0.269424,0.002213,0.011977,0.999674,-0.004713,0.023885,-0.007757,0.036080,-0.567522,-0.177823,-0.803117
34651,NaN,28.273889,0.283534,3.154745,-7.830805,4.847378,17.102419,0.212595,5.186093,-1.821032,-1.004395,-0.122559,0.056885,0.283440,0.000228,0.024204,0.999622,0.001063,0.025927,-0.009104,0.033968,-0.544829,-0.182842,-0.817665
34652,NaN,30.501360,-2.518604,2.125006,-11.909317,7.407066,17.468125,1.059605,5.330484,-1.715188,-1.004150,-0.135254,0.006104,0.305201,-0.027886,0.012974,0.999594,0.005297,0.026649,-0.008575,0.035015,-0.520962,-0.191050,-0.831187
34653,NaN,25.063340,2.126163,5.701917,-6.585414,3.556359,14.866486,1.242194,4.679814,-1.094836,-0.999756,-0.145996,-0.029785,0.251988,0.019554,0.051258,0.999692,0.006210,0.023397,-0.005474,0.038159,-0.500093,-0.198187,-0.842124
34654,NaN,24.075823,11.264592,1.639053,-8.099639,-6.509133,14.706088,-2.871155,2.307781,-1.688234,-0.995117,-0.167236,-0.054932,0.241854,0.110801,0.012004,0.999795,-0.014355,0.011538,-0.008441,0.026790,-0.489180,-0.190000,-0.850815
34655,NaN,25.197476,14.853997,1.836127,-8.802617,-9.472383,16.484824,-6.924512,0.507129,-2.794845,-0.987793,-0.197266,-0.065186,0.254059,0.145503,0.012645,0.999300,-0.034614,0.002535,-0.013971,-0.001567,-0.484955,-0.167184,-0.858409
34656,NaN,20.614501,7.798806,8.564857,-2.777805,-1.293843,13.633201,-3.352433,0.279254,-3.720784,-0.978516,-0.229248,-0.086182,0.207684,0.075552,0.084079,0.999686,-0.016760,0.001396,-0.018602,-0.026987,-0.481075,-0.160993,-0.861348
34657,NaN,15.444020,13.325357,0.660659,-6.768397,-9.230599,7.081492,-5.730941,0.928882,-2.655665,-0.965332,-0.246338,-0.105225,0.156209,0.131290,0.002102,0.999491,-0.028650,0.004644,-0.013276,-0.051444,-0.473921,-0.142747,-0.867396
34658,NaN,16.885470,12.526862,4.882416,-4.964416,-7.129071,9.944564,-5.314059,0.649461,-2.420801,-0.964844,-0.263428,-0.132568,0.170515,0.124440,0.044958,0.999569,-0.026566,0.003247,-0.012102,-0.074988,-0.468280,-0.125296,-0.871431
34659,NaN,14.033295,13.201101,0.593347,-7.886330,-9.028324,5.278843,-6.521812,1.248887,-1.491651,-0.954102,-0.274170,-0.164307,0.141328,0.131040,0.000769,0.999421,-0.032603,0.006243,-0.007457,-0.095929,-0.459192,-0.100774,-0.877374
34660,NaN,9.980441,6.719852,-0.342059,-6.617768,-3.831938,-0.518841,-6.820352,1.127913,-0.872757,-0.947998,-0.271973,-0.196045,0.100066,0.066581,-0.006262,0.999393,-0.034095,0.005638,-0.004363,-0.115313,-0.450680,-0.073584,-0.882143
34661,NaN,6.696149,0.712484,-1.257864,-4.949323,1.143118,-5.216643,-6.380320,0.931432,-0.553856,-0.948242,-0.263184,-0.221436,0.066920,0.006527,-0.013105,0.999477,-0.031896,0.004656,-0.002769,-0.131729,-0.442457,-0.047195,-0.885806
34662,NaN,4.818409,-2.764556,-1.660889,-3.475545,4.096926,-7.632869,-5.530869,0.504241,-0.524570,-0.946533,-0.258789,-0.242676,0.048070,-0.028219,-0.015955,0.999611,-0.027651,0.002521,-0.002623,-0.147369,-0.436758,-0.024155,-0.887097
34663,NaN,2.721767,-4.577204,-2.441957,-2.267701,5.398973,-9.972055,-4.693391,0.135013,-0.560468,-0.946533,-0.254639,-0.250977,0.027072,-0.046404,-0.023354,0.999721,-0.023465,0.000675,-0.002802,-0.160046,-0.432514,-0.004658,-0.887296
34664,NaN,0.901097,-6.903266,-2.391049,-0.272991,7.141903,-11.572158,-3.904398,-0.324113,-0.667481,-0.944336,-0.258789,-0.265869,0.008817,-0.069511,-0.022542,0.999803,-0.019521,-0.001620,-0.003337,-0.173020,-0.431233,0.011775,-0.885417
34665,NaN,-1.854088,-8.216144,-2.427096,1.924950,7.587172,-13.756973,-3.160867,-0.809603,-0.720913,-0.944336,-0.263184,-0.261719,-0.018743,-0.082465,-0.023045,0.999860,-0.015804,-0.004048,-0.003604,-0.182956,-0.432068,0.024911,-0.882736
34666,NaN,-4.462680,-9.244699,-2.112952,4.217922,7.647628,-15.606248,-2.266975,-1.221819,-0.609452,-0.944092,-0.265137,-0.255127,-0.044783,-0.092544,-0.020354,0.999912,-0.011335,-0.006109,-0.003047,-0.194149,-0.435786,0.036276,-0.878112
34667,NaN,-6.328686,-8.597597,-2.331706,4.904394,6.508365,-17.092515,-1.310962,-1.636622,-0.533963,-0.948486,-0.258789,-0.240479,-0.063326,-0.085960,-0.023272,0.999941,-0.006555,-0.008183,-0.002670,-0.199042,-0.441773,0.042453,-0.873737
34668,NaN,-7.267696,-7.239339,-3.227601,4.183484,5.172341,-18.261894,-0.464977,-1.970994,-0.462674,-0.950195,-0.271729,-0.223389,-0.072523,-0.072301,-0.032823,0.999946,-0.002325,-0.009855,-0.002313,-0.204806,-0.450286,0.047008,-0.867806
34669,NaN,-7.324050,-5.743704,-4.223944,2.709181,4.084342,-18.782010,0.358189,-2.184233,-0.332399,-0.947998,-0.269775,-0.200195,-0.072868,-0.057239,-0.043139,0.999937,0.001791,-0.010921,-0.001662,-0.204917,-0.460184,0.046938,-0.862576
34670,NaN,-6.823506,-4.345424,-4.203315,1.728349,2.978788,-18.253410,1.223659,-2.291117,-0.199068,-0.956055,-0.280518,-0.178955,-0.067789,-0.043125,-0.043076,0.999915,0.006118,-0.011455,-0.000995,-0.205633,-0.471551,0.045425,-0.856324
34671,NaN,-5.495231,-3.079703,-3.325090,1.070736,2.013302,-16.560607,2.128340,-2.336438,-0.083157,-0.958008,-0.287109,-0.143066,-0.054569,-0.030414,-0.034215,0.999875,0.010641,-0.011682,-0.000416,-0.200416,-0.483706,0.038512,-0.851105
34672,NaN,-4.837844,-2.286929,-3.073484,0.460760,1.411139,-15.802097,3.291618,-2.438260,-0.020704,-0.953613,-0.282959,-0.107178,-0.047998,-0.022348,-0.031692,0.999790,0.016457,-0.012190,-0.000104,-0.195472,-0.497524,0.029096,-0.844638
34673,NaN,-3.338715,-2.119787,-3.806636,-1.092077,1.829964,-14.870689,4.663024,-2.544032,0.021971,-0.955322,-0.289307,-0.068848,-0.032893,-0.020300,-0.038967,0.999647,0.023312,-0.012719,0.000110,-0.183342,-0.512649,0.011934,-0.838710
34674,NaN,-0.836044,-2.165033,-3.694860,-2.229416,2.483142,-12.622682,5.629112,-2.440918,0.057934,-0.955322,-0.287354,-0.031006,-0.007898,-0.020600,-0.037637,0.999529,0.028141,-0.012203,0.000290,-0.170368,-0.528170,-0.007813,-0.831835
34675,NaN,2.005498,-2.744212,-3.200510,-2.926050,3.633517,-9.977753,5.802656,-1.947284,0.140372,-0.950928,-0.281006,0.009277,0.020389,-0.026488,-0.032585,0.999532,0.029009,-0.009735,0.000702,-0.154459,-0.540972,-0.029912,-0.826194
34676,NaN,4.609602,-2.370186,-1.759655,-2.782336,3.751370,-6.958340,4.963310,-1.306366,0.214054,-0.950928,-0.279053,0.034668,0.046237,-0.023211,-0.017875,0.999670,0.024814,-0.006531,0.001070,-0.141119,-0.550484,-0.047916,-0.821436
34677,NaN,8.165009,-1.433775,0.766960,-1.928472,3.646022,-2.580898,3.667575,-0.625257,0.049084,-0.950928,-0.279053,0.047363,0.081630,-0.014458,0.007660,0.999827,0.018337,-0.003126,0.000245,-0.130949,-0.555560,-0.062396,-0.818726
34678,NaN,11.239309,-0.604045,4.025148,-0.085031,3.635047,1.574456,2.221369,0.061730,-0.125176,-0.951172,-0.270508,0.051514,0.112401,-0.006557,0.040146,0.999938,0.011107,0.000309,-0.000626,-0.126035,-0.557163,-0.070921,-0.817713
34679,NaN,14.834004,-0.771787,5.735923,0.213564,4.876973,5.343552,1.125596,0.787173,-0.131665,-0.950928,-0.276855,0.042969,0.148559,-0.008136,0.056730,0.999976,0.005628,0.003936,-0.000658,-0.123156,-0.554598,-0.076385,-0.819402
34680,NaN,15.263700,0.893804,9.494856,3.190274,3.444035,7.562208,0.587128,1.400769,-0.081319,-0.946777,-0.274658,0.028076,0.153301,0.008599,0.093902,0.999971,0.002936,0.007004,-0.000407,-0.121205,-0.549558,-0.079418,-0.822793
34681,NaN,11.581084,3.830548,15.336615,9.317438,-0.367601,7.422266,-0.332165,1.995889,-0.006378,-0.949219,-0.272461,0.004883,0.117334,0.038555,0.152136,0.999949,-0.001661,0.009979,-0.000032,-0.121346,-0.541119,-0.079276,-0.828360
34682,NaN,9.803191,2.923445,8.649543,3.560768,-0.059676,3.100738,-1.933659,3.553158,0.397006,-0.949463,-0.272461,-0.031006,0.099485,0.030254,0.084447,0.999793,-0.009668,0.017765,0.001985,-0.123532,-0.525558,-0.071767,-0.838677
34683,NaN,-2.118921,-3.605884,-18.870775,-15.539030,2.818368,-20.955732,1.720988,2.438592,0.044839,-0.947021,-0.278809,-0.033203,-0.023483,-0.034440,-0.188732,0.999889,0.008605,0.012193,0.000224,-0.117934,-0.516356,-0.080365,-0.844399
34684,NaN,7.519266,-1.458969,-6.288428,-8.776813,3.299734,-6.606204,5.636812,0.266853,-0.308065,-0.947266,-0.272461,-0.014160,0.075088,-0.012924,-0.063364,0.999601,0.028180,0.001334,-0.001540,-0.105812,-0.518783,-0.103785,-0.841960
34685,NaN,12.874129,15.933410,-8.230660,-14.091383,-12.071741,2.148198,0.777595,-0.460638,-0.416997,-0.942871,-0.276611,-0.014160,0.129262,0.159383,-0.081390,0.999988,0.003888,-0.002303,-0.002085,-0.105789,-0.520915,-0.107897,-0.840128
34686,NaN,31.072691,-1.407414,13.123943,-1.620110,11.320782,21.951204,-0.051815,0.162583,-0.371861,-0.942383,-0.285400,0.000732,0.310807,-0.014618,0.130991,0.999998,-0.000259,0.000813,-0.001859,-0.107125,-0.520547,-0.108493,-0.840110
34687,NaN,25.969098,26.545542,-30.779481,-39.490627,-21.034929,8.154809,10.359824,-1.643244,-0.762902,-0.940430,-0.274658,0.051514,0.263180,0.279837,-0.291390,0.998618,0.051775,-0.008212,-0.003813,-0.084120,-0.531864,-0.152945,-0.828645
34688,NaN,18.350001,1.468256,-12.496397,-18.852573,1.750340,1.869665,7.929741,-1.097451,-0.492567,-0.938232,-0.274902,0.078857,0.184223,0.019140,-0.123254,0.999196,0.039638,-0.005486,-0.002462,-0.065739,-0.539795,-0.186241,-0.818300
34689,NaN,14.521245,-4.362833,9.382188,2.216050,10.743199,4.244248,2.337959,-1.149380,0.787071,-0.936279,-0.264160,0.089355,0.144845,-0.044157,0.094141,0.999907,0.011689,-0.005747,0.003935,-0.057273,-0.545954,-0.193288,-0.813200
34690,NaN,9.624935,-0.123595,8.810294,4.252511,5.165394,1.390323,-0.158548,-0.636154,1.750866,-0.943115,-0.244873,0.106201,0.095974,-0.000325,0.088409,0.999956,-0.000793,-0.003181,0.008754,-0.050955,-0.551007,-0.187302,-0.811612
34691,NaN,6.779164,1.013836,-7.420225,-9.213147,-0.952186,-5.782416,2.982313,-1.509392,2.015531,-0.945801,-0.221436,0.129150,0.068234,0.011924,-0.073519,0.999810,0.014911,-0.007546,0.010077,-0.035964,-0.559679,-0.193432,-0.805016
34692,NaN,12.312293,2.077431,-5.098034,-8.720960,-0.102848,0.473572,3.506285,-1.656556,2.415290,-0.948730,-0.193604,0.156494,0.123267,0.023140,-0.049568,0.999739,0.017530,-0.008282,0.012075,-0.017677,-0.569972,-0.200079,-0.796736
34693,NaN,16.931128,0.640508,1.494200,-4.225980,4.048000,6.157209,3.057539,-1.772732,2.732773,-0.953857,-0.161621,0.177490,0.169063,0.008471,0.016560,0.999751,0.015286,-0.008863,0.013663,0.000152,-0.579900,-0.204265,-0.788664
34694,NaN,21.125098,5.452335,-0.944461,-6.106237,-0.495979,11.146932,1.280187,-2.287042,2.553940,-0.950195,-0.140137,0.206787,0.210618,0.057264,-0.006673,0.999833,0.006401,-0.011435,0.012769,0.012014,-0.592229,-0.201512,-0.780073
34695,NaN,25.335985,8.666210,-4.696601,-9.230704,-4.111238,15.424049,0.625977,-2.513267,2.329356,-0.946533,-0.114746,0.236328,0.252888,0.089749,-0.043508,0.999848,0.003130,-0.012566,0.011646,0.020419,-0.604257,-0.197177,-0.771737
34696,NaN,22.683422,10.168039,-1.781974,-4.489352,-5.352669,14.108450,0.742115,-3.377467,1.845259,-0.938232,-0.099609,0.265625,0.226136,0.103825,-0.013614,0.999808,0.003710,-0.016886,0.009226,0.026714,-0.619768,-0.194370,-0.759865
34697,NaN,21.218862,11.640534,1.980300,0.752098,-5.814375,13.750024,0.889350,-4.153109,1.212374,-0.925781,-0.084961,0.305664,0.210999,0.117584,0.024714,0.999756,0.004446,-0.020764,0.006061,0.030034,-0.636460,-0.194500,-0.745779
34698,NaN,19.649256,5.909140,2.484111,0.845837,-0.604605,10.827932,1.511771,-3.930240,0.972788,-0.915283,-0.074219,0.341553,0.195658,0.059835,0.029142,0.999767,0.007558,-0.019650,0.004864,0.034854,-0.652485,-0.197274,-0.730843
34699,NaN,20.458605,4.925940,4.523685,3.220840,1.297380,11.427781,3.189212,-3.527955,1.074336,-0.896729,-0.052979,0.370850,0.203471,0.049586,0.049622,0.999703,0.015944,-0.017638,0.005371,0.045694,-0.665692,-0.205979,-0.715779
34700,NaN,19.752746,8.984479,6.539279,7.458708,-1.655341,11.523041,2.777595,-3.026147,1.251677,-0.886475,-0.035889,0.404541,0.195932,0.090127,0.069616,0.999770,0.013887,-0.015130,0.006258,0.056446,-0.677755,-0.212014,-0.701792
34701,NaN,15.773997,9.902262,10.123822,12.166709,-1.790238,7.452213,2.173918,-2.983826,1.347971,-0.874512,-0.005859,0.425537,0.155529,0.098951,0.104646,0.999807,0.010869,-0.014918,0.006739,0.065370,-0.688916,-0.215876,-0.688854
34702,NaN,13.467540,7.538177,11.582897,13.269546,0.544796,4.185567,1.305262,-2.821097,1.183494,-0.859619,-0.001709,0.455078,0.132573,0.075404,0.118201,0.999862,0.006526,-0.014105,0.005917,0.071015,-0.699973,-0.216841,-0.676738
34703,NaN,10.478784,4.168782,12.243536,12.919511,3.293832,0.152558,1.384771,-2.447457,1.226412,-0.847656,0.021729,0.471680,0.103022,0.041468,0.123991,0.999882,0.006924,-0.012237,0.006132,0.077350,-0.709017,-0.218079,-0.666148
34704,NaN,8.795556,3.213080,11.098540,11.683441,3.444150,-1.907849,1.976232,-2.040666,1.277628,-0.843750,0.041016,0.486328,0.086612,0.031582,0.112188,0.999879,0.009881,-0.010203,0.006388,0.086409,-0.716812,-0.220450,-0.655832
34705,NaN,6.633766,4.304748,7.967521,9.382316,0.878137,-3.712393,2.222333,-1.524807,1.267781,-0.831787,0.062500,0.502930,0.065454,0.042572,0.080651,0.999889,0.011111,-0.007624,0.006339,0.096841,-0.722177,-0.223828,-0.647289
34706,NaN,3.498984,3.950070,2.213816,4.008524,-1.831562,-6.162657,1.446904,-1.233857,1.215169,-0.823486,0.077393,0.513428,0.034611,0.039549,0.022638,0.999936,0.007234,-0.006169,0.006076,0.104639,-0.727124,-0.224237,-0.640359
34707,NaN,2.253061,0.909110,1.713004,2.127295,0.386779,-7.772589,0.802377,-1.083945,1.125173,-0.823975,0.092285,0.519775,0.022386,0.009148,0.017288,0.999961,0.004012,-0.005420,0.005626,0.109940,-0.731415,-0.223275,-0.634896
34708,NaN,1.901414,0.375216,5.334892,5.057430,2.387988,-8.844791,0.193563,-1.018549,1.054485,-0.813477,0.098633,0.532227,0.018722,0.003800,0.053448,0.999973,0.000968,-0.005093,0.005272,0.112865,-0.735999,-0.220138,-0.630164
34709,NaN,3.015604,2.558580,8.657436,9.134100,2.117544,-8.177161,-0.273032,-0.627497,0.830493,-0.813721,0.105225,0.532227,0.029777,0.025828,0.086633,0.999986,-0.001365,-0.003137,0.004152,0.113785,-0.739041,-0.216573,-0.627669
34710,NaN,2.377888,4.538771,8.361836,9.729733,0.095499,-8.588659,0.149691,0.131865,0.588690,-0.807373,0.105225,0.530029,0.023700,0.045395,0.083637,0.999995,0.000748,0.000659,0.002943,0.116296,-0.739417,-0.214288,-0.627550
34711,NaN,1.054784,9.095900,3.511062,7.444459,-6.259476,-8.558068,0.838918,0.752165,0.306419,-0.814209,0.122314,0.530029,0.010542,0.090827,0.035452,0.999983,0.004195,0.003761,0.001532,0.121164,-0.736891,-0.215347,-0.629235
34712,NaN,0.231975,11.864153,-0.906474,4.835766,-10.773267,-8.334431,0.656259,0.831649,-0.138081,-0.820312,0.113770,0.523682,0.002365,0.118669,-0.008685,0.999986,0.003281,0.004158,-0.000690,0.123994,-0.733875,-0.217015,-0.631631
34713,NaN,0.585390,9.287433,-1.691495,2.989163,-8.802468,-8.068704,-0.220592,0.632849,-0.606464,-0.822266,0.105225,0.517578,0.006082,0.092837,-0.017036,0.999990,-0.001103,0.003164,-0.003032,0.121955,-0.731355,-0.218150,-0.634553
34714,NaN,1.737957,4.241166,0.967036,3.010599,-2.988957,-7.826413,-0.603709,0.878194,-0.783095,-0.824219,0.098877,0.513184,0.017587,0.042372,0.009466,0.999978,-0.003019,0.004391,-0.003915,0.118178,-0.728164,-0.218420,-0.638830
34715,NaN,1.761515,1.551480,4.784873,5.079582,1.075477,-8.610526,-0.965125,1.777696,-0.668009,-0.832520,0.085938,0.488037,0.018091,0.015685,0.047614,0.999943,-0.004826,0.008888,-0.003340,0.114466,-0.722293,-0.216707,-0.646706
34716,NaN,0.563751,0.973491,6.156094,5.944703,1.952038,-9.917106,-1.259638,2.174895,-0.657682,-0.849121,0.077393,0.479736,0.006339,0.010102,0.061432,0.999916,-0.006298,0.010874,-0.003288,0.110088,-0.715269,-0.213642,-0.656222
34717,NaN,0.801632,1.081911,6.259388,6.114546,1.875310,-9.520026,-1.598866,2.439625,-0.547278,-0.855225,0.064697,0.465088,0.008809,0.011295,0.062401,0.999890,-0.007994,0.012198,-0.002736,0.105169,-0.707489,-0.208988,-0.666875
34718,NaN,1.988322,-0.718218,3.928554,3.272656,2.589665,-8.236377,-2.395469,2.466798,-0.488322,-0.873779,0.045410,0.446289,0.020350,-0.006762,0.039119,0.999849,-0.011977,0.012333,-0.002441,0.097533,-0.699929,-0.201237,-0.678300
34719,NaN,2.614705,-1.581674,-0.064388,-0.732523,1.786594,-7.443315,-2.493622,2.645772,-0.401445,-0.879883,0.032715,0.418945,0.026105,-0.015878,-0.000792,0.999833,-0.012467,0.013228,-0.002007,0.090092,-0.691659,-0.192861,-0.690142
34720,NaN,3.190057,-0.203998,-0.326680,-0.510303,0.503296,-6.680531,-2.406975,2.897624,-0.361009,-0.892334,0.017822,0.399902,0.031845,-0.002140,-0.003703,0.999821,-0.012034,0.014487,-0.001805,0.083154,-0.682294,-0.184228,-0.702581
34721,NaN,5.120244,1.863017,-0.573990,-0.232897,-1.262202,-4.486720,-2.345178,3.312229,-0.303285,-0.905029,0.011475,0.364014,0.051124,0.018477,-0.006804,0.999793,-0.011725,0.016560,-0.001516,0.077124,-0.671222,-0.175610,-0.716012
34722,NaN,9.429142,3.049542,-0.197278,-0.151042,-1.761708,-0.060416,-2.070855,3.661152,-0.509747,-0.921631,-0.005615,0.334717,0.094308,0.030221,-0.004013,0.999776,-0.010354,0.018304,-0.002549,0.071393,-0.658337,-0.168235,-0.730200
34723,NaN,15.099556,7.724486,2.666139,2.795538,-4.597320,6.489954,-1.877186,3.782299,-0.968424,-0.929932,-0.022705,0.301025,0.151827,0.076739,0.023073,0.999765,-0.009385,0.018910,-0.004842,0.064845,-0.644239,-0.163181,-0.744395
34724,NaN,19.318143,11.322666,2.086169,1.803254,-7.779274,11.208539,-2.107949,3.694892,-1.420346,-0.939941,-0.041992,0.271729,0.194307,0.112036,0.016094,0.999749,-0.010539,0.018473,-0.007101,0.055619,-0.629850,-0.158532,-0.758329
34725,NaN,26.583040,10.772414,-0.594096,-3.483593,-7.247475,17.723608,-2.850733,3.506914,-1.635423,-0.952148,-0.067383,0.235840,0.266522,0.105403,-0.012124,0.999711,-0.014252,0.017533,-0.008176,0.043207,-0.615878,-0.151853,-0.771860
34726,NaN,32.379036,5.471688,-0.005839,-6.999629,-1.239235,22.244240,-3.316916,3.487519,-1.532439,-0.958008,-0.088867,0.202393,0.324120,0.052161,-0.006588,0.999681,-0.016583,0.017436,-0.007661,0.029641,-0.601760,-0.143022,-0.785207
34727,NaN,30.422639,0.029073,0.025961,-8.917671,3.882606,19.010896,-2.893021,3.942527,-1.611448,-0.966064,-0.114502,0.162354,0.304142,-0.002214,-0.005717,0.999669,-0.014464,0.019710,-0.008056,0.017423,-0.585370,-0.135881,-0.799109
34728,NaN,28.906432,-2.809854,1.650790,-8.697724,6.970151,17.053964,-1.666270,4.548117,-1.693004,-0.969971,-0.125000,0.120117,0.289093,-0.030443,0.010181,0.999671,-0.008330,0.022738,-0.008464,0.008802,-0.566061,-0.133765,-0.813391
34729,NaN,28.380740,-3.678967,3.024056,-8.728909,8.214784,16.346018,0.042973,5.017224,-1.797433,-0.971924,-0.141846,0.071533,0.284101,-0.039348,0.023107,0.999645,0.000215,0.025083,-0.008986,0.004969,-0.544263,-0.138759,-0.827345
34730,NaN,28.245631,-2.176858,3.853076,-9.071863,7.132870,16.341461,1.145326,4.805942,-1.723026,-0.984375,-0.154785,0.038086,0.283069,-0.024400,0.031598,0.999658,0.005726,0.024027,-0.008614,0.004174,-0.523139,-0.147888,-0.839308
34731,NaN,25.415266,1.936165,6.814592,-5.772536,3.713252,15.660832,0.739010,4.145509,-1.443495,-0.979980,-0.169678,-0.002197,0.255623,0.017281,0.062924,0.999752,0.003695,0.020726,-0.007217,0.003116,-0.504541,-0.154641,-0.849420
34732,NaN,23.190410,9.074729,6.354931,-4.905718,-3.338396,15.192317,-1.501480,2.619144,-2.114514,-0.974854,-0.197510,-0.018799,0.233649,0.088742,0.059826,0.999830,-0.007507,0.013095,-0.010572,-0.007831,-0.491981,-0.153282,-0.856970
34733,NaN,24.142956,12.269094,2.496566,-9.029059,-6.667011,14.957596,-4.880967,-0.619565,-4.243299,-0.967285,-0.240234,-0.029053,0.243895,0.118107,0.022799,0.999472,-0.024401,-0.003097,-0.021213,-0.038484,-0.490943,-0.142703,-0.858563
34734,NaN,17.441672,16.034072,5.977565,-3.169354,-10.282476,12.122845,-4.233155,0.169211,-3.977455,-0.957764,-0.274414,-0.041504,0.177624,0.158045,0.056265,0.999578,-0.021163,0.000846,-0.019884,-0.066188,-0.486692,-0.134042,-0.860687
34735,NaN,16.106288,12.901774,5.406149,-3.911663,-7.376771,9.816748,-4.691951,0.663648,-3.038182,-0.946289,-0.306641,-0.068848,0.163182,0.127762,0.050515,0.999604,-0.023457,0.003318,-0.015189,-0.090204,-0.480066,-0.121412,-0.864095
34736,NaN,13.587099,16.955466,0.928451,-7.570266,-12.257217,6.474726,-6.254444,0.890224,-2.054460,-0.946289,-0.314941,-0.104736,0.137628,0.168314,0.003397,0.999448,-0.031266,0.004450,-0.010270,-0.113994,-0.472222,-0.099555,-0.868390
34737,NaN,10.705869,12.870145,0.020125,-7.434593,-9.079768,2.122643,-7.131317,0.855019,-1.366721,-0.935547,-0.325684,-0.140625,0.107921,0.127853,-0.004829,0.999332,-0.035649,0.004274,-0.006832,-0.136257,-0.463462,-0.072244,-0.872593
34738,NaN,8.207379,6.519510,-1.234248,-6.732843,-3.601320,-2.528426,-7.452168,0.711116,-0.940961,-0.929199,-0.327637,-0.170166,0.082327,0.064281,-0.015042,0.999289,-0.037252,0.003555,-0.004704,-0.157868,-0.454951,-0.042419,-0.875385
34739,NaN,6.246771,-0.685766,-2.594627,-5.246825,2.904268,-6.610208,-7.310005,0.608593,-0.741588,-0.935791,-0.323242,-0.199951,0.062361,-0.008035,-0.025857,0.999321,-0.036542,0.003042,-0.003707,-0.177500,-0.446064,-0.012568,-0.877134
34740,NaN,4.854952,-3.668798,-3.298829,-3.967551,5.550346,-8.648274,-6.501578,0.317125,-0.634126,-0.938232,-0.316650,-0.231689,0.048380,-0.037889,-0.031846,0.999465,-0.032502,0.001585,-0.003170,-0.195451,-0.438955,0.014217,-0.876878
34741,NaN,3.715048,-6.676163,-3.224161,-1.904991,8.069967,-9.809715,-5.393660,-0.127152,-0.710153,-0.934082,-0.314453,-0.250732,0.036931,-0.067729,-0.030400,0.999630,-0.026965,-0.000636,-0.003550,-0.210316,-0.434141,0.036424,-0.875192
34742,NaN,1.428598,-8.321348,-3.457518,0.185666,8.912803,-11.749912,-4.520101,-0.569010,-0.759257,-0.934326,-0.314453,-0.259033,0.014063,-0.084019,-0.032642,0.999733,-0.022598,-0.002845,-0.003796,-0.223933,-0.432236,0.055133,-0.871772
34743,NaN,-1.839503,-9.182283,-2.831369,3.063168,8.382323,-13.820212,-3.447966,-0.945961,-0.665759,-0.936279,-0.318848,-0.257080,-0.018572,-0.092232,-0.026813,0.999835,-0.017239,-0.004730,-0.003329,-0.233985,-0.432622,0.069775,-0.867883
34744,NaN,-4.475877,-9.288233,-2.263331,5.086697,7.339489,-15.441447,-2.192790,-1.267571,-0.603946,-0.938477,-0.314453,-0.257080,-0.044899,-0.092990,-0.021898,0.999915,-0.010964,-0.006338,-0.003020,-0.241460,-0.436050,0.079561,-0.863265
34745,NaN,-6.652613,-8.041545,-2.219188,5.662596,5.462032,-17.020299,-1.070706,-1.629893,-0.487618,-0.944580,-0.323242,-0.242188,-0.066541,-0.080372,-0.022304,0.999949,-0.005353,-0.008149,-0.002438,-0.245235,-0.441977,0.085085,-0.858648
34746,NaN,-7.119717,-6.186804,-2.567240,4.655833,3.835871,-17.504611,-0.306878,-1.929038,-0.370571,-0.944580,-0.318848,-0.225342,-0.071060,-0.061776,-0.026263,0.999951,-0.001534,-0.009645,-0.001853,-0.247114,-0.450305,0.088113,-0.853461
34747,NaN,-7.313833,-5.437842,-3.343208,3.666481,3.459767,-18.108654,0.448446,-2.170854,-0.292092,-0.942139,-0.323242,-0.197754,-0.072848,-0.054196,-0.034346,0.999938,0.002242,-0.010854,-0.001460,-0.246375,-0.460235,0.088221,-0.848351
34748,NaN,-6.204411,-4.935798,-3.796717,2.373465,3.621457,-17.462459,1.314799,-2.362965,-0.287137,-0.950439,-0.329834,-0.180664,-0.061658,-0.049015,-0.039020,0.999908,0.006574,-0.011814,-0.001436,-0.243884,-0.472218,0.085109,-0.842785
34749,NaN,-4.258010,-4.726386,-3.529969,1.388632,4.016494,-15.717281,2.379138,-2.532738,-0.358589,-0.947998,-0.336182,-0.148926,-0.042208,-0.046759,-0.036394,0.999847,0.011895,-0.012663,-0.001793,-0.238659,-0.485884,0.077315,-0.837246
34750,NaN,-3.225760,-3.992903,-4.273034,-0.238499,3.970633,-15.177104,3.678377,-2.717830,-0.481428,-0.951904,-0.340820,-0.102295,-0.031761,-0.039052,-0.043888,0.999736,0.018390,-0.013588,-0.002407,-0.231063,-0.501946,0.064302,-0.830979
34751,NaN,-2.004533,-3.324675,-4.446643,-1.466236,3.757196,-14.121791,4.980993,-2.768479,-0.594672,-0.947266,-0.347168,-0.064209,-0.019516,-0.032063,-0.045547,0.999590,0.024902,-0.013841,-0.002973,-0.220046,-0.519198,0.045291,-0.824598
34752,NaN,0.054402,-1.928023,-4.202601,-2.852800,2.950738,-11.941090,5.775441,-2.541065,-0.567686,-0.942383,-0.358154,-0.019775,0.001030,-0.018059,-0.042548,0.999498,0.028872,-0.012703,-0.002838,-0.207191,-0.536156,0.023222,-0.817967
34753,NaN,2.565649,-1.375143,-3.781640,-3.712614,2.962055,-9.351283,5.887527,-1.884771,-0.401528,-0.942383,-0.351807,0.022461,0.025988,-0.012687,-0.037956,0.999520,0.029433,-0.009422,-0.002007,-0.192731,-0.549763,0.000014,-0.812782
34754,NaN,2.930473,-1.741027,-2.898945,-3.032607,3.091509,-8.687311,5.267952,-1.208537,-0.220490,-0.938232,-0.347656,0.053955,0.029462,-0.016674,-0.029257,0.999634,0.026337,-0.006042,-0.001102,-0.179675,-0.559856,-0.020267,-0.808620
34755,NaN,5.851975,-2.299420,-1.296815,-2.406314,4.185532,-5.581233,4.140521,-0.627012,-0.173126,-0.934326,-0.339111,0.062500,0.058541,-0.022772,-0.013258,0.999780,0.020701,-0.003135,-0.000866,-0.168807,-0.565983,-0.036921,-0.806104
34756,NaN,9.823450,-1.295154,2.888409,0.006802,3.969008,-0.285548,2.852695,0.024023,-0.220564,-0.938232,-0.343506,0.072998,0.098223,-0.013470,0.028683,0.999898,0.014263,0.000120,-0.001103,-0.162175,-0.568545,-0.048447,-0.805052
34757,NaN,13.697918,-0.231472,5.870482,1.344213,3.984649,4.486360,1.455972,0.774664,-0.103652,-0.934082,-0.341309,0.056152,0.137204,-0.002810,0.058154,0.999966,0.007280,0.003873,-0.000518,-0.158258,-0.566576,-0.055227,-0.806781
34758,NaN,14.174517,0.536540,8.746611,3.595149,3.234981,6.134532,0.388828,1.321010,0.068702,-0.934326,-0.334717,0.045410,0.142317,0.005245,0.086538,0.999976,0.001944,0.006605,0.000344,-0.157069,-0.561911,-0.057000,-0.810146
34759,NaN,12.442718,1.847089,13.523784,8.083029,1.053788,6.760495,-0.815112,1.614391,0.318206,-0.930664,-0.326172,0.017822,0.125483,0.019218,0.134150,0.999958,-0.004076,0.008072,0.001591,-0.157602,-0.554812,-0.054068,-0.815121
34760,NaN,12.228058,3.279117,9.618565,3.874604,-0.150850,5.605927,-1.992361,2.799870,0.811093,-0.939209,-0.321777,-0.011719,0.123471,0.034235,0.094126,0.999844,-0.009961,0.013999,0.004055,-0.159444,-0.542256,-0.045323,-0.823700
34761,NaN,5.952078,-2.653573,-8.034128,-8.929227,5.083710,-8.614851,0.842529,2.426503,0.618791,-0.937256,-0.317383,-0.020264,0.058620,-0.026013,-0.081166,0.999913,0.004213,0.012132,0.003094,-0.154045,-0.533041,-0.049044,-0.830501
34762,NaN,9.321533,3.554320,-4.750467,-8.546606,-0.183071,-2.812001,4.042700,0.408107,-0.180995,-0.930908,-0.315186,-0.011719,0.093152,0.036412,-0.046965,0.999793,0.020212,0.002040,-0.000905,-0.144331,-0.534630,-0.066006,-0.830050
34763,NaN,22.351319,11.064983,-10.473917,-19.969280,-3.081020,8.172082,0.072049,-0.453461,-0.190681,-0.937500,-0.311035,-0.011719,0.223855,0.110474,-0.104192,0.999997,0.000360,-0.002267,-0.000953,-0.145077,-0.536513,-0.066486,-0.828665
34764,NaN,23.547043,4.174307,4.828242,-5.194783,3.239040,13.803344,3.219456,-0.231474,-0.133932,-0.926758,-0.309082,0.024170,0.235441,0.040798,0.049217,0.999870,0.016097,-0.001157,-0.000670,-0.137444,-0.540120,-0.079459,-0.826478
34765,NaN,17.967694,24.053699,-28.721595,-35.438317,-18.004093,2.224523,10.542987,-1.765788,-0.464307,-0.922363,-0.304932,0.064209,0.182707,0.254741,-0.272428,0.998569,0.052690,-0.008825,-0.002320,-0.111405,-0.553712,-0.122931,-0.816014
34766,NaN,15.085128,-0.347315,-10.048407,-14.733092,4.049928,-0.058814,7.600020,-1.367757,-0.247621,-0.922607,-0.296387,0.100098,0.151533,0.000133,-0.099490,0.999254,0.037991,-0.006837,-0.001238,-0.092399,-0.563545,-0.153342,-0.806453
34767,NaN,12.196024,-0.200134,2.194740,-2.079485,4.425376,1.575359,3.342634,-1.842752,0.810519,-0.918457,-0.285645,0.125488,0.121759,-0.001887,0.023038,0.999810,0.016712,-0.009213,0.004052,-0.081107,-0.573048,-0.163653,-0.798909
34768,NaN,12.566471,2.285644,9.407676,4.990813,3.383973,4.859715,0.997783,-1.389033,1.319481,-0.916992,-0.268555,0.135742,0.124854,0.023209,0.095061,0.999942,0.004989,-0.006945,0.006597,-0.074221,-0.580641,-0.162868,-0.794243
34769,NaN,9.596598,2.168268,-8.128951,-10.431042,-0.619698,-2.487147,3.023151,-2.312381,1.531423,-0.919434,-0.249512,0.163086,0.096719,0.023635,-0.079827,0.999790,0.015115,-0.011561,0.007657,-0.061230,-0.592084,-0.169533,-0.785459
34770,NaN,13.826987,2.055035,-3.222820,-6.652701,1.409239,2.817568,3.743735,-2.319014,2.123970,-0.924561,-0.213135,0.192627,0.138395,0.022598,-0.030214,0.999701,0.018717,-0.011594,0.010619,-0.043774,-0.604525,-0.176778,-0.775489
34771,NaN,16.398396,2.599523,5.318289,1.378046,3.282365,7.253290,2.592109,-2.601291,2.329854,-0.918701,-0.191650,0.217773,0.162959,0.027187,0.055654,0.999764,0.012960,-0.013005,0.011648,-0.029195,-0.617109,-0.179174,-0.765651
34772,NaN,20.698107,5.883565,-0.370281,-3.816974,-0.237480,11.364780,0.715630,-3.004062,2.135271,-0.915039,-0.172607,0.245117,0.206360,0.061046,-0.000384,0.999824,0.003578,-0.015019,0.010676,-0.021331,-0.631040,-0.174509,-0.755566
34773,NaN,22.160888,8.319214,-5.651147,-7.961960,-3.684470,12.885734,0.302765,-3.182383,2.068077,-0.906982,-0.155518,0.268066,0.221593,0.085566,-0.052857,0.999819,0.001514,-0.015911,0.010340,-0.015335,-0.644799,-0.168755,-0.745333
34774,NaN,22.068259,5.471343,-0.797909,-2.940780,-0.155287,12.744734,0.848171,-3.499298,1.854364,-0.896729,-0.136230,0.303955,0.220254,0.056779,-0.003885,0.999795,0.004241,-0.017495,0.009271,-0.008565,-0.659873,-0.165261,-0.732928
34775,NaN,22.610966,8.676017,1.617926,0.975171,-2.663281,14.291355,1.055303,-4.105789,1.453193,-0.884277,-0.119141,0.337646,0.225070,0.088295,0.021270,0.999749,0.005276,-0.020527,0.007265,-0.003147,-0.676013,-0.164115,-0.718375
34776,NaN,23.656122,3.472205,3.701959,2.893274,2.945192,14.024853,2.376020,-4.148004,1.032993,-0.869873,-0.102295,0.375488,0.235538,0.035459,0.042330,0.999701,0.011879,-0.020738,0.005164,0.005262,-0.692105,-0.168673,-0.701792
34777,NaN,24.311254,4.603168,5.603975,6.007493,2.548411,14.701867,3.009493,-3.363244,1.278293,-0.855469,-0.076660,0.400635,0.241820,0.046689,0.060813,0.999725,0.015046,-0.016815,0.006391,0.017325,-0.704729,-0.174849,-0.687375
34778,NaN,18.840524,7.005621,6.840104,8.739936,-0.557895,9.528545,2.690255,-2.788755,1.429265,-0.841309,-0.051025,0.427734,0.186916,0.070444,0.071960,0.999787,0.013450,-0.013943,0.007146,0.029378,-0.715631,-0.178863,-0.674549
34779,NaN,18.089302,8.887966,10.625794,13.576947,-1.331806,8.434566,2.103594,-2.880150,1.340125,-0.826660,-0.044678,0.448730,0.178733,0.088940,0.109778,0.999819,0.010517,-0.014400,0.006700,0.038844,-0.726119,-0.181552,-0.662028
34780,NaN,14.585972,5.830105,12.985314,15.193128,1.554309,3.681012,1.896790,-2.473313,1.378271,-0.816650,-0.016846,0.465576,0.143834,0.058051,0.132192,0.999855,0.009483,-0.012366,0.006891,0.048080,-0.735461,-0.182851,-0.650654
34781,NaN,11.038314,4.976738,11.563713,13.584499,1.313369,-0.114691,2.511140,-1.832565,1.383478,-0.808838,0.002441,0.480225,0.108973,0.049059,0.117259,0.999855,0.012555,-0.009162,0.006917,0.060134,-0.741992,-0.186346,-0.641177
34782,NaN,7.273651,7.671736,8.494246,11.494254,-2.788956,-3.178968,2.271577,-1.416902,1.361100,-0.801025,0.026123,0.484131,0.071608,0.076232,0.086320,0.999887,0.011357,-0.007084,0.006805,0.071623,-0.747322,-0.188539,-0.633114
34783,NaN,3.084894,6.791650,3.520787,6.214085,-4.412607,-6.658361,1.440961,-1.559447,1.167169,-0.790771,0.043213,0.498779,0.030175,0.067837,0.035934,0.999927,0.007205,-0.007797,0.005836,0.079228,-0.752802,-0.189282,-0.625447
34784,NaN,2.306655,4.188273,1.470876,3.314724,-2.884917,-7.422108,0.845331,-1.456402,1.040735,-0.780273,0.045166,0.507080,0.022740,0.041938,0.015052,0.999951,0.004227,-0.007282,0.005204,0.084314,-0.758190,-0.188210,-0.618560
34785,NaN,0.674202,1.512725,1.722257,2.264476,-0.639975,-9.398544,0.520981,-1.140391,0.985878,-0.767822,0.055908,0.515625,0.006569,0.015115,0.017300,0.999968,0.002605,-0.005702,0.004929,0.088264,-0.762415,-0.186557,-0.613294
34786,NaN,1.484098,1.306667,5.265620,5.532622,0.965789,-9.506577,-0.092101,-0.899588,0.853629,-0.761230,0.053711,0.511230,0.014548,0.013153,0.052716,0.999981,-0.000461,-0.004498,0.004268,0.089712,-0.766193,-0.183078,-0.609412
34787,NaN,2.666124,3.743788,9.762165,10.765599,0.510617,-9.298382,-0.441813,-0.463562,0.599910,-0.761475,0.058105,0.511230,0.026322,0.037733,0.097600,0.999990,-0.002209,-0.002318,0.003000,0.089424,-0.768360,-0.179638,-0.607747
34788,NaN,2.061560,5.856619,9.717927,11.420621,-1.597509,-9.738609,-0.072124,0.122818,0.363091,-0.757080,0.058105,0.511230,0.020569,0.058639,0.097145,0.999998,-0.000361,0.000614,0.001815,0.090367,-0.768499,-0.177631,-0.608022
34789,NaN,1.349164,8.765442,4.894047,8.056478,-6.088826,-9.022760,0.620010,0.697523,0.107704,-0.763916,0.064453,0.496338,0.013616,0.087510,0.049165,0.999989,0.003100,0.003488,0.000539,0.093697,-0.766200,-0.178783,-0.610078
34790,NaN,0.340497,10.889240,-2.236635,2.288748,-10.754481,-8.140350,0.294821,0.648103,-0.229084,-0.767822,0.058105,0.498535,0.003458,0.108921,-0.022217,0.999993,0.001474,0.003241,-0.001145,0.094703,-0.763976,-0.179994,-0.612351
34791,NaN,0.579564,6.406811,-3.391173,-0.462397,-7.018748,-7.967047,-0.481279,0.524558,-0.538393,-0.765625,0.051758,0.479492,0.005879,0.063970,-0.034081,0.999990,-0.002406,0.002623,-0.002692,0.091690,-0.762121,-0.180325,-0.615019
34792,NaN,1.381976,1.577016,2.232188,2.870663,-0.419266,-8.831416,-0.453077,0.938455,-0.623554,-0.767578,0.043213,0.471191,0.013973,0.015777,0.022221,0.999982,-0.002265,0.004692,-0.003118,0.088901,-0.758948,-0.180767,-0.619207
34793,NaN,1.348298,0.204557,6.666059,6.364539,2.405079,-9.863375,-0.961484,1.952326,-0.560128,-0.777832,0.026123,0.450195,0.014139,0.002327,0.066514,0.999937,-0.004807,0.009761,-0.002801,0.085279,-0.752792,-0.179035,-0.627676
34794,NaN,0.552620,-0.031400,6.454804,5.991031,2.376448,-10.467112,-1.102742,2.539560,-0.521526,-0.788330,0.021973,0.429199,0.006345,0.000026,0.064471,0.999901,-0.005514,0.012697,-0.002608,0.081755,-0.744814,-0.176317,-0.638342
34795,NaN,1.137729,0.178841,5.461991,5.248033,1.882513,-9.544309,-1.391617,2.472483,-0.540999,-0.794189,0.004883,0.408203,0.012057,0.002136,0.054460,0.999896,-0.006958,0.012362,-0.002705,0.077020,-0.736952,-0.172859,-0.648914
34796,NaN,2.699775,-0.965157,2.367842,2.110887,2.094208,-7.579990,-1.973413,2.433008,-0.522003,-0.802490,-0.010010,0.383057,0.027259,-0.009490,0.023442,0.999874,-0.009867,0.012165,-0.002610,0.070129,-0.729313,-0.167273,-0.659700
34797,NaN,3.435841,-0.240249,0.838881,0.922182,1.003467,-6.540305,-2.316894,2.538659,-0.510652,-0.808594,-0.020752,0.357666,0.034455,-0.002396,0.007980,0.999849,-0.011584,0.012693,-0.002553,0.062111,-0.721231,-0.160576,-0.670957
34798,NaN,3.623098,0.612007,0.646135,0.924248,0.139746,-6.201050,-2.853828,2.776895,-0.400136,-0.816895,-0.035645,0.328125,0.036327,0.006134,0.005870,0.999800,-0.014268,0.013884,-0.002001,0.052666,-0.712370,-0.151382,-0.683256
34799,NaN,6.521711,2.195134,0.056548,0.691142,-1.158618,-3.065194,-2.031630,3.348264,-0.227014,-0.825195,-0.041992,0.294434,0.065237,0.021874,-0.000749,0.999808,-0.010158,0.016740,-0.001135,0.047182,-0.701175,-0.144337,-0.696631
34800,NaN,12.505489,4.586119,-0.165219,0.649815,-2.752889,3.203537,-1.483842,3.742111,-0.464938,-0.831299,-0.061035,0.256592,0.125097,0.045545,-0.004331,0.999795,-0.007419,0.018709,-0.002325,0.043020,-0.688039,-0.139731,-0.710793
34801,NaN,18.625975,9.360478,2.421807,3.345885,-5.921669,10.038809,-1.680228,3.821344,-1.003679,-0.831299,-0.065186,0.220703,0.187134,0.092846,0.019866,0.999770,-0.008400,0.019105,-0.005018,0.036336,-0.673978,-0.136356,-0.725148
34802,NaN,25.133304,11.659362,0.118894,0.010057,-7.835810,16.759974,-2.409863,3.630614,-1.415232,-0.836914,-0.093018,0.187012,0.252099,0.114778,-0.004773,0.999738,-0.012048,0.018151,-0.007076,0.025529,-0.660122,-0.131609,-0.739098
34803,NaN,33.924206,9.269704,-1.999529,-5.034236,-4.686416,24.731224,-3.026440,3.356254,-1.314350,-0.843018,-0.105713,0.155518,0.339425,0.090093,-0.027067,0.999723,-0.015131,0.016780,-0.006571,0.012889,-0.647077,-0.124296,-0.752114
34804,NaN,33.209578,3.586967,-1.695386,-7.063961,0.943764,22.862461,-3.340648,3.644987,-1.049444,-0.844971,-0.118652,0.113281,0.331887,0.033771,-0.023580,0.999681,-0.016701,0.018223,-0.005247,0.000405,-0.632743,-0.114866,-0.765795
34805,NaN,30.266916,-1.374565,-0.869950,-7.695979,5.642064,18.954145,-2.758740,4.228542,-1.178597,-0.844727,-0.135498,0.077393,0.302309,-0.015705,-0.014887,0.999664,-0.013792,0.021140,-0.005892,-0.010402,-0.615688,-0.107982,-0.780487
34806,NaN,28.871821,-3.467624,1.027179,-7.070465,7.922494,17.274861,-1.805987,4.991751,-1.298192,-0.844482,-0.146240,0.035156,0.288627,-0.036499,0.003391,0.999627,-0.009029,0.024956,-0.006490,-0.018327,-0.595251,-0.105117,-0.796424
34807,NaN,29.642040,-4.600999,2.806397,-7.148476,9.593435,17.834110,-0.432751,5.266582,-1.568505,-0.846191,-0.167480,-0.006836,0.296651,-0.048286,0.020356,0.999620,-0.002163,0.026330,-0.007842,-0.023080,-0.573211,-0.108501,-0.811865
34808,NaN,30.204247,-4.722921,3.193840,-8.484876,10.126795,17.936866,1.108681,4.884314,-1.711186,-0.837646,-0.171631,-0.042725,0.302278,-0.049964,0.024286,0.999650,0.005543,0.024419,-0.008555,-0.024230,-0.552509,-0.118279,-0.824716
34809,NaN,27.570062,-1.466452,7.114702,-4.948350,7.466283,17.252014,1.318266,4.350568,-1.316977,-0.835205,-0.186523,-0.078613,0.277053,-0.016928,0.065023,0.999720,0.006591,0.021751,-0.006584,-0.023435,-0.533818,-0.127843,-0.835551
34810,NaN,21.381178,7.972778,6.633016,-2.820718,-2.554792,13.643140,-0.581805,2.868598,-1.920942,-0.828125,-0.214355,-0.089111,0.215485,0.077850,0.063019,0.999847,-0.002909,0.014342,-0.009604,-0.031261,-0.520642,-0.130595,-0.843149
34811,NaN,24.094755,15.624609,0.971579,-9.255532,-9.843932,15.543170,-4.913050,-0.821460,-4.248688,-0.816650,-0.244385,-0.097412,0.244164,0.151275,0.006957,0.999464,-0.024561,-0.004107,-0.021240,-0.062471,-0.520304,-0.120744,-0.843091
34812,NaN,14.820288,15.038320,4.655546,-2.671918,-10.252275,9.032449,-4.124714,0.846256,-3.351019,-0.805420,-0.272217,-0.111816,0.150891,0.148779,0.042841,0.999638,-0.020621,0.004231,-0.016753,-0.086833,-0.513451,-0.112139,-0.846318
34813,NaN,15.966400,13.465281,1.823021,-6.510705,-8.356202,8.278245,-4.538925,0.610733,-2.822332,-0.796631,-0.278564,-0.141602,0.161595,0.132742,0.014711,0.999638,-0.022692,0.003053,-0.014110,-0.110046,-0.507149,-0.100399,-0.848887
34814,NaN,11.814005,13.887585,2.392056,-4.946937,-9.668701,5.024229,-4.920198,1.498541,-1.592005,-0.788086,-0.289062,-0.166748,0.119401,0.138447,0.019619,0.999638,-0.024598,0.007492,-0.007959,-0.128471,-0.497321,-0.084326,-0.853848
34815,NaN,9.818217,10.222817,-0.278357,-6.596724,-6.692090,0.800209,-5.868394,1.312225,-1.078682,-0.788086,-0.293213,-0.194336,0.098697,0.101544,-0.006417,0.999533,-0.029337,0.006560,-0.005393,-0.147046,-0.487285,-0.062756,-0.858483
34816,NaN,6.764979,3.857196,-0.738165,-4.748138,-1.451716,-3.768921,-5.933258,1.041702,-0.866829,-0.777588,-0.293213,-0.226074,0.067772,0.038030,-0.008868,0.999537,-0.029662,0.005208,-0.004333,-0.164765,-0.478196,-0.040244,-0.861720
34817,NaN,5.091901,-1.676398,-2.937686,-4.474823,3.570081,-7.669269,-5.663660,0.698268,-0.818968,-0.780029,-0.284668,-0.249268,0.050746,-0.017798,-0.029060,0.999585,-0.028314,0.003491,-0.004094,-0.181617,-0.470181,-0.018356,-0.863486
34818,NaN,3.133160,-5.038143,-3.446468,-2.722226,6.285617,-10.198816,-5.213313,0.291450,-0.845735,-0.773682,-0.284424,-0.270508,0.031067,-0.051389,-0.033179,0.999650,-0.026064,0.001457,-0.004228,-0.197388,-0.464218,0.001801,-0.863444
34819,NaN,0.872775,-7.385153,-3.427294,-0.467385,7.775287,-12.335229,-4.508127,-0.205140,-0.895593,-0.771973,-0.275879,-0.281250,0.008429,-0.074637,-0.032588,0.999735,-0.022539,-0.001026,-0.004478,-0.211655,-0.460561,0.019392,-0.861806
34820,NaN,-2.847267,-8.432308,-3.815129,1.763427,7.565983,-15.592232,-3.794879,-0.604678,-0.775090,-0.767578,-0.282227,-0.287598,-0.028689,-0.084917,-0.036630,0.999808,-0.018973,-0.003023,-0.003875,-0.223641,-0.459425,0.034571,-0.858905
34821,NaN,-6.134958,-8.813610,-3.378579,4.072091,6.641299,-17.939202,-2.807185,-0.988292,-0.586038,-0.767578,-0.282227,-0.279053,-0.061445,-0.088422,-0.032849,0.999885,-0.014035,-0.004941,-0.002930,-0.232401,-0.460600,0.046389,-0.855386
34822,NaN,-8.479139,-7.646574,-3.328508,4.778663,4.767074,-19.604735,-1.561922,-1.373271,-0.390002,-0.767334,-0.284424,-0.272705,-0.084712,-0.076560,-0.033269,0.999944,-0.007809,-0.006866,-0.001950,-0.237387,-0.464994,0.053830,-0.851194
34823,NaN,-9.753725,-6.012801,-4.423464,3.711319,3.262820,-21.056980,-0.443153,-1.702133,-0.184047,-0.769531,-0.286621,-0.260010,-0.097212,-0.060137,-0.044930,0.999961,-0.002216,-0.008511,-0.000920,-0.238724,-0.471765,0.057314,-0.846855
34824,NaN,-9.284472,-4.870654,-5.403304,2.043984,2.809958,-21.083992,0.557476,-1.888255,-0.051025,-0.775635,-0.288818,-0.245117,-0.092341,-0.048530,-0.055042,0.999952,0.002787,-0.009441,-0.000255,-0.237143,-0.480660,0.057207,-0.842293
34825,NaN,-8.314921,-3.810037,-5.542274,0.800420,2.305505,-20.224661,1.575337,-1.983924,-0.016950,-0.775635,-0.289062,-0.219727,-0.082595,-0.037651,-0.056542,0.999920,0.007876,-0.009919,-0.000085,-0.232832,-0.490870,0.052888,-0.837877
34826,NaN,-6.013105,-3.230145,-5.165020,-0.369405,2.459238,-18.002812,2.578297,-2.129268,-0.054504,-0.779541,-0.295410,-0.194336,-0.059582,-0.031610,-0.052697,0.999860,0.012891,-0.010646,-0.000273,-0.226210,-0.502969,0.044583,-0.832985
34827,NaN,-4.510383,-3.355092,-5.247603,-1.265195,3.048701,-16.757736,3.583329,-2.318170,-0.186858,-0.774902,-0.299805,-0.164795,-0.044518,-0.032556,-0.053584,0.999772,0.017915,-0.011590,-0.000934,-0.217399,-0.516625,0.031810,-0.827541
34828,NaN,-2.290337,-2.784313,-5.046150,-2.443532,3.106519,-14.590975,4.461413,-2.474016,-0.274172,-0.776855,-0.304199,-0.128662,-0.022309,-0.026673,-0.051344,0.999674,0.022305,-0.012369,-0.001371,-0.206617,-0.531821,0.015516,-0.821118
34829,NaN,-0.031705,-1.971467,-4.174626,-2.997872,2.750859,-11.993509,4.746589,-2.345786,-0.226786,-0.778564,-0.312988,-0.096924,0.000155,-0.018717,-0.042198,0.999649,0.023730,-0.011728,-0.001134,-0.194664,-0.546206,-0.002146,-0.814715
34830,NaN,2.077394,-1.093805,-2.948259,-2.991959,2.244123,-9.349345,4.374786,-2.066221,-0.154023,-0.774170,-0.312988,-0.069336,0.021071,-0.010309,-0.029496,0.999707,0.021872,-0.010330,-0.000770,-0.183375,-0.558972,-0.018144,-0.808452
34831,NaN,4.188248,-1.341412,-1.391594,-2.185426,2.801061,-6.870742,3.635168,-1.691425,-0.072293,-0.771973,-0.312988,-0.037842,0.041995,-0.013178,-0.013802,0.999799,0.018175,-0.008457,-0.000361,-0.173616,-0.569045,-0.031477,-0.803153
34832,NaN,7.790124,-2.133351,0.900453,-0.902485,4.327607,-2.993212,2.894404,-1.098726,-0.032883,-0.765381,-0.313232,-0.031494,0.077848,-0.021478,0.009122,0.999880,0.014471,-0.005493,-0.000164,-0.165725,-0.576165,-0.041978,-0.799254
34833,NaN,11.342553,-0.655441,4.439641,1.116765,3.660896,1.769348,2.001847,-0.165054,0.002861,-0.761475,-0.304688,-0.025146,0.113389,-0.006997,0.044421,0.999950,0.010009,-0.000825,0.000014,-0.159965,-0.578477,-0.049822,-0.798306
34834,NaN,14.328565,-0.354985,7.324228,2.903732,4.089500,5.481779,1.293495,0.739578,0.127493,-0.761475,-0.304443,-0.031494,0.143558,-0.003930,0.072687,0.999972,0.006467,0.003698,0.000637,-0.155594,-0.576848,-0.054903,-0.800014
34835,NaN,15.491287,0.599633,11.158681,5.837079,3.292949,8.074061,0.584107,1.285848,0.228864,-0.761475,-0.304443,-0.033691,0.155619,0.005850,0.110605,0.999974,0.002921,0.006429,0.001144,-0.152629,-0.572230,-0.057571,-0.803706
34836,NaN,13.028406,1.834609,15.779754,10.441267,0.994207,7.853335,-0.507737,1.483931,0.297801,-0.759766,-0.295898,-0.050537,0.131422,0.018940,0.156778,0.999968,-0.002539,0.007420,0.001489,-0.152538,-0.566198,-0.055463,-0.808131
34837,NaN,11.155973,2.744672,16.995180,11.614024,-0.675060,7.082639,-1.960219,2.258627,0.501693,-0.760254,-0.285156,-0.078125,0.113395,0.029385,0.168396,0.999885,-0.009801,0.011293,0.002508,-0.155408,-0.555675,-0.047831,-0.815344
34838,NaN,1.021388,-3.577467,-10.740242,-9.466934,4.726527,-13.963180,-0.710616,2.182651,0.165219,-0.751465,-0.291504,-0.084473,0.009072,-0.036148,-0.107378,0.999934,-0.003553,0.010913,0.000826,-0.156276,-0.546412,-0.045818,-0.821531
34839,NaN,12.137847,-5.166675,-21.359988,-23.001532,10.008508,-8.884216,6.409593,0.900156,-0.282748,-0.753418,-0.293701,-0.063232,0.120344,-0.044947,-0.215656,0.999475,0.032042,0.004500,-0.001413,-0.139632,-0.547394,-0.073585,-0.821856
34840,NaN,12.744116,10.549821,-12.063125,-17.128678,-5.891836,-0.268333,3.943964,0.068036,-0.264690,-0.742676,-0.295898,-0.065430,0.127542,0.107681,-0.118565,0.999805,0.019719,0.000340,-0.001323,-0.129974,-0.549960,-0.090134,-0.820077
34841,NaN,32.824643,0.348004,21.572593,7.668531,9.628498,27.487767,-4.458191,1.718390,0.006236,-0.743164,-0.287354,-0.082520,0.330083,0.008255,0.212746,0.999715,-0.022289,0.008591,0.000031,-0.141387,-0.539888,-0.072921,-0.826567
34842,NaN,21.926835,21.224678,-19.617339,-28.768191,-13.236644,7.874578,8.268729,-0.574523,-1.305532,-0.736084,-0.302490,-0.029541,0.221227,0.218654,-0.186586,0.999120,0.041332,-0.002872,-0.006526,-0.124643,-0.547483,-0.109715,-0.820176
34843,NaN,17.693748,14.046307,-29.737404,-34.619597,-10.069819,-0.129538,10.582295,-1.259009,-1.009324,-0.729492,-0.306885,0.010742,0.179530,0.154981,-0.288302,0.998568,0.052886,-0.006292,-0.005044,-0.100330,-0.557923,-0.154903,-0.809112
34844,NaN,15.442099,-5.705155,-0.756238,-6.309195,10.376138,1.327701,4.928498,-1.242856,-0.203598,-0.729736,-0.293945,0.019043,0.154412,-0.057015,-0.008008,0.999677,0.024640,-0.006214,-0.001018,-0.088307,-0.565567,-0.174469,-0.801184
34845,NaN,12.456936,2.577070,19.615607,14.314704,5.273593,7.903447,0.224853,-0.754297,1.558213,-0.732178,-0.279053,0.033691,0.123624,0.026515,0.196653,0.999962,0.001124,-0.003771,0.007791,-0.082078,-0.570051,-0.170616,-0.799497
34846,NaN,5.660653,5.749175,-8.524659,-9.426111,-5.158400,-5.091411,2.697127,-1.396352,2.103118,-0.734863,-0.257812,0.059082,0.056579,0.059226,-0.084061,0.999829,0.013485,-0.006981,0.010515,-0.067157,-0.578898,-0.174439,-0.793687
34847,NaN,9.049233,1.731656,-11.040130,-13.020204,-1.232007,-3.838494,3.567321,-2.132859,2.107289,-0.741455,-0.247070,0.077881,0.091457,0.020231,-0.109086,0.999729,0.017835,-0.010663,0.010535,-0.050306,-0.590265,-0.181724,-0.784877
34848,NaN,14.361551,-0.025701,1.649589,-2.542101,4.501233,3.686868,3.866824,-2.079114,2.475976,-0.744385,-0.221436,0.105225,0.143425,0.001181,0.018001,0.999682,0.019332,-0.010394,0.012379,-0.031000,-0.601954,-0.188679,-0.775300
34849,NaN,16.327544,1.424368,6.292792,1.982064,4.697512,6.986109,2.910635,-2.290169,2.605055,-0.742676,-0.197998,0.128418,0.162343,0.015426,0.065009,0.999744,0.014552,-0.011450,0.013024,-0.014289,-0.613611,-0.191711,-0.765849
34850,NaN,22.565150,7.561288,-4.231990,-7.483436,-2.562422,13.026268,2.024084,-2.774839,2.373476,-0.739014,-0.174316,0.147217,0.225281,0.078690,-0.038406,0.999782,0.010120,-0.013873,0.011867,-0.001593,-0.627002,-0.191547,-0.755099
34851,NaN,23.822837,10.646645,-6.818361,-8.590118,-6.175257,14.994016,0.617094,-2.968670,1.998523,-0.735107,-0.165771,0.170410,0.238121,0.109049,-0.064315,0.999835,0.003085,-0.014843,0.009992,0.005050,-0.640051,-0.187550,-0.745073
34852,NaN,21.919289,8.122226,0.135376,-1.318713,-2.457268,13.394880,0.341586,-3.944624,1.429644,-0.735107,-0.155273,0.206299,0.218520,0.082779,0.005809,0.999779,0.001708,-0.019722,0.007148,0.007856,-0.656426,-0.183966,-0.731574
34853,NaN,19.498527,4.694429,3.917248,2.693154,1.220476,10.405242,1.037302,-4.158788,1.076685,-0.722900,-0.138184,0.237793,0.193856,0.047772,0.043458,0.999756,0.005186,-0.020792,0.005383,0.011378,-0.672452,-0.184337,-0.716728
34854,NaN,20.199707,1.595631,3.370784,2.161891,4.161949,10.184420,2.687704,-3.751076,1.081527,-0.708252,-0.123291,0.267090,0.201226,0.016557,0.037707,0.999719,0.013437,-0.018754,0.005407,0.020934,-0.687008,-0.190161,-0.701014
34855,NaN,22.629624,3.818291,4.023565,4.134646,2.939538,12.926438,3.078414,-3.231001,1.185060,-0.704346,-0.104248,0.296631,0.225372,0.038857,0.044476,0.999734,0.015391,-0.016154,0.005925,0.032589,-0.698978,-0.197159,-0.686655
34856,NaN,19.849094,4.180580,8.286020,9.149670,3.444387,9.795634,3.339822,-3.096222,1.228823,-0.687988,-0.084961,0.317627,0.196913,0.041593,0.086613,0.999722,0.016698,-0.015480,0.006144,0.045534,-0.710505,-0.204403,-0.671810
34857,NaN,17.880931,10.970954,11.931343,15.609725,-1.732577,8.509790,2.787235,-2.617403,1.297931,-0.681885,-0.067871,0.342773,0.176505,0.109161,0.123157,0.999796,0.013935,-0.013086,0.006489,0.057115,-0.719869,-0.209701,-0.659206
34858,NaN,13.059992,9.954042,12.749512,16.311442,-1.382409,3.000926,2.341109,-1.993572,1.181213,-0.671875,-0.050781,0.353271,0.128728,0.098793,0.129944,0.999864,0.011705,-0.009967,0.005906,0.067444,-0.727260,-0.213322,-0.648874
34859,NaN,8.999887,6.058048,11.875059,13.964179,1.104312,-1.908103,2.360394,-1.555689,1.287322,-0.670166,-0.033691,0.365723,0.088682,0.059742,0.120152,0.999879,0.011801,-0.007778,0.006436,0.078540,-0.732822,-0.216791,-0.640161
34860,NaN,6.804862,4.367636,8.327327,10.003921,0.920023,-3.999364,2.721605,-1.241026,1.349407,-0.662109,-0.014404,0.374023,0.067236,0.042989,0.084280,0.999865,0.013607,-0.006205,0.006747,0.091565,-0.737355,-0.220641,-0.631855
34861,NaN,3.287426,4.283032,2.388393,4.404295,-2.106574,-6.493208,1.582728,-1.140298,1.369676,-0.654053,0.002686,0.380127,0.032443,0.042862,0.024409,0.999929,0.007913,-0.005701,0.006848,0.100467,-0.741717,-0.221091,-0.625205
34862,NaN,1.451142,3.115879,0.356324,1.918470,-2.309766,-8.102234,0.441381,-1.366079,1.290304,-0.650391,0.017822,0.390625,0.014285,0.031243,0.003730,0.999953,0.002207,-0.006830,0.006451,0.104704,-0.747380,-0.218003,-0.618818
34863,NaN,1.380576,1.972105,4.753368,5.275042,0.546951,-9.298999,0.114408,-1.209800,1.233440,-0.639648,0.021973,0.403320,0.013396,0.019777,0.047627,0.999963,0.000572,-0.006049,0.006167,0.107629,-0.752404,-0.214366,-0.613475
34864,NaN,2.078089,3.889742,9.101453,10.077199,0.798681,-9.502639,-0.037890,-0.751468,1.027749,-0.635742,0.026123,0.403076,0.020238,0.039020,0.091084,0.999980,-0.000189,-0.003757,0.005139,0.109908,-0.756014,-0.210442,-0.609981
34865,NaN,2.039365,6.230964,8.440713,10.552521,-1.599322,-9.250741,-0.091123,-0.008900,0.769290,-0.635742,0.032715,0.401123,0.020150,0.062426,0.084380,0.999992,-0.000456,-0.000045,0.003846,0.111905,-0.756920,-0.207253,-0.609586
34866,NaN,1.158012,9.367937,4.329792,8.213482,-6.293529,-8.931515,0.300739,0.560822,0.470827,-0.642334,0.036865,0.398926,0.011481,0.093641,0.043406,0.999992,0.001504,0.002804,0.002354,0.115117,-0.755674,-0.205748,-0.611042
34867,NaN,0.508957,11.536774,-0.363296,4.981346,-10.321034,-8.346183,0.102407,0.653926,0.027803,-0.633789,0.036865,0.394531,0.005062,0.115370,-0.003590,0.999995,0.000512,0.003270,0.000139,0.116266,-0.753667,-0.205571,-0.613358
34868,NaN,1.486994,9.334838,-1.246964,3.341935,-8.584993,-7.356228,-0.593737,0.636515,-0.397385,-0.642090,0.028320,0.396973,0.015015,0.093281,-0.012794,0.999989,-0.002969,0.003183,-0.001987,0.113505,-0.751758,-0.204651,-0.616519
34869,NaN,2.527240,4.092317,1.109029,3.172963,-2.761997,-7.230619,-1.164914,0.979782,-0.619237,-0.644043,0.021973,0.384277,0.025452,0.040908,0.010728,0.999966,-0.005825,0.004899,-0.003096,0.108222,-0.748765,-0.202817,-0.621694
34870,NaN,2.754942,-0.483928,3.598939,3.372366,2.373048,-7.870630,-1.224942,1.648456,-0.615854,-0.642090,0.021973,0.373535,0.027830,-0.004705,0.035790,0.999943,-0.006125,0.008242,-0.003079,0.103419,-0.743733,-0.200253,-0.629336
34871,NaN,2.242979,-0.352336,5.636158,5.177051,2.956536,-8.639335,-1.196623,2.194893,-0.545642,-0.656738,0.017822,0.354736,0.023038,-0.003249,0.056131,0.999918,-0.005983,0.010974,-0.002728,0.099447,-0.736865,-0.197358,-0.638898
34872,NaN,2.438919,-0.219287,6.280117,5.835504,3.060164,-8.392856,-1.662575,2.317628,-0.582380,-0.662842,0.007080,0.342041,0.025109,-0.001745,0.062529,0.999894,-0.008313,0.011588,-0.002912,0.093761,-0.729717,-0.192839,-0.649257
34873,NaN,2.871731,-2.505919,4.453539,3.296153,4.426659,-7.838057,-2.147303,2.551794,-0.565183,-0.666748,-0.010010,0.325439,0.029215,-0.024664,0.044431,0.999857,-0.010736,0.012758,-0.002826,0.086545,-0.721818,-0.186699,-0.660781
34874,NaN,3.184816,-3.760901,1.880154,0.471129,4.624543,-7.319918,-2.006386,2.775176,-0.490686,-0.677490,-0.007812,0.302002,0.032016,-0.037499,0.018735,0.999850,-0.010031,0.013875,-0.002453,0.080272,-0.713017,-0.180400,-0.672770
34875,NaN,3.157135,-1.569836,1.597513,0.980465,2.472252,-7.000202,-1.893051,2.978768,-0.358637,-0.685791,-0.018311,0.283203,0.031778,-0.015606,0.015651,0.999843,-0.009465,0.014893,-0.001793,0.074999,-0.703350,-0.174079,-0.685106
34876,NaN,4.995430,0.149604,0.427127,0.376226,0.689645,-4.858943,-2.070916,3.326542,-0.223863,-0.700439,-0.026855,0.260010,0.050018,0.001478,0.003424,0.999807,-0.010354,0.016632,-0.001119,0.069834,-0.692466,-0.166247,-0.698553
34877,NaN,9.939261,3.209884,-2.489629,-1.826776,-2.552813,0.454690,-1.510715,3.992427,-0.207006,-0.708984,-0.028809,0.230469,0.098899,0.031797,-0.027115,0.999772,-0.007553,0.019961,-0.001035,0.067192,-0.678749,-0.160247,-0.713517
34878,NaN,14.517609,8.868534,1.161434,2.533539,-6.267001,5.840668,-0.934080,4.071658,-0.593661,-0.717529,-0.033203,0.213623,0.145629,0.088297,0.008239,0.999777,-0.004670,0.020357,-0.002968,0.065150,-0.663979,-0.157296,-0.728111
34879,NaN,21.366103,14.293391,3.449431,4.700239,-10.019110,13.642079,-1.942030,3.834607,-1.063020,-0.723633,-0.043701,0.179932,0.215009,0.142093,0.028998,0.999755,-0.009709,0.019171,-0.005315,0.057842,-0.649684,-0.152460,-0.742510
34880,NaN,30.485113,13.226868,0.124249,-1.462228,-9.111311,22.108231,-3.503196,3.498170,-1.214262,-0.723633,-0.054443,0.158936,0.305579,0.130347,-0.006393,0.999675,-0.017514,0.017489,-0.006071,0.044600,-0.636619,-0.142197,-0.756642
34881,NaN,32.730121,2.794466,-0.103315,-6.115725,1.041200,22.443352,-3.559519,3.509580,-1.166543,-0.735840,-0.069336,0.133545,0.327366,0.025943,-0.007251,0.999671,-0.017796,0.017546,-0.005832,0.031349,-0.623129,-0.131607,-0.770329
34882,NaN,29.863442,1.042628,-0.943697,-7.906559,2.269531,18.927537,-2.696909,3.996050,-1.260412,-0.738037,-0.075684,0.102051,0.298422,0.008363,-0.015523,0.999690,-0.013483,0.019978,-0.006301,0.020716,-0.607201,-0.124381,-0.784479
34883,NaN,27.224431,-2.274304,0.738563,-7.466298,5.617577,15.866964,-1.525749,4.734613,-1.265286,-0.742188,-0.086182,0.063965,0.272169,-0.024441,0.001124,0.999671,-0.007628,0.023670,-0.006326,0.014071,-0.587836,-0.121698,-0.799651
34884,NaN,26.199065,-2.372518,1.324852,-7.851850,5.782678,14.652395,-0.288155,4.842012,-1.413755,-0.754639,-0.099121,0.030273,0.262033,-0.025564,0.006941,0.999681,-0.001441,0.024207,-0.007068,0.010514,-0.567561,-0.124187,-0.813843
34885,NaN,26.714969,-1.337016,1.956911,-8.514944,5.060222,15.108349,0.568251,4.612541,-1.254014,-0.743896,-0.105469,0.004883,0.267415,-0.015090,0.013362,0.999710,0.002841,0.023060,-0.006269,0.009898,-0.547854,-0.129771,-0.826388
34886,NaN,24.553788,3.408219,6.040818,-4.331128,1.216142,15.300316,0.562895,4.061234,-1.188211,-0.743652,-0.113770,-0.013916,0.246894,0.032457,0.055497,0.999772,0.002814,0.020305,-0.005941,0.009158,-0.530316,-0.134939,-0.836942
34887,NaN,24.236855,10.000928,3.874466,-5.966112,-5.420845,15.434340,-2.024763,1.696582,-2.493888,-0.743408,-0.131104,-0.026611,0.243905,0.097346,0.035685,0.999835,-0.010123,0.008482,-0.012469,-0.005491,-0.521573,-0.132971,-0.842763
34888,NaN,21.681568,8.659520,5.199802,-4.448337,-3.751141,13.386652,-3.805540,0.220954,-3.546851,-0.738281,-0.156738,-0.032715,0.218373,0.083697,0.050146,0.999661,-0.019026,0.001105,-0.017732,-0.030206,-0.518199,-0.125996,-0.845389
34889,NaN,13.180293,12.077829,4.658147,-1.351663,-8.325387,6.622283,-4.141635,0.460303,-3.249415,-0.727051,-0.182373,-0.047363,0.133855,0.119541,0.043791,0.999651,-0.020706,0.002301,-0.016245,-0.054356,-0.513435,-0.116927,-0.848386
34890,NaN,15.566134,11.552387,4.737844,-3.051679,-7.055637,8.601399,-4.363950,-0.073884,-3.026336,-0.722168,-0.203857,-0.057861,0.157379,0.114149,0.044935,0.999647,-0.021817,-0.000369,-0.015130,-0.078400,-0.510819,-0.106042,-0.849513
34891,NaN,12.008937,13.349100,2.890273,-3.792572,-9.664704,5.117629,-5.283764,0.946043,-1.811376,-0.719727,-0.214355,-0.076660,0.121420,0.133087,0.024811,0.999599,-0.026415,0.004730,-0.009056,-0.099040,-0.503600,-0.088545,-0.853662
34892,NaN,10.089432,11.153197,1.300369,-4.889396,-8.059859,1.975540,-6.088488,0.920174,-1.206412,-0.717529,-0.222900,-0.102051,0.101614,0.111238,0.009148,0.999508,-0.030437,0.004600,-0.006031,-0.119029,-0.496091,-0.066016,-0.857536
34893,NaN,7.790125,5.954374,-0.180270,-4.906360,-3.574131,-2.111362,-6.440395,0.504904,-1.040449,-0.713379,-0.225098,-0.114746,0.078201,0.059034,-0.003907,0.999465,-0.032196,0.002524,-0.005201,-0.139216,-0.489520,-0.041240,-0.859819
34894,NaN,5.602651,1.807772,-2.485963,-5.214954,0.103475,-6.121305,-6.484000,0.262363,-0.799352,-0.713135,-0.231445,-0.135742,0.056063,0.017034,-0.025497,0.999466,-0.032414,0.001312,-0.003996,-0.158353,-0.483688,-0.015558,-0.860656
34895,NaN,4.170363,-2.159745,-3.892068,-4.615662,3.858651,-8.811011,-6.337892,0.005919,-0.612548,-0.713135,-0.231201,-0.152832,0.041634,-0.022944,-0.038209,0.999493,-0.031684,0.000030,-0.003062,-0.176215,-0.478386,0.010247,-0.860227
34896,NaN,3.482420,-5.288878,-4.675482,-3.671630,6.950472,-10.206131,-5.655074,-0.373140,-0.584043,-0.711426,-0.224854,-0.163330,0.034752,-0.054283,-0.045168,0.999594,-0.028272,-0.001865,-0.002920,-0.192138,-0.475107,0.033430,-0.858044
34897,NaN,1.087144,-7.184633,-4.373779,-1.250250,8.063445,-12.122427,-4.697587,-0.648160,-0.488328,-0.711182,-0.229004,-0.173828,0.010832,-0.072873,-0.041999,0.999716,-0.023486,-0.003240,-0.002441,-0.205209,-0.473355,0.053050,-0.854991
34898,NaN,-1.749472,-8.683503,-3.707115,1.518700,8.447300,-14.117909,-3.544293,-0.975350,-0.406055,-0.711182,-0.229004,-0.173828,-0.017496,-0.087439,-0.035610,0.999829,-0.017720,-0.004876,-0.002030,-0.215041,-0.474194,0.068227,-0.851025
34899,NaN,-4.812466,-9.052317,-3.135339,3.728917,7.686649,-16.289049,-2.281743,-1.318864,-0.354210,-0.713379,-0.231201,-0.176025,-0.048082,-0.090790,-0.030636,0.999912,-0.011408,-0.006594,-0.001771,-0.221468,-0.477464,0.078523,-0.846649
34900,NaN,-6.210357,-6.451664,-2.545215,3.690862,4.767850,-16.906040,-1.256812,-1.631215,-0.254145,-0.715332,-0.233398,-0.163330,-0.061977,-0.064598,-0.025552,0.999946,-0.006284,-0.008156,-0.001271,-0.224911,-0.483317,0.085107,-0.841770
34901,NaN,-6.717058,-5.335444,-2.986620,2.995441,3.830222,-17.484811,-0.458529,-1.823549,-0.172957,-0.717285,-0.235596,-0.148438,-0.066941,-0.053366,-0.030355,0.999955,-0.002293,-0.009118,-0.000865,-0.225939,-0.490561,0.088682,-0.836921
34902,NaN,-6.188174,-4.102398,-3.532803,1.648901,3.147307,-17.227361,0.556212,-1.926859,-0.189342,-0.717285,-0.239990,-0.135742,-0.061576,-0.040866,-0.036036,0.999949,0.002781,-0.009634,-0.000947,-0.224523,-0.499555,0.088174,-0.832021
34903,NaN,-4.653974,-2.761761,-4.092872,-0.193967,2.631930,-16.063365,1.700138,-2.062293,-0.234718,-0.721191,-0.244385,-0.112549,-0.046145,-0.027211,-0.041638,0.999910,0.008500,-0.010311,-0.001174,-0.220302,-0.510134,0.082839,-0.827266
34904,NaN,-2.577011,-1.879636,-4.466524,-1.870918,2.540475,-14.303373,2.806789,-2.238703,-0.338820,-0.718750,-0.248779,-0.087158,-0.025297,-0.018121,-0.045208,0.999837,0.014033,-0.011193,-0.001694,-0.213598,-0.522780,0.072958,-0.822043
34905,NaN,-1.502608,-2.513458,-4.656301,-2.351440,3.393436,-13.446758,3.903946,-2.387496,-0.475157,-0.720703,-0.250977,-0.059570,-0.014523,-0.024182,-0.047217,0.999735,0.019518,-0.011936,-0.002376,-0.204398,-0.536829,0.058219,-0.816484
34906,NaN,-0.501221,-2.368804,-4.251858,-2.623531,3.295015,-12.301743,4.714265,-2.308421,-0.523688,-0.720703,-0.250977,-0.031982,-0.004577,-0.022664,-0.043115,0.999652,0.023569,-0.011541,-0.002618,-0.193148,-0.551283,0.040075,-0.810663
34907,NaN,1.064383,-1.903334,-3.674557,-2.958636,2.998421,-10.527158,4.987181,-1.954851,-0.451166,-0.714111,-0.253174,-0.006592,0.010964,-0.018136,-0.037099,0.999639,0.024933,-0.009773,-0.002256,-0.180749,-0.563946,0.020510,-0.805527
34908,NaN,1.890785,-2.229909,-2.047375,-1.758927,3.044193,-9.198541,4.681212,-1.469093,-0.339751,-0.718018,-0.257568,0.020752,0.019023,-0.021846,-0.020849,0.999698,0.023404,-0.007345,-0.001699,-0.168709,-0.574220,0.002216,-0.801127
34909,NaN,4.293401,-2.773497,0.181595,-0.322429,3.744129,-6.343447,3.914414,-0.889298,-0.304680,-0.716064,-0.253418,0.033447,0.042885,-0.027831,0.001463,0.999797,0.019571,-0.004446,-0.001523,-0.158628,-0.581004,-0.013571,-0.798177
34910,NaN,8.383655,-2.787624,4.107246,2.176164,4.298932,-1.344662,2.769747,-0.053413,-0.281126,-0.711914,-0.251221,0.041992,0.083786,-0.028559,0.040702,0.999903,0.013848,-0.000267,-0.001406,-0.151680,-0.583608,-0.025173,-0.797346
34911,NaN,12.122240,-2.537252,6.362522,3.139541,4.911137,2.832024,1.629093,0.870651,-0.183790,-0.718262,-0.249023,0.037598,0.121474,-0.025998,0.062887,0.999957,0.008145,0.004353,-0.000919,-0.147525,-0.581359,-0.032846,-0.799487
34912,NaN,13.959427,-1.411626,10.052011,5.682107,4.043558,5.975175,0.729999,1.685610,-0.050822,-0.718262,-0.246826,0.024902,0.140431,-0.014516,0.099286,0.999958,0.003650,0.008428,-0.000254,-0.145314,-0.575387,-0.036890,-0.804023
34913,NaN,11.337228,-0.189377,14.580527,10.163874,1.779392,5.506451,-0.207117,2.195453,0.033057,-0.720703,-0.240479,0.008057,0.114964,-0.001725,0.144551,0.999939,-0.001036,0.010977,0.000165,-0.145345,-0.566418,-0.037538,-0.810331
34914,NaN,7.656613,0.317081,12.243905,8.717424,0.504409,1.692612,-1.370375,2.820200,0.579601,-0.729492,-0.236084,-0.015137,0.078271,0.004230,0.121317,0.999873,-0.006852,0.014100,0.002898,-0.146332,-0.554253,-0.032099,-0.818755
34915,NaN,-3.920587,-4.199871,-10.901253,-7.761403,4.081556,-18.469866,0.747057,1.602327,0.748704,-0.725342,-0.233887,-0.013184,-0.039922,-0.041740,-0.108851,0.999954,0.003735,0.008012,0.003743,-0.140914,-0.548371,-0.034237,-0.823565
34916,NaN,8.820069,-7.267996,-14.039829,-14.789817,10.405544,-8.994725,4.581942,0.119325,0.675146,-0.731934,-0.225342,-0.002686,0.088354,-0.069140,-0.142062,0.999732,0.022908,0.000597,0.003375,-0.125513,-0.551294,-0.051018,-0.823237
34917,NaN,15.664185,5.685702,-2.195515,-8.510039,-1.312748,4.622278,0.619364,-0.015746,0.794838,-0.734375,-0.212402,-0.009033,0.156416,0.057547,-0.021765,0.999987,0.003097,-0.000079,0.003974,-0.120518,-0.551980,-0.051350,-0.823503
34918,NaN,33.828616,11.951964,28.660365,11.875871,-5.093487,34.247866,-5.856082,0.826120,0.105779,-0.732422,-0.214600,-0.025879,0.339390,0.127993,0.281538,0.999563,-0.029276,0.004130,0.000529,-0.135981,-0.545119,-0.027096,-0.826813
34919,NaN,26.397425,25.619137,-19.044461,-31.320776,-16.547992,11.649115,7.087324,-0.350739,-0.744279,-0.732178,-0.216797,0.010010,0.265264,0.261727,-0.180769,0.999364,0.035429,-0.001753,-0.003721,-0.119685,-0.550976,-0.058145,-0.823845
34920,NaN,15.914984,21.255769,-40.573729,-45.152502,-16.972030,-5.097149,11.356588,-1.125293,-0.570981,-0.728027,-0.208252,0.043701,0.162031,0.234622,-0.391921,0.998368,0.056752,-0.005623,-0.002853,-0.090857,-0.561658,-0.105467,-0.815575
34921,NaN,13.774660,-9.151487,-3.073712,-7.641563,12.182109,-1.087579,5.293533,-0.671026,-0.357394,-0.734375,-0.206299,0.056396,0.137691,-0.090913,-0.032687,0.999643,0.026465,-0.003355,-0.001787,-0.077755,-0.566448,-0.127697,-0.810423
34922,NaN,10.247073,-4.851648,18.312375,13.646868,9.555128,3.838013,0.539383,-1.420149,0.975855,-0.730225,-0.199707,0.056396,0.101404,-0.048515,0.183715,0.999959,0.002697,-0.007101,0.004879,-0.073100,-0.573467,-0.126357,-0.806118
34923,NaN,6.585301,6.137747,5.145246,2.915157,-3.554772,-0.518907,0.972131,-0.980123,1.288468,-0.735107,-0.180664,0.075195,0.065203,0.061547,0.052072,0.999955,0.004861,-0.004901,0.006442,-0.065719,-0.578600,-0.126202,-0.803104
34924,NaN,5.717306,3.024644,-12.573459,-13.506114,-3.316863,-7.269565,4.370430,-2.126931,1.629313,-0.737549,-0.161377,0.100586,0.058237,0.033447,-0.124411,0.999672,0.021850,-0.010633,0.008146,-0.047778,-0.589813,-0.138057,-0.794215
34925,NaN,13.000429,2.811251,-3.999581,-7.252722,-0.413484,2.024123,4.028733,-2.031418,2.133044,-0.744629,-0.137939,0.127930,0.130082,0.030280,-0.038079,0.999689,0.020142,-0.010156,0.010664,-0.028800,-0.600170,-0.147221,-0.785680
34926,NaN,17.712172,3.606038,6.069754,1.656340,1.600581,9.114198,2.863488,-2.541661,2.225122,-0.742920,-0.114258,0.144531,0.175918,0.037127,0.063465,0.999755,0.014316,-0.012707,0.011125,-0.013230,-0.612490,-0.151159,-0.775778
34927,NaN,23.111868,7.756001,-1.645819,-5.647542,-3.172159,13.745710,1.211529,-2.791415,2.069825,-0.740967,-0.105957,0.169922,0.230494,0.080032,-0.012758,0.999831,0.006057,-0.013956,0.010349,-0.003584,-0.624897,-0.149295,-0.766291
34928,NaN,24.577123,11.168414,-7.678288,-10.298779,-7.757065,15.115717,-0.390420,-3.357426,1.591019,-0.737061,-0.093018,0.195068,0.246118,0.113496,-0.072873,0.999826,-0.001952,-0.016786,0.007955,-0.001108,-0.639256,-0.142517,-0.755672
34929,NaN,22.634714,7.617110,0.543517,-1.853988,-3.099752,13.799812,-2.139824,-3.884294,1.177362,-0.726562,-0.088867,0.216309,0.225741,0.077585,0.008998,0.999737,-0.010698,-0.019420,0.005886,-0.006251,-0.654629,-0.130596,-0.744558
34930,NaN,19.057886,-0.860530,4.372504,1.863850,5.049182,9.003009,-1.210280,-4.335283,0.649338,-0.715820,-0.084717,0.247803,0.189597,-0.007707,0.047891,0.999741,-0.006051,-0.021675,0.003246,-0.010516,-0.671414,-0.123623,-0.730623
34931,NaN,20.050322,-3.147545,4.830270,2.697848,7.542448,9.449556,2.480343,-4.257242,0.584657,-0.705322,-0.073975,0.281494,0.199512,-0.031522,0.052166,0.999692,0.012400,-0.021284,0.002923,-0.002667,-0.687288,-0.130443,-0.714572
34932,NaN,21.117128,1.150463,2.909824,2.322019,3.328781,11.144288,4.010680,-3.634306,0.737115,-0.695068,-0.061279,0.304688,0.210551,0.011644,0.033161,0.999627,0.020051,-0.018169,0.003685,0.011505,-0.700949,-0.141911,-0.698856
34933,NaN,21.308391,7.550105,6.316421,7.861260,-1.926140,12.218382,3.285479,-2.990652,1.050443,-0.685059,-0.040039,0.332031,0.211699,0.075529,0.067578,0.999739,0.016426,-0.014952,0.005252,0.024579,-0.711810,-0.149828,-0.685766
34934,NaN,16.565097,7.318560,9.205208,11.275673,-1.759132,6.992761,1.992109,-2.822116,1.137763,-0.674805,-0.022949,0.350830,0.163907,0.073184,0.095102,0.999835,0.009960,-0.014110,0.005689,0.033583,-0.722333,-0.152692,-0.673641
34935,NaN,16.246822,5.708490,11.425874,13.512969,0.394477,5.817508,2.013269,-2.729383,1.023880,-0.666504,-0.010010,0.371826,0.160593,0.056741,0.117031,0.999843,0.010066,-0.013646,0.005119,0.042227,-0.731893,-0.156194,-0.661931
34936,NaN,11.849131,5.054953,10.429186,12.440149,0.113542,1.138855,2.201104,-1.918684,1.250456,-0.658447,0.004883,0.386475,0.117166,0.050125,0.105973,0.999874,0.011005,-0.009593,0.006252,0.053039,-0.738949,-0.159057,-0.652566
34937,NaN,8.483995,6.081403,9.369093,11.661627,-1.579088,-2.181026,2.435158,-1.589181,1.396654,-0.646240,0.021973,0.390625,0.083666,0.060249,0.095095,0.999870,0.012175,-0.007946,0.006983,0.065335,-0.744540,-0.162227,-0.644263
34938,NaN,5.826583,6.902652,7.348239,9.899767,-3.285440,-4.637152,1.548250,-1.483602,1.348665,-0.648682,0.039062,0.405273,0.057251,0.068841,0.074443,0.999920,0.007741,-0.007418,0.006743,0.074344,-0.750070,-0.162444,-0.636773
34939,NaN,2.284303,5.565038,3.688075,5.658758,-3.685842,-7.767990,1.020407,-1.324377,1.267106,-0.638672,0.053955,0.409424,0.022245,0.055603,0.037313,0.999945,0.005102,-0.006622,0.006335,0.081138,-0.754932,-0.161409,-0.630430
34940,NaN,1.228775,2.817742,1.810898,2.850872,-1.869850,-8.761611,0.647135,-1.217694,1.134953,-0.634277,0.056152,0.417725,0.012017,0.028187,0.018274,0.999960,0.003236,-0.006088,0.005675,0.086267,-0.759575,-0.159464,-0.624639
34941,NaN,1.770709,1.608307,3.669146,4.250399,-0.047605,-8.756189,0.711664,-1.077173,1.027950,-0.626221,0.071045,0.426025,0.017426,0.016042,0.036843,0.999966,0.003558,-0.005386,0.005140,0.091331,-0.763462,-0.158227,-0.619474
34942,NaN,2.488723,3.046035,7.436691,8.359546,-0.024664,-8.867631,0.405942,-0.811147,0.786003,-0.630615,0.075439,0.426025,0.024466,0.030406,0.074528,0.999982,0.002030,-0.004056,0.003930,0.094761,-0.766559,-0.156675,-0.615516
34943,NaN,2.943782,5.002602,7.324778,9.050301,-1.835264,-8.374667,-0.023924,-0.294834,0.464642,-0.624512,0.081787,0.427979,0.029213,0.050103,0.073285,0.999996,-0.000120,-0.001474,0.002323,0.095880,-0.767875,-0.154945,-0.614139
34944,NaN,2.176232,9.105043,3.110680,6.507129,-7.193295,-8.016051,0.004246,0.293845,0.166077,-0.630859,0.083984,0.428223,0.021732,0.091068,0.031077,0.999999,0.000021,0.001469,0.000830,0.096710,-0.767223,-0.154017,-0.615057
34945,NaN,1.138551,11.307800,-2.981043,1.499918,-11.433230,-7.558664,-0.262205,0.438335,-0.256483,-0.634766,0.073242,0.426025,0.011465,0.113024,-0.029984,0.999996,-0.001311,0.002192,-0.001282,0.095266,-0.765837,-0.153968,-0.617019
34946,NaN,1.779735,7.736350,-2.565025,0.691716,-7.875712,-7.149598,-0.763230,0.536951,-0.620949,-0.638916,0.071289,0.421875,0.017968,0.077209,-0.025993,0.999984,-0.003816,0.002685,-0.003105,0.090890,-0.764162,-0.153645,-0.619830
34947,NaN,3.227075,1.346035,4.066696,4.786948,0.464972,-7.439431,-0.860309,1.063006,-0.801846,-0.647217,0.060547,0.411377,0.032540,0.013505,0.040436,0.999969,-0.004301,0.005315,-0.004009,0.085944,-0.760655,-0.153540,-0.624854
34948,NaN,3.791195,-2.060434,8.956280,8.231939,5.266476,-7.987729,-1.204851,1.820565,-0.820851,-0.655518,0.054199,0.398926,0.038642,-0.020223,0.089336,0.999932,-0.006024,0.009103,-0.004104,0.080228,-0.754901,-0.152048,-0.632906
34949,NaN,2.987097,-1.997938,7.201209,6.505739,4.485440,-8.287702,-1.450644,2.279706,-0.761166,-0.668213,0.049805,0.386230,0.030615,-0.019574,0.071809,0.999901,-0.007253,0.011398,-0.003806,0.074083,-0.747654,-0.149386,-0.642814
34950,NaN,2.216811,-0.937541,4.883808,4.568134,2.623827,-8.437601,-1.398502,2.624837,-0.687215,-0.682861,0.039307,0.369385,0.022775,-0.009113,0.048606,0.999884,-0.006992,0.013124,-0.003436,0.068637,-0.739205,-0.146383,-0.653787
34951,NaN,3.236941,-2.967606,2.545257,1.819975,3.951754,-7.198562,-1.873102,2.933245,-0.550875,-0.695557,0.030762,0.348389,0.032659,-0.029529,0.025252,0.999845,-0.009365,0.014665,-0.002754,0.062065,-0.729780,-0.141252,-0.666045
34952,NaN,4.182583,-2.836802,-0.683150,-1.215010,3.024917,-5.890835,-1.527810,3.239780,-0.364942,-0.705811,0.020020,0.325195,0.041658,-0.028499,-0.007290,0.999838,-0.007639,0.016198,-0.001825,0.057593,-0.719148,-0.136357,-0.678908
34953,NaN,6.200762,1.527790,-1.123915,-0.529651,-1.051035,-3.436455,-1.115510,3.693550,-0.291375,-0.720703,0.015869,0.304199,0.061807,0.015120,-0.012466,0.999813,-0.005577,0.018467,-0.001457,0.055116,-0.706639,-0.132514,-0.692866
34954,NaN,10.575954,4.358920,-0.777446,0.210367,-3.241843,1.181956,-1.420364,3.935598,-0.526728,-0.737793,0.015869,0.268311,0.105689,0.043244,-0.010163,0.999778,-0.007101,0.019677,-0.002633,0.050909,-0.692955,-0.128225,-0.707658
34955,NaN,16.549250,8.004358,3.164956,4.084104,-5.204076,7.627021,-1.537090,4.159928,-0.795807,-0.754639,0.005371,0.238770,0.166412,0.079605,0.027581,0.999746,-0.007685,0.020798,-0.003979,0.045438,-0.677985,-0.124438,-0.723040
34956,NaN,23.054129,11.618244,2.269542,2.603316,-8.299287,14.597716,-1.730859,3.784321,-1.130533,-0.765137,-0.005371,0.211426,0.231555,0.115041,0.017321,0.999768,-0.008654,0.018920,-0.005652,0.037859,-0.663892,-0.121042,-0.736996
34957,NaN,26.801692,8.989135,0.405344,-1.388952,-5.766011,17.827701,-2.717274,3.610012,-1.247085,-0.777344,-0.024414,0.179932,0.268571,0.088218,-0.001997,0.999725,-0.013585,0.018048,-0.006235,0.026437,-0.650211,-0.114438,-0.750620
34958,NaN,26.839631,3.162714,-0.872593,-4.916858,-0.251054,16.772685,-2.542994,3.732442,-1.319697,-0.787842,-0.037354,0.152588,0.268367,0.029699,-0.014121,0.999723,-0.012714,0.018660,-0.006598,0.015368,-0.635657,-0.108630,-0.764136
34959,NaN,24.903809,0.828038,0.637435,-4.577072,2.224576,14.585743,-1.596293,4.369934,-1.340293,-0.796143,-0.043457,0.114746,0.249145,0.006632,0.000874,0.999707,-0.007981,0.021848,-0.006701,0.007562,-0.618216,-0.106409,-0.778736
34960,NaN,24.903259,0.506818,1.993851,-4.519095,2.905633,14.588013,-0.701987,5.077179,-1.484195,-0.800049,-0.060547,0.076660,0.249460,0.003273,0.013595,0.999644,-0.003510,0.025383,-0.007420,0.002339,-0.597545,-0.107997,-0.794526
34961,NaN,24.940769,-0.199578,1.545813,-6.328307,3.692532,14.075361,0.304678,5.088984,-1.703826,-0.802002,-0.077637,0.041016,0.249664,-0.004139,0.009102,0.999639,0.001523,0.025442,-0.008518,-0.000752,-0.576237,-0.114185,-0.809266
34962,NaN,27.090633,-0.230104,1.504292,-8.260126,4.269098,15.675428,2.142777,3.888650,-1.934111,-0.805908,-0.090332,0.019775,0.271090,-0.005045,0.009729,0.999707,0.010713,0.019441,-0.009670,-0.000151,-0.559351,-0.128348,-0.818934
34963,NaN,25.133569,4.641140,5.033557,-4.543264,0.411934,15.832703,1.663922,3.121421,-2.025654,-0.799072,-0.107422,-0.009521,0.252534,0.043459,0.046770,0.999792,0.008319,0.015606,-0.010128,-0.001769,-0.545204,-0.140788,-0.826395
34964,NaN,21.888595,7.642078,5.770811,-2.885880,-2.397316,13.781409,-0.328647,2.599357,-2.282732,-0.796387,-0.128906,-0.022217,0.220464,0.074002,0.054727,0.999849,-0.001643,0.012996,-0.011413,-0.010227,-0.532922,-0.145581,-0.833484
34965,NaN,18.584932,12.734533,2.344662,-4.593797,-8.290409,10.758283,-3.882378,1.090083,-2.740960,-0.795898,-0.147949,-0.043213,0.187690,0.125192,0.019983,0.999703,-0.019410,0.005450,-0.013703,-0.031177,-0.526077,-0.136706,-0.838798
34966,NaN,14.718277,14.667402,1.469374,-4.414463,-10.816591,7.430733,-5.781781,0.776741,-2.618698,-0.788818,-0.173828,-0.053467,0.149134,0.145062,0.009907,0.999489,-0.028904,0.003883,-0.013091,-0.056780,-0.520029,-0.119372,-0.843858
34967,NaN,16.871067,12.364350,5.122257,-3.075543,-7.368590,10.185958,-5.179946,-0.207534,-3.034610,-0.777832,-0.186523,-0.072510,0.170523,0.122340,0.048219,0.999549,-0.025896,-0.001038,-0.015171,-0.083125,-0.517438,-0.105281,-0.845142
34968,NaN,13.478066,12.819318,3.144711,-4.100511,-8.670425,6.430053,-5.188317,1.313573,-1.731597,-0.775146,-0.209961,-0.089355,0.136076,0.127762,0.027238,0.999604,-0.025938,0.006567,-0.008657,-0.103103,-0.508795,-0.088387,-0.850109
34969,NaN,10.508729,10.592676,0.764973,-5.420894,-7.323854,2.025900,-5.785481,1.056170,-1.331588,-0.768799,-0.212158,-0.116699,0.105818,0.105375,0.004038,0.999546,-0.028923,0.005280,-0.006657,-0.122941,-0.500554,-0.067673,-0.854255
34970,NaN,8.512779,6.221187,-0.227077,-5.261789,-3.540744,-1.387588,-5.930907,0.676293,-1.134313,-0.762451,-0.218506,-0.135742,0.085466,0.061618,-0.004393,0.999539,-0.029650,0.003381,-0.005671,-0.142308,-0.493599,-0.045675,-0.856751
34971,NaN,5.405635,1.495975,-2.262141,-4.820581,0.367430,-6.179616,-5.983170,0.372750,-0.939348,-0.762451,-0.222656,-0.158936,0.054081,0.014018,-0.023151,0.999540,-0.029911,0.001863,-0.004696,-0.160920,-0.487352,-0.022592,-0.857952
34972,NaN,3.557081,-2.980988,-3.015798,-3.366485,4.318770,-9.010536,-5.657453,0.000648,-0.789679,-0.762207,-0.229004,-0.167480,0.035450,-0.030787,-0.029296,0.999592,-0.028283,0.000003,-0.003948,-0.177998,-0.482723,-0.000364,-0.857494
34973,NaN,2.305796,-5.958271,-3.104427,-1.681074,6.862713,-10.535433,-4.857955,-0.477981,-0.756966,-0.762207,-0.227051,-0.173828,0.022902,-0.060399,-0.029529,0.999695,-0.024287,-0.002390,-0.003784,-0.192887,-0.480348,0.019081,-0.855393
34974,NaN,-0.128782,-7.877432,-3.148256,0.392935,7.947952,-12.753481,-3.967006,-0.928567,-0.729115,-0.758057,-0.231201,-0.177979,-0.001435,-0.079373,-0.029919,0.999786,-0.019834,-0.004643,-0.003645,-0.205380,-0.480682,0.035101,-0.851781
34975,NaN,-3.360881,-9.456486,-2.701381,3.083951,8.258738,-15.316889,-2.810886,-1.332496,-0.654675,-0.755859,-0.233398,-0.175781,-0.033744,-0.094824,-0.025907,0.999874,-0.014054,-0.006662,-0.003273,-0.214635,-0.483571,0.046884,-0.847285
34976,NaN,-6.653114,-9.491087,-1.658770,5.495891,6.919073,-17.494983,-1.473421,-1.685990,-0.557674,-0.761963,-0.235596,-0.171631,-0.066657,-0.094847,-0.016450,0.999933,-0.007367,-0.008430,-0.002788,-0.220130,-0.489442,0.053556,-0.842093
34977,NaN,-7.034403,-6.869667,-1.734737,4.450124,4.464375,-17.555371,-0.499195,-2.059261,-0.421466,-0.757568,-0.241943,-0.150391,-0.070306,-0.068593,-0.017900,0.999942,-0.002496,-0.010296,-0.002107,-0.222532,-0.497693,0.056913,-0.836387
34978,NaN,-6.791082,-5.030470,-2.325361,2.951026,3.113841,-17.456288,0.313890,-2.243057,-0.288618,-0.753174,-0.242188,-0.137695,-0.067716,-0.050170,-0.024093,0.999935,0.001569,-0.011215,-0.001443,-0.222281,-0.507652,0.057392,-0.830414
34979,NaN,-5.982139,-3.417370,-2.288411,1.806730,1.950310,-16.567706,1.163792,-2.329048,-0.204014,-0.763672,-0.244385,-0.120850,-0.059583,-0.033976,-0.023777,0.999915,0.005819,-0.011645,-0.001020,-0.219457,-0.518676,0.054649,-0.824517
34980,NaN,-4.161570,-1.832828,-2.188221,0.392571,1.076097,-14.727176,1.999299,-2.363042,-0.196751,-0.759521,-0.239990,-0.095459,-0.041370,-0.018064,-0.022553,0.999880,0.009996,-0.011815,-0.000984,-0.214383,-0.530761,0.048523,-0.818522
34981,NaN,-3.375132,-1.118584,-2.804483,-0.842230,0.848681,-14.180316,2.791053,-2.470268,-0.250677,-0.763184,-0.252930,-0.065674,-0.033414,-0.010747,-0.028611,0.999826,0.013954,-0.012351,-0.001253,-0.207336,-0.543875,0.039099,-0.812209
34982,NaN,-2.396503,-1.404859,-3.363417,-1.698665,1.516309,-13.533137,3.646341,-2.586428,-0.261520,-0.763184,-0.248779,-0.040283,-0.023543,-0.013398,-0.034189,0.999749,0.018230,-0.012931,-0.001307,-0.197890,-0.558230,0.026302,-0.805312
34983,NaN,-0.931129,-1.231901,-2.901490,-1.937808,1.588339,-11.939431,4.364371,-2.469870,-0.231997,-0.763184,-0.242432,-0.006592,-0.008964,-0.011670,-0.029386,0.999685,0.021820,-0.012348,-0.001160,-0.186229,-0.572391,0.010542,-0.798484
34984,NaN,0.709165,-0.441728,-1.674597,-1.600362,0.969802,-9.802876,4.447971,-2.047794,-0.195571,-0.763184,-0.242676,0.016602,0.007259,-0.004052,-0.016765,0.999700,0.022238,-0.010238,-0.000978,-0.174067,-0.584705,-0.005804,-0.792330
34985,NaN,2.194869,-0.383789,0.344962,-0.124750,0.919100,-7.757603,3.674479,-1.594584,-0.209568,-0.760986,-0.240479,0.037842,0.021917,-0.003926,0.003553,0.999799,0.018371,-0.007972,-0.001048,-0.164141,-0.594141,-0.019560,-0.787192
34986,NaN,4.748642,-1.352256,2.109236,1.181272,2.298022,-5.106279,2.574085,-0.941702,-0.351190,-0.759033,-0.238281,0.039795,0.047363,-0.013878,0.021138,0.999905,0.012870,-0.004708,-0.001756,-0.157896,-0.600022,-0.029886,-0.783677
34987,NaN,7.837628,-2.112622,4.457173,2.886913,3.641069,-1.802373,1.644671,-0.294831,-0.553338,-0.758789,-0.238281,0.048340,0.078251,-0.021709,0.044510,0.999961,0.008223,-0.001474,-0.002767,-0.155143,-0.602416,-0.037733,-0.782050
34988,NaN,10.569191,-2.409364,5.676142,3.496024,4.667403,0.944776,1.018506,0.172083,-0.685282,-0.756836,-0.238281,0.048340,0.105657,-0.024744,0.056546,0.999981,0.005092,0.000860,-0.003426,-0.154669,-0.602525,-0.043829,-0.781741
34989,NaN,11.658082,-0.806008,7.691574,4.833717,3.359213,2.878643,0.458603,0.663726,-0.693396,-0.754395,-0.244873,0.037842,0.116806,-0.008641,0.076509,0.999986,0.002293,0.003319,-0.003467,-0.155826,-0.600172,-0.048199,-0.783064
34990,NaN,11.545056,0.805094,11.791157,8.355091,1.409748,4.370729,-0.968086,1.176492,-0.529664,-0.756592,-0.244629,0.020996,0.116163,0.008312,0.117190,0.999967,-0.004840,0.005882,-0.002648,-0.160470,-0.594785,-0.046819,-0.786313
34991,NaN,11.586138,1.046026,12.263084,8.413132,1.025428,4.810977,-3.257324,2.660106,0.028643,-0.754639,-0.242432,-0.008789,0.117475,0.012455,0.120883,0.999779,-0.016285,0.013300,0.000143,-0.169362,-0.581637,-0.036028,-0.794806
34992,NaN,9.175626,-2.026398,-7.326970,-8.915696,5.796029,-4.437588,-0.713806,2.616394,-0.057816,-0.759033,-0.244629,-0.025635,0.090782,-0.020554,-0.074389,0.999908,-0.003569,0.013082,-0.000289,-0.171138,-0.570658,-0.035471,-0.802373
34993,NaN,15.171650,4.101249,2.320031,-3.240943,0.690230,5.724334,2.502015,1.249551,-0.561625,-0.759033,-0.244629,-0.021484,0.151973,0.040299,0.022758,0.999898,0.012510,0.006248,-0.002808,-0.165989,-0.567676,-0.048153,-0.804906
34994,NaN,22.078308,15.957779,-0.929171,-10.992559,-7.617356,13.937904,-1.789597,-0.230020,-1.226122,-0.750244,-0.253174,-0.036133,0.221767,0.158130,-0.010456,0.999941,-0.008948,-0.001150,-0.006130,-0.176003,-0.566899,-0.044131,-0.803555
34995,NaN,22.028517,8.074266,-7.609588,-15.417953,0.747446,9.424850,1.605875,0.364249,-0.368386,-0.754639,-0.248779,-0.025635,0.220296,0.080947,-0.075848,0.999964,0.008029,0.001821,-0.001842,-0.172819,-0.566795,-0.051923,-0.803854
34996,NaN,11.119449,12.814298,-25.491954,-29.538781,-6.235598,-4.724174,7.241999,-0.874556,-0.096967,-0.746094,-0.244629,0.003906,0.112359,0.137192,-0.249571,0.999335,0.036202,-0.004372,-0.000485,-0.152753,-0.576316,-0.080432,-0.798785
34997,NaN,8.667741,-3.893240,-15.410231,-16.637970,6.901185,-8.013499,5.919004,-0.943940,0.268615,-0.757080,-0.234131,0.027100,0.087455,-0.034241,-0.154750,0.999550,0.029591,-0.004719,0.001343,-0.134914,-0.584502,-0.102515,-0.793502
34998,NaN,13.485763,-7.023474,3.918645,0.623329,11.120487,1.255134,3.679809,-1.901980,1.478753,-0.761475,-0.223389,0.046143,0.135003,-0.069958,0.039181,0.999758,0.018398,-0.009509,0.007393,-0.119174,-0.595372,-0.111419,-0.786712
34999,NaN,13.809339,-2.977279,7.729700,4.053254,7.402680,3.901418,0.497268,-1.168830,1.682173,-0.761963,-0.206299,0.056641,0.137884,-0.028806,0.078031,0.999944,0.002486,-0.005844,0.008411,-0.111700,-0.601219,-0.107643,-0.783883
35000,NaN,10.885716,4.458934,-14.924883,-17.229606,-1.692145,-1.979472,2.986410,-2.316528,1.643864,-0.762451,-0.189209,0.075439,0.110187,0.047701,-0.147281,0.999788,0.014931,-0.011582,0.008219,-0.097432,-0.612929,-0.112982,-0.775925
35001,NaN,13.085617,7.893318,-5.413950,-8.128990,-4.240530,3.557114,2.864072,-2.047179,1.951557,-0.771484,-0.163574,0.100586,0.130610,0.080960,-0.051652,0.999797,0.014319,-0.010235,0.009757,-0.082201,-0.623293,-0.117071,-0.768794
35002,NaN,16.705436,4.875990,5.057156,1.813548,0.147652,8.217366,3.131899,-2.030175,2.282005,-0.773926,-0.150635,0.121826,0.165960,0.049840,0.053035,0.999761,0.015658,-0.010150,0.011409,-0.064764,-0.633800,-0.121045,-0.761217
35003,NaN,22.380394,6.155661,0.818544,-2.714154,-0.417913,13.249051,3.279728,-2.075604,2.310106,-0.774902,-0.118652,0.134277,0.222966,0.063964,0.011538,0.999745,0.016397,-0.010377,0.011550,-0.046799,-0.644046,-0.125484,-0.753173
35004,NaN,24.367358,10.651767,-7.774679,-10.261130,-5.819167,15.255956,1.541599,-2.780584,1.727056,-0.764404,-0.110107,0.161621,0.243780,0.109200,-0.073523,0.999836,0.007708,-0.013902,0.008635,-0.036994,-0.656068,-0.124968,-0.743363
