// Start Time: Unknown
// Update Rate: 100.0Hz
// Filter Profile: human (46.1)
// Firmware Version: 4.4.0
PacketCounter,SampleTimeFine,Acc_X,Acc_Y,Acc_Z,FreeAcc_X,FreeAcc_Y,FreeAcc_Z,Gyr_X,Gyr_Y,Gyr_Z,Mag_X,Mag_Y,Mag_Z,VelInc_X,VelInc_Y,VelInc_Z,OriInc_q0,OriInc_q1,OriInc_q2,OriInc_q3,Quat_q0,Quat_q1,Quat_q2,Quat_q3
48556,NaN,6.870699,-7.454670,8.535978,0.000000,0.000000,3.440101,0.362753,1.830331,0.519919,-1.047119,0.626221,-0.219238,0.069677,-0.074520,0.084590,0.999953,0.001814,0.009152,0.002600,0.122902,-0.329945,0.268322,-0.896680
48557,NaN,7.572372,-6.572632,7.730494,-0.000000,-0.000000,2.848211,0.510885,1.161749,0.512508,-1.041016,0.634766,-0.236328,0.076339,-0.065728,0.076695,0.999977,0.002554,0.005809,0.002563,0.151504,-0.380590,0.228627,-0.883135
48558,NaN,7.593462,-5.141962,4.784588,-2.347929,-0.527164,0.247176,0.802741,0.822189,0.372407,-1.041016,0.632812,-0.251221,0.076226,-0.051469,0.047326,0.999982,0.004014,0.004111,0.001862,0.136858,-0.354422,0.247793,-0.891209
48559,NaN,6.760622,-4.759473,3.297237,-2.854650,0.029232,-1.381781,0.536071,0.415116,0.212648,-1.030518,0.639160,-0.249023,0.067725,-0.047611,0.032704,0.999994,0.002680,0.002076,0.001063,0.138240,-0.351939,0.246063,-0.892458
48560,NaN,6.942478,-4.800565,3.525647,-2.836042,-0.093120,-1.116608,-0.034331,-0.055117,0.141025,-1.032715,0.641357,-0.247070,0.069449,-0.047951,0.035284,1.000000,-0.000172,-0.000276,0.000705,0.138710,-0.353035,0.246590,-0.891807
48561,NaN,8.810276,-6.016623,5.812341,-2.634599,-0.663274,2.028879,-0.361953,-0.321050,0.048434,-1.039307,0.649902,-0.242920,0.088024,-0.060039,0.058373,0.999997,-0.001810,-0.001605,0.000242,0.138682,-0.354656,0.248066,-0.890758
48562,NaN,11.990121,-7.278749,4.367409,-5.763331,-0.457664,3.692492,-0.162891,-1.130322,-0.173944,-1.039062,0.639160,-0.225830,0.119588,-0.072856,0.044410,0.999983,-0.000814,-0.005652,-0.000870,0.137643,-0.364547,0.247679,-0.887026
48563,NaN,17.893504,-8.456057,2.740469,-10.906064,-1.439079,6.865774,-0.280878,-1.543712,-0.400831,-1.045410,0.645508,-0.206787,0.178546,-0.084879,0.028903,0.999967,-0.001404,-0.007718,-0.002004,0.137260,-0.372072,0.247124,-0.884111
48564,NaN,23.615772,-10.516126,5.465853,-11.371360,-2.976379,13.851175,-1.504824,-1.536494,-0.445258,-1.049316,0.638916,-0.183594,0.235490,-0.105262,0.057261,0.999940,-0.007524,-0.007682,-0.002226,0.126966,-0.404070,0.252110,-0.870085
48565,NaN,29.403968,-11.871747,6.639859,-13.588055,-4.799912,19.202604,-1.793018,-2.008272,-0.651052,-1.051270,0.632324,-0.149658,0.292959,-0.119053,0.070410,0.999904,-0.008965,-0.010041,-0.003255,0.123031,-0.414727,0.257296,-0.864097
48566,NaN,30.464847,-12.521902,6.470145,-9.697958,-3.786947,22.097832,-1.785084,-2.544686,-1.119623,-1.074219,0.625732,-0.111328,0.303078,-0.126311,0.069689,0.999864,-0.008925,-0.012723,-0.005598,0.097195,-0.482139,0.252731,-0.833200
48567,NaN,30.236966,-11.779277,5.313097,-9.533481,-3.949132,21.406659,-2.577489,-2.760309,-1.452686,-1.079834,0.610840,-0.075439,0.300721,-0.119247,0.058820,0.999795,-0.012887,-0.013801,-0.007263,0.088398,-0.496627,0.258573,-0.823825
48568,NaN,27.333781,-11.730997,5.072345,-2.623596,-1.330900,20.215390,-2.930434,-3.204023,-1.575574,-1.087402,0.586914,-0.022217,0.271529,-0.118651,0.056815,0.999733,-0.014651,-0.016019,-0.007877,0.049477,-0.575602,0.247962,-0.777656
48569,NaN,23.979387,-11.977263,3.311734,-1.781415,0.642407,17.126253,-3.028186,-3.614681,-1.604509,-1.091064,0.573975,0.030762,0.238153,-0.121124,0.039259,0.999690,-0.015139,-0.018072,-0.008022,0.038990,-0.592215,0.254146,-0.763656
48570,NaN,21.193500,-13.702327,1.556235,1.794192,4.556326,14.991466,-2.045820,-3.803145,-1.720890,-1.100586,0.541748,0.069092,0.210382,-0.138642,0.020986,0.999730,-0.010228,-0.019014,-0.008604,0.009266,-0.650808,0.243027,-0.719237
48571,NaN,17.458421,-13.856302,1.081924,3.049267,6.124998,11.425607,-1.691350,-3.913734,-1.850693,-1.104004,0.522217,0.117920,0.173021,-0.140052,0.015396,0.999730,-0.008456,-0.019567,-0.009253,0.001861,-0.667032,0.242840,-0.704339
48572,NaN,14.370952,-13.416316,0.129991,4.237189,6.905777,8.099141,-1.736546,-3.776293,-1.876111,-1.109619,0.498535,0.160400,0.142370,-0.135469,0.005169,0.999740,-0.008682,-0.018880,-0.009380,-0.008119,-0.700888,0.246380,-0.669318
48573,NaN,10.439690,-12.420312,0.391358,4.894088,7.312734,3.823459,-1.742179,-3.096415,-1.820057,-1.108643,0.474854,0.200684,0.103173,-0.125096,0.006604,0.999801,-0.008710,-0.015481,-0.009100,-0.016499,-0.713281,0.245909,-0.656115
48574,NaN,5.084150,-10.100602,1.032525,5.029811,6.499571,-1.977829,-1.354133,-2.131443,-1.659949,-1.109619,0.440430,0.209473,0.049883,-0.101347,0.011546,0.999886,-0.006770,-0.010657,-0.008299,-0.009845,-0.725343,0.259984,-0.637330
48575,NaN,2.032829,-6.455294,2.774887,5.220034,3.893755,-6.482544,-1.083619,-1.976742,-1.704334,-1.109131,0.425537,0.237061,0.019500,-0.064569,0.028294,0.999900,-0.005418,-0.009883,-0.008521,-0.016635,-0.733731,0.257327,-0.628605
48576,NaN,-0.968694,-4.073734,5.366039,6.457234,2.040642,-10.494765,-1.022342,-1.908187,-1.545034,-1.110352,0.397461,0.254150,-0.010513,-0.040384,0.053770,0.999912,-0.005112,-0.009541,-0.007725,-0.001819,-0.736517,0.271354,-0.619602
48577,NaN,-4.773897,-2.474946,6.971149,6.870287,1.662417,-15.060832,-0.362934,-2.348909,-1.398332,-1.101562,0.391113,0.283691,-0.048724,-0.024285,0.069187,0.999905,-0.001815,-0.011744,-0.006991,-0.004300,-0.745617,0.267325,-0.610388
48578,NaN,-5.683069,-2.160323,5.018240,4.902843,2.707643,-15.360012,0.764707,-2.915590,-0.777214,-1.094971,0.384521,0.298584,-0.057637,-0.021570,0.049264,0.999879,0.003823,-0.014577,-0.003886,0.020174,-0.744431,0.273210,-0.608910
48579,NaN,-3.690094,-3.422690,1.542728,2.247051,4.081088,-12.263094,2.375406,-2.375773,-0.102671,-1.086670,0.395264,0.317383,-0.037095,-0.034384,0.014580,0.999859,0.011876,-0.011878,-0.000513,0.031945,-0.751460,0.265318,-0.603236
48580,NaN,-2.188447,-1.831832,-1.105480,-0.689160,2.850859,-10.686382,3.605933,-2.317970,0.091833,-1.084961,0.407959,0.323730,-0.021744,-0.018122,-0.011635,0.999770,0.018028,-0.011589,0.000459,0.068684,-0.746456,0.262537,-0.607586
48581,NaN,-0.859699,-0.120525,-3.413416,-3.314400,1.179739,-9.651141,4.047643,-1.702520,0.077589,-1.076904,0.425293,0.319336,-0.008306,-0.000516,-0.034221,0.999759,0.020237,-0.008512,0.000388,0.086244,-0.749956,0.249884,-0.606372
48582,NaN,0.529414,0.791781,-4.790812,-4.728266,-0.248581,-8.613324,3.346825,-0.646148,0.204231,-1.079346,0.436035,0.312988,0.005440,0.008723,-0.047749,0.999854,0.016733,-0.003231,0.001021,0.115305,-0.744053,0.245946,-0.610410
48583,NaN,1.771295,-0.499010,-5.122616,-4.614227,0.164379,-6.930158,1.218050,0.742108,0.772926,-1.075684,0.448730,0.293701,0.017541,-0.004610,-0.051320,0.999967,0.006090,0.003711,0.003865,0.121279,-0.740111,0.245524,-0.614203
48584,NaN,3.795058,-1.935967,-3.781227,-2.803428,0.067811,-4.854485,-0.495644,1.806569,0.816452,-1.079834,0.444580,0.281250,0.037686,-0.019300,-0.038106,0.999948,-0.002478,0.009033,0.004082,0.127948,-0.733362,0.255691,-0.616792
48585,NaN,3.545716,-0.994927,-1.234583,-0.622514,-0.889644,-6.083486,-1.495224,1.853083,0.429016,-1.084229,0.451172,0.268311,0.035363,-0.009967,-0.012599,0.999927,-0.007476,0.009265,0.002145,0.121410,-0.728002,0.263042,-0.621355
48586,NaN,2.932960,-1.031733,-0.001449,0.503377,-0.744968,-6.836395,-2.195452,1.518641,0.321842,-1.085938,0.438232,0.262207,0.029345,-0.010271,-0.000124,0.999910,-0.010977,0.007593,0.001609,0.116705,-0.725063,0.275268,-0.620396
48587,NaN,2.846531,-1.262298,0.836426,1.345607,-0.671874,-6.960745,-2.774480,1.393889,0.242475,-1.092285,0.436035,0.258057,0.028539,-0.012473,0.008339,0.999879,-0.013872,0.006969,0.001212,0.105466,-0.721937,0.285533,-0.621414
48588,NaN,1.650970,-0.783235,1.739295,1.986153,-0.648387,-8.398906,-3.031162,1.631567,0.114498,-1.098389,0.425293,0.249756,0.016656,-0.007559,0.017373,0.999852,-0.015155,0.008157,0.000572,0.095195,-0.718427,0.297931,-0.621320
48589,NaN,0.631335,-0.119781,2.816696,2.726776,-0.954221,-9.813197,-3.033378,1.919559,0.051511,-1.104736,0.416748,0.241211,0.006584,-0.000769,0.028118,0.999839,-0.015166,0.009597,0.000258,0.081584,-0.713715,0.308404,-0.623571
48590,NaN,-0.382555,0.390412,3.405868,3.052615,-1.058341,-11.020635,-2.282681,2.330900,0.032827,-1.113037,0.408447,0.222412,-0.003429,0.004292,0.034053,0.999867,-0.011413,0.011654,0.000164,0.072384,-0.706377,0.316732,-0.628867
48591,NaN,-1.587335,1.079719,4.125356,3.467657,-1.257304,-12.476823,-0.452333,2.341947,-0.073051,-1.113281,0.419189,0.198975,-0.015385,0.010896,0.041411,0.999929,-0.002262,0.011709,-0.000365,0.066843,-0.699242,0.318721,-0.636403
48592,NaN,-2.143911,1.946066,5.073606,4.125864,-1.962417,-13.452800,1.045618,1.250560,0.048732,-1.115479,0.419189,0.186279,-0.021126,0.019189,0.050970,0.999967,0.005228,0.006253,0.000244,0.071449,-0.692925,0.314497,-0.644858
48593,NaN,-0.495175,1.842186,3.051415,2.267812,-2.119628,-11.633102,1.587190,0.157828,0.004242,-1.115479,0.419189,0.175781,-0.004928,0.018179,0.030663,0.999968,0.007936,0.000789,0.000021,0.076711,-0.691821,0.309441,-0.647878
48594,NaN,-0.028246,1.522450,0.760822,0.254790,-1.421376,-10.713883,2.225944,-0.304939,-0.194866,-1.120117,0.425781,0.169434,-0.000279,0.015139,0.007777,0.999936,0.011129,-0.001525,-0.000974,0.086873,-0.689783,0.298222,-0.654000
48595,NaN,0.560622,1.835572,-0.927196,-1.429805,-1.542877,-10.156570,2.540139,-0.403323,-0.303824,-1.120117,0.425781,0.169434,0.005653,0.018463,-0.009027,0.999916,0.012700,-0.002017,-0.001519,0.095234,-0.690394,0.288668,-0.656474
48596,NaN,1.021612,1.557107,-2.110205,-2.468085,-1.318526,-9.511182,2.593146,-0.060237,-0.179054,-1.118164,0.427734,0.160889,0.010237,0.015834,-0.020895,0.999916,0.012965,-0.000301,-0.000895,0.104731,-0.688008,0.276516,-0.662734
48597,NaN,1.029205,0.712022,-2.074852,-2.215084,-0.680120,-9.104240,2.259413,0.192164,-0.123814,-1.116211,0.434326,0.150146,0.010277,0.007348,-0.020676,0.999936,0.011297,0.000961,-0.000619,0.111820,-0.686315,0.268686,-0.666541
48598,NaN,1.062361,-0.110109,-1.494505,-1.476101,-0.158952,-8.730985,1.814851,0.383572,-0.085261,-1.122559,0.429932,0.139648,0.010594,-0.000970,-0.014975,0.999957,0.009074,0.001918,-0.000426,0.116591,-0.683655,0.260706,-0.671606
48599,NaN,0.979547,-0.349269,-0.802168,-0.758408,-0.059398,-8.742058,1.324902,0.501248,-0.076472,-1.120605,0.438721,0.139648,0.009774,-0.003443,-0.008069,0.999975,0.006624,0.002506,-0.000382,0.120206,-0.681282,0.256282,-0.675074
48600,NaN,0.594022,-0.138859,-0.633664,-0.624460,-0.070876,-9.197306,0.950062,0.539174,-0.067820,-1.125000,0.440918,0.125000,0.005923,-0.001360,-0.006359,0.999985,0.004750,0.002696,-0.000339,0.121536,-0.678926,0.252068,-0.678786
48601,NaN,0.186641,0.009985,-0.533430,-0.535815,-0.009204,-9.632969,0.629594,0.492886,-0.078584,-1.118652,0.442871,0.118408,0.001853,0.000116,-0.005339,0.999992,0.003148,0.002464,-0.000393,0.122784,-0.676964,0.249962,-0.681295
48602,NaN,-0.116806,0.183676,-0.529008,-0.545226,-0.004163,-9.985721,0.246231,0.469280,-0.107756,-1.126953,0.434326,0.110107,-0.001179,0.001844,-0.005285,0.999996,0.001231,0.002346,-0.000539,0.121667,-0.675455,0.248364,-0.683574
48603,NaN,-0.175002,0.281667,-0.249591,-0.282817,-0.106823,-10.097048,-0.135956,0.492400,-0.141200,-1.125000,0.442871,0.114258,-0.001754,0.002816,-0.002494,0.999996,-0.000680,0.002462,-0.000706,0.120113,-0.674027,0.248650,-0.685152
48604,NaN,-0.372472,-0.072964,-0.061325,-0.023475,0.258208,-10.096584,-0.300157,0.506733,-0.123305,-1.129150,0.438721,0.114258,-0.003727,-0.000728,-0.000603,0.999995,-0.001501,0.002534,-0.000617,0.117088,-0.672788,0.249152,-0.686710
48605,NaN,-0.496980,-0.162922,-0.035296,0.028673,0.390843,-10.160821,-0.181678,0.563170,-0.131243,-1.127197,0.440918,0.110107,-0.004972,-0.001626,-0.000337,0.999995,-0.000908,0.002816,-0.000656,0.115324,-0.671121,0.249662,-0.688452
48606,NaN,-0.500882,-0.569071,0.113921,0.250108,0.708082,-9.966855,0.109544,0.646836,-0.077313,-1.129150,0.438721,0.103760,-0.005007,-0.005689,0.001152,0.999995,0.000548,0.003234,-0.000387,0.113956,-0.669042,0.249143,-0.690887
48607,NaN,-0.449095,-1.136872,-0.256299,-0.016634,1.235946,-9.633761,0.383875,0.741141,-0.006668,-1.135742,0.440918,0.097412,-0.004501,-0.011364,-0.002568,0.999991,0.001919,0.003706,-0.000033,0.114293,-0.666265,0.248214,-0.693842
48608,NaN,-0.683355,-1.945199,-0.551016,-0.147696,2.095310,-9.435521,0.427087,0.852689,0.114556,-1.129639,0.447266,0.088867,-0.006846,-0.019444,-0.005523,0.999988,0.002135,0.004263,0.000573,0.114832,-0.662961,0.247572,-0.697140
48609,NaN,-1.631314,-1.655792,0.203660,0.639188,2.165551,-10.401004,0.127111,0.949107,0.230844,-1.129883,0.460205,0.086670,-0.016284,-0.016578,0.002103,0.999988,0.000636,0.004746,0.001154,0.114882,-0.659286,0.248436,-0.700303
48610,NaN,1.760617,-2.618903,1.721825,1.934295,1.003270,-6.953520,-0.907895,1.581352,0.638917,-1.123779,0.468750,0.073975,0.017826,-0.026054,0.017196,0.999953,-0.004539,0.007907,0.003195,0.112555,-0.653381,0.254997,-0.703847
48611,NaN,7.247954,-7.780662,6.294891,6.573795,1.445430,0.549390,-3.201997,3.609646,1.806453,-1.122559,0.490234,0.048340,0.074307,-0.076134,0.062847,0.999668,-0.016008,0.018046,0.009031,0.103813,-0.639961,0.274112,-0.710306
48612,NaN,14.050075,-17.856038,8.856537,9.709416,4.909578,12.008361,-5.196229,6.254596,2.654863,-1.125732,0.516113,-0.000488,0.145606,-0.174347,0.088631,0.999086,-0.025973,0.031263,0.013270,0.090247,-0.615739,0.303369,-0.721587
48613,NaN,20.561566,-25.622174,22.387800,21.970146,2.213393,23.240173,-2.219364,7.178885,1.099162,-1.121826,0.524902,-0.047119,0.214933,-0.252608,0.219090,0.999279,-0.011094,0.035886,0.005494,0.076429,-0.588735,0.317778,-0.739302
48614,NaN,23.544278,-20.150086,16.795541,13.270748,-1.893129,22.787089,0.800807,0.332032,0.536504,-1.119873,0.533447,-0.030273,0.236261,-0.201537,0.166757,0.999987,0.004004,0.001660,0.002683,0.089067,-0.584412,0.312599,-0.743513
48615,NaN,35.490187,-9.727086,-12.581974,-20.222831,-5.957951,22.866205,5.746923,-1.517602,1.025476,-1.116699,0.559326,-0.068359,0.356337,-0.091830,-0.125810,0.999545,0.028730,-0.007587,0.005127,0.112000,-0.585625,0.293415,-0.747266
48616,NaN,39.741170,-20.223542,17.446444,7.312126,-9.125838,36.615624,2.766254,3.643836,0.978631,-1.110352,0.555176,-0.100098,0.401459,-0.202598,0.164374,0.999726,0.013830,0.018218,0.004893,0.131301,-0.569780,0.279160,-0.761696
48617,NaN,20.898716,-13.369767,7.499684,1.826254,-1.788961,15.978318,4.207724,-0.211542,-0.675355,-1.108154,0.552979,-0.112793,0.208453,-0.135943,0.072373,0.999772,0.021037,-0.001058,-0.003377,0.140981,-0.568637,0.261010,-0.767236
48618,NaN,17.860917,-12.673518,-3.014276,-7.881297,1.903663,10.753239,3.548644,0.148127,0.090017,-1.105957,0.550781,-0.127686,0.178643,-0.126092,-0.032516,0.999842,0.017742,0.000741,0.000450,0.158664,-0.564252,0.241238,-0.773466
48619,NaN,21.219014,-9.082182,14.766839,7.515313,-6.296264,15.773734,0.702246,0.579362,0.463107,-1.100098,0.563721,-0.136230,0.212826,-0.090846,0.146734,0.999987,0.003511,0.002897,0.002316,0.161735,-0.560888,0.240285,-0.775570
48620,NaN,23.999540,-11.081100,10.469936,2.429348,-5.126709,18.047681,0.928800,-1.067007,0.104966,-1.110352,0.555176,-0.125488,0.239492,-0.111174,0.105462,0.999975,0.004644,-0.005335,0.000525,0.170193,-0.562813,0.231470,-0.775047
48621,NaN,29.571027,-15.301965,8.503878,-0.846828,-4.132323,24.291555,0.117471,-1.590844,-0.106179,-1.104004,0.557129,-0.102295,0.294941,-0.153227,0.087297,0.999968,0.000587,-0.007954,-0.000531,0.171948,-0.568982,0.229355,-0.770772
48622,NaN,30.950695,-16.378726,9.756694,0.361056,-3.959552,26.319654,-0.619367,-1.968508,-0.270336,-1.114014,0.544434,-0.078857,0.308302,-0.163895,0.101113,0.999946,-0.003097,-0.009842,-0.001352,0.174645,-0.576396,0.224235,-0.766150
48623,NaN,29.230735,-13.568640,7.228792,-0.749552,-5.018869,22.821365,-0.776836,-2.606223,-0.291385,-1.109863,0.552734,-0.045166,0.291130,-0.135819,0.076614,0.999906,-0.003884,-0.013031,-0.001457,0.174195,-0.587330,0.224074,-0.757951
48624,NaN,28.077946,-9.915108,3.625532,-3.114278,-6.835270,19.227422,-1.259115,-2.928516,-0.463174,-1.115723,0.537598,-0.011230,0.279972,-0.099552,0.040985,0.999870,-0.006295,-0.014642,-0.002316,0.174567,-0.599462,0.219506,-0.749659
48625,NaN,25.682792,-8.994244,1.553143,-3.673108,-6.061455,16.504790,-2.150451,-2.806351,-0.639023,-1.113525,0.537598,0.026855,0.256279,-0.090562,0.020102,0.999839,-0.010752,-0.014031,-0.003195,0.168779,-0.612462,0.223166,-0.739325
48626,NaN,25.154666,-12.222000,1.977638,-2.148436,-2.900076,17.988763,-2.705523,-2.962143,-0.609391,-1.121094,0.513916,0.062988,0.250827,-0.122669,0.025153,0.999794,-0.013527,-0.014810,-0.003047,0.162720,-0.626505,0.223264,-0.728812
48627,NaN,26.197627,-16.620166,2.149965,-0.779192,0.326623,21.272957,-2.611645,-3.125603,-0.852237,-1.114014,0.500977,0.109619,0.260865,-0.166980,0.027760,0.999784,-0.013057,-0.015627,-0.004261,0.154887,-0.640834,0.227519,-0.716642
48628,NaN,24.729094,-16.333735,2.954337,1.412058,1.080477,19.914992,-2.461772,-3.590501,-1.221518,-1.119385,0.472900,0.145752,0.245681,-0.164425,0.035983,0.999744,-0.012308,-0.017951,-0.006107,0.147460,-0.657312,0.224597,-0.704097
48629,NaN,19.483807,-15.085225,2.026657,2.072620,2.938394,14.646660,-2.306778,-3.615359,-1.189632,-1.114502,0.455566,0.186035,0.193508,-0.151732,0.025520,0.999752,-0.011533,-0.018075,-0.005948,0.139714,-0.672913,0.226086,-0.690328
48630,NaN,10.910023,-15.728099,1.170020,2.519580,8.069679,7.399722,-2.036826,-2.856351,-0.783346,-1.115967,0.436279,0.215820,0.108286,-0.157566,0.014854,0.999838,-0.010184,-0.014281,-0.003917,0.134678,-0.685319,0.223813,-0.679784
48631,NaN,6.133474,-12.771785,1.343884,2.939375,7.862973,1.679342,-1.698178,-2.240843,-0.405282,-1.107178,0.431885,0.237061,0.060912,-0.127717,0.015207,0.999899,-0.008491,-0.011204,-0.002026,0.129976,-0.694463,0.226664,-0.670411
48632,NaN,5.483956,-9.047864,2.450961,3.714227,4.855668,-0.836658,-1.047060,-1.475822,0.026672,-1.106689,0.418945,0.243408,0.054666,-0.090340,0.025387,0.999959,-0.005235,-0.007379,0.000133,0.130072,-0.699941,0.226097,-0.664863
48633,NaN,3.808084,-2.903714,3.254920,3.718546,0.273076,-5.382692,-0.357092,-1.245794,-0.545971,-1.106445,0.412598,0.256104,0.037798,-0.029082,0.032837,0.999975,-0.001785,-0.006229,-0.002730,0.128413,-0.704915,0.224557,-0.660439
48634,NaN,1.259804,3.330299,6.817404,6.323115,-4.229428,-10.946172,-0.023046,-1.587281,-1.414937,-1.103760,0.391113,0.270996,0.012292,0.033223,0.068269,0.999943,-0.000115,-0.007936,-0.007075,0.127412,-0.711199,0.216116,-0.656701
48635,NaN,-2.874362,8.233899,7.848707,6.442517,-6.626978,-17.040207,-0.007416,-2.520626,-1.211370,-1.096924,0.380371,0.296387,-0.029230,0.082518,0.078118,0.999902,-0.000037,-0.012603,-0.006057,0.126119,-0.720720,0.210206,-0.648437
48636,NaN,-2.145030,8.736303,3.328448,2.025042,-6.955250,-16.099646,0.963021,-2.825623,-0.237330,-1.090576,0.380127,0.315430,-0.021818,0.087228,0.033398,0.999888,0.004815,-0.014128,-0.001187,0.134476,-0.728939,0.199957,-0.640766
48637,NaN,-0.992518,4.325129,-1.686545,-2.258376,-3.283058,-12.392840,1.518065,-2.396405,-0.023908,-1.080078,0.390869,0.334473,-0.009720,0.043379,-0.016654,0.999899,0.007590,-0.011982,-0.000120,0.142315,-0.735546,0.193375,-0.633502
48638,NaN,0.025332,1.407043,-3.817662,-3.883881,-1.211889,-9.840880,2.221176,-1.564390,0.168682,-1.080566,0.403809,0.336426,0.000539,0.014494,-0.038014,0.999907,0.011106,-0.007822,0.000843,0.154926,-0.738501,0.180635,-0.630861
48639,NaN,1.824120,0.168312,-3.476522,-3.186050,-1.041450,-7.761919,2.488776,-0.665289,0.281175,-1.078613,0.412354,0.330078,0.018354,0.002141,-0.034680,0.999916,0.012444,-0.003326,0.001406,0.165590,-0.738356,0.173292,-0.630381
48640,NaN,1.575923,-0.702925,-2.709201,-2.425367,-0.229538,-7.719395,2.551001,-0.479776,0.097962,-1.076904,0.425049,0.332031,0.015828,-0.006676,-0.027141,0.999916,0.012755,-0.002399,0.000490,0.177502,-0.737659,0.160709,-0.631288
48641,NaN,2.199868,-2.013166,-1.782012,-1.418241,0.639318,-6.706658,2.295821,-0.563701,0.124522,-1.068604,0.431641,0.325684,0.022062,-0.019912,-0.017987,0.999930,0.011479,-0.002818,0.000623,0.186803,-0.737249,0.153410,-0.630900
48642,NaN,3.411191,-2.961642,-0.396560,0.096159,1.016100,-5.394193,0.685323,-0.441454,0.125530,-1.070557,0.427246,0.323486,0.034139,-0.029581,-0.003992,0.999991,0.003427,-0.002207,0.000628,0.191504,-0.738035,0.147479,-0.629984
48643,NaN,4.006306,-3.761118,0.015270,0.613142,1.479434,-4.556107,-1.647482,-0.164788,0.301201,-1.066406,0.427246,0.333984,0.040119,-0.037548,0.000495,0.999965,-0.008237,-0.000824,0.001506,0.186488,-0.739883,0.153617,-0.627851
48644,NaN,3.192041,-3.683483,0.306564,0.834307,1.816443,-5.356829,-3.197322,0.378818,0.170182,-1.072021,0.405762,0.334229,0.031958,-0.036753,0.003593,0.999870,-0.015986,0.001894,0.000851,0.176226,-0.741547,0.161381,-0.626904
48645,NaN,2.654576,-2.659335,2.236979,2.722196,1.222007,-6.616109,-3.764199,1.050960,0.151522,-1.076172,0.403809,0.338623,0.026684,-0.026148,0.022725,0.999809,-0.018820,0.005254,0.000758,0.161864,-0.741305,0.174635,-0.627511
48646,NaN,3.059427,-1.591935,5.838288,6.302898,0.029010,-7.313310,-3.638789,2.487411,0.109443,-1.088623,0.386719,0.313232,0.031328,-0.014841,0.058273,0.999757,-0.018192,0.012436,0.000547,0.147894,-0.736151,0.185697,-0.633818
48647,NaN,-1.135698,-2.662595,8.476902,8.495200,2.663599,-10.796683,-0.339959,3.051722,-0.135985,-1.094971,0.384521,0.283691,-0.010079,-0.026474,0.084974,0.999882,-0.001700,0.015258,-0.000680,0.143361,-0.726771,0.188508,-0.644761
48648,NaN,-6.509584,-3.130917,7.881982,7.471286,5.580150,-15.041537,2.282834,1.628810,-0.100005,-1.104004,0.395264,0.258301,-0.064469,-0.032178,0.078983,0.999902,0.011414,0.008144,-0.000500,0.151648,-0.719448,0.179162,-0.653680
48649,NaN,-4.052276,-1.195172,4.342307,4.055313,2.899712,-13.254990,2.956455,0.320216,0.245243,-1.100098,0.412598,0.253906,-0.040438,-0.012642,0.043304,0.999889,0.014782,0.001601,0.001226,0.162781,-0.715860,0.170604,-0.657222
48650,NaN,-1.311048,-0.116496,0.552720,0.451190,0.720000,-10.959819,3.286990,-0.126650,0.149522,-1.102539,0.418945,0.241211,-0.013113,-0.001265,0.005499,0.999864,0.016434,-0.000633,0.000748,0.176810,-0.712394,0.158339,-0.660426
48651,NaN,-0.956912,1.908782,-1.037459,-1.063259,-1.317507,-11.476622,3.504703,-0.878550,-0.247879,-1.098389,0.423340,0.241211,-0.009501,0.019278,-0.010080,0.999836,0.017523,-0.004393,-0.001239,0.189140,-0.712275,0.145081,-0.660183
48652,NaN,0.164382,3.871191,-2.552900,-2.293018,-3.748653,-11.302274,2.238702,-1.283106,-0.763746,-1.098389,0.418945,0.247559,0.001954,0.038987,-0.025082,0.999909,0.011193,-0.006415,-0.003819,0.196890,-0.713971,0.132074,-0.658814
48653,NaN,2.131401,4.275153,-5.392187,-4.832238,-5.337669,-9.580016,0.624807,0.270142,-0.239222,-1.096191,0.421143,0.234863,0.021293,0.042894,-0.053817,0.999993,0.003124,0.001351,-0.001196,0.198152,-0.712619,0.129426,-0.660423
48654,NaN,1.323828,2.451839,-3.358936,-3.007740,-3.156385,-9.620845,0.699357,1.534539,0.505357,-1.103027,0.427734,0.211670,0.012918,0.024669,-0.033603,0.999961,0.003497,0.007673,0.002527,0.202794,-0.706070,0.128067,-0.666287
48655,NaN,1.275860,1.105395,-1.051248,-0.849037,-1.677907,-9.165745,0.886914,1.594545,0.507336,-1.101074,0.436279,0.194580,0.012646,0.011133,-0.010564,0.999955,0.004435,0.007973,0.002537,0.206585,-0.699501,0.128514,-0.671941
48656,NaN,1.184582,1.614452,0.608815,0.847711,-1.889301,-9.508925,0.747481,1.147905,0.286717,-1.105469,0.440674,0.184082,0.011858,0.016139,0.006080,0.999976,0.003737,0.005739,0.001434,0.210984,-0.694494,0.125546,-0.676314
48657,NaN,0.886828,1.310439,0.955733,1.142624,-1.441084,-9.626082,0.562932,0.538140,0.015571,-1.107910,0.442871,0.177734,0.008893,0.013078,0.009570,0.999992,0.002815,0.002691,0.000078,0.212652,-0.692065,0.124263,-0.678516
48658,NaN,0.467881,1.128953,0.626932,0.785897,-1.122400,-9.907926,0.579815,0.255871,-0.140442,-1.105713,0.444824,0.175537,0.004695,0.011268,0.006296,0.999995,0.002899,0.001279,-0.000702,0.215749,-0.690538,0.119172,-0.680006
48659,NaN,0.121194,0.789912,0.334330,0.440520,-0.703370,-10.060951,0.535885,0.179581,-0.221281,-1.105713,0.444824,0.171387,0.001224,0.007889,0.003363,0.999995,0.002679,0.000898,-0.001106,0.216739,-0.689477,0.116779,-0.681182
48660,NaN,-0.149662,0.404049,0.193048,0.241752,-0.258714,-10.125008,0.391191,0.081123,-0.253845,-1.107666,0.438477,0.173584,-0.001491,0.004039,0.001939,0.999997,0.001956,0.000406,-0.001269,0.218940,-0.688817,0.111708,-0.681995
48661,NaN,-0.107748,0.102198,0.138106,0.146611,-0.020524,-9.951292,0.192403,0.059959,-0.231864,-1.105469,0.434326,0.175537,-0.001076,0.001022,0.001382,0.999999,0.000962,0.000300,-0.001159,0.218778,-0.688530,0.110319,-0.682563
48662,NaN,-0.253477,-0.030251,0.052762,0.036243,0.148485,-10.023846,-0.025479,0.128718,-0.208221,-1.112061,0.440674,0.173584,-0.002535,-0.000300,0.000529,0.999999,-0.000127,0.000644,-0.001041,0.219585,-0.688131,0.107061,-0.683224
48663,NaN,-0.038298,-0.024669,0.096175,0.089602,0.053734,-9.832914,-0.157332,0.216267,-0.147412,-1.115967,0.434326,0.171387,-0.000382,-0.000246,0.000962,0.999999,-0.000787,0.001081,-0.000737,0.218425,-0.687642,0.107328,-0.684046
48664,NaN,0.199795,-0.123899,0.283953,0.269062,0.064967,-9.569205,-0.273798,0.359362,-0.101287,-1.120361,0.434326,0.167236,0.002002,-0.001236,0.002838,0.999997,-0.001369,0.001797,-0.000506,0.218502,-0.686668,0.105780,-0.685241
48665,NaN,0.496093,-0.285302,0.630781,0.597313,0.127049,-9.219001,-0.382987,0.546301,-0.041306,-1.112061,0.440674,0.171387,0.004978,-0.002842,0.006300,0.999994,-0.001915,0.002732,-0.000207,0.216755,-0.685232,0.107546,-0.686956
48666,NaN,0.651581,-0.651218,0.600614,0.513295,0.376406,-8.915902,-0.367328,0.584730,-0.007226,-1.120605,0.438477,0.160889,0.006533,-0.006501,0.005999,0.999994,-0.001837,0.002924,-0.000036,0.216619,-0.683516,0.107100,-0.688776
48667,NaN,0.590042,-0.770024,0.816001,0.704247,0.537733,-8.906144,-0.062863,0.635284,-0.108360,-1.112061,0.440674,0.156494,0.005922,-0.007701,0.008144,0.999995,-0.000314,0.003176,-0.000542,0.215689,-0.681450,0.107633,-0.691028
48668,NaN,0.481515,-0.931105,1.076853,0.926180,0.770092,-8.914039,0.245383,0.613871,-0.149059,-1.118408,0.438477,0.156494,0.004841,-0.009328,0.010742,0.999994,0.001227,0.003069,-0.000745,0.216988,-0.678993,0.104919,-0.693453
48669,NaN,-0.176412,-1.465324,1.219343,0.966427,1.555815,-9.255419,0.329048,0.427110,-0.133470,-1.114258,0.438477,0.154541,-0.001748,-0.014672,0.012173,0.999996,0.001645,0.002136,-0.000667,0.217417,-0.677221,0.103787,-0.695219
48670,NaN,-0.146723,-1.639688,1.581122,1.283451,1.756986,-9.122907,0.348837,0.600844,-0.106249,-1.120605,0.438477,0.148193,-0.001428,-0.016424,0.015787,0.999994,0.001744,0.003004,-0.000531,0.218960,-0.674568,0.101303,-0.697677
48671,NaN,0.625739,-1.708902,2.473991,2.148162,1.608275,-8.318939,0.172182,1.202911,0.092617,-1.120850,0.447266,0.137451,0.006414,-0.017107,0.024687,0.999981,0.000861,0.006015,0.000463,0.219250,-0.670123,0.102329,-0.701708
48672,NaN,1.337179,-1.707569,3.320493,2.956957,1.396254,-7.568596,-0.261358,1.904366,0.311934,-1.129639,0.453613,0.116455,0.013714,-0.017011,0.033098,0.999953,-0.001307,0.009522,0.001560,0.219189,-0.663164,0.105376,-0.707860
48673,NaN,2.898959,-4.640858,3.112540,2.195191,3.177948,-4.841779,-0.756254,2.018469,1.007784,-1.119873,0.479492,0.101318,0.029536,-0.046143,0.031004,0.999929,-0.003781,0.010092,0.005039,0.219169,-0.656269,0.113598,-0.713001
48674,NaN,10.077975,-10.486087,3.930493,1.654162,4.794230,4.372713,-1.598834,2.967852,2.840093,-1.112305,0.509521,0.075684,0.102829,-0.103100,0.038618,0.999757,-0.007994,0.014838,0.014199,0.222873,-0.645161,0.131233,-0.718939
48675,NaN,19.472471,-18.014522,6.581443,2.079147,6.162497,16.730886,-1.099270,4.925002,3.176589,-1.098633,0.546143,0.041504,0.199106,-0.176658,0.061924,0.999556,-0.005496,0.024621,0.015881,0.227414,-0.626312,0.150858,-0.730245
48676,NaN,18.434316,-21.205784,8.722962,3.342249,8.753997,18.075909,-1.165167,2.382748,0.909155,-1.104980,0.543945,0.052246,0.186335,-0.210709,0.086248,0.999902,-0.005826,0.011913,0.004546,0.225091,-0.617366,0.161177,-0.736353
48677,NaN,26.423265,-15.716441,0.333923,-4.810177,-0.765431,20.543186,-3.658577,-2.004995,0.546551,-1.092773,0.567383,0.087891,0.264590,-0.156313,0.008855,0.999779,-0.018292,-0.010024,0.002733,0.217376,-0.628286,0.174040,-0.726440
48678,NaN,37.584304,-16.484279,-3.691462,-10.273538,-6.629531,29.535328,0.299196,3.062039,2.058600,-1.084961,0.582520,0.024170,0.376886,-0.160906,-0.042922,0.999829,0.001496,0.015309,0.010292,0.221577,-0.613742,0.184712,-0.734919
48679,NaN,32.023567,-6.489375,-0.379414,-6.153315,-12.284770,19.834144,10.900700,0.240301,-0.166345,-1.083252,0.586914,-0.013916,0.320174,-0.064811,-0.007714,0.998514,0.054476,0.001201,-0.000831,0.253849,-0.600029,0.144157,-0.744812
48680,NaN,33.182078,-1.058680,7.013190,1.675426,-16.386624,19.851406,7.825098,-1.521264,-0.751523,-1.087158,0.576172,-0.026367,0.331227,-0.014629,0.072134,0.999199,0.039115,-0.007604,-0.003757,0.275838,-0.595709,0.110241,-0.746251
48681,NaN,30.095225,-17.029987,9.201342,-0.280729,-0.948426,25.956294,-2.773095,2.294848,-0.229087,-1.087402,0.580566,-0.034912,0.301805,-0.169380,0.090906,0.999837,-0.013865,0.011474,-0.001145,0.265414,-0.590999,0.123052,-0.751754
48682,NaN,28.521349,-14.828389,12.344631,3.361989,-1.699698,24.415096,-1.204937,1.148781,-0.004562,-1.087402,0.580566,-0.032715,0.285916,-0.147550,0.122696,0.999965,-0.006025,0.005744,-0.000023,0.262902,-0.588564,0.126922,-0.753900
48683,NaN,31.124103,-17.485474,9.750239,-0.139069,-1.326640,27.170192,-0.518439,-0.541126,0.022637,-1.083008,0.580566,-0.026367,0.310995,-0.174565,0.098797,0.999993,-0.002592,-0.002706,0.000113,0.261804,-0.591265,0.128230,-0.751945
48684,NaN,31.552109,-17.401140,6.386175,-3.118197,-1.912147,26.597856,-0.424073,-0.860545,-0.304696,-1.091309,0.572021,-0.013672,0.314976,-0.174354,0.065587,0.999987,-0.002120,-0.004303,-0.001523,0.261885,-0.595543,0.125423,-0.749008
48685,NaN,29.276726,-14.530859,7.049463,-1.028612,-2.751935,23.493600,-0.551307,-1.483006,-0.670903,-1.091064,0.571777,0.009521,0.291743,-0.146089,0.073062,0.999963,-0.002757,-0.007415,-0.003354,0.258652,-0.602216,0.123543,-0.745099
48686,NaN,28.349711,-13.116436,7.548670,0.495010,-2.990074,22.179454,-0.976869,-1.958813,-0.843684,-1.105469,0.554688,0.032959,0.282180,-0.131977,0.078898,0.999931,-0.004884,-0.009794,-0.004218,0.256019,-0.611727,0.119278,-0.738930
48687,NaN,27.051522,-12.629752,6.099580,0.069168,-2.515835,20.553460,-0.949711,-2.506167,-0.996293,-1.094482,0.545898,0.062744,0.269085,-0.127338,0.064977,0.999898,-0.004748,-0.012530,-0.004981,0.250902,-0.622732,0.116519,-0.731899
48688,NaN,25.794169,-12.690294,4.699367,-0.413631,-1.579426,19.268937,-1.859692,-2.212718,-0.923105,-1.108398,0.522461,0.092529,0.256804,-0.127628,0.051024,0.999885,-0.009298,-0.011063,-0.004615,0.245572,-0.634180,0.114299,-0.724186
48689,NaN,24.756096,-14.540944,6.680657,2.002616,1.111804,19.574824,-2.298035,-2.006942,-0.682095,-1.101807,0.520020,0.119873,0.246367,-0.145452,0.070954,0.999878,-0.011490,-0.010034,-0.003410,0.236932,-0.644579,0.117978,-0.717260
48690,NaN,20.608529,-14.926804,5.736863,2.014107,3.651001,15.935844,-2.179060,-2.351790,-0.659154,-1.109619,0.496338,0.147705,0.204887,-0.149290,0.061409,0.999866,-0.010895,-0.011758,-0.003296,0.231309,-0.656409,0.117572,-0.708379
48691,NaN,17.691188,-13.188049,3.207622,0.644793,3.420058,12.210942,-1.751985,-2.452896,-0.522414,-1.109131,0.485596,0.166748,0.176147,-0.132041,0.035396,0.999883,-0.008760,-0.012264,-0.002612,0.225124,-0.667351,0.119211,-0.699822
48692,NaN,14.582875,-11.625346,3.026344,1.257789,3.692494,8.673319,-1.328284,-2.108560,-0.349441,-1.110840,0.477051,0.187988,0.145290,-0.116296,0.032569,0.999921,-0.006641,-0.010543,-0.001747,0.222294,-0.676644,0.118011,-0.691962
48693,NaN,13.472708,-8.731134,1.877282,0.923630,1.620374,6.242927,-1.366261,-1.569950,-0.193942,-1.106445,0.474854,0.207031,0.134486,-0.087306,0.020426,0.999945,-0.006831,-0.007850,-0.000970,0.217915,-0.683671,0.120329,-0.686024
48694,NaN,11.032000,-6.137256,1.603308,1.170910,0.513970,2.848413,-1.308210,-0.918889,-0.302496,-1.108154,0.457764,0.213379,0.110151,-0.061430,0.016941,0.999967,-0.006541,-0.004594,-0.001512,0.213936,-0.688493,0.121279,-0.682276
48695,NaN,6.059706,-2.588066,2.716732,2.650477,-0.142004,-3.198093,-1.174720,-0.874266,-0.507314,-1.097168,0.453369,0.228271,0.060411,-0.025873,0.027584,0.999970,-0.005874,-0.004371,-0.002537,0.208685,-0.693017,0.122600,-0.679078
48696,NaN,1.692493,-0.437935,3.459911,3.478004,0.049813,-8.101567,-1.291942,-1.308496,-0.268098,-1.096924,0.440430,0.243164,0.016692,-0.004178,0.034736,0.999957,-0.006460,-0.006542,-0.001340,0.204926,-0.698954,0.123369,-0.673980
48697,NaN,-2.130970,1.080420,2.683612,2.624619,0.319055,-12.245658,-0.680126,-1.656478,-0.175637,-1.092285,0.433838,0.258057,-0.021521,0.010914,0.026621,0.999960,-0.003401,-0.008282,-0.000878,0.202970,-0.705312,0.123344,-0.667926
48698,NaN,-2.423211,3.268049,1.338200,1.446245,-1.653725,-13.489140,0.423386,-2.067383,-0.199564,-1.092285,0.433838,0.274902,-0.024337,0.032677,0.013200,0.999944,0.002117,-0.010337,-0.000998,0.205719,-0.711772,0.118007,-0.661162
48699,NaN,-2.536439,3.480763,-1.348261,-1.232117,-2.169689,-13.573172,0.517047,-1.783595,-0.096023,-1.085693,0.433838,0.287598,-0.025227,0.034855,-0.013618,0.999957,0.002585,-0.008918,-0.000480,0.208285,-0.717160,0.114115,-0.655192
48700,NaN,-3.820854,2.945952,-3.589973,-3.673981,-1.511465,-14.327380,0.067201,-1.229117,-0.051527,-1.085693,0.431641,0.296143,-0.037979,0.029481,-0.036124,0.999981,0.000336,-0.006146,-0.000258,0.209932,-0.721116,0.110937,-0.650856
48701,NaN,-1.912604,1.494308,-3.732762,-3.757179,-1.087251,-11.940126,-0.110579,-0.304463,0.191933,-1.081543,0.436035,0.293945,-0.019083,0.014904,-0.037365,0.999998,-0.000553,-0.001522,0.000960,0.210326,-0.722114,0.111668,-0.649496
48702,NaN,-0.301506,0.003099,-1.836983,-1.848197,-0.166923,-9.960057,-0.338512,0.322120,0.182663,-1.096191,0.429688,0.289795,-0.003045,-0.000003,-0.018365,0.999997,-0.001693,0.001611,0.000913,0.210651,-0.721480,0.111919,-0.650052
48703,NaN,0.430321,-1.286856,-0.653745,-0.730155,0.851910,-8.807861,-0.601851,0.414667,0.077990,-1.085693,0.431641,0.287598,0.004295,-0.012886,-0.006508,0.999993,-0.003009,0.002073,0.000390,0.208500,-0.720716,0.114591,-0.651126
48704,NaN,1.919248,-3.061361,-0.224615,-0.304964,1.843207,-6.711808,-0.721569,0.214736,0.172334,-1.083496,0.427490,0.289795,0.019217,-0.030605,-0.002156,0.999993,-0.003608,0.001074,0.000862,0.207414,-0.720852,0.116063,-0.651062
48705,NaN,2.998146,-3.890389,-0.108773,-0.111616,2.123391,-5.383866,-1.157357,0.199376,0.154763,-1.083496,0.425293,0.289795,0.030011,-0.038886,-0.000893,0.999982,-0.005787,0.000997,0.000774,0.203627,-0.721299,0.120591,-0.650939
48706,NaN,2.878214,-3.570648,-0.030991,0.011979,1.907572,-5.641895,-1.483561,0.487921,0.000876,-1.091797,0.418945,0.285645,0.028782,-0.035708,-0.000115,0.999970,-0.007418,0.002440,0.000004,0.198714,-0.721306,0.124742,-0.651667
48707,NaN,2.974429,-2.536277,0.661253,0.819776,1.033125,-6.074002,-1.621108,0.692822,-0.223452,-1.091553,0.414551,0.287842,0.029739,-0.025342,0.006715,0.999961,-0.008105,0.003464,-0.001117,0.191699,-0.720769,0.129900,-0.653353
48708,NaN,3.573805,-1.564209,2.653998,2.934610,0.096452,-6.119302,-2.096038,0.993184,-0.316219,-1.101807,0.399658,0.283691,0.035845,-0.015421,0.026525,0.999932,-0.010480,0.004966,-0.001581,0.182919,-0.719718,0.135804,-0.655823
48709,NaN,3.086684,-0.675116,4.200626,4.443260,-0.452014,-7.041429,-2.748328,2.219654,-0.199686,-1.107910,0.384766,0.262695,0.031325,-0.006207,0.041748,0.999844,-0.013741,0.011098,-0.000998,0.170839,-0.714974,0.146104,-0.662027
48710,NaN,-0.893290,-2.227863,3.839282,3.735123,2.558899,-9.848955,-0.594717,2.778788,-0.320766,-1.118652,0.384766,0.233154,-0.008433,-0.022150,0.038578,0.999898,-0.002973,0.013893,-0.001604,0.165966,-0.706370,0.148704,-0.671851
48711,NaN,-4.958774,-2.927118,5.553507,5.248096,5.010080,-13.182271,2.289049,1.471238,-0.380733,-1.121094,0.393311,0.214111,-0.049235,-0.029813,0.055559,0.999906,0.011445,0.007356,-0.001904,0.171662,-0.699743,0.140875,-0.679004
48712,NaN,-3.674738,-0.158390,3.585626,3.422816,1.942627,-13.113463,2.873229,-0.679334,-0.162810,-1.110596,0.395508,0.209717,-0.036870,-0.002068,0.035704,0.999891,0.014366,-0.003397,-0.000814,0.181195,-0.699229,0.130441,-0.679141
48713,NaN,-1.251186,0.440822,-0.954552,-0.980488,0.051740,-11.119152,2.355925,-1.420434,-0.223580,-1.116943,0.404053,0.222412,-0.012439,0.004535,-0.009581,0.999905,0.011779,-0.007102,-0.001118,0.189581,-0.701996,0.120359,-0.675851
48714,NaN,-0.287010,1.646725,-3.442836,-3.279219,-1.740984,-10.741312,2.103717,-0.296829,-0.138010,-1.112793,0.404053,0.211914,-0.002808,0.016830,-0.034257,0.999943,0.010518,-0.001484,-0.000690,0.196036,-0.700612,0.113226,-0.676678
48715,NaN,-0.446486,2.908836,-2.810518,-2.484982,-2.767733,-11.463105,1.187199,1.157040,0.074941,-1.113281,0.416992,0.194824,-0.004638,0.029253,-0.027905,0.999966,0.005936,0.005785,0.000375,0.199787,-0.695465,0.110601,-0.681308
48716,NaN,-0.231581,2.702857,-1.976319,-1.648436,-2.562126,-11.220826,0.140153,1.936761,0.471785,-1.126221,0.419189,0.175781,-0.002571,0.027037,-0.019720,0.999950,0.000701,0.009684,0.002359,0.200644,-0.688187,0.113800,-0.687888
48717,NaN,0.718145,2.074475,-1.793582,-1.520121,-2.370991,-10.134450,-0.026843,1.998729,0.615983,-1.124512,0.427979,0.154541,0.006938,0.020764,-0.018009,0.999945,-0.000134,0.009993,0.003080,0.201522,-0.680949,0.118009,-0.694097
48718,NaN,1.332064,2.344901,-1.319305,-1.024527,-2.820461,-9.719100,0.191761,1.617159,0.379388,-1.124512,0.425781,0.137695,0.013169,0.023487,-0.013277,0.999965,0.000959,0.008086,0.001897,0.202834,-0.674809,0.119785,-0.699387
48719,NaN,1.167139,1.634023,-0.005652,0.177801,-1.974298,-9.492084,-0.191490,1.125813,0.239600,-1.126709,0.430176,0.135498,0.011651,0.016354,-0.000138,0.999983,-0.000957,0.005629,0.001198,0.202348,-0.670909,0.122401,-0.702819
48720,NaN,1.206030,-0.012800,0.224403,0.195008,-0.509352,-8.713802,-0.667077,0.937091,0.214705,-1.130859,0.427979,0.122803,0.012071,-0.000108,0.002188,0.999983,-0.003335,0.004685,0.001074,0.200990,-0.668183,0.125452,-0.705263
48721,NaN,1.169088,-0.170642,1.049556,0.987629,-0.285906,-8.612570,-0.701706,0.852853,0.082371,-1.124512,0.427979,0.118652,0.011736,-0.001665,0.010451,0.999985,-0.003509,0.004264,0.000412,0.198398,-0.665817,0.129055,-0.707581
48722,NaN,0.977823,-1.086449,1.736247,1.570897,0.659132,-8.313067,-0.676237,0.753813,0.102616,-1.131104,0.430176,0.110107,0.009849,-0.010801,0.017362,0.999987,-0.003381,0.003769,0.000513,0.196735,-0.663784,0.131578,-0.709488
48723,NaN,0.418460,-1.612011,1.557254,1.364879,1.352475,-8.585236,-0.505243,0.506593,-0.012821,-1.135254,0.427979,0.108154,0.004223,-0.016081,0.015603,0.999994,-0.002526,0.002533,-0.000064,0.194677,-0.662486,0.133823,-0.710848
48724,NaN,0.348046,-1.454220,1.169278,1.000078,1.213117,-8.749065,-0.205027,0.333544,-0.047462,-1.130859,0.425781,0.114502,0.003497,-0.014531,0.011702,0.999998,-0.001025,0.001668,-0.000237,0.194055,-0.661480,0.134084,-0.711905
48725,NaN,0.401897,-1.135307,0.906469,0.767567,0.885731,-8.864821,0.046904,0.375574,-0.017472,-1.133301,0.432373,0.112305,0.004035,-0.011356,0.009054,0.999998,0.000235,0.001878,-0.000087,0.193896,-0.660106,0.134222,-0.713197
48726,NaN,0.294295,-0.863764,0.478396,0.370954,0.665411,-9.119016,0.304278,0.414630,0.024521,-1.135254,0.427979,0.101807,0.002954,-0.008645,0.004765,0.999997,0.001521,0.002073,0.000123,0.194927,-0.658193,0.133266,-0.714860
48727,NaN,0.152634,-0.256384,0.239996,0.202178,0.174529,-9.538295,0.409856,0.361515,-0.005558,-1.131348,0.434570,0.099609,0.001531,-0.002569,0.002392,0.999996,0.002049,0.001808,-0.000028,0.196014,-0.656501,0.132133,-0.716328
48728,NaN,0.355240,-0.116256,-0.642051,-0.672059,-0.102954,-9.513227,0.460788,0.321136,0.009445,-1.137451,0.427979,0.097656,0.003542,-0.001148,-0.006429,0.999996,0.002304,0.001606,0.000047,0.197464,-0.654746,0.130598,-0.717816
48729,NaN,0.378324,-0.733000,-0.895189,-0.997462,0.412771,-9.250139,0.734111,0.415626,0.046471,-1.137939,0.445312,0.093262,0.003766,-0.007296,-0.008987,0.999991,0.003671,0.002078,0.000232,0.199760,-0.652491,0.128523,-0.719606
48730,NaN,0.116987,-0.801399,-1.012391,-1.109883,0.577740,-9.473237,0.808271,0.430180,0.025701,-1.140137,0.447266,0.091064,0.001149,-0.007973,-0.010159,0.999990,0.004041,0.002151,0.000129,0.202322,-0.649991,0.125913,-0.721612
48731,NaN,0.301465,-0.923653,-1.095707,-1.227901,0.589024,-9.274276,0.790021,0.540389,0.122763,-1.134033,0.451660,0.082520,0.002991,-0.009191,-0.011002,0.999988,0.003950,0.002702,0.000614,0.204990,-0.647154,0.124005,-0.723735
48732,NaN,0.929797,-1.717302,-0.462463,-0.773776,1.050671,-8.287942,0.535385,1.099368,0.457704,-1.142822,0.462402,0.069824,0.009311,-0.017139,-0.004722,0.999979,0.002677,0.005497,0.002289,0.207866,-0.642245,0.124432,-0.727207
48733,NaN,1.930478,-2.538123,1.132861,0.565126,1.423549,-6.795075,-0.134630,2.078210,0.988659,-1.139160,0.479736,0.048584,0.019546,-0.025277,0.011143,0.999934,-0.000673,0.010391,0.004943,0.209721,-0.634168,0.130246,-0.732723
48734,NaN,3.822560,-4.251116,3.056424,1.960249,2.071723,-3.991360,-1.490268,3.114072,1.482678,-1.135742,0.499023,0.027100,0.039011,-0.041998,0.030275,0.999824,-0.007451,0.015569,0.007413,0.208337,-0.623115,0.143646,-0.740061
48735,NaN,13.731414,-7.190868,9.011744,5.827044,-0.464572,7.134643,-3.813643,5.102933,2.542790,-1.124023,0.531250,-0.015381,0.140461,-0.068446,0.087887,0.999412,-0.019064,0.025510,0.012711,0.202077,-0.606013,0.170904,-0.750137
48736,NaN,25.513635,-18.692899,16.415561,8.941278,1.773424,24.628777,-4.176339,7.076933,3.210440,-1.116699,0.565674,-0.053711,0.263739,-0.179388,0.158722,0.999027,-0.020875,0.035373,0.016047,0.194922,-0.580071,0.203531,-0.764263
48737,NaN,21.250069,-18.111431,8.572441,1.953232,2.691241,19.203515,-5.530863,3.015040,1.302849,-1.115234,0.586914,-0.026367,0.214974,-0.177317,0.087435,0.999483,-0.027650,0.015073,0.006513,0.180691,-0.572313,0.231271,-0.765717
48738,NaN,22.820447,-8.171795,-19.871278,-25.367923,-2.932455,8.359119,0.897339,-3.007558,0.547835,-1.119141,0.584717,-0.009521,0.231383,-0.080205,-0.195611,0.999873,0.004487,-0.015037,0.002739,0.187788,-0.581658,0.227579,-0.758036
48739,NaN,35.217256,-10.727131,-9.807202,-18.902282,-9.540421,21.859237,6.640158,-0.218546,0.285102,-1.111328,0.602051,-0.047607,0.352431,-0.103444,-0.101164,0.999447,0.033195,-0.001093,0.001425,0.208320,-0.575604,0.202912,-0.764271
48740,NaN,19.583923,-20.406010,1.790281,-5.324956,5.853795,17.398607,0.813778,3.133052,1.284898,-1.105469,0.608643,-0.077393,0.197385,-0.202858,0.013992,0.999848,0.004069,0.015664,0.006424,0.213315,-0.561834,0.205864,-0.772308
48741,NaN,15.691450,-10.484532,6.994273,1.135393,-0.740417,10.267660,0.768641,1.393828,0.437513,-1.099365,0.617188,-0.085938,0.157624,-0.104766,0.068443,0.999966,0.003843,0.006969,0.002188,0.215721,-0.555160,0.205603,-0.776524
48742,NaN,26.986188,-18.889371,12.149075,1.533536,-0.582070,25.258112,1.537213,0.178010,0.227186,-1.101318,0.610840,-0.092285,0.270184,-0.189512,0.119795,0.999969,0.007686,0.000890,0.001136,0.221316,-0.552910,0.199920,-0.778037
48743,NaN,37.615253,-32.714673,23.081864,6.481892,3.505419,44.624797,-1.314886,3.031494,1.180977,-1.087158,0.632324,-0.122070,0.381532,-0.323403,0.227197,0.999846,-0.006574,0.015157,0.005905,0.219210,-0.541304,0.211621,-0.783679
48744,NaN,36.322233,-15.305041,21.607107,6.508166,-10.717897,33.350344,-0.798943,2.960125,0.740885,-1.084961,0.628174,-0.143066,0.366935,-0.150845,0.211264,0.999876,-0.003995,0.014800,0.003704,0.217007,-0.529875,0.219812,-0.789825
48745,NaN,20.706487,-6.380573,1.881312,-6.094202,-6.877381,9.899443,3.021737,-0.757860,-0.709824,-1.086914,0.617432,-0.145020,0.206765,-0.064822,0.018623,0.999872,0.015108,-0.003789,-0.003549,0.223014,-0.530299,0.205147,-0.791810
48746,NaN,10.261418,-7.212846,-13.164400,-16.767396,0.690248,-2.817359,6.859603,-3.711610,-1.123465,-1.113525,0.589600,-0.146973,0.104673,-0.068186,-0.132098,0.999224,0.034289,-0.018553,-0.005616,0.241936,-0.538594,0.169368,-0.789112
48747,NaN,6.785114,-9.834013,-8.629394,-12.192270,4.114184,-2.628881,5.204274,-2.773618,-0.385552,-1.105225,0.589600,-0.153320,0.068876,-0.096199,-0.087865,0.999563,0.026018,-0.013866,-0.001927,0.256670,-0.543330,0.144368,-0.786175
48748,NaN,5.785537,-8.945555,1.939553,-2.021491,4.249426,-0.060088,0.593300,-1.104896,0.167655,-1.102783,0.580811,-0.138428,0.057823,-0.089465,0.019450,0.999980,0.002966,-0.005524,0.000838,0.261518,-0.547499,0.139615,-0.782535
48749,NaN,12.922463,-6.121768,9.143776,3.687161,-1.777294,6.658512,-4.866465,0.413154,-0.125284,-1.103027,0.591553,-0.115234,0.129378,-0.059054,0.092625,0.999702,-0.024330,0.002066,-0.000626,0.247340,-0.552167,0.158808,-0.780202
48750,NaN,13.819878,-9.227314,-0.734486,-6.087365,-0.170537,5.665203,-5.494926,-0.011625,0.320613,-1.098389,0.584961,-0.089844,0.138347,-0.092207,-0.004803,0.999621,-0.027471,-0.000058,0.001603,0.234801,-0.559239,0.179813,-0.774459
48751,NaN,13.555435,-11.273171,2.700335,-2.716194,1.604222,7.742052,-0.962396,-1.135395,-0.072665,-1.094238,0.587158,-0.081543,0.135355,-0.112647,0.028314,0.999972,-0.004812,-0.005677,-0.000363,0.232842,-0.564813,0.181997,-0.770485
48752,NaN,13.207671,-10.623692,3.048228,-1.992189,1.268347,7.246567,0.193913,-1.106530,0.004477,-1.098145,0.578613,-0.068604,0.131908,-0.106264,0.031109,0.999984,0.000970,-0.005533,0.000022,0.235897,-0.569590,0.178707,-0.766800
48753,NaN,12.313862,-8.071049,1.019137,-3.206780,-0.305722,4.589881,0.267805,-0.958967,-0.005120,-1.091797,0.578613,-0.066650,0.123086,-0.080728,0.010674,0.999988,0.001339,-0.004795,-0.000026,0.237494,-0.572947,0.176531,-0.764307
48754,NaN,9.832402,-7.262691,1.500337,-1.959484,0.426168,2.338541,0.089502,-0.616118,0.133427,-1.091553,0.572021,-0.058105,0.098326,-0.072568,0.015274,0.999995,0.000448,-0.003081,0.000667,0.240276,-0.575836,0.174585,-0.761709
48755,NaN,6.961820,-6.517600,2.488213,-0.204078,1.440913,-0.064907,-0.040473,-0.543051,0.193824,-1.085205,0.572021,-0.062256,0.069613,-0.065103,0.025084,0.999996,-0.000202,-0.002715,0.000969,0.241370,-0.577779,0.174643,-0.759876
48756,NaN,4.726037,-4.770444,2.727222,0.838852,1.276232,-2.727652,-0.091640,-0.696035,0.199040,-1.091553,0.574219,-0.053955,0.047212,-0.047645,0.027458,0.999993,-0.000458,-0.003480,0.000995,0.243799,-0.581072,0.173597,-0.756823
48757,NaN,2.808282,-2.697196,2.650790,1.546954,0.672787,-5.414720,0.005910,-1.262480,0.149290,-1.083008,0.574219,-0.039062,0.027935,-0.026952,0.026684,0.999980,0.000030,-0.006312,0.000746,0.245471,-0.585699,0.172464,-0.752965
48758,NaN,1.586820,-1.302027,1.372519,0.817556,0.212146,-7.492438,0.323886,-1.909752,-0.061975,-1.089111,0.567627,-0.024170,0.015732,-0.013048,0.013855,0.999953,0.001619,-0.009549,-0.000310,0.248910,-0.593119,0.167778,-0.747063
48759,NaN,0.489243,-0.695557,1.231122,0.992941,0.357575,-8.752046,0.754743,-2.086734,-0.135265,-1.078125,0.563477,-0.007324,0.004759,-0.007005,0.012335,0.999938,0.003774,-0.010433,-0.000676,0.252377,-0.600050,0.161949,-0.741632
48760,NaN,0.758461,-0.343573,1.220444,1.017061,-0.059992,-8.742776,0.438328,-1.934305,-0.149698,-1.086426,0.559082,0.007568,0.007464,-0.003468,0.012269,0.999951,0.002192,-0.009671,-0.000748,0.255654,-0.607284,0.156578,-0.735752
48761,NaN,1.862586,0.159072,0.926224,0.701288,-1.105121,-8.188115,-0.176277,-1.600976,-0.185712,-1.075928,0.559082,0.028564,0.018552,0.001582,0.009410,0.999967,-0.000881,-0.008005,-0.000929,0.255680,-0.613523,0.154610,-0.730967
48762,NaN,1.935047,0.827806,1.024611,0.943235,-1.673474,-8.475060,-0.685117,-1.332723,-0.399888,-1.081787,0.546143,0.041504,0.019298,0.008275,0.010346,0.999970,-0.003426,-0.006664,-0.001999,0.254093,-0.620055,0.153297,-0.726270
48763,NaN,1.558218,1.274190,1.217416,1.263429,-1.808236,-8.995543,-1.092689,-1.177396,-0.566753,-1.081543,0.541748,0.064697,0.015547,0.012764,0.012196,0.999964,-0.005463,-0.005887,-0.002834,0.249540,-0.626130,0.154005,-0.722478
48764,NaN,1.661189,1.246039,1.496727,1.534218,-1.813237,-8.858388,-1.326915,-0.994496,-0.576352,-1.089355,0.524658,0.073242,0.016573,0.012512,0.014967,0.999961,-0.006634,-0.004972,-0.002882,0.245143,-0.632310,0.154677,-0.718446
48765,NaN,2.058694,0.984383,2.021772,1.984020,-1.772764,-8.324157,-1.383857,-0.934377,-0.491106,-1.084961,0.522217,0.094482,0.020517,0.009933,0.020245,0.999962,-0.006919,-0.004672,-0.002455,0.239716,-0.637718,0.156943,-0.714998
48766,NaN,2.574702,0.602763,2.579464,2.468742,-1.684570,-7.641645,-1.439525,-1.192209,-0.444567,-1.084717,0.511475,0.113525,0.025606,0.006157,0.025904,0.999954,-0.007198,-0.005961,-0.002223,0.235632,-0.644543,0.158006,-0.709983
48767,NaN,3.192445,-0.115858,2.574870,2.373844,-1.411748,-6.778455,-1.344148,-1.469489,-0.549535,-1.080322,0.511475,0.136963,0.031731,-0.001072,0.025990,0.999947,-0.006721,-0.007347,-0.002748,0.230497,-0.651742,0.159266,-0.704796
48768,NaN,3.275354,-0.753109,3.558521,3.335549,-0.817008,-6.324980,-1.354390,-1.594037,-0.712661,-1.092285,0.489990,0.162354,0.032442,-0.007405,0.035895,0.999939,-0.006772,-0.007970,-0.003563,0.225999,-0.659938,0.158561,-0.698760
48769,NaN,3.569209,-1.657091,3.947481,3.697488,-0.158539,-5.644956,-1.673813,-1.671996,-0.821525,-1.085449,0.479248,0.194092,0.035292,-0.016384,0.039909,0.999922,-0.008369,-0.008360,-0.004108,0.218913,-0.668269,0.159795,-0.692791
48770,NaN,4.056159,-3.045836,2.913176,2.646745,0.736409,-4.648706,-1.807192,-1.780134,-0.845578,-1.082764,0.466309,0.213379,0.040170,-0.030362,0.029765,0.999911,-0.009036,-0.008900,-0.004228,0.212402,-0.677446,0.160017,-0.685819
48771,NaN,4.920486,-4.655585,0.929337,0.689485,1.590332,-3.198855,-1.043583,-1.917818,-0.754521,-1.076172,0.459717,0.238770,0.048935,-0.046690,0.010007,0.999933,-0.005218,-0.009589,-0.003773,0.207799,-0.685688,0.158991,-0.679245
48772,NaN,6.058993,-5.128693,0.540721,0.432549,1.470871,-2.005323,-0.202603,-1.982802,-0.736939,-1.075684,0.446777,0.257812,0.060343,-0.051504,0.006058,0.999944,-0.001013,-0.009914,-0.003685,0.206929,-0.693481,0.154133,-0.672687
48773,NaN,7.419812,-5.536643,0.317974,0.388443,1.202858,-0.636136,-0.206806,-1.984763,-0.484151,-1.062744,0.444580,0.283203,0.074027,-0.055542,0.003972,0.999947,-0.001034,-0.009924,-0.002421,0.206101,-0.700706,0.151087,-0.666113
48774,NaN,11.015603,-7.589420,0.121978,0.522468,1.270583,3.493840,-0.713797,-2.074437,-0.038493,-1.064697,0.437988,0.306396,0.110119,-0.075908,0.002633,0.999940,-0.003569,-0.010372,-0.000192,0.205603,-0.708573,0.150439,-0.658043
48775,NaN,18.961748,-12.787913,0.215073,1.366965,1.952900,12.934361,-0.840120,-1.570008,0.358307,-1.049805,0.440186,0.323242,0.189819,-0.127524,0.004176,0.999959,-0.004201,-0.007850,0.001792,0.204977,-0.714303,0.152851,-0.651454
48776,NaN,26.737948,-19.758540,0.866582,2.747521,4.202516,23.063680,0.326930,-0.590320,0.534610,-1.050049,0.446533,0.321289,0.267880,-0.196884,0.009134,0.999991,0.001635,-0.002952,0.002673,0.208691,-0.715633,0.152627,-0.648863
48777,NaN,23.160296,-17.608508,1.597831,3.180425,4.135347,18.854254,1.642782,-0.763851,-0.304111,-1.043701,0.450928,0.321045,0.231275,-0.176565,0.015413,0.999958,0.008214,-0.003819,-0.001521,0.214155,-0.716598,0.145404,-0.647675
48778,NaN,13.827631,-10.433128,0.538003,1.349521,2.407331,7.296445,2.377416,-0.299029,-0.415048,-1.047852,0.448730,0.306396,0.138052,-0.104674,0.004344,0.999926,0.011887,-0.001495,-0.002075,0.221362,-0.715235,0.136133,-0.648773
48779,NaN,6.628733,-7.302951,0.588395,0.618457,3.175672,-0.477328,1.549996,1.139619,0.374652,-1.048584,0.466064,0.289307,0.066454,-0.072946,0.004940,0.999952,0.007750,0.005698,0.001873,0.227333,-0.709533,0.133698,-0.653458
48780,NaN,3.945653,-6.985280,1.955563,1.562604,4.336184,-2.961416,0.751293,2.142568,0.816723,-1.057373,0.470459,0.255371,0.039946,-0.069762,0.018867,0.999927,0.003756,0.010713,0.004084,0.230746,-0.700950,0.137198,-0.660759
48781,NaN,4.140042,-6.684585,3.429670,2.936101,4.093543,-2.869767,0.675366,2.884398,0.873699,-1.059814,0.483398,0.229980,0.042179,-0.066777,0.033467,0.999881,0.003377,0.014421,0.004368,0.233992,-0.689958,0.141339,-0.670245
48782,NaN,3.994858,-5.549475,5.432315,4.918343,3.348499,-3.420566,0.736776,2.363234,0.684811,-1.062500,0.491943,0.208740,0.040775,-0.055555,0.053640,0.999918,0.003684,0.011816,0.003424,0.236168,-0.680336,0.145193,-0.678444
48783,NaN,4.485162,-3.379248,4.762306,4.432509,1.128325,-4.042562,1.205554,0.905551,0.295022,-1.058594,0.500488,0.191895,0.045116,-0.034011,0.047215,0.999970,0.006028,0.004528,0.001475,0.240604,-0.675606,0.143170,-0.682033
48784,NaN,7.489820,-1.288050,2.491687,2.470426,-2.520665,-2.635782,0.812618,0.571991,0.297312,-1.064697,0.498535,0.189697,0.074988,-0.012870,0.024650,0.999987,0.004063,0.002860,0.001487,0.242603,-0.672012,0.143695,-0.684759
48785,NaN,7.462743,-1.434063,1.180440,1.095208,-2.579223,-2.650967,0.280922,0.804735,0.337707,-1.058594,0.504883,0.172852,0.074698,-0.014231,0.011484,0.999989,0.001405,0.004024,0.001689,0.244121,-0.668666,0.144841,-0.687249
48786,NaN,6.218653,-1.249460,1.892496,1.753220,-2.022835,-3.758883,0.088431,0.581122,0.266570,-1.064941,0.500732,0.166504,0.062258,-0.012420,0.018739,0.999995,0.000442,0.002906,0.001333,0.243784,-0.665968,0.147434,-0.689434
48787,NaN,6.028225,-0.536672,0.928453,0.876624,-2.651129,-4.363598,-0.283289,0.145177,0.051310,-1.063232,0.513428,0.181152,0.060290,-0.005338,0.009248,0.999999,-0.001416,0.000726,0.000257,0.242909,-0.665773,0.148757,-0.689646
48788,NaN,6.289748,-0.493270,0.057564,0.010419,-2.932418,-4.226242,-0.420780,-0.060526,-0.068120,-1.062988,0.507080,0.174805,0.062896,-0.004953,0.000605,0.999998,-0.002104,-0.000303,-0.000341,0.240413,-0.666198,0.150928,-0.689640
48789,NaN,7.626346,-1.314361,0.718268,0.575947,-2.886913,-2.619735,-0.591219,-0.147353,0.199047,-1.060791,0.507080,0.181152,0.076271,-0.013046,0.007278,0.999995,-0.002956,-0.000737,0.000995,0.239240,-0.667262,0.153451,-0.688461
48790,NaN,8.842462,-2.697366,1.432787,1.140828,-2.332330,-0.825127,-1.114338,-0.013578,0.375030,-1.062744,0.496338,0.187744,0.088474,-0.026727,0.014483,0.999983,-0.005572,-0.000068,0.001875,0.236225,-0.668082,0.159172,-0.687407
48791,NaN,11.004242,-4.349637,2.135731,1.707739,-2.095230,1.903416,-1.465920,0.171888,0.338657,-1.056396,0.504883,0.198242,0.110134,-0.043152,0.021580,0.999971,-0.007330,0.000859,0.001693,0.232348,-0.668933,0.165538,-0.686396
48792,NaN,12.656242,-6.381909,2.436498,1.832690,-1.328992,4.390144,-1.158268,0.641623,0.231639,-1.056396,0.502686,0.185547,0.126714,-0.063531,0.024327,0.999977,-0.005791,0.003208,0.001158,0.228306,-0.667646,0.171471,-0.687549
48793,NaN,11.578392,-8.313859,3.915702,3.116629,0.940444,4.606536,-0.114477,0.580877,-0.108601,-1.061035,0.509277,0.179199,0.115852,-0.083179,0.038868,0.999995,-0.000572,0.002904,-0.000543,0.227051,-0.665869,0.172163,-0.689512
48794,NaN,10.428390,-7.904536,3.626478,2.839395,1.228632,3.408972,0.617120,-0.450070,-0.301275,-1.062744,0.498535,0.191895,0.104083,-0.079314,0.036255,0.999992,0.003086,-0.002250,-0.001506,0.227976,-0.666718,0.169004,-0.689167
48795,NaN,9.378179,-9.352316,1.359831,0.443290,2.912250,3.171422,1.332122,-1.071939,-0.300895,-1.062988,0.507080,0.191895,0.093568,-0.093754,0.013476,0.999962,0.006661,-0.005360,-0.001504,0.232277,-0.669121,0.162181,-0.687038
48796,NaN,8.455854,-8.052052,0.080679,-0.739662,2.244930,1.622190,1.358744,-0.688075,-0.242038,-1.058594,0.500488,0.191895,0.084459,-0.080627,0.000550,0.999970,0.006794,-0.003440,-0.001210,0.235823,-0.669754,0.156669,-0.686492
48797,NaN,8.256487,-6.735485,-0.460521,-1.173650,1.205208,0.719090,0.956930,-0.351990,-0.115255,-1.054443,0.504883,0.193848,0.082534,-0.067380,-0.004782,0.999987,0.004785,-0.001760,-0.000576,0.238904,-0.669914,0.152580,-0.686192
48798,NaN,7.759141,-5.878099,-0.441097,-1.088884,0.759633,-0.159290,0.801252,-0.228920,-0.155608,-1.060547,0.500488,0.189697,0.077551,-0.058823,-0.004558,0.999991,0.004006,-0.001145,-0.000778,0.240421,-0.669519,0.149919,-0.686634
48799,NaN,7.121430,-5.371822,-0.492952,-1.108368,0.675559,-0.973607,0.562667,-0.138398,-0.154165,-1.058594,0.504883,0.191895,0.071176,-0.053759,-0.005031,0.999996,0.002813,-0.000692,-0.000771,0.241877,-0.669429,0.147303,-0.686777
48800,NaN,6.277451,-5.434686,-0.752965,-1.398279,1.150992,-1.674556,0.020784,0.052805,-0.030624,-1.064941,0.504883,0.189697,0.062764,-0.054356,-0.007552,1.000000,0.000104,0.000264,-0.000153,0.240994,-0.668922,0.148088,-0.687412
48801,NaN,6.059818,-5.403462,-0.707436,-1.346810,1.248211,-1.872453,-0.503528,0.212337,0.024262,-1.056641,0.509277,0.187500,0.060597,-0.054045,-0.007003,0.999996,-0.002518,0.001062,0.000121,0.239234,-0.668777,0.150154,-0.687719
48802,NaN,6.064185,-5.010091,-0.443132,-1.017932,0.949030,-2.058022,-0.627151,0.221628,0.039578,-1.066895,0.494141,0.191895,0.060647,-0.050103,-0.004341,0.999994,-0.003136,0.001108,0.000198,0.236279,-0.668410,0.153637,-0.688329
48803,NaN,6.642757,-4.576883,0.041253,-0.465831,0.328835,-1.765910,-0.503783,0.125483,0.021431,-1.062744,0.500488,0.191895,0.066433,-0.045761,0.000486,0.999997,-0.002519,0.000627,0.000107,0.234571,-0.668553,0.155589,-0.688335
48804,NaN,7.731582,-4.408318,0.482539,0.007580,-0.349008,-0.906420,-0.277429,-0.024899,-0.005952,-1.062500,0.496338,0.189697,0.077314,-0.044079,0.004896,0.999999,-0.001387,-0.000124,-0.000030,0.232796,-0.668644,0.157453,-0.688426
48805,NaN,8.285591,-4.744950,0.624151,0.126334,-0.342449,-0.251208,-0.015100,-0.157036,-0.055724,-1.054199,0.500488,0.198242,0.082838,-0.047472,0.006310,1.000000,-0.000076,-0.000785,-0.000279,0.232676,-0.669244,0.157134,-0.687956
48806,NaN,8.337324,-5.252837,0.855816,0.307885,0.088706,0.073313,0.252026,-0.234228,-0.125860,-1.062500,0.496338,0.194092,0.083330,-0.052592,0.008590,0.999998,0.001260,-0.001171,-0.000629,0.232506,-0.669557,0.156440,-0.687867
48807,NaN,8.218442,-5.724508,1.513313,0.909858,0.633601,0.255756,0.525749,-0.366962,-0.168922,-1.058594,0.500488,0.193848,0.082108,-0.057354,0.015133,0.999995,0.002629,-0.001835,-0.000845,0.233971,-0.670335,0.153638,-0.687244
48808,NaN,8.306104,-6.334266,1.861995,1.183940,1.159771,0.667507,0.626777,-0.474094,-0.138343,-1.064697,0.494141,0.202393,0.082973,-0.063458,0.018618,0.999992,0.003134,-0.002370,-0.000692,0.235166,-0.671030,0.151364,-0.686662
48809,NaN,8.766075,-6.209722,1.548144,0.893917,0.804944,0.974083,0.639269,-0.552246,-0.088714,-1.050049,0.500488,0.202393,0.087590,-0.062186,0.015525,0.999991,0.003196,-0.002761,-0.000444,0.237421,-0.672234,0.148220,-0.685393
48810,NaN,9.188214,-5.991947,0.831270,0.224739,0.331237,1.180832,0.576975,-0.526592,-0.039571,-1.058594,0.502686,0.200195,0.091848,-0.059962,0.008382,0.999992,0.002885,-0.002633,-0.000198,0.238724,-0.673049,0.146499,-0.684510
48811,NaN,8.987297,-5.906928,0.229293,-0.353802,0.298998,0.934465,0.421108,-0.390176,0.010552,-1.054199,0.504883,0.208740,0.089872,-0.059069,0.002344,0.999996,0.002106,-0.001951,0.000053,0.240462,-0.673870,0.144625,-0.683492
48812,NaN,8.442253,-5.795332,-0.181533,-0.752154,0.436785,0.391917,0.247319,-0.235971,0.043746,-1.056396,0.502686,0.210938,0.084437,-0.057933,-0.001787,0.999999,0.001237,-0.001180,0.000219,0.240760,-0.674031,0.144627,-0.683227
48813,NaN,7.970027,-5.611959,-0.249682,-0.803659,0.514382,-0.108704,0.142275,-0.086271,0.089249,-1.054199,0.502686,0.210938,0.079726,-0.056082,-0.002502,1.000000,0.000711,-0.000431,0.000446,0.241607,-0.674088,0.144337,-0.682934
48814,NaN,7.753631,-5.311709,-0.205357,-0.727068,0.370818,-0.447375,0.079714,-0.002044,0.109276,-1.056396,0.500488,0.208740,0.077565,-0.053074,-0.002074,1.000000,0.000399,-0.000010,0.000546,0.241374,-0.673607,0.145438,-0.683257
48815,NaN,7.578483,-5.181290,-0.073420,-0.588262,0.356645,-0.657836,0.029545,0.103346,0.159529,-1.052246,0.509033,0.202393,0.075826,-0.051752,-0.000781,1.000000,0.000148,0.000517,0.000798,0.241943,-0.673100,0.145998,-0.683436
48816,NaN,7.624692,-4.935300,-0.018608,-0.510696,0.114601,-0.745192,0.005609,0.170397,0.188943,-1.052002,0.496338,0.198242,0.076293,-0.049281,-0.000252,0.999999,0.000028,0.000852,0.000945,0.241666,-0.672078,0.147767,-0.684159
48817,NaN,7.800142,-4.795012,0.143120,-0.338392,-0.096261,-0.662222,-0.093546,0.204651,0.218191,-1.048096,0.511230,0.197998,0.078055,-0.047864,0.001374,0.999999,-0.000468,0.001023,0.001091,0.241946,-0.671327,0.149066,-0.684516
