// Start Time: Unknown
// Update Rate: 100.0Hz
// Filter Profile: human (46.1)
// Firmware Version: 4.4.0
PacketCounter,SampleTimeFine,Acc_X,Acc_Y,Acc_Z,FreeAcc_X,FreeAcc_Y,FreeAcc_Z,Gyr_X,Gyr_Y,Gyr_Z,Mag_X,Mag_Y,Mag_Z,VelInc_X,VelInc_Y,VelInc_Z,OriInc_q0,OriInc_q1,OriInc_q2,OriInc_q3,Quat_q0,Quat_q1,Quat_q2,Quat_q3
37239,NaN,8.823021,-2.499699,5.113090,0.000000,0.000000,0.686694,0.037058,-0.477814,-0.906420,-1.038330,-0.169189,-0.318359,0.087993,-0.025406,0.051337,0.999987,0.000185,-0.002389,-0.004532,-0.381437,-0.373636,0.340473,-0.773938
37240,NaN,8.774734,-2.445788,4.754925,-0.043788,0.711798,0.438043,0.280882,-0.528713,-0.943630,-1.033691,-0.177734,-0.312256,0.087504,-0.024938,0.047746,0.999984,0.001404,-0.002644,-0.004718,-0.356362,-0.390135,0.299637,-0.794367
37241,NaN,9.006671,-2.320360,4.768326,-0.121692,0.718603,0.613655,0.461476,-0.578976,-0.946867,-1.031250,-0.192627,-0.303711,0.089817,-0.023740,0.047889,0.999982,0.002307,-0.002895,-0.004734,-0.358349,-0.394668,0.296983,-0.792227
37242,NaN,9.767815,-2.155856,4.872437,-0.400884,0.811732,1.276832,0.477171,-0.619710,-0.935974,-1.030762,-0.205322,-0.297363,0.097424,-0.022132,0.048974,0.999981,0.002386,-0.003099,-0.004680,-0.360406,-0.399636,0.294298,-0.789802
37243,NaN,10.587192,-2.533875,5.881828,0.117815,0.543855,2.548292,0.335231,-0.640421,-0.850618,-1.028320,-0.216064,-0.286865,0.105574,-0.025887,0.059114,0.999984,0.001676,-0.003202,-0.004253,-0.362147,-0.404014,0.292424,-0.787471
37244,NaN,10.743660,-2.873487,5.631617,0.356427,0.929950,2.613302,0.079919,-0.641613,-0.731730,-1.034424,-0.220215,-0.280762,0.107149,-0.029150,0.056649,0.999988,0.000400,-0.003208,-0.003659,-0.363557,-0.408416,0.292857,-0.784384
37245,NaN,10.642333,-1.896483,5.276087,-0.436407,0.586160,2.193895,-0.112696,-0.647434,-0.648461,-1.025635,-0.232910,-0.278320,0.106190,-0.019280,0.053116,0.999989,-0.000563,-0.003237,-0.003242,-0.365379,-0.411695,0.293148,-0.781709
37246,NaN,10.827431,-1.712675,4.965396,-0.688168,0.659272,2.183670,-0.283445,-0.669218,-0.591786,-1.025391,-0.237305,-0.266113,0.108056,-0.017376,0.050040,0.999989,-0.001417,-0.003346,-0.002959,-0.366279,-0.416047,0.296954,-0.777536
37247,NaN,11.054677,-1.859727,4.707070,-0.676697,0.965640,2.288128,-0.330020,-0.661173,-0.572033,-1.027344,-0.241455,-0.261963,0.110337,-0.018835,0.047467,0.999989,-0.001650,-0.003306,-0.002860,-0.368204,-0.418858,0.298255,-0.774615
37248,NaN,11.258529,-2.364119,4.596522,-0.231459,1.212013,2.514035,-0.269969,-0.649329,-0.565399,-1.022705,-0.252197,-0.261719,0.112368,-0.023897,0.046362,0.999990,-0.001350,-0.003247,-0.002827,-0.368931,-0.425538,0.302837,-0.768828
37249,NaN,11.256599,-2.850520,4.221565,0.107257,1.723059,2.421551,-0.038897,-0.713713,-0.575398,-1.020508,-0.256348,-0.251465,0.112332,-0.028820,0.042622,0.999989,-0.000194,-0.003569,-0.002877,-0.370141,-0.429077,0.303076,-0.766181
37250,NaN,11.027654,-2.835828,3.853450,0.177446,1.672578,2.089831,0.247579,-0.831227,-0.560118,-1.018066,-0.264893,-0.243164,0.110035,-0.028715,0.038957,0.999987,0.001238,-0.004156,-0.002801,-0.367935,-0.438131,0.309129,-0.759674
37251,NaN,10.961049,-2.001873,3.165715,-0.676816,1.703477,1.624643,0.401597,-0.966355,-0.567075,-1.013428,-0.275635,-0.230713,0.109398,-0.020393,0.032145,0.999982,0.002008,-0.004832,-0.002835,-0.367709,-0.443409,0.308134,-0.757121
37252,NaN,10.476654,-1.365265,2.099387,-1.345548,1.770909,0.726922,0.463684,-1.193707,-0.583915,-1.013184,-0.284180,-0.220215,0.104598,-0.014008,0.021586,0.999975,0.002318,-0.005968,-0.002920,-0.363480,-0.455075,0.315805,-0.749038
37253,NaN,10.639114,-1.668729,1.412464,-1.327886,2.453808,0.684163,0.483390,-1.392403,-0.610856,-1.012695,-0.296875,-0.199463,0.106238,-0.017047,0.014824,0.999968,0.002417,-0.006962,-0.003054,-0.362457,-0.462118,0.315125,-0.745499
37254,NaN,10.924248,-2.046256,0.660050,-1.186594,2.957389,0.855257,0.429860,-1.627638,-0.613261,-1.012451,-0.303467,-0.185059,0.109121,-0.020813,0.007444,0.999960,0.002149,-0.008138,-0.003066,-0.357623,-0.478244,0.323828,-0.733841
37255,NaN,11.432929,-1.717278,-0.341698,-1.927087,3.590750,1.011662,0.440576,-1.873899,-0.631428,-1.001465,-0.314209,-0.170654,0.114300,-0.017528,-0.002384,0.999949,0.002203,-0.009369,-0.003157,-0.355834,-0.486906,0.324036,-0.728907
37256,NaN,11.833901,-1.538505,-1.127273,-2.215317,3.706673,1.368832,0.391365,-2.138799,-0.643584,-1.007568,-0.324707,-0.143799,0.118400,-0.015746,-0.010037,0.999936,0.001957,-0.010694,-0.003218,-0.349134,-0.507002,0.335380,-0.713145
37257,NaN,12.116531,-1.040485,-1.909793,-2.896089,3.954467,1.479219,0.229125,-2.471607,-0.647139,-0.998779,-0.335449,-0.119141,0.121355,-0.010777,-0.017611,0.999918,0.001146,-0.012358,-0.003236,-0.346687,-0.517258,0.337210,-0.706075
37258,NaN,12.947516,-0.325346,-2.845656,-3.659071,3.804140,2.351574,0.165169,-2.827350,-0.698988,-1.000488,-0.342041,-0.092285,0.129848,-0.003684,-0.026626,0.999894,0.000826,-0.014136,-0.003495,-0.338923,-0.541544,0.350577,-0.684805
37259,NaN,13.919913,0.066931,-3.120787,-4.042223,3.630700,3.377032,0.206585,-3.131095,-0.778284,-0.989502,-0.356934,-0.055176,0.139666,0.000157,-0.029023,0.999869,0.001033,-0.015655,-0.003891,-0.335495,-0.553908,0.353023,-0.675281
37260,NaN,14.138321,0.334797,-3.710480,-3.896365,3.178465,3.915594,0.269483,-3.412962,-0.844804,-0.982666,-0.367676,-0.026367,0.142001,0.002797,-0.034681,0.999845,0.001347,-0.017064,-0.004224,-0.327410,-0.581873,0.364905,-0.648900
37261,NaN,14.185378,0.558241,-3.903832,-3.848587,2.852152,4.108646,0.242872,-3.739751,-0.880412,-0.973633,-0.384766,0.008789,0.142573,0.005001,-0.036370,0.999815,0.001214,-0.018698,-0.004402,-0.322677,-0.595902,0.367610,-0.636902
37262,NaN,15.368983,1.026337,-3.860452,-3.437146,1.613072,5.605214,0.026323,-3.937820,-0.939992,-0.967285,-0.389160,0.043457,0.154456,0.009543,-0.035567,0.999795,0.000132,-0.019688,-0.004700,-0.315372,-0.623997,0.378449,-0.606585
37263,NaN,15.701296,0.898537,-3.908977,-2.911034,1.218431,6.081338,-0.207655,-4.137218,-0.949669,-0.956055,-0.404297,0.076660,0.157817,0.008199,-0.035839,0.999774,-0.001038,-0.020685,-0.004748,-0.311001,-0.637872,0.382554,-0.591650
37264,NaN,16.298868,-0.088637,-4.043571,-1.137449,0.835729,6.919739,-0.284131,-4.250396,-1.021295,-0.945068,-0.416992,0.111572,0.163791,-0.001776,-0.036958,0.999760,-0.001421,-0.021250,-0.005106,-0.305667,-0.663035,0.391598,-0.560003
37265,NaN,16.471804,-0.337451,-4.366023,-0.547513,0.670391,7.207838,-0.138652,-4.353488,-1.131022,-0.936035,-0.432129,0.146729,0.165593,-0.004338,-0.040059,0.999747,-0.000693,-0.021766,-0.005655,-0.300692,-0.677059,0.394791,-0.543430
37266,NaN,15.871968,0.034777,-4.254121,0.027587,-0.339528,6.614536,-0.163187,-4.486303,-1.179041,-0.916260,-0.449219,0.183838,0.159619,-0.000624,-0.038967,0.999731,-0.000816,-0.022430,-0.005895,-0.294621,-0.698571,0.401489,-0.513813
37267,NaN,15.437534,1.750583,-5.609005,-1.616945,-0.511498,6.616428,-0.366644,-4.548941,-1.314584,-0.896484,-0.470703,0.217041,0.155708,0.016387,-0.052589,0.999718,-0.001833,-0.022743,-0.006572,-0.290064,-0.712158,0.404427,-0.495109
37268,NaN,15.148939,2.503670,-6.024605,-1.665289,-1.191859,6.552114,-0.328886,-4.679574,-1.454313,-0.879395,-0.479248,0.251953,0.153020,0.023832,-0.056717,0.999698,-0.001644,-0.023396,-0.007271,-0.285524,-0.730597,0.408918,-0.466359
37269,NaN,15.250216,2.152451,-5.611964,-0.555373,-1.910255,6.456486,-0.444813,-4.609111,-1.542514,-0.851074,-0.498535,0.281250,0.153901,0.020221,-0.052629,0.999702,-0.002224,-0.023043,-0.007712,-0.281238,-0.743644,0.410778,-0.446274
37270,NaN,14.556543,0.850056,-4.238631,1.751195,-2.659726,5.033000,-0.485872,-4.628805,-1.578539,-0.831299,-0.517822,0.310303,0.146555,0.007249,-0.039020,0.999698,-0.002429,-0.023142,-0.007892,-0.279181,-0.758769,0.413598,-0.418646
37271,NaN,14.059972,-0.077303,-2.864733,3.480871,-3.509655,3.656538,-0.586632,-4.623210,-1.553286,-0.813965,-0.532959,0.341309,0.141200,-0.001946,-0.025383,0.999698,-0.002933,-0.023114,-0.007766,-0.275014,-0.770609,0.415262,-0.397601
37272,NaN,14.069950,-0.195540,-1.479836,4.642343,-4.901261,2.620304,-0.722867,-4.541349,-1.505586,-0.772949,-0.554443,0.368408,0.140967,-0.003062,-0.011590,0.999707,-0.003614,-0.022705,-0.007527,-0.273815,-0.781503,0.417287,-0.374366
37273,NaN,14.251324,0.002638,0.358448,5.611406,-6.818244,1.377304,-1.056770,-4.425127,-1.428439,-0.751221,-0.569336,0.385010,0.142383,-0.000961,0.006739,0.999716,-0.005283,-0.022124,-0.007142,-0.271308,-0.791096,0.419623,-0.352810
37274,NaN,14.250832,0.525584,2.236093,6.068863,-8.680269,-0.007067,-1.366536,-4.364801,-1.302136,-0.738037,-0.588623,0.401855,0.142007,0.004497,0.025431,0.999717,-0.006832,-0.021822,-0.006510,-0.273283,-0.797054,0.421871,-0.334733
37275,NaN,15.200950,1.097498,4.199875,6.825139,-11.149359,-0.925233,-1.804660,-4.166470,-1.304596,-0.711914,-0.607910,0.414551,0.151161,0.010384,0.045058,0.999721,-0.009022,-0.020830,-0.006522,-0.273794,-0.804090,0.425267,-0.312448
37276,NaN,15.542435,1.331714,5.124237,7.100237,-12.193345,-1.417704,-1.882060,-3.892303,-1.329950,-0.681641,-0.627197,0.425293,0.154476,0.012788,0.054133,0.999744,-0.009409,-0.019460,-0.006649,-0.281487,-0.805186,0.426844,-0.300407
37277,NaN,16.639559,1.054741,5.955994,8.201001,-13.461792,-1.753125,-1.896945,-3.343002,-1.537939,-0.664062,-0.644287,0.431641,0.165448,0.009855,0.062235,0.999786,-0.009484,-0.016714,-0.007689,-0.284239,-0.810647,0.428116,-0.280673
37278,NaN,15.979220,-0.099354,6.787802,9.028481,-13.141041,-2.942809,-1.602928,-2.980681,-1.510624,-0.640137,-0.663574,0.436279,0.158746,-0.001638,0.070261,0.999828,-0.008014,-0.014903,-0.007553,-0.296111,-0.807861,0.427638,-0.277136
37279,NaN,15.722947,-1.376577,7.119395,10.160791,-12.815331,-4.129585,-1.418105,-2.585636,-1.409868,-0.612061,-0.680664,0.440674,0.156191,-0.014354,0.073318,0.999866,-0.007090,-0.012928,-0.007049,-0.298224,-0.812251,0.427679,-0.261536
37280,NaN,15.574633,-1.938321,7.765203,10.579192,-12.891087,-4.473169,-1.317462,-2.165358,-1.260799,-0.601074,-0.693359,0.434814,0.154768,-0.019841,0.079461,0.999900,-0.006587,-0.010826,-0.006304,-0.311705,-0.805927,0.427190,-0.266140
37281,NaN,14.899710,-1.791838,8.087630,10.203225,-12.951222,-5.480016,-1.207953,-1.833377,-1.035547,-0.590088,-0.701904,0.433105,0.148153,-0.018193,0.082346,0.999926,-0.006040,-0.009167,-0.005178,-0.314012,-0.808636,0.427450,-0.254539
37282,NaN,14.922566,-1.825669,8.840083,10.180800,-13.448117,-5.379178,-1.255255,-1.466361,-0.755926,-0.585449,-0.716797,0.429199,0.148503,-0.018259,0.089606,0.999946,-0.006276,-0.007332,-0.003780,-0.328563,-0.798657,0.428578,-0.265547
37283,NaN,14.090653,-1.791173,8.477520,9.638537,-12.872659,-5.938084,-1.433060,-1.106691,-0.485857,-0.576660,-0.723145,0.423340,0.140391,-0.017641,0.085680,0.999956,-0.007165,-0.005533,-0.002429,-0.332544,-0.798778,0.430339,-0.257247
37284,NaN,12.932309,-1.264508,8.298923,8.333188,-12.322991,-5.761105,-1.432577,-0.828885,-0.306771,-0.574463,-0.727539,0.413086,0.128958,-0.012246,0.083613,0.999965,-0.007163,-0.004144,-0.001534,-0.348886,-0.784937,0.433593,-0.272303
37285,NaN,11.830532,-1.466411,8.046889,7.864060,-11.594700,-6.559663,-1.328915,-0.606225,-0.144398,-0.570068,-0.729492,0.402832,0.118050,-0.014213,0.080922,0.999973,-0.006645,-0.003031,-0.000722,-0.352975,-0.783736,0.435882,-0.266784
37286,NaN,11.307544,-2.593889,8.850062,8.441883,-11.571838,-7.030863,-0.910346,-0.431307,-0.047231,-0.563477,-0.735840,0.401123,0.112878,-0.025562,0.088861,0.999987,-0.004552,-0.002157,-0.000236,-0.367667,-0.768395,0.439876,-0.284427
37287,NaN,10.692590,-3.286605,9.872314,8.824936,-11.937243,-8.323372,-0.635367,-0.120309,0.057720,-0.567627,-0.742188,0.393066,0.106876,-0.032521,0.098891,0.999995,-0.003177,-0.000602,0.000289,-0.369760,-0.767267,0.441221,-0.282672
37288,NaN,9.561905,-3.813048,10.049868,8.614701,-11.460427,-8.623427,-0.479432,0.210438,0.170570,-0.571777,-0.739990,0.386719,0.095757,-0.037808,0.100489,0.999996,-0.002397,0.001052,0.000853,-0.383481,-0.750175,0.445073,-0.303462
37289,NaN,7.995650,-4.547984,9.517676,8.517913,-10.131260,-9.759465,-0.396594,0.450478,0.314217,-0.569824,-0.739990,0.376465,0.080242,-0.045165,0.095086,0.999994,-0.001983,0.002252,0.001571,-0.385493,-0.748027,0.445987,-0.304870
37290,NaN,6.302074,-5.081908,9.061468,8.141499,-9.007302,-10.298424,-0.230136,0.560589,0.446885,-0.584717,-0.737793,0.374512,0.063388,-0.050574,0.090496,0.999993,-0.001151,0.002803,0.002234,-0.397908,-0.729290,0.450440,-0.326968
37291,NaN,5.129351,-5.660747,8.785441,8.184995,-8.158625,-11.219840,-0.004233,0.663543,0.596394,-0.589111,-0.733643,0.370117,0.051753,-0.056452,0.087684,0.999990,-0.000021,0.003318,0.002982,-0.398440,-0.726846,0.451297,-0.330562
37292,NaN,3.500809,-5.547218,8.425676,7.413436,-7.438018,-11.745346,0.287855,0.729033,0.696628,-0.599609,-0.731445,0.368164,0.035508,-0.055470,0.084048,0.999986,0.001439,0.003645,0.003483,-0.407851,-0.707645,0.456163,-0.353287
37293,NaN,1.698671,-5.207003,8.305168,6.526673,-6.761290,-13.077715,0.694511,0.736248,0.816825,-0.606689,-0.716553,0.369873,0.017505,-0.052287,0.082807,0.999979,0.003473,0.003681,0.004084,-0.405622,-0.705882,0.456315,-0.359135
37294,NaN,0.388051,-5.277920,8.936481,6.355136,-7.100047,-13.943972,0.850349,0.809466,0.854532,-0.615234,-0.708008,0.373779,0.004468,-0.053140,0.089122,0.999974,0.004252,0.004047,0.004273,-0.412071,-0.686911,0.461187,-0.381651
37295,NaN,0.030514,-5.456421,9.224984,6.572432,-7.181083,-14.296709,1.038155,0.885036,0.965573,-0.626221,-0.697266,0.373535,0.000977,-0.055038,0.091962,0.999965,0.005191,0.004425,0.004828,-0.408690,-0.685110,0.460682,-0.389061
37296,NaN,0.186564,-5.945647,9.706217,7.262016,-7.789969,-13.834121,1.157608,1.038334,1.118858,-0.637207,-0.688721,0.371338,0.002703,-0.060003,0.096703,0.999954,0.005788,0.005192,0.005594,-0.413147,-0.666236,0.465470,-0.410823
37297,NaN,0.205507,-6.211170,9.536314,7.631283,-7.532609,-13.631140,1.239208,1.222053,1.308622,-0.652344,-0.676025,0.377197,0.003045,-0.062683,0.094959,0.999941,0.006196,0.006110,0.006543,-0.409152,-0.663200,0.464732,-0.420458
37298,NaN,0.304104,-6.138797,8.873675,7.544939,-7.137877,-12.751832,1.351364,1.373191,1.455119,-0.665771,-0.654785,0.378662,0.004098,-0.061958,0.088294,0.999927,0.006757,0.006866,0.007275,-0.411889,-0.644442,0.469447,-0.441204
37299,NaN,0.488945,-7.012089,8.210801,8.435965,-6.294654,-12.268369,1.587239,1.536483,1.599998,-0.683350,-0.635498,0.376221,0.006081,-0.070724,0.081505,0.999907,0.007936,0.007682,0.008000,-0.406814,-0.640505,0.467892,-0.453136
37300,NaN,0.937556,-7.209412,7.502987,8.588958,-5.801756,-11.120699,1.666946,1.684768,1.793134,-0.702881,-0.620605,0.377930,0.010653,-0.072624,0.074340,0.999890,0.008334,0.008424,0.008965,-0.407511,-0.622009,0.472498,-0.473060
37301,NaN,1.706257,-6.745652,6.761114,8.163164,-5.241550,-9.903317,1.879140,1.865131,1.997086,-0.722900,-0.597168,0.377441,0.018365,-0.067908,0.066807,0.999863,0.009395,0.009325,0.009985,-0.401294,-0.616622,0.470399,-0.487304
37302,NaN,2.362835,-6.377159,6.799502,7.794632,-5.528820,-8.739987,2.013336,2.052649,2.132197,-0.742676,-0.571533,0.378906,0.025003,-0.064188,0.067098,0.999840,0.010066,0.010263,0.010660,-0.400472,-0.597571,0.475033,-0.506828
37303,NaN,2.956205,-6.597072,6.482113,7.999660,-5.115961,-7.787964,2.081022,2.245998,2.289916,-0.756348,-0.541748,0.372314,0.031040,-0.066288,0.063789,0.999817,0.010404,0.011229,0.011449,-0.393714,-0.590498,0.472017,-0.522974
37304,NaN,4.128823,-7.267529,6.054625,8.372127,-4.696425,-6.023332,2.262120,2.393358,2.433762,-0.778564,-0.514160,0.365479,0.042888,-0.072835,0.059216,0.999790,0.011310,0.011966,0.012168,-0.392021,-0.570572,0.476168,-0.542246
37305,NaN,5.730748,-7.902638,5.759888,8.776601,-4.187520,-3.991643,2.626169,2.564161,2.598313,-0.802979,-0.479980,0.360840,0.059057,-0.079007,0.055812,0.999747,0.013130,0.012820,0.012990,-0.383491,-0.562437,0.471314,-0.560769
37306,NaN,7.112603,-8.511136,5.924651,8.929049,-4.184090,-2.011009,3.018968,2.675456,2.716168,-0.819092,-0.445801,0.360107,0.073054,-0.085000,0.056994,0.999704,0.015093,0.013376,0.013580,-0.379969,-0.541860,0.473951,-0.580846
37307,NaN,9.030497,-8.865016,5.335647,8.648800,-3.214407,0.357538,3.534999,2.791261,2.762542,-0.830811,-0.407715,0.357422,0.092245,-0.088295,0.050515,0.999651,0.017673,0.013955,0.013811,-0.368853,-0.533734,0.465701,-0.601830
37308,NaN,11.257836,-9.450709,5.599264,8.313761,-3.066352,3.180650,4.059772,2.958859,2.763832,-0.855469,-0.369385,0.350586,0.114673,-0.094020,0.052394,0.999589,0.020296,0.014792,0.013817,-0.363972,-0.512989,0.465039,-0.622981
37309,NaN,13.508706,-10.565902,5.767671,8.504103,-2.224300,5.999919,4.386080,3.073126,2.745062,-0.877930,-0.331055,0.339600,0.137372,-0.104984,0.053270,0.999547,0.021927,0.015363,0.013723,-0.351155,-0.504783,0.452616,-0.645773
37310,NaN,15.904900,-12.135699,6.249140,8.605319,-1.562583,9.231388,4.616878,3.237336,2.795737,-0.885986,-0.284180,0.328369,0.161691,-0.120469,0.057100,0.999505,0.023081,0.016184,0.013976,-0.346640,-0.482787,0.449609,-0.666790
37311,NaN,18.362596,-14.180136,7.113105,9.274590,-0.522456,12.601400,4.710144,3.326491,2.932670,-0.904297,-0.239502,0.309082,0.186806,-0.140652,0.064719,0.999477,0.023547,0.016630,0.014661,-0.332792,-0.473015,0.434986,-0.690140
37312,NaN,22.662354,-15.918640,7.455045,8.145522,0.900753,17.667449,4.661564,3.391708,3.014696,-0.916260,-0.203125,0.290039,0.230184,-0.157354,0.066984,0.999471,0.023304,0.016956,0.015071,-0.329771,-0.448218,0.432276,-0.709570
37313,NaN,29.891575,-17.461109,6.833967,5.236950,4.085362,24.837292,4.589794,3.553875,2.921846,-0.919678,-0.165039,0.269043,0.302542,-0.171634,0.059022,0.999472,0.022945,0.017766,0.014607,-0.316628,-0.436625,0.416455,-0.731895
37314,NaN,37.873993,-19.447334,5.338436,1.047868,8.544594,32.216653,4.233812,4.018974,2.788482,-0.935791,-0.122314,0.235352,0.382327,-0.190124,0.041669,0.999477,0.021165,0.020091,0.013940,-0.318831,-0.407926,0.413579,-0.748930
37315,NaN,41.317241,-20.272685,2.881409,-2.648771,13.373064,34.231637,3.464746,4.335897,2.694732,-0.940918,-0.096680,0.204346,0.416302,-0.197487,0.016359,0.999524,0.017321,0.021676,0.013472,-0.310489,-0.391447,0.398994,-0.768876
37316,NaN,40.473728,-19.424149,-0.164106,-5.739236,17.097249,31.292439,2.434932,4.474738,2.741275,-0.956787,-0.068848,0.162842,0.407141,-0.188559,-0.013052,0.999582,0.012173,0.022371,0.013704,-0.318536,-0.358439,0.400908,-0.780595
37317,NaN,38.878027,-17.465642,-2.841793,-9.054766,19.505235,27.088483,1.640973,4.501225,3.052568,-0.962158,-0.036865,0.119385,0.390590,-0.168415,-0.038595,0.999597,0.008204,0.022503,0.015261,-0.312577,-0.337222,0.392644,-0.796497
37318,NaN,38.510031,-16.134153,-3.844881,-11.438071,20.927311,24.667061,1.007449,4.493713,3.599141,-0.965576,0.001465,0.075684,0.386912,-0.154163,-0.047918,0.999573,0.005037,0.022465,0.017993,-0.320036,-0.301071,0.399781,-0.804430
37319,NaN,36.962812,-15.316138,-4.586924,-13.057193,21.642605,21.532697,0.687419,4.277874,4.059807,-0.968994,0.039795,0.034180,0.371532,-0.145455,-0.054312,0.999559,0.003437,0.021386,0.020296,-0.311084,-0.276719,0.396106,-0.818385
37320,NaN,33.813469,-13.975578,-5.366964,-13.196912,21.665032,17.086396,0.815524,4.052167,4.260794,-0.968262,0.080322,-0.011475,0.339818,-0.132288,-0.061094,0.999560,0.004077,0.020258,0.021301,-0.314213,-0.242466,0.402792,-0.824766
37321,NaN,30.088033,-11.544708,-5.569883,-13.853928,20.019604,12.018082,1.479603,3.671080,4.229414,-0.967285,0.114258,-0.038818,0.302125,-0.108623,-0.062058,0.999581,0.007397,0.018353,0.021144,-0.302242,-0.221032,0.395882,-0.838494
37322,NaN,27.101066,-9.148719,-6.139410,-14.074829,18.958966,7.452331,2.351909,3.318836,4.062778,-0.959961,0.144043,-0.078125,0.271704,-0.085207,-0.066926,0.999587,0.011758,0.016592,0.020311,-0.301533,-0.194650,0.394389,-0.845959
37323,NaN,23.989678,-6.915897,-6.755955,-14.271977,17.450351,2.859717,3.166480,3.074238,3.827584,-0.950439,0.173828,-0.117432,0.240061,-0.063446,-0.072284,0.999573,0.015830,0.015369,0.019135,-0.288197,-0.178789,0.379919,-0.860604
37324,NaN,20.829388,-4.879251,-7.153768,-13.531619,15.853625,-1.194557,3.620232,2.828171,3.566551,-0.942383,0.190918,-0.152344,0.208057,-0.043740,-0.075303,0.999577,0.018099,0.014139,0.017830,-0.285043,-0.160141,0.370676,-0.869313
37325,NaN,17.968500,-3.054870,-7.499765,-13.000168,13.949960,-4.837978,3.708673,2.596024,3.310026,-0.935059,0.218750,-0.185547,0.179144,-0.026155,-0.077838,0.999607,0.018541,0.012978,0.016548,-0.272387,-0.147945,0.353363,-0.882639
37326,NaN,16.036277,-1.697683,-7.880894,-12.452948,12.706536,-7.455946,3.486532,2.355094,3.078739,-0.927002,0.231445,-0.216553,0.159640,-0.013117,-0.080943,0.999660,0.017431,0.011774,0.015392,-0.267733,-0.134744,0.342798,-0.890311
37327,NaN,15.034062,-0.913842,-8.804559,-12.444136,12.225421,-9.711836,2.821745,2.111624,2.888071,-0.914795,0.246338,-0.243164,0.149498,-0.005717,-0.089724,0.999740,0.014108,0.010557,0.014439,-0.256526,-0.124135,0.329267,-0.900204
37328,NaN,14.673316,-0.102918,-10.719284,-12.766831,12.703819,-12.221693,1.683597,1.872044,2.712741,-0.909180,0.267578,-0.268066,0.145709,0.001862,-0.108552,0.999829,0.008418,0.009360,0.013563,-0.250913,-0.113576,0.325483,-0.904546
37329,NaN,14.010115,1.193085,-11.958725,-13.058744,12.118477,-14.639998,1.161990,1.517309,2.476804,-0.896729,0.278320,-0.282715,0.139021,0.014356,-0.120566,0.999878,0.005810,0.007586,0.012384,-0.241490,-0.104126,0.319691,-0.910296
37330,NaN,11.989438,2.213424,-13.550258,-11.947223,11.468632,-17.426023,1.732296,1.225483,2.317600,-0.890869,0.293213,-0.299316,0.118786,0.024692,-0.136026,0.999877,0.008661,0.006127,0.011588,-0.233962,-0.098992,0.315111,-0.914422
37331,NaN,8.964501,3.470649,-14.660113,-10.020578,9.848819,-20.296102,1.333746,0.639413,1.918165,-0.886963,0.301514,-0.309570,0.088832,0.036539,-0.146646,0.999927,0.006669,0.003197,0.009591,-0.225522,-0.094598,0.309191,-0.919017
37332,NaN,7.240899,4.134260,-14.525407,-8.919986,8.489626,-21.164477,1.201366,0.135664,1.444107,-0.889160,0.305908,-0.315674,0.072005,0.042735,-0.145049,0.999956,0.006007,0.000678,0.007220,-0.218745,-0.096305,0.307218,-0.921137
37333,NaN,6.451694,4.314026,-13.781536,-8.344359,7.416063,-21.016953,1.020494,-0.278493,1.087862,-0.883057,0.308105,-0.315674,0.064470,0.044193,-0.137502,0.999971,0.005102,-0.001392,0.005439,-0.212809,-0.097029,0.303338,-0.923734
37334,NaN,6.825981,4.102062,-13.172304,-8.731711,7.207039,-20.240711,0.755140,-0.612685,0.827808,-0.889404,0.310059,-0.309814,0.068491,0.041800,-0.131357,0.999980,0.003776,-0.003063,0.004139,-0.206658,-0.103287,0.303431,-0.924421
37335,NaN,7.647023,4.365323,-12.787671,-9.666346,6.921412,-19.798242,0.473115,-0.821914,0.613309,-0.891602,0.312256,-0.305664,0.076860,0.044190,-0.127457,0.999984,0.002366,-0.004110,0.003067,-0.202328,-0.106642,0.302405,-0.925334
37336,NaN,7.632076,5.322172,-12.515761,-10.270709,5.953071,-19.926551,0.244405,-0.916315,0.427050,-0.891602,0.314453,-0.297607,0.076779,0.053538,-0.124741,0.999986,0.001222,-0.004582,0.002135,-0.196126,-0.115274,0.304286,-0.925017
37337,NaN,7.467865,5.879269,-12.172093,-10.434030,5.235362,-19.922835,0.065825,-0.990676,0.152758,-0.897949,0.312256,-0.293457,0.075235,0.058890,-0.121330,0.999987,0.000329,-0.004953,0.000764,-0.193872,-0.119686,0.305038,-0.924684
37338,NaN,7.165493,6.186498,-12.082881,-10.531083,4.776874,-19.906694,-0.156014,-1.021776,-0.141281,-0.891602,0.310059,-0.279053,0.072315,0.061720,-0.120509,0.999986,-0.000780,-0.005109,-0.000706,-0.187814,-0.130684,0.307467,-0.923640
37339,NaN,6.600117,6.225729,-11.719677,-10.097797,4.412215,-19.724105,-0.298887,-1.080180,-0.516070,-0.906006,0.301514,-0.268799,0.066793,0.061911,-0.116930,0.999981,-0.001494,-0.005401,-0.002580,-0.188728,-0.136182,0.309519,-0.921973
37340,NaN,6.578046,5.729539,-10.845346,-10.012767,4.157056,-18.540750,-0.487933,-1.189379,-0.952004,-0.918701,0.297363,-0.250244,0.066695,0.056715,-0.108197,0.999968,-0.002440,-0.005947,-0.004760,-0.183983,-0.150246,0.311895,-0.919944
37341,NaN,7.183140,4.425122,-10.181015,-9.974885,4.965374,-16.931192,-0.760079,-1.349762,-1.291791,-0.922363,0.286621,-0.237793,0.072799,0.043397,-0.101487,0.999949,-0.003800,-0.006749,-0.006459,-0.188382,-0.157762,0.315647,-0.916510
37342,NaN,8.123323,3.249808,-9.428952,-10.401714,5.495522,-15.013704,-1.071273,-1.463806,-1.530794,-0.932617,0.276123,-0.227539,0.082164,0.031368,-0.093860,0.999930,-0.005356,-0.007319,-0.007654,-0.184590,-0.174514,0.319315,-0.912967
37343,NaN,8.327772,2.847534,-8.554956,-10.254812,5.435980,-13.803574,-1.473963,-1.498415,-1.732955,-0.940674,0.263428,-0.202881,0.084155,0.027120,-0.085124,0.999907,-0.007370,-0.007492,-0.008665,-0.191377,-0.182744,0.325885,-0.907622
37344,NaN,7.737855,3.391512,-7.842561,-10.019813,4.392430,-13.443357,-1.949731,-1.476777,-1.951282,-0.946777,0.254883,-0.188232,0.078277,0.032391,-0.078171,0.999878,-0.009748,-0.007384,-0.009756,-0.189180,-0.200283,0.332026,-0.902140
37345,NaN,7.252369,4.036613,-7.663505,-9.873814,3.964002,-13.607615,-2.413854,-1.483901,-2.217131,-0.958740,0.233643,-0.165527,0.073527,0.038630,-0.076565,0.999838,-0.012069,-0.007419,-0.011085,-0.199104,-0.208342,0.342043,-0.894404
37346,NaN,7.404315,3.973266,-6.998239,-9.939368,3.589646,-12.622190,-2.842669,-1.565952,-2.540356,-0.962402,0.218750,-0.142822,0.075079,0.037789,-0.069944,0.999788,-0.014212,-0.007829,-0.012701,-0.199579,-0.227097,0.350288,-0.886506
37347,NaN,8.831363,3.398133,-6.069118,-10.512038,3.904878,-10.588888,-3.278101,-1.678557,-2.933296,-0.978516,0.193115,-0.113770,0.089298,0.031684,-0.060476,0.999723,-0.016389,-0.008392,-0.014665,-0.213308,-0.236340,0.363065,-0.875687
37348,NaN,11.306505,2.372322,-5.609718,-11.780821,4.684648,-7.771134,-3.659526,-1.796290,-3.352230,-0.983887,0.165527,-0.086670,0.113930,0.020799,-0.055475,0.999652,-0.018296,-0.008980,-0.016759,-0.217670,-0.257032,0.372587,-0.864715
37349,NaN,15.096058,1.161435,-5.276175,-13.611621,6.210778,-4.053502,-3.874584,-2.021204,-3.886377,-0.993164,0.125244,-0.061523,0.151659,0.007667,-0.051405,0.999573,-0.019370,-0.010105,-0.019429,-0.235593,-0.268684,0.386384,-0.850302
37350,NaN,20.082375,-0.934523,-5.364711,-15.631458,8.256291,1.156679,-3.839962,-2.194627,-4.429344,-1.000244,0.086914,-0.036377,0.201107,-0.014796,-0.051192,0.999510,-0.019197,-0.010971,-0.022143,-0.243926,-0.293094,0.393703,-0.836418
37351,NaN,24.923984,-4.472922,-3.758498,-15.361331,10.042808,8.028891,-3.693879,-2.265675,-4.684759,-1.005127,0.042236,-0.007080,0.248489,-0.051205,-0.033861,0.999491,-0.018466,-0.011326,-0.023420,-0.264344,-0.307136,0.404847,-0.819688
37352,NaN,29.827166,-7.360976,-1.750783,-14.895879,10.346514,15.041984,-3.463910,-1.893332,-4.353415,-1.006104,0.006104,0.005859,0.296711,-0.080335,-0.013341,0.999568,-0.017317,-0.009465,-0.021764,-0.272669,-0.330382,0.408382,-0.806054
37353,NaN,32.768252,-9.488074,1.725437,-12.682134,8.851187,20.639034,-4.873801,-2.006077,-4.357751,-1.010742,-0.042725,0.029297,0.325308,-0.101474,0.022945,0.999415,-0.024364,-0.010028,-0.021785,-0.294024,-0.340527,0.423320,-0.786379
37354,NaN,36.613765,-12.612356,5.280432,-9.709140,6.963187,27.394861,-5.712275,-2.019910,-4.508466,-1.000732,-0.083252,0.044189,0.362612,-0.132676,0.060207,0.999287,-0.028555,-0.010097,-0.022537,-0.307427,-0.360451,0.434226,-0.766167
37355,NaN,35.391582,-12.983437,8.578979,-6.129807,3.069957,28.232518,-6.873251,-1.734754,-4.192790,-0.995117,-0.125732,0.053223,0.350346,-0.134082,0.093400,0.999152,-0.034357,-0.008671,-0.020958,-0.331843,-0.365329,0.455293,-0.741029
37356,NaN,32.672151,-14.365648,7.931245,-2.132762,2.455029,26.600637,-7.002611,-1.294228,-3.715033,-0.991943,-0.155518,0.053711,0.323470,-0.146741,0.086516,0.999194,-0.035004,-0.006469,-0.018570,-0.347467,-0.376864,0.469993,-0.718573
37357,NaN,29.655793,-17.287660,6.702242,2.686236,2.930305,24.932604,-6.038612,-0.857901,-3.520233,-0.986572,-0.193848,0.054443,0.293173,-0.175902,0.073566,0.999380,-0.030187,-0.004289,-0.017598,-0.369258,-0.377496,0.486252,-0.696208
37358,NaN,27.634203,-19.655341,8.192327,7.202531,0.880990,24.309095,-3.856343,-0.693474,-3.320222,-0.979004,-0.227783,0.044922,0.272751,-0.199460,0.086701,0.999670,-0.019280,-0.003467,-0.016599,-0.381055,-0.388575,0.489805,-0.681100
37359,NaN,24.162880,-20.725977,9.258908,10.648900,-1.090990,21.563439,-2.413881,-0.399312,-3.020005,-0.976074,-0.249023,0.047119,0.238285,-0.209733,0.095589,0.999811,-0.012069,-0.001996,-0.015099,-0.394979,-0.392660,0.492827,-0.668529
37360,NaN,19.407107,-19.237721,9.529447,11.988052,-2.686650,16.389585,-1.319382,-0.257662,-2.698127,-0.966553,-0.280762,0.041748,0.191334,-0.194335,0.096820,0.999886,-0.006597,-0.001288,-0.013490,-0.403367,-0.401983,0.490076,-0.659947
37361,NaN,16.486705,-16.202804,8.417732,10.600178,-2.801972,12.209108,-0.601527,-0.174114,-2.467449,-0.961670,-0.302002,0.040039,0.162780,-0.163790,0.084811,0.999919,-0.003008,-0.000871,-0.012337,-0.412259,-0.407360,0.487414,-0.653091
37362,NaN,13.045819,-12.666979,6.957184,8.694971,-2.612463,7.409623,-0.391138,0.027178,-2.242909,-0.958740,-0.325439,0.038330,0.129037,-0.127986,0.069804,0.999935,-0.001956,0.000136,-0.011214,-0.419842,-0.413650,0.483723,-0.647023
37363,NaN,9.934163,-11.464534,6.550622,8.754480,-2.913185,3.894926,-0.261353,-0.037329,-2.031236,-0.951660,-0.346680,0.034668,0.098159,-0.115561,0.065675,0.999948,-0.001307,-0.000187,-0.010156,-0.426842,-0.418115,0.480421,-0.642013
37364,NaN,5.810116,-10.798063,6.475526,9.478948,-3.668752,-0.380127,-0.837147,0.018728,-1.961827,-0.940186,-0.370117,0.024902,0.057046,-0.108271,0.065203,0.999943,-0.004186,0.000094,-0.009809,-0.435412,-0.421111,0.479799,-0.634724
37365,NaN,2.449352,-10.980997,6.433202,10.631888,-4.235014,-3.730803,-1.146591,-0.200763,-2.000688,-0.937500,-0.389160,0.023193,0.023331,-0.109676,0.064985,0.999933,-0.005733,-0.001004,-0.010003,-0.443665,-0.424025,0.479632,-0.627150
37366,NaN,1.097530,-11.715257,6.770361,11.709740,-4.924867,-5.026398,-1.339287,-0.482559,-2.040452,-0.930420,-0.408447,0.025635,0.009618,-0.116798,0.068511,0.999923,-0.006696,-0.002413,-0.010202,-0.453081,-0.426208,0.482422,-0.616712
37367,NaN,0.452917,-12.375441,7.058347,12.521182,-5.440922,-5.715986,-1.450061,-0.653399,-1.939963,-0.923584,-0.429688,0.026123,0.003099,-0.123273,0.071490,0.999921,-0.007250,-0.003267,-0.009700,-0.460542,-0.429586,0.484203,-0.607376
37368,NaN,-0.807558,-12.610405,7.318426,12.937341,-6.202490,-7.096324,-1.339355,-0.735743,-1.748399,-0.914551,-0.442383,0.020264,-0.009446,-0.125532,0.073993,0.999933,-0.006697,-0.003679,-0.008742,-0.469059,-0.430362,0.489099,-0.596284
37369,NaN,-2.520625,-12.201921,7.870568,12.829322,-7.205718,-8.997100,-1.191573,-0.741234,-1.419559,-0.912109,-0.455078,0.022461,-0.026362,-0.121363,0.079334,0.999950,-0.005958,-0.003706,-0.007098,-0.474019,-0.433229,0.491312,-0.588414
37370,NaN,-4.469356,-11.091278,8.350846,11.910528,-8.304226,-11.192091,-1.079953,-0.678525,-1.021942,-0.907471,-0.463623,0.020508,-0.045542,-0.110229,0.083951,0.999967,-0.005400,-0.003393,-0.005110,-0.480358,-0.431451,0.497585,-0.579237
37371,NaN,-6.063299,-9.081334,7.990371,10.088759,-8.326413,-13.271853,-0.933826,-0.663150,-0.619993,-0.905273,-0.465820,0.018555,-0.061179,-0.090250,0.080124,0.999979,-0.004669,-0.003316,-0.003100,-0.482509,-0.432664,0.500535,-0.573979
37372,NaN,-6.859834,-7.219118,7.626045,8.210218,-8.264123,-14.463003,-0.503958,-0.595533,-0.329382,-0.907227,-0.472168,0.028809,-0.068944,-0.071886,0.076237,0.999991,-0.002520,-0.002978,-0.001647,-0.485813,-0.429728,0.506575,-0.568068
37373,NaN,-7.447914,-6.652765,7.803109,7.721371,-8.505211,-15.166268,0.029606,-0.406723,-0.042998,-0.907227,-0.472168,0.031006,-0.074652,-0.066523,0.077870,0.999998,0.000148,-0.002034,-0.000215,-0.484840,-0.431065,0.507387,-0.567161
37374,NaN,-8.354618,-7.453845,7.833713,8.606812,-8.687855,-15.909392,0.549559,-0.240668,0.265742,-0.909424,-0.465820,0.036865,-0.083541,-0.074864,0.078031,0.999995,0.002748,-0.001203,0.001329,-0.484854,-0.428179,0.510510,-0.566533
37375,NaN,-8.817320,-8.383722,7.995822,9.696379,-8.808369,-16.165272,1.086211,-0.125640,0.598705,-0.913818,-0.465820,0.045166,-0.087971,-0.084533,0.079445,0.999981,0.005431,-0.000628,0.002994,-0.480502,-0.429634,0.509010,-0.570475
37376,NaN,-8.582807,-8.554691,7.999702,9.902774,-8.778406,-15.788622,1.562487,-0.015604,0.903636,-0.920166,-0.461670,0.055176,-0.085445,-0.086555,0.079317,0.999959,0.007812,-0.000078,0.004518,-0.477084,-0.426741,0.509885,-0.574717
37377,NaN,-8.022226,-8.389290,8.150890,9.845685,-8.708275,-15.141244,1.913732,0.049451,1.192430,-0.929199,-0.450928,0.054932,-0.079697,-0.085144,0.080718,0.999936,0.009568,0.000247,0.005962,-0.469670,-0.428098,0.506781,-0.582507
37378,NaN,-7.023827,-7.961728,8.148114,9.380079,-8.551437,-14.054438,2.087013,0.146861,1.467172,-0.936035,-0.431885,0.072998,-0.069588,-0.080974,0.080692,0.999918,0.010435,0.000734,0.007336,-0.463992,-0.424184,0.506791,-0.589867
37379,NaN,-5.786124,-7.446843,8.296987,8.857975,-8.400895,-12.766633,2.175006,0.276660,1.707751,-0.945068,-0.416992,0.074707,-0.057103,-0.075855,0.082229,0.999903,0.010875,0.001383,0.008538,-0.454999,-0.424047,0.503309,-0.599867
37380,NaN,-4.731659,-7.228289,8.310343,8.539252,-8.232726,-11.542345,2.164385,0.459954,1.922909,-0.952148,-0.397949,0.084717,-0.046423,-0.073627,0.082419,0.999893,0.010822,0.002300,0.009614,-0.448590,-0.417924,0.502969,-0.609203
37381,NaN,-4.003060,-7.194018,7.927992,8.501582,-7.589094,-10.678684,2.129445,0.666924,2.126355,-0.961182,-0.376465,0.082275,-0.038994,-0.073198,0.078636,0.999881,0.010647,0.003334,0.010631,-0.439288,-0.415273,0.499371,-0.620647
37382,NaN,-3.559669,-7.423131,7.467922,8.655180,-6.971233,-9.963599,2.188806,0.801619,2.306714,-0.970459,-0.351074,0.087891,-0.034434,-0.075445,0.073998,0.999866,0.010944,0.004008,0.011533,-0.432479,-0.406890,0.498514,-0.631574
37383,NaN,-2.481567,-8.026004,6.741081,8.986931,-5.818279,-8.634456,2.323495,0.897566,2.413676,-0.979736,-0.327637,0.091553,-0.023538,-0.081326,0.066578,0.999850,0.011617,0.004488,0.012068,-0.422303,-0.403004,0.494073,-0.644313
37384,NaN,-0.451111,-9.674824,6.465983,9.858647,-4.845095,-5.948635,2.549064,1.067127,2.571799,-0.993408,-0.302002,0.086914,-0.002919,-0.097606,0.063438,0.999822,0.012745,0.005335,0.012858,-0.414701,-0.393369,0.491668,-0.656922
37385,NaN,1.880904,-11.074959,6.165633,10.303381,-3.594209,-3.096412,2.617338,1.177936,2.781944,-1.000732,-0.274414,0.086426,0.020711,-0.111264,0.060084,0.999800,0.013086,0.005889,0.013909,-0.403230,-0.388011,0.486004,-0.671308
37386,NaN,4.756291,-11.889856,6.495354,9.792368,-2.987642,0.253936,2.707600,1.226297,2.905155,-1.010254,-0.242676,0.089844,0.049682,-0.119049,0.063042,0.999784,0.013537,0.006131,0.014525,-0.395074,-0.376439,0.483285,-0.684577
37387,NaN,8.095378,-13.192784,7.547245,9.528020,-2.616516,4.289666,2.943525,1.291533,2.941743,-1.021973,-0.206299,0.081055,0.083370,-0.131800,0.072999,0.999763,0.014716,0.006457,0.014708,-0.382493,-0.370636,0.476082,-0.699767
37388,NaN,11.566178,-15.611493,9.256978,9.923818,-2.495845,9.118988,3.095619,1.523267,2.975276,-1.029541,-0.174561,0.072266,0.118669,-0.155763,0.089261,0.999741,0.015477,0.007616,0.014875,-0.374632,-0.357690,0.471374,-0.713803
37389,NaN,15.165741,-17.553910,10.607286,9.660961,-1.720330,13.730052,3.116080,1.794014,2.985268,-1.028320,-0.144775,0.063721,0.155198,-0.174850,0.101963,0.999727,0.015579,0.008969,0.014925,-0.362532,-0.349992,0.462104,-0.729750
37390,NaN,19.359701,-18.765701,11.744092,7.992805,-0.220359,18.485690,3.302280,2.043956,2.962783,-1.037842,-0.112793,0.048584,0.197533,-0.186633,0.112348,0.999702,0.016510,0.010219,0.014812,-0.333732,-0.348166,0.445086,-0.754521
37391,NaN,24.732604,-20.108226,12.701811,5.527909,1.567873,24.012706,3.476633,2.287938,2.946916,-1.039062,-0.076660,0.027588,0.251679,-0.199530,0.120678,0.999675,0.017381,0.011438,0.014733,-0.321547,-0.338666,0.433140,-0.770911
37392,NaN,32.407958,-21.430480,13.030468,0.672780,4.679470,30.889507,3.364227,2.602935,3.114383,-1.036133,-0.042725,0.006592,0.329014,-0.211311,0.122472,0.999653,0.016819,0.013013,0.015570,-0.294767,-0.331429,0.416616,-0.793535
37393,NaN,38.446802,-21.976165,11.856251,-4.551305,8.377768,35.024300,2.928744,2.934657,3.237657,-1.041748,-0.004395,-0.024658,0.389629,-0.215131,0.109697,0.999654,0.014642,0.014672,0.016186,-0.283081,-0.317245,0.405893,-0.808994
37394,NaN,40.576061,-21.383627,9.938942,-9.358321,10.998180,34.835554,2.452823,3.128904,3.308648,-1.038574,0.031738,-0.045898,0.410698,-0.208214,0.090413,0.999666,0.012263,0.015643,0.016541,-0.258847,-0.304440,0.393490,-0.827937
37395,NaN,39.934225,-19.939625,8.728215,-12.220767,12.033560,32.305137,2.191298,3.253147,3.456430,-1.029297,0.065918,-0.085205,0.404044,-0.193333,0.078595,0.999658,0.010955,0.016264,0.017280,-0.247516,-0.286907,0.385337,-0.841389
37396,NaN,38.441058,-17.999016,7.885245,-15.097588,11.627838,28.920774,1.986982,3.388685,3.663934,-1.021973,0.102051,-0.122559,0.388873,-0.173621,0.070542,0.999639,0.009934,0.016941,0.018317,-0.222965,-0.271187,0.375613,-0.857706
37397,NaN,36.645160,-15.719179,6.960628,-17.241786,11.211675,25.044634,1.732116,3.501273,3.816137,-1.010498,0.138184,-0.157959,0.370496,-0.150706,0.061819,0.999627,0.008660,0.017504,0.019078,-0.210745,-0.250837,0.369317,-0.869639
37398,NaN,34.129651,-13.309942,5.437193,-19.089051,10.272382,20.208953,1.534003,3.553371,3.886136,-0.990723,0.180664,-0.201660,0.344683,-0.126804,0.047279,0.999624,0.007669,0.017765,0.019428,-0.186871,-0.233100,0.362186,-0.882930
37399,NaN,30.732436,-10.952185,4.165550,-19.320824,9.341952,15.106214,1.316682,3.550979,3.944804,-0.977051,0.212646,-0.238770,0.310074,-0.103671,0.035471,0.999626,0.006583,0.017753,0.019722,-0.174284,-0.211425,0.357519,-0.892807
37400,NaN,27.009515,-8.833115,2.948112,-18.879772,7.815037,10.150189,1.100933,3.421913,3.934636,-0.957275,0.250977,-0.274170,0.272211,-0.083133,0.024368,0.999645,0.005504,0.017108,0.019671,-0.150692,-0.193904,0.352652,-0.902956
37401,NaN,23.554278,-6.549371,1.362990,-18.109129,6.850270,5.172595,0.968406,3.223593,3.859338,-0.935059,0.280518,-0.301270,0.236924,-0.060983,0.009516,0.999672,0.004842,0.016116,0.019295,-0.137965,-0.173213,0.349478,-0.910400
37402,NaN,20.581934,-4.276625,-0.220801,-17.419131,5.435528,0.622581,0.827728,3.028508,3.763442,-0.914795,0.308105,-0.338379,0.206509,-0.038866,-0.005498,0.999700,0.004138,0.015141,0.018815,-0.114937,-0.157765,0.346062,-0.917682
37403,NaN,17.200964,-1.622477,-1.389936,-15.819139,3.805809,-3.841522,0.907495,2.758771,3.604973,-0.896729,0.340088,-0.363525,0.172050,-0.013053,-0.016337,0.999732,0.004537,0.013793,0.018023,-0.102424,-0.139350,0.343064,-0.923254
37404,NaN,14.978887,0.468601,-3.142962,-14.921455,2.730877,-7.733526,1.487781,2.213212,3.348095,-0.869873,0.359131,-0.388184,0.149320,0.007430,-0.033035,0.999771,0.007438,0.011065,0.016739,-0.080683,-0.128462,0.336884,-0.929246
37405,NaN,13.926107,1.468955,-3.985467,-14.388907,2.216086,-9.819534,2.074204,1.772757,3.052084,-0.853271,0.363281,-0.418945,0.138651,0.017229,-0.040916,0.999791,0.010370,0.008863,0.015259,-0.068140,-0.115895,0.328422,-0.934914
37406,NaN,13.329298,1.936633,-4.898241,-14.119997,1.896507,-11.368319,2.391585,1.442087,2.740697,-0.843018,0.378174,-0.439453,0.132649,0.021778,-0.049690,0.999809,0.011957,0.007210,0.013703,-0.049065,-0.109386,0.318003,-0.940479
37407,NaN,13.431052,2.726879,-6.045377,-14.518266,1.663862,-13.099992,2.312726,1.179320,2.457688,-0.819824,0.382568,-0.459961,0.133598,0.029616,-0.060910,0.999840,0.011563,0.005896,0.012288,-0.038111,-0.100483,0.308133,-0.945254
37408,NaN,13.596480,4.216303,-7.781419,-15.127225,0.970654,-15.591778,1.952214,0.984770,2.148621,-0.811523,0.386719,-0.470215,0.135112,0.044379,-0.078055,0.999883,0.009761,0.004924,0.010743,-0.022811,-0.096494,0.299552,-0.948914
37409,NaN,13.131296,5.955812,-9.355374,-14.987591,0.125016,-18.224908,1.709324,0.826881,1.872106,-0.802979,0.384521,-0.486572,0.130356,0.061581,-0.093573,0.999911,0.008546,0.004134,0.009360,-0.014340,-0.089954,0.292225,-0.952002
37410,NaN,11.999905,7.311059,-10.495210,-14.050068,-0.801414,-20.278743,1.619889,0.628838,1.584785,-0.786377,0.390869,-0.498779,0.119081,0.074905,-0.104726,0.999931,0.008099,0.003144,0.007924,-0.002428,-0.088253,0.284890,-0.954486
37411,NaN,10.207952,7.953961,-11.532302,-12.333650,-0.992305,-21.951383,1.489256,0.543766,1.286610,-0.786133,0.386719,-0.506836,0.101248,0.081050,-0.114999,0.999948,0.007446,0.002719,0.006433,0.003594,-0.083840,0.278330,-0.956813
37412,NaN,8.371730,7.954444,-12.359714,-10.566460,-0.811639,-22.996237,1.343731,0.432741,0.935348,-0.777832,0.386719,-0.519043,0.083075,0.080763,-0.123237,0.999964,0.006719,0.002164,0.004677,0.011839,-0.083871,0.271896,-0.958592
37413,NaN,7.620227,7.484430,-12.956665,-9.802759,-0.263472,-23.443245,1.142348,0.327580,0.607370,-0.775391,0.378174,-0.523193,0.075761,0.075814,-0.129260,0.999978,0.005712,0.001638,0.003037,0.014783,-0.081407,0.266690,-0.960224
37414,NaN,7.641441,6.958522,-13.805482,-9.951740,0.384857,-23.891640,0.839281,0.205187,0.251876,-0.769043,0.375977,-0.525146,0.076185,0.070260,-0.137839,0.999990,0.004196,0.001026,0.001259,0.018630,-0.083135,0.262372,-0.961198
37415,NaN,8.625526,6.558682,-13.858403,-10.899837,0.573967,-23.608883,0.583392,0.072197,-0.166495,-0.775146,0.374023,-0.533203,0.086260,0.065919,-0.138423,0.999995,0.002917,0.000361,-0.000832,0.017977,-0.082953,0.259506,-0.962004
37416,NaN,9.091439,6.548464,-13.864493,-11.438084,0.448337,-23.477603,0.185500,0.069520,-0.545296,-0.777100,0.367676,-0.535156,0.091045,0.065365,-0.138616,0.999996,0.000928,0.000348,-0.002726,0.017487,-0.086345,0.257955,-0.962132
37417,NaN,8.727515,6.031786,-13.314992,-11.017810,0.715415,-22.771682,-0.300585,0.003053,-0.910964,-0.779053,0.361328,-0.526855,0.087546,0.059719,-0.133241,0.999988,-0.001503,0.000015,-0.004555,0.012970,-0.087533,0.259006,-0.961814
37418,NaN,8.492510,4.960505,-12.621104,-10.772738,1.400738,-21.560176,-0.777926,-0.079773,-1.296695,-0.785156,0.354980,-0.520752,0.085293,0.048562,-0.126367,0.999971,-0.003890,-0.000399,-0.006483,0.008383,-0.092700,0.261661,-0.960661
37419,NaN,8.249295,3.971120,-11.984243,-10.464430,2.173980,-20.452459,-1.240591,-0.219080,-1.644333,-0.787109,0.350586,-0.514404,0.082943,0.038286,-0.119992,0.999946,-0.006203,-0.001095,-0.008222,0.000196,-0.095953,0.266836,-0.958953
37420,NaN,8.129510,3.040728,-11.092825,-10.278314,2.733800,-19.046223,-1.607823,-0.355481,-1.916223,-0.799561,0.342041,-0.510254,0.081773,0.028733,-0.111019,0.999920,-0.008039,-0.001777,-0.009581,-0.007367,-0.103341,0.273045,-0.956406
37421,NaN,7.950014,2.228758,-9.886583,-9.883872,3.098465,-17.468506,-1.916447,-0.476514,-2.160768,-0.803955,0.344238,-0.493896,0.079963,0.020478,-0.098878,0.999893,-0.009582,-0.002382,-0.010803,-0.018039,-0.108491,0.281082,-0.953361
37422,NaN,8.144111,1.817048,-8.080601,-9.776285,2.721603,-15.463233,-2.314972,-0.588046,-2.380056,-0.813965,0.331543,-0.481445,0.081880,0.016263,-0.080761,0.999858,-0.011574,-0.002940,-0.011900,-0.028120,-0.117534,0.290285,-0.949279
37423,NaN,8.657615,1.980251,-7.173618,-10.147402,2.404058,-14.457204,-2.795964,-0.607028,-2.576099,-0.826660,0.327393,-0.465088,0.087031,0.017681,-0.071730,0.999815,-0.013979,-0.003035,-0.012880,-0.041104,-0.123742,0.302073,-0.944325
37424,NaN,8.812646,2.582970,-6.737281,-10.366278,1.975744,-14.095557,-3.151102,-0.607315,-2.862503,-0.841309,0.325195,-0.446777,0.088679,0.023500,-0.067487,0.999769,-0.015754,-0.003036,-0.014311,-0.054002,-0.133442,0.314620,-0.938239
37425,NaN,9.330790,2.652488,-6.493936,-10.854625,2.196885,-13.500003,-3.459484,-0.702402,-3.287171,-0.851318,0.312500,-0.430176,0.093943,0.023860,-0.065038,0.999709,-0.017296,-0.003512,-0.016434,-0.070610,-0.140937,0.328753,-0.931167
37426,NaN,11.261765,1.574195,-6.246082,-12.411456,3.315337,-11.614214,-3.675522,-1.004463,-3.819015,-0.865479,0.293213,-0.403320,0.113189,0.012440,-0.062142,0.999636,-0.018375,-0.005022,-0.019093,-0.086879,-0.154149,0.342518,-0.922698
37427,NaN,14.699965,-1.458954,-6.069659,-14.621774,6.120398,-7.879018,-3.175796,-1.475224,-4.354813,-0.883789,0.270020,-0.380615,0.147063,-0.018741,-0.059336,0.999610,-0.015877,-0.007375,-0.021771,-0.106856,-0.166975,0.354320,-0.913870
37428,NaN,20.877957,-8.108684,-3.280666,-17.070113,9.773009,1.384287,-2.239048,-2.009474,-4.671380,-0.906006,0.233887,-0.353516,0.207114,-0.086282,-0.029773,0.999614,-0.011194,-0.010046,-0.023354,-0.124236,-0.186903,0.360563,-0.905333
37429,NaN,28.957475,-16.970121,1.037430,-18.973386,13.965807,14.110090,-2.535966,-1.993265,-4.409514,-0.917725,0.210449,-0.330566,0.285605,-0.175853,0.015438,0.999627,-0.012678,-0.009965,-0.022045,-0.142925,-0.202233,0.369025,-0.895821
37430,NaN,35.138260,-21.826572,7.046025,-19.092582,13.378904,25.069769,-4.436805,-1.500769,-4.641551,-0.929688,0.187012,-0.305664,0.345651,-0.224658,0.078006,0.999457,-0.022180,-0.007502,-0.023204,-0.163802,-0.217998,0.384218,-0.882056
37431,NaN,36.436056,-19.536664,8.920693,-18.824618,10.219227,26.651047,-4.883899,-1.650100,-4.800065,-0.947998,0.163818,-0.280762,0.358790,-0.201717,0.097058,0.999380,-0.024414,-0.008249,-0.023995,-0.187019,-0.230363,0.401637,-0.866398
37432,NaN,35.104203,-17.928835,10.467486,-16.139675,7.062936,26.964661,-5.216481,-1.686100,-4.555994,-0.957520,0.131836,-0.255859,0.345955,-0.184345,0.112371,0.999365,-0.026077,-0.008429,-0.022775,-0.207478,-0.246050,0.419288,-0.848887
37433,NaN,32.132816,-18.868047,10.168394,-11.706139,6.581022,26.398970,-5.318569,-1.307253,-4.128966,-0.958740,0.106445,-0.243164,0.316685,-0.192420,0.108849,0.999412,-0.026588,-0.006535,-0.020641,-0.228681,-0.254595,0.437890,-0.831348
37434,NaN,29.068629,-23.661207,11.425209,-4.531198,6.428450,28.570277,-4.630928,-0.969871,-3.708502,-0.968750,0.089355,-0.226562,0.285690,-0.239188,0.121165,0.999548,-0.023151,-0.004849,-0.018540,-0.246963,-0.265317,0.452405,-0.814829
37435,NaN,26.000659,-27.225919,13.519521,1.782323,4.737344,29.863802,-3.615252,-0.734506,-3.459046,-0.972168,0.065918,-0.224121,0.254764,-0.274181,0.141082,0.999680,-0.018074,-0.003672,-0.017293,-0.264110,-0.271590,0.463308,-0.801143
37436,NaN,21.935973,-25.861489,14.194166,5.254894,1.912617,26.520001,-2.665985,-0.625226,-3.315245,-0.975342,0.034180,-0.215332,0.214602,-0.260270,0.146080,0.999769,-0.013329,-0.003126,-0.016575,-0.279784,-0.281266,0.469751,-0.788635
37437,NaN,18.126523,-21.155654,13.746549,5.396890,-0.859546,20.767711,-1.874659,-0.534724,-3.150409,-0.980957,0.010742,-0.214844,0.177545,-0.213069,0.139936,0.999828,-0.009373,-0.002673,-0.015751,-0.293539,-0.288108,0.473382,-0.778934
37438,NaN,14.649313,-16.824641,12.457050,5.139173,-2.402894,15.099666,-1.515429,-0.359723,-3.018075,-0.984131,-0.016846,-0.216553,0.143716,-0.169477,0.126112,0.999856,-0.007577,-0.001799,-0.015090,-0.308216,-0.296140,0.475576,-0.768851
37439,NaN,11.137955,-14.645743,11.115703,6.026297,-2.891218,10.617976,-1.353482,-0.180556,-2.924931,-0.983154,-0.044434,-0.216064,0.109128,-0.147307,0.112251,0.999870,-0.006767,-0.000903,-0.014624,-0.320995,-0.301670,0.476667,-0.760753
37440,NaN,7.892902,-14.173234,10.309150,8.008306,-3.191478,7.366353,-1.460763,-0.052212,-2.937636,-0.976074,-0.069824,-0.209473,0.076816,-0.142113,0.104149,0.999865,-0.007303,-0.000261,-0.014688,-0.333172,-0.309475,0.476952,-0.752156
37441,NaN,4.642399,-14.249159,9.436015,10.154369,-3.309415,4.313381,-1.598066,-0.025091,-2.977363,-0.979248,-0.101807,-0.221191,0.044292,-0.142401,0.095504,0.999857,-0.007990,-0.000125,-0.014886,-0.346735,-0.313969,0.478331,-0.743235
37442,NaN,1.967485,-14.633436,8.933805,12.185811,-3.611342,1.860501,-1.743155,-0.056521,-2.954074,-0.978516,-0.118652,-0.220947,0.017493,-0.145817,0.090616,0.999853,-0.008715,-0.000283,-0.014770,-0.359602,-0.320447,0.479557,-0.733502
37443,NaN,0.065365,-14.982152,8.882674,13.649388,-4.272215,0.126514,-1.914164,-0.133268,-2.891131,-0.975342,-0.148438,-0.226562,-0.001564,-0.148950,0.090255,0.999849,-0.009570,-0.000666,-0.014455,-0.372898,-0.324384,0.482115,-0.723386
37444,NaN,-0.901647,-14.802611,8.668541,14.092073,-4.752464,-1.217682,-2.090891,-0.229122,-2.812999,-0.968506,-0.165527,-0.226074,-0.011189,-0.146962,0.088214,0.999846,-0.010454,-0.001146,-0.014064,-0.385674,-0.329436,0.485207,-0.712251
37445,NaN,-1.505414,-14.372573,8.996190,14.082895,-5.742943,-2.168576,-2.222043,-0.295656,-2.641607,-0.967773,-0.186768,-0.229980,-0.017076,-0.142498,0.091525,0.999850,-0.011110,-0.001478,-0.013207,-0.397967,-0.332569,0.489269,-0.701168
37446,NaN,-2.587083,-13.613486,9.092413,13.892139,-6.694605,-3.741667,-2.465696,-0.275409,-2.322202,-0.967285,-0.205811,-0.235596,-0.027567,-0.134687,0.092553,0.999856,-0.012328,-0.001377,-0.011610,-0.409660,-0.334834,0.494619,-0.689505
37447,NaN,-4.770891,-12.356256,8.859835,13.589315,-7.635650,-6.505184,-2.657759,-0.185955,-1.938095,-0.962646,-0.212158,-0.239746,-0.048979,-0.121901,0.090181,0.999864,-0.013288,-0.000930,-0.009690,-0.420275,-0.334785,0.500854,-0.678552
37448,NaN,-7.458562,-10.620396,7.781571,12.918297,-7.874217,-10.084034,-2.596860,-0.091638,-1.491903,-0.958252,-0.222656,-0.243652,-0.075406,-0.104622,0.079147,0.999888,-0.012984,-0.000458,-0.007459,-0.429722,-0.333296,0.507581,-0.668292
37449,NaN,-9.798116,-9.598254,6.615180,12.741259,-7.698370,-13.018582,-1.873592,-0.007866,-1.051761,-0.958008,-0.224854,-0.249756,-0.098485,-0.094840,0.067040,0.999942,-0.009368,-0.000039,-0.005259,-0.436314,-0.331953,0.512079,-0.661220
37450,NaN,-11.278402,-9.970691,6.514067,13.526866,-8.113613,-14.311597,-1.178659,-0.030708,-0.579122,-0.953613,-0.233398,-0.255615,-0.113081,-0.098994,0.065708,0.999978,-0.005893,-0.000154,-0.002896,-0.440427,-0.330469,0.515443,-0.656607
37451,NaN,-11.625671,-10.315519,6.562102,13.909390,-8.305906,-14.520966,-0.439725,-0.031236,-0.072289,-0.951660,-0.224854,-0.249512,-0.116304,-0.102969,0.065829,0.999998,-0.002199,-0.000156,-0.000361,-0.441310,-0.329794,0.516837,-0.655256
37452,NaN,-11.623726,-10.496452,6.678594,14.067756,-8.432809,-14.381665,0.177555,-0.098911,0.449949,-0.953857,-0.222656,-0.253662,-0.116034,-0.105285,0.066635,0.999997,0.000888,-0.000495,0.002250,-0.439647,-0.328432,0.517684,-0.656389
37453,NaN,-11.059909,-10.407713,6.878188,13.831343,-8.419479,-13.781908,0.657850,-0.151547,0.957588,-0.956299,-0.216309,-0.247803,-0.110150,-0.104831,0.068354,0.999983,0.003289,-0.000758,0.004788,-0.435024,-0.327897,0.517425,-0.659931
37454,NaN,-10.601019,-9.540997,6.950038,12.964884,-8.353102,-13.533801,0.894347,-0.209179,1.434601,-0.960938,-0.205811,-0.245850,-0.105393,-0.096477,0.068960,0.999964,0.004472,-0.001046,0.007173,-0.428661,-0.325524,0.517798,-0.664958
37455,NaN,-9.871575,-8.081671,6.254886,11.501892,-7.490588,-13.483427,1.146666,-0.210329,1.886728,-0.963623,-0.186768,-0.238037,-0.098011,-0.082100,0.061977,0.999939,0.005733,-0.001052,0.009433,-0.419952,-0.323782,0.517479,-0.671582
37456,NaN,-9.282335,-7.197851,5.877776,10.623930,-6.938856,-13.202872,1.503522,-0.187319,2.174336,-0.966309,-0.169678,-0.236328,-0.092085,-0.073421,0.058143,0.999912,0.007517,-0.000937,0.010871,-0.410089,-0.320394,0.516817,-0.679761
37457,NaN,-8.566941,-6.868230,5.885225,10.198002,-6.628861,-12.505009,1.693193,-0.204371,2.417100,-0.971191,-0.150635,-0.226318,-0.084887,-0.070206,0.058175,0.999891,0.008466,-0.001022,0.012085,-0.398589,-0.318285,0.515300,-0.688685
37458,NaN,-7.471571,-6.876998,5.872530,9.852745,-6.188679,-11.301388,1.723674,-0.170881,2.678844,-0.976074,-0.129395,-0.222656,-0.073831,-0.070265,0.058061,0.999873,0.008618,-0.000854,0.013394,-0.386527,-0.313706,0.514370,-0.698290
37459,NaN,-6.680861,-7.250311,5.697713,9.923666,-5.566522,-10.245469,1.727951,-0.072691,2.927413,-0.980957,-0.112305,-0.218994,-0.065754,-0.073959,0.056318,0.999855,0.008639,-0.000363,0.014636,-0.373354,-0.309731,0.512997,-0.708172
37460,NaN,-5.993555,-7.673121,5.622574,10.016300,-5.065541,-9.169250,1.654779,0.009136,3.149145,-0.973389,-0.082520,-0.211182,-0.058710,-0.078124,0.055586,0.999842,0.008273,0.000046,0.015745,-0.360040,-0.302868,0.512344,-0.718433
37461,NaN,-5.155126,-8.036200,5.346078,9.906237,-4.309947,-8.076801,1.788082,0.070219,3.358364,-0.980713,-0.052979,-0.215820,-0.050168,-0.081686,0.052752,0.999819,0.008940,0.000351,0.016791,-0.345384,-0.297183,0.510790,-0.729031
37462,NaN,-4.059279,-8.437000,5.118280,9.574862,-3.546365,-6.716175,1.841817,0.150322,3.542854,-0.977539,-0.023193,-0.214355,-0.039046,-0.085538,0.050428,0.999800,0.009208,0.000752,0.017713,-0.330595,-0.288747,0.509408,-0.740159
37463,NaN,-2.900038,-9.258321,4.557458,9.409011,-2.300882,-5.223804,1.952968,0.191300,3.653285,-0.974365,0.004395,-0.210693,-0.027255,-0.093531,0.044691,0.999785,0.009764,0.000956,0.018265,-0.314673,-0.281906,0.507032,-0.751285
37464,NaN,-1.159618,-10.994945,4.982314,9.492395,-1.582755,-2.435314,2.227790,0.153928,3.630053,-0.975098,0.030029,-0.209229,-0.009554,-0.110681,0.048601,0.999773,0.011138,0.000770,0.018149,-0.298965,-0.273409,0.503902,-0.762857
37465,NaN,1.427582,-13.619325,6.273888,9.576762,-1.101925,1.759904,2.499094,0.136132,3.668661,-0.967773,0.063965,-0.215820,0.016822,-0.136670,0.061022,0.999753,0.012494,0.000681,0.018342,-0.281827,-0.267320,0.499059,-0.774631
37466,NaN,3.896990,-16.701298,7.794500,9.775313,-0.552141,6.279512,2.783804,0.225859,3.747804,-0.962646,0.095703,-0.212158,0.042190,-0.167305,0.075571,0.999727,0.013918,0.001129,0.018737,-0.265133,-0.258550,0.493406,-0.787024
37467,NaN,6.879111,-20.888418,9.726544,10.129084,0.392661,11.991119,3.150847,0.322268,3.795741,-0.954834,0.116943,-0.220703,0.072911,-0.209023,0.093858,0.999695,0.015753,0.001611,0.018977,-0.246839,-0.252022,0.485339,-0.800001
37468,NaN,11.176481,-26.248805,12.347806,9.807398,1.688260,19.635109,3.237644,0.509604,4.038404,-0.949219,0.140381,-0.225342,0.117367,-0.262106,0.118938,0.999662,0.016186,0.002548,0.020190,-0.229220,-0.241431,0.477377,-0.813192
37469,NaN,15.708008,-31.032017,13.458108,8.088418,4.460559,26.315467,3.241573,0.711545,4.377824,-0.942139,0.178467,-0.234131,0.164318,-0.308897,0.128990,0.999623,0.016206,0.003557,0.021886,-0.209122,-0.231719,0.468488,-0.826495
37470,NaN,21.742563,-35.505546,15.114440,4.210079,7.027479,33.710552,3.496948,0.731150,4.691848,-0.930664,0.214600,-0.246826,0.226249,-0.352378,0.144151,0.999565,0.017482,0.003655,0.023456,-0.189335,-0.218291,0.459365,-0.839932
37471,NaN,29.836698,-38.502586,15.456881,-3.116757,10.372237,40.124119,3.684281,0.737566,4.824709,-0.918701,0.239990,-0.269775,0.308132,-0.380418,0.146407,0.999533,0.018419,0.003687,0.024120,-0.166661,-0.207504,0.448248,-0.853370
37472,NaN,38.129524,-39.019085,15.220250,-12.690800,12.861813,43.859856,4.114013,0.834812,4.889469,-0.898438,0.265381,-0.278320,0.391339,-0.383704,0.142645,0.999481,0.020567,0.004173,0.024443,-0.145874,-0.193312,0.435841,-0.866830
37473,NaN,41.224138,-35.367392,13.035355,-20.104712,13.676579,40.468476,3.985706,0.989364,4.933266,-0.886719,0.293213,-0.303223,0.421452,-0.345831,0.121339,0.999485,0.019925,0.004946,0.024662,-0.122725,-0.181087,0.422392,-0.879620
37474,NaN,38.316131,-30.776716,9.441902,-22.451205,14.114517,32.620578,3.516192,1.146999,4.975541,-0.866699,0.329102,-0.326416,0.391197,-0.299672,0.086874,0.999520,0.017578,0.005734,0.024874,-0.102519,-0.165310,0.411482,-0.890418
37475,NaN,33.766977,-25.215568,4.937146,-23.125398,13.886053,22.933805,2.873532,1.273755,5.092737,-0.848633,0.358887,-0.343018,0.344245,-0.244099,0.043647,0.999552,0.014366,0.006368,0.025460,-0.080049,-0.150567,0.402064,-0.899592
37476,NaN,29.355652,-19.840484,2.047769,-22.683791,12.239796,14.577880,2.302998,1.315346,5.113597,-0.830566,0.386475,-0.359863,0.298620,-0.191016,0.016297,0.999585,0.011513,0.006576,0.025564,-0.060045,-0.133813,0.395751,-0.906570
37477,NaN,25.921074,-15.499673,0.983137,-21.858884,9.662062,8.672854,1.846121,1.251305,5.107577,-0.808594,0.424561,-0.382812,0.263106,-0.148382,0.006803,0.999612,0.009229,0.006256,0.025535,-0.038115,-0.118543,0.390273,-0.912240
37478,NaN,22.924315,-11.265075,0.485277,-20.668424,6.715930,3.612098,1.435098,1.054688,5.012747,-0.784180,0.452148,-0.399658,0.231989,-0.106884,0.002853,0.999646,0.007175,0.005273,0.025061,-0.018008,-0.103602,0.387177,-0.915989
37479,NaN,20.213594,-7.186565,-1.127727,-19.384899,4.605156,-1.785801,1.188278,0.747944,4.813030,-0.761963,0.486084,-0.416504,0.203741,-0.066903,-0.012445,0.999686,0.005941,0.003739,0.024063,0.003206,-0.090939,0.384041,-0.918821
37480,NaN,18.140550,-3.710181,-2.586798,-18.143905,2.817741,-6.301360,1.324184,0.448588,4.590533,-0.739502,0.509521,-0.425049,0.182132,-0.032753,-0.026502,0.999712,0.006620,0.002243,0.022950,0.023266,-0.080260,0.380641,-0.920939
37481,NaN,16.786291,-0.587949,-3.575460,-17.146770,0.902465,-9.993342,1.464857,0.189792,4.310972,-0.719238,0.536865,-0.435547,0.167900,-0.001998,-0.035938,0.999740,0.007324,0.000949,0.021553,0.043335,-0.070996,0.375551,-0.923062
37482,NaN,15.717727,1.772669,-4.772627,-16.189735,-0.338218,-13.084778,1.207245,0.000390,3.948512,-0.705078,0.553955,-0.444092,0.156783,0.021112,-0.047606,0.999787,0.006036,0.000002,0.019741,0.062102,-0.064310,0.371876,-0.923967
37483,NaN,14.890160,3.359672,-5.816607,-15.308287,-1.075411,-15.408266,0.449546,-0.149745,3.532959,-0.693115,0.577148,-0.444336,0.148319,0.036351,-0.057975,0.999841,0.002248,-0.000749,0.017664,0.078835,-0.058288,0.370831,-0.923511
37484,NaN,14.275394,5.160880,-7.099030,-14.570807,-1.786441,-17.893461,0.388214,-0.320485,2.997989,-0.674805,0.598389,-0.448730,0.142071,0.053879,-0.070659,0.999884,0.001941,-0.001602,0.014989,0.094408,-0.055756,0.370186,-0.922465
37485,NaN,13.063848,6.598275,-7.990358,-13.155476,-2.274844,-19.802229,0.851784,-0.446639,2.427498,-0.660156,0.600342,-0.450684,0.130000,0.067902,-0.079326,0.999915,0.004259,-0.002233,0.012137,0.106659,-0.052922,0.366693,-0.922691
37486,NaN,11.616251,7.391387,-8.503772,-11.548889,-2.523741,-20.863765,1.179983,-0.590793,1.942150,-0.656006,0.604736,-0.460938,0.115684,0.075537,-0.084253,0.999931,0.005900,-0.002954,0.009711,0.118877,-0.053750,0.361733,-0.923108
37487,NaN,9.813617,7.896809,-8.937265,-9.643920,-2.423557,-21.630250,1.224060,-0.673209,1.455981,-0.654053,0.611084,-0.458984,0.097854,0.080225,-0.088555,0.999949,0.006120,-0.003366,0.007280,0.127137,-0.053500,0.356057,-0.924228
37488,NaN,9.132911,8.313269,-8.804590,-8.802543,-2.911146,-21.815939,0.808910,-0.795239,0.965955,-0.645752,0.613281,-0.463135,0.091273,0.083928,-0.087345,0.999972,0.004045,-0.003976,0.004830,0.135731,-0.057628,0.352242,-0.924219
37489,NaN,9.156454,8.644518,-8.636526,-8.677633,-3.421117,-21.901994,0.295693,-0.753122,0.534350,-0.658203,0.608887,-0.463135,0.091657,0.086817,-0.085892,0.999988,0.001478,-0.003766,0.002672,0.139609,-0.059972,0.350516,-0.924149
37490,NaN,8.920224,8.801998,-8.846784,-8.491634,-3.470422,-22.107366,-0.277414,-0.696875,0.121531,-0.662842,0.617432,-0.448975,0.089457,0.087952,-0.088278,0.999993,-0.001387,-0.003484,0.000608,0.144322,-0.066182,0.351364,-0.922678
37491,NaN,8.634696,8.672172,-9.035380,-8.363385,-3.160594,-22.119830,-0.772031,-0.635013,-0.281890,-0.666992,0.619629,-0.440918,0.086756,0.086251,-0.090412,0.999987,-0.003860,-0.003175,-0.001409,0.143878,-0.070170,0.354370,-0.921302
37492,NaN,8.245323,8.371220,-9.051802,-8.205054,-2.817653,-21.843178,-1.029374,-0.557929,-0.695498,-0.675537,0.621826,-0.432861,0.082995,0.082958,-0.090715,0.999977,-0.005147,-0.002790,-0.003477,0.144755,-0.078044,0.358289,-0.919013
37493,NaN,7.989460,7.753323,-8.832465,-8.200504,-2.329810,-21.182682,-1.146279,-0.469604,-1.177464,-0.683838,0.617432,-0.424561,0.080555,0.076553,-0.088577,0.999963,-0.005731,-0.002348,-0.005887,0.139732,-0.083146,0.362744,-0.917594
37494,NaN,7.630312,7.046851,-8.454303,-8.113284,-1.912009,-20.294454,-1.191487,-0.363004,-1.670905,-0.698486,0.609131,-0.416260,0.077039,0.069322,-0.084819,0.999946,-0.005957,-0.001815,-0.008354,0.136008,-0.092282,0.366881,-0.915633
37495,NaN,7.278988,6.349174,-7.824510,-7.944941,-1.571054,-19.242451,-1.178419,-0.309340,-2.227006,-0.708496,0.596191,-0.403809,0.073609,0.062213,-0.078501,0.999919,-0.005892,-0.001547,-0.011135,0.125824,-0.098585,0.371009,-0.914769
37496,NaN,7.432313,5.313500,-7.051673,-8.273908,-1.324423,-17.748512,-1.253611,-0.299811,-2.758622,-0.725098,0.585693,-0.395508,0.075148,0.051659,-0.070731,0.999884,-0.006268,-0.001499,-0.013793,0.117120,-0.109657,0.374590,-0.913204
37497,NaN,7.758198,4.326370,-6.323497,-8.710316,-1.019606,-16.291334,-1.412021,-0.285548,-3.200545,-0.751953,0.564453,-0.385010,0.078347,0.041567,-0.063421,0.999846,-0.007060,-0.001428,-0.016002,0.102247,-0.117773,0.379058,-0.912135
37498,NaN,7.908711,3.690340,-5.534892,-8.885553,-1.014910,-14.990002,-1.672054,-0.267355,-3.576541,-0.768555,0.551758,-0.370605,0.079799,0.035017,-0.055541,0.999804,-0.008360,-0.001337,-0.017882,0.089527,-0.130543,0.383589,-0.909837
37499,NaN,8.212543,3.436802,-5.046701,-9.218603,-0.977222,-14.145314,-2.112917,-0.188954,-3.932450,-0.788818,0.526367,-0.354004,0.082821,0.032209,-0.050737,0.999750,-0.010564,-0.000945,-0.019661,0.070598,-0.139866,0.390455,-0.907193
37500,NaN,8.447553,3.322925,-4.926993,-9.581459,-0.817492,-13.578760,-2.556009,-0.049340,-4.305898,-0.807129,0.503174,-0.343262,0.085168,0.030767,-0.049653,0.999687,-0.012779,-0.000247,-0.021527,0.053467,-0.153419,0.397885,-0.902935
37501,NaN,8.800107,3.037794,-4.930795,-10.058583,-0.311969,-12.924220,-3.093128,0.015923,-4.659558,-0.833740,0.481934,-0.324707,0.088661,0.027550,-0.049756,0.999609,-0.015464,0.000080,-0.023295,0.030006,-0.163391,0.408123,-0.897685
37502,NaN,9.890159,2.584753,-5.647773,-11.402900,0.630825,-12.247581,-3.357033,0.058093,-4.976620,-0.854004,0.452148,-0.310059,0.099472,0.022424,-0.056902,0.999550,-0.016783,0.000290,-0.024879,0.008853,-0.177905,0.417691,-0.890958
37503,NaN,11.606556,1.699824,-5.568762,-12.891753,1.394264,-10.455740,-3.492436,-0.002512,-5.442675,-0.880371,0.420410,-0.293213,0.116454,0.012857,-0.055935,0.999477,-0.017459,-0.000013,-0.027209,-0.018497,-0.189351,0.428188,-0.883436
37504,NaN,14.600812,0.048037,-5.535544,-15.224365,2.453008,-7.375893,-2.977111,-0.198570,-6.055576,-0.906250,0.373779,-0.280273,0.145972,-0.004762,-0.055166,0.999430,-0.014883,-0.000993,-0.030272,-0.043661,-0.207120,0.433857,-0.875765
37505,NaN,20.316788,-3.615537,-5.548379,-19.033497,4.861040,-1.414570,-1.914793,-0.585836,-6.900237,-0.931885,0.314453,-0.262939,0.201908,-0.043662,-0.054497,0.999355,-0.009572,-0.002929,-0.034494,-0.074555,-0.224107,0.434944,-0.868931
37506,NaN,31.879076,-13.442972,-4.247908,-24.493484,9.850174,12.936945,0.172250,-0.791462,-7.325355,-0.950928,0.252930,-0.260010,0.313750,-0.145949,-0.041353,0.999321,0.000861,-0.003956,-0.036618,-0.100420,-0.247799,0.424124,-0.865234
37507,NaN,45.155754,-26.991016,7.346664,-24.436112,10.145390,36.236408,-0.747174,-0.126431,-6.509691,-0.963867,0.195557,-0.246826,0.442416,-0.284133,0.074792,0.999463,-0.003735,-0.000632,-0.032543,-0.129184,-0.261650,0.419129,-0.859757
37508,NaN,47.191772,-30.701258,8.731733,-20.710868,12.366702,41.788853,-3.225846,-0.256367,-7.065418,-0.970459,0.140381,-0.239746,0.460601,-0.321950,0.093026,0.999245,-0.016125,-0.001282,-0.035318,-0.159225,-0.279920,0.421497,-0.847722
37509,NaN,42.216124,-23.658534,9.816211,-16.662326,7.662862,36.025006,-4.538848,-0.800065,-6.565195,-0.989990,0.093750,-0.226562,0.413734,-0.247924,0.105370,0.999196,-0.022688,-0.003999,-0.032817,-0.191585,-0.293314,0.431843,-0.831128
37510,NaN,38.557042,-22.126086,9.328202,-12.083353,6.697003,33.451950,-4.826955,-0.812840,-5.549599,-0.994873,0.049072,-0.219727,0.378880,-0.229473,0.100304,0.999316,-0.024129,-0.004063,-0.027742,-0.216363,-0.308548,0.442019,-0.814005
37511,NaN,34.614371,-26.896087,10.612022,-3.650178,7.204044,34.555635,-4.531715,-0.420998,-4.633630,-0.991699,0.017334,-0.215088,0.339595,-0.274371,0.113016,0.999473,-0.022655,-0.002105,-0.023164,-0.241167,-0.315446,0.453536,-0.797895
37512,NaN,28.332480,-30.257414,13.058627,5.607304,5.199036,32.965707,-4.002398,-0.256154,-4.087294,-0.992676,-0.014648,-0.218750,0.276927,-0.305578,0.137039,0.999590,-0.020009,-0.001281,-0.020434,-0.260227,-0.325166,0.461063,-0.783562
37513,NaN,20.933041,-28.467514,13.228740,10.654031,2.580132,26.287752,-3.071921,-0.210986,-3.775291,-0.998291,-0.040039,-0.218262,0.203791,-0.286478,0.136896,0.999703,-0.015358,-0.001055,-0.018875,-0.279449,-0.330612,0.467100,-0.770987
37514,NaN,14.748524,-23.984991,12.060198,12.073498,0.511612,18.332030,-1.925105,-0.210545,-3.537847,-1.003418,-0.071777,-0.213623,0.143097,-0.241230,0.123072,0.999797,-0.009625,-0.001053,-0.017688,-0.293657,-0.340419,0.467199,-0.761318
37515,NaN,10.343185,-19.430864,10.537576,11.594954,-0.766916,11.646640,-0.958409,-0.275916,-3.320868,-0.989746,-0.103760,-0.215088,0.100046,-0.195480,0.106450,0.999850,-0.004792,-0.001380,-0.016604,-0.307242,-0.347779,0.465532,-0.753613
37516,NaN,7.279705,-15.561594,9.165770,10.581866,-1.484168,6.464994,-0.338363,-0.357255,-3.182311,-0.990967,-0.131348,-0.210449,0.070146,-0.156591,0.092049,0.999870,-0.001692,-0.001786,-0.015911,-0.317468,-0.358603,0.460476,-0.747382
37517,NaN,5.450371,-13.795224,8.213108,10.345643,-1.593795,3.524383,-0.115281,-0.396968,-3.105436,-0.989746,-0.161133,-0.205811,0.052190,-0.138727,0.082316,0.999877,-0.000576,-0.001985,-0.015527,-0.328328,-0.367020,0.455915,-0.741376
37518,NaN,3.619991,-13.770730,7.903771,11.575535,-1.614482,1.527059,-0.199215,-0.376189,-3.028222,-0.986816,-0.186523,-0.213623,0.033961,-0.138154,0.079240,0.999883,-0.000996,-0.001881,-0.015141,-0.337942,-0.376926,0.450668,-0.735269
37519,NaN,1.314300,-13.777964,7.784212,12.946009,-1.957230,-0.828931,-0.342477,-0.367237,-2.933946,-0.981445,-0.218506,-0.208984,0.010978,-0.137818,0.078100,0.999889,-0.001712,-0.001836,-0.014669,-0.348511,-0.384277,0.446971,-0.728758
37520,NaN,-1.054101,-13.407398,7.692568,13.905457,-2.489831,-3.451140,-0.462738,-0.427127,-2.825570,-0.970215,-0.239746,-0.214600,-0.012597,-0.133727,0.077210,0.999895,-0.002314,-0.002136,-0.014127,-0.358016,-0.392655,0.443268,-0.721914
37521,NaN,-2.686283,-13.267300,8.192562,14.731525,-3.425646,-5.166353,-0.507841,-0.488073,-2.655358,-0.975586,-0.267334,-0.210205,-0.028820,-0.132091,0.082193,0.999906,-0.002539,-0.002440,-0.013276,-0.367485,-0.399366,0.440722,-0.715000
37522,NaN,-3.595643,-12.932196,8.668197,14.996007,-4.280993,-6.335918,-0.620556,-0.544548,-2.440238,-0.964355,-0.288574,-0.203613,-0.037765,-0.128599,0.086981,0.999917,-0.003103,-0.002723,-0.012201,-0.375897,-0.406276,0.438725,-0.707928
37523,NaN,-4.756402,-11.534552,8.889664,14.260209,-5.327372,-8.094987,-0.855901,-0.558585,-2.143917,-0.961914,-0.301514,-0.205322,-0.049043,-0.114444,0.089252,0.999929,-0.004279,-0.002793,-0.010719,-0.383975,-0.411329,0.438421,-0.700828
37524,NaN,-6.671407,-9.207746,8.369669,12.679941,-6.103406,-10.953542,-1.190756,-0.469888,-1.717416,-0.957031,-0.314209,-0.209229,-0.067696,-0.090999,0.084082,0.999943,-0.005954,-0.002349,-0.008587,-0.391348,-0.414686,0.439919,-0.693797
37525,NaN,-9.751045,-7.305309,7.678749,11.747996,-6.747499,-14.697819,-1.259426,-0.300137,-1.153520,-0.954834,-0.318359,-0.213135,-0.098043,-0.072004,0.077096,0.999962,-0.006297,-0.001501,-0.005768,-0.397288,-0.415794,0.442469,-0.688112
37526,NaN,-12.818131,-6.698145,7.122281,11.979687,-7.068170,-17.962669,-0.993377,-0.263447,-0.644969,-0.954834,-0.316406,-0.215332,-0.128490,-0.066213,0.071384,0.999982,-0.004967,-0.001317,-0.003225,-0.401082,-0.416058,0.445188,-0.683986
37527,NaN,-14.113271,-8.097155,7.455784,13.678113,-7.275802,-18.774168,-0.506258,-0.330634,-0.341440,-0.957031,-0.318359,-0.209229,-0.141394,-0.080542,0.074528,0.999994,-0.002531,-0.001653,-0.001707,-0.402567,-0.416941,0.446872,-0.681472
37528,NaN,-13.649947,-10.224867,8.192798,15.611015,-7.295453,-17.626958,0.234346,-0.397803,-0.014083,-0.961182,-0.320557,-0.205078,-0.136669,-0.102335,0.081536,0.999997,0.001172,-0.001989,-0.000070,-0.401466,-0.418382,0.447106,-0.681085
37529,NaN,-12.738087,-11.155502,8.880661,16.369371,-7.392491,-16.367135,1.005921,-0.399536,0.504775,-0.961182,-0.318359,-0.194824,-0.127274,-0.112320,0.087989,0.999982,0.005030,-0.001998,0.002524,-0.396745,-0.420636,0.445533,-0.683490
37530,NaN,-12.028318,-9.847641,9.047261,15.104238,-7.596628,-15.948866,1.625196,-0.304477,1.051773,-0.963623,-0.307861,-0.193115,-0.119897,-0.099837,0.089482,0.999952,0.008126,-0.001522,0.005259,-0.389474,-0.421712,0.443247,-0.688477
37531,NaN,-11.635703,-7.653433,8.771300,13.119133,-7.652226,-16.154470,2.059016,-0.224391,1.479367,-0.970215,-0.299316,-0.182861,-0.115880,-0.078289,0.086783,0.999919,0.010295,-0.001122,0.007397,-0.379514,-0.423192,0.439682,-0.695383
37532,NaN,-10.603339,-6.625342,8.418848,11.979280,-7.229419,-15.418062,2.319879,-0.145056,1.713211,-0.973145,-0.278076,-0.171143,-0.105516,-0.068129,0.083329,0.999896,0.011599,-0.000725,0.008566,-0.368890,-0.423154,0.436057,-0.703360
37533,NaN,-9.561982,-6.966916,8.138357,12.067686,-6.386707,-14.258709,2.420665,-0.061452,1.934411,-0.979980,-0.267578,-0.161133,-0.094959,-0.071568,0.080496,0.999880,0.012103,-0.000307,0.009672,-0.356791,-0.423576,0.431701,-0.711982
37534,NaN,-8.748970,-7.374610,7.601678,12.164101,-5.341652,-13.305561,2.349042,-0.012496,2.190506,-0.989014,-0.244141,-0.155273,-0.086673,-0.075584,0.075131,0.999871,0.011745,-0.000062,0.010952,-0.344675,-0.421669,0.428582,-0.720910
37535,NaN,-7.752860,-7.526183,6.977208,11.877156,-4.259503,-12.303953,2.242192,0.013302,2.434908,-0.990234,-0.214355,-0.151855,-0.076594,-0.076974,0.068921,0.999863,0.011210,0.000067,0.012174,-0.331156,-0.420220,0.425554,-0.729832
37536,NaN,-6.438051,-7.850211,6.401166,11.525156,-3.162602,-10.909668,2.240481,0.050513,2.682148,-0.993164,-0.188965,-0.137939,-0.063298,-0.080066,0.063137,0.999847,0.011202,0.000253,0.013410,-0.317630,-0.416371,0.423597,-0.739129
37537,NaN,-5.107109,-8.235249,5.959304,11.169245,-2.127449,-9.462789,2.290907,0.125065,2.920625,-0.998535,-0.156982,-0.134521,-0.049818,-0.083762,0.058670,0.999828,0.011454,0.000625,0.014602,-0.302281,-0.413300,0.420941,-0.748744
37538,NaN,-3.715389,-8.924047,5.517589,10.905064,-0.985328,-7.817926,2.517755,0.167266,3.097563,-1.006104,-0.120850,-0.128906,-0.035713,-0.090486,0.054072,0.999800,0.012588,0.000836,0.015487,-0.286883,-0.408050,0.418411,-0.759030
37539,NaN,-1.792356,-10.110238,5.613078,10.827292,0.043253,-5.375964,2.732733,0.214128,3.231027,-1.007080,-0.089111,-0.129395,-0.016220,-0.102128,0.054758,0.999776,0.013663,0.001071,0.016154,-0.269433,-0.404316,0.414233,-0.769640
37540,NaN,0.444349,-11.707697,5.668520,10.670249,1.334869,-2.482049,2.953987,0.264355,3.297462,-1.004150,-0.052979,-0.119873,0.006455,-0.117802,0.054941,0.999754,0.014769,0.001322,0.016486,-0.252638,-0.398283,0.410046,-0.780645
37541,NaN,2.580283,-13.389280,6.564289,10.768115,2.067421,0.616043,3.302885,0.286364,3.262741,-0.996826,-0.019043,-0.122559,0.028086,-0.134506,0.063386,0.999730,0.016513,0.001432,0.016312,-0.233849,-0.394550,0.403181,-0.791890
37542,NaN,5.287590,-15.776536,8.351709,11.175095,2.591976,4.848440,3.939869,0.347517,3.118318,-0.987305,0.014893,-0.123047,0.055485,-0.158517,0.080304,0.999683,0.019697,0.001737,0.015590,-0.216086,-0.389069,0.394347,-0.804004
37543,NaN,8.756671,-19.404425,11.162202,12.147881,3.404602,10.645364,4.477334,0.585864,3.078407,-0.979980,0.051025,-0.127686,0.090882,-0.195092,0.106999,0.999627,0.022384,0.002929,0.015390,-0.196081,-0.385346,0.381559,-0.816990
37544,NaN,13.308732,-24.200929,14.318305,12.835167,5.071654,18.064631,4.855399,0.896904,3.183988,-0.968506,0.084961,-0.140625,0.137576,-0.243214,0.136677,0.999569,0.024274,0.004484,0.015918,-0.177546,-0.377646,0.368178,-0.830846
37545,NaN,21.534785,-29.907707,17.396578,10.919629,8.000154,28.621980,5.012398,1.248234,3.494980,-0.948242,0.108154,-0.157227,0.221628,-0.299452,0.165093,0.999514,0.025058,0.006240,0.017472,-0.155782,-0.370303,0.352671,-0.845122
37546,NaN,32.583112,-34.850533,18.049896,4.221600,12.412352,39.476736,5.174258,1.702375,3.700648,-0.934326,0.137939,-0.186279,0.333729,-0.346845,0.168692,0.999458,0.025867,0.008510,0.018500,-0.136264,-0.357613,0.337746,-0.859926
37547,NaN,45.021185,-38.224161,16.846611,-6.467712,17.050399,48.823004,5.413227,2.223800,3.761837,-0.905518,0.159180,-0.213135,0.459108,-0.377944,0.153124,0.999395,0.027061,0.011117,0.018805,-0.114092,-0.345182,0.319482,-0.875079
37548,NaN,51.149169,-35.302713,13.153093,-17.497491,18.244279,48.457523,4.774240,2.490505,3.720819,-0.887207,0.180420,-0.248047,0.519493,-0.346316,0.116773,0.999465,0.023867,0.012450,0.018601,-0.096616,-0.328219,0.305156,-0.888717
37549,NaN,44.907154,-29.126644,8.111160,-20.697883,16.968994,37.237149,3.399867,2.686710,4.078865,-0.864746,0.208008,-0.277100,0.455895,-0.283269,0.070156,0.999557,0.016997,0.013432,0.020391,-0.076975,-0.311565,0.295311,-0.899885
37550,NaN,38.125390,-23.977879,4.554268,-21.314158,15.043007,27.174900,2.118846,2.974848,4.448833,-0.842285,0.229248,-0.310059,0.387063,-0.231636,0.037331,0.999586,0.010593,0.014872,0.022241,-0.060841,-0.290234,0.293025,-0.908955
37551,NaN,34.369746,-20.947097,3.099506,-21.886446,13.040821,21.494617,0.926040,3.012524,4.761148,-0.813721,0.260986,-0.337158,0.348960,-0.201329,0.024820,0.999593,0.004630,0.015061,0.023803,-0.042254,-0.269742,0.294690,-0.915757
37552,NaN,31.447487,-18.812695,2.604595,-21.887688,11.093696,17.521165,-0.044837,2.901948,5.042470,-0.785156,0.294922,-0.358154,0.319417,-0.180109,0.021476,0.999577,-0.000224,0.014508,0.025209,-0.025777,-0.247441,0.302313,-0.920172
37553,NaN,27.514491,-14.853534,2.006219,-20.926699,7.720511,12.185224,-0.638592,2.635498,5.141879,-0.758545,0.322510,-0.378906,0.279077,-0.141336,0.016861,0.999578,-0.003193,0.013176,0.025706,-0.006889,-0.227368,0.311145,-0.922738
37554,NaN,23.992533,-10.072132,0.219443,-20.259844,4.577340,5.857842,-0.573762,2.123763,5.002228,-0.734375,0.354248,-0.393555,0.242351,-0.094678,-0.000093,0.999627,-0.002868,0.010617,0.025008,0.010581,-0.208818,0.320401,-0.923919
37555,NaN,21.276229,-5.856079,-1.452389,-19.552263,1.930770,0.334338,-0.098572,1.715407,4.725588,-0.705566,0.379639,-0.408203,0.213932,-0.053523,-0.016328,0.999684,-0.000493,0.008576,0.023625,0.029551,-0.193273,0.325780,-0.925008
37556,NaN,18.720977,-3.441975,-3.220346,-18.380990,1.002303,-4.002387,0.592778,1.422386,4.431307,-0.687012,0.394531,-0.418701,0.187674,-0.030166,-0.033631,0.999725,0.002964,0.007111,0.022155,0.047354,-0.179085,0.328293,-0.926234
37557,NaN,16.589720,-2.387890,-4.828377,-17.199016,1.078161,-7.127095,1.554903,1.186908,4.140291,-0.664062,0.407227,-0.439209,0.166048,-0.020061,-0.049435,0.999738,0.007774,0.005934,0.020700,0.065955,-0.166388,0.324996,-0.928624
37558,NaN,14.781944,-1.280137,-6.111067,-16.018339,0.927763,-9.817495,2.218987,0.862122,3.755948,-0.649658,0.415771,-0.451660,0.147751,-0.009342,-0.061864,0.999753,0.011094,0.004310,0.018778,0.083528,-0.155796,0.318683,-0.931231
37559,NaN,13.559561,-0.109941,-7.382653,-15.228366,0.597247,-12.279314,2.329709,0.483908,3.357706,-0.634766,0.415527,-0.457764,0.135400,0.002037,-0.074143,0.999788,0.011648,0.002419,0.016787,0.100184,-0.147198,0.310587,-0.933719
37560,NaN,12.806941,1.333275,-8.351632,-14.633056,-0.245164,-14.431322,2.198962,0.106969,2.983280,-0.628418,0.417725,-0.468018,0.127798,0.016158,-0.083417,0.999828,0.010994,0.000535,0.014916,0.115781,-0.141634,0.303060,-0.935248
37561,NaN,11.952013,3.383838,-9.067325,-13.665152,-1.643039,-16.672788,1.831964,-0.140855,2.649709,-0.613770,0.419922,-0.478027,0.119114,0.036246,-0.090265,0.999870,0.009159,-0.000704,0.013248,0.129664,-0.137209,0.296250,-0.936268
37562,NaN,10.140803,5.697858,-9.653403,-11.633537,-2.953116,-19.000530,1.387221,-0.331946,2.304793,-0.609619,0.424072,-0.482178,0.100897,0.058810,-0.095963,0.999908,0.006936,-0.001660,0.011524,0.142604,-0.135467,0.291522,-0.936124
37563,NaN,8.095691,7.833937,-9.289532,-9.036467,-4.383260,-20.411204,0.998871,-0.538581,1.862285,-0.609619,0.426270,-0.476074,0.080469,0.079552,-0.092283,0.999941,0.004994,-0.002693,0.009311,0.152770,-0.134564,0.287707,-0.935830
37564,NaN,6.755457,8.577600,-8.476203,-7.234376,-5.072150,-20.442458,0.419407,-0.740536,1.477763,-0.607910,0.436768,-0.476318,0.067230,0.086451,-0.084332,0.999964,0.002097,-0.003703,0.007389,0.162137,-0.136841,0.286448,-0.934309
37565,NaN,6.631059,7.927322,-7.755951,-6.928699,-4.964152,-19.524424,-0.141914,-0.872149,1.206078,-0.607910,0.434570,-0.464111,0.066169,0.079618,-0.077327,0.999972,-0.000710,-0.004361,0.006030,0.168915,-0.139310,0.287222,-0.932504
37566,NaN,6.803617,6.780426,-7.794969,-7.335558,-4.193616,-18.847507,-0.409709,-0.796672,0.886818,-0.608154,0.440918,-0.453857,0.068045,0.067946,-0.077818,0.999980,-0.002049,-0.003983,0.004434,0.175288,-0.143508,0.289203,-0.930076
37567,NaN,6.754309,5.921914,-8.277282,-7.689283,-3.290332,-18.715023,-0.825811,-0.812813,0.533728,-0.610352,0.445312,-0.451904,0.067722,0.059058,-0.082742,0.999980,-0.004129,-0.004064,0.002669,0.178345,-0.147248,0.292708,-0.927811
37568,NaN,6.689552,5.609597,-8.260785,-7.753468,-3.054773,-18.473514,-0.713524,-0.778192,0.194547,-0.612549,0.445312,-0.437744,0.067162,0.055867,-0.082546,0.999986,-0.003568,-0.003891,0.000973,0.181450,-0.152760,0.295468,-0.925440
37569,NaN,6.418002,5.963273,-8.202355,-7.466717,-3.227768,-18.636457,-0.602845,-0.728125,-0.182003,-0.618652,0.440918,-0.431396,0.064533,0.059327,-0.081968,0.999988,-0.003014,-0.003641,-0.000910,0.181217,-0.156955,0.297454,-0.924146
37570,NaN,5.982693,7.079970,-8.218972,-6.908731,-3.896075,-19.328930,-0.462229,-0.615173,-0.636592,-0.622803,0.438965,-0.429443,0.060304,0.070418,-0.082168,0.999988,-0.002311,-0.003076,-0.003183,0.180592,-0.162833,0.298417,-0.922940
37571,NaN,5.625230,8.049282,-8.407501,-6.567184,-4.360187,-20.058593,-0.519950,-0.501729,-1.152744,-0.626953,0.436768,-0.419189,0.056925,0.079947,-0.084141,0.999977,-0.002600,-0.002509,-0.005764,0.175589,-0.167346,0.299418,-0.922774
37572,NaN,5.550296,8.645693,-9.201192,-6.877615,-4.373287,-20.938500,-0.731509,-0.353979,-1.640260,-0.637207,0.426025,-0.414795,0.056371,0.085660,-0.092227,0.999958,-0.003657,-0.001770,-0.008201,0.169860,-0.173844,0.300846,-0.922181
37573,NaN,4.791353,9.642997,-10.865506,-6.949711,-3.900029,-22.869717,-1.016613,-0.204104,-2.170974,-0.649658,0.415527,-0.406494,0.049064,0.095348,-0.109092,0.999928,-0.005083,-0.001020,-0.010855,0.159257,-0.178913,0.303451,-0.922250
37574,NaN,3.645280,10.376876,-12.290596,-6.748157,-3.201716,-24.517236,-1.207399,-0.211799,-2.695024,-0.659668,0.402832,-0.398193,0.037970,0.102520,-0.123488,0.999890,-0.006037,-0.001059,-0.013475,0.148131,-0.186800,0.306000,-0.921698
37575,NaN,3.268105,10.566384,-12.341436,-6.814823,-3.032741,-24.610624,-1.542267,-0.387766,-3.224927,-0.669678,0.387939,-0.385742,0.034609,0.104161,-0.124156,0.999838,-0.007711,-0.001939,-0.016124,0.132394,-0.194646,0.309759,-0.921213
37576,NaN,4.316768,10.342088,-11.554186,-7.937862,-3.499491,-23.370039,-2.017587,-0.634149,-3.856121,-0.688232,0.368896,-0.375244,0.045504,0.101387,-0.116430,0.999758,-0.010087,-0.003170,-0.019279,0.115787,-0.206792,0.314240,-0.919285
37577,NaN,7.123423,9.037922,-9.472912,-10.140160,-4.254568,-19.872018,-2.482358,-0.865529,-4.576987,-0.704590,0.351807,-0.354736,0.073671,0.087529,-0.095512,0.999652,-0.012410,-0.004327,-0.022882,0.093500,-0.219338,0.320306,-0.916817
37578,NaN,10.969849,6.607393,-6.428185,-12.679960,-4.860108,-14.378750,-3.159623,-1.090823,-5.254771,-0.720703,0.328613,-0.335938,0.111718,0.062136,-0.064679,0.999515,-0.015796,-0.005453,-0.026270,0.069962,-0.236245,0.327557,-0.912140
37579,NaN,15.082806,4.450946,-2.902599,-14.862274,-5.721600,-8.394214,-4.209798,-1.163977,-5.841021,-0.740967,0.301025,-0.308838,0.152199,0.039466,-0.029009,0.999335,-0.021044,-0.005819,-0.029199,0.040211,-0.252445,0.339230,-0.905305
37580,NaN,19.035536,3.142354,-2.459396,-18.008839,-5.224070,-4.664406,-5.358246,-0.931556,-6.504390,-0.759033,0.277588,-0.286133,0.191343,0.024554,-0.024423,0.999102,-0.026783,-0.004656,-0.032512,0.008102,-0.270984,0.353608,-0.895245
37581,NaN,23.095122,1.908176,-3.108004,-21.425668,-3.617237,-1.194545,-5.596050,-0.845930,-6.993278,-0.779053,0.239502,-0.265137,0.231540,0.010132,-0.030468,0.998988,-0.027971,-0.004228,-0.034955,-0.029289,-0.287095,0.368785,-0.883581
37582,NaN,30.728964,-1.311318,-4.987450,-27.179446,-0.065339,5.406431,-4.871434,-0.889996,-7.226155,-0.790527,0.201172,-0.246094,0.306736,-0.025389,-0.047990,0.999041,-0.024349,-0.004449,-0.036119,-0.063698,-0.306245,0.378072,-0.871332
37583,NaN,45.026100,-9.635682,-8.092196,-35.688179,8.107255,19.256546,-5.131719,-0.599516,-7.503571,-0.806152,0.167236,-0.229248,0.446409,-0.115163,-0.076785,0.998963,-0.025650,-0.002997,-0.037505,-0.103038,-0.321097,0.388735,-0.857418
37584,NaN,62.551620,-25.907193,-2.638577,-36.653679,15.511009,45.005912,-5.567473,0.362183,-6.193876,-0.809326,0.135498,-0.224609,0.617042,-0.278887,-0.019927,0.999131,-0.027829,0.001810,-0.030960,-0.136016,-0.331947,0.400050,-0.843369
37585,NaN,59.390632,-35.839863,2.198161,-23.206101,19.417261,52.631258,-7.396142,0.656566,-6.012802,-0.810547,0.109863,-0.219971,0.582895,-0.374935,0.033721,0.998859,-0.036967,0.003282,-0.030053,-0.174795,-0.335809,0.420349,-0.824613
37586,NaN,47.710261,-37.199851,7.810795,-7.871311,15.107720,48.752272,-7.738245,0.772468,-4.969408,-0.816406,0.093018,-0.215576,0.468054,-0.380353,0.090900,0.998936,-0.038677,0.003861,-0.024838,-0.206769,-0.339947,0.440611,-0.804702
37587,NaN,41.653603,-38.612666,11.084656,1.207428,11.473995,46.888329,-6.571077,0.444382,-3.963004,-0.822266,0.075928,-0.219482,0.409091,-0.390381,0.122714,0.999262,-0.032847,0.002221,-0.019810,-0.234707,-0.339859,0.459525,-0.786286
37588,NaN,35.480408,-33.582460,12.747508,4.478923,5.816658,40.136405,-5.444279,0.460671,-3.207364,-0.821777,0.067627,-0.221436,0.349703,-0.337838,0.135845,0.999498,-0.027217,0.002303,-0.016034,-0.255174,-0.342611,0.472811,-0.770684
37589,NaN,27.700638,-28.624439,12.012984,6.885136,2.794270,31.122058,-3.719484,0.546795,-2.908827,-0.831543,0.041992,-0.225098,0.273163,-0.287945,0.124724,0.999718,-0.018596,0.002734,-0.014543,-0.273977,-0.342552,0.481331,-0.758891
37590,NaN,19.909844,-26.210443,11.820759,10.795466,0.936577,23.438640,-1.801903,0.726068,-2.689718,-0.824707,0.029297,-0.230957,0.195992,-0.263679,0.119863,0.999862,-0.009009,0.003630,-0.013448,-0.287064,-0.347067,0.480837,-0.752287
37591,NaN,14.037071,-24.145024,10.616727,13.020103,0.589279,17.072959,-0.587951,0.730547,-2.427572,-0.824219,0.010254,-0.238770,0.137817,-0.242821,0.106373,0.999915,-0.002940,0.003653,-0.012138,-0.298950,-0.349296,0.477749,-0.748583
37592,NaN,10.251214,-21.909601,8.600102,13.509748,1.351607,11.975350,0.212099,0.606580,-2.185877,-0.816895,-0.015137,-0.250488,0.100369,-0.220292,0.085461,0.999935,0.001060,0.003033,-0.010929,-0.306623,-0.355275,0.470807,-0.747063
37593,NaN,6.046183,-19.370317,6.923374,13.795735,1.575339,6.523779,0.495464,0.554017,-2.070573,-0.824951,-0.032227,-0.256592,0.058642,-0.194487,0.068588,0.999940,0.002477,0.002770,-0.010353,-0.314766,-0.358833,0.464403,-0.745983
37594,NaN,0.704262,-17.526226,5.953617,15.251598,1.189842,0.631165,0.261128,0.353384,-1.979584,-0.821777,-0.057617,-0.258057,0.005412,-0.175399,0.059297,0.999949,0.001306,0.001767,-0.009898,-0.321269,-0.364657,0.458223,-0.744206
37595,NaN,-3.712425,-16.285308,5.661281,16.639194,0.336223,-3.976466,0.085366,0.151986,-1.680639,-0.827881,-0.070312,-0.263916,-0.038448,-0.162558,0.056572,0.999964,0.000427,0.000760,-0.008403,-0.327708,-0.368081,0.454584,-0.741942
37596,NaN,-6.831610,-15.118707,5.801416,17.389162,-0.700063,-7.358335,0.055083,-0.145120,-1.537169,-0.821045,-0.081055,-0.267822,-0.069518,-0.150672,0.057922,0.999970,0.000275,-0.000726,-0.007686,-0.332126,-0.373762,0.451049,-0.739289
37597,NaN,-8.536451,-14.395308,6.211475,17.766039,-1.649850,-9.248852,0.128682,-0.468075,-1.466333,-0.824707,-0.100098,-0.259277,-0.086562,-0.143361,0.061821,0.999970,0.000643,-0.002340,-0.007332,-0.336245,-0.379017,0.448600,-0.736236
37598,NaN,-9.474520,-13.484060,6.542225,17.547637,-2.413683,-10.610376,0.182105,-0.657402,-1.263410,-0.822021,-0.117188,-0.254883,-0.095809,-0.134297,0.064986,0.999974,0.000911,-0.003287,-0.006317,-0.338578,-0.385567,0.446240,-0.733194
37599,NaN,-11.099846,-12.367089,6.877315,17.451418,-3.347507,-12.585306,0.422093,-0.669193,-0.881254,-0.819824,-0.121338,-0.250732,-0.111771,-0.123324,0.068140,0.999982,0.002110,-0.003346,-0.004406,-0.339500,-0.390709,0.444122,-0.731329
37600,NaN,-11.702718,-11.695606,7.313581,17.272136,-3.977019,-13.429669,0.598947,-0.805681,-0.476545,-0.819336,-0.132080,-0.244385,-0.117598,-0.116894,0.072313,0.999985,0.002995,-0.004028,-0.002383,-0.338089,-0.396217,0.442266,-0.730143
37601,NaN,-11.439008,-11.100975,8.007800,16.857541,-4.647223,-13.338421,0.759458,-0.808177,0.003722,-0.825684,-0.134277,-0.234375,-0.114709,-0.111314,0.079193,0.999985,0.003797,-0.004041,0.000019,-0.334782,-0.400451,0.440863,-0.730205
37602,NaN,-11.987306,-10.783019,7.943893,16.867744,-4.587345,-13.996607,1.050666,-0.584195,0.573598,-0.823730,-0.129883,-0.230225,-0.119793,-0.108588,0.078520,0.999978,0.005253,-0.002921,0.002868,-0.329352,-0.403119,0.439291,-0.732152
37603,NaN,-12.472668,-10.175247,7.843748,16.639042,-4.542123,-14.622068,1.366347,-0.462924,1.108237,-0.825928,-0.125732,-0.224121,-0.124338,-0.102974,0.077449,0.999959,0.006832,-0.002315,0.005541,-0.321515,-0.404628,0.437270,-0.736002
37604,NaN,-12.715856,-9.432147,7.585067,16.181890,-4.354274,-15.043824,1.607501,-0.291997,1.644310,-0.830322,-0.121338,-0.222168,-0.126484,-0.095968,0.074899,0.999933,0.008037,-0.001460,0.008221,-0.311846,-0.404320,0.435474,-0.741377
37605,NaN,-12.797325,-8.393820,6.993851,15.347536,-3.938375,-15.475336,1.901202,-0.120114,2.107637,-0.830811,-0.104492,-0.222412,-0.127116,-0.085940,0.069051,0.999899,0.009506,-0.000601,0.010538,-0.299902,-0.403115,0.432834,-0.748473
37606,NaN,-11.901770,-7.896511,6.710416,14.591098,-3.483108,-14.709985,2.201040,-0.052477,2.380817,-0.831055,-0.095947,-0.210449,-0.118078,-0.081106,0.066188,0.999869,0.011005,-0.000262,0.011904,-0.286911,-0.400725,0.429932,-0.756478
37607,NaN,-10.774674,-7.348136,6.844397,13.813533,-3.380877,-13.642571,2.318611,0.038667,2.692785,-0.831543,-0.081055,-0.208740,-0.106724,-0.075710,0.067596,0.999842,0.011592,0.000193,0.013463,-0.272123,-0.398069,0.426437,-0.765272
37608,NaN,-9.121443,-6.666805,6.523080,12.448834,-2.978395,-12.329452,2.246620,0.106714,2.913705,-0.830078,-0.062012,-0.206787,-0.090189,-0.068714,0.064515,0.999831,0.011232,0.000534,0.014568,-0.257382,-0.393487,0.424047,-0.774020
37609,NaN,-7.409485,-6.266917,6.182182,11.186787,-2.458404,-10.903735,2.112281,0.233156,3.130018,-0.826660,-0.040771,-0.205322,-0.073024,-0.064466,0.061233,0.999821,0.010561,0.001166,0.015649,-0.241567,-0.388612,0.421657,-0.782836
37610,NaN,-6.246828,-5.861536,5.890303,10.177230,-2.114567,-9.936067,1.967213,0.357878,3.355985,-0.825439,-0.010986,-0.209717,-0.061362,-0.060228,0.058426,0.999809,0.009835,0.001789,0.016779,-0.226161,-0.381293,0.420638,-0.791537
37611,NaN,-5.189056,-5.869228,5.876620,9.571025,-1.807733,-8.800610,1.845034,0.383475,3.519637,-0.826172,0.008057,-0.210205,-0.050729,-0.060131,0.058314,0.999801,0.009225,0.001917,0.017597,-0.209481,-0.374399,0.419531,-0.799960
37612,NaN,-3.349801,-6.222131,5.675022,8.519053,-1.208745,-6.967288,1.697631,0.480477,3.724349,-0.818359,0.027100,-0.212402,-0.032190,-0.063308,0.056294,0.999788,0.008488,0.002402,0.018620,-0.193322,-0.365082,0.419799,-0.808153
37613,NaN,-2.274317,-6.460135,4.805803,7.487264,-0.165808,-6.083782,1.685468,0.776336,3.949517,-0.811279,0.065430,-0.217285,-0.021271,-0.065434,0.047593,0.999762,0.008427,0.003881,0.019746,-0.175876,-0.355214,0.419349,-0.816723
37614,NaN,-2.491893,-6.488599,3.846670,7.089385,0.785026,-6.316799,1.965680,0.988992,4.154494,-0.801270,0.086426,-0.227783,-0.023370,-0.065757,0.037941,0.999724,0.009827,0.004945,0.020771,-0.158483,-0.342724,0.418370,-0.826069
37615,NaN,-2.115075,-6.824831,2.699961,6.320248,2.086340,-6.066922,2.462816,1.105922,4.306644,-0.795898,0.114258,-0.234375,-0.019524,-0.069007,0.026264,0.999677,0.012313,0.005529,0.021531,-0.138744,-0.331005,0.414568,-0.836253
37616,NaN,-1.109166,-8.407965,2.759007,6.126346,3.162721,-4.157333,2.618753,1.159681,4.404132,-0.786377,0.141846,-0.245117,-0.009076,-0.084646,0.026541,0.999655,0.013092,0.005798,0.022018,-0.119481,-0.317302,0.410592,-0.846438
37617,NaN,0.020757,-10.560429,3.429931,6.136844,4.161703,-1.549625,2.449279,1.165963,4.544241,-0.768311,0.173584,-0.253662,0.002808,-0.105970,0.032992,0.999650,0.012245,0.005829,0.022719,-0.098723,-0.304408,0.406597,-0.855727
37618,NaN,1.069924,-13.002467,4.839253,6.381243,4.769838,1.594045,1.954866,1.093200,4.651434,-0.762695,0.198975,-0.260254,0.013986,-0.130189,0.047050,0.999667,0.009773,0.005465,0.023255,-0.079262,-0.289654,0.405261,-0.863471
37619,NaN,1.911777,-15.451938,6.235517,6.515312,5.392510,4.668807,1.437638,0.999303,4.707735,-0.744629,0.222412,-0.262451,0.023062,-0.154450,0.061136,0.999685,0.007187,0.004996,0.023536,-0.058862,-0.276296,0.405350,-0.869418
37620,NaN,2.925085,-18.971731,7.742717,6.605996,6.525105,8.684156,1.182768,0.866764,4.733039,-0.737305,0.256348,-0.265137,0.034068,-0.189402,0.076166,0.999693,0.005913,0.004333,0.023663,-0.039720,-0.261633,0.406996,-0.874257
37621,NaN,5.013146,-23.988121,9.624693,5.940926,8.204609,14.486538,1.392833,0.701605,4.751602,-0.723389,0.288086,-0.269775,0.056154,-0.239256,0.094389,0.999687,0.006963,0.003508,0.023756,-0.018550,-0.249109,0.406858,-0.878673
37622,NaN,9.221833,-30.166045,12.303959,3.382682,9.686053,22.450719,2.002442,0.536247,4.806818,-0.711914,0.319824,-0.270264,0.099775,-0.300533,0.119766,0.999657,0.010011,0.002681,0.024031,0.002526,-0.235423,0.404513,-0.883707
37623,NaN,15.631689,-36.687359,15.760921,-1.588587,10.467855,31.734991,2.739939,0.620478,4.896499,-0.695801,0.343262,-0.280762,0.165747,-0.365001,0.152095,0.999602,0.013698,0.003102,0.024479,0.026123,-0.222667,0.398019,-0.889560
37624,NaN,22.795839,-40.912733,17.557798,-9.205860,10.665335,38.173374,3.295942,0.851630,4.958585,-0.673340,0.372803,-0.293457,0.238779,-0.406105,0.167867,0.999548,0.016477,0.004258,0.024789,0.048618,-0.206868,0.389478,-0.896186
37625,NaN,27.941076,-39.675167,16.412717,-17.077744,9.482864,37.536874,3.833104,0.931238,4.714327,-0.659668,0.404785,-0.318604,0.289442,-0.393039,0.155238,0.999528,0.019163,0.004655,0.023568,0.071862,-0.192503,0.377223,-0.903040
37626,NaN,29.613571,-34.582707,14.132795,-22.032681,7.093201,31.857336,4.100726,0.939326,4.462824,-0.628418,0.417480,-0.341064,0.304432,-0.341877,0.132874,0.999530,0.020500,0.004696,0.022311,0.092828,-0.177030,0.363781,-0.909784
37627,NaN,27.756564,-29.489148,11.087387,-23.296766,5.857562,24.618898,3.700506,1.056332,4.410577,-0.598877,0.423828,-0.371826,0.284568,-0.290633,0.103979,0.999572,0.018500,0.005281,0.022050,0.114197,-0.162427,0.351189,-0.915010
37628,NaN,24.763800,-25.867106,8.121869,-22.915333,5.732654,18.295448,3.063364,1.073334,4.368907,-0.575928,0.429932,-0.392334,0.253643,-0.254364,0.075950,0.999630,0.015315,0.005366,0.021842,0.133857,-0.147330,0.341735,-0.918473
37629,NaN,22.094944,-21.420959,5.376228,-22.014759,4.577566,11.870680,2.478496,0.907547,4.255616,-0.552734,0.432129,-0.406494,0.225682,-0.210077,0.050125,0.999687,0.012391,0.004537,0.021276,0.153626,-0.134203,0.333989,-0.920239
37630,NaN,20.119223,-16.410134,2.921168,-20.903201,2.530835,5.651920,1.880243,0.686630,4.096026,-0.538330,0.442627,-0.422852,0.204595,-0.160195,0.026995,0.999740,0.009400,0.003433,0.020478,0.172095,-0.122498,0.329021,-0.920393
37631,NaN,18.459961,-11.691045,1.237164,-19.313492,0.148136,0.477359,1.159162,0.463640,3.900182,-0.517334,0.446777,-0.428955,0.186860,-0.113349,0.011276,0.999790,0.005795,0.002318,0.019500,0.189948,-0.112942,0.326406,-0.919034
37632,NaN,17.227714,-7.348124,-0.123831,-17.652719,-2.224439,-3.964800,0.488862,0.354507,3.660294,-0.506836,0.455322,-0.435303,0.173581,-0.070308,-0.001720,0.999828,0.002444,0.001772,0.018300,0.206390,-0.105041,0.326964,-0.916223
37633,NaN,15.397744,-3.721196,-1.620329,-15.405664,-3.569335,-7.951220,0.260947,0.173512,3.329296,-0.498779,0.461670,-0.443604,0.154554,-0.034621,-0.016384,0.999860,0.001305,0.000868,0.016646,0.221461,-0.098536,0.327651,-0.913176
37634,NaN,14.306987,-0.943450,-3.189451,-13.917159,-4.463194,-11.272074,0.149419,-0.117535,2.956818,-0.490479,0.468018,-0.443604,0.143207,-0.007294,-0.031816,0.999890,0.000747,-0.000588,0.014784,0.235520,-0.094581,0.328660,-0.909707
37635,NaN,13.356151,0.903101,-4.323915,-12.642887,-4.894294,-13.566605,-0.007228,-0.357450,2.567588,-0.481934,0.470215,-0.439453,0.133508,0.010744,-0.043001,0.999916,-0.000036,-0.001787,0.012838,0.247758,-0.092005,0.329458,-0.906426
37636,NaN,12.183802,2.532446,-5.117486,-11.113609,-5.167883,-15.364447,-0.162861,-0.522326,2.131309,-0.477783,0.472168,-0.431396,0.121692,0.026580,-0.050878,0.999939,-0.000814,-0.002612,0.010656,0.258795,-0.091860,0.330844,-0.902845
37637,NaN,10.569564,3.959949,-5.828850,-9.278376,-4.998830,-16.904477,-0.284893,-0.676842,1.613775,-0.480225,0.482910,-0.429443,0.105569,0.040369,-0.057988,0.999961,-0.001424,-0.003384,0.008069,0.267054,-0.092628,0.331982,-0.899939
37638,NaN,8.991927,5.242311,-5.963055,-7.381141,-4.993659,-17.842387,-0.473827,-0.814253,1.123233,-0.480225,0.482910,-0.421387,0.089866,0.052787,-0.059389,0.999973,-0.002369,-0.004071,0.005616,0.274051,-0.096062,0.333800,-0.896797
37639,NaN,7.668031,6.189837,-6.061524,-5.882478,-4.846926,-18.516623,-0.725614,-0.970005,0.678365,-0.482666,0.487061,-0.417236,0.076764,0.061939,-0.060468,0.999976,-0.003628,-0.004850,0.003392,0.278352,-0.100289,0.336042,-0.894169
37640,NaN,6.749127,6.703412,-5.811036,-4.837898,-4.816840,-18.624442,-0.830004,-1.095204,0.185551,-0.493164,0.484863,-0.403076,0.067747,0.066856,-0.058018,0.999976,-0.004150,-0.005476,0.000928,0.281540,-0.107154,0.338494,-0.891445
37641,NaN,6.448766,6.396686,-5.283175,-4.591128,-4.758545,-17.979266,-0.955664,-1.189466,-0.246519,-0.503662,0.484863,-0.390869,0.064880,0.063635,-0.052751,0.999970,-0.004778,-0.005947,-0.001233,0.281929,-0.114233,0.340937,-0.889510
37642,NaN,6.810245,5.833924,-4.771374,-5.016529,-4.927361,-17.143047,-1.141430,-1.253440,-0.577582,-0.516357,0.484863,-0.380615,0.068569,0.057870,-0.047616,0.999960,-0.005707,-0.006267,-0.002888,0.281853,-0.123605,0.343993,-0.887102
37643,NaN,7.318107,5.427264,-4.517688,-5.611662,-5.117484,-16.575648,-1.351521,-1.256631,-0.917118,-0.527100,0.487061,-0.362305,0.073711,0.053631,-0.045079,0.999947,-0.006757,-0.006283,-0.004586,0.279091,-0.132672,0.347631,-0.885245
37644,NaN,7.863707,5.241059,-4.771932,-6.380301,-5.190789,-16.477632,-1.646153,-1.208253,-1.259772,-0.537598,0.487061,-0.345947,0.079252,0.051520,-0.047668,0.999928,-0.008231,-0.006041,-0.006299,0.275601,-0.143804,0.352356,-0.882728
37645,NaN,8.107755,5.181370,-5.468948,-7.095836,-4.880281,-16.763783,-1.700304,-1.083540,-1.623974,-0.545654,0.478516,-0.329590,0.081788,0.050687,-0.054682,0.999916,-0.008501,-0.005418,-0.008120,0.269092,-0.153796,0.357169,-0.881117
37646,NaN,8.406596,5.026391,-5.697367,-7.708215,-4.803802,-16.587207,-1.712657,-0.989352,-2.061120,-0.562500,0.474365,-0.319336,0.084856,0.048904,-0.056978,0.999898,-0.008563,-0.004947,-0.010305,0.261628,-0.165558,0.361632,-0.879411
37647,NaN,8.657383,4.532285,-6.125871,-8.519370,-4.331249,-16.267746,-1.780616,-0.901390,-2.467984,-0.581299,0.468018,-0.306885,0.087396,0.043702,-0.061260,0.999874,-0.008903,-0.004507,-0.012339,0.250894,-0.176310,0.366192,-0.878561
37648,NaN,8.537447,3.639291,-6.940127,-9.338017,-3.198975,-15.883361,-1.607146,-0.848467,-2.849680,-0.591553,0.453125,-0.290527,0.086170,0.034612,-0.069320,0.999857,-0.008035,-0.004242,-0.014248,0.239780,-0.188825,0.369368,-0.877734
37649,NaN,8.659638,2.126251,-6.462581,-9.822793,-2.487350,-14.124125,-1.259121,-0.902578,-3.253091,-0.614258,0.438477,-0.280029,0.087213,0.019441,-0.064359,0.999838,-0.006295,-0.004513,-0.016265,0.225938,-0.200291,0.370679,-0.878312
37650,NaN,9.404623,0.715222,-5.450543,-10.393411,-2.483536,-11.925089,-1.078079,-0.931262,-3.526604,-0.632568,0.415039,-0.269531,0.094402,0.005197,-0.054098,0.999819,-0.005390,-0.004656,-0.017632,0.212475,-0.213822,0.370384,-0.878607
37651,NaN,9.773625,0.634155,-4.634489,-10.378752,-2.911673,-10.905037,-1.095184,-0.852612,-3.675001,-0.642578,0.398193,-0.260986,0.098024,0.004290,-0.045955,0.999807,-0.005476,-0.004263,-0.018374,0.196693,-0.225514,0.370288,-0.879399
37652,NaN,10.128389,1.314924,-4.071176,-10.326766,-3.695660,-10.567979,-1.233808,-0.704878,-3.899066,-0.662842,0.372803,-0.250488,0.101654,0.010920,-0.040426,0.999785,-0.006169,-0.003524,-0.019494,0.180962,-0.238870,0.370026,-0.879360
37653,NaN,10.295589,1.651833,-3.872793,-10.418600,-3.868106,-10.255839,-1.696810,-0.481670,-4.085779,-0.675049,0.357910,-0.233887,0.103353,0.014082,-0.038606,0.999752,-0.008483,-0.002408,-0.020427,0.161812,-0.250042,0.372078,-0.879121
37654,NaN,10.238771,1.617846,-4.231053,-10.673944,-3.368516,-10.031166,-2.212865,-0.271484,-4.263068,-0.693359,0.334473,-0.223389,0.102752,0.013522,-0.042331,0.999711,-0.011063,-0.001357,-0.021313,0.142419,-0.262918,0.375457,-0.877281
37655,NaN,10.529864,1.381981,-5.090078,-11.512413,-2.475946,-9.821094,-2.679898,-0.089522,-4.434932,-0.711426,0.311279,-0.217041,0.105583,0.010797,-0.051012,0.999664,-0.013398,-0.000448,-0.022172,0.119559,-0.273475,0.381191,-0.874992
37656,NaN,11.623856,0.723148,-5.809600,-12.864223,-1.681738,-8.797571,-2.613693,-0.006376,-4.755203,-0.723145,0.281494,-0.208252,0.116356,0.003706,-0.058156,0.999632,-0.013067,-0.000032,-0.023773,0.096898,-0.286231,0.385106,-0.871995
37657,NaN,14.495414,-1.757105,-5.354559,-14.748007,-0.841519,-4.954888,-2.163324,-0.126630,-5.283598,-0.730469,0.245361,-0.201660,0.144446,-0.021969,-0.053232,0.999592,-0.010815,-0.000633,-0.026414,0.070967,-0.297907,0.386756,-0.869848
37658,NaN,20.264033,-7.027905,-3.538185,-17.418178,0.275043,3.184522,-1.231626,-0.319543,-5.939334,-0.750244,0.200928,-0.196777,0.200486,-0.076469,-0.034602,0.999539,-0.006157,-0.001597,-0.029692,0.045770,-0.313461,0.381890,-0.868221
37659,NaN,30.950581,-17.008939,1.269474,-20.676867,2.166649,18.756607,-0.002774,-0.001221,-6.374147,-0.761230,0.152100,-0.191895,0.303877,-0.179835,0.012699,0.999492,-0.000014,-0.000006,-0.031865,0.018071,-0.325497,0.371718,-0.869224
37660,NaN,42.058542,-28.512673,9.019469,-20.843048,4.325617,37.191765,-1.126395,0.599138,-5.854434,-0.768555,0.115967,-0.197510,0.412282,-0.296768,0.090601,0.999551,-0.005631,0.002995,-0.029268,-0.008214,-0.336340,0.365653,-0.867817
37661,NaN,44.811228,-29.758160,9.087484,-20.442132,6.512675,40.337517,-2.887534,0.522731,-6.231674,-0.773193,0.071533,-0.202881,0.438824,-0.310009,0.094136,0.999407,-0.014435,0.002613,-0.031152,-0.041062,-0.345165,0.367463,-0.862639
37662,NaN,42.039198,-26.611695,9.938647,-16.322570,5.473604,37.908229,-4.088350,0.274483,-5.636408,-0.778564,0.039551,-0.202393,0.412852,-0.275724,0.104388,0.999393,-0.020438,0.001372,-0.028176,-0.070657,-0.356188,0.373546,-0.853581
37663,NaN,36.777336,-27.320810,9.621775,-10.143205,7.546532,35.258058,-5.032534,0.481279,-4.659233,-0.775635,0.016357,-0.199951,0.361557,-0.279157,0.102318,0.999409,-0.025158,0.002406,-0.023292,-0.100365,-0.360867,0.386334,-0.842881
37664,NaN,30.573803,-31.059592,9.984652,-1.778310,10.287167,33.659766,-5.581425,0.850418,-3.745444,-0.775146,0.003662,-0.209717,0.300332,-0.313330,0.107281,0.999426,-0.027902,0.004251,-0.018724,-0.125618,-0.364599,0.400801,-0.831051
37665,NaN,23.664033,-31.809158,11.047564,5.595051,9.779334,29.768668,-5.115627,0.893745,-3.081082,-0.777100,-0.000732,-0.211914,0.232248,-0.318745,0.117579,0.999544,-0.025574,0.004468,-0.015403,-0.149484,-0.363701,0.415695,-0.820105
37666,NaN,16.127074,-28.595854,10.893435,10.202493,7.549292,22.362733,-4.231155,0.906253,-2.696300,-0.772461,-0.015625,-0.215576,0.157927,-0.285723,0.114260,0.999675,-0.021153,0.004531,-0.013480,-0.168175,-0.365254,0.425842,-0.810534
37667,NaN,9.832137,-23.835556,10.446679,12.225477,4.693212,14.731072,-3.014607,0.844738,-2.366650,-0.774414,-0.023926,-0.223633,0.095955,-0.237894,0.107646,0.999807,-0.015072,0.004223,-0.011832,-0.185044,-0.364286,0.432945,-0.803500
37668,NaN,5.724080,-19.520962,9.762817,12.509326,2.569187,8.789539,-1.898354,0.785957,-2.143701,-0.771729,-0.036865,-0.227539,0.055539,-0.194874,0.099258,0.999890,-0.009491,0.003930,-0.010718,-0.197210,-0.366560,0.434632,-0.798647
37669,NaN,3.154191,-15.958880,8.681523,11.756687,1.314784,4.331099,-1.181471,0.729656,-2.104337,-0.769043,-0.051514,-0.231445,0.030183,-0.159395,0.087645,0.999921,-0.005907,0.003648,-0.010521,-0.209355,-0.367046,0.434741,-0.795266
37670,NaN,0.789763,-13.977488,7.480352,11.719866,1.142765,0.830729,-0.915889,0.702359,-2.057747,-0.764648,-0.062256,-0.243408,0.006725,-0.139504,0.075418,0.999930,-0.004579,0.003512,-0.010288,-0.219389,-0.369961,0.432762,-0.792284
37671,NaN,-1.701584,-13.044590,6.426724,12.397010,1.328601,-2.137913,-0.826652,0.600812,-2.073794,-0.766113,-0.079102,-0.245117,-0.018171,-0.129994,0.064859,0.999933,-0.004133,0.003004,-0.010369,-0.230426,-0.371158,0.431515,-0.789266
37672,NaN,-4.130389,-12.441455,5.959171,13.426357,1.190136,-4.746036,-0.815549,0.426036,-2.076900,-0.763428,-0.092041,-0.250977,-0.042463,-0.123733,0.060187,0.999935,-0.004078,0.002130,-0.010384,-0.239921,-0.374863,0.429454,-0.785802
37673,NaN,-5.920076,-11.667613,5.966100,14.044228,0.497332,-6.766436,-0.828165,0.234858,-2.024350,-0.765137,-0.108887,-0.254883,-0.060305,-0.115821,0.060212,0.999940,-0.004141,0.001174,-0.010122,-0.249924,-0.377293,0.428608,-0.781974
37674,NaN,-7.290626,-10.297399,5.688047,13.806135,-0.203076,-8.871448,-0.923217,0.029641,-1.907012,-0.762695,-0.117432,-0.250732,-0.073874,-0.102009,0.057364,0.999944,-0.004616,0.000148,-0.009535,-0.258288,-0.381590,0.427845,-0.777577
37675,NaN,-8.419155,-8.199853,5.120161,12.705834,-1.028780,-11.166942,-0.959186,-0.096325,-1.695857,-0.764404,-0.127930,-0.250488,-0.084906,-0.081034,0.051551,0.999952,-0.004796,-0.000482,-0.008479,-0.266500,-0.384357,0.428445,-0.773099
37676,NaN,-9.581576,-6.169547,4.544697,11.593992,-1.739242,-13.428651,-0.909158,-0.198013,-1.384215,-0.762207,-0.130127,-0.254395,-0.096284,-0.060823,0.045630,0.999965,-0.004546,-0.000990,-0.006921,-0.272496,-0.388028,0.429008,-0.768852
37677,NaN,-10.495595,-4.889819,3.963287,10.855198,-2.030794,-15.086578,-0.726507,-0.327120,-1.109629,-0.766113,-0.140869,-0.246094,-0.105289,-0.048171,0.039637,0.999977,-0.003633,-0.001636,-0.005548,-0.277470,-0.390689,0.430087,-0.765113
37678,NaN,-10.483717,-4.808600,4.604069,10.949268,-2.664778,-15.031835,-0.403969,-0.403878,-0.881307,-0.768066,-0.149170,-0.248047,-0.105140,-0.047530,0.045925,0.999986,-0.002020,-0.002019,-0.004407,-0.280259,-0.394448,0.430061,-0.762177
37679,NaN,-9.846779,-5.790796,5.490349,11.637391,-2.943512,-13.879944,-0.155533,-0.394525,-0.527484,-0.765869,-0.151367,-0.241943,-0.098728,-0.057605,0.054754,0.999994,-0.000778,-0.001973,-0.002637,-0.281733,-0.396888,0.430167,-0.760305
37680,NaN,-9.422286,-6.260943,5.981015,11.938522,-3.087992,-13.231348,0.089140,-0.351882,-0.067838,-0.767822,-0.151367,-0.241943,-0.094349,-0.062604,0.059616,0.999998,0.000446,-0.001759,-0.000339,-0.280718,-0.399107,0.429917,-0.759659
37681,NaN,-9.667453,-6.192632,6.235511,12.119842,-3.304129,-13.401752,0.480731,-0.356333,0.384295,-0.774414,-0.147217,-0.229736,-0.096666,-0.062261,0.062033,0.999994,0.002404,-0.001782,0.001921,-0.277539,-0.400329,0.429358,-0.760500
37682,NaN,-9.507396,-5.512755,6.011764,11.472450,-3.304097,-13.605627,0.822731,-0.340753,0.766444,-0.783203,-0.136475,-0.227783,-0.094963,-0.055738,0.059727,0.999983,0.004114,-0.001704,0.003832,-0.272067,-0.401442,0.428099,-0.762598
37683,NaN,-9.547424,-5.077959,5.876110,11.176208,-3.251205,-13.810985,1.217427,-0.343835,1.049619,-0.781006,-0.136475,-0.219727,-0.095305,-0.051636,0.058285,0.999966,0.006087,-0.001719,0.005248,-0.264883,-0.402171,0.426020,-0.765900
37684,NaN,-9.274896,-4.806336,5.723595,10.849227,-3.049502,-13.669387,1.543683,-0.416116,1.285725,-0.777100,-0.128174,-0.211670,-0.092554,-0.049098,0.056667,0.999947,0.007718,-0.002081,0.006429,-0.255937,-0.403115,0.423217,-0.769988
37685,NaN,-8.628726,-4.760453,5.772243,10.573556,-2.865509,-13.040478,1.758364,-0.464019,1.465605,-0.785889,-0.121582,-0.209717,-0.086066,-0.048740,0.057097,0.999932,0.008792,-0.002320,0.007328,-0.245759,-0.404046,0.419969,-0.774581
37686,NaN,-7.598640,-4.907681,6.038775,10.308868,-2.747356,-11.925668,1.796821,-0.489479,1.635229,-0.790283,-0.113281,-0.201660,-0.075726,-0.050235,0.059754,0.999923,0.008984,-0.002447,0.008176,-0.234882,-0.404509,0.416989,-0.779309
37687,NaN,-6.535918,-5.030001,6.143501,9.919279,-2.509885,-10.844340,1.744562,-0.468485,1.837292,-0.799072,-0.102539,-0.193848,-0.065033,-0.051431,0.060837,0.999917,0.008723,-0.002342,0.009186,-0.223207,-0.404542,0.414425,-0.784077
37688,NaN,-5.804643,-5.263912,5.993935,9.650556,-2.033292,-10.050908,1.643835,-0.402813,2.092493,-0.806152,-0.085449,-0.186035,-0.057608,-0.053733,0.059384,0.999909,0.008219,-0.002014,0.010462,-0.211105,-0.403184,0.412829,-0.788954
37689,NaN,-5.270664,-5.700664,5.794707,9.572923,-1.403885,-9.324672,1.651135,-0.341573,2.367636,-0.808838,-0.068604,-0.180176,-0.052121,-0.058101,0.057381,0.999894,0.008255,-0.001708,0.011838,-0.197718,-0.401368,0.411408,-0.794075
37690,NaN,-4.733483,-6.214367,5.514309,9.454404,-0.674835,-8.554347,1.782789,-0.301656,2.630829,-0.809326,-0.049561,-0.170166,-0.046590,-0.063248,0.054512,0.999873,0.008914,-0.001508,0.013154,-0.183473,-0.398260,0.410148,-0.799691
37691,NaN,-3.746497,-6.645721,5.299289,8.980593,-0.041488,-7.441366,2.111314,-0.273838,2.836213,-0.814209,-0.030273,-0.168457,-0.036584,-0.067534,0.052233,0.999843,0.010556,-0.001369,0.014180,-0.167347,-0.395436,0.407542,-0.805938
37692,NaN,-2.498182,-7.193988,5.174475,8.372484,0.564666,-6.025570,2.533550,-0.176058,2.992622,-0.819336,-0.007080,-0.164795,-0.023940,-0.072951,0.050803,0.999807,0.012667,-0.000880,0.014962,-0.150452,-0.391293,0.403694,-0.813194
37693,NaN,-1.430816,-7.991845,5.266509,8.032290,1.197751,-4.550824,3.031082,-0.040820,3.111035,-0.817871,0.014160,-0.159180,-0.013065,-0.080914,0.051441,0.999764,0.015154,-0.000204,0.015554,-0.131765,-0.387391,0.397394,-0.821367
37694,NaN,-0.473920,-9.236346,5.702506,8.055548,1.888600,-2.771678,3.350653,0.093704,3.144577,-0.818848,0.039795,-0.161621,-0.003250,-0.093360,0.055468,0.999736,0.016752,0.000468,0.015722,-0.113213,-0.381907,0.390002,-0.830198
37695,NaN,0.540728,-11.307639,6.813860,8.665909,2.719396,-0.217757,3.554732,0.164707,2.998094,-0.819824,0.069336,-0.162109,0.007168,-0.114165,0.066110,0.999729,0.017772,0.000823,0.014989,-0.094281,-0.377309,0.380774,-0.838904
37696,NaN,2.780664,-14.747884,9.036793,9.435369,3.670912,4.482274,3.789289,0.204798,2.822013,-0.818115,0.082275,-0.166504,0.029990,-0.148742,0.087528,0.999720,0.018945,0.001024,0.014109,-0.076505,-0.371650,0.370520,-0.847784
37697,NaN,5.626777,-19.574245,12.634456,10.783999,4.835303,11.036130,3.929247,0.389343,2.906690,-0.814697,0.105469,-0.178955,0.059369,-0.197325,0.122364,0.999700,0.019644,0.001947,0.014532,-0.057592,-0.366030,0.359007,-0.856633
37698,NaN,9.570415,-24.452100,15.924548,10.626962,6.278693,18.304522,3.851190,0.655440,3.201373,-0.809082,0.128906,-0.187500,0.100145,-0.245943,0.154195,0.999681,0.019254,0.003277,0.016005,-0.039018,-0.357177,0.348684,-0.865634
37699,NaN,15.146970,-28.599268,17.721226,7.508088,7.955985,25.421860,3.919450,0.890279,3.553084,-0.801514,0.152344,-0.202393,0.157329,-0.286623,0.170907,0.999640,0.019595,0.004451,0.017763,-0.018191,-0.347789,0.337767,-0.874428
37700,NaN,21.921376,-32.340087,18.141840,1.767386,9.774759,32.098159,3.940653,1.113498,3.822325,-0.791748,0.175537,-0.212891,0.226367,-0.322595,0.173809,0.999608,0.019701,0.005567,0.019109,0.002307,-0.335238,0.327659,-0.883317
37701,NaN,29.639906,-37.093354,18.468281,-5.333048,12.040327,39.396076,4.278367,1.412421,4.025643,-0.773438,0.198975,-0.237793,0.305093,-0.368658,0.174645,0.999544,0.021389,0.007061,0.020125,0.024929,-0.322227,0.315379,-0.892235
37702,NaN,36.352157,-36.919964,17.592691,-13.967301,10.926523,41.945341,4.027222,1.661301,4.168591,-0.763184,0.207520,-0.254150,0.372561,-0.364899,0.165480,0.999546,0.020133,0.008305,0.020840,0.046226,-0.306223,0.304927,-0.900616
37703,NaN,36.294650,-31.550389,14.431417,-18.859585,8.025298,36.017236,3.157341,1.856243,4.092719,-0.742920,0.235107,-0.275146,0.370618,-0.310162,0.135973,0.999623,0.015785,0.009280,0.020461,0.066630,-0.290804,0.297290,-0.906980
37704,NaN,31.470508,-25.526386,10.173955,-19.660156,6.108120,26.537407,1.980975,1.957184,4.149487,-0.726807,0.262695,-0.295898,0.320883,-0.249619,0.096128,0.999688,0.009904,0.009785,0.020745,0.084579,-0.274011,0.295558,-0.911268
37705,NaN,27.682821,-21.062146,6.350001,-20.088435,4.747224,18.892012,0.663953,1.967182,4.261398,-0.700195,0.288086,-0.308594,0.281836,-0.204855,0.060058,0.999719,0.003319,0.009835,0.021305,0.101962,-0.258417,0.299119,-0.912881
37706,NaN,24.371001,-17.872993,4.080531,-19.440235,3.486519,13.420712,-0.581676,1.794698,4.399312,-0.688477,0.317871,-0.317139,0.247916,-0.173192,0.039102,0.999714,-0.002908,0.008973,0.021994,0.118175,-0.243299,0.308851,-0.911839
37707,NaN,21.789450,-14.520904,2.370148,-18.602192,1.679113,8.687799,-1.728205,1.569963,4.463416,-0.664307,0.355957,-0.319824,0.221243,-0.140094,0.023199,0.999683,-0.008640,0.007849,0.022315,0.133949,-0.230217,0.322988,-0.908150
37708,NaN,18.838701,-10.364834,1.227168,-16.691048,-0.620786,3.780514,-2.384423,1.376072,4.423513,-0.644287,0.389893,-0.326416,0.190699,-0.099302,0.012166,0.999661,-0.011921,0.006880,0.022115,0.148997,-0.218190,0.340205,-0.902471
37709,NaN,15.687812,-6.823443,-0.305569,-14.546743,-1.743396,-0.976996,-2.192639,0.811316,4.266196,-0.622314,0.423584,-0.316650,0.158274,-0.064901,-0.002972,0.999704,-0.010962,0.004056,0.021329,0.164421,-0.208866,0.355254,-0.896178
37710,NaN,14.076122,-3.922275,-1.815792,-13.571293,-2.717812,-4.790165,-1.434750,0.379235,4.031831,-0.605957,0.444824,-0.319092,0.141481,-0.036506,-0.018157,0.999769,-0.007173,0.001896,0.020158,0.180527,-0.201342,0.366533,-0.890239
37711,NaN,12.747271,-1.158410,-2.741925,-12.406107,-3.775470,-8.032162,-0.412093,0.034124,3.621931,-0.585449,0.463867,-0.317139,0.127651,-0.009330,-0.027420,0.999834,-0.002060,0.000171,0.018109,0.196133,-0.194915,0.371982,-0.886098
37712,NaN,11.830180,0.865059,-3.677261,-11.590941,-4.386623,-10.599165,0.688308,-0.210243,3.086621,-0.575195,0.474365,-0.321289,0.118187,0.010601,-0.036614,0.999874,0.003441,-0.001051,0.015432,0.211305,-0.189914,0.372027,-0.883673
37713,NaN,11.321301,2.348497,-3.805647,-10.742963,-5.240680,-12.111225,1.370946,-0.399100,2.644837,-0.566895,0.478760,-0.329590,0.112962,0.025239,-0.037662,0.999887,0.006854,-0.001995,0.013224,0.225003,-0.185313,0.368017,-0.882948
37714,NaN,10.505840,3.408700,-4.693372,-10.051306,-5.220045,-13.779191,1.508600,-0.656979,2.180598,-0.562988,0.485107,-0.335938,0.104829,0.035582,-0.046324,0.999907,0.007543,-0.003285,0.010903,0.237851,-0.183247,0.362873,-0.882140
37715,NaN,9.513737,4.642466,-5.835886,-9.277820,-5.036944,-15.700428,1.452144,-0.934370,1.667655,-0.552490,0.487061,-0.339844,0.095014,0.047637,-0.057572,0.999928,0.007261,-0.004672,0.008338,0.248207,-0.182627,0.356857,-0.881870
37716,NaN,8.644916,6.002624,-6.309779,-8.227725,-5.371098,-17.163136,1.492775,-1.101610,1.202881,-0.548096,0.485107,-0.341797,0.086428,0.061012,-0.062169,0.999939,0.007464,-0.005508,0.006014,0.257609,-0.184443,0.350181,-0.881471
37717,NaN,7.801561,7.064523,-6.512573,-7.167092,-5.647617,-18.174361,1.377373,-1.225485,0.808307,-0.554199,0.478760,-0.341797,0.078123,0.071405,-0.064157,0.999949,0.006887,-0.006127,0.004041,0.264566,-0.186671,0.343257,-0.881665
37718,NaN,7.196936,7.639073,-6.477074,-6.368116,-5.871100,-18.592073,0.974756,-1.352660,0.517246,-0.560791,0.482910,-0.335693,0.072205,0.076890,-0.063909,0.999962,0.004874,-0.006763,0.002586,0.270962,-0.191575,0.337755,-0.880795
37719,NaN,7.374341,7.926985,-6.413131,-6.313858,-6.350787,-18.652745,0.439204,-1.466904,0.245951,-0.564941,0.478760,-0.331543,0.074113,0.079501,-0.063414,0.999970,0.002196,-0.007334,0.001230,0.274926,-0.197045,0.334056,-0.879770
37720,NaN,8.066623,7.646669,-6.658606,-7.069626,-6.628532,-18.412689,-0.139033,-1.489519,-0.062546,-0.571045,0.474365,-0.325439,0.081183,0.076395,-0.066036,0.999972,-0.000695,-0.007448,-0.000313,0.277959,-0.205144,0.332562,-0.877529
37721,NaN,8.868403,6.901644,-7.030751,-8.194973,-6.579100,-17.891560,-0.534768,-1.377490,-0.417753,-0.572998,0.472412,-0.319336,0.089310,0.068643,-0.069878,0.999971,-0.002674,-0.006887,-0.002089,0.277851,-0.212646,0.332553,-0.875779
37722,NaN,9.025547,6.065227,-7.337770,-8.864220,-6.094196,-17.320904,-0.783934,-1.208495,-0.832015,-0.589844,0.470215,-0.309082,0.090948,0.059988,-0.073066,0.999965,-0.003920,-0.006042,-0.004160,0.276414,-0.221825,0.333302,-0.873670
37723,NaN,8.786874,5.576624,-7.212525,-8.906560,-5.712439,-16.767198,-0.925573,-1.044835,-1.236989,-0.598389,0.472412,-0.294922,0.088586,0.054887,-0.071919,0.999957,-0.004628,-0.005224,-0.006185,0.271703,-0.229746,0.334511,-0.872638
37724,NaN,8.556695,5.568346,-6.998203,-8.765861,-5.677863,-16.454512,-1.075453,-0.913669,-1.671630,-0.604492,0.463867,-0.292725,0.086346,0.054588,-0.069884,0.999940,-0.005377,-0.004568,-0.008358,0.265814,-0.239585,0.335786,-0.871315
37725,NaN,8.572544,5.127225,-6.769906,-8.959974,-5.466450,-15.765604,-1.176521,-0.800583,-2.163952,-0.623291,0.457520,-0.276367,0.086541,0.049941,-0.067650,0.999916,-0.005882,-0.004003,-0.010819,0.256290,-0.248276,0.337223,-0.871180
37726,NaN,8.679065,4.204309,-6.247608,-9.168252,-5.132871,-14.462599,-1.358040,-0.690741,-2.624866,-0.633545,0.444824,-0.270020,0.087544,0.040473,-0.062453,0.999885,-0.006790,-0.003454,-0.013124,0.245513,-0.259210,0.338576,-0.870575
37727,NaN,8.496746,3.320738,-6.187123,-9.410211,-4.344993,-13.562262,-1.651052,-0.571547,-2.994202,-0.645752,0.434326,-0.265869,0.085624,0.031418,-0.061891,0.999850,-0.008255,-0.002858,-0.014970,0.231261,-0.268781,0.341126,-0.870580
37728,NaN,7.933565,3.023918,-6.142865,-9.208250,-3.705080,-13.172326,-2.013510,-0.449571,-3.277923,-0.660400,0.423584,-0.251465,0.079948,0.028313,-0.061541,0.999812,-0.010067,-0.002248,-0.016389,0.216291,-0.280574,0.344364,-0.869431
37729,NaN,7.252310,3.417430,-5.864593,-8.647912,-3.505720,-13.215096,-2.430789,-0.303862,-3.581994,-0.670654,0.413086,-0.240967,0.073200,0.032152,-0.058934,0.999765,-0.012153,-0.001519,-0.017909,0.197772,-0.290652,0.349492,-0.868483
37730,NaN,6.788651,3.900091,-6.092256,-8.596219,-3.269046,-13.529127,-2.769351,-0.165956,-3.881322,-0.691162,0.395996,-0.228516,0.068666,0.036825,-0.061386,0.999715,-0.013845,-0.000830,-0.019405,0.178458,-0.302943,0.354910,-0.866266
37731,NaN,7.410601,3.265755,-5.791169,-9.145432,-3.034607,-12.312753,-2.871049,-0.098479,-4.259857,-0.703369,0.383301,-0.218018,0.074796,0.030234,-0.058321,0.999670,-0.014354,-0.000492,-0.021297,0.155766,-0.313418,0.360684,-0.864531
37732,NaN,9.345466,1.169356,-5.492573,-10.626031,-2.395509,-9.374132,-2.895726,0.025040,-4.699924,-0.721436,0.351562,-0.205322,0.093676,0.008697,-0.055078,0.999619,-0.014477,0.000125,-0.023497,0.132179,-0.326205,0.364830,-0.861985
37733,NaN,11.414317,-0.889690,-5.286977,-12.026799,-1.555179,-6.359920,-2.818508,0.168837,-5.202814,-0.737549,0.328369,-0.205078,0.113803,-0.012605,-0.052806,0.999562,-0.014090,0.000844,-0.026010,0.104785,-0.336715,0.368439,-0.860172
37734,NaN,13.854691,-2.934434,-5.018677,-13.345179,-0.745058,-2.955384,-2.659846,0.023918,-5.926925,-0.759766,0.296387,-0.194336,0.137577,-0.034095,-0.049771,0.999472,-0.013297,0.000120,-0.029629,0.076171,-0.351209,0.368610,-0.857308
37735,NaN,20.255802,-7.747592,-3.748049,-16.138951,0.385347,5.139284,-1.475044,-0.396185,-6.779376,-0.779297,0.251953,-0.185547,0.199844,-0.084553,-0.036476,0.999396,-0.007374,-0.001981,-0.033890,0.045200,-0.365777,0.362652,-0.855948
37736,NaN,34.602555,-19.108616,1.210009,-20.060198,2.417608,24.174533,0.539460,0.034606,-6.494645,-0.794922,0.209717,-0.197021,0.339581,-0.202216,0.011505,0.999469,0.002697,0.000173,-0.032467,0.019951,-0.379737,0.346912,-0.857353
37737,NaN,45.379093,-30.325037,7.529589,-19.283239,6.379606,41.394132,-1.671659,0.885713,-6.222916,-0.801758,0.162842,-0.192139,0.444414,-0.316544,0.075923,0.999471,-0.008357,0.004428,-0.031109,-0.011454,-0.386727,0.342165,-0.856291
37738,NaN,49.546993,-28.229303,7.893884,-19.861297,5.667797,43.912554,-4.452027,0.256149,-6.647920,-0.817627,0.131104,-0.187744,0.485872,-0.296708,0.084811,0.999199,-0.022254,0.001280,-0.033231,-0.047077,-0.399410,0.346429,-0.847492
37739,NaN,45.228130,-22.647132,6.765543,-16.947641,4.455085,38.109714,-5.805023,0.075720,-5.458845,-0.816895,0.105713,-0.183105,0.445942,-0.236611,0.074257,0.999206,-0.029017,0.000378,-0.027287,-0.081900,-0.406888,0.359827,-0.835619
37740,NaN,40.739467,-25.798142,8.299980,-9.304922,6.868006,37.727335,-6.281518,0.795070,-4.109921,-0.816406,0.092773,-0.191162,0.402364,-0.263540,0.089614,0.999288,-0.031400,0.003974,-0.020545,-0.111256,-0.411440,0.375198,-0.823144
37741,NaN,33.874185,-32.195794,10.400164,1.253554,10.297539,36.923897,-6.459112,1.474238,-3.016946,-0.815918,0.078125,-0.201172,0.334675,-0.323497,0.111957,0.999338,-0.032288,0.007370,-0.015081,-0.139659,-0.407197,0.394502,-0.811822
37742,NaN,24.355238,-32.488076,11.802198,9.724233,9.407186,30.245405,-5.693768,1.268743,-2.594206,-0.815430,0.067383,-0.205078,0.240123,-0.324504,0.125734,0.999491,-0.028464,0.006343,-0.012969,-0.162326,-0.406431,0.409309,-0.800582
37743,NaN,15.630505,-26.678149,10.175066,11.832004,6.771778,19.744122,-4.525950,1.210080,-2.436136,-0.817139,0.054688,-0.221191,0.153695,-0.266285,0.106846,0.999651,-0.022627,0.006050,-0.012179,-0.183705,-0.402788,0.421349,-0.791505
37744,NaN,9.221775,-20.700539,9.349344,12.235426,3.745361,11.096556,-2.931032,1.054046,-2.300253,-0.810059,0.033447,-0.226807,0.090341,-0.206657,0.096044,0.999813,-0.014654,0.005270,-0.011501,-0.199212,-0.403873,0.425533,-0.784935
37745,NaN,5.217436,-16.320972,8.610306,11.739988,1.707665,5.253097,-1.773935,0.886382,-2.216171,-0.812012,0.022949,-0.240967,0.050753,-0.163006,0.087322,0.999889,-0.008869,0.004432,-0.011080,-0.213367,-0.403329,0.427091,-0.780637
37746,NaN,2.653566,-13.121269,7.819691,10.970322,0.550725,1.128021,-1.120364,0.671921,-2.242308,-0.807129,0.005859,-0.252930,0.025330,-0.131061,0.078845,0.999916,-0.005602,0.003360,-0.011211,-0.224303,-0.407078,0.424630,-0.776959
37747,NaN,0.847568,-11.792776,7.290077,11.002459,0.152458,-1.336263,-0.980514,0.518621,-2.351042,-0.804199,-0.017334,-0.256592,0.007281,-0.117659,0.073458,0.999916,-0.004902,0.002593,-0.011755,-0.236525,-0.408952,0.423038,-0.773210
37748,NaN,-1.343735,-11.846983,6.903772,12.241699,0.371864,-3.502940,-1.139480,0.446196,-2.449319,-0.797119,-0.036621,-0.268555,-0.014728,-0.117899,0.069742,0.999906,-0.005697,0.002231,-0.012246,-0.247950,-0.413464,0.420460,-0.768623
37749,NaN,-3.985560,-12.016746,6.647422,13.771275,0.373623,-5.981763,-1.266541,0.339950,-2.495206,-0.796631,-0.051270,-0.272461,-0.041233,-0.119234,0.067301,0.999901,-0.006332,0.001700,-0.012476,-0.260860,-0.415823,0.419708,-0.763471
37750,NaN,-5.815471,-11.544850,6.603557,14.410271,-0.115916,-8.072482,-1.278969,0.174359,-2.460820,-0.791748,-0.070557,-0.276123,-0.059508,-0.114296,0.066820,0.999903,-0.006395,0.000872,-0.012304,-0.272179,-0.420649,0.417991,-0.757797
37751,NaN,-6.839243,-10.237304,6.671640,13.954707,-1.156779,-9.744560,-1.305513,0.039950,-2.408122,-0.791260,-0.083252,-0.280029,-0.069601,-0.101101,0.067393,0.999906,-0.006527,0.000200,-0.012040,-0.284119,-0.423746,0.417782,-0.751781
37752,NaN,-7.789587,-8.295070,6.569198,12.806466,-2.296845,-11.642680,-1.452816,-0.058301,-2.253254,-0.788574,-0.102295,-0.283691,-0.078839,-0.081586,0.066265,0.999910,-0.007264,-0.000291,-0.011266,-0.294684,-0.428186,0.417513,-0.745320
37753,NaN,-9.169789,-5.821874,5.725289,11.032117,-3.089691,-14.228101,-1.797897,-0.093901,-1.937530,-0.781982,-0.108643,-0.289795,-0.092280,-0.056809,0.057725,0.999913,-0.008989,-0.000469,-0.009687,-0.305543,-0.429925,0.420170,-0.738421
37754,NaN,-10.789956,-3.295765,3.970320,8.883381,-3.013223,-17.232218,-1.887055,-0.165955,-1.537177,-0.779541,-0.119385,-0.295654,-0.108180,-0.031751,0.039917,0.999926,-0.009435,-0.000830,-0.007686,-0.314294,-0.432110,0.423234,-0.731692
