// Start Time: Unknown
// Update Rate: 100.0Hz
// Filter Profile: human (46.1)
// Firmware Version: 4.4.0
PacketCounter,SampleTimeFine,Acc_X,Acc_Y,Acc_Z,FreeAcc_X,FreeAcc_Y,FreeAcc_Z,Gyr_X,Gyr_Y,Gyr_Z,Mag_X,Mag_Y,Mag_Z,VelInc_X,VelInc_Y,VelInc_Z,OriInc_q0,OriInc_q1,OriInc_q2,OriInc_q3,Quat_q0,Quat_q1,Quat_q2,Quat_q3
34407,NaN,7.246685,-1.176587,3.001708,0.000000,-0.000000,-1.882926,-2.366424,7.696823,-0.276416,-0.384521,0.567383,-0.616699,0.073537,-0.011533,0.027338,0.999189,-0.011829,0.038474,-0.001382,0.764492,-0.287170,-0.495136,-0.296524
34408,NaN,2.649206,-0.571467,0.930450,0.000000,-0.000000,-6.947699,-1.764987,6.445571,-0.215241,-0.346191,0.565186,-0.629639,0.026768,-0.005666,0.008495,0.999441,-0.008823,0.032222,-0.001076,0.767691,-0.292005,-0.516218,-0.242699
34409,NaN,-0.376607,-1.444698,-0.511930,-0.844551,-1.301876,-10.100315,-1.327040,5.437017,0.352094,-0.317139,0.586670,-0.638428,-0.003876,-0.014487,-0.004919,0.999607,-0.006634,0.027182,0.001760,0.775955,-0.284135,-0.487811,-0.281428
34410,NaN,0.074540,-2.121780,-0.500253,-1.204066,-1.802503,-9.570090,-1.824286,5.393501,0.787737,-0.275146,0.601562,-0.642822,0.000697,-0.021260,-0.004828,0.999587,-0.009120,0.026964,0.003938,0.787304,-0.285427,-0.463001,-0.290367
34411,NaN,-0.622006,-0.457289,-1.430113,0.183105,-1.204281,-10.888171,-2.226438,5.483791,0.811765,-0.239258,0.612305,-0.638916,-0.006589,-0.004757,-0.014072,0.999554,-0.011131,0.027415,0.004058,0.797160,-0.289092,-0.437063,-0.299897
34412,NaN,0.052176,0.194673,-0.548646,0.442861,-0.283751,-10.067431,-2.137597,5.398531,1.065214,-0.203613,0.625244,-0.638916,0.000363,0.001890,-0.005518,0.999564,-0.010686,0.026989,0.005325,0.807116,-0.291718,-0.410614,-0.307995
34413,NaN,0.285478,1.207851,0.139921,0.966369,0.790596,-9.781984,-1.949348,4.942495,1.160066,-0.166016,0.650879,-0.633057,0.002816,0.012107,0.001211,0.999630,-0.009746,0.024709,0.005800,0.815263,-0.295622,-0.386778,-0.313620
34414,NaN,2.500683,0.938713,-0.106114,2.038266,-0.232131,-8.099270,-2.111365,4.672248,1.217387,-0.125732,0.648682,-0.622559,0.024914,0.009523,-0.001744,0.999653,-0.010556,0.023359,0.006086,0.822803,-0.299153,-0.362490,-0.319538
34415,NaN,0.813023,-0.887656,-0.953796,0.147681,-1.493040,-9.484695,-2.227267,4.276631,1.099237,-0.103027,0.672119,-0.612305,0.007974,-0.008939,-0.009610,0.999694,-0.011135,0.021381,0.005496,0.826911,-0.302327,-0.343788,-0.326536
34416,NaN,-1.279354,-0.928548,0.252704,-1.502042,0.065654,-10.362200,-2.063708,3.697562,1.044054,-0.071533,0.685059,-0.604004,-0.012694,-0.009324,0.002858,0.999762,-0.010318,0.018486,0.005220,0.831655,-0.306545,-0.323472,-0.331278
34417,NaN,-1.510817,-3.143236,-0.026861,-3.221000,-1.327052,-9.975217,-1.672534,2.979510,1.003489,-0.054688,0.691406,-0.591553,-0.014949,-0.031507,0.000218,0.999841,-0.008362,0.014897,0.005017,0.834163,-0.312378,-0.308903,-0.333423
34418,NaN,-2.421428,-4.788009,0.353042,-5.124601,-1.627762,-9.786519,-1.093323,2.218979,0.841600,-0.039795,0.697754,-0.589355,-0.023969,-0.047960,0.004059,0.999915,-0.005466,0.011095,0.004208,0.837215,-0.314512,-0.296484,-0.335039
34419,NaN,-2.589937,-4.983294,1.207166,-5.599888,-1.017453,-9.035658,-0.529873,1.493904,0.507571,-0.027344,0.702148,-0.589600,-0.025681,-0.049866,0.012396,0.999965,-0.002649,0.007469,0.002538,0.841271,-0.326386,-0.279105,-0.328385
34420,NaN,-3.182895,-4.714132,2.069508,-5.989487,0.005261,-8.939414,-0.110906,0.736182,0.255436,-0.025146,0.702148,-0.581055,-0.031692,-0.047170,0.020838,0.999992,-0.000555,0.003681,0.001277,0.842530,-0.325998,-0.275407,-0.328664
34421,NaN,-3.379636,-4.788685,2.546388,-6.211238,0.394294,-8.362658,0.157088,-0.001128,-0.045039,-0.031494,0.702148,-0.585205,-0.033807,-0.047899,0.025426,1.000000,0.000785,-0.000006,-0.000225,0.848460,-0.340315,-0.253236,-0.316501
34422,NaN,-3.542544,-4.553423,3.028259,-6.264335,0.937023,-8.285108,0.263239,-0.599866,-0.461961,-0.040039,0.699951,-0.587402,-0.035621,-0.045492,0.030116,0.999992,0.001316,-0.002999,-0.002310,0.847411,-0.339560,-0.256981,-0.317104
34423,NaN,-3.928988,-4.805439,3.202439,-6.633509,1.060293,-7.900529,0.251950,-1.211328,-0.731486,-0.052734,0.697754,-0.589355,-0.039658,-0.047950,0.031724,0.999974,0.001260,-0.006057,-0.003657,0.853765,-0.352483,-0.232834,-0.304350
34424,NaN,-3.631064,-4.956123,3.639114,-6.643202,1.186554,-7.478303,0.337109,-1.714330,-0.934472,-0.065186,0.691406,-0.593506,-0.036852,-0.049451,0.035993,0.999951,0.001686,-0.008572,-0.004672,0.850900,-0.352548,-0.242300,-0.304910
34425,NaN,-2.678992,-5.081128,4.532096,-6.015307,1.427413,-5.899798,0.552215,-2.187570,-1.104583,-0.088623,0.693604,-0.589111,-0.027563,-0.050785,0.044882,0.999921,0.002761,-0.010938,-0.005523,0.857737,-0.362287,-0.219605,-0.291220
34426,NaN,-2.232311,-4.530733,5.787627,-5.657307,2.523265,-5.270590,0.725654,-2.694391,-1.399202,-0.114014,0.687256,-0.599609,-0.023416,-0.045355,0.057401,0.999878,0.003628,-0.013471,-0.006996,0.853951,-0.361518,-0.234724,-0.291508
34427,NaN,-1.501956,-3.621664,5.753378,-4.339561,2.723122,-5.098779,0.767596,-3.199251,-1.720641,-0.143555,0.682861,-0.603760,-0.016248,-0.036300,0.057141,0.999828,0.003838,-0.015995,-0.008603,0.860021,-0.366388,-0.218782,-0.279746
34428,NaN,-0.051876,-2.434652,4.513457,-2.449618,2.041351,-5.796417,0.159813,-3.364895,-1.989550,-0.168701,0.674316,-0.599365,-0.001520,-0.024371,0.045095,0.999809,0.000799,-0.016823,-0.009947,0.853686,-0.368161,-0.237077,-0.281909
34429,NaN,1.635273,-1.866455,4.768606,-0.771862,2.038231,-4.899115,-0.508648,-3.491147,-2.275607,-0.207031,0.678711,-0.586670,0.015304,-0.018721,0.048007,0.999780,-0.002543,-0.017454,-0.011377,0.855708,-0.373399,-0.227861,-0.276437
34430,NaN,4.451937,-0.090990,4.491805,2.314949,2.108874,-4.317967,-0.687622,-4.017712,-2.558872,-0.247314,0.674316,-0.580078,0.043590,-0.001315,0.045804,0.999710,-0.003438,-0.020087,-0.012793,0.846063,-0.378870,-0.248810,-0.280587
34431,NaN,8.206900,-0.380373,8.547006,3.997872,4.044140,0.588814,-0.098716,-3.735860,-2.445651,-0.279053,0.669922,-0.573486,0.080399,-0.004751,0.086985,0.999751,-0.000494,-0.018678,-0.012227,0.845820,-0.378238,-0.252519,-0.278852
34432,NaN,10.043473,-4.114336,11.834502,1.613820,4.199769,5.600937,0.952322,-3.092445,-2.142982,-0.308350,0.657227,-0.575439,0.098139,-0.042771,0.119673,0.999812,0.004761,-0.015461,-0.010714,0.840570,-0.375746,-0.270929,-0.280811
34433,NaN,10.189233,-6.490950,4.744037,1.491196,-2.912441,2.746523,2.031836,-3.572501,-1.948188,-0.342041,0.644287,-0.577393,0.100390,-0.066382,0.048573,0.999741,0.010158,-0.017861,-0.009740,0.843607,-0.360423,-0.283879,-0.278989
34434,NaN,10.300105,-9.260617,5.163549,-0.908764,-4.124030,4.352633,1.703719,-4.117413,-1.755510,-0.371338,0.629395,-0.570801,0.101099,-0.093946,0.052933,0.999713,0.008518,-0.020585,-0.008777,0.838143,-0.356386,-0.306703,-0.276475
34435,NaN,17.584296,-15.139556,9.814486,-1.957341,-5.733702,14.640878,0.376730,-3.580574,-1.115043,-0.400879,0.629395,-0.568604,0.173204,-0.152555,0.100975,0.999822,0.001884,-0.017902,-0.005575,0.835151,-0.354970,-0.321082,-0.270971
34436,NaN,26.168194,-14.986902,8.722302,3.392216,-8.017116,20.347338,0.729757,-2.753381,-0.963291,-0.413330,0.618652,-0.555664,0.259726,-0.151449,0.090257,0.999887,0.003649,-0.013766,-0.004816,0.830627,-0.354067,-0.335241,-0.268904
34437,NaN,24.500034,-12.466977,4.665352,5.048571,-8.542230,16.243618,0.434237,-3.178030,-0.876563,-0.438721,0.616455,-0.547119,0.243671,-0.125846,0.050260,0.999862,0.002171,-0.015889,-0.004383,0.823948,-0.359517,-0.350948,-0.262092
34438,NaN,17.991040,-11.347886,4.170744,1.465791,-6.703974,10.747694,0.574170,-2.973509,-0.952417,-0.455322,0.605713,-0.540771,0.178724,-0.114456,0.044043,0.999874,0.002871,-0.014867,-0.004762,0.818411,-0.359332,-0.365618,-0.259630
34439,NaN,10.198266,-7.387562,6.823791,-2.046582,-0.369791,4.357914,0.437293,-2.786581,-1.193136,-0.476318,0.601318,-0.536377,0.100577,-0.074629,0.069483,0.999883,0.002186,-0.013932,-0.005965,0.805033,-0.371601,-0.381523,-0.261295
34440,NaN,5.834575,-3.659202,2.378551,-0.349686,-1.002934,-2.604613,0.777176,-3.512316,-1.453022,-0.501465,0.588379,-0.521240,0.057649,-0.037107,0.024659,0.999812,0.003886,-0.017560,-0.007265,0.797727,-0.370220,-0.399303,-0.259086
34442,NaN,3.073368,-0.993989,1.080161,0.787007,0.040540,-3.047917,0.988598,-3.452131,-1.134770,-0.539062,0.571289,-0.497803,0.060445,-0.020796,0.023499,0.999291,0.009884,-0.034513,-0.011345,0.773626,-0.385779,-0.426553,-0.265951
34443,NaN,5.921124,1.018269,1.189767,3.078385,1.127707,-4.639581,0.148680,-3.022049,-0.645205,-0.558105,0.569092,-0.485107,0.059055,0.009983,0.012798,0.999880,0.000743,-0.015110,-0.003226,0.766517,-0.387800,-0.439634,-0.262269
34444,NaN,8.715273,0.988857,1.428985,4.250652,0.998563,-2.072815,-0.125948,-2.791836,-0.272750,-0.570801,0.569092,-0.474365,0.086955,0.009779,0.015498,0.999901,-0.000630,-0.013959,-0.001364,0.743988,-0.417596,-0.432856,-0.291085
34445,NaN,11.654107,0.456500,2.868745,4.447615,2.028416,1.157830,0.015487,-2.627113,0.051153,-0.583496,0.571045,-0.459473,0.116150,0.004592,0.030215,0.999914,0.000077,-0.013135,0.000256,0.738345,-0.421437,-0.442507,-0.285351
34446,NaN,13.941856,-1.733959,3.626086,3.368153,1.764423,4.189498,0.390175,-2.641423,0.283038,-0.589844,0.571045,-0.453125,0.138948,-0.017216,0.038064,0.999910,0.001951,-0.013207,0.001415,0.724665,-0.439361,-0.441294,-0.295097
34447,NaN,14.924093,-4.034244,3.821370,1.692434,1.247087,5.972533,0.690178,-2.829783,0.483164,-0.598389,0.573242,-0.432129,0.148779,-0.040119,0.040182,0.999891,0.003451,-0.014148,0.002416,0.720572,-0.442053,-0.451455,-0.285575
34448,NaN,15.333445,-5.297627,3.481959,0.748427,0.764967,6.744610,0.633914,-2.831688,0.273706,-0.610840,0.566650,-0.423584,0.152895,-0.052881,0.036819,0.999894,0.003169,-0.014158,0.001368,0.710948,-0.449961,-0.458648,-0.285883
34449,NaN,14.211983,-5.468000,3.219015,0.053735,0.810168,5.729772,0.353553,-2.963754,-0.007994,-0.623535,0.564453,-0.412842,0.141621,-0.054745,0.034195,0.999889,0.001768,-0.014818,-0.000040,0.704857,-0.452872,-0.469655,-0.278401
34450,NaN,11.417441,-5.158509,3.550803,-1.223754,1.478163,3.066922,0.335478,-2.964998,0.035039,-0.631836,0.560303,-0.391602,0.113641,-0.051626,0.037109,0.999889,0.001677,-0.014824,0.000175,0.697504,-0.454903,-0.482902,-0.270845
34451,NaN,8.477566,-4.947056,3.331423,-2.265896,1.434305,0.199479,0.502449,-3.158547,-0.009769,-0.642334,0.564453,-0.372559,0.084234,-0.049560,0.034523,0.999872,0.002512,-0.015792,-0.000049,0.690919,-0.457346,-0.494557,-0.262447
34452,NaN,6.311741,-4.504444,2.659161,-2.616301,1.010984,-2.110248,0.318807,-3.440682,-0.404413,-0.657227,0.562256,-0.357666,0.062557,-0.045215,0.027599,0.999849,0.001594,-0.017203,-0.002022,0.681323,-0.458733,-0.509678,-0.256108
34453,NaN,5.464058,-3.872044,1.108878,-1.828184,-0.044449,-3.275765,0.235118,-3.157274,-0.697909,-0.671631,0.553711,-0.340820,0.054321,-0.038924,0.011902,0.999869,0.001176,-0.015786,-0.003489,0.672834,-0.460136,-0.522268,-0.250611
34454,NaN,5.130967,-2.903984,1.219157,-1.327129,0.536642,-3.964976,0.666396,-2.505668,-0.576182,-0.677734,0.549316,-0.332275,0.051068,-0.029229,0.012735,0.999912,0.003332,-0.012528,-0.002881,0.666317,-0.459278,-0.533572,-0.245737
34455,NaN,4.675280,-2.800525,2.568244,-2.141612,1.746993,-4.459449,1.285448,-2.725555,-0.317368,-0.684082,0.544922,-0.323730,0.046354,-0.028246,0.026135,0.999885,0.006427,-0.013627,-0.001587,0.661531,-0.457445,-0.544899,-0.237078
34456,NaN,4.265891,-3.380148,3.060444,-3.093337,1.853508,-4.715260,1.602001,-3.084626,-0.122030,-0.692383,0.538574,-0.311035,0.042162,-0.034074,0.030985,0.999849,0.008010,-0.015422,-0.000610,0.656509,-0.455147,-0.557187,-0.226670
34457,NaN,4.284414,-2.338001,1.881999,-1.732341,1.413637,-5.083699,0.952119,-3.487816,0.187741,-0.709473,0.549072,-0.285645,0.042531,-0.023432,0.019452,0.999836,0.004760,-0.017438,0.000939,0.649065,-0.456423,-0.569195,-0.215428
34458,NaN,6.539458,-2.781178,-0.952948,-0.047181,-0.517869,-2.661896,0.170662,-3.073715,0.216865,-0.713623,0.544922,-0.270752,0.065561,-0.027733,-0.008546,0.999881,0.000853,-0.015368,0.001084,0.641491,-0.459556,-0.577969,-0.207962
34459,NaN,7.517739,-2.151834,-1.042688,0.667722,0.134696,-1.953424,-0.256155,-1.943037,0.201236,-0.717773,0.549072,-0.258057,0.075295,-0.021455,-0.009668,0.999951,-0.001281,-0.009715,0.001006,0.635466,-0.462957,-0.583444,-0.203582
34460,NaN,7.757389,-1.181530,-0.153051,0.978653,1.504660,-2.172382,-0.873058,-0.701109,0.525265,-0.702881,0.546875,-0.249756,0.077609,-0.011617,-0.001207,0.999981,-0.004365,-0.003506,0.002626,0.632377,-0.467808,-0.582987,-0.203424
34461,NaN,6.835979,-3.056744,3.273790,-2.603419,3.261629,-2.785941,-0.863549,-0.451070,0.759827,-0.705322,0.557617,-0.237061,0.068401,-0.030165,0.033023,0.999981,-0.004318,-0.002255,0.003799,0.629803,-0.473203,-0.581746,-0.202480
34462,NaN,7.624777,-3.832510,3.190732,-2.990426,3.136141,-1.798525,0.276029,-1.673428,0.409536,-0.705322,0.557617,-0.234863,0.076056,-0.038214,0.032491,0.999962,0.001380,-0.008367,0.002048,0.626739,-0.474904,-0.585379,-0.197475
34463,NaN,7.635811,-4.533923,2.744689,-3.377629,2.529097,-1.530825,1.001057,-2.189883,0.251688,-0.713623,0.557617,-0.219971,0.076110,-0.045383,0.028054,0.999927,0.005005,-0.010949,0.001258,0.622910,-0.474631,-0.592589,-0.188542
34464,NaN,8.177239,-4.613345,2.042674,-2.984359,2.138640,-0.933416,1.666052,-2.208343,0.121779,-0.717773,0.553223,-0.222168,0.081571,-0.046257,0.020943,0.999904,0.008330,-0.011041,0.000609,0.621845,-0.471539,-0.599030,-0.179229
34465,NaN,7.967379,-3.902467,0.918487,-1.892581,1.578288,-1.240728,1.351404,-1.773367,0.162667,-0.717773,0.555420,-0.215820,0.079621,-0.039024,0.009627,0.999938,0.006757,-0.008867,0.000813,0.619827,-0.469384,-0.605333,-0.170483
34466,NaN,6.864231,-4.421225,1.646753,-2.971096,1.538438,-2.184973,0.478826,-1.370568,0.342469,-0.715820,0.555420,-0.207275,0.068603,-0.044135,0.016832,0.999972,0.002394,-0.006853,0.001712,0.618893,-0.469810,-0.607202,-0.166000
34467,NaN,7.609996,-4.440305,2.973855,-3.657067,2.907872,-1.772689,0.118894,-1.219287,0.354156,-0.715820,0.561768,-0.196777,0.075995,-0.044286,0.030176,0.999980,0.000594,-0.006096,0.001771,0.615752,-0.471519,-0.610229,-0.161676
34468,NaN,9.023165,-3.240367,3.000659,-2.461729,4.106205,-0.980973,0.061589,-1.314162,0.101655,-0.718018,0.561768,-0.190430,0.090048,-0.032367,0.030589,0.999978,0.000308,-0.006571,0.000508,0.614202,-0.472435,-0.611712,-0.159276
34469,NaN,9.671173,-2.329443,2.728745,-1.538628,4.681645,-0.750819,0.073665,-1.261914,0.025189,-0.722168,0.559570,-0.179932,0.096540,-0.023292,0.027888,0.999980,0.000368,-0.006310,0.000126,0.610525,-0.473281,-0.615574,-0.155989
34470,NaN,10.529402,-1.835075,2.598163,-0.933895,5.190917,-0.160375,0.319504,-1.222745,-0.014818,-0.719727,0.553223,-0.179932,0.105131,-0.018401,0.026595,0.999980,0.001598,-0.006114,-0.000074,0.610056,-0.472764,-0.616959,-0.153905
34471,NaN,11.271631,-1.829175,2.427186,-0.773218,5.432695,0.491360,0.617506,-1.193467,0.010028,-0.728271,0.557373,-0.175537,0.112570,-0.018362,0.024887,0.999977,0.003088,-0.005967,0.000050,0.607829,-0.471819,-0.621037,-0.149145
34472,NaN,11.741495,-1.762302,2.644237,-0.797942,5.819822,0.838696,0.905367,-1.191220,0.005752,-0.724121,0.557373,-0.167236,0.117256,-0.017741,0.027061,0.999972,0.004527,-0.005956,0.000029,0.608968,-0.469256,-0.622616,-0.145966
34473,NaN,11.875311,-1.833698,2.524670,-0.851615,5.818420,0.965938,1.068089,-1.216984,0.089623,-0.728271,0.557373,-0.162842,0.118605,-0.018421,0.025870,0.999967,0.005340,-0.006085,0.000448,0.607731,-0.467156,-0.626870,-0.139508
34474,NaN,11.996037,-2.780006,2.490854,-1.547161,5.325937,1.460172,0.919078,-1.103179,0.088467,-0.724121,0.555176,-0.165039,0.119833,-0.027863,0.025442,0.999974,0.004595,-0.005516,0.000442,0.609326,-0.464430,-0.627925,-0.136881
34475,NaN,11.930196,-3.301795,2.706279,-2.160478,5.238727,1.520570,0.457573,-0.879087,0.064894,-0.734619,0.557373,-0.158691,0.119192,-0.033042,0.027511,0.999988,0.002288,-0.004395,0.000324,0.607666,-0.463835,-0.630758,-0.133203
34476,NaN,11.755422,-3.818712,3.015908,-2.764354,5.075171,1.521717,-0.152393,-0.579477,-0.003077,-0.728271,0.555176,-0.152344,0.117466,-0.038166,0.030529,0.999996,-0.000762,-0.002897,-0.000015,0.608531,-0.463569,-0.629575,-0.135753
34477,NaN,11.597770,-4.268701,3.516997,-3.488877,5.189787,1.411962,-0.686869,-0.344232,-0.044677,-0.734619,0.557373,-0.141846,0.115907,-0.042591,0.035516,0.999993,-0.003434,-0.001721,-0.000223,0.605822,-0.465749,-0.630254,-0.137252
34478,NaN,11.818077,-5.408827,3.755435,-4.418088,4.825050,2.028951,-0.875064,-0.279875,-0.005381,-0.732422,0.557373,-0.143799,0.118126,-0.053926,0.037956,0.999989,-0.004375,-0.001399,-0.000027,0.606218,-0.467413,-0.627392,-0.142844
34479,NaN,13.102918,-6.809878,3.683324,-5.247044,4.639476,3.699197,-0.516225,-0.325429,0.025089,-0.732666,0.563721,-0.135498,0.130977,-0.067987,0.037222,0.999995,-0.002581,-0.001627,0.000125,0.604007,-0.469286,-0.627947,-0.143626
34480,NaN,16.134628,-6.137436,3.395190,-3.947009,5.937852,6.270987,-0.086117,-0.163532,0.036404,-0.732422,0.557373,-0.135498,0.161330,-0.061330,0.034110,1.000000,-0.000431,-0.000818,0.000182,0.607008,-0.468634,-0.624813,-0.146735
34481,NaN,18.850935,-5.965389,2.736007,-2.906697,6.640078,8.785418,0.002077,0.292016,0.129311,-0.734863,0.563721,-0.137695,0.188588,-0.059532,0.027084,0.999999,0.000010,0.001460,0.000647,0.608020,-0.468817,-0.623624,-0.147020
34482,NaN,19.269242,-6.433579,2.257073,-2.662224,5.956221,9.557982,0.042472,0.801656,0.148550,-0.728271,0.557373,-0.156494,0.192829,-0.064197,0.021784,0.999992,0.000212,0.004008,0.000743,0.614611,-0.467258,-0.617151,-0.151816
34483,NaN,17.094836,-7.335845,2.072151,-3.504020,4.361128,8.048954,0.452753,1.360206,0.108173,-0.724365,0.563721,-0.167236,0.171123,-0.073311,0.019392,0.999974,0.002264,0.006801,0.000541,0.619933,-0.465156,-0.613045,-0.153260
34485,NaN,14.279046,-8.408347,2.085286,-8.938947,4.496655,22.053647,0.500211,2.189837,0.087444,-0.718018,0.563965,-0.198975,0.286537,-0.168102,0.034597,0.999747,0.005002,0.021897,0.000874,0.639489,-0.457617,-0.595803,-0.163276
34486,NaN,12.302368,-7.305577,3.453843,-4.597494,2.874915,3.870790,-0.298376,2.735020,0.074527,-0.720215,0.563965,-0.213867,0.123509,-0.072960,0.032961,0.999905,-0.001492,0.013675,0.000373,0.646955,-0.456516,-0.586587,-0.170168
34487,NaN,11.277400,-6.547053,3.554872,-4.004015,2.741627,2.801752,-1.206431,3.142833,0.216322,-0.711914,0.568359,-0.224365,0.113389,-0.065139,0.034164,0.999858,-0.006032,0.015713,0.001082,0.657494,-0.456888,-0.570444,-0.183165
34488,NaN,11.434628,-7.243034,2.868803,-3.798192,1.685923,3.384239,-1.289572,4.146107,0.499134,-0.697510,0.581299,-0.250000,0.115095,-0.071967,0.026772,0.999761,-0.006447,0.020729,0.002495,0.666674,-0.458644,-0.554356,-0.194629
34489,NaN,11.025804,-7.740683,4.186524,-4.530503,2.039738,3.389380,-0.582369,5.348815,0.860799,-0.689209,0.583496,-0.283691,0.111660,-0.076812,0.039116,0.999629,-0.002911,0.026741,0.004303,0.684447,-0.456189,-0.529261,-0.208101
34490,NaN,12.090252,-8.313079,5.749615,-4.897194,2.945263,4.871950,-0.504684,5.212147,1.114163,-0.666260,0.592041,-0.317871,0.122809,-0.082310,0.054520,0.999642,-0.002523,0.026058,0.005570,0.698003,-0.455277,-0.508169,-0.217437
34491,NaN,13.293562,-9.065617,4.781913,-3.822091,1.477563,6.464452,-0.657249,4.331581,1.253472,-0.647705,0.604980,-0.328613,0.134498,-0.089665,0.045213,0.999740,-0.003286,0.021656,0.006267,0.712155,-0.454538,-0.484620,-0.226659
34492,NaN,13.526489,-8.649882,3.231306,-2.153962,0.018039,6.421775,0.193676,3.878618,1.081435,-0.628662,0.607178,-0.364502,0.136322,-0.085793,0.029593,0.999797,0.000968,0.019392,0.005407,0.723075,-0.451980,-0.468472,-0.231108
34493,NaN,13.239115,-4.230132,1.519589,2.354396,0.140301,3.967533,1.682062,3.081067,0.704243,-0.622559,0.607422,-0.383545,0.132749,-0.041949,0.012799,0.999840,0.008410,0.015405,0.003521,0.737865,-0.442595,-0.453015,-0.233327
34495,NaN,13.548923,-1.178740,-3.664272,15.032157,-6.410320,13.129558,2.922162,2.060926,-0.001702,-0.609375,0.586182,-0.442627,0.269382,-0.021317,-0.079494,0.999361,0.029215,0.020605,-0.000017,0.759656,-0.415939,-0.444345,-0.229076
34496,NaN,13.954738,-1.231532,-4.453050,8.394555,-4.320082,1.453890,2.292199,2.470936,0.062475,-0.600586,0.575439,-0.470215,0.138986,-0.011747,-0.046387,0.999858,0.011460,0.012354,0.000312,0.771874,-0.403053,-0.434308,-0.230514
34497,NaN,15.059754,-3.345188,-0.258094,5.674772,-2.419237,4.328495,1.440919,3.265066,0.062113,-0.581543,0.573486,-0.495605,0.150536,-0.033374,-0.005280,0.999841,0.007204,0.016324,0.000311,0.781817,-0.393799,-0.423172,-0.233688
34498,NaN,13.566350,-5.061343,2.108989,2.857936,-1.999869,4.396899,1.724168,3.820293,-0.129901,-0.562256,0.562744,-0.522949,0.135995,-0.050866,0.018056,0.999780,0.008620,0.019100,-0.000649,0.794227,-0.380866,-0.408474,-0.239362
34499,NaN,9.394644,-7.484229,2.482991,-1.018240,-3.345650,1.942478,1.924495,4.074616,-0.047637,-0.543213,0.562744,-0.548584,0.094399,-0.075087,0.022188,0.999746,0.009622,0.020371,-0.000238,0.805955,-0.368153,-0.394582,-0.243319
34500,NaN,8.268747,-7.606316,-0.119608,-0.324079,-5.756961,-0.169883,0.695783,3.792286,0.138607,-0.521973,0.558594,-0.567627,0.082694,-0.075997,-0.003029,0.999814,0.003479,0.018960,0.000693,0.815664,-0.359809,-0.378253,-0.249309
34501,NaN,7.956522,-5.258204,-2.434874,2.223630,-6.301422,-2.586058,-0.988795,4.134566,0.378672,-0.505371,0.564941,-0.580322,0.079142,-0.052557,-0.025728,0.999772,-0.004944,0.020671,0.001893,0.821991,-0.359321,-0.359390,-0.257016
34502,NaN,10.033375,-4.929494,-1.158041,3.300870,-5.715278,-0.716648,-1.661202,4.498574,0.230837,-0.476074,0.580078,-0.595459,0.100102,-0.049286,-0.013424,0.999712,-0.008305,0.022491,0.001154,0.827731,-0.360054,-0.337083,-0.267578
34503,NaN,13.057166,-4.860156,0.675302,4.750792,-5.240025,2.208434,-1.428173,5.233151,-0.204660,-0.450684,0.584473,-0.614502,0.130645,-0.048702,0.003683,0.999632,-0.007140,0.026163,-0.001023,0.833402,-0.358484,-0.313759,-0.280154
34504,NaN,13.576331,-3.066545,3.013120,5.848082,-3.141937,2.783496,-0.864755,6.483992,-0.744275,-0.410645,0.590820,-0.631592,0.136533,-0.031055,0.025846,0.999458,-0.004323,0.032414,-0.003721,0.840766,-0.351331,-0.286162,-0.296296
34505,NaN,7.534839,-0.689819,-0.539515,4.662110,-3.242273,-4.785376,-1.352513,6.396072,-0.938931,-0.376953,0.597412,-0.646729,0.075092,-0.007298,-0.007751,0.999455,-0.006761,0.031975,-0.004694,0.845692,-0.346006,-0.258766,-0.313249
34506,NaN,8.837167,-0.954642,-1.915614,5.636014,-5.292269,-5.030089,-1.689630,6.713782,-0.931843,-0.338867,0.599609,-0.657471,0.087618,-0.010134,-0.022022,0.999390,-0.008446,0.033562,-0.004658,0.849533,-0.340969,-0.229285,-0.330851
34507,NaN,4.086779,0.414127,1.642141,2.851566,-0.340085,-6.448709,-1.649656,6.152352,-0.152483,-0.301270,0.618896,-0.664062,0.041350,0.004238,0.015120,0.999493,-0.008247,0.030757,-0.000762,0.853091,-0.337450,-0.200570,-0.343709
34508,NaN,-0.735335,-0.399762,1.123173,-0.893287,0.923342,-9.254953,-1.399583,5.081215,0.496291,-0.275879,0.625244,-0.666260,-0.007055,-0.003936,0.011441,0.999650,-0.006997,0.025403,0.002481,0.856357,-0.334885,-0.176140,-0.351397
34510,NaN,0.178835,-1.011868,0.123263,-1.202186,-1.066077,-8.508074,-1.915553,4.744098,0.779346,-0.202393,0.653076,-0.662598,0.003858,-0.020158,0.002673,0.998661,-0.019147,0.047420,0.007790,0.859889,-0.335541,-0.125957,-0.363509
34511,NaN,-1.023411,-0.101798,-0.398049,-0.814425,0.250746,-10.512525,-2.004711,4.482268,0.974121,-0.170898,0.668213,-0.656494,-0.010314,-0.001106,-0.003739,0.999687,-0.010023,0.022409,0.004870,0.860862,-0.336409,-0.101784,-0.367949
34512,NaN,-1.101465,-0.624140,-0.155373,-1.232111,0.223027,-10.055116,-2.063788,4.200100,0.903269,-0.139648,0.685303,-0.650391,-0.011015,-0.006305,-0.001258,0.999716,-0.010318,0.020999,0.004516,0.860946,-0.337927,-0.078361,-0.372072
34513,NaN,-0.204206,-2.776825,-0.814869,-2.180581,-1.747238,-9.032684,-1.763892,3.863267,0.924630,-0.107910,0.693848,-0.644043,-0.002067,-0.027848,-0.007864,0.999764,-0.008819,0.019315,0.004623,0.859900,-0.338702,-0.056141,-0.377757
34514,NaN,-2.779510,-0.356765,1.200939,-1.999718,2.294121,-9.632993,-1.146429,3.569376,0.690920,-0.086914,0.697998,-0.635742,-0.027562,-0.003592,0.012523,0.999818,-0.005732,0.017846,0.003454,0.860110,-0.337020,-0.037448,-0.381085
34515,NaN,-1.307659,-2.034935,1.430819,-2.002964,0.725382,-7.979774,-1.238771,2.673334,0.829866,-0.072510,0.717285,-0.627441,-0.012798,-0.020313,0.014606,0.999883,-0.006194,0.013366,0.004149,0.859041,-0.337399,-0.021406,-0.384387
34516,NaN,-2.374941,-3.193765,1.471819,-3.472152,0.891863,-7.542289,-0.927502,1.995668,0.836241,-0.051270,0.715088,-0.627686,-0.023466,-0.031967,0.015101,0.999931,-0.004637,0.009978,0.004181,0.859238,-0.337612,-0.009637,-0.384235
34517,NaN,-3.158818,-3.518351,1.730187,-4.113096,1.449134,-7.296279,-0.694796,1.478444,0.636444,-0.040527,0.717285,-0.621338,-0.031346,-0.035223,0.017657,0.999962,-0.003474,0.007392,0.003182,0.857385,-0.337778,0.000983,-0.388325
34518,NaN,-4.036769,-2.978338,2.460243,-4.135205,2.715430,-7.215564,-0.464761,0.808484,0.380998,-0.036377,0.717285,-0.619141,-0.040211,-0.029803,0.024834,0.999987,-0.002324,0.004042,0.001905,0.857325,-0.338193,0.005996,-0.388050
34519,NaN,-4.160735,-2.173334,2.975942,-3.497902,3.504930,-7.288515,-0.415437,0.113871,0.107596,-0.038574,0.719482,-0.610840,-0.041579,-0.021694,0.029828,0.999998,-0.002077,0.000569,0.000538,0.855420,-0.339708,0.009199,-0.390859
34520,NaN,-4.437725,-2.342826,4.467001,-3.380740,4.482796,-6.123331,-0.359175,-0.533128,-0.134616,-0.045166,0.725830,-0.614990,-0.044512,-0.023318,0.044593,0.999995,-0.001796,-0.002666,-0.000673,0.854567,-0.342289,0.007394,-0.390511
34521,NaN,-5.421553,-3.816552,5.977430,-4.588434,5.414356,-4.397999,-0.269180,-1.346218,-0.325755,-0.055664,0.725830,-0.606445,-0.054678,-0.037997,0.059459,0.999975,-0.001346,-0.006731,-0.001629,0.851599,-0.345907,0.004129,-0.393841
34522,NaN,-4.951605,-5.488125,5.814375,-5.509182,4.303242,-3.521981,-0.232220,-2.165722,-0.541235,-0.072754,0.725830,-0.610596,-0.050290,-0.054679,0.057666,0.999937,-0.001161,-0.010828,-0.002706,0.850123,-0.351148,-0.005569,-0.392371
34523,NaN,-3.081046,-6.124350,4.771973,-4.997303,2.272181,-3.517199,-0.228891,-2.667128,-0.861248,-0.102295,0.723633,-0.610596,-0.031707,-0.061054,0.047371,0.999901,-0.001144,-0.013335,-0.004306,0.846210,-0.357098,-0.015164,-0.395195
34524,NaN,-1.267275,-6.221316,2.891930,-4.401629,-0.020705,-4.399999,-0.438334,-2.719542,-1.220584,-0.117432,0.732178,-0.604248,-0.013445,-0.062069,0.028876,0.999887,-0.002192,-0.013597,-0.006103,0.842714,-0.364192,-0.027980,-0.395492
34525,NaN,0.319743,-5.469081,3.806422,-2.657229,-0.007397,-3.694017,-0.636726,-2.495259,-1.557596,-0.149170,0.732178,-0.595703,0.002295,-0.054589,0.038271,0.999887,-0.003184,-0.012476,-0.007788,0.836899,-0.371503,-0.037485,-0.400226
34526,NaN,1.852377,-3.835875,4.591118,-0.404943,0.342655,-3.572618,-0.673817,-2.731139,-1.891941,-0.180908,0.727783,-0.586914,0.017530,-0.038372,0.046284,0.999856,-0.003369,-0.013655,-0.009459,0.831230,-0.379377,-0.051071,-0.403139
34527,NaN,3.443706,-3.309304,4.740027,0.947128,-0.188042,-3.153792,-0.516808,-3.042674,-2.047695,-0.212891,0.732178,-0.582764,0.033369,-0.033315,0.047999,0.999829,-0.002584,-0.015213,-0.010238,0.824053,-0.387179,-0.063929,-0.408585
34528,NaN,4.427765,-4.130540,8.100177,1.499570,1.448370,0.082806,0.182974,-3.141679,-2.082907,-0.238281,0.723633,-0.582520,0.042565,-0.041829,0.081641,0.999822,0.000915,-0.015707,-0.010414,0.819002,-0.392107,-0.081265,-0.410955
34529,NaN,4.899029,-7.149275,12.544147,0.028078,3.479150,5.030816,1.629381,-3.196829,-2.104162,-0.273926,0.710693,-0.588623,0.046221,-0.073012,0.125604,0.999784,0.008146,-0.015983,-0.010520,0.816490,-0.390957,-0.100508,-0.412790
34530,NaN,6.341713,-6.318529,6.571095,0.109839,-1.159399,1.230070,2.168186,-3.977559,-2.278409,-0.311523,0.693604,-0.584229,0.061372,-0.064609,0.066250,0.999679,0.010840,-0.019886,-0.011391,0.813766,-0.389042,-0.125637,-0.413095
34531,NaN,11.011179,-5.815571,2.476265,2.582572,-6.400787,0.842471,1.178225,-4.669274,-2.067052,-0.351807,0.687256,-0.583984,0.108889,-0.059440,0.026967,0.999657,0.005890,-0.023344,-0.010334,0.808898,-0.392279,-0.149994,-0.411465
34532,NaN,19.168995,-12.083724,4.515150,2.480581,-11.116907,10.288780,1.607006,-3.830931,-1.494710,-0.376709,0.665771,-0.581543,0.189879,-0.122638,0.047820,0.999756,0.008034,-0.019153,-0.007473,0.805906,-0.392442,-0.171686,-0.408692
34533,NaN,22.376842,-14.536396,3.126974,2.054959,-14.249780,12.869506,1.339825,-3.689137,-1.127184,-0.410400,0.661377,-0.577148,0.222328,-0.146843,0.034399,0.999792,0.006699,-0.018444,-0.005636,0.803515,-0.393467,-0.191280,-0.403682
34534,NaN,25.156958,-14.023947,4.834495,3.756976,-13.496145,15.811264,0.659985,-3.573121,-0.960231,-0.429199,0.648682,-0.566406,0.249980,-0.141611,0.052355,0.999823,0.003300,-0.017865,-0.004801,0.799318,-0.397037,-0.208819,-0.399809
34535,NaN,18.023719,-10.209507,6.546798,2.191922,-6.732421,10.724587,0.861154,-3.438321,-1.168824,-0.454346,0.642090,-0.562012,0.178480,-0.103431,0.068103,0.999826,0.004306,-0.017191,-0.005844,0.795537,-0.399431,-0.227105,-0.394968
34536,NaN,12.620029,-6.090005,4.528577,2.077885,-4.024202,4.199047,0.870310,-3.492621,-1.318021,-0.479492,0.631348,-0.555664,0.124981,-0.061929,0.047208,0.999816,0.004351,-0.017462,-0.006590,0.790561,-0.401295,-0.245304,-0.392175
34537,NaN,8.482395,-5.113574,1.874840,0.478796,-3.809483,-0.492524,1.333820,-3.674796,-1.250842,-0.510986,0.620605,-0.542725,0.084142,-0.051794,0.019955,0.999789,0.006669,-0.018373,-0.006254,0.787712,-0.401113,-0.266847,-0.383941
34538,NaN,7.024320,-3.788801,3.572183,0.336447,-1.117384,-1.147367,1.422431,-3.591003,-1.103433,-0.529785,0.607910,-0.538330,0.069379,-0.038531,0.036700,0.999798,0.007112,-0.017954,-0.005517,0.783498,-0.400850,-0.285876,-0.379110
34539,NaN,7.661753,-2.214699,3.086016,1.858111,-0.915116,-1.516088,1.229845,-3.580200,-0.794616,-0.550781,0.601318,-0.525391,0.075961,-0.022644,0.032086,0.999813,0.006149,-0.017900,-0.003973,0.780643,-0.400992,-0.305709,-0.369248
34540,NaN,9.353753,-1.092838,2.451544,3.633041,-1.319438,-0.882512,0.843250,-3.435734,-0.456155,-0.571777,0.596924,-0.510498,0.093073,-0.011249,0.026070,0.999841,0.004216,-0.017178,-0.002281,0.776117,-0.403281,-0.321539,-0.362793
34541,NaN,11.775058,-0.376805,1.843346,5.497622,-1.918635,0.592827,0.306006,-3.196791,-0.304457,-0.586670,0.601318,-0.500000,0.117430,-0.003977,0.020306,0.999870,0.001530,-0.015983,-0.001522,0.772245,-0.406537,-0.337118,-0.353152
34542,NaN,13.138300,-0.889658,2.004746,5.604570,-2.018301,2.100587,0.122563,-3.150958,-0.109546,-0.603271,0.592529,-0.476562,0.131041,-0.008982,0.022108,0.999876,0.000613,-0.015754,-0.000548,0.766896,-0.411390,-0.349679,-0.346920
34543,NaN,14.760178,-2.154253,2.369098,5.159727,-2.155878,4.216769,0.147607,-3.292070,-0.156467,-0.618164,0.590332,-0.466064,0.147168,-0.021676,0.026100,0.999864,0.000738,-0.016460,-0.000782,0.762226,-0.415129,-0.365183,-0.336631
34544,NaN,14.932245,-3.007964,3.222573,4.097549,-1.372844,5.144193,0.627696,-3.454494,-0.172307,-0.630615,0.588135,-0.453125,0.148711,-0.030314,0.034703,0.999846,0.003138,-0.017272,-0.000861,0.756816,-0.418171,-0.379703,-0.328920
34545,NaN,14.107016,-3.387762,2.833130,3.277514,-1.236231,4.547778,0.657900,-3.380579,-0.080830,-0.647705,0.588135,-0.434082,0.140552,-0.034033,0.030598,0.999852,0.003289,-0.016902,-0.000404,0.753340,-0.418688,-0.397315,-0.315152
34546,NaN,13.176513,-3.461608,1.972706,2.844699,-1.524875,3.568786,0.227983,-3.047627,-0.250241,-0.655762,0.579590,-0.412842,0.131401,-0.034805,0.021692,0.999882,0.001140,-0.015238,-0.001251,0.747282,-0.422084,-0.409628,-0.309225
34547,NaN,11.227999,-3.632265,2.388521,1.436187,-0.669769,2.122390,-0.036579,-2.765256,-0.555169,-0.670654,0.581543,-0.397949,0.111834,-0.036629,0.025440,0.999901,-0.000183,-0.013826,-0.002776,0.741975,-0.423115,-0.424374,-0.300587
34548,NaN,8.184818,-3.323714,3.306274,-0.244231,0.753575,-0.413870,0.064380,-2.456523,-0.681371,-0.678711,0.572998,-0.389404,0.081320,-0.033526,0.034053,0.999919,0.000322,-0.012282,-0.003407,0.735816,-0.425087,-0.434989,-0.297757
34549,NaN,5.877447,-3.441238,2.482245,-1.206337,0.252655,-2.669398,0.401857,-2.559499,-0.667829,-0.695557,0.570801,-0.374512,0.058336,-0.034658,0.025501,0.999911,0.002009,-0.012797,-0.003339,0.731575,-0.423162,-0.450021,-0.288466
34550,NaN,4.548118,-3.176624,3.040336,-1.926015,1.007217,-3.871817,0.919782,-2.855270,-0.561931,-0.708008,0.560059,-0.359619,0.044953,-0.032034,0.030901,0.999884,0.004599,-0.014276,-0.002810,0.726203,-0.422601,-0.462926,-0.282377
34551,NaN,3.641169,-2.087883,2.660574,-1.408670,1.271481,-5.219955,1.110415,-3.407755,-0.376633,-0.714355,0.560059,-0.336426,0.035913,-0.021096,0.027104,0.999838,0.005552,-0.017038,-0.001883,0.721457,-0.419429,-0.481077,-0.268595
34552,NaN,3.890919,-1.575986,1.986584,-0.695813,1.031007,-5.338225,0.885841,-3.417969,0.122657,-0.726807,0.555664,-0.321533,0.038573,-0.015826,0.020457,0.999844,0.004429,-0.017089,0.000613,0.715148,-0.421053,-0.494261,-0.258812
34553,NaN,4.305427,-1.765683,1.061201,-0.318011,0.265400,-5.057949,0.601882,-3.157150,0.489063,-0.733398,0.564209,-0.304688,0.042923,-0.017585,0.011237,0.999868,0.003009,-0.015785,0.002445,0.709911,-0.422053,-0.507672,-0.245290
34554,NaN,4.728685,-2.019660,2.145858,-0.982810,1.197708,-4.460840,0.766659,-2.942537,0.735866,-0.731201,0.564209,-0.289795,0.047039,-0.020107,0.022075,0.999878,0.003833,-0.014712,0.003679,0.704877,-0.424757,-0.517440,-0.234492
34555,NaN,4.805766,-1.715870,3.021731,-1.285939,2.207218,-4.460764,0.699919,-2.969644,0.824811,-0.737549,0.568359,-0.268799,0.047673,-0.017069,0.030867,0.999875,0.003499,-0.014848,0.004124,0.700254,-0.425588,-0.529329,-0.219842
34556,NaN,5.458073,-1.845497,1.691393,-0.504094,1.254536,-3.962313,0.439895,-3.100083,0.748259,-0.739746,0.572754,-0.256104,0.054379,-0.018290,0.017718,0.999870,0.002199,-0.015500,0.003741,0.693718,-0.429380,-0.539004,-0.209433
34557,NaN,6.019979,-2.300538,1.033508,-0.368949,0.718152,-3.336085,-0.047794,-2.760255,0.750973,-0.746338,0.583252,-0.230713,0.060135,-0.022777,0.011171,0.999898,-0.000239,-0.013801,0.003755,0.687524,-0.432028,-0.549215,-0.197548
34558,NaN,8.249348,-1.776578,1.004744,0.668878,1.613046,-1.496192,-0.159688,-2.571542,0.581365,-0.744141,0.581055,-0.218018,0.082406,-0.017518,0.011121,0.999913,-0.000798,-0.012857,0.002907,0.680633,-0.436676,-0.556592,-0.190416
34559,NaN,8.492179,-2.806618,-1.155217,1.199595,-0.460587,-0.886524,1.365847,-1.656990,0.428674,-0.744141,0.578857,-0.220215,0.085074,-0.027807,-0.011038,0.999940,0.006829,-0.008285,0.002143,0.679901,-0.432380,-0.564800,-0.178280
34560,NaN,5.101751,-4.066443,1.513073,-2.393385,0.151151,-3.559532,1.847103,-1.516545,-0.039062,-0.746338,0.581055,-0.215820,0.050895,-0.040814,0.015140,0.999929,0.009235,-0.007583,-0.000195,0.679529,-0.427312,-0.571644,-0.169905
34561,NaN,4.697897,-4.009782,1.283424,-2.357114,-0.124815,-3.962553,1.482661,-1.958796,0.181041,-0.750244,0.572510,-0.207275,0.046889,-0.040151,0.012996,0.999924,0.007413,-0.009794,0.000905,0.677842,-0.421287,-0.581766,-0.156831
34562,NaN,5.774902,-4.415995,0.871059,-2.108088,-0.349898,-2.809649,0.901879,-1.594973,0.284271,-0.754639,0.576660,-0.203125,0.057741,-0.044118,0.008972,0.999957,0.004509,-0.007975,0.001421,0.675298,-0.420289,-0.587253,-0.149878
34563,NaN,6.504772,-4.773221,2.191633,-3.087622,0.663043,-2.071542,0.395555,-1.521706,0.462550,-0.748291,0.578857,-0.192627,0.064989,-0.047626,0.022317,0.999966,0.001978,-0.007608,0.002313,0.672423,-0.418922,-0.593763,-0.140704
34564,NaN,7.498562,-4.470883,2.572329,-2.935837,1.506474,-1.330673,-0.069577,-1.306507,0.283053,-0.754639,0.578857,-0.182129,0.074879,-0.044594,0.026228,0.999978,-0.000348,-0.006532,0.001415,0.668583,-0.420906,-0.597499,-0.137219
34565,NaN,8.521978,-3.602164,2.659991,-2.236446,2.495880,-0.788122,-0.176680,-1.359605,0.021835,-0.754639,0.585205,-0.171387,0.085040,-0.035988,0.027210,0.999976,-0.000883,-0.006798,0.000109,0.664490,-0.420536,-0.603409,-0.132287
34566,NaN,9.529494,-1.671904,2.817944,-0.879170,4.198510,-0.694265,0.077084,-1.256933,-0.034068,-0.759033,0.585205,-0.171387,0.095113,-0.016746,0.028771,0.999980,0.000385,-0.006285,-0.000170,0.660826,-0.421000,-0.607694,-0.129522
34567,NaN,10.968185,-0.377893,3.326640,-0.159922,5.919746,0.007686,0.526877,-1.266392,0.097574,-0.758789,0.583008,-0.158691,0.109470,-0.003814,0.033950,0.999976,0.002634,-0.006332,0.000488,0.658480,-0.418514,-0.613345,-0.122711
34568,NaN,12.557404,-0.453876,3.010155,0.231492,6.300403,1.465785,0.590233,-1.446612,0.066801,-0.756592,0.580811,-0.148193,0.125354,-0.004587,0.030995,0.999969,0.002951,-0.007233,0.000334,0.655300,-0.417651,-0.618310,-0.117650
34569,NaN,12.959800,-0.937879,2.941656,-0.129066,6.188592,1.984423,0.669909,-1.270333,-0.000953,-0.762939,0.585205,-0.144043,0.129408,-0.009480,0.030207,0.999974,0.003350,-0.006352,-0.000005,0.653056,-0.414633,-0.623858,-0.111345
34570,NaN,13.274892,-2.147885,3.201466,-1.181200,5.785380,2.686044,0.841839,-1.056235,-0.015441,-0.760742,0.578857,-0.150391,0.132576,-0.021626,0.032624,0.999977,0.004209,-0.005281,-0.000077,0.651484,-0.412415,-0.627793,-0.106578
34571,NaN,12.829735,-3.410408,4.118777,-2.893444,5.443253,2.645062,0.742117,-0.841306,-0.020504,-0.758545,0.576660,-0.141846,0.128119,-0.034271,0.041600,0.999984,0.003711,-0.004207,-0.000103,0.650725,-0.408595,-0.631982,-0.101027
34572,NaN,12.550013,-4.928305,5.265967,-4.850146,5.126885,2.825041,0.406104,-0.586646,0.004774,-0.760742,0.578613,-0.137695,0.125346,-0.049387,0.052927,0.999994,0.002031,-0.002933,0.000024,0.649700,-0.407582,-0.634081,-0.098529
34573,NaN,12.206368,-6.682366,5.676253,-6.417133,4.106953,3.141932,0.322382,-0.669824,-0.018651,-0.764893,0.580811,-0.135498,0.121867,-0.066927,0.057063,0.999993,0.001612,-0.003349,-0.000093,0.648594,-0.405669,-0.636904,-0.095461
34574,NaN,13.258012,-7.238144,5.570233,-6.580037,4.102842,4.296260,0.244892,-0.633801,-0.018801,-0.767334,0.585205,-0.133301,0.132396,-0.072462,0.056033,0.999994,0.001224,-0.003169,-0.000094,0.647060,-0.405115,-0.639109,-0.093456
34575,NaN,14.826060,-7.614002,5.750970,-6.745954,4.590031,5.816843,0.208047,-0.406863,-0.024749,-0.762695,0.578613,-0.126953,0.148134,-0.076218,0.057732,0.999997,0.001040,-0.002034,-0.000124,0.646587,-0.404092,-0.640442,-0.092030
34576,NaN,17.239362,-7.310527,5.772144,-6.205141,5.773858,7.854113,-0.123457,-0.038294,-0.026209,-0.762939,0.580811,-0.131348,0.172373,-0.073092,0.057800,1.000000,-0.000617,-0.000191,-0.000131,0.646204,-0.404425,-0.640560,-0.092433
34577,NaN,20.124205,-6.920272,4.872026,-4.742365,6.574542,10.457854,-0.403592,0.613253,0.075100,-0.760742,0.580811,-0.135498,0.201416,-0.069029,0.048242,0.999993,-0.002018,0.003066,0.000376,0.647898,-0.405542,-0.637745,-0.095102
34578,NaN,21.515721,-7.564502,2.792301,-3.174826,5.269114,12.325360,0.122157,1.417317,0.233428,-0.758789,0.585205,-0.150391,0.215436,-0.075410,0.026351,0.999974,0.000611,0.007087,0.001167,0.652761,-0.405207,-0.632721,-0.096827
34579,NaN,19.636421,-6.879320,1.172336,-1.508399,3.687577,10.642010,1.041405,2.135693,0.231164,-0.754639,0.585205,-0.167236,0.196551,-0.068619,0.009268,0.999929,0.005207,0.010678,0.001156,0.662354,-0.400909,-0.625393,-0.097175
34580,NaN,17.008033,-5.436730,0.254035,-0.017754,2.756586,7.830217,1.375861,2.747533,0.222689,-0.756592,0.578857,-0.194824,0.170151,-0.054183,-0.000170,0.999881,0.006879,0.013737,0.001113,0.673734,-0.395667,-0.616440,-0.097632
34581,NaN,16.062614,-5.606519,0.138221,0.238298,1.866098,7.095586,0.567865,3.574317,0.346936,-0.746582,0.587646,-0.222412,0.160712,-0.055785,-0.001648,0.999835,0.002839,0.017871,0.001735,0.686561,-0.392558,-0.603423,-0.102043
34582,NaN,14.561532,-6.650145,1.667266,-1.417846,1.348219,6.161792,-0.655701,4.346271,0.494646,-0.740479,0.592041,-0.251953,0.146099,-0.066092,0.013718,0.999755,-0.003278,0.021730,0.002473,0.698473,-0.393987,-0.587050,-0.110828
34583,NaN,14.190519,-7.561598,3.762750,-3.067283,1.778036,6.315137,-1.876299,4.808834,0.583662,-0.723877,0.602783,-0.269043,0.142986,-0.074864,0.034903,0.999663,-0.009380,0.024041,0.002918,0.709474,-0.399496,-0.567027,-0.124619
34584,NaN,14.364702,-10.123679,5.018529,-4.910044,0.845230,7.770117,-1.690576,5.239972,0.789851,-0.707275,0.613525,-0.302979,0.145308,-0.100257,0.047243,0.999613,-0.008452,0.026196,0.003949,0.721172,-0.404312,-0.545588,-0.137027
34585,NaN,13.259019,-12.700998,6.783989,-7.484090,-0.007817,8.272663,-0.260328,4.830498,0.839906,-0.694824,0.615723,-0.332764,0.134711,-0.126362,0.064768,0.999699,-0.001302,0.024150,0.004199,0.734574,-0.404485,-0.524920,-0.145782
34586,NaN,11.344860,-14.323059,5.394313,-7.797444,-2.799869,7.341804,1.546186,3.399142,0.852232,-0.679932,0.617920,-0.362305,0.114941,-0.143144,0.050891,0.999817,0.007730,0.016995,0.004261,0.747110,-0.398490,-0.511741,-0.145441
34587,NaN,9.213986,-13.689195,3.195419,-6.391444,-4.815458,4.966858,2.461223,2.230174,1.000032,-0.665283,0.622314,-0.381348,0.093160,-0.136799,0.029235,0.999850,0.012305,0.011150,0.005000,0.758877,-0.390173,-0.502125,-0.140502
34588,NaN,9.299981,-11.418085,-0.822825,-1.985349,-6.540557,3.256660,2.394490,0.894539,0.411540,-0.671387,0.609619,-0.400391,0.093192,-0.113876,-0.010009,0.999916,0.011972,0.004473,0.002058,0.766022,-0.381459,-0.499565,-0.134662
34589,NaN,10.189716,-4.930482,-8.355066,7.377865,-7.686065,-0.623967,1.342189,1.475505,-0.422047,-0.665039,0.607422,-0.415039,0.101172,-0.048953,-0.084628,0.999948,0.006711,0.007377,-0.002110,0.771924,-0.376237,-0.493154,-0.139204
34590,NaN,11.772101,0.545013,-10.328694,12.683130,-5.375610,-2.343449,0.238182,2.371596,-1.429710,-0.666992,0.596680,-0.434082,0.116521,0.004738,-0.104667,0.999903,0.001191,0.011858,-0.007148,0.777153,-0.370105,-0.486805,-0.148582
34591,NaN,15.613421,4.682475,-7.355089,15.087845,-0.572522,-0.231906,-0.449168,3.468986,-2.138929,-0.666748,0.586182,-0.459473,0.155314,0.044991,-0.076352,0.999790,-0.002246,0.017344,-0.010694,0.782591,-0.366137,-0.474576,-0.168144
34592,NaN,16.719837,3.924327,0.658746,10.362503,4.179853,3.244296,1.125036,4.348888,-2.023438,-0.651367,0.560547,-0.495117,0.167677,0.037524,0.003159,0.999697,0.005625,0.021742,-0.010116,0.793033,-0.353167,-0.462063,-0.181301
34593,NaN,15.579756,4.083731,4.667323,7.685331,6.463553,3.615413,3.420922,3.656930,-1.590972,-0.650879,0.539307,-0.531006,0.156939,0.038818,0.044486,0.999655,0.017103,0.018283,-0.007954,0.805650,-0.333144,-0.452398,-0.187830
34594,NaN,11.236006,2.204053,3.326891,5.249277,3.732061,0.221218,2.724947,3.345476,-0.528283,-0.629395,0.530762,-0.564941,0.112956,0.021304,0.031676,0.999764,0.013624,0.016726,-0.002641,0.817071,-0.317752,-0.442250,-0.189322
34595,NaN,9.389227,-3.161498,-1.180960,3.951023,-3.563248,-1.373109,0.715779,4.000009,-0.326304,-0.610596,0.530762,-0.592285,0.093578,-0.031721,-0.013797,0.999792,0.003579,0.019999,-0.001631,0.825788,-0.311921,-0.425380,-0.199580
34596,NaN,7.869970,-4.022778,-1.013869,2.661826,-4.242794,-2.460785,-1.132852,4.918402,-0.136542,-0.585449,0.543701,-0.615723,0.078395,-0.040345,-0.011841,0.999681,-0.005664,0.024589,-0.000683,0.834084,-0.311299,-0.404017,-0.210159
34597,NaN,6.065604,-5.138801,-2.376793,1.650621,-6.037317,-4.365705,-2.734484,5.475522,0.127339,-0.550049,0.562988,-0.622559,0.060021,-0.051683,-0.024712,0.999532,-0.013670,0.027373,0.000637,0.839011,-0.319598,-0.375455,-0.230111
34598,NaN,6.931663,-4.856476,-3.265037,2.742471,-6.790347,-4.459720,-3.600847,6.181877,0.117004,-0.516602,0.575928,-0.641602,0.068310,-0.049127,-0.033891,0.999360,-0.018000,0.030903,0.000585,0.844461,-0.327603,-0.344954,-0.246108
34599,NaN,6.975087,-5.141794,-0.907891,1.497298,-5.544501,-3.261250,-2.935087,6.860236,-0.104887,-0.472656,0.597412,-0.656738,0.069375,-0.051604,-0.010707,0.999304,-0.014672,0.034293,-0.000524,0.848706,-0.333401,-0.309706,-0.269488
34600,NaN,6.610895,-4.370828,0.312801,1.416970,-4.323857,-3.317069,-2.328927,6.577369,-0.515486,-0.438965,0.604004,-0.673828,0.066062,-0.043855,0.001465,0.999388,-0.011642,0.032880,-0.002577,0.853796,-0.333417,-0.279329,-0.286078
34601,NaN,5.152768,-3.671698,-0.265729,1.051866,-4.107579,-5.109518,-2.357492,6.004166,-0.891345,-0.409424,0.616699,-0.676270,0.051261,-0.036986,-0.003764,0.999470,-0.011785,0.030016,-0.004456,0.854804,-0.334774,-0.249854,-0.307913
34602,NaN,2.609218,-3.831328,1.291228,-1.141797,-2.272296,-5.727716,-1.854645,4.988493,-1.072807,-0.380127,0.625488,-0.689209,0.026204,-0.038336,0.012615,0.999632,-0.009272,0.024939,-0.005363,0.855966,-0.333554,-0.227380,-0.323050
34603,NaN,2.372417,5.663576,-0.287988,5.714455,1.899282,-11.045780,-1.997188,5.104643,-0.454046,-0.346680,0.644775,-0.689453,0.023759,0.056545,-0.004051,0.999622,-0.009985,0.025520,-0.002270,0.855217,-0.334450,-0.200947,-0.341127
34604,NaN,-0.926592,3.879341,2.045110,1.950082,3.956254,-10.609543,-2.096428,4.806918,0.813506,-0.308838,0.659668,-0.689697,-0.008936,0.038970,0.020261,0.999648,-0.010481,0.024032,0.004067,0.857629,-0.335912,-0.175385,-0.347672
34605,NaN,0.355020,0.174961,1.528560,0.317616,0.972954,-8.610545,-1.965178,4.384866,1.320101,-0.277588,0.674561,-0.683594,0.003872,0.001924,0.015185,0.999690,-0.009825,0.021922,0.006600,0.857832,-0.338640,-0.148767,-0.356813
34606,NaN,1.890020,-1.019610,0.202024,0.615263,-1.372907,-8.267139,-1.995252,4.340092,1.489033,-0.235596,0.696045,-0.692383,0.019015,-0.010037,0.001709,0.999687,-0.009975,0.021698,0.007444,0.860071,-0.340453,-0.124023,-0.359147
34607,NaN,0.947520,-0.744502,1.125854,0.216823,-0.144498,-8.184415,-1.929215,4.301300,1.478293,-0.206055,0.704590,-0.677734,0.009770,-0.007266,0.011121,0.999695,-0.009645,0.021504,0.007391,0.859429,-0.342366,-0.097372,-0.366997
34608,NaN,1.069215,-2.167526,1.413074,-0.587660,-0.761489,-7.183580,-1.822113,3.943963,1.395091,-0.170410,0.715332,-0.675781,0.011121,-0.021470,0.014110,0.999740,-0.009110,0.019718,0.006975,0.860567,-0.343546,-0.074666,-0.368545
34609,NaN,1.969571,-2.210160,1.255024,0.072742,-1.445376,-6.941447,-1.816714,3.514702,1.227659,-0.141113,0.732422,-0.661133,0.020049,-0.021866,0.012399,0.999785,-0.009083,0.017572,0.006138,0.858314,-0.345519,-0.051859,-0.375799
34610,NaN,1.224654,-3.137758,1.295476,-1.004976,-1.439144,-6.659609,-1.680293,3.152738,0.990920,-0.113770,0.743164,-0.655029,0.012606,-0.031207,0.013021,0.999828,-0.008401,0.015763,0.004954,0.857944,-0.347001,-0.033449,-0.377364
34611,NaN,-0.313890,-3.723778,2.113625,-2.249275,-0.226563,-6.162896,-1.410438,2.550317,0.734573,-0.096924,0.751709,-0.655273,-0.002730,-0.037098,0.021435,0.999887,-0.007052,0.012751,0.003673,0.854451,-0.348373,-0.016177,-0.385083
34612,NaN,-0.661059,-4.402483,2.092013,-2.872068,-0.329343,-5.833055,-1.012480,1.861523,0.610822,-0.088867,0.760254,-0.646729,-0.006280,-0.043937,0.021202,0.999939,-0.005062,0.009307,0.003054,0.853963,-0.349139,-0.005206,-0.385775
34613,NaN,-1.498098,-5.249776,2.349117,-3.890464,-0.013739,-5.319758,-0.729918,1.226191,0.399350,-0.073975,0.762451,-0.646973,-0.014731,-0.052441,0.023773,0.999973,-0.003650,0.006131,0.001997,0.853539,-0.349846,0.001991,-0.386103
34614,NaN,-2.329580,-5.754164,2.993140,-4.580129,0.700613,-4.710970,-0.584585,0.632673,0.128342,-0.073975,0.762207,-0.636230,-0.023164,-0.057469,0.030173,0.999991,-0.002923,0.003163,0.000642,0.852750,-0.351112,0.006048,-0.386653
34615,NaN,-2.814419,-6.216158,3.512564,-5.045933,1.148609,-4.145345,-0.551184,0.043806,-0.169484,-0.080322,0.764404,-0.627930,-0.028189,-0.062041,0.035303,0.999996,-0.002756,0.000219,-0.000847,0.851465,-0.353367,0.006989,-0.387414
34616,NaN,-2.872508,-6.597237,3.815375,-5.249124,1.240841,-3.710340,-0.324513,-0.553503,-0.498932,-0.088867,0.768799,-0.640625,-0.028995,-0.065838,0.038181,0.999992,-0.001623,-0.002768,-0.002495,0.849939,-0.355832,0.004383,-0.388546
34617,NaN,-1.651718,-6.008201,4.245098,-3.924732,1.008047,-3.454460,-0.068849,-1.044875,-0.821183,-0.101807,0.770996,-0.632080,-0.016985,-0.059998,0.042384,0.999978,-0.000344,-0.005224,-0.004106,0.848190,-0.358173,-0.001251,-0.390237
34618,NaN,-0.263284,-5.439392,4.238909,-2.651949,0.405902,-3.454549,-0.041765,-1.299454,-1.135583,-0.116699,0.770996,-0.632080,-0.003217,-0.054368,0.042381,0.999963,-0.000209,-0.006497,-0.005678,0.845860,-0.360863,-0.008711,-0.392712
34619,NaN,0.624059,-4.435405,5.673257,-1.077885,1.230741,-2.772141,0.149819,-1.777752,-1.420371,-0.141846,0.762207,-0.635986,0.005421,-0.044437,0.056750,0.999935,0.000749,-0.008889,-0.007102,0.843144,-0.363662,-0.018864,-0.395604
34620,NaN,0.991006,-4.057227,7.103480,-0.358268,2.166743,-1.870716,0.430347,-2.259664,-1.695615,-0.169434,0.758057,-0.633789,0.008762,-0.040803,0.071050,0.999898,0.002152,-0.011298,-0.008478,0.840274,-0.366117,-0.032318,-0.398563
34621,NaN,1.073740,-4.417644,8.082360,-0.521895,2.747931,-0.971751,0.252730,-2.569982,-1.961086,-0.199219,0.760254,-0.635742,0.009264,-0.044374,0.080893,0.999869,0.001264,-0.012849,-0.009805,0.836264,-0.369822,-0.046975,-0.402103
34622,NaN,1.201432,-4.027626,6.986360,-0.606147,2.298119,-2.014049,-0.237944,-2.799862,-2.206196,-0.232910,0.758057,-0.625244,0.010590,-0.040315,0.070066,0.999840,-0.001190,-0.013999,-0.011030,0.830599,-0.375866,-0.062272,-0.406143
34623,NaN,3.067256,-2.516052,4.167151,0.988215,-0.006030,-4.144968,-0.429292,-3.066501,-2.353601,-0.275391,0.760010,-0.612305,0.029730,-0.025424,0.042187,0.999811,-0.002146,-0.015332,-0.011767,0.823907,-0.383050,-0.078317,-0.410264
34624,NaN,4.273614,-2.700523,5.604901,1.720543,0.369685,-2.473299,0.175324,-3.290047,-2.498829,-0.306885,0.742920,-0.612061,0.041465,-0.027578,0.056714,0.999786,0.000877,-0.016449,-0.012493,0.817654,-0.388013,-0.096994,-0.414101
34625,NaN,3.269286,-4.239873,10.062789,0.318567,3.831733,0.916707,1.280538,-3.416218,-2.520776,-0.346680,0.730225,-0.611816,0.030428,-0.043437,0.100885,0.999754,0.006402,-0.017080,-0.012603,0.813093,-0.388500,-0.118296,-0.417079
34626,NaN,3.761421,-4.382997,5.409570,-0.489275,0.295431,-1.920714,2.018356,-4.133140,-2.339713,-0.390869,0.710938,-0.613525,0.035972,-0.044805,0.054402,0.999667,0.010091,-0.020663,-0.011697,0.809421,-0.387397,-0.143807,-0.417230
34627,NaN,7.505071,-4.487657,-1.747024,0.849582,-7.026503,-4.389138,1.612502,-4.921968,-2.137115,-0.428711,0.702148,-0.602783,0.074972,-0.045545,-0.015990,0.999608,0.008061,-0.024607,-0.010684,0.804302,-0.389383,-0.171003,-0.415014
34628,NaN,12.759721,-13.075999,2.381898,-2.928893,-9.406808,5.755648,1.488298,-4.502242,-1.681093,-0.461914,0.676514,-0.600342,0.125927,-0.132010,0.025687,0.999684,0.007441,-0.022509,-0.008405,0.799610,-0.391177,-0.195409,-0.411606
34629,NaN,19.163756,-16.975573,5.882032,-2.762366,-10.908349,13.922557,2.382776,-3.923067,-1.035369,-0.493408,0.665771,-0.593750,0.189577,-0.171455,0.060517,0.999723,0.011913,-0.019614,-0.005176,0.798009,-0.388721,-0.217750,-0.405786
34630,NaN,25.419374,-14.297397,7.866843,2.471098,-10.725311,18.315885,1.004263,-4.250063,-0.593461,-0.520752,0.655029,-0.581055,0.252029,-0.144135,0.083318,0.999757,0.005021,-0.021249,-0.002967,0.793938,-0.392594,-0.237841,-0.398703
34631,NaN,25.439148,-9.275981,4.125980,6.385219,-11.110869,14.393144,1.506197,-3.945086,-0.820945,-0.547852,0.642090,-0.576660,0.253137,-0.094133,0.045556,0.999769,0.007530,-0.019724,-0.004104,0.790135,-0.393760,-0.257804,-0.392654
34632,NaN,19.240930,-5.018942,6.633689,5.716902,-4.219837,9.907119,1.694779,-3.677449,-1.080402,-0.575195,0.629395,-0.567871,0.190875,-0.051803,0.069422,0.999780,0.008473,-0.018386,-0.005402,0.786439,-0.392803,-0.277725,-0.387412
34633,NaN,14.800996,-2.095916,4.830570,5.507959,-2.390814,4.703338,1.395004,-3.489200,-1.238170,-0.591553,0.614258,-0.554932,0.147004,-0.022220,0.050724,0.999804,0.006975,-0.017445,-0.006190,0.781472,-0.392696,-0.296404,-0.383715
34634,NaN,9.939489,-0.912023,3.837512,3.751509,-0.652115,0.179305,1.386031,-3.393339,-1.136910,-0.621094,0.607910,-0.546387,0.098671,-0.009956,0.039986,0.999816,0.006930,-0.016966,-0.005684,0.776842,-0.392031,-0.314495,-0.379370
34635,NaN,8.077580,0.034842,3.706848,3.373204,0.497061,-1.605621,0.815417,-3.191741,-0.984503,-0.643799,0.592773,-0.527100,0.080170,-0.000202,0.038351,0.999852,0.004077,-0.015958,-0.004922,0.771151,-0.393679,-0.330315,-0.375813
34636,NaN,7.365200,0.211859,3.407482,3.053497,0.740728,-2.327730,0.303119,-2.873491,-0.737208,-0.660889,0.594971,-0.520752,0.073159,0.001796,0.035131,0.999889,0.001516,-0.014367,-0.003686,0.765533,-0.396646,-0.343375,-0.372457
34637,NaN,7.848306,0.309487,3.455277,3.228204,0.866854,-1.909909,-0.228324,-2.545510,-0.458650,-0.671387,0.592773,-0.497559,0.078042,0.002956,0.035545,0.999916,-0.001142,-0.012727,-0.002293,0.759540,-0.401729,-0.353645,-0.369658
34638,NaN,8.452593,-1.006302,3.658362,2.251869,0.538825,-0.841779,-0.123313,-2.404222,-0.072722,-0.681885,0.590576,-0.486816,0.084074,-0.010071,0.037602,0.999927,-0.000617,-0.012021,-0.000364,0.754855,-0.406481,-0.362665,-0.365297
34639,NaN,8.940992,-2.388975,3.626394,1.230029,0.052640,0.050292,0.051813,-2.608719,0.294440,-0.692627,0.594727,-0.467773,0.088962,-0.023768,0.037420,0.999914,0.000259,-0.013043,0.001472,0.750483,-0.411767,-0.372110,-0.358828
34640,NaN,10.079314,-3.260847,3.018256,1.115311,-0.845179,1.112997,0.072997,-2.716044,0.568526,-0.701172,0.598877,-0.450928,0.100463,-0.032334,0.031537,0.999904,0.000365,-0.013580,0.002843,0.746530,-0.417382,-0.381223,-0.350932
34641,NaN,11.300258,-3.551966,2.209331,1.589969,-1.621535,2.020564,-0.159303,-2.979791,0.448652,-0.709717,0.603271,-0.425537,0.112736,-0.035248,0.023802,0.999886,-0.000796,-0.014898,0.002243,0.741004,-0.424214,-0.391234,-0.343353
34642,NaN,11.918071,-3.752593,2.250986,1.599650,-1.443653,2.698759,0.085916,-2.890086,0.175733,-0.720215,0.603027,-0.412842,0.118872,-0.037432,0.024213,0.999895,0.000430,-0.014450,0.000879,0.735759,-0.429155,-0.401673,-0.336368
34643,NaN,11.490939,-4.135977,2.957871,0.745452,-0.583686,2.716963,0.335630,-2.804337,0.081116,-0.730713,0.605225,-0.393799,0.114497,-0.041365,0.031117,0.999900,0.001678,-0.014021,0.000406,0.730681,-0.432958,-0.412506,-0.329381
34644,NaN,10.206037,-3.928668,2.152203,0.485705,-0.804612,1.293190,0.398075,-2.675309,0.062887,-0.737061,0.600830,-0.385254,0.101773,-0.039299,0.022806,0.999909,0.001990,-0.013376,0.000314,0.726064,-0.435998,-0.422759,-0.322509
34645,NaN,8.640518,-4.380724,1.938740,-0.605882,-0.819772,0.014106,0.478763,-2.374291,-0.010220,-0.745605,0.605225,-0.370361,0.086166,-0.043860,0.020306,0.999927,0.002394,-0.011871,-0.000051,0.721785,-0.438236,-0.432307,-0.316364
34646,NaN,7.009488,-4.112033,2.311711,-1.297086,-0.097127,-1.464523,0.448451,-2.305555,-0.133454,-0.753662,0.594482,-0.357666,0.069795,-0.041220,0.023831,0.999931,0.002242,-0.011528,-0.000667,0.717526,-0.439945,-0.441596,-0.310802
34647,NaN,5.581415,-2.893575,2.047916,-0.874539,0.382917,-3.270090,0.335188,-2.621507,-0.254235,-0.761963,0.594238,-0.340576,0.055503,-0.029042,0.021159,0.999912,0.001676,-0.013107,-0.001271,0.711779,-0.442439,-0.452170,-0.305222
34648,NaN,4.946521,-2.492274,1.894596,-0.830616,0.548012,-4.044060,0.311038,-2.733807,-0.309503,-0.772461,0.592041,-0.321533,0.049162,-0.025029,0.019580,0.999904,0.001555,-0.013669,-0.001547,0.705748,-0.444761,-0.463012,-0.299544
34649,NaN,3.838674,-2.279282,2.511925,-1.411944,1.303115,-5.064271,0.652253,-2.759888,-0.103076,-0.785156,0.594238,-0.304688,0.038024,-0.022895,0.025571,0.999899,0.003261,-0.013799,-0.000515,0.700357,-0.446533,-0.474010,-0.292271
34650,NaN,3.147184,-1.266871,2.189143,-0.773637,1.506142,-6.147405,0.969445,-2.855921,0.297633,-0.787354,0.592041,-0.289795,0.031174,-0.012730,0.022276,0.999885,0.004847,-0.014279,0.001488,0.696110,-0.447965,-0.484706,-0.282522
34651,NaN,3.833160,-0.491085,1.048204,0.548686,0.937299,-5.958822,0.789838,-3.043024,0.656763,-0.791504,0.596191,-0.272949,0.038182,-0.004828,0.011045,0.999871,0.003949,-0.015214,0.003284,0.691140,-0.451258,-0.494951,-0.271507
34652,NaN,5.112177,-1.272831,-0.230058,0.894419,-0.335007,-4.626807,0.271018,-2.853514,0.689236,-0.791504,0.598389,-0.251709,0.051191,-0.012549,-0.001588,0.999891,0.001355,-0.014267,0.003446,0.685552,-0.455851,-0.503569,-0.261987
34653,NaN,6.722187,-1.623661,0.982488,0.595345,0.902771,-2.912139,-0.109450,-2.379783,0.638771,-0.795898,0.604736,-0.230713,0.067150,-0.016016,0.010633,0.999924,-0.000547,-0.011899,0.003194,0.679902,-0.461101,-0.510170,-0.254650
34654,NaN,9.406218,-0.629661,0.247906,2.643754,1.217543,-0.842800,0.333438,-2.255200,0.804926,-0.791748,0.608887,-0.226562,0.094051,-0.005923,0.003530,0.999927,0.001667,-0.011276,0.004025,0.675895,-0.464857,-0.516366,-0.245845
34655,NaN,7.730562,-1.275392,0.546442,1.362371,1.118965,-2.159106,0.903186,-1.753676,0.491703,-0.791748,0.613281,-0.211670,0.077285,-0.012590,0.006085,0.999948,0.004516,-0.008768,0.002458,0.673859,-0.465333,-0.522352,-0.237753
34656,NaN,6.362335,-2.796363,0.411349,-0.310659,0.199240,-2.860658,0.674308,-2.202259,0.145469,-0.798096,0.608887,-0.205322,0.063594,-0.027933,0.004720,0.999933,0.003371,-0.011011,0.000727,0.669806,-0.466028,-0.530199,-0.230363
34657,NaN,6.094204,-2.993929,0.219089,-0.513193,-0.005933,-3.038716,0.986812,-2.126344,0.215267,-0.798096,0.611084,-0.194824,0.060947,-0.029886,0.002691,0.999931,0.004934,-0.010631,0.001076,0.666505,-0.465811,-0.538045,-0.222033
34658,NaN,5.400571,-3.568275,1.770881,-2.029327,0.992412,-3.493570,0.884266,-1.933398,0.309743,-0.802246,0.615234,-0.179932,0.053887,-0.035679,0.018072,0.999942,0.004421,-0.009667,0.001549,0.663670,-0.465817,-0.544716,-0.214106
34659,NaN,6.531565,-3.086264,3.208302,-2.103720,2.774462,-2.716568,0.388926,-1.971749,0.314720,-0.800049,0.613037,-0.167236,0.065044,-0.030823,0.032665,0.999948,0.001945,-0.009859,0.001574,0.659355,-0.467581,-0.551009,-0.207387
34660,NaN,8.040481,-1.603836,3.347650,-0.626319,4.071087,-1.973046,-0.110170,-1.920798,0.161161,-0.797852,0.610840,-0.150391,0.080091,-0.015955,0.034256,0.999953,-0.000551,-0.009604,0.000806,0.653943,-0.470358,-0.556823,-0.202659
34661,NaN,10.278005,-1.001826,3.149735,0.532934,4.904360,-0.209433,-0.193131,-1.612849,0.200750,-0.800049,0.615234,-0.139893,0.102532,-0.009884,0.032334,0.999967,-0.000966,-0.008064,0.001004,0.649070,-0.473223,-0.561496,-0.198719
34662,NaN,12.441480,-1.253586,3.287534,0.798936,5.640693,1.793814,-0.086527,-1.503042,0.189480,-0.802002,0.613037,-0.129150,0.124175,-0.012404,0.033815,0.999971,-0.000433,-0.007515,0.000947,0.644817,-0.475516,-0.565822,-0.194785
34663,NaN,13.502854,-1.690331,3.748872,0.395642,6.293505,2.815422,-0.084668,-1.627284,0.194326,-0.802246,0.621582,-0.114502,0.134734,-0.016756,0.038593,0.999966,-0.000423,-0.008136,0.000972,0.640126,-0.477836,-0.570645,-0.190463
34664,NaN,13.970897,-3.182307,4.190466,-1.019287,6.283546,3.690862,-0.075889,-1.719703,0.129768,-0.800049,0.621582,-0.101807,0.139362,-0.031716,0.043116,0.999963,-0.000379,-0.008598,0.000649,0.635139,-0.480069,-0.575744,-0.186149
34666,NaN,13.475817,-4.237326,4.865112,-5.146126,12.843417,16.670998,-0.131398,-1.505272,-0.105294,-0.808350,0.614990,-0.078613,0.267921,-0.084898,0.101455,0.999885,-0.001314,-0.015052,-0.001053,0.625585,-0.482843,-0.585678,-0.180240
34667,NaN,12.064047,-6.052875,4.962540,-4.608175,5.361294,2.710265,-0.289945,-1.108561,-0.136457,-0.808105,0.616943,-0.061523,0.120321,-0.060538,0.050381,0.999983,-0.001450,-0.005543,-0.000682,0.621507,-0.484342,-0.589203,-0.178836
34668,NaN,12.391718,-7.172354,4.802964,-5.436581,4.898000,3.397810,-0.043058,-0.985470,-0.247105,-0.810303,0.612793,-0.059326,0.123590,-0.071866,0.048655,0.999987,-0.000215,-0.004927,-0.001236,0.618391,-0.484319,-0.592965,-0.177257
34669,NaN,13.491214,-7.694985,4.845332,-5.720668,5.125114,4.529872,0.394986,-0.867656,-0.188903,-0.814453,0.610596,-0.055176,0.134628,-0.077173,0.048886,0.999988,0.001975,-0.004338,-0.000945,0.616601,-0.483301,-0.596447,-0.174567
34670,NaN,15.702668,-7.886130,4.550280,-5.286536,5.594503,6.625789,0.673572,-0.550760,-0.142263,-0.814453,0.612793,-0.055176,0.156845,-0.079127,0.045669,0.999990,0.003368,-0.002754,-0.000711,0.616641,-0.480973,-0.599141,-0.171609
34671,NaN,19.539024,-7.270711,3.699602,-3.502871,6.577905,10.006105,0.391229,0.002625,-0.161488,-0.818604,0.610596,-0.061523,0.195332,-0.072937,0.036851,0.999998,0.001956,0.000013,-0.000807,0.617451,-0.479280,-0.599854,-0.170941
34672,NaN,21.376610,-6.710637,1.493682,-1.364061,5.667227,11.872418,0.167522,0.519995,-0.075208,-0.816650,0.610596,-0.067871,0.213779,-0.067199,0.014325,0.999996,0.000838,0.002600,-0.000376,0.619599,-0.477745,-0.598597,-0.171869
34673,NaN,18.922982,-6.882409,-0.082347,-1.037148,3.298307,10.024000,0.784059,0.997678,0.035883,-0.820801,0.612793,-0.078369,0.189234,-0.068784,-0.002037,0.999980,0.003920,0.004988,0.000179,0.624478,-0.474556,-0.596080,-0.171791
34674,NaN,16.279154,-6.971040,-2.141420,-0.349600,0.458687,8.015714,0.792901,1.482093,0.030061,-0.820801,0.610840,-0.093262,0.162636,-0.069597,-0.022896,0.999965,0.003964,0.007410,0.000150,0.631071,-0.470471,-0.592075,-0.172781
34675,NaN,14.502621,-6.751750,-1.552043,-0.769097,0.189059,6.239900,-0.041442,2.166030,0.031391,-0.814697,0.613037,-0.105957,0.144857,-0.067498,-0.017076,0.999941,-0.000207,0.010830,0.000157,0.637378,-0.468795,-0.585095,-0.177890
34676,NaN,13.275578,-6.610988,0.563132,-2.018962,1.322753,4.830781,-1.021403,2.561215,0.037263,-0.819092,0.613037,-0.118652,0.132829,-0.066061,0.004268,0.999905,-0.005107,0.012806,0.000186,0.642739,-0.469446,-0.575899,-0.186677
34677,NaN,12.470592,-6.523655,1.040360,-2.269896,1.328905,4.052132,-1.835520,2.770277,0.121087,-0.812744,0.615234,-0.129150,0.124879,-0.065072,0.009272,0.999862,-0.009177,0.013851,0.000605,0.646433,-0.473042,-0.564917,-0.198050
34678,NaN,11.910700,-6.872263,0.250027,-2.109877,0.170410,3.776645,-2.123555,3.186193,0.263245,-0.812988,0.619385,-0.146240,0.119225,-0.068547,0.001330,0.999816,-0.010617,0.015930,0.001316,0.650858,-0.477043,-0.551768,-0.210631
34679,NaN,11.571243,-7.281913,-0.359434,-2.043659,-0.825416,3.684842,-1.881361,3.809207,0.505809,-0.808838,0.625977,-0.163086,0.115808,-0.072570,-0.005116,0.999771,-0.009406,0.019045,0.002529,0.657265,-0.480439,-0.536057,-0.223212
34680,NaN,11.816114,-7.609866,-0.365555,-1.975871,-1.199010,4.054825,-1.485934,4.383460,0.862397,-0.796631,0.638916,-0.192871,0.118378,-0.075626,-0.005686,0.999723,-0.007429,0.021915,0.004312,0.666524,-0.482302,-0.517700,-0.234769
34681,NaN,12.911521,-9.085223,0.424063,-2.772347,-1.275429,5.681936,-0.673986,4.916089,1.471315,-0.778320,0.658203,-0.227051,0.129836,-0.089891,0.001359,0.999665,-0.003370,0.024578,0.007356,0.679129,-0.482423,-0.496804,-0.243387
34682,NaN,13.080527,-9.631955,2.666740,-3.601065,0.074910,6.248527,0.207212,5.100045,1.659202,-0.759521,0.660645,-0.269287,0.132220,-0.095252,0.023208,0.999640,0.001036,0.025497,0.008295,0.694344,-0.479223,-0.475423,-0.249408
34683,NaN,12.783771,-8.173063,3.775039,-2.467501,1.157982,5.582144,0.436596,4.787527,1.391855,-0.745117,0.675781,-0.303223,0.129254,-0.080912,0.034490,0.999687,0.002183,0.023935,0.006959,0.708290,-0.474895,-0.455862,-0.254932
34684,NaN,12.678095,-5.595456,4.410887,-0.250986,2.334663,4.538455,0.426796,4.091974,1.007842,-0.730469,0.677979,-0.330811,0.127926,-0.055402,0.041381,0.999776,0.002134,0.020458,0.005039,0.720018,-0.470156,-0.439222,-0.260020
34685,NaN,12.855429,-4.692773,3.747599,1.180912,1.700139,4.223677,0.537144,3.695097,0.833208,-0.716064,0.684326,-0.362793,0.129410,-0.046486,0.034965,0.999817,0.002686,0.018474,0.004166,0.730350,-0.465161,-0.424577,-0.264480
34686,NaN,11.896112,-3.298712,2.958208,2.362377,1.143468,2.606760,1.980177,3.348391,0.182962,-0.707520,0.676025,-0.406982,0.119461,-0.033156,0.027257,0.999810,0.009900,0.016741,0.000915,0.742434,-0.453562,-0.414283,-0.267288
34687,NaN,10.553497,-1.768523,0.275451,3.991589,-0.921345,0.076155,4.038201,2.384215,-0.461287,-0.700684,0.656738,-0.436523,0.105514,-0.017962,0.001136,0.999722,0.020189,0.011920,-0.002306,0.755710,-0.434304,-0.411757,-0.265969
34688,NaN,11.505237,-0.976724,-3.584028,6.721346,-4.184373,-0.676045,4.768787,1.558928,-0.328938,-0.702393,0.635498,-0.476562,0.114752,-0.009084,-0.036958,0.999684,0.023841,0.007794,-0.001645,0.768847,-0.413115,-0.412668,-0.260605
34689,NaN,10.362708,-2.188130,-4.237523,5.660291,-5.444626,-1.539873,4.263843,1.703898,-0.551760,-0.701904,0.614258,-0.516602,0.103199,-0.021244,-0.043713,0.999733,0.021317,0.008519,-0.002759,0.780248,-0.393254,-0.412699,-0.257379
34690,NaN,9.283368,-2.387504,-3.727829,4.878127,-5.232497,-2.424000,3.014163,2.659519,-0.354308,-0.682617,0.605713,-0.552490,0.092282,-0.023461,-0.038864,0.999796,0.015070,0.013297,-0.001771,0.791238,-0.376988,-0.406775,-0.257598
34691,NaN,6.237647,-4.907862,-2.317647,0.929879,-5.457332,-3.671611,1.193307,3.453659,-0.024670,-0.674072,0.603760,-0.573730,0.061954,-0.048943,-0.024541,0.999833,0.005966,0.017267,-0.000123,0.800350,-0.367704,-0.394624,-0.261736
34692,NaN,7.565480,-6.195041,-8.175838,3.266445,-11.260930,-4.816516,-1.441354,4.428395,-0.411822,-0.642578,0.612305,-0.594971,0.073698,-0.062699,-0.082955,0.999727,-0.007206,0.022140,-0.002059,0.805818,-0.366558,-0.375650,-0.274190
34693,NaN,6.780853,-2.830862,-7.389572,4.645344,-8.826058,-6.798295,-3.273569,6.506235,-0.037766,-0.605225,0.631592,-0.616455,0.065362,-0.029549,-0.075572,0.999337,-0.016364,0.032524,-0.000189,0.811454,-0.370510,-0.344770,-0.292229
34694,NaN,8.293468,-1.990803,-1.809657,4.090668,-4.587669,-3.630903,-4.111782,7.336068,-0.001679,-0.563232,0.650879,-0.631592,0.082207,-0.020317,-0.020706,0.999116,-0.020553,0.036670,-0.000008,0.815811,-0.376068,-0.308719,-0.312598
34695,NaN,9.690582,-4.890798,5.511350,1.032239,-1.104428,2.265094,-1.572703,7.312215,-0.830146,-0.531738,0.655273,-0.663330,0.098640,-0.048898,0.051912,0.999292,-0.007862,0.036552,-0.004150,0.822267,-0.369505,-0.277779,-0.331936
34696,NaN,8.682584,-0.286347,7.161933,3.891170,2.258631,0.505988,-0.508023,6.536359,-0.701292,-0.489502,0.657471,-0.691162,0.089094,-0.002996,0.068739,0.999457,-0.002540,0.032676,-0.003506,0.828826,-0.359521,-0.251256,-0.347364
34697,NaN,7.297725,-2.229370,0.430069,2.882354,-3.838363,-3.866591,-1.529490,6.220389,-0.492304,-0.453613,0.661865,-0.706055,0.073012,-0.022451,0.002201,0.999484,-0.007646,0.031097,-0.002461,0.832610,-0.354250,-0.223577,-0.362326
34698,NaN,4.958970,-3.227935,2.727929,0.448366,-1.842150,-3.579574,-1.090612,5.475044,-0.315294,-0.417480,0.666260,-0.718994,0.050264,-0.032214,0.026085,0.999609,-0.005452,0.027372,-0.001576,0.835946,-0.348316,-0.199380,-0.374323
34699,NaN,3.861145,-2.996059,2.800069,0.033995,-1.346024,-4.343807,-1.024774,4.893915,-0.138282,-0.388184,0.678955,-0.725342,0.039263,-0.029847,0.027198,0.999687,-0.005123,0.024467,-0.000691,0.838522,-0.343190,-0.177183,-0.384328
34700,NaN,5.242526,0.365342,0.431612,3.649149,-2.355518,-6.823864,-1.750654,4.969642,0.353257,-0.348389,0.696289,-0.734131,0.052504,0.003776,0.002979,0.999651,-0.008752,0.024845,0.001766,0.840339,-0.341133,-0.152413,-0.392721
34701,NaN,3.717156,0.841932,0.426061,3.066750,-1.447550,-8.022851,-2.097563,5.054758,1.147604,-0.306641,0.715576,-0.734375,0.037213,0.008670,0.003230,0.999609,-0.010486,0.025270,0.005737,0.842539,-0.340758,-0.125038,-0.397966
34702,NaN,3.619357,-0.992676,-0.094161,1.618782,-2.674162,-7.734194,-1.991203,4.926447,1.362262,-0.260254,0.728271,-0.732666,0.036224,-0.009695,-0.001736,0.999624,-0.009955,0.024629,0.006810,0.844659,-0.340032,-0.098101,-0.401630
34703,NaN,1.462016,-0.598440,1.869089,0.765432,0.025863,-7.488612,-1.949437,4.516922,1.403683,-0.224609,0.745605,-0.730713,0.015079,-0.005699,0.018410,0.999673,-0.009746,0.022582,0.007018,0.846104,-0.339768,-0.072690,-0.404207
34704,NaN,2.666828,-1.745229,0.967617,0.669059,-1.882225,-7.147615,-2.022865,4.116231,1.349400,-0.195312,0.764648,-0.718262,0.026979,-0.017176,0.009298,0.999714,-0.010113,0.020579,0.006746,0.846685,-0.340379,-0.049034,-0.406032
34705,NaN,2.312258,-1.948997,1.475524,0.460624,-1.486754,-6.829619,-2.024928,3.817914,1.167919,-0.157471,0.775391,-0.705811,0.023514,-0.019206,0.014504,0.999750,-0.010124,0.019088,0.005839,0.846335,-0.341398,-0.026758,-0.407981
34706,NaN,0.916349,-3.160159,1.719062,-1.181565,-0.967890,-6.429244,-1.939115,3.292696,0.995364,-0.127930,0.783936,-0.697510,0.009605,-0.031387,0.017340,0.999805,-0.009695,0.016462,0.004976,0.845358,-0.342952,-0.007325,-0.409513
34707,NaN,-0.660665,-4.352035,1.856035,-2.926380,-0.326446,-6.051043,-1.611881,2.646921,0.862299,-0.113281,0.796875,-0.691406,-0.006170,-0.043396,0.018994,0.999871,-0.008059,0.013234,0.004311,0.844348,-0.344328,0.008646,-0.410414
34708,NaN,-1.894617,-5.083920,2.547269,-3.946967,0.622020,-5.345287,-1.049001,1.970595,0.630165,-0.085938,0.805420,-0.687256,-0.018532,-0.050763,0.025923,0.999933,-0.005245,0.009853,0.003151,0.843697,-0.344679,0.020081,-0.411057
34709,NaN,-2.305075,-4.925738,3.727378,-3.658778,1.639438,-4.578697,-0.525332,1.009750,0.517106,-0.081787,0.809570,-0.685303,-0.022734,-0.049218,0.037518,0.999980,-0.002627,0.005049,0.002586,0.843738,-0.344757,0.026314,-0.410557
34710,NaN,-3.768342,-5.294037,4.018436,-4.740995,2.675620,-4.451808,-0.099132,0.245736,0.205121,-0.079590,0.807373,-0.685303,-0.037580,-0.052959,0.040257,0.999999,-0.000496,0.001229,0.001026,0.843940,-0.344664,0.027849,-0.410118
34711,NaN,-4.113606,-5.333726,4.235644,-4.933582,3.026212,-4.352590,0.142622,-0.617602,-0.211328,-0.094727,0.811768,-0.687256,-0.041323,-0.053324,0.042191,0.999994,0.000713,-0.003088,-0.001057,0.843834,-0.345353,0.024589,-0.409964
34712,NaN,-3.316431,-5.117274,4.120681,-4.341709,2.510789,-4.426591,0.107880,-1.215963,-0.530896,-0.107422,0.807373,-0.685059,-0.033550,-0.051106,0.040976,0.999978,0.000539,-0.006080,-0.002654,0.843040,-0.347463,0.018335,-0.410143
34713,NaN,-3.010499,-5.385019,3.887060,-4.450941,2.098648,-4.431746,-0.163528,-1.424740,-0.859198,-0.122314,0.809570,-0.683105,-0.030612,-0.053688,0.038698,0.999965,-0.000818,-0.007124,-0.004296,0.841096,-0.351137,0.011175,-0.411262
34714,NaN,-2.784085,-5.393087,3.196740,-4.574807,1.609718,-4.961477,-0.356813,-1.764322,-1.130732,-0.149902,0.809570,-0.674561,-0.028426,-0.053714,0.031814,0.999944,-0.001784,-0.008821,-0.005654,0.838162,-0.356322,0.002582,-0.412931
34715,NaN,-1.046418,-4.241189,2.119404,-3.007316,0.311753,-6.013675,-0.595540,-1.883404,-1.426635,-0.173340,0.818115,-0.670166,-0.010966,-0.042272,0.021218,0.999926,-0.002978,-0.009417,-0.007133,0.834119,-0.362695,-0.006620,-0.415517
34716,NaN,0.214657,-2.484119,4.029579,-0.452336,1.392798,-5.306184,-0.625456,-2.031204,-1.718872,-0.194580,0.820312,-0.663818,0.001524,-0.024730,0.040391,0.999907,-0.003127,-0.010156,-0.008594,0.829219,-0.369457,-0.016773,-0.419066
34717,NaN,0.944372,-1.582198,5.930846,1.122029,2.546824,-4.260884,-0.614972,-2.222956,-2.022257,-0.224365,0.818115,-0.659424,0.008624,-0.015729,0.059456,0.999882,-0.003075,-0.011114,-0.010111,0.823563,-0.376447,-0.028430,-0.423347
34718,NaN,1.279479,-0.160381,6.483654,2.427934,3.326788,-4.642042,-0.868861,-2.582424,-2.280934,-0.264648,0.820312,-0.644531,0.011939,-0.001461,0.065001,0.999842,-0.004344,-0.012911,-0.011404,0.816580,-0.385115,-0.041390,-0.427984
34719,NaN,2.820471,-0.232115,6.307174,3.194888,2.323782,-4.140142,-0.561772,-3.178274,-2.495263,-0.304932,0.818115,-0.635986,0.027167,-0.002486,0.063516,0.999792,-0.002809,-0.015890,-0.012475,0.809333,-0.393609,-0.057955,-0.432080
34720,NaN,3.769611,-3.185845,12.308273,2.801113,5.141904,2.084644,0.600447,-3.122628,-2.540139,-0.346924,0.801025,-0.639893,0.035358,-0.032688,0.123550,0.999793,0.003002,-0.015612,-0.012700,0.803987,-0.397075,-0.076803,-0.435932
34721,NaN,4.399485,-4.509618,10.236113,1.292341,3.165071,1.709433,1.504706,-3.384277,-2.334970,-0.382568,0.788086,-0.633301,0.041722,-0.046364,0.102734,0.999760,0.007523,-0.016920,-0.011674,0.800395,-0.397407,-0.098300,-0.437918
34722,NaN,6.681441,-4.401912,-0.309333,0.443587,-5.623147,-4.130151,1.020014,-4.038292,-2.141639,-0.422852,0.781738,-0.630859,0.066385,-0.044720,-0.001977,0.999726,0.005100,-0.020190,-0.010707,0.795622,-0.400919,-0.120891,-0.437761
34723,NaN,9.768200,-12.311885,0.553502,-4.056465,-8.931387,2.478307,0.983427,-4.150746,-1.674393,-0.464600,0.764404,-0.622314,0.096512,-0.123962,0.006938,0.999738,0.004917,-0.020752,-0.008371,0.791213,-0.404970,-0.142875,-0.435394
34724,NaN,15.447886,-18.943557,5.066246,-5.844273,-10.394657,12.117618,1.907505,-3.437089,-1.053963,-0.489502,0.745117,-0.626221,0.152596,-0.190731,0.051481,0.999793,0.009537,-0.017184,-0.005269,0.790165,-0.404072,-0.162657,-0.431171
34725,NaN,20.388380,-17.608670,7.626278,-2.048363,-10.252537,16.159432,0.442820,-3.528158,-0.724731,-0.515137,0.749512,-0.607178,0.201861,-0.176994,0.079445,0.999835,0.002214,-0.017640,-0.003623,0.786500,-0.409268,-0.178984,-0.426477
34726,NaN,21.352290,-11.661850,5.714794,2.920315,-9.877682,12.956617,1.125848,-3.407196,-0.703304,-0.540039,0.734375,-0.600586,0.212103,-0.117699,0.060109,0.999833,0.005629,-0.017035,-0.003516,0.783998,-0.411555,-0.196041,-0.421352
34727,NaN,15.544304,-7.064384,6.412836,3.103422,-4.510447,7.584207,1.728334,-3.649530,-0.792230,-0.565430,0.725830,-0.598389,0.153963,-0.071823,0.066330,0.999788,0.008641,-0.018246,-0.003961,0.782145,-0.411601,-0.215572,-0.415166
34728,NaN,12.217387,-4.558458,3.920637,3.006811,-3.819906,2.906127,1.597091,-3.483817,-0.718505,-0.588135,0.708740,-0.591797,0.121305,-0.046344,0.040956,0.999810,0.007985,-0.017418,-0.003592,0.779861,-0.411943,-0.233830,-0.409198
34729,NaN,8.865213,-3.329893,3.098829,1.995001,-2.335765,-0.334297,1.407699,-3.333432,-0.614114,-0.615479,0.702148,-0.581055,0.088019,-0.033794,0.032222,0.999832,0.007038,-0.016666,-0.003070,0.777478,-0.412483,-0.250929,-0.403013
34730,NaN,7.438272,-2.105818,4.218905,2.016446,-0.165081,-1.241628,0.878423,-2.934716,-0.389830,-0.632324,0.699951,-0.568115,0.073712,-0.021391,0.043181,0.999881,0.004392,-0.014673,-0.001949,0.774544,-0.414670,-0.264794,-0.397510
34731,NaN,8.188903,-0.790305,2.874267,3.519922,-0.953185,-1.898088,0.435290,-2.792931,-0.118139,-0.634277,0.695801,-0.555420,0.081472,-0.008015,0.029865,0.999900,0.002176,-0.013964,-0.000591,0.771439,-0.418335,-0.276690,-0.391562
34732,NaN,9.270494,-0.707899,2.109763,4.183063,-1.756844,-1.427926,0.087167,-2.719124,0.148180,-0.653564,0.702148,-0.542725,0.092412,-0.007020,0.022352,0.999907,0.000436,-0.013595,0.000741,0.767905,-0.423697,-0.286963,-0.385298
34733,NaN,10.716414,-1.030255,1.523271,4.731271,-2.622719,-0.381214,0.081081,-2.653306,0.507207,-0.661865,0.699951,-0.527832,0.106975,-0.010038,0.016649,0.999909,0.000405,-0.013266,0.002536,0.765180,-0.429183,-0.296202,-0.377579
34734,NaN,11.586965,-2.585618,1.344001,3.940335,-3.307789,0.970331,0.005911,-2.587315,0.857335,-0.668457,0.708496,-0.515381,0.115792,-0.025360,0.014938,0.999907,0.000030,-0.012936,0.004287,0.762735,-0.435470,-0.304250,-0.368827
34735,NaN,12.225278,-4.366676,1.893542,2.774706,-3.315728,2.573120,-0.057629,-2.571447,0.954576,-0.672852,0.714844,-0.496338,0.122202,-0.043078,0.020519,0.999906,-0.000288,-0.012857,0.004773,0.760389,-0.441840,-0.311839,-0.359642
34736,NaN,12.756243,-5.712169,2.516289,1.881351,-3.036337,3.931893,0.130900,-2.680316,0.703206,-0.681396,0.717041,-0.481445,0.127410,-0.056691,0.026834,0.999904,0.000654,-0.013401,0.003516,0.757500,-0.447421,-0.320720,-0.350924
34737,NaN,12.511646,-5.837768,3.266981,1.475720,-2.010431,4.153869,0.309424,-2.797302,0.278961,-0.698486,0.721191,-0.464600,0.124725,-0.058256,0.034326,0.999900,0.001547,-0.013986,0.001395,0.754123,-0.451558,-0.331197,-0.343079
34738,NaN,12.065243,-5.427107,3.625338,1.375331,-1.117160,3.789400,0.364215,-2.888524,-0.230169,-0.715088,0.710449,-0.453857,0.120050,-0.054477,0.037891,0.999893,0.001821,-0.014442,-0.001151,0.749481,-0.454929,-0.343247,-0.336897
34739,NaN,10.820605,-4.546077,3.410449,1.304443,-0.471497,2.330266,0.258307,-2.763477,-0.458791,-0.725342,0.703857,-0.430420,0.107617,-0.045753,0.035535,0.999901,0.001291,-0.013817,-0.002294,0.744481,-0.457782,-0.355044,-0.331854
34740,NaN,9.388354,-3.805363,2.781141,1.132569,-0.304477,0.626471,0.329121,-2.530165,-0.583750,-0.738037,0.703857,-0.417725,0.093411,-0.038374,0.028932,0.999914,0.001646,-0.012650,-0.002919,0.739504,-0.459895,-0.366374,-0.327720
34741,NaN,9.032430,-2.821452,3.187271,1.486538,0.684778,0.037104,0.591936,-2.956616,-0.751646,-0.754639,0.693115,-0.400635,0.089734,-0.028649,0.033118,0.999879,0.002960,-0.014782,-0.003758,0.734131,-0.461117,-0.379957,-0.322577
34742,NaN,9.050965,-2.749008,2.919467,1.415948,0.695170,-0.040121,0.471600,-3.334554,-0.956042,-0.769287,0.690918,-0.383789,0.089874,-0.027992,0.030631,0.999847,0.002358,-0.016672,-0.004780,0.727029,-0.463076,-0.395178,-0.317528
34743,NaN,8.745592,-2.748779,2.395426,1.197389,0.482861,-0.426332,0.116861,-3.345864,-1.030930,-0.788086,0.682373,-0.362305,0.086896,-0.027951,0.025395,0.999847,0.000584,-0.016728,-0.005154,0.718943,-0.465854,-0.409849,-0.313249
34744,NaN,8.583644,-2.588579,1.901174,1.196606,0.335765,-0.732934,0.350616,-3.340805,-0.891765,-0.800537,0.673584,-0.339111,0.085387,-0.026302,0.020395,0.999849,0.001753,-0.016703,-0.004459,0.711216,-0.468105,-0.424512,-0.307959
34745,NaN,7.266438,-3.572736,0.747623,-0.007459,-0.861317,-1.726904,0.878748,-2.750405,-0.556999,-0.812988,0.662842,-0.330566,0.072454,-0.035965,0.008316,0.999892,0.004394,-0.013752,-0.002785,0.706503,-0.467981,-0.436900,-0.301605
34746,NaN,5.274195,-3.629184,0.904905,-1.068605,-0.592761,-3.463450,0.933852,-2.387299,-0.345587,-0.816895,0.658691,-0.315674,0.052567,-0.036426,0.009507,0.999916,0.004669,-0.011936,-0.001728,0.702702,-0.467662,-0.447605,-0.295216
34747,NaN,4.106657,-3.331369,0.893184,-1.372065,-0.421582,-4.645527,0.433958,-2.260003,-0.223269,-0.827637,0.660645,-0.294434,0.040925,-0.033379,0.009322,0.999933,0.002170,-0.011300,-0.001116,0.698284,-0.468941,-0.456676,-0.289725
34748,NaN,3.882180,-3.495667,0.573124,-1.525886,-0.714837,-4.834768,0.055733,-1.983240,0.084376,-0.829590,0.656250,-0.290283,0.038777,-0.034942,0.006106,0.999951,0.000279,-0.009916,0.000422,0.693782,-0.471977,-0.463527,-0.284686
34749,NaN,4.493011,-3.698566,2.124373,-2.055918,0.732519,-4.014804,-0.118978,-1.768639,0.275053,-0.829590,0.660645,-0.269043,0.044791,-0.036911,0.021662,0.999960,-0.000595,-0.008843,0.001375,0.689768,-0.475525,-0.468823,-0.279822
34750,NaN,5.102557,-3.853477,3.755975,-2.597369,2.307331,-3.261264,-0.169783,-2.111659,0.452503,-0.833740,0.660645,-0.252197,0.050712,-0.038388,0.038129,0.999941,-0.000849,-0.010558,0.002262,0.684819,-0.480299,-0.474803,-0.273675
34751,NaN,7.649990,-4.046345,2.933643,-1.480387,1.805315,-0.978162,0.822352,-2.319503,0.386409,-0.835693,0.660400,-0.243652,0.076232,-0.040439,0.030055,0.999922,0.004112,-0.011597,0.001932,0.681764,-0.481537,-0.482904,-0.264809
34752,NaN,8.208521,-2.437734,2.152305,0.299123,1.900726,-1.195779,1.702791,-1.972701,0.027899,-0.842285,0.660400,-0.239502,0.081872,-0.024553,0.022123,0.999915,0.008514,-0.009863,0.000139,0.680915,-0.478564,-0.491789,-0.255880
34753,NaN,7.336508,-1.736671,2.227689,0.392250,2.231857,-2.285003,1.700253,-2.058361,-0.460200,-0.850586,0.656250,-0.230957,0.073091,-0.017728,0.022880,0.999908,0.008501,-0.010291,-0.002301,0.679273,-0.474233,-0.502026,-0.248317
34754,NaN,6.852645,-2.647506,2.403142,-0.726943,2.023684,-2.388578,0.829074,-2.365247,-0.086978,-0.852539,0.656006,-0.209717,0.068225,-0.026606,0.024729,0.999921,0.004145,-0.011826,-0.000435,0.674996,-0.474260,-0.511281,-0.240936
34755,NaN,7.046552,-3.537919,2.446563,-1.490642,1.810404,-1.897174,0.405475,-2.001855,0.094182,-0.856689,0.654053,-0.203369,0.070233,-0.035397,0.025098,0.999948,0.002027,-0.010009,0.000471,0.670919,-0.475519,-0.518274,-0.234822
34756,NaN,6.288997,-4.354237,2.920080,-2.713463,1.827347,-2.307045,0.223778,-1.693332,0.034930,-0.858887,0.656006,-0.188477,0.062648,-0.043564,0.029683,0.999964,0.001119,-0.008467,0.000175,0.666955,-0.476974,-0.524131,-0.230118
34757,NaN,6.667306,-4.451428,2.867671,-2.706017,1.905365,-1.968133,-0.574159,-1.639990,-0.080048,-0.864990,0.653809,-0.177979,0.066416,-0.044457,0.029350,0.999962,-0.002871,-0.008200,-0.000400,0.661171,-0.480547,-0.529109,-0.227969
34758,NaN,7.283981,-2.383958,3.592827,-1.239560,3.659370,-2.281441,-0.377252,-1.123506,-0.234835,-0.858398,0.649658,-0.165283,0.072608,-0.023857,0.036382,0.999982,-0.001886,-0.005617,-0.001174,0.656908,-0.482587,-0.532936,-0.227071
34759,NaN,8.066738,-3.047191,4.052941,-1.803482,4.009261,-1.359492,0.077796,-1.047918,-0.055004,-0.862793,0.653809,-0.154785,0.080445,-0.030510,0.040939,0.999986,0.000389,-0.005240,-0.000275,0.654232,-0.483369,-0.536590,-0.224512
34760,NaN,8.575487,-3.507698,4.618497,-2.352913,4.491777,-0.787175,-0.098312,-1.245108,-0.041015,-0.868896,0.647461,-0.148193,0.085458,-0.035072,0.046735,0.999980,-0.000492,-0.006226,-0.000205,0.650522,-0.485073,-0.540626,-0.221919
34761,NaN,8.919657,-3.665291,4.268831,-2.266944,4.287686,-0.448232,-0.472708,-1.064157,-0.083186,-0.869141,0.653809,-0.133545,0.088952,-0.036588,0.043249,0.999983,-0.002364,-0.005321,-0.000416,0.646397,-0.487559,-0.543754,-0.220883
34762,NaN,9.268084,-4.285910,4.790924,-2.974002,4.649746,0.023650,-0.425820,-0.867950,-0.076515,-0.868896,0.651611,-0.125000,0.092455,-0.042792,0.048402,0.999988,-0.002129,-0.004340,-0.000383,0.642871,-0.489749,-0.546243,-0.220187
34763,NaN,10.093714,-4.790589,5.617519,-3.591264,5.441310,0.858923,-0.169923,-0.899256,-0.033269,-0.873291,0.653564,-0.112305,0.100675,-0.047875,0.056669,0.999990,-0.000850,-0.004496,-0.000166,0.639956,-0.491189,-0.549021,-0.218553
34764,NaN,10.657325,-5.413320,5.473833,-3.916543,5.275139,1.574943,0.021841,-0.907281,0.080924,-0.873047,0.647217,-0.110107,0.106345,-0.054096,0.055215,0.999990,0.000109,-0.004536,0.000405,0.637607,-0.492363,-0.551699,-0.216019
34765,NaN,11.650222,-6.607588,5.184535,-4.500287,4.859908,2.930756,0.183550,-0.816032,0.242343,-0.879639,0.657959,-0.101807,0.116370,-0.065983,0.052260,0.999991,0.000918,-0.004080,0.001212,0.636065,-0.493323,-0.553895,-0.212729
34766,NaN,14.618925,-6.870474,4.737757,-3.638010,5.250642,5.761584,0.476860,-0.692182,0.327297,-0.873291,0.655762,-0.099609,0.146137,-0.068579,0.047720,0.999990,0.002384,-0.003461,0.001636,0.635717,-0.493454,-0.555718,-0.208676
34767,NaN,18.789657,-4.986612,3.359344,-0.171036,6.113006,8.943755,0.284914,-0.252990,0.408274,-0.877686,0.664307,-0.099854,0.187955,-0.049530,0.033760,0.999996,0.001425,-0.001265,0.002041,0.636141,-0.493945,-0.555808,-0.205962
34768,NaN,22.529711,-4.268043,1.823731,2.404639,6.190568,12.210534,-0.324216,0.522735,0.544132,-0.869385,0.668701,-0.104004,0.225459,-0.042038,0.017717,0.999992,-0.001621,0.002614,0.002721,0.637441,-0.495903,-0.552392,-0.206430
34769,NaN,22.568383,-4.975399,1.208077,2.350902,5.263374,12.599549,-0.062243,1.279720,0.440477,-0.869629,0.672852,-0.112549,0.225864,-0.049253,0.010651,0.999977,-0.000311,0.006399,0.002202,0.641262,-0.495986,-0.547143,-0.208366
34770,NaN,19.352316,-4.421728,0.431323,2.414404,3.679452,9.548840,0.289091,1.986449,0.279464,-0.867432,0.670898,-0.140137,0.193614,-0.043951,0.002327,0.999949,0.001445,0.009932,0.001397,0.647795,-0.493597,-0.540332,-0.211576
34771,NaN,16.368460,-4.941638,-0.003025,1.499444,1.956213,7.106287,0.179536,2.874577,0.353253,-0.863770,0.681641,-0.161377,0.163748,-0.049126,-0.002428,0.999895,0.000898,0.014372,0.001766,0.656310,-0.490878,-0.530282,-0.217019
34772,NaN,14.303145,-6.858681,1.720588,-1.293469,1.782550,5.989608,-0.171942,3.322160,0.392628,-0.861572,0.677490,-0.188721,0.143426,-0.068292,0.014884,0.999860,-0.000860,0.016610,0.001963,0.665166,-0.488633,-0.518164,-0.224270
34773,NaN,12.715734,-7.971332,2.879141,-3.020986,1.682436,5.071895,-0.639628,3.379251,0.392067,-0.853516,0.688232,-0.209961,0.127778,-0.079375,0.026890,0.999850,-0.003198,0.016895,0.001960,0.672700,-0.487914,-0.505172,-0.232845
34774,NaN,11.907664,-7.263894,3.303421,-2.658028,1.930294,4.139505,-0.874479,3.639241,0.573551,-0.843262,0.697021,-0.241699,0.119863,-0.072157,0.031174,0.999821,-0.004372,0.018195,0.002868,0.680455,-0.487807,-0.490409,-0.241919
34775,NaN,12.178604,-7.208396,3.109080,-2.092863,1.555174,4.439706,-1.258326,3.853555,0.857459,-0.828857,0.709961,-0.260986,0.122668,-0.071372,0.029183,0.999785,-0.006291,0.019266,0.004287,0.687727,-0.489424,-0.473579,-0.251434
34776,NaN,12.275457,-9.204267,1.556887,-2.668834,-0.894370,5.349411,-1.618837,4.218711,1.362767,-0.810059,0.720703,-0.284424,0.123680,-0.091086,0.013706,0.999722,-0.008093,0.021092,0.006813,0.695437,-0.492612,-0.453531,-0.260788
34777,NaN,13.373223,-11.420318,1.282362,-3.455275,-2.156052,7.342528,-1.490632,4.319826,1.519500,-0.789551,0.737793,-0.307861,0.134842,-0.113096,0.010765,0.999710,-0.007452,0.021597,0.007597,0.703342,-0.495464,-0.432692,-0.269448
34778,NaN,14.149355,-11.005140,2.309186,-2.670453,-1.337360,8.011584,-0.753773,3.879698,1.207745,-0.777344,0.748535,-0.337646,0.142572,-0.109111,0.020745,0.999787,-0.003769,0.019397,0.006038,0.711492,-0.495274,-0.414864,-0.276352
34779,NaN,14.133058,-7.049076,3.069108,0.611667,0.393079,6.259093,0.188802,3.303280,0.596120,-0.758301,0.752930,-0.354492,0.142020,-0.070096,0.028283,0.999859,0.000944,0.016516,0.002980,0.719536,-0.491204,-0.401837,-0.281980
34780,NaN,15.155624,-4.032018,2.736154,3.914679,0.702366,5.601458,0.840222,3.156212,0.320983,-0.752197,0.750977,-0.396973,0.152026,-0.040184,0.024796,0.999865,0.004201,0.015780,0.001605,0.728434,-0.484203,-0.390723,-0.286821
34781,NaN,14.120827,-1.286318,1.415816,6.113846,0.054827,3.058021,1.808653,3.245348,-0.122019,-0.743408,0.738281,-0.434814,0.141404,-0.013063,0.011747,0.999827,0.009043,0.016226,-0.000610,0.738853,-0.472639,-0.381723,-0.291540
34782,NaN,12.708663,-0.056771,3.270302,5.824489,1.926043,1.787438,3.303361,2.122112,-0.967633,-0.747314,0.717041,-0.474854,0.127418,-0.001709,0.031330,0.999796,0.016516,0.010610,-0.004838,0.749281,-0.455256,-0.380860,-0.293710
34783,NaN,13.569279,1.323254,0.043728,8.291899,-0.779175,0.981385,1.944859,1.308560,-1.018808,-0.742676,0.706299,-0.493896,0.135757,0.012542,-0.000327,0.999918,0.009724,0.006543,-0.005094,0.754644,-0.444070,-0.381099,-0.296778
34784,NaN,10.122532,-2.575124,-0.641602,3.594534,-2.926602,-0.431013,2.039137,2.314336,-0.572754,-0.736328,0.697754,-0.529785,0.101066,-0.025966,-0.007850,0.999877,0.010195,0.011571,-0.002864,0.762771,-0.431602,-0.376646,-0.300064
34785,NaN,6.864312,-4.683061,0.684754,-0.170393,-2.530930,-1.870554,1.976307,2.717601,-0.315734,-0.721191,0.685059,-0.567871,0.068649,-0.046997,0.005451,0.999858,0.009881,0.013587,-0.001579,0.771573,-0.419331,-0.369872,-0.303368
34786,NaN,6.936215,-6.242965,-1.360195,-0.628546,-5.298146,-2.036859,1.105917,3.092778,-0.045497,-0.699951,0.678711,-0.593262,0.069123,-0.062365,-0.015017,0.999865,0.005529,0.015463,-0.000227,0.779547,-0.410060,-0.359700,-0.307852
34787,NaN,6.047309,-6.324175,-3.629378,-0.445867,-7.320220,-3.817023,0.099632,3.441481,0.019034,-0.683105,0.683105,-0.610107,0.059842,-0.063218,-0.037359,0.999852,0.000498,0.017207,0.000095,0.785856,-0.404347,-0.346345,-0.314609
34788,NaN,5.409799,-5.132015,-4.682572,0.371854,-7.644500,-5.459607,-1.343098,3.630949,0.038232,-0.660156,0.696045,-0.625244,0.053250,-0.051627,-0.047452,0.999813,-0.006715,0.018154,0.000191,0.789408,-0.403804,-0.329840,-0.324011
34789,NaN,5.023370,-3.907952,-1.678764,0.264474,-4.531896,-5.046723,-1.290123,3.926370,0.106063,-0.635010,0.700195,-0.646484,0.049915,-0.039164,-0.017517,0.999786,-0.006450,0.019630,0.000530,0.793283,-0.402622,-0.311966,-0.333578
34790,NaN,7.412204,-2.652550,1.804839,1.907305,-1.875346,-2.192279,-0.480963,4.419728,0.142395,-0.607666,0.706787,-0.678223,0.074516,-0.026432,0.016468,0.999753,-0.002405,0.022097,0.000712,0.799275,-0.397243,-0.293282,-0.342554
34791,NaN,9.295264,-2.957435,1.670708,2.957690,-3.056054,-0.877694,-1.393429,5.354564,0.059174,-0.569824,0.715332,-0.697510,0.093368,-0.029441,0.014416,0.999617,-0.006966,0.026769,0.000296,0.804156,-0.393573,-0.269267,-0.354864
34792,NaN,8.892243,-2.853673,-0.995297,3.287802,-5.466422,-2.921252,-2.167055,6.520074,-0.042159,-0.519287,0.730469,-0.718994,0.088536,-0.028682,-0.012534,0.999410,-0.010833,0.032594,-0.000211,0.808134,-0.390403,-0.239168,-0.370546
34793,NaN,6.442286,-3.147951,-1.698214,1.572883,-5.508693,-5.180332,-2.360698,7.955544,-0.414482,-0.466797,0.745605,-0.734131,0.063624,-0.031829,-0.019150,0.999137,-0.011800,0.039766,-0.002072,0.811574,-0.384369,-0.203259,-0.390248
34794,NaN,2.484836,-1.751286,2.054302,0.135711,-0.380251,-6.166603,-2.048346,8.403267,-0.805823,-0.411865,0.751953,-0.753418,0.025617,-0.017411,0.019656,0.999057,-0.010239,0.042003,-0.004028,0.813824,-0.375114,-0.166586,-0.411375
34795,NaN,3.269855,1.803115,3.785517,3.654144,1.596740,-6.296868,-2.289711,6.131777,0.007317,-0.365723,0.777832,-0.753662,0.033833,0.018456,0.036620,0.999465,-0.011447,0.030653,0.000037,0.814217,-0.371622,-0.136825,-0.424531
34796,NaN,3.509970,1.124047,0.683467,3.081463,-1.245384,-8.080627,-2.417054,5.348416,0.735535,-0.325928,0.792725,-0.753906,0.035221,0.011444,0.005756,0.999563,-0.012084,0.026738,0.003677,0.814588,-0.370445,-0.108573,-0.432930
34797,NaN,4.276733,0.901416,0.475801,3.355086,-2.107412,-7.908472,-2.439441,5.381253,0.973679,-0.281982,0.814209,-0.754395,0.042828,0.009270,0.003494,0.999552,-0.012195,0.026902,0.004868,0.814735,-0.369093,-0.079524,-0.440061
34798,NaN,3.750070,-1.733711,0.312935,0.980385,-2.903563,-7.024764,-2.253386,5.200142,1.173945,-0.235840,0.831299,-0.746094,0.037669,-0.017087,0.002345,0.999581,-0.011265,0.025997,0.005869,0.814888,-0.367139,-0.051292,-0.445573
34799,NaN,1.917659,-2.233823,0.450401,-0.433724,-1.803114,-7.482359,-1.724672,4.833490,1.023609,-0.193604,0.846191,-0.733887,0.019395,-0.022202,0.004229,0.999658,-0.008622,0.024165,0.005117,0.814964,-0.363532,-0.025860,-0.450565
34800,NaN,1.970720,-1.993312,0.607883,-0.139175,-1.719898,-7.521701,-1.863916,4.337929,1.218738,-0.149414,0.861084,-0.723389,0.019956,-0.019757,0.005832,0.999703,-0.009319,0.021687,0.006093,0.814631,-0.361417,-0.001871,-0.453597
34801,NaN,1.147466,-3.843428,0.950275,-1.820608,-1.561607,-6.460424,-1.858319,3.908924,1.235793,-0.113525,0.871826,-0.717285,0.011899,-0.038273,0.009629,0.999747,-0.009291,0.019543,0.006178,0.813907,-0.360038,0.020499,-0.455530
34802,NaN,-1.028462,-5.048060,1.877552,-3.526963,0.188782,-5.618848,-1.659040,3.340638,1.194937,-0.079834,0.882568,-0.704834,-0.009663,-0.050381,0.019359,0.999808,-0.008295,0.016702,0.005974,0.813122,-0.359015,0.039923,-0.456450
34803,NaN,-2.607157,-6.138440,2.493754,-4.844314,1.363116,-4.776053,-1.249400,2.661047,1.168825,-0.063232,0.891113,-0.696533,-0.025375,-0.061375,0.025662,0.999875,-0.006247,0.013305,0.005844,0.812915,-0.357741,0.055688,-0.456169
34804,NaN,-2.576152,-6.839966,3.151957,-4.919819,1.416089,-3.718063,-0.637729,1.866853,1.070379,-0.035645,0.893311,-0.694580,-0.025098,-0.068434,0.031974,0.999937,-0.003189,0.009334,0.005352,0.813611,-0.355787,0.066589,-0.454993
34805,NaN,-1.463835,-6.604993,4.092771,-3.624799,1.042043,-2.863321,-0.052306,1.072619,0.788974,-0.029297,0.893311,-0.696777,-0.014158,-0.066096,0.041022,0.999978,-0.000262,0.005363,0.003945,0.814938,-0.353287,0.072475,-0.453665
34806,NaN,-1.627210,-6.404375,4.447023,-3.397977,1.360118,-2.738548,0.398687,0.294233,0.456614,-0.024902,0.888916,-0.703125,-0.016060,-0.064169,0.044366,0.999994,0.001993,0.001471,0.002283,0.816523,-0.350864,0.073566,-0.452518
34807,NaN,-2.235148,-6.114968,4.496759,-3.552914,1.925900,-3.009965,0.589791,-0.383630,0.151790,-0.029053,0.888916,-0.707275,-0.022391,-0.061299,0.044744,0.999994,0.002949,-0.001918,0.000759,0.818037,-0.349264,0.070934,-0.451440
34808,NaN,-2.599844,-5.567504,3.835815,-3.723394,2.058880,-3.950374,0.488223,-0.877815,-0.199541,-0.037598,0.888916,-0.715576,-0.026222,-0.055742,0.038107,0.999987,0.002441,-0.004389,-0.000998,0.818693,-0.349351,0.065916,-0.450945
34809,NaN,-2.790213,-5.239521,3.557748,-3.788189,2.194120,-4.452633,0.477944,-1.270541,-0.486020,-0.050293,0.880371,-0.717773,-0.028254,-0.052411,0.035274,0.999974,0.002390,-0.006353,-0.002430,0.818830,-0.350408,0.058789,-0.450861
34810,NaN,-2.760831,-4.888771,2.949660,-3.847670,2.002451,-5.185870,0.528193,-1.603233,-0.691849,-0.073486,0.876221,-0.726074,-0.028012,-0.048869,0.029144,0.999958,0.002641,-0.008016,-0.003459,0.818585,-0.352082,0.049881,-0.451074
34811,NaN,-1.935762,-4.197019,2.499977,-3.124123,1.395598,-5.824778,0.459186,-1.709707,-0.901623,-0.094727,0.878418,-0.728027,-0.019759,-0.041939,0.024736,0.999951,0.002296,-0.008548,-0.004508,0.817747,-0.354265,0.040260,-0.451847
34812,NaN,-1.186959,-3.284214,3.083806,-1.879847,1.491110,-5.819367,0.644391,-1.946605,-1.127476,-0.111572,0.867676,-0.740479,-0.012354,-0.032872,0.030614,0.999932,0.003222,-0.009733,-0.005637,0.816629,-0.356266,0.028939,-0.453161
34813,NaN,-0.455686,-2.303602,4.159870,-0.439865,1.918995,-5.460535,0.917952,-2.298201,-1.332280,-0.145264,0.861328,-0.744629,-0.005188,-0.023193,0.041435,0.999901,0.004590,-0.011491,-0.006661,0.815498,-0.357880,0.015102,-0.454595
34814,NaN,-0.165505,-1.462711,5.371029,0.647809,2.754489,-5.016289,0.807680,-2.755093,-1.521551,-0.177002,0.854736,-0.744385,-0.002506,-0.014827,0.053620,0.999868,0.004038,-0.013775,-0.007607,0.813547,-0.360947,-0.000588,-0.455914
34815,NaN,0.746280,-1.331518,6.245554,1.426461,2.767424,-4.187795,0.264135,-3.068005,-1.790745,-0.213379,0.863525,-0.746582,0.006384,-0.013458,0.062541,0.999841,0.001321,-0.015339,-0.008953,0.809805,-0.366802,-0.016899,-0.457588
34816,NaN,2.128333,-0.846698,5.594382,2.267308,1.684425,-4.468339,-0.348793,-3.231321,-2.121422,-0.253418,0.854736,-0.739990,0.020285,-0.008588,0.056292,0.999812,-0.001744,-0.016156,-0.010606,0.803874,-0.375370,-0.032977,-0.460213
34817,NaN,3.924438,-1.317024,9.538839,3.943400,3.004829,-0.672935,-0.446423,-3.168955,-2.211995,-0.297852,0.852539,-0.731445,0.037579,-0.013378,0.096022,0.999811,-0.002232,-0.015844,-0.011059,0.797274,-0.384018,-0.048829,-0.463142
34818,NaN,5.004266,-3.965756,16.814834,4.219899,6.660481,6.352387,0.474471,-2.803489,-2.032682,-0.335938,0.843994,-0.733154,0.047271,-0.040547,0.168728,0.999847,0.002372,-0.014017,-0.010163,0.792688,-0.388050,-0.064935,-0.465667
34819,NaN,7.289929,-3.420958,8.058465,3.288127,-0.328672,1.089049,1.172142,-3.242719,-2.031045,-0.369385,0.831299,-0.730957,0.071227,-0.035415,0.081543,0.999800,0.005860,-0.016213,-0.010155,0.789024,-0.390215,-0.084440,-0.466952
34820,NaN,8.626871,-5.021994,2.171686,1.133417,-5.438886,-1.240596,0.564361,-3.897363,-1.768587,-0.411377,0.813965,-0.719971,0.085377,-0.051042,0.023243,0.999767,0.002822,-0.019485,-0.008842,0.784218,-0.396201,-0.104534,-0.465940
34821,NaN,12.821531,-13.853323,1.924690,-3.995659,-10.217554,5.667219,0.978812,-4.085104,-1.136432,-0.445068,0.807617,-0.717773,0.127006,-0.139358,0.021169,0.999763,0.004894,-0.020424,-0.005682,0.781190,-0.401190,-0.125055,-0.461682
34822,NaN,16.368538,-19.490413,7.518984,-6.024275,-9.342030,14.286140,1.805389,-3.152034,-0.821739,-0.472412,0.796875,-0.715332,0.161687,-0.196255,0.075981,0.999827,0.009026,-0.015759,-0.004108,0.780803,-0.400842,-0.143122,-0.457371
34823,NaN,20.765184,-18.463944,10.097669,-2.711245,-9.212865,18.147731,-0.562831,-3.093668,-0.504689,-0.495850,0.799072,-0.700684,0.205585,-0.184869,0.104688,0.999873,-0.002814,-0.015468,-0.002523,0.776210,-0.409699,-0.154903,-0.453486
34824,NaN,20.013332,-12.431916,6.788788,1.255071,-9.148722,12.899969,0.576813,-3.042448,-0.753078,-0.527344,0.788330,-0.696045,0.198603,-0.125270,0.070557,0.999873,0.002884,-0.015212,-0.003765,0.773156,-0.413820,-0.169466,-0.449738
34825,NaN,14.656338,-7.153485,7.952794,2.636577,-3.423378,7.809213,0.911973,-3.196264,-0.857172,-0.550537,0.781738,-0.689697,0.144962,-0.072527,0.081524,0.999853,0.004560,-0.015981,-0.004286,0.770295,-0.416693,-0.185618,-0.445600
34826,NaN,11.542562,-4.425688,4.711917,2.739631,-3.301147,2.701411,0.974359,-3.186188,-0.937176,-0.579834,0.769043,-0.683105,0.114448,-0.045030,0.048730,0.999850,0.004872,-0.015930,-0.004686,0.767058,-0.419241,-0.201928,-0.441682
34827,NaN,8.808780,-2.488072,4.339147,2.718051,-1.423257,-0.159161,0.922464,-3.214388,-1.006945,-0.604980,0.758301,-0.670166,0.087249,-0.025526,0.044682,0.999848,0.004612,-0.016071,-0.005034,0.763408,-0.421720,-0.218370,-0.437808
34828,NaN,6.856952,-1.492072,4.120106,2.381552,-0.167289,-2.033585,0.772507,-2.955355,-0.789843,-0.627930,0.749512,-0.657471,0.067891,-0.015351,0.042149,0.999876,0.003862,-0.014776,-0.003949,0.759873,-0.424466,-0.232949,-0.433770
34829,NaN,5.770343,-0.986699,3.668173,2.127633,0.271963,-3.245978,0.563747,-2.897995,-0.587259,-0.646973,0.747559,-0.646729,0.057135,-0.010140,0.037484,0.999887,0.002819,-0.014489,-0.002936,0.756336,-0.427876,-0.246399,-0.429145
34830,NaN,6.394414,-0.430263,4.006945,2.830543,0.619899,-2.832040,-0.012707,-2.708760,-0.425405,-0.667969,0.743164,-0.631836,0.063384,-0.004435,0.040931,0.999906,-0.000064,-0.013543,-0.002127,0.751882,-0.433301,-0.257490,-0.424997
34831,NaN,7.458171,-0.552633,3.163029,3.208189,-0.391190,-2.363863,-0.390733,-2.659747,-0.368095,-0.680664,0.745117,-0.612793,0.074142,-0.005600,0.032629,0.999908,-0.001954,-0.013298,-0.001840,0.746762,-0.439907,-0.267430,-0.421082
34832,NaN,7.700910,-1.199536,3.325942,2.711087,-0.301572,-1.790218,-0.379541,-2.500685,-0.155954,-0.693359,0.747314,-0.600098,0.076576,-0.011991,0.034241,0.999920,-0.001898,-0.012503,-0.000780,0.742094,-0.446457,-0.276302,-0.416689
34833,NaN,8.952925,-1.887317,3.891858,2.677580,-0.212949,-0.239616,-0.380579,-2.415243,0.070769,-0.708252,0.751465,-0.572510,0.089057,-0.018766,0.040032,0.999925,-0.001903,-0.012076,0.000354,0.738001,-0.452965,-0.284290,-0.411529
34834,NaN,11.269047,-2.524696,3.771010,3.248554,-1.019007,1.848644,-0.277913,-2.536315,0.108051,-0.716553,0.747314,-0.566162,0.112213,-0.025132,0.039170,0.999918,-0.001390,-0.012681,0.000540,0.733829,-0.459426,-0.292843,-0.405789
34835,NaN,13.241137,-3.239215,3.226343,3.604710,-2.012967,3.572869,-0.234737,-2.543063,0.112753,-0.733643,0.751465,-0.536621,0.132005,-0.032278,0.033982,0.999918,-0.001174,-0.012715,0.000564,0.729737,-0.465574,-0.301412,-0.399844
34836,NaN,13.663542,-4.133543,3.298906,2.987385,-1.954409,4.396733,-0.299296,-2.315476,-0.014822,-0.744385,0.753418,-0.525879,0.136238,-0.041295,0.034630,0.999932,-0.001496,-0.011577,-0.000074,0.725365,-0.471336,-0.309336,-0.394968
34837,NaN,11.923150,-5.249253,4.852871,0.969737,0.019016,4.055181,-0.077245,-2.369717,-0.058421,-0.754883,0.753418,-0.509033,0.118630,-0.052508,0.049957,0.999930,-0.000386,-0.011848,-0.000292,0.721352,-0.476172,-0.317892,-0.389687
34838,NaN,9.974773,-5.086921,4.673899,0.069369,0.687499,2.300673,-0.011223,-2.640827,-0.126579,-0.765381,0.753418,-0.489990,0.099087,-0.050929,0.048053,0.999913,-0.000056,-0.013204,-0.000633,0.716706,-0.481206,-0.327741,-0.383873
34839,NaN,8.878163,-4.779577,3.489496,-0.174509,0.165452,0.854050,-0.121755,-2.625492,-0.162270,-0.778076,0.753418,-0.470703,0.088274,-0.047846,0.036085,0.999913,-0.000609,-0.013127,-0.000811,0.711739,-0.486374,-0.337276,-0.378303
34840,NaN,6.628741,-4.371660,3.186302,-0.963961,0.661054,-1.337143,0.081429,-2.575968,-0.247929,-0.786377,0.749023,-0.460205,0.065816,-0.043812,0.032695,0.999916,0.000407,-0.012879,-0.001240,0.706955,-0.490585,-0.347241,-0.372780
34841,NaN,5.650008,-3.423703,2.840434,-0.650082,0.901677,-2.708155,0.043756,-2.565183,-0.407898,-0.801025,0.746826,-0.438965,0.056060,-0.034358,0.029118,0.999916,0.000219,-0.012826,-0.002039,0.701790,-0.494462,-0.357359,-0.367822
34842,NaN,5.808931,-2.549063,2.040032,0.225495,0.463112,-3.169197,-0.048958,-2.344084,-0.274103,-0.813477,0.740234,-0.415527,0.057810,-0.025565,0.021085,0.999930,-0.000245,-0.011720,-0.001370,0.696823,-0.498505,-0.366207,-0.363075
34843,NaN,5.364085,-2.977289,2.867458,-0.539038,1.340318,-3.196676,0.363809,-2.200814,-0.122524,-0.822021,0.744629,-0.407227,0.053303,-0.029858,0.029208,0.999938,0.001819,-0.011004,-0.000613,0.693435,-0.500978,-0.374816,-0.357327
34844,NaN,4.979495,-2.694112,3.176030,-0.587487,1.860916,-3.621472,0.526887,-2.424829,-0.035312,-0.832520,0.740234,-0.392334,0.049401,-0.027034,0.032290,0.999923,0.002634,-0.012124,-0.000177,0.689996,-0.503456,-0.384280,-0.350380
34845,NaN,5.840706,-1.573926,1.373129,1.054313,0.441785,-3.716127,0.138626,-2.474603,0.276206,-0.834717,0.746582,-0.377441,0.058253,-0.015669,0.014442,0.999922,0.000693,-0.012373,0.001381,0.686021,-0.507805,-0.392333,-0.342904
34846,NaN,6.775349,-1.256415,0.455250,1.915939,-0.280615,-3.183999,-0.042269,-2.284066,0.499581,-0.839111,0.752930,-0.360596,0.067727,-0.012394,0.005329,0.999932,-0.000211,-0.011420,0.002498,0.682152,-0.512879,-0.398856,-0.335467
34847,NaN,7.416780,-2.016502,1.104484,1.415704,0.289728,-2.183512,0.320279,-2.264625,0.563830,-0.845215,0.750732,-0.345703,0.074093,-0.019975,0.011852,0.999931,0.001601,-0.011323,0.002819,0.679356,-0.516675,-0.405642,-0.327074
34848,NaN,8.562444,-1.717551,0.774653,2.257125,0.195641,-1.343349,0.635604,-2.274070,0.496228,-0.845215,0.750732,-0.333008,0.085572,-0.016990,0.008666,0.999927,0.003178,-0.011370,0.002481,0.677056,-0.519263,-0.413161,-0.318214
34849,NaN,10.735521,-1.252864,-2.935764,4.525962,-3.101966,-0.048935,0.617643,-1.329205,0.692898,-0.849854,0.759277,-0.331055,0.107590,-0.012067,-0.028681,0.999967,0.003088,-0.006646,0.003464,0.676994,-0.520702,-0.416829,-0.311130
34850,NaN,8.355229,-3.638841,-1.112864,0.985112,-1.903060,-0.885357,-0.775234,-0.201777,0.140058,-0.845459,0.757080,-0.322510,0.083589,-0.036372,-0.010903,0.999992,-0.003876,-0.001009,0.000700,0.674663,-0.523983,-0.416028,-0.311757
34851,NaN,5.630603,-4.567924,2.244177,-1.841922,1.137901,-2.538252,-1.722083,-0.367677,0.216521,-0.843506,0.763672,-0.303711,0.056313,-0.045422,0.022937,0.999961,-0.008610,-0.001838,0.001083,0.669698,-0.530795,-0.413999,-0.313632
34852,NaN,6.155563,-6.261059,3.741767,-3.376396,2.311269,-1.190078,-0.574666,-1.223114,0.368871,-0.843506,0.765625,-0.291016,0.061440,-0.062389,0.037973,0.999975,-0.002873,-0.006116,0.001844,0.666098,-0.535446,-0.416288,-0.310347
34853,NaN,6.690158,-5.390126,3.136749,-2.258289,2.038704,-1.187482,0.253521,-1.287391,0.204091,-0.847656,0.767822,-0.286621,0.066753,-0.053873,0.031729,0.999978,0.001268,-0.006437,0.001020,0.664399,-0.537014,-0.420412,-0.305686
34854,NaN,6.266267,-5.236557,2.576585,-2.213046,1.571548,-1.691179,0.385837,-1.059727,0.226990,-0.843506,0.770020,-0.284668,0.062585,-0.052345,0.025997,0.999983,0.001929,-0.005299,0.001135,0.663455,-0.537874,-0.423967,-0.301282
34855,NaN,5.489090,-4.365805,2.646034,-1.855180,1.847282,-2.788619,0.258956,-0.986642,0.211812,-0.847656,0.770020,-0.276123,0.054806,-0.043634,0.026674,0.999986,0.001295,-0.004933,0.001059,0.662370,-0.538944,-0.427054,-0.297372
34856,NaN,6.019302,-4.038854,2.448594,-1.308886,1.823130,-2.498146,0.208797,-1.240977,0.016688,-0.854004,0.769775,-0.267578,0.060043,-0.040409,0.024817,0.999980,0.001044,-0.006205,0.000083,0.660220,-0.540172,-0.431466,-0.293530
34857,NaN,6.119424,-3.960044,2.574255,-1.266804,2.037522,-2.464276,0.051181,-1.317835,-0.112919,-0.855957,0.767578,-0.254883,0.061001,-0.039642,0.026135,0.999978,0.000256,-0.006589,-0.000565,0.657335,-0.541683,-0.436187,-0.290227
34858,NaN,6.084866,-4.489301,2.787809,-1.832141,2.186207,-2.275158,-0.190456,-1.243147,-0.084796,-0.862305,0.765625,-0.250732,0.060655,-0.044892,0.028298,0.999980,-0.000952,-0.006216,-0.000424,0.653911,-0.543957,-0.440253,-0.287555
34859,NaN,7.237344,-3.663307,2.845338,-0.662772,2.637801,-1.658118,-0.205864,-1.033458,-0.061743,-0.862305,0.767578,-0.233887,0.072214,-0.036626,0.028865,0.999986,-0.001029,-0.005167,-0.000309,0.650978,-0.545974,-0.443498,-0.285394
34860,NaN,7.418324,-3.450723,2.646621,-0.378579,2.590892,-1.622016,-0.278642,-0.847954,-0.039782,-0.868652,0.769775,-0.233887,0.074063,-0.034485,0.026828,0.999990,-0.001393,-0.004240,-0.000199,0.648229,-0.548024,-0.445993,-0.283829
34861,NaN,7.243245,-3.451921,1.821958,-0.258241,1.838663,-1.796941,-0.281398,-0.723796,0.008740,-0.868652,0.767578,-0.227539,0.072367,-0.034490,0.018530,0.999992,-0.001407,-0.003619,0.000044,0.645851,-0.549980,-0.447911,-0.282442
34862,NaN,8.477843,-2.923742,0.361883,1.111851,0.776186,-0.940595,-0.304398,-0.657719,0.040173,-0.868652,0.767578,-0.216797,0.084772,-0.029215,0.003942,0.999993,-0.001522,-0.003289,0.000201,0.643562,-0.551991,-0.449520,-0.281186
34863,NaN,8.863873,-2.691456,-0.478642,1.696121,0.127785,-0.694138,-0.351412,-0.425260,0.093864,-0.866455,0.767578,-0.212646,0.088661,-0.026881,-0.004551,0.999996,-0.001757,-0.002126,0.000469,0.641765,-0.553929,-0.450133,-0.280499
34864,NaN,8.977525,-2.779180,-0.565800,1.696028,0.078046,-0.552166,-0.220098,-0.205118,0.201630,-0.873047,0.778320,-0.210693,0.089809,-0.027707,-0.005535,0.999998,-0.001100,-0.001026,0.001008,0.640944,-0.555379,-0.449962,-0.279782
34865,NaN,8.746737,-2.843009,-0.657773,1.581170,-0.030038,-0.728654,-0.211991,-0.158382,0.324826,-0.864502,0.776123,-0.206299,0.087519,-0.028295,-0.006478,0.999998,-0.001060,-0.000792,0.001624,0.640452,-0.557011,-0.449270,-0.278777
34866,NaN,8.258610,-3.173067,-0.815186,1.149648,-0.301291,-1.007862,-0.168110,-0.088291,0.396070,-0.864746,0.784668,-0.206543,0.082652,-0.031574,-0.008089,0.999998,-0.000841,-0.000441,0.001980,0.640302,-0.558558,-0.448263,-0.277644
34867,NaN,7.632402,-3.956358,0.427008,-0.095503,0.645243,-1.229966,-0.148852,0.117578,0.383300,-0.864746,0.780518,-0.210693,0.076402,-0.039414,0.004255,0.999998,-0.000744,0.000588,0.001916,0.640680,-0.559730,-0.446609,-0.277078
34868,NaN,7.470595,-4.410946,1.349065,-0.765898,1.422883,-1.182804,-0.270623,0.066032,0.377607,-0.864746,0.784668,-0.204346,0.074793,-0.043950,0.013526,0.999997,-0.001353,0.000330,0.001888,0.640558,-0.561341,-0.445017,-0.276662
34869,NaN,7.407861,-4.932194,1.344968,-1.206402,1.326387,-0.992430,-0.614507,-0.043181,0.377666,-0.863037,0.793213,-0.197998,0.074169,-0.049140,0.013617,0.999993,-0.003073,-0.000216,0.001888,0.639255,-0.564207,-0.443242,-0.276696
34870,NaN,7.855002,-5.759413,0.753763,-1.533609,0.705404,-0.190318,-0.666477,-0.357351,0.391662,-0.860840,0.795410,-0.200195,0.078649,-0.057414,0.007870,0.999991,-0.003332,-0.001787,0.001958,0.637095,-0.567683,-0.442399,-0.275916
34871,NaN,8.553350,-5.683172,-0.139408,-0.905657,0.044521,0.417404,-0.376395,-0.717731,0.392586,-0.858887,0.801758,-0.187500,0.085649,-0.056666,-0.000980,0.999990,-0.001882,-0.003589,0.001963,0.634973,-0.570736,-0.443047,-0.273457
34872,NaN,8.810361,-5.253960,0.075404,-0.458714,0.472998,0.424366,-0.275665,-0.867606,0.405877,-0.860840,0.797363,-0.181152,0.088205,-0.052359,0.001209,0.999988,-0.001378,-0.004338,0.002029,0.632792,-0.573681,-0.444297,-0.270304
34873,NaN,9.536389,-4.225321,0.451146,0.667985,1.267115,0.528813,-0.242398,-1.076274,0.361563,-0.854492,0.803955,-0.162109,0.095414,-0.042075,0.005076,0.999983,-0.001212,-0.005381,0.001808,0.630183,-0.576697,-0.446330,-0.266606
34874,NaN,10.526129,-3.229404,-0.052581,2.095985,1.284336,0.919816,-0.061308,-1.394623,0.270072,-0.856934,0.810303,-0.157959,0.105305,-0.032152,0.000218,0.999975,-0.000307,-0.006973,0.001350,0.627223,-0.579323,-0.449890,-0.261869
34875,NaN,11.351130,-3.552849,-0.947576,2.417229,0.691035,1.851153,0.120971,-1.710466,0.187140,-0.858887,0.808105,-0.145264,0.113620,-0.035417,-0.008526,0.999963,0.000605,-0.008552,0.000936,0.623947,-0.581583,-0.454854,-0.256045
34876,NaN,12.061961,-4.594449,-0.681329,1.756115,1.092815,2.945930,0.004413,-1.710509,0.138290,-0.860840,0.803711,-0.130371,0.120704,-0.045861,-0.005782,0.999963,0.000022,-0.008552,0.000691,0.620208,-0.584024,-0.459830,-0.250627
34877,NaN,13.032014,-5.365838,0.546968,1.155145,2.549522,4.010697,-0.334392,-1.623020,0.098553,-0.863037,0.805908,-0.111572,0.130296,-0.053584,0.006617,0.999966,-0.001672,-0.008115,0.000493,0.615602,-0.587302,-0.464140,-0.246342
34878,NaN,14.367277,-5.634259,0.656268,1.430272,3.160546,5.239014,-0.489125,-1.635564,0.039465,-0.869141,0.805664,-0.094482,0.143623,-0.056296,0.007875,0.999964,-0.002446,-0.008178,0.000197,0.610386,-0.590849,-0.468502,-0.242554
34879,NaN,15.901493,-5.862894,0.638250,1.844464,3.759465,6.621896,-0.561647,-1.641039,0.017543,-0.869141,0.807861,-0.083984,0.158960,-0.058594,0.007852,0.999962,-0.002808,-0.008205,0.000088,0.604880,-0.594572,-0.472760,-0.238959
34880,NaN,18.029466,-6.346229,0.804921,2.229369,4.705991,8.595421,-0.590834,-1.637493,0.046306,-0.867188,0.812012,-0.058594,0.180234,-0.063393,0.009712,0.999962,-0.002954,-0.008187,0.000232,0.599289,-0.598332,-0.476928,-0.235353
34881,NaN,18.776260,-6.724522,0.602938,2.209495,4.980630,9.381919,-0.543991,-1.568209,0.141349,-0.866943,0.809814,-0.043701,0.187754,-0.067093,0.007684,0.999965,-0.002720,-0.007841,0.000707,0.594067,-0.602125,-0.480547,-0.231527
34882,NaN,17.128553,-8.022100,0.900546,0.251273,4.839321,8.492039,-0.413960,-1.486493,0.327817,-0.867188,0.814209,-0.039551,0.171343,-0.079920,0.010444,0.999969,-0.002070,-0.007432,0.001639,0.589632,-0.605737,-0.483578,-0.227088
34883,NaN,15.256979,-9.311170,1.442198,-1.816317,4.794843,7.370416,-0.148778,-1.339433,0.535076,-0.864990,0.818359,-0.031250,0.152717,-0.092692,0.015513,0.999974,-0.000744,-0.006697,0.002675,0.586535,-0.608975,-0.485725,-0.221807
34884,NaN,14.292012,-9.696923,1.371476,-2.502344,4.549547,6.716362,-0.102205,-1.068464,0.697020,-0.858887,0.829102,-0.022949,0.143181,-0.096463,0.014529,0.999980,-0.000511,-0.005342,0.003485,0.584437,-0.612009,-0.486708,-0.216778
34885,NaN,14.112032,-8.668635,2.148209,-1.867949,5.535656,5.832571,-0.041515,-0.822728,0.848971,-0.848389,0.833496,-0.016602,0.141397,-0.086082,0.022081,0.999983,-0.000208,-0.004114,0.004245,0.583218,-0.615078,-0.486461,-0.211877
34886,NaN,13.627040,-6.249988,2.720852,-0.123220,6.395700,4.016244,0.054096,-0.713914,0.910688,-0.842285,0.839844,-0.014648,0.136455,-0.061886,0.027679,0.999983,0.000270,-0.003570,0.004553,0.582681,-0.617730,-0.485879,-0.206917
34887,NaN,12.251499,-4.989243,2.468513,0.491096,5.956246,2.244105,0.154360,-0.502178,0.811788,-0.831787,0.843994,-0.016602,0.122654,-0.049414,0.024955,0.999988,0.000772,-0.002511,0.004059,0.582770,-0.619765,-0.484989,-0.202623
34888,NaN,10.855581,-3.846158,2.591035,0.849328,5.772476,0.449226,0.325185,-0.116189,0.619473,-0.829834,0.848389,-0.018799,0.108659,-0.038167,0.025911,0.999994,0.001626,-0.000581,0.003097,0.584227,-0.620248,-0.483830,-0.199699
34889,NaN,9.971914,-3.169671,3.314290,0.840250,6.199572,-0.794416,0.546013,0.485230,0.419906,-0.827881,0.852783,-0.035889,0.099865,-0.031577,0.032814,0.999991,0.002730,0.002426,0.002100,0.587508,-0.619179,-0.481652,-0.198654
34890,NaN,10.279184,-2.946675,3.677253,1.107753,6.601329,-0.698939,0.444907,1.152772,0.214790,-0.827881,0.850586,-0.054932,0.103033,-0.029437,0.036114,0.999980,0.002225,0.005764,0.001074,0.591997,-0.617011,-0.478138,-0.200551
34891,NaN,10.998261,-2.936832,3.917845,1.453771,6.951809,-0.092000,0.061774,1.699898,0.061362,-0.827881,0.846436,-0.071777,0.110319,-0.029346,0.038233,0.999964,0.000309,0.008499,0.000307,0.596292,-0.615247,-0.472963,-0.205459
34892,NaN,11.667456,-2.856501,3.912807,1.933400,7.006912,0.519736,0.025415,2.054613,-0.004078,-0.830078,0.850830,-0.090820,0.117068,-0.028572,0.037923,0.999947,0.000127,0.010273,-0.000020,0.601357,-0.612758,-0.466966,-0.211757
34893,NaN,12.185585,-2.205980,2.461616,3.254486,5.703292,0.971061,0.393467,2.075013,-0.060956,-0.830322,0.853027,-0.116211,0.122095,-0.022144,0.023307,0.999944,0.001967,0.010375,-0.000305,0.607309,-0.609200,-0.461305,-0.217368
34894,NaN,12.167575,-1.348660,-0.098406,4.781228,3.186528,0.997437,0.836135,2.022996,-0.138229,-0.830322,0.846680,-0.137207,0.121648,-0.013563,-0.002271,0.999940,0.004181,0.010115,-0.000691,0.614522,-0.603804,-0.456594,-0.222048
34895,NaN,11.293245,-0.723508,-1.728472,5.403029,1.256618,0.200843,0.729454,2.267823,-0.241244,-0.822021,0.846680,-0.166992,0.112718,-0.007305,-0.018590,0.999928,0.003647,0.011339,-0.001206,0.621590,-0.598450,-0.451132,-0.227955
34896,NaN,11.271866,-1.179053,-2.397329,5.246516,0.246422,0.511929,0.188297,2.650559,-0.242319,-0.828125,0.838135,-0.183838,0.112373,-0.011903,-0.025475,0.999911,0.000941,0.013252,-0.001212,0.627985,-0.593917,-0.443948,-0.236237
34897,NaN,11.853611,-2.038200,-3.799247,5.234619,-1.431505,1.573152,-0.278289,2.643100,-0.162505,-0.821777,0.840332,-0.204834,0.118004,-0.020532,-0.039526,0.999911,-0.001391,0.013215,-0.000813,0.632778,-0.591254,-0.435764,-0.245194
34898,NaN,12.160342,-3.291780,-5.762225,4.858233,-3.799049,2.591736,-0.399038,2.391570,-0.014179,-0.815674,0.842529,-0.228271,0.120901,-0.033043,-0.059005,0.999927,-0.001995,0.011958,-0.000071,0.636916,-0.589178,-0.427893,-0.253207
34899,NaN,12.121840,-8.976387,-8.561910,0.791631,-7.838391,5.638594,-0.156782,2.585810,-0.032999,-0.809082,0.836182,-0.245117,0.120084,-0.089852,-0.087106,0.999916,-0.000784,0.012929,-0.000165,0.641892,-0.586282,-0.419522,-0.261245
34900,NaN,11.130990,-6.687615,-4.618468,1.202206,-4.047385,3.306819,-0.573519,2.272896,-0.242804,-0.811523,0.838379,-0.264160,0.110696,-0.067145,-0.047253,0.999931,-0.002868,0.011364,-0.001214,0.644754,-0.584304,-0.412340,-0.269919
34901,NaN,10.216403,-8.392971,-7.705936,-0.076025,-7.730592,3.394197,0.238886,2.270043,-0.316852,-0.798584,0.832031,-0.279053,0.101147,-0.083997,-0.078312,0.999934,0.001194,0.011350,-0.001584,0.649663,-0.579776,-0.406243,-0.277063
34902,NaN,8.479769,-7.605405,0.929380,-2.098602,0.398898,1.414228,0.101035,2.913754,0.117736,-0.790283,0.832031,-0.304443,0.084965,-0.076008,0.008018,0.999894,0.000505,0.014568,0.000589,0.656075,-0.575328,-0.396705,-0.284935
34903,NaN,8.534043,-1.540394,0.879577,3.033008,1.194194,-1.728911,-2.036270,2.817022,-0.345343,-0.786133,0.836426,-0.306396,0.085428,-0.015469,0.007750,0.999847,-0.010181,0.014084,-0.001727,0.655215,-0.577218,-0.385498,-0.298168
34904,NaN,8.113820,-3.282947,0.074380,1.523292,-0.097609,-1.193866,-0.424569,2.625971,0.146226,-0.773438,0.836426,-0.329834,0.081163,-0.032770,-0.000252,0.999911,-0.002123,0.013129,0.000731,0.659326,-0.574663,-0.375972,-0.306101
34905,NaN,9.131355,-5.577621,1.101035,0.050728,0.394297,0.936346,0.343661,2.154798,0.229092,-0.765137,0.836670,-0.351074,0.091488,-0.055689,0.009930,0.999940,0.001718,0.010774,0.001145,0.664676,-0.570625,-0.368714,-0.310874
34906,NaN,9.903318,-5.724206,1.262482,0.378753,0.329668,1.684288,-0.334001,2.219962,0.162229,-0.758789,0.834473,-0.363770,0.099212,-0.057142,0.011620,0.999937,-0.001670,0.011100,0.000811,0.668140,-0.568287,-0.360495,-0.317304
34907,NaN,9.706748,-5.125341,0.319277,0.921675,-0.707678,1.106939,-0.486125,2.352614,-0.187057,-0.750244,0.832275,-0.380615,0.097049,-0.051338,0.002176,0.999927,-0.002431,0.011763,-0.000935,0.670655,-0.565797,-0.352371,-0.325469
34908,NaN,9.818572,-3.134087,0.100729,2.656836,-0.850080,0.109578,0.037699,2.232416,-0.474874,-0.743896,0.832520,-0.395508,0.098114,-0.031574,-0.000094,0.999935,0.000188,0.011162,-0.002374,0.673992,-0.560907,-0.346426,-0.333327
34909,NaN,9.043597,-1.727806,-0.617811,3.451654,-1.508426,-1.388832,0.237512,1.965008,-0.632041,-0.739502,0.821777,-0.412354,0.090314,-0.017556,-0.007087,0.999946,0.001188,0.009825,-0.003160,0.676973,-0.555703,-0.341955,-0.340541
34910,NaN,8.410695,-0.833010,-2.067647,3.919466,-2.920771,-2.614554,-0.669036,1.769185,-0.958056,-0.741699,0.823975,-0.414307,0.083878,-0.008803,-0.021390,0.999944,-0.003345,0.008846,-0.004790,0.676573,-0.553030,-0.337639,-0.349867
34911,NaN,8.653991,-0.148848,-4.032749,4.608866,-4.956908,-3.077935,-2.264346,2.150735,-1.431442,-0.741455,0.819580,-0.410156,0.086084,-0.002569,-0.041230,0.999852,-0.011321,0.010753,-0.007157,0.671340,-0.554425,-0.330312,-0.364429
34912,NaN,10.120294,0.258767,-4.470835,5.437659,-5.790810,-2.108588,-3.530290,3.155462,-1.928505,-0.737305,0.821777,-0.403809,0.100494,0.000808,-0.046322,0.999673,-0.017650,0.015776,-0.009641,0.663119,-0.556915,-0.318710,-0.385412
34913,NaN,10.026280,0.803893,-3.348743,5.502787,-5.010328,-2.264438,-3.431548,4.048067,-2.252937,-0.743164,0.808838,-0.407959,0.099634,0.006315,-0.035627,0.999585,-0.017155,0.020238,-0.011263,0.655399,-0.556666,-0.304821,-0.409462
34914,NaN,10.315620,2.077927,-0.746235,6.563211,-2.931475,-2.093429,-2.560790,4.453161,-2.905182,-0.747070,0.793945,-0.424805,0.103238,0.019163,-0.010013,0.999565,-0.012802,0.022263,-0.014524,0.648890,-0.551038,-0.293145,-0.435160
34915,NaN,12.819074,4.392590,0.030919,9.469728,-3.352813,-0.721335,-2.216350,4.512832,-3.295930,-0.751221,0.787598,-0.443604,0.128847,0.041784,-0.003064,0.999548,-0.011080,0.022561,-0.016477,0.641935,-0.543326,-0.282634,-0.461339
34916,NaN,12.149433,5.478849,-0.240636,9.772227,-4.148570,-1.755124,-2.907466,4.817849,-2.133246,-0.740479,0.781250,-0.449951,0.121951,0.053418,-0.006124,0.999547,-0.014535,0.024086,-0.010665,0.635687,-0.538038,-0.266371,-0.485246
34917,NaN,8.883044,2.882095,-0.879353,5.758837,-4.143279,-3.678115,-3.109715,4.794286,-1.486924,-0.725830,0.787598,-0.464844,0.088789,0.027997,-0.011362,0.999564,-0.015546,0.023968,-0.007434,0.629823,-0.534070,-0.247478,-0.506800
34918,NaN,7.079503,0.474996,-0.403774,2.817843,-3.201827,-4.128823,-2.989489,4.376073,-1.385585,-0.719482,0.787598,-0.467041,0.070713,0.004183,-0.005651,0.999625,-0.014946,0.021878,-0.006927,0.623550,-0.530225,-0.230005,-0.526445
34919,NaN,7.531883,0.239051,-1.093767,2.362272,-4.246491,-3.950976,-3.292050,4.061298,-1.430016,-0.713379,0.798340,-0.469238,0.075089,0.001656,-0.012495,0.999633,-0.016458,0.020304,-0.007149,0.615500,-0.527955,-0.212391,-0.545265
34920,NaN,8.214151,0.160684,-2.363518,1.819559,-5.898671,-3.899682,-3.644523,4.387237,-1.462206,-0.702637,0.793945,-0.467285,0.081603,0.000556,-0.025446,0.999567,-0.018220,0.021933,-0.007310,0.606324,-0.525178,-0.193005,-0.565074
34921,NaN,7.048946,-0.156292,-2.018795,1.010977,-5.187435,-4.728895,-3.504472,4.446269,-1.446014,-0.694580,0.802734,-0.467285,0.070003,-0.002442,-0.021710,0.999573,-0.017520,0.022228,-0.007229,0.597068,-0.521616,-0.173346,-0.584275
34922,NaN,6.404723,-0.784171,-0.937508,0.466353,-3.971212,-4.662907,-3.604168,4.041770,-1.528845,-0.686279,0.809082,-0.469482,0.063779,-0.008513,-0.010517,0.999604,-0.018018,0.020206,-0.007643,0.586494,-0.518804,-0.154959,-0.602375
34923,NaN,6.806932,-1.189418,-1.349412,-0.211461,-4.521359,-4.420448,-3.773926,3.912969,-1.420923,-0.677979,0.815430,-0.469482,0.067703,-0.012644,-0.014587,0.999605,-0.018867,0.019562,-0.007104,0.575224,-0.516775,-0.135751,-0.619380
34924,NaN,6.813946,-1.842123,-0.882427,-0.769173,-4.046224,-4.013185,-3.393024,3.481148,-1.431535,-0.676025,0.821777,-0.458984,0.067841,-0.019067,-0.009687,0.999679,-0.016963,0.017404,-0.007157,0.564218,-0.514398,-0.119173,-0.634705
34925,NaN,6.704334,-2.594192,-0.871396,-1.607358,-3.753388,-3.832496,-3.120513,3.116839,-1.479063,-0.667236,0.817627,-0.454834,0.066706,-0.026579,-0.009344,0.999730,-0.015601,0.015583,-0.007395,0.553201,-0.512285,-0.104256,-0.648585
34926,NaN,6.675532,-2.653644,-0.449552,-1.606910,-3.422108,-3.688048,-2.820510,2.842321,-1.548935,-0.669678,0.823975,-0.457031,0.066478,-0.027121,-0.005062,0.999770,-0.014101,0.014211,-0.007744,0.542312,-0.509743,-0.091470,-0.661583
34928,NaN,6.521505,-2.363714,0.240302,-2.434558,-5.960562,2.484306,-2.516948,2.459141,-1.623516,-0.677734,0.815430,-0.439941,0.129726,-0.049297,0.002834,0.999249,-0.025163,0.024585,-0.016231,0.520586,-0.505253,-0.069702,-0.684727
34929,NaN,6.577454,-2.284347,0.701490,-1.078128,-2.761074,-3.473454,-2.465672,2.163824,-1.747588,-0.679932,0.817383,-0.431396,0.065645,-0.023334,0.006590,0.999827,-0.012328,0.010818,-0.008737,0.509028,-0.503386,-0.060300,-0.695599
34930,NaN,7.093753,-2.020906,0.668926,-1.019261,-3.227189,-3.225007,-2.613613,1.988175,-1.783306,-0.684082,0.815430,-0.429443,0.070818,-0.020757,0.006254,0.999825,-0.013067,0.009940,-0.008916,0.496754,-0.502494,-0.050636,-0.705812
34931,NaN,7.274445,-1.744630,0.533467,-1.045722,-3.537087,-3.282786,-2.777089,1.808813,-1.803578,-0.696777,0.819580,-0.414551,0.072629,-0.018031,0.004925,0.999822,-0.013885,0.009044,-0.009017,0.483761,-0.502292,-0.041129,-0.715532
34932,NaN,7.454424,-1.463450,-0.003301,-1.355748,-4.057245,-3.535050,-2.972195,1.652049,-1.812751,-0.692383,0.813232,-0.399658,0.074405,-0.015314,-0.000424,0.999814,-0.014860,0.008260,-0.009063,0.470057,-0.503102,-0.031053,-0.724548
34933,NaN,7.103786,-1.722187,-0.195046,-1.799542,-3.724594,-3.783176,-3.074816,1.513176,-1.765959,-0.709229,0.808838,-0.389160,0.070866,-0.017881,-0.002216,0.999814,-0.015373,0.007565,-0.008829,0.456036,-0.504323,-0.021054,-0.732970
