// Start Time: Unknown
// Update Rate: 100.0Hz
// Filter Profile: human (46.1)
// Firmware Version: 4.4.0
PacketCounter,SampleTimeFine,Acc_X,Acc_Y,Acc_Z,FreeAcc_X,FreeAcc_Y,FreeAcc_Z,Gyr_X,Gyr_Y,Gyr_Z,Mag_X,Mag_Y,Mag_Z,VelInc_X,VelInc_Y,VelInc_Z,OriInc_q0,OriInc_q1,OriInc_q2,OriInc_q3,Quat_q0,Quat_q1,Quat_q2,Quat_q3
34407,NaN,-0.343476,7.083666,0.754185,-0.000000,-0.000000,-2.680730,-0.622560,-0.320652,0.488220,-0.529785,0.565918,-0.114502,-0.003620,0.070851,0.007316,0.999991,-0.003113,-0.001603,0.002441,0.098147,0.122308,-0.658599,-0.735972
34408,NaN,-2.148806,7.202358,1.042113,0.000000,-0.000000,-2.224743,-0.854828,-0.449139,-0.159526,-0.529541,0.557373,-0.112305,-0.021453,0.072084,0.010065,0.999988,-0.004274,-0.002246,-0.000798,0.081384,0.255008,-0.607165,-0.748130
34409,NaN,0.617676,6.021902,0.686601,-1.538340,-0.657838,-3.954653,-1.199296,-0.302145,-0.306175,-0.533936,0.561523,-0.103760,0.006259,0.060249,0.006514,0.999980,-0.005996,-0.001511,-0.001531,0.078384,0.184951,-0.634009,-0.746781
34410,NaN,-2.117062,8.138968,0.826870,0.668056,-0.058587,-1.389076,-1.328603,-0.207857,-0.851285,-0.542480,0.555176,-0.093018,-0.020832,0.081531,0.007706,0.999968,-0.006643,-0.001039,-0.004256,0.075773,0.186347,-0.628323,-0.751495
34411,NaN,-3.838539,9.545638,0.140583,2.287342,-0.519606,0.205718,-1.302712,-0.230648,-1.304207,-0.551025,0.552979,-0.084473,-0.037763,0.095710,0.000739,0.999957,-0.006513,-0.001153,-0.006521,0.071220,0.189205,-0.622391,-0.756147
34412,NaN,-3.647913,9.183504,-0.525657,2.318702,-1.282191,-0.278700,-1.049806,-0.129995,-1.645291,-0.561523,0.546631,-0.080078,-0.035719,0.092102,-0.005763,0.999952,-0.005249,-0.000650,-0.008226,0.065585,0.193450,-0.616882,-0.760087
34413,NaN,-4.477387,7.724584,-0.774731,3.188519,-1.006258,-1.497973,-0.830543,-0.189252,-1.869220,-0.576172,0.531494,-0.073486,-0.044042,0.077627,-0.008111,0.999947,-0.004153,-0.000946,-0.009346,0.056278,0.201384,-0.613708,-0.761341
34414,NaN,-3.692935,5.519764,-0.635055,2.660479,-0.727847,-3.738243,-0.711951,-0.133951,-2.302640,-0.584229,0.518799,-0.073486,-0.036286,0.055595,-0.006572,0.999927,-0.003560,-0.000670,-0.011513,0.047814,0.207725,-0.608672,-0.764253
34415,NaN,-5.007858,4.649303,-0.373213,3.652621,0.104391,-4.026598,-0.842646,-0.031518,-2.534240,-0.603271,0.512451,-0.069092,-0.049484,0.047106,-0.003938,0.999911,-0.004213,-0.000158,-0.012671,0.031894,0.224558,-0.606686,-0.761898
34416,NaN,-5.621740,3.308875,0.077998,4.219983,0.960855,-4.931660,-0.975120,0.044758,-2.744888,-0.611084,0.488770,-0.058105,-0.055756,0.033859,0.000629,0.999894,-0.004875,0.000224,-0.013724,0.022665,0.232876,-0.599818,-0.765162
34417,NaN,-6.214878,2.398344,0.572594,4.454155,1.764557,-5.149219,-1.242950,0.169371,-2.967338,-0.634521,0.475830,-0.060303,-0.061779,0.024937,0.005625,0.999870,-0.006214,0.000847,-0.014836,-0.000835,0.260841,-0.592578,-0.762111
34418,NaN,-7.388284,1.320131,-0.039926,5.932999,1.805738,-5.585960,-1.335640,0.304011,-3.165989,-0.642090,0.447998,-0.051270,-0.073662,0.014366,-0.000381,0.999851,-0.006678,0.001520,-0.015829,-0.010255,0.271346,-0.583273,-0.765545
34419,NaN,-8.170652,-1.145871,0.668372,6.814028,3.377199,-6.545254,-1.268962,0.415624,-3.296857,-0.656494,0.430908,-0.046875,-0.081866,-0.010067,0.006921,0.999842,-0.006344,0.002078,-0.016483,-0.041928,0.310336,-0.567790,-0.761281
34420,NaN,-8.352785,-3.780007,0.445806,8.069451,4.141952,-8.407065,-1.314257,0.438362,-3.330807,-0.670654,0.405273,-0.044434,-0.084131,-0.036371,0.004884,0.999837,-0.006571,0.002192,-0.016653,-0.051316,0.321685,-0.557619,-0.763509
34421,NaN,-8.249098,-6.270173,-0.319834,9.355491,4.425651,-9.227492,-1.272648,0.503148,-3.312307,-0.685059,0.385986,-0.044189,-0.083521,-0.061342,-0.002596,0.999839,-0.006363,0.002516,-0.016561,-0.091821,0.369748,-0.529875,-0.757686
34422,NaN,-8.114214,-8.559799,-1.238805,10.874374,4.631101,-10.778442,-1.254422,0.596280,-3.186606,-0.692871,0.362549,-0.041748,-0.082528,-0.084365,-0.011612,0.999849,-0.006272,0.002981,-0.015932,-0.099980,0.380969,-0.519425,-0.758330
34423,NaN,-7.375193,-10.727388,-2.198582,12.237053,4.836763,-10.884886,-1.170724,0.712557,-2.930257,-0.703125,0.347412,-0.041504,-0.075390,-0.106303,-0.021095,0.999869,-0.005853,0.003563,-0.014651,-0.146117,0.435226,-0.482645,-0.745843
34424,NaN,-6.121074,-13.502279,-2.739191,13.564516,5.637990,-13.201335,-1.044361,0.826165,-2.618332,-0.710938,0.323975,-0.043457,-0.063083,-0.134345,-0.026431,0.999892,-0.005222,0.004131,-0.013091,-0.151599,0.445342,-0.473604,-0.744572
34425,NaN,-4.998647,-16.432288,-2.763512,15.453864,7.382245,-12.863337,-0.936196,0.995490,-2.288107,-0.714600,0.308838,-0.041016,-0.051997,-0.163862,-0.026612,0.999911,-0.004681,0.004977,-0.011440,-0.198458,0.501868,-0.431624,-0.722802
34426,NaN,-4.561274,-18.891820,-3.231631,17.304327,8.467142,-13.935732,-0.827614,1.009301,-1.998537,-0.722656,0.293945,-0.045166,-0.047658,-0.188580,-0.031298,0.999929,-0.004138,0.005046,-0.009992,-0.201412,0.510614,-0.424589,-0.720021
34427,NaN,-3.544950,-20.186475,-4.160863,18.733350,9.065804,-11.869723,-0.676980,0.933042,-1.695496,-0.724609,0.283203,-0.053467,-0.037351,-0.201692,-0.040754,0.999947,-0.003385,0.004665,-0.008477,-0.242624,0.565455,-0.374898,-0.693431
34428,NaN,-2.221921,-19.509363,-3.796523,17.656079,8.964570,-12.615764,-0.509806,0.932185,-1.265792,-0.726318,0.272461,-0.049072,-0.023629,-0.195043,-0.037360,0.999966,-0.002549,0.004661,-0.006329,-0.243815,0.571659,-0.370669,-0.690192
34429,NaN,-2.269837,-20.086660,-4.387778,18.424420,9.402855,-9.775511,0.076301,0.693562,-0.978013,-0.724121,0.272461,-0.059814,-0.023832,-0.200735,-0.043873,0.999982,0.000382,0.003468,-0.004890,-0.275677,0.612942,-0.328024,-0.663855
34430,NaN,-7.282573,-54.564670,-30.341092,61.951815,10.589325,-9.060089,2.477218,0.478571,0.884787,-0.720215,0.283203,-0.068604,-0.071159,-0.542152,-0.309969,0.999911,0.012386,0.002393,0.004424,-0.279523,0.609610,-0.339588,-0.659486
34431,NaN,21.461509,-73.042879,-13.966225,65.464253,35.724354,-30.499791,-5.422927,2.331784,2.321061,-0.718262,0.289551,-0.062256,0.221606,-0.731359,-0.122395,0.999497,-0.027110,0.011657,0.011603,-0.278997,0.659907,-0.300373,-0.629650
34432,NaN,18.038189,-2.372819,11.565396,-5.492322,9.437033,-28.401357,-4.813448,-0.241442,-2.790890,-0.726318,0.270264,-0.040527,0.179913,-0.023445,0.116438,0.999612,-0.024064,-0.001207,-0.013953,-0.272157,0.669796,-0.275560,-0.633538
34433,NaN,12.516160,56.518981,11.938623,-41.651180,-36.151205,-31.066921,-1.864301,-1.555537,-1.638822,-0.728271,0.263916,-0.025391,0.128887,0.565230,0.115110,0.999893,-0.009321,-0.007777,-0.008194,-0.266034,0.712890,-0.188633,-0.620831
34434,NaN,35.776780,14.149706,-17.945559,11.122694,-20.048784,-45.541642,1.037570,0.159136,0.334606,-0.724121,0.268066,-0.040527,0.357387,0.143025,-0.179001,0.999985,0.005188,0.000796,0.001673,-0.268540,0.711678,-0.193255,-0.619721
34435,NaN,25.539839,-22.783785,7.840944,13.309621,22.650096,-33.107056,-1.063750,2.690019,1.597943,-0.719971,0.278809,-0.055664,0.258240,-0.225373,0.076152,0.999863,-0.005319,0.013449,0.007989,-0.257285,0.731125,-0.216393,-0.593663
34436,NaN,20.793275,-9.761786,4.036019,7.127069,9.862932,-29.709092,-4.080939,1.393689,-0.132235,-0.715576,0.272461,-0.051270,0.208152,-0.096925,0.040893,0.999767,-0.020403,0.006968,-0.000661,-0.241193,0.740484,-0.205540,-0.592675
34437,NaN,15.398342,-14.881526,-0.937597,13.239359,11.528595,-22.111038,0.063041,0.073666,-1.554974,-0.721680,0.263916,-0.046875,0.152817,-0.150003,-0.009480,0.999970,0.000315,0.000368,-0.007775,-0.257085,0.750176,-0.186018,-0.580121
34438,NaN,11.636459,-9.804094,1.231001,7.772791,8.826325,-19.545024,1.059668,-0.068184,-1.253910,-0.732178,0.253174,-0.051025,0.115743,-0.098831,0.011827,0.999966,0.005298,-0.000341,-0.006269,-0.264751,0.749757,-0.184295,-0.577760
34439,NaN,8.093533,-0.076454,-1.923777,4.034872,-0.579575,-17.064930,0.709186,0.106864,-1.462786,-0.731689,0.244629,-0.063721,0.080917,-0.001288,-0.019285,0.999967,0.003546,0.000534,-0.007314,-0.279218,0.761240,-0.160644,-0.562801
34440,NaN,5.961963,1.480071,-1.405818,2.157371,-1.596316,-15.514364,0.004082,0.529528,-0.937060,-0.733643,0.238281,-0.057129,0.059651,0.014522,-0.014216,0.999986,0.000020,0.002648,-0.004685,-0.281441,0.763466,-0.157826,-0.559466
34441,NaN,7.221007,-3.498792,-2.300506,6.264489,1.934339,-14.978977,-0.435232,0.743564,-0.887367,-0.731445,0.236084,-0.065674,0.071968,-0.035358,-0.023196,0.999981,-0.002176,0.003718,-0.004437,-0.295205,0.771485,-0.150269,-0.543216
34442,NaN,10.343036,-7.395230,-2.469256,9.737919,5.190507,-16.594633,-0.391434,0.664839,-0.977627,-0.730957,0.225342,-0.069824,0.102985,-0.074505,-0.024890,0.999981,-0.001957,0.003324,-0.004888,-0.295845,0.774588,-0.146414,-0.539492
34443,NaN,12.650293,-5.905295,-3.052568,10.509295,4.008431,-18.627745,0.008475,0.479111,-1.128784,-0.730713,0.216797,-0.071777,0.126093,-0.059764,-0.030831,0.999981,0.000042,0.002396,-0.005644,-0.305960,0.780220,-0.137790,-0.527882
34444,NaN,13.410200,-3.515826,-1.737018,8.660216,3.117962,-20.324032,0.361495,0.486764,-1.095161,-0.739014,0.206055,-0.069580,0.133864,-0.035860,-0.017761,0.999980,0.001807,0.002434,-0.005476,-0.309919,0.781691,-0.135215,-0.524048
34445,NaN,14.109896,-3.642260,-0.250586,8.243508,4.483730,-20.964198,0.431879,0.560509,-1.017857,-0.743164,0.204102,-0.075928,0.140903,-0.037134,-0.002981,0.999981,0.002159,0.002803,-0.005089,-0.311979,0.790294,-0.120426,-0.513423
34446,NaN,13.677533,-4.647750,0.676679,8.007289,5.824461,-20.352650,0.408216,0.578955,-0.994903,-0.738525,0.195557,-0.084473,0.136560,-0.047170,0.006275,0.999981,0.002041,0.002895,-0.004974,-0.315791,0.791727,-0.118445,-0.509327
34447,NaN,11.898861,-4.476904,-0.220814,8.051478,5.095837,-18.231617,0.465423,0.544743,-1.049008,-0.742432,0.184814,-0.090820,0.118745,-0.045386,-0.002637,0.999980,0.002327,0.002724,-0.005245,-0.323515,0.797865,-0.106275,-0.497448
34448,NaN,10.556494,-3.970320,-1.468157,8.149399,3.755724,-16.801164,0.500434,0.520759,-1.030602,-0.744385,0.174072,-0.094971,0.105320,-0.040209,-0.015056,0.999980,0.002502,0.002604,-0.005153,-0.327792,0.798883,-0.104250,-0.493427
34449,NaN,10.704974,-3.141036,-2.322994,8.662969,2.709555,-16.702459,0.504903,0.452468,-0.983719,-0.746338,0.171875,-0.099121,0.106841,-0.031877,-0.023552,0.999982,0.002524,0.002262,-0.004919,-0.336025,0.803943,-0.095652,-0.481262
34450,NaN,10.810581,-2.174028,-2.366675,8.357421,1.990683,-17.119247,0.722444,0.452423,-0.976708,-0.748047,0.156982,-0.103271,0.107944,-0.022181,-0.023991,0.999979,0.003612,0.002262,-0.004884,-0.341056,0.804269,-0.094223,-0.477446
34451,NaN,10.651177,-2.368829,-1.560216,8.024195,2.713428,-16.865470,0.882173,0.478678,-0.895453,-0.750000,0.154785,-0.109619,0.106367,-0.024095,-0.015963,0.999977,0.004411,0.002393,-0.004477,-0.349913,0.808366,-0.086831,-0.465367
34452,NaN,10.699308,-1.910176,-1.065182,7.567673,2.714492,-17.203183,0.936042,0.466461,-0.880712,-0.745361,0.146240,-0.111572,0.106882,-0.019522,-0.010992,0.999977,0.004680,0.002332,-0.004404,-0.355534,0.808177,-0.086265,-0.461523
34453,NaN,9.849070,-2.068577,-0.793945,7.169458,2.915640,-16.294240,1.017281,0.460345,-0.875978,-0.749512,0.139893,-0.122314,0.098380,-0.021075,-0.008273,0.999975,0.005086,0.002302,-0.004380,-0.364214,0.811049,-0.080141,-0.450694
34454,NaN,8.908138,-2.845905,-0.424837,6.795302,3.542397,-15.189398,0.996061,0.389758,-0.888861,-0.747070,0.131348,-0.124268,0.088945,-0.028832,-0.004565,0.999976,0.004980,0.001949,-0.004444,-0.370090,0.810450,-0.079491,-0.447084
34455,NaN,8.472017,-2.858144,-0.200317,6.550492,3.624511,-14.705278,0.917708,0.272339,-0.887507,-0.746582,0.122803,-0.128418,0.084589,-0.028947,-0.002251,0.999979,0.004589,0.001362,-0.004438,-0.380241,0.811775,-0.075927,-0.436661
34456,NaN,7.847182,-2.442147,-0.137425,5.986043,3.262979,-14.404084,0.858585,0.167380,-0.918576,-0.754883,0.112061,-0.128174,0.078357,-0.024775,-0.001546,0.999980,0.004293,0.000837,-0.004593,-0.385659,0.810841,-0.074392,-0.433900
34457,NaN,7.577523,-2.315147,-0.130348,5.859835,3.184147,-14.092736,0.758846,0.076641,-0.918886,-0.750488,0.109863,-0.134521,0.075667,-0.023494,-0.001421,0.999982,0.003794,0.000383,-0.004594,-0.393101,0.812371,-0.067071,-0.425471
34458,NaN,8.284763,-2.258042,0.343738,6.007572,3.664207,-14.745881,0.647749,0.013974,-0.837654,-0.754395,0.099121,-0.130127,0.082752,-0.022938,0.003358,0.999986,0.003239,0.000070,-0.004188,-0.397503,0.811398,-0.065076,-0.423544
34459,NaN,9.768300,-1.723464,0.789136,6.549835,4.033331,-16.124911,0.524668,-0.058535,-0.728372,-0.752197,0.094971,-0.130127,0.097617,-0.017611,0.007874,0.999990,0.002623,-0.000293,-0.003642,-0.404495,0.812095,-0.059221,-0.416387
34460,NaN,10.066403,-1.050460,0.771191,6.488068,3.691745,-16.690637,0.335879,-0.067073,-0.718667,-0.754150,0.088379,-0.130127,0.100623,-0.010879,0.007728,0.999992,0.001679,-0.000335,-0.003593,-0.407371,0.811483,-0.056869,-0.415102
34461,NaN,9.628717,-1.103773,-0.397639,7.048132,2.905061,-15.810418,0.309915,-0.039770,-0.644087,-0.756104,0.084229,-0.134277,0.096252,-0.011342,-0.003975,0.999994,0.001550,-0.000199,-0.003220,-0.411305,0.812752,-0.048837,-0.409728
34462,NaN,9.407261,-1.178270,-0.882129,7.254773,2.587614,-15.410487,0.392896,-0.043432,-0.548557,-0.753662,0.077637,-0.134277,0.094042,-0.012023,-0.008824,0.999994,0.001964,-0.000217,-0.002743,-0.414033,0.811985,-0.047326,-0.408678
34463,NaN,9.672850,-1.070128,-1.054207,7.590844,2.499305,-15.465386,0.460123,-0.033138,-0.454326,-0.755859,0.077637,-0.134277,0.096706,-0.010897,-0.010551,0.999995,0.002301,-0.000166,-0.002272,-0.420108,0.812437,-0.043744,-0.401923
34464,NaN,9.678957,-0.494241,-1.129045,7.420158,2.095620,-15.791882,0.442531,0.040455,-0.373752,-0.760010,0.071289,-0.129883,0.096778,-0.005098,-0.011321,0.999996,0.002213,0.000202,-0.001869,-0.422645,0.811668,-0.043204,-0.400874
34465,NaN,9.533771,0.084181,-1.312101,7.285702,1.605925,-15.892243,0.287411,0.101779,-0.249801,-0.753174,0.064941,-0.134033,0.095332,0.000742,-0.013168,0.999998,0.001437,0.000509,-0.001249,-0.426046,0.812860,-0.038721,-0.395278
34466,NaN,9.656076,-0.405260,-1.217790,7.520621,2.019881,-15.664812,0.189374,0.139933,-0.179588,-0.753418,0.066895,-0.136230,0.096549,-0.004128,-0.012249,0.999999,0.000947,0.000700,-0.000898,-0.427142,0.812768,-0.038668,-0.394288
34467,NaN,10.444473,-1.656484,-0.902297,8.425855,3.272965,-15.374854,0.204440,0.175670,-0.144024,-0.753418,0.066895,-0.136230,0.104425,-0.016631,-0.009132,0.999999,0.001022,0.000878,-0.000720,-0.428552,0.814124,-0.036051,-0.390186
34468,NaN,11.238241,-2.021336,-0.259843,8.746331,4.177002,-15.854680,0.272399,0.155163,-0.058289,-0.753174,0.064941,-0.140381,0.112374,-0.020242,-0.002713,0.999999,0.001362,0.000776,-0.000291,-0.429745,0.813854,-0.036682,-0.389378
34469,NaN,11.147875,-0.438005,-0.348786,8.160859,3.089953,-16.772657,0.341811,0.099158,0.038379,-0.759766,0.069092,-0.142578,0.111478,-0.004353,-0.003551,0.999998,0.001709,0.000496,0.000192,-0.431535,0.814151,-0.036197,-0.386813
34470,NaN,11.043389,-0.274535,-0.079728,7.865088,3.138419,-16.906970,0.415150,0.100895,0.181787,-0.755615,0.069092,-0.140381,0.110436,-0.002643,-0.000859,0.999997,0.002076,0.000504,0.000909,-0.432853,0.813417,-0.037963,-0.386717
34471,NaN,11.540459,-0.541249,0.439511,8.048105,3.789388,-17.197586,0.348097,0.102715,0.327579,-0.751221,0.071289,-0.146973,0.115415,-0.005231,0.004327,0.999997,0.001740,0.000514,0.001638,-0.434912,0.813223,-0.039788,-0.384626
34472,NaN,11.900011,-0.000165,0.373288,8.115310,3.465946,-17.805081,0.273451,0.122210,0.429141,-0.751221,0.071289,-0.142578,0.119002,0.000249,0.003660,0.999997,0.001367,0.000611,0.002146,-0.435171,0.812776,-0.042330,-0.385005
34473,NaN,12.259438,-1.106144,0.067774,8.999185,3.955726,-17.221362,0.244932,0.137148,0.552493,-0.753662,0.079834,-0.145020,0.122625,-0.010723,0.000580,0.999995,0.001225,0.000686,0.002762,-0.435518,0.812566,-0.045754,-0.384664
34474,NaN,12.396657,-0.951845,-0.283202,9.221315,3.578098,-17.351076,0.292522,0.100258,0.652875,-0.745117,0.082031,-0.142822,0.123995,-0.009109,-0.002908,0.999993,0.001463,0.000501,0.003264,-0.435423,0.811969,-0.049194,-0.385608
34475,NaN,12.916457,-0.781560,-0.248051,9.460419,3.582346,-17.885705,0.384719,0.056282,0.784995,-0.749756,0.090576,-0.145020,0.129193,-0.007304,-0.002531,0.999990,0.001924,0.000281,0.003925,-0.434862,0.811241,-0.052500,-0.387332
34476,NaN,13.705118,-0.661874,0.051381,9.741848,3.857106,-18.672075,0.500241,-0.021656,0.931972,-0.754150,0.092773,-0.145020,0.137080,-0.005981,0.000513,0.999986,0.002501,-0.000108,0.004660,-0.435083,0.809857,-0.057208,-0.389308
34477,NaN,14.567099,-0.055406,1.022774,9.454237,4.355611,-20.054445,0.565907,-0.092698,1.088067,-0.754395,0.099121,-0.147461,0.145666,0.000209,0.010295,0.999981,0.002830,-0.000463,0.005440,-0.434952,0.808428,-0.061707,-0.391731
34478,NaN,16.322960,0.541907,2.146404,9.654308,5.158673,-22.121987,0.461926,-0.085642,1.273604,-0.748291,0.107666,-0.149658,0.163182,0.006409,0.021548,0.999977,0.002310,-0.000428,0.006368,-0.434339,0.806846,-0.067580,-0.394693
34479,NaN,17.789887,0.762415,3.022045,9.956646,5.886882,-23.683470,0.349625,-0.092499,1.470936,-0.746826,0.126953,-0.143555,0.177823,0.008879,0.030317,0.999971,0.001748,-0.000462,0.007355,-0.433302,0.805609,-0.074239,-0.397156
34480,NaN,19.763465,1.573028,3.388339,10.537544,5.945198,-25.879911,0.279055,-0.108678,1.691030,-0.742676,0.131348,-0.149902,0.197474,0.017353,0.034014,0.999963,0.001395,-0.000543,0.008455,-0.431089,0.804133,-0.081374,-0.401137
34481,NaN,18.906474,3.132878,3.182040,9.130152,4.448732,-26.372685,0.286348,-0.178413,1.892469,-0.743408,0.152832,-0.150146,0.188729,0.033070,0.032035,0.999954,0.001432,-0.000892,0.009462,-0.428533,0.802325,-0.089372,-0.405768
34482,NaN,18.594848,4.345033,2.748295,8.311151,3.106630,-26.943377,0.386275,-0.297359,2.148853,-0.741455,0.161377,-0.145996,0.185427,0.045391,0.027845,0.999939,0.001931,-0.001487,0.010744,-0.425826,0.799886,-0.098142,-0.411366
34483,NaN,19.090041,5.994874,2.845631,7.404984,2.034272,-28.506931,0.539898,-0.448825,2.365597,-0.740234,0.184814,-0.146484,0.190109,0.062123,0.029049,0.999924,0.002699,-0.002244,0.011828,-0.424111,0.796449,-0.108774,-0.417093
34484,NaN,19.103364,7.277708,2.036287,6.780125,0.420428,-29.200334,0.614783,-0.541177,2.462377,-0.732178,0.204102,-0.144531,0.190062,0.075057,0.021106,0.999916,0.003074,-0.002706,0.012312,-0.421679,0.792613,-0.118714,-0.424098
34485,NaN,18.910170,6.638802,0.724775,7.319971,-0.456920,-28.477651,0.675886,-0.500804,2.478921,-0.732910,0.219238,-0.142578,0.188240,0.068699,0.007949,0.999914,0.003379,-0.002504,0.012394,-0.420555,0.788245,-0.130596,-0.429824
34486,NaN,18.761578,-1.456140,-2.283389,13.167181,1.896039,-23.315965,1.193155,-0.238567,2.635389,-0.722656,0.236328,-0.145020,0.187812,-0.011952,-0.022686,0.999895,0.005966,-0.001193,0.013176,-0.419700,0.783421,-0.143041,-0.435479
34487,NaN,22.215743,-12.526176,-1.928630,21.354544,8.871319,-20.739283,1.405706,0.064856,3.052762,-0.721436,0.261963,-0.149658,0.224027,-0.121712,-0.020223,0.999859,0.007028,0.000324,0.015263,-0.419637,0.778081,-0.159842,-0.439256
34488,NaN,22.416849,-15.920882,-4.414371,24.815108,8.453612,-19.201872,0.769930,-0.070383,3.113684,-0.711182,0.277100,-0.149902,0.226625,-0.155522,-0.044668,0.999871,0.003849,-0.000352,0.015568,-0.415791,0.773724,-0.173488,-0.445388
34489,NaN,23.740965,-16.507964,-5.340628,26.310328,7.573549,-20.535974,0.731465,-0.229119,3.405876,-0.705811,0.307129,-0.158691,0.240234,-0.160808,-0.053725,0.999848,0.003657,-0.001146,0.017029,-0.412806,0.768427,-0.189419,-0.450812
34490,NaN,23.616936,-11.571248,-3.882668,21.902372,5.359292,-23.891732,0.761880,-0.418009,3.435040,-0.691162,0.322021,-0.154541,0.238189,-0.111485,-0.038760,0.999843,0.003809,-0.002090,0.017174,-0.408315,0.762541,-0.203452,-0.458713
34491,NaN,22.630314,-10.364196,-2.422354,19.470151,5.102903,-24.651290,0.861295,-0.381948,4.417024,-0.677246,0.358398,-0.157227,0.228563,-0.098506,-0.024220,0.999745,0.004306,-0.001910,0.022083,-0.404286,0.754805,-0.223971,-0.465467
34492,NaN,20.625413,-18.042502,-5.287324,25.101739,6.504268,-20.124567,0.494655,-0.354155,4.902271,-0.659424,0.396973,-0.155518,0.210685,-0.175166,-0.052940,0.999695,0.002473,-0.001771,0.024509,-0.395010,0.747263,-0.242850,-0.476013
34493,NaN,17.364848,-17.479618,-0.460507,20.607836,9.438790,-19.479048,-0.014190,-0.288609,3.837206,-0.649414,0.422607,-0.157959,0.176965,-0.171422,-0.004339,0.999815,-0.000071,-0.001443,0.019185,-0.389121,0.741026,-0.259743,-0.481662
34494,NaN,17.384912,-8.930963,0.166453,13.466446,4.895963,-23.104515,0.259872,-1.165839,3.275096,-0.636963,0.435547,-0.156006,0.175267,-0.086450,0.002570,0.999848,0.001299,-0.005829,0.016375,-0.383642,0.733349,-0.270209,-0.491940
34495,NaN,16.890044,-3.495827,-1.325760,9.447055,0.296780,-24.299978,0.146703,-0.868183,3.671239,-0.620850,0.465332,-0.156494,0.169560,-0.031840,-0.012547,0.999822,0.000733,-0.004341,0.018355,-0.380704,0.724684,-0.286615,-0.497744
34496,NaN,12.918878,-1.805820,1.519125,4.862190,1.692929,-21.893228,0.058107,-0.692306,3.689818,-0.608643,0.484619,-0.148193,0.129439,-0.015676,0.015634,0.999824,0.000291,-0.003461,0.018448,-0.372647,0.717436,-0.298776,-0.507102
34497,NaN,10.955110,-1.976329,0.748471,4.482936,0.991788,-19.980639,0.060649,-0.653973,3.489045,-0.594727,0.516846,-0.150635,0.109848,-0.017851,0.007838,0.999842,0.000303,-0.003270,0.017444,-0.370633,0.708447,-0.315885,-0.510833
34498,NaN,9.762031,-0.961217,0.747271,3.003940,0.401496,-19.171409,0.200993,-0.539332,3.343404,-0.577881,0.531738,-0.150879,0.097742,-0.007987,0.007728,0.999856,0.001005,-0.002697,0.016716,-0.363593,0.701316,-0.327212,-0.518545
34499,NaN,8.584888,0.571133,0.516405,1.307614,-0.652610,-18.306880,0.428784,-0.440860,3.134980,-0.570312,0.559570,-0.157471,0.085734,0.007044,0.005367,0.999872,0.002144,-0.002204,0.015674,-0.365972,0.690888,-0.347352,-0.517770
34500,NaN,6.015778,2.157883,0.429595,-0.801601,-1.320398,-16.028928,0.384344,-0.377346,2.906649,-0.557617,0.563965,-0.159668,0.059827,0.022441,0.004452,0.999891,0.001922,-0.001887,0.014533,-0.360378,0.684085,-0.357676,-0.523664
34501,NaN,3.338669,3.170076,-0.414432,-1.981272,-2.228208,-13.344928,0.195199,-0.235354,2.064698,-0.539062,0.587402,-0.162109,0.033062,0.032047,-0.004074,0.999946,0.000976,-0.001177,0.010323,-0.363981,0.676492,-0.373481,-0.519988
34502,NaN,2.061993,3.987257,-0.263425,-3.057343,-2.313605,-12.161937,0.023102,-0.103166,1.420553,-0.543457,0.587402,-0.157959,0.020337,0.040018,-0.002619,0.999975,0.000116,-0.000516,0.007103,-0.360536,0.673512,-0.378167,-0.522862
34503,NaN,1.588397,4.568049,0.275397,-3.918456,-2.020439,-11.819996,-0.286515,-0.042164,0.871348,-0.530762,0.598145,-0.157959,0.015684,0.045753,0.002692,0.999989,-0.001433,-0.000211,0.004357,-0.359568,0.671861,-0.382523,-0.522483
34504,NaN,0.029387,4.728412,-0.038068,-4.181679,-2.170664,-10.215012,-0.601803,-0.015040,0.462484,-0.532959,0.600342,-0.157959,0.000185,0.047283,-0.000523,0.999993,-0.003009,-0.000075,0.002312,-0.356351,0.672015,-0.382493,-0.524509
34505,NaN,-0.773929,4.649313,0.132653,-4.299798,-1.900444,-9.448571,-0.841121,-0.148149,-0.126225,-0.535400,0.602295,-0.149414,-0.007711,0.046503,0.001125,0.999991,-0.004206,-0.000741,-0.000631,-0.354348,0.673825,-0.379488,-0.525725
34506,NaN,0.128317,5.572981,0.249098,-5.001049,-2.396177,-10.432464,-1.065888,0.013469,-0.500412,-0.548096,0.598145,-0.143066,0.001423,0.055739,0.002194,0.999983,-0.005329,0.000067,-0.002502,-0.352027,0.676687,-0.375035,-0.526802
34507,NaN,-0.978092,6.858599,-0.223441,-6.065322,-3.330288,-9.403831,-1.082347,0.018198,-1.011905,-0.550293,0.598145,-0.145264,-0.009434,0.068621,-0.002605,0.999973,-0.005412,0.000091,-0.005059,-0.351036,0.680938,-0.368595,-0.526531
34508,NaN,-2.184101,7.313120,-0.132881,-6.678934,-3.396080,-8.354335,-1.056651,0.035233,-1.352493,-0.560547,0.587402,-0.138672,-0.021346,0.073268,-0.001712,0.999963,-0.005283,0.000176,-0.006762,-0.350907,0.685354,-0.361274,-0.525961
34509,NaN,-2.192323,6.449519,-0.474934,-5.750966,-3.348316,-8.282296,-0.876348,0.047637,-1.595462,-0.573486,0.585205,-0.130127,-0.021409,0.064646,-0.005027,0.999959,-0.004382,0.000238,-0.007977,-0.351986,0.690195,-0.353469,-0.524210
34510,NaN,-2.478811,5.226778,-0.084705,-4.936888,-2.436223,-8.034557,-0.730644,0.080804,-1.884573,-0.579590,0.572510,-0.121338,-0.024295,0.052495,-0.001029,0.999949,-0.003653,0.000404,-0.009423,-0.354230,0.694989,-0.345193,-0.521875
34511,NaN,-2.699397,4.794193,0.512555,-4.912923,-1.748587,-7.985638,-0.699282,0.086005,-2.131572,-0.598633,0.568115,-0.117188,-0.026479,0.048244,0.004969,0.999937,-0.003496,0.000430,-0.010658,-0.357129,0.700342,-0.336056,-0.518697
34512,NaN,-2.962571,4.811076,0.563280,-5.028624,-1.762019,-7.851261,-0.802022,0.080709,-2.322641,-0.611084,0.551025,-0.110596,-0.029062,0.048473,0.005451,0.999924,-0.004010,0.000404,-0.011613,-0.360168,0.705835,-0.325980,-0.515571
34513,NaN,-3.273330,4.122602,0.043019,-4.301998,-1.887807,-7.437862,-0.783365,0.149886,-2.569268,-0.621338,0.538086,-0.108154,-0.032200,0.041643,0.000292,0.999910,-0.003917,0.000749,-0.012846,-0.363669,0.711936,-0.315139,-0.511448
34514,NaN,-3.846229,2.367022,0.103808,-3.099002,-0.922073,-6.658069,-0.604088,0.282625,-2.849689,-0.642090,0.512451,-0.107910,-0.038118,0.024218,0.001020,0.999893,-0.003020,0.001413,-0.014248,-0.368309,0.718173,-0.303950,-0.506153
34515,NaN,-4.719997,0.583877,-0.247863,-1.836991,-0.256806,-5.426518,-0.489927,0.350044,-3.063033,-0.656494,0.493164,-0.107666,-0.047107,0.006555,-0.002412,0.999878,-0.002450,0.001750,-0.015315,-0.373633,0.724656,-0.292353,-0.499802
34516,NaN,-5.679327,-1.124286,0.047313,-1.083623,0.904117,-4.197849,-0.395317,0.373707,-3.207601,-0.672852,0.471924,-0.109619,-0.056963,-0.010329,0.000600,0.999868,-0.001976,0.001868,-0.016037,-0.379608,0.730923,-0.280422,-0.492963
34517,NaN,-6.833249,-2.893636,-0.695735,0.071630,1.226465,-2.461754,-0.545034,0.288982,-3.266865,-0.689453,0.454834,-0.100830,-0.068803,-0.027834,-0.006781,0.999862,-0.002725,0.001445,-0.016334,-0.385144,0.737229,-0.267678,-0.486318
34518,NaN,-7.261870,-4.657255,-1.819226,1.597583,1.206973,-1.226712,-0.786349,0.197213,-3.254582,-0.701416,0.428955,-0.094238,-0.073382,-0.045453,-0.017940,0.999859,-0.003932,0.000986,-0.016272,-0.389830,0.743477,-0.254131,-0.480304
34519,NaN,-7.699076,-7.036473,-2.955304,3.514985,1.542219,0.325300,-0.685647,0.187935,-3.232673,-0.715820,0.407471,-0.085449,-0.078143,-0.069208,-0.029241,0.999863,-0.003428,0.000940,-0.016163,-0.394718,0.749325,-0.240807,-0.474049
34520,NaN,-7.574496,-10.116147,-3.541660,5.819217,2.757956,1.622807,-0.699236,0.187486,-3.076856,-0.727783,0.379639,-0.082764,-0.077323,-0.100103,-0.034993,0.999875,-0.003496,0.000937,-0.015384,-0.399105,0.754763,-0.227982,-0.468052
34521,NaN,-6.707895,-12.496246,-4.013503,7.828120,3.737702,2.103518,-0.792977,0.195541,-2.870654,-0.735840,0.362549,-0.082520,-0.068904,-0.124140,-0.039575,0.999889,-0.003965,0.000978,-0.014353,-0.402556,0.760056,-0.215625,-0.462353
34522,NaN,-5.266364,-14.664035,-4.282534,9.838687,4.865240,2.045772,-0.949101,0.308705,-2.548887,-0.741455,0.336914,-0.073730,-0.054594,-0.146154,-0.042048,0.999906,-0.004745,0.001543,-0.012744,-0.404460,0.765359,-0.204366,-0.457025
34523,NaN,-4.469379,-17.278972,-4.112328,11.587902,6.659878,2.709294,-0.959902,0.440472,-2.166436,-0.753662,0.319824,-0.069336,-0.046653,-0.172486,-0.040194,0.999927,-0.004799,0.002202,-0.010832,-0.405296,0.770549,-0.194655,-0.451773
34524,NaN,-3.527798,-19.584627,-3.847618,13.148790,8.404165,3.120733,-0.819136,0.546619,-1.691564,-0.755615,0.311279,-0.066895,-0.037037,-0.195693,-0.037575,0.999952,-0.004096,0.002733,-0.008458,-0.405400,0.775056,-0.187406,-0.447010
34525,NaN,-2.251495,-18.999330,-1.095166,11.687445,10.434046,1.222305,-0.773127,0.557638,-1.160261,-0.752930,0.293945,-0.066650,-0.023646,-0.189899,-0.010153,0.999972,-0.003866,0.002788,-0.005801,-0.404590,0.779017,-0.182106,-0.443032
34526,NaN,-2.819477,-13.812829,-0.398061,7.509837,7.850690,-0.819928,-0.176963,0.405983,-0.891455,-0.756836,0.285400,-0.064453,-0.028818,-0.138004,-0.003800,0.999988,-0.000885,0.002030,-0.004457,-0.405492,0.781079,-0.179081,-0.439798
34527,NaN,-10.874068,-48.063744,-27.456941,39.700689,5.570463,29.869840,3.972154,0.521789,0.765881,-0.755127,0.298340,-0.092529,-0.107646,-0.475476,-0.283766,0.999792,0.019859,0.002609,0.003829,-0.419020,0.773344,-0.191544,-0.435514
34528,NaN,20.870692,-90.537884,-8.961814,75.711251,47.814313,16.494003,-5.190835,3.192352,4.490864,-0.736572,0.321777,-0.075684,0.227776,-0.902388,-0.069703,0.999284,-0.025948,0.015958,0.022449,-0.385810,0.786315,-0.204174,-0.437233
34529,NaN,17.123775,0.270739,13.241246,1.890549,10.605965,-28.589316,-4.603297,-1.216406,-3.623847,-0.757324,0.298340,-0.047363,0.170477,0.002677,0.133389,0.999553,-0.023013,-0.006081,-0.018117,-0.377168,0.796109,-0.176771,-0.438984
34530,NaN,-1.481369,56.603589,11.079134,-41.241736,-29.275522,-37.575083,-2.462439,-2.409960,-1.736244,-0.756836,0.283203,-0.023682,-0.011169,0.567449,0.103661,0.999814,-0.012311,-0.012049,-0.008681,-0.373228,0.796853,-0.159898,-0.447391
34531,NaN,34.221956,6.935229,-27.700400,31.046224,-22.525685,-32.512107,0.170428,0.366232,0.893794,-0.746582,0.300293,-0.038818,0.341396,0.071116,-0.277570,0.999988,0.000852,0.001831,0.004469,-0.371901,0.796762,-0.164121,-0.447130
34532,NaN,19.168009,-19.649493,4.945920,19.290055,17.980076,-18.898565,-1.679888,2.747196,1.670975,-0.744629,0.302490,-0.041016,0.193981,-0.194471,0.048444,0.999835,-0.008399,0.013735,0.008354,-0.359149,0.804528,-0.172123,-0.440592
34533,NaN,16.547744,-9.301925,-1.876779,15.736566,5.793663,-18.904511,-3.027688,0.226674,-0.828085,-0.744385,0.298340,-0.038818,0.165069,-0.093975,-0.017537,0.999876,-0.015138,0.001133,-0.004140,-0.348607,0.811466,-0.162130,-0.440125
34534,NaN,12.599712,-13.396881,0.117299,14.625927,10.103023,-14.529831,0.005213,0.158149,-0.962257,-0.746094,0.285400,-0.040771,0.125351,-0.134573,0.001070,0.999988,0.000026,0.000791,-0.004811,-0.350605,0.812579,-0.158530,-0.437789
34535,NaN,9.601687,-9.572361,5.453767,7.575330,11.128474,-15.498959,0.404237,-0.400988,-1.345717,-0.752441,0.281006,-0.034424,0.095260,-0.096477,0.054535,0.999973,0.002021,-0.002005,-0.006729,-0.355623,0.812401,-0.152803,-0.436106
34536,NaN,12.777322,-3.788480,1.600076,8.511850,4.629960,-19.101520,0.930775,-0.155671,-1.112130,-0.764893,0.268311,-0.038574,0.127547,-0.038669,0.015921,0.999973,0.004654,-0.000778,-0.005561,-0.361930,0.811238,-0.150054,-0.434031
34537,NaN,11.629498,-2.191720,0.940614,7.434388,3.056510,-18.548809,-0.344547,0.268853,-1.113285,-0.753906,0.261719,-0.036133,0.116183,-0.022548,0.009288,0.999982,-0.001723,0.001344,-0.005566,-0.362961,0.813539,-0.144809,-0.430631
34538,NaN,12.412333,-5.387245,-3.113554,12.127970,2.491931,-16.096247,-0.093338,0.514895,-1.029105,-0.757812,0.251221,-0.038330,0.123763,-0.054525,-0.031429,0.999983,-0.000467,0.002574,-0.005145,-0.364410,0.815553,-0.141373,-0.426722
34539,NaN,12.191979,-6.637916,-3.167862,12.772025,3.352884,-15.139299,-0.034671,0.483588,-1.087771,-0.766357,0.244629,-0.040283,0.121479,-0.067046,-0.031961,0.999982,-0.000173,0.002418,-0.005439,-0.366431,0.817683,-0.137289,-0.422226
34540,NaN,12.721516,-5.005478,-3.478292,12.465201,2.089879,-16.076782,0.362074,0.353305,-1.244694,-0.763672,0.233887,-0.046631,0.126839,-0.050782,-0.035099,0.999977,0.001810,0.001767,-0.006223,-0.370280,0.818605,-0.133629,-0.418236
34541,NaN,12.970209,-4.656791,-1.669475,11.461164,3.222003,-16.951096,0.520955,0.386498,-1.232763,-0.770020,0.227539,-0.057129,0.129379,-0.047322,-0.017068,0.999976,0.002605,0.001932,-0.006164,-0.374868,0.819566,-0.129925,-0.413408
34542,NaN,13.066430,-4.778140,-0.734233,11.128162,4.034272,-17.160273,0.588301,0.383787,-1.255397,-0.769531,0.216797,-0.059082,0.130346,-0.048578,-0.007735,0.999974,0.002941,0.001919,-0.006277,-0.379607,0.820055,-0.126732,-0.409082
34543,NaN,12.606591,-5.051105,-0.391574,10.879575,4.466671,-16.615181,0.585011,0.435047,-1.238754,-0.773438,0.204102,-0.056885,0.125741,-0.051278,-0.004339,0.999974,0.002925,0.002175,-0.006194,-0.384388,0.820913,-0.123200,-0.403942
34544,NaN,11.877070,-4.802499,-1.102688,10.768122,3.734328,-15.766210,0.588991,0.419027,-1.275628,-0.770996,0.197510,-0.065430,0.118438,-0.048748,-0.011418,0.999973,0.002945,0.002095,-0.006378,-0.389106,0.821395,-0.119976,-0.399390
34545,NaN,11.240006,-4.212692,-2.260247,10.783163,2.449419,-15.000632,0.674407,0.407370,-1.292625,-0.775146,0.191162,-0.069580,0.112078,-0.042775,-0.022974,0.999971,0.003372,0.002037,-0.006463,-0.394338,0.821956,-0.116313,-0.394154
34546,NaN,10.694016,-3.628888,-2.989577,10.595374,1.476029,-14.505876,0.859328,0.384198,-1.285843,-0.778809,0.174072,-0.077881,0.106647,-0.036846,-0.030258,0.999968,0.004297,0.001921,-0.006429,-0.400161,0.821744,-0.113496,-0.389520
34547,NaN,10.495645,-2.891843,-3.216974,10.283895,0.813122,-14.550741,1.063904,0.360007,-1.282860,-0.774170,0.169678,-0.082031,0.104711,-0.029418,-0.032514,0.999964,0.005319,0.001800,-0.006414,-0.406909,0.821343,-0.110518,-0.384196
34548,NaN,10.278836,-2.328571,-2.694325,9.629703,0.822216,-14.805449,1.252661,0.337700,-1.248996,-0.780273,0.159180,-0.086182,0.102595,-0.023757,-0.027264,0.999959,0.006263,0.001688,-0.006245,-0.414243,0.820104,-0.108497,-0.379553
34549,NaN,10.100355,-2.514255,-1.867943,9.222428,1.552427,-14.748623,1.379975,0.317638,-1.184558,-0.784180,0.146240,-0.096680,0.100823,-0.025610,-0.019015,0.999957,0.006900,0.001588,-0.005923,-0.422002,0.818813,-0.106412,-0.374347
34550,NaN,9.693751,-2.427190,-1.009737,8.503994,2.108103,-14.723540,1.430292,0.247958,-1.154779,-0.779541,0.139893,-0.103027,0.096783,-0.024757,-0.010393,0.999957,0.007151,0.001240,-0.005774,-0.429863,0.816843,-0.104900,-0.370111
34551,NaN,8.790245,-1.830770,-0.306412,7.277305,2.179769,-14.608776,1.383554,0.174016,-1.161795,-0.779297,0.133545,-0.109375,0.087791,-0.018796,-0.003269,0.999959,0.006918,0.000870,-0.005809,-0.437578,0.815128,-0.102576,-0.365472
34552,NaN,8.099765,-2.290461,0.288875,6.759647,2.838521,-13.958151,1.262483,0.163499,-1.127098,-0.789551,0.116211,-0.104980,0.080869,-0.023378,0.002676,0.999964,0.006312,0.000817,-0.005635,-0.444678,0.813217,-0.100664,-0.361672
34553,NaN,7.579248,-2.750231,0.589942,6.509593,3.284513,-13.304544,1.101711,0.103894,-1.125159,-0.784912,0.107666,-0.113281,0.075639,-0.027960,0.005707,0.999969,0.005508,0.000519,-0.005626,-0.451157,0.811837,-0.097794,-0.357512
34554,NaN,7.881139,-3.126976,0.558652,6.964708,3.542594,-13.151005,1.030097,0.050015,-1.106749,-0.791016,0.094971,-0.111084,0.078638,-0.031733,0.005404,0.999971,0.005150,0.000250,-0.005534,-0.457274,0.810124,-0.095274,-0.354292
34555,NaN,8.528548,-3.271844,0.959550,7.355543,4.079443,-13.502535,0.993272,0.032544,-1.032006,-0.790771,0.090576,-0.113037,0.085117,-0.033205,0.009418,0.999974,0.004966,0.000163,-0.005160,-0.463157,0.808689,-0.092400,-0.350671
34556,NaN,8.897238,-1.892879,0.958777,7.013327,3.406422,-14.595135,0.861497,0.022409,-0.977846,-0.792725,0.082031,-0.119385,0.088879,-0.019405,0.009495,0.999979,0.004307,0.000112,-0.004889,-0.468329,0.807172,-0.090027,-0.347903
34557,NaN,8.778343,-0.339618,0.325169,6.544863,2.058161,-15.308917,0.726052,0.053753,-0.915086,-0.794678,0.075684,-0.119385,0.087767,-0.003809,0.003215,0.999983,0.003630,0.000269,-0.004575,-0.472906,0.806240,-0.087185,-0.344581
34558,NaN,8.184087,-0.804583,-0.069150,6.540424,1.905042,-14.419712,0.527533,0.094836,-0.840499,-0.794189,0.067139,-0.114990,0.081806,-0.008388,-0.000752,0.999988,0.002638,0.000474,-0.004202,-0.476429,0.805516,-0.084950,-0.341970
34559,NaN,8.394484,-1.161026,-0.015659,6.875876,2.203410,-14.249191,0.289984,0.124120,-0.739260,-0.794189,0.067139,-0.125732,0.083901,-0.011920,-0.000226,0.999992,0.001450,0.000621,-0.003696,-0.478884,0.805617,-0.082224,-0.338956
34560,NaN,8.544878,-0.356745,-0.422317,6.841786,1.488588,-14.741617,0.086157,0.188703,-0.662390,-0.791748,0.058594,-0.123291,0.085432,-0.003849,-0.004305,0.999994,0.000431,0.000944,-0.003312,-0.480268,0.806002,-0.080174,-0.336565
34561,NaN,8.752504,-1.265430,-2.060036,8.207531,0.663257,-13.639909,0.037062,0.262730,-0.609485,-0.795898,0.054199,-0.125488,0.087459,-0.012917,-0.020718,0.999994,0.000185,0.001314,-0.003047,-0.481405,0.806868,-0.077882,-0.333388
34562,NaN,8.963095,-1.651748,-2.822218,8.916298,0.277800,-13.196835,0.081007,0.266635,-0.545628,-0.791504,0.052002,-0.129639,0.089548,-0.016750,-0.028348,0.999995,0.000405,0.001333,-0.002728,-0.482531,0.807330,-0.076477,-0.330958
34563,NaN,8.818417,-0.148871,-3.071216,8.280962,-0.741404,-14.066494,0.270328,0.235170,-0.463097,-0.793457,0.047852,-0.131836,0.088144,-0.001651,-0.030818,0.999996,0.001352,0.001176,-0.002315,-0.484316,0.807554,-0.075074,-0.328112
34564,NaN,8.815842,-0.211761,-2.748607,8.173854,-0.447090,-14.091344,0.408347,0.221406,-0.326563,-0.791260,0.041260,-0.133789,0.088124,-0.002205,-0.027588,0.999996,0.002042,0.001107,-0.001633,-0.486411,0.807052,-0.074981,-0.326265
34565,NaN,9.761028,0.064925,-1.815790,8.384015,0.362134,-15.118918,0.423389,0.250424,-0.159606,-0.793457,0.043457,-0.135986,0.097588,0.000610,-0.018279,0.999997,0.002117,0.001252,-0.000798,-0.488243,0.806850,-0.075091,-0.323997
34566,NaN,10.626613,0.073846,-0.755050,8.588443,1.389673,-15.961493,0.411916,0.316353,0.010080,-0.793457,0.045654,-0.135986,0.106254,0.000760,-0.007717,0.999997,0.002060,0.001582,0.000050,-0.489764,0.806354,-0.076591,-0.322581
34567,NaN,11.205807,-0.356572,0.245644,8.807122,2.525705,-16.278974,0.297022,0.340963,0.131293,-0.795654,0.047852,-0.140381,0.112064,-0.003496,0.002260,0.999997,0.001485,0.001705,0.000656,-0.490549,0.806496,-0.077894,-0.320715
34568,NaN,11.810830,-0.696099,0.971188,9.120437,3.378457,-16.619075,0.195228,0.324332,0.260068,-0.784912,0.047852,-0.146729,0.118133,-0.006817,0.009514,0.999997,0.000976,0.001622,0.001300,-0.490787,0.806438,-0.080071,-0.319959
34569,NaN,12.768292,-0.493647,1.506366,9.562196,3.853489,-17.510530,0.146224,0.286278,0.421855,-0.791504,0.050049,-0.142578,0.127714,-0.004678,0.014877,0.999996,0.000731,0.001431,0.002109,-0.490540,0.806716,-0.082190,-0.319100
34570,NaN,13.817003,0.087076,1.646323,10.052530,3.804609,-18.650021,0.115615,0.231795,0.612642,-0.791504,0.054199,-0.148926,0.138185,0.001285,0.016304,0.999994,0.000578,0.001159,0.003063,-0.489927,0.806550,-0.085434,-0.319610
34571,NaN,14.573380,0.287313,1.734641,10.499359,3.839965,-19.325411,0.130819,0.153832,0.808972,-0.787598,0.064941,-0.146973,0.145734,0.003451,0.017236,0.999991,0.000654,0.000769,0.004045,-0.489085,0.806451,-0.088745,-0.320245
34572,NaN,14.931398,0.558100,2.163234,10.415882,4.046129,-19.965232,0.067002,0.060143,0.990287,-0.789795,0.067139,-0.149170,0.149290,0.006313,0.021589,0.999988,0.000335,0.000301,0.004951,-0.487732,0.805938,-0.093012,-0.322381
34573,NaN,15.173568,0.966303,3.053475,9.965884,4.546698,-20.789951,-0.017093,-0.038445,1.242619,-0.792480,0.082031,-0.153809,0.151666,0.010608,0.030563,0.999981,-0.000085,-0.000192,0.006213,-0.485686,0.805635,-0.097371,-0.324931
34574,NaN,17.021194,1.530655,4.183485,10.507409,5.394017,-22.853318,-0.233664,-0.096787,1.559004,-0.788818,0.097168,-0.145264,0.170065,0.016682,0.041898,0.999969,-0.001168,-0.000484,0.007795,-0.482240,0.805265,-0.103053,-0.329201
34575,NaN,19.821391,3.048923,3.963440,11.826141,4.689073,-25.813757,-0.462970,-0.142673,1.881883,-0.789062,0.105713,-0.149658,0.197886,0.032444,0.039702,0.999953,-0.002315,-0.000713,0.009409,-0.477403,0.805422,-0.109027,-0.333909
34576,NaN,21.274112,3.749317,2.141489,13.085158,2.784496,-26.907642,-0.547587,-0.262360,2.142376,-0.785400,0.125000,-0.145752,0.212295,0.039828,0.021587,0.999938,-0.002738,-0.001312,0.010712,-0.471729,0.805078,-0.116127,-0.340347
34577,NaN,21.342126,4.699189,1.443920,12.641511,1.485452,-27.634468,-0.408686,-0.451994,2.365126,-0.783936,0.146484,-0.144043,0.212812,0.049541,0.014821,0.999925,-0.002043,-0.002260,0.011825,-0.466387,0.804148,-0.123387,-0.347282
34578,NaN,21.134053,5.544309,1.655815,11.535899,0.973638,-28.415826,-0.109941,-0.649574,2.541873,-0.782715,0.165771,-0.133545,0.210558,0.058132,0.017211,0.999914,-0.000550,-0.003248,0.012709,-0.461887,0.801643,-0.131910,-0.355849
34579,NaN,20.749708,6.462277,1.382981,10.437322,0.029490,-28.924321,0.306120,-0.823212,2.666230,-0.776855,0.189209,-0.135986,0.206552,0.067358,0.014783,0.999901,0.001531,-0.004116,0.013331,-0.458929,0.797989,-0.140746,-0.364400
34580,NaN,21.037254,7.792836,1.397801,9.345461,-0.785279,-30.239646,0.613923,-0.875679,2.636011,-0.777588,0.204102,-0.134033,0.209257,0.080646,0.015141,0.999899,0.003070,-0.004378,0.013180,-0.457140,0.793054,-0.150377,-0.373463
34581,NaN,20.154964,2.762340,-0.085361,11.872562,0.438209,-26.325855,1.031846,-0.633032,2.629173,-0.771729,0.223389,-0.127930,0.201164,0.030271,-0.000065,0.999895,0.005159,-0.003165,0.013145,-0.456808,0.787851,-0.160874,-0.380442
34582,NaN,23.027794,-7.198838,-1.747751,20.151463,4.312131,-22.478905,1.480934,-0.226733,3.036759,-0.759521,0.247070,-0.132568,0.231354,-0.068350,-0.017731,0.999857,0.007404,-0.001134,0.015183,-0.456976,0.781487,-0.175131,-0.387014
34583,NaN,23.576614,-13.502955,-4.382008,25.442685,4.888714,-19.090943,1.896517,0.103053,3.019653,-0.755615,0.260010,-0.145508,0.237742,-0.131026,-0.045197,0.999841,0.009482,0.000515,0.015097,-0.458431,0.775036,-0.190378,-0.391045
34584,NaN,23.276153,-18.759399,-1.686848,27.487356,9.163036,-17.357855,2.246475,0.230009,3.091765,-0.748047,0.285645,-0.152344,0.235601,-0.183759,-0.019217,0.999817,0.011232,0.001150,0.015458,-0.460782,0.767257,-0.207262,-0.395019
34585,NaN,21.546804,-17.634636,-2.827551,26.164271,6.855134,-16.995763,1.706624,0.017243,3.247273,-0.729736,0.315674,-0.158936,0.218288,-0.172567,-0.029778,0.999832,0.008533,0.000086,0.016235,-0.460978,0.760380,-0.222638,-0.399693
34586,NaN,20.934269,-13.798087,-4.392315,23.580429,3.108046,-18.876739,1.051012,-0.174247,3.448464,-0.723877,0.339111,-0.167969,0.211716,-0.134111,-0.044451,0.999837,0.005255,-0.000871,0.017241,-0.458194,0.753652,-0.237429,-0.407056
34587,NaN,21.862530,-14.683165,-6.764777,25.392736,1.042955,-19.473538,0.638587,-0.954022,4.202282,-0.705811,0.373535,-0.159668,0.221963,-0.141976,-0.067053,0.999763,0.003193,-0.004770,0.021010,-0.453239,0.745641,-0.251861,-0.418522
34588,NaN,19.934167,-15.323152,-9.807953,25.709297,-1.745522,-17.828128,0.502047,-0.354647,4.201249,-0.691650,0.401367,-0.170898,0.202672,-0.148751,-0.098099,0.999775,0.002510,-0.001773,0.021005,-0.446656,0.738308,-0.267732,-0.428625
34590,NaN,14.095901,-9.905149,-0.877416,29.417544,6.852149,-26.469718,0.239905,-0.840866,3.493475,-0.663574,0.457031,-0.167236,0.288742,-0.188055,-0.015598,0.999352,0.002399,-0.008407,0.034927,-0.435574,0.724520,-0.290180,-0.448489
34591,NaN,11.830135,-2.437236,1.536229,6.264795,2.071021,-20.044929,-0.093343,-0.920996,3.596188,-0.651855,0.491211,-0.165527,0.118642,-0.022234,0.015919,0.999828,-0.000467,-0.004605,0.017980,-0.428423,0.717321,-0.300961,-0.459702
34592,NaN,8.672675,-1.276710,2.343740,3.441257,2.308493,-17.884856,-0.038036,-0.975840,3.199814,-0.639648,0.510498,-0.157227,0.086800,-0.011374,0.023863,0.999860,-0.000190,-0.004879,0.015998,-0.422522,0.711032,-0.309715,-0.469027
34593,NaN,8.379836,1.086248,1.846772,1.304780,0.766744,-18.328347,0.182516,-0.845065,2.878543,-0.625488,0.536133,-0.159668,0.083552,0.012049,0.018832,0.999887,0.000913,-0.004225,0.014392,-0.417671,0.704133,-0.318574,-0.477764
34594,NaN,7.463772,2.483860,1.191981,-0.139121,-0.434806,-17.755342,0.439593,-0.743649,2.713405,-0.615234,0.551270,-0.159912,0.074247,0.025821,0.012252,0.999899,0.002198,-0.003718,0.013567,-0.414040,0.697805,-0.327077,-0.484416
34595,NaN,6.131595,3.736747,0.915733,-1.722846,-1.182659,-16.742953,0.484994,-0.548261,2.481353,-0.598633,0.572510,-0.162109,0.060821,0.038101,0.009416,0.999916,0.002425,-0.002741,0.012406,-0.410573,0.691364,-0.335765,-0.490619
34596,NaN,3.389047,3.506870,-0.176879,-2.004156,-1.907946,-13.832331,0.236436,-0.150324,1.744232,-0.594971,0.585449,-0.164551,0.033584,0.035365,-0.001702,0.999961,0.001182,-0.000752,0.008721,-0.407499,0.688248,-0.341610,-0.493519
34597,NaN,3.820307,3.879467,-0.683178,-2.084333,-2.553361,-14.199826,0.596824,-0.370770,1.472208,-0.582275,0.593994,-0.164551,0.037928,0.039095,-0.006645,0.999967,0.002984,-0.001854,0.007361,-0.406529,0.683587,-0.347400,-0.496746
34598,NaN,2.868169,2.508022,0.237381,-1.551823,-1.066172,-13.133510,0.373143,-0.084405,1.183039,-0.584717,0.602539,-0.171143,0.028532,0.025245,0.002433,0.999981,0.001866,-0.000422,0.005915,-0.405126,0.681189,-0.351819,-0.498075
34599,NaN,0.429934,1.697625,0.196584,-1.469203,-0.575113,-10.597600,0.030756,-0.061823,0.764240,-0.578369,0.608887,-0.166992,0.004234,0.016992,0.001970,0.999993,0.000154,-0.000309,0.003821,-0.403422,0.679631,-0.354388,-0.499762
34600,NaN,0.313180,1.628121,0.426515,-1.530762,-0.333493,-10.502841,-0.545807,-0.321319,0.568502,-0.574219,0.611084,-0.166992,0.003079,0.016302,0.004226,0.999991,-0.002729,-0.001607,0.002843,-0.400817,0.679490,-0.353983,-0.502329
34601,NaN,1.244665,2.916878,0.256768,-2.375260,-1.124709,-11.606125,-0.785158,-0.264542,0.291398,-0.576660,0.617432,-0.164795,0.012401,0.029197,0.002470,0.999990,-0.003926,-0.001323,0.001457,-0.397870,0.679885,-0.352485,-0.505183
34602,NaN,-0.228635,5.340770,0.327174,-4.883755,-2.035021,-10.643693,-0.870831,-0.153921,-0.205122,-0.578857,0.619629,-0.149902,-0.002234,0.053424,0.003037,0.999990,-0.004354,-0.000770,-0.001026,-0.395779,0.682098,-0.349002,-0.506259
34603,NaN,-1.971480,6.498673,0.457472,-6.358038,-2.354663,-9.213336,-0.907251,-0.109884,-0.603206,-0.585205,0.617432,-0.143555,-0.019521,0.065066,0.004269,0.999985,-0.004536,-0.000549,-0.003016,-0.394386,0.684666,-0.344443,-0.507002
34604,NaN,-2.269781,6.141105,0.410162,-6.082973,-2.277937,-8.895514,-0.850395,-0.051777,-0.916291,-0.595947,0.613281,-0.145752,-0.022417,0.061531,0.003834,0.999980,-0.004252,-0.000259,-0.004581,-0.393927,0.688221,-0.338822,-0.506334
34605,NaN,-2.542716,4.676847,0.340021,-4.848450,-1.702260,-8.381494,-0.666030,0.013806,-1.228853,-0.598145,0.613281,-0.135010,-0.025139,0.046935,0.003246,0.999976,-0.003330,0.000069,-0.006144,-0.394702,0.691641,-0.332943,-0.504967
34606,NaN,-2.979673,3.631159,0.535974,-4.163829,-1.058900,-7.839921,-0.566759,0.041856,-1.528090,-0.614990,0.606934,-0.136963,-0.029517,0.036553,0.005263,0.999967,-0.002834,0.000209,-0.007640,-0.396533,0.695765,-0.326125,-0.502309
34607,NaN,-3.300292,3.806417,0.642921,-4.471486,-1.078444,-7.659531,-0.647843,0.033869,-1.786677,-0.618896,0.593994,-0.130371,-0.032660,0.038378,0.006311,0.999955,-0.003239,0.000169,-0.008933,-0.398683,0.700026,-0.318352,-0.499668
34609,NaN,-3.527979,3.933441,0.081125,-8.870580,-3.420128,-5.197653,-0.760990,0.119916,-2.116924,-0.641846,0.572510,-0.119629,-0.068872,0.080148,0.001100,0.999746,-0.007609,0.001199,-0.021167,-0.403443,0.710537,-0.299984,-0.492321
34610,NaN,-3.889656,2.295663,-0.035108,-3.205231,-1.082373,-6.820255,-0.992799,0.275945,-2.463347,-0.658447,0.553223,-0.113037,-0.038610,0.023431,-0.000413,0.999911,-0.004964,0.001380,-0.012316,-0.405520,0.716860,-0.289336,-0.487802
34611,NaN,-4.136577,0.747806,0.228589,-2.233224,-0.124742,-6.246344,-1.123433,0.361965,-2.646098,-0.675537,0.546875,-0.108643,-0.041258,0.008037,0.002317,0.999895,-0.005617,0.001810,-0.013230,-0.407344,0.724036,-0.277712,-0.482409
34612,NaN,-4.892136,-0.762774,0.163494,-1.397416,0.554403,-5.092550,-1.231690,0.444788,-2.794709,-0.685303,0.521240,-0.101807,-0.049018,-0.006933,0.001788,0.999881,-0.006158,0.002224,-0.013973,-0.408951,0.731420,-0.265514,-0.476744
34613,NaN,-5.790207,-2.126777,-0.602982,-0.491174,0.576597,-3.661532,-1.358783,0.512992,-2.942300,-0.701904,0.504150,-0.097412,-0.058222,-0.020452,-0.005740,0.999865,-0.006794,0.002565,-0.014711,-0.410224,0.739449,-0.252436,-0.470327
34614,NaN,-5.953280,-4.412493,-2.089781,1.698321,0.524203,-2.321669,-1.377522,0.567630,-3.014631,-0.718750,0.489014,-0.088623,-0.060249,-0.043362,-0.020427,0.999859,-0.006887,0.002838,-0.015072,-0.411437,0.747319,-0.239197,-0.463701
34615,NaN,-5.809863,-8.034685,-3.202181,4.728919,1.603582,-0.668214,-1.446891,0.659240,-2.998669,-0.724609,0.471924,-0.084229,-0.059401,-0.079691,-0.031249,0.999856,-0.007234,0.003296,-0.014993,-0.412102,0.755500,-0.225867,-0.456482
34616,NaN,-5.891493,-12.185102,-4.373588,7.921251,3.032653,1.604570,-1.550307,0.763845,-2.875849,-0.738770,0.446289,-0.081787,-0.060826,-0.121318,-0.042564,0.999859,-0.007751,0.003819,-0.014379,-0.411881,0.763588,-0.213025,-0.449342
34617,NaN,-5.354907,-15.071555,-4.847360,10.032312,4.478160,2.780899,-1.794176,0.800528,-2.619038,-0.744629,0.428955,-0.077148,-0.055710,-0.150421,-0.046903,0.999866,-0.008970,0.004002,-0.013095,-0.409988,0.771968,-0.200495,-0.442466
34618,NaN,-4.607338,-16.343439,-5.302170,11.094136,5.135010,3.109124,-2.073414,0.889749,-2.320768,-0.752441,0.407715,-0.068359,-0.048200,-0.163420,-0.051116,0.999869,-0.010367,0.004449,-0.011603,-0.406167,0.780421,-0.188766,-0.436278
34619,NaN,-3.780352,-17.235797,-5.648363,11.886712,5.742462,3.186255,-2.063260,0.961110,-1.933991,-0.760742,0.399170,-0.072510,-0.039737,-0.172549,-0.054516,0.999888,-0.010316,0.004805,-0.009670,-0.401403,0.788649,-0.178484,-0.430177
34620,NaN,-3.316170,-17.297462,-5.064557,11.505671,6.572221,2.846511,-1.916685,0.948421,-1.501898,-0.766846,0.384033,-0.061768,-0.034696,-0.173192,-0.048824,0.999915,-0.009583,0.004742,-0.007509,-0.396189,0.795817,-0.170345,-0.425080
34621,NaN,-3.278125,-15.064514,-3.241830,8.872837,6.840149,1.262985,-1.696566,0.786377,-1.114647,-0.768799,0.379883,-0.061523,-0.033745,-0.150726,-0.031009,0.999941,-0.008483,0.003932,-0.005573,-0.391188,0.801949,-0.163640,-0.420800
34622,NaN,-3.232198,-9.238425,1.523737,2.648246,6.904243,-3.222283,-1.322135,0.634076,-0.759786,-0.761719,0.364746,-0.061279,-0.032623,-0.092157,0.015950,0.999966,-0.006611,0.003170,-0.003799,-0.386947,0.806472,-0.159063,-0.417821
34623,NaN,-12.136955,-13.544923,-8.772111,5.316612,1.191583,9.630163,1.938782,0.656834,-0.669467,-0.768066,0.362793,-0.089111,-0.122110,-0.134185,-0.088626,0.999942,0.009694,0.003284,-0.003347,-0.395775,0.804720,-0.161439,-0.411978
34624,NaN,-4.647551,-116.629013,-37.810031,87.990414,41.876080,64.706397,5.113094,2.651853,4.400782,-0.743652,0.405518,-0.085449,-0.026220,-1.156850,-0.407323,0.999343,0.025560,0.013256,0.021999,-0.404875,0.795993,-0.194830,-0.405601
34625,NaN,31.515446,-19.632516,15.528197,22.609479,25.102975,-31.671182,-12.572468,0.704911,-1.022224,-0.756104,0.384033,-0.059570,0.314753,-0.187714,0.166157,0.998006,-0.062821,0.003522,-0.005108,-0.355442,0.822272,-0.166339,-0.412141
34626,NaN,-14.641077,48.499118,13.386952,-43.418324,-24.538383,-25.882807,-0.315783,-2.452469,-3.504833,-0.762207,0.375488,-0.031494,-0.139501,0.487685,0.131362,0.999770,-0.001579,-0.012261,-0.017523,-0.363319,0.820515,-0.146900,-0.416144
34627,NaN,32.985713,23.455504,-22.990247,20.942761,-30.696881,-37.845337,-2.461290,-0.469105,0.009936,-0.760010,0.371094,-0.042236,0.330388,0.231725,-0.231991,0.999922,-0.012306,-0.002345,0.000050,-0.353514,0.823943,-0.140974,-0.419848
34628,NaN,29.308381,-11.336676,-8.877978,29.179565,3.189781,-24.116404,1.820185,2.586263,1.272250,-0.753418,0.369141,-0.059326,0.292604,-0.110667,-0.093581,0.999855,0.009100,0.012931,0.006361,-0.356463,0.825147,-0.154602,-0.410079
34629,NaN,20.230091,-8.101695,8.134437,12.232276,12.171050,-25.410628,-3.955734,1.294629,-0.545541,-0.759766,0.369141,-0.057129,0.202610,-0.079957,0.081622,0.999780,-0.019777,0.006473,-0.002728,-0.340148,0.835126,-0.146530,-0.406686
34630,NaN,20.787378,-12.806741,-3.606472,21.817440,7.538291,-18.547718,0.173638,0.210919,-1.165594,-0.761475,0.358398,-0.063477,0.207085,-0.129244,-0.036395,0.999982,0.000868,0.001055,-0.005828,-0.343078,0.836107,-0.142388,-0.403668
34631,NaN,14.092525,-11.830750,11.246811,8.528312,16.911709,-20.123619,-0.264185,0.222207,-1.301882,-0.761230,0.347656,-0.065430,0.140277,-0.119073,0.112469,0.999977,-0.001321,0.001111,-0.006509,-0.344416,0.837954,-0.136792,-0.400623
34632,NaN,15.937270,-4.383646,3.500453,10.471766,6.392398,-21.429094,0.875176,0.038075,-1.209629,-0.763184,0.341309,-0.065186,0.159110,-0.044952,0.034779,0.999972,0.004376,0.000190,-0.006048,-0.350466,0.837335,-0.133555,-0.397751
34633,NaN,12.863875,-2.973681,4.764700,7.153436,6.173426,-20.192462,0.146019,0.498898,-0.984130,-0.767090,0.334717,-0.073730,0.128609,-0.030404,0.047304,0.999985,0.000730,0.002494,-0.004921,-0.352709,0.838743,-0.130585,-0.393770
34634,NaN,10.659936,-4.008301,-1.810079,10.037475,2.262188,-15.019143,-0.226482,0.610531,-1.008618,-0.770996,0.322021,-0.073730,0.106340,-0.040640,-0.018380,0.999982,-0.001132,0.003053,-0.005043,-0.353336,0.840996,-0.127000,-0.389552
34635,NaN,10.836172,-6.064470,-3.825117,12.343584,2.379839,-13.099395,-0.037118,0.679577,-0.905939,-0.777100,0.313477,-0.080078,0.107955,-0.061141,-0.038607,0.999984,-0.000186,0.003398,-0.004530,-0.354528,0.842976,-0.124295,-0.385034
34636,NaN,11.396955,-4.787964,-4.696687,12.630900,0.916077,-13.619714,0.286079,0.459161,-1.062126,-0.781250,0.304932,-0.084229,0.113605,-0.048416,-0.047297,0.999982,0.001430,0.002296,-0.005311,-0.357483,0.844006,-0.121197,-0.381012
34637,NaN,12.154257,-3.977961,-2.435702,11.552344,1.986295,-15.476523,0.657269,0.405160,-1.054883,-0.782959,0.298340,-0.094727,0.121281,-0.040339,-0.024735,0.999979,0.003286,0.002026,-0.005274,-0.362029,0.844270,-0.118685,-0.376904
34638,NaN,12.305284,-4.219624,-0.107811,10.555390,3.825730,-16.384019,0.659682,0.422633,-1.020422,-0.784668,0.285645,-0.098877,0.122833,-0.042819,-0.001478,0.999979,0.003298,0.002113,-0.005102,-0.366474,0.844469,-0.116400,-0.372854
34639,NaN,12.758668,-4.816208,1.053462,10.596657,5.127108,-16.777648,0.544749,0.487021,-0.972118,-0.786865,0.283447,-0.101074,0.127375,-0.048809,0.010092,0.999982,0.002724,0.002435,-0.004861,-0.370313,0.844985,-0.114152,-0.368561
34640,NaN,12.801308,-4.419366,0.330355,10.906542,4.367467,-16.556866,0.441495,0.447800,-0.997439,-0.786621,0.277100,-0.105225,0.127797,-0.044838,0.002919,0.999983,0.002207,0.002239,-0.004987,-0.373751,0.845556,-0.111596,-0.364544
34641,NaN,11.745302,-3.676790,-1.413597,10.809138,2.549122,-15.301966,0.505259,0.365661,-1.014943,-0.788330,0.264160,-0.113525,0.117238,-0.037327,-0.014444,0.999982,0.002526,0.001828,-0.005075,-0.377555,0.845890,-0.108841,-0.360660
34642,NaN,10.452609,-3.720251,-2.417856,10.480605,1.766340,-13.810072,0.677662,0.347719,-1.026831,-0.794434,0.257812,-0.119873,0.104291,-0.037656,-0.024487,0.999980,0.003388,0.001739,-0.005134,-0.382072,0.845787,-0.106391,-0.356855
34643,NaN,9.818901,-3.697699,-2.625114,10.158376,1.551797,-13.185141,0.800542,0.290961,-0.977181,-0.796387,0.249268,-0.124023,0.097969,-0.037350,-0.026543,0.999979,0.004003,0.001455,-0.004886,-0.387064,0.845355,-0.104158,-0.353140
34644,NaN,9.653950,-3.065762,-2.508000,9.725929,1.196535,-13.398990,0.957570,0.241559,-0.972159,-0.800293,0.238525,-0.128174,0.096359,-0.031005,-0.025344,0.999976,0.004788,0.001208,-0.004861,-0.392690,0.844422,-0.102222,-0.349711
34645,NaN,9.246405,-3.031596,-2.160689,9.268211,1.391426,-13.206592,1.076088,0.235374,-1.021269,-0.804443,0.238525,-0.128174,0.092282,-0.030670,-0.021880,0.999972,0.005380,0.001177,-0.005106,-0.398904,0.843310,-0.100152,-0.345939
34646,NaN,8.776235,-2.791489,-1.497617,8.513162,1.680964,-13.241563,1.126788,0.206836,-1.085490,-0.801758,0.221436,-0.127930,0.087594,-0.028305,-0.015226,0.999969,0.005634,0.001034,-0.005427,-0.405414,0.841945,-0.097950,-0.342307
34647,NaN,7.609330,-2.780334,-0.724945,7.287966,2.132519,-12.727289,1.112099,0.184175,-1.096045,-0.807861,0.212891,-0.142822,0.075933,-0.028179,-0.007475,0.999969,0.005560,0.000921,-0.005480,-0.411880,0.840620,-0.095495,-0.338517
34648,NaN,7.160486,-2.970811,-0.059897,6.738633,2.716620,-12.516748,0.984522,0.188389,-1.069930,-0.811768,0.202148,-0.142822,0.071444,-0.030087,-0.000814,0.999973,0.004923,0.000942,-0.005350,-0.417725,0.839407,-0.093067,-0.335023
34649,NaN,7.425668,-3.150182,0.128367,6.958159,3.019176,-12.560145,0.848700,0.211390,-1.034406,-0.805176,0.197754,-0.144775,0.074094,-0.031890,0.001071,0.999977,0.004243,0.001057,-0.005172,-0.422928,0.838557,-0.090456,-0.331319
34650,NaN,7.990244,-2.956537,0.215110,7.294711,3.051656,-12.991560,0.745088,0.200634,-0.989383,-0.809082,0.182861,-0.148926,0.079757,-0.029968,0.001960,0.999980,0.003725,0.001003,-0.004947,-0.427590,0.837752,-0.087982,-0.328022
34651,NaN,8.649338,-2.440705,0.047257,7.694552,2.709182,-13.584140,0.638687,0.199717,-0.919355,-0.812988,0.176514,-0.155273,0.086380,-0.024805,0.000307,0.999984,0.003193,0.000999,-0.004597,-0.431704,0.837210,-0.085458,-0.324665
34652,NaN,9.013658,-1.715660,-0.522721,7.970384,1.892880,-13.978279,0.539843,0.206855,-0.893657,-0.814697,0.165771,-0.157227,0.090053,-0.017545,-0.005367,0.999986,0.002699,0.001034,-0.004468,-0.435318,0.836758,-0.083057,-0.321615
34653,NaN,8.365283,-1.414658,-0.766497,7.485894,1.451567,-13.610137,0.476936,0.175993,-0.878489,-0.814697,0.165771,-0.161621,0.083583,-0.014495,-0.007773,0.999987,0.002385,0.000880,-0.004392,-0.438675,0.836469,-0.080367,-0.318473
34654,NaN,7.901169,-1.760286,-0.539582,7.185903,1.792389,-13.124480,0.424307,0.151392,-0.844081,-0.814209,0.148682,-0.163330,0.078932,-0.017925,-0.005493,0.999989,0.002122,0.000757,-0.004220,-0.441726,0.836116,-0.077862,-0.315794
34655,NaN,8.338678,-1.736779,0.303951,7.160137,2.529218,-13.682761,0.277895,0.158345,-0.737157,-0.818359,0.148682,-0.167725,0.083324,-0.017679,0.002949,0.999992,0.001389,0.000792,-0.003686,-0.444010,0.836153,-0.075390,-0.313081
34656,NaN,8.431113,-0.846914,0.435006,6.838576,2.137718,-14.357347,-0.000808,0.180357,-0.643097,-0.818115,0.140137,-0.167480,0.084287,-0.008740,0.004274,0.999994,-0.000004,0.000902,-0.003215,-0.444942,0.836682,-0.073118,-0.310877
34657,NaN,8.853919,-1.345698,-1.059861,8.081690,1.335469,-13.584767,-0.190599,0.269195,-0.615436,-0.822510,0.140137,-0.158936,0.088483,-0.013739,-0.010705,0.999994,-0.000953,0.001346,-0.003077,-0.445028,0.837868,-0.070654,-0.308117
34658,NaN,9.671301,-1.536027,-1.387981,8.983532,1.328283,-13.730771,-0.365789,0.366901,-0.543374,-0.822266,0.135742,-0.167480,0.096645,-0.015648,-0.014029,0.999993,-0.001829,0.001835,-0.002717,-0.444198,0.839440,-0.068647,-0.305478
34659,NaN,10.304588,0.773106,-2.760289,9.255217,-1.027830,-15.074389,-0.410796,0.424551,-0.429521,-0.822266,0.133789,-0.173828,0.103003,0.007453,-0.027837,0.999993,-0.002054,0.002123,-0.002148,-0.443000,0.841281,-0.066950,-0.302516
34660,NaN,11.558849,0.891531,-3.880298,10.760118,-1.798374,-15.330275,-0.271483,0.491779,-0.290805,-0.817871,0.133789,-0.178223,0.115505,0.008694,-0.039099,0.999995,-0.001357,0.002459,-0.001454,-0.442130,0.842726,-0.066423,-0.299872
34661,NaN,12.080953,-0.438260,-3.211802,11.417433,-0.423387,-14.903835,-0.032953,0.479835,-0.190024,-0.817871,0.129395,-0.182373,0.120728,-0.004503,-0.032407,0.999997,-0.000165,0.002399,-0.000950,-0.442090,0.843756,-0.066404,-0.297024
34662,NaN,11.685150,-0.605488,-1.339348,10.350286,1.054408,-15.331999,0.208399,0.410310,-0.120741,-0.815430,0.125000,-0.180176,0.116820,-0.006111,-0.013640,0.999997,0.001042,0.002052,-0.000604,-0.443010,0.843949,-0.067128,-0.294935
34663,NaN,12.126409,-1.861873,0.896961,10.229735,3.596116,-15.621402,0.379122,0.346501,0.042885,-0.813477,0.129395,-0.190918,0.121283,-0.018609,0.008724,0.999997,0.001896,0.001733,0.000214,-0.444381,0.843811,-0.068378,-0.292974
34664,NaN,12.918117,-0.537613,2.150918,9.855088,3.874648,-17.536510,0.430192,0.233923,0.212467,-0.815674,0.133789,-0.188965,0.129212,-0.005285,0.021347,0.999996,0.002151,0.001170,0.001062,-0.445802,0.843128,-0.070441,-0.292290
34665,NaN,13.196472,0.084717,2.474778,9.721407,3.764779,-18.274313,0.397023,0.143399,0.380053,-0.815674,0.131592,-0.193115,0.131981,0.001049,0.024655,0.999996,0.001985,0.000717,0.001900,-0.446840,0.842527,-0.072660,-0.291894
34666,NaN,13.692346,0.122999,2.688265,10.008056,3.937484,-18.704079,0.372214,0.055630,0.584876,-0.813721,0.140137,-0.193359,0.136927,0.001580,0.026847,0.999994,0.001861,0.000278,0.002924,-0.447531,0.841566,-0.075807,-0.292807
34667,NaN,14.743897,0.677707,3.179906,10.420215,4.088923,-19.944441,0.288584,0.020035,0.794955,-0.813965,0.144531,-0.195557,0.147414,0.007317,0.031795,0.999991,0.001443,0.000100,0.003975,-0.447566,0.840857,-0.079310,-0.293860
34668,NaN,16.008356,1.037723,3.815569,10.982055,4.469243,-21.272235,0.070904,0.024255,0.985104,-0.814209,0.148682,-0.189209,0.160035,0.011152,0.038140,0.999988,0.000355,0.000121,0.004926,-0.446401,0.840340,-0.083626,-0.295909
34669,NaN,16.831868,1.325151,4.341487,11.246402,4.712746,-22.271468,-0.183313,0.007127,1.177259,-0.810303,0.161621,-0.195801,0.168238,0.014282,0.043396,0.999982,-0.000917,0.000036,0.005886,-0.443903,0.840476,-0.087979,-0.298010
34670,NaN,18.591317,2.234604,4.503108,12.106064,4.358026,-24.142819,-0.436201,-0.008983,1.406168,-0.810791,0.176514,-0.196045,0.185747,0.023751,0.044989,0.999973,-0.002181,-0.000045,0.007031,-0.439965,0.840796,-0.093232,-0.301330
34671,NaN,18.256165,3.135782,3.262205,11.849071,2.610101,-24.184224,-0.606107,-0.067876,1.618676,-0.807129,0.193604,-0.191895,0.182288,0.032933,0.032586,0.999963,-0.003030,-0.000339,0.008093,-0.435049,0.841478,-0.098608,-0.304834
34672,NaN,17.653358,4.007245,2.022669,11.330318,0.842743,-24.049751,-0.558828,-0.202434,1.841205,-0.807617,0.206543,-0.187744,0.176134,0.041752,0.020290,0.999953,-0.002794,-0.001012,0.009206,-0.429970,0.841445,-0.105073,-0.309930
34673,NaN,17.558290,5.250406,1.073988,10.896405,-0.867515,-24.561160,-0.296341,-0.340680,2.041793,-0.797607,0.230225,-0.187988,0.175016,0.054309,0.010959,0.999945,-0.001482,-0.001703,0.010209,-0.425768,0.840711,-0.112080,-0.315223
34674,NaN,18.033593,5.977507,0.267367,10.986628,-2.097526,-25.171454,0.087556,-0.484946,2.195457,-0.795898,0.242920,-0.175537,0.179658,0.061748,0.003137,0.999937,0.000438,-0.002425,0.010977,-0.422919,0.838484,-0.120422,-0.321843
34675,NaN,18.548290,5.850963,-0.807152,11.586714,-3.004482,-25.162805,0.505912,-0.597397,2.360695,-0.792236,0.264404,-0.177979,0.184798,0.060713,-0.007367,0.999923,0.002529,-0.002987,0.011803,-0.421585,0.835308,-0.129455,-0.328280
34676,NaN,19.105169,2.989814,-1.866071,13.507423,-2.254469,-23.592056,0.759289,-0.549339,2.667024,-0.786621,0.285889,-0.169678,0.190680,0.032512,-0.018016,0.999900,0.003796,-0.002747,0.013335,-0.420690,0.831004,-0.140685,-0.335648
34677,NaN,21.890074,-4.273902,-2.372462,19.220197,1.590202,-21.261875,0.640843,-0.386153,3.079643,-0.783203,0.307129,-0.176270,0.219569,-0.039286,-0.023431,0.999874,0.003204,-0.001931,0.015398,-0.418375,0.827167,-0.153300,-0.342428
34678,NaN,22.153844,-9.181096,-3.489515,22.317071,3.251753,-18.677411,1.187285,-0.336190,3.149151,-0.770996,0.333008,-0.174561,0.223004,-0.088099,-0.035051,0.999857,0.005936,-0.001681,0.015745,-0.418089,0.821584,-0.167646,-0.349422
34679,NaN,24.347947,-13.567666,-4.305492,26.575048,4.658654,-18.023715,1.937720,-0.091421,3.229124,-0.758789,0.347900,-0.185303,0.245643,-0.131297,-0.044229,0.999823,0.009688,-0.000457,0.016145,-0.420400,0.815040,-0.183586,-0.353935
34680,NaN,24.501464,-13.109827,-1.686014,25.177224,5.871992,-20.136672,1.637133,-0.217971,3.256537,-0.742676,0.380127,-0.187988,0.247123,-0.126943,-0.017642,0.999833,0.008185,-0.001090,0.016282,-0.421435,0.808098,-0.199279,-0.360082
34681,NaN,22.085130,-12.721253,-4.106170,24.185390,3.131708,-18.275943,1.158379,-0.364723,3.557702,-0.734863,0.403564,-0.188232,0.223140,-0.123018,-0.041377,0.999823,0.005792,-0.001824,0.017787,-0.420046,0.801930,-0.214362,-0.366768
34682,NaN,21.755365,-14.355922,-4.675656,25.077870,3.031154,-17.754874,1.061493,-0.328755,3.655467,-0.720703,0.433594,-0.190674,0.220203,-0.139301,-0.047143,0.999818,0.005307,-0.001644,0.018276,-0.417870,0.795044,-0.230249,-0.374534
34683,NaN,22.091666,-14.933805,-4.082602,25.226248,3.318864,-18.770791,0.265555,-0.555127,4.051976,-0.702637,0.469971,-0.193359,0.223993,-0.144767,-0.040401,0.999790,0.001328,-0.002775,0.020258,-0.411979,0.789356,-0.245011,-0.383614
34684,NaN,18.616771,-13.101312,-2.187777,20.857720,3.758664,-18.401594,0.197658,-0.809532,4.030497,-0.682129,0.497803,-0.185059,0.188844,-0.127204,-0.021244,0.999788,0.000988,-0.004047,0.020151,-0.405928,0.782303,-0.259591,-0.394762
34685,NaN,14.777027,-9.492012,-1.371412,15.530091,2.550941,-17.725269,0.372553,-1.060110,3.794030,-0.672363,0.527832,-0.181152,0.149605,-0.092069,-0.013098,0.999804,0.001863,-0.005300,0.018969,-0.401339,0.775235,-0.272284,-0.404721
34686,NaN,14.884085,-6.359393,-0.450157,12.552633,1.427174,-19.938860,0.435969,-1.063002,3.940839,-0.651855,0.553467,-0.179443,0.150077,-0.060636,-0.003840,0.999789,0.002180,-0.005315,0.019703,-0.396412,0.766694,-0.286263,-0.416044
34687,NaN,13.991923,-2.297348,0.887195,8.079638,0.328671,-21.492748,0.450784,-1.006199,3.903300,-0.637939,0.587646,-0.175537,0.140285,-0.020259,0.009529,0.999794,0.002254,-0.005031,0.019515,-0.391582,0.758903,-0.299422,-0.425531
34688,NaN,11.429066,1.734218,2.075555,2.807868,-0.563801,-21.202164,0.413327,-1.028372,3.773564,-0.610840,0.613281,-0.171387,0.113828,0.019449,0.021380,0.999807,0.002067,-0.005142,0.018867,-0.386579,0.750123,-0.312561,-0.436093
34689,NaN,8.088318,2.734001,1.488889,0.495964,-1.213666,-18.379242,0.414380,-0.786016,3.447648,-0.598877,0.641113,-0.178223,0.080337,0.028697,0.015264,0.999842,0.002072,-0.003930,0.017237,-0.382023,0.743083,-0.324167,-0.443624
34690,NaN,7.376199,1.395845,1.965771,0.860368,-0.094965,-17.524207,0.609251,-0.536995,3.033909,-0.580078,0.656250,-0.180420,0.073486,0.015014,0.019900,0.999877,0.003046,-0.002685,0.015169,-0.378373,0.735734,-0.335736,-0.450345
34691,NaN,7.069813,0.600514,2.350372,1.087589,0.611675,-17.182047,0.787109,-0.375922,2.730657,-0.570068,0.677490,-0.185059,0.070564,0.006876,0.023662,0.999897,0.003935,-0.001880,0.013653,-0.375981,0.729721,-0.346184,-0.454205
34692,NaN,5.250321,1.745914,2.011073,-0.525066,0.029040,-15.676183,0.598101,-0.247529,2.459729,-0.557617,0.690430,-0.191650,0.052259,0.018042,0.020229,0.999919,0.002990,-0.001238,0.012298,-0.372968,0.723734,-0.356034,-0.458632
34693,NaN,3.819152,2.315004,1.306724,-1.289753,-0.622495,-14.239991,0.424665,-0.168790,2.104225,-0.541260,0.713867,-0.187500,0.037934,0.023522,0.013149,0.999942,0.002123,-0.000844,0.010521,-0.370259,0.719732,-0.363691,-0.461111
34694,NaN,2.135263,1.714599,0.699862,-1.118023,-0.576134,-12.343874,0.085050,-0.083210,1.751706,-0.532715,0.720459,-0.189697,0.021198,0.017329,0.007015,0.999961,0.000425,-0.000416,0.008758,-0.366656,0.716186,-0.370033,-0.464453
34695,NaN,-0.007443,1.962052,-0.101746,-1.671414,-0.984937,-10.122960,-0.300180,-0.182507,1.335922,-0.531006,0.733154,-0.185791,-0.000205,0.019618,-0.001047,0.999976,-0.001501,-0.000913,0.006680,-0.363113,0.714766,-0.373216,-0.466870
34696,NaN,-0.416333,2.415834,-0.405357,-2.062632,-1.380952,-9.701456,-0.649814,-0.342896,0.749609,-0.526855,0.735352,-0.181396,-0.004247,0.024129,-0.004139,0.999986,-0.003249,-0.001714,0.003748,-0.359668,0.713754,-0.373761,-0.470634
34697,NaN,0.597663,3.106399,-0.610483,-2.287430,-2.090289,-10.694678,-0.847740,-0.206509,0.178645,-0.527344,0.748291,-0.168701,0.005955,0.031043,-0.006230,0.999990,-0.004239,-0.001033,0.000893,-0.356889,0.715371,-0.371504,-0.472080
34698,NaN,-0.493213,5.008738,-0.355859,-4.328536,-2.582294,-10.042200,-0.932734,-0.232466,-0.266310,-0.531738,0.748047,-0.157959,-0.004861,0.050077,-0.003798,0.999988,-0.004664,-0.001162,-0.001332,-0.354601,0.716991,-0.367940,-0.474133
34699,NaN,-1.740975,5.974693,-0.619575,-5.374224,-3.084907,-8.968623,-0.969657,-0.121724,-0.699286,-0.542480,0.748291,-0.156006,-0.017197,0.059776,-0.006496,0.999982,-0.004848,-0.000609,-0.003496,-0.353237,0.720587,-0.362427,-0.473946
34700,NaN,-2.837396,4.989993,-0.892911,-4.704569,-2.696607,-7.728726,-0.837285,-0.298180,-1.179931,-0.546631,0.741699,-0.149414,-0.028066,0.050028,-0.009180,0.999973,-0.004186,-0.001491,-0.005900,-0.353540,0.723497,-0.355664,-0.474410
34701,NaN,-2.306272,4.061418,-0.309738,-4.004284,-1.894419,-8.300616,-0.592192,-0.235860,-1.472355,-0.565674,0.735352,-0.140869,-0.022759,0.040773,-0.003245,0.999968,-0.002961,-0.001179,-0.007362,-0.355474,0.727433,-0.348055,-0.472585
34702,NaN,-3.224648,4.261884,-0.394695,-4.425174,-1.969421,-7.520060,-0.460641,-0.219513,-1.857466,-0.580566,0.730957,-0.130127,-0.031844,0.042907,-0.004081,0.999954,-0.002303,-0.001098,-0.009287,-0.358547,0.730952,-0.339813,-0.470830
34703,NaN,-3.486320,4.554552,-0.799681,-4.592607,-2.489798,-7.313603,-0.451120,-0.253674,-2.129259,-0.599854,0.726807,-0.123779,-0.034366,0.045895,-0.008144,0.999940,-0.002256,-0.001268,-0.010646,-0.362446,0.735548,-0.330066,-0.467609
34704,NaN,-3.549841,4.407704,-0.275754,-4.745295,-2.040603,-7.484217,-0.376548,-0.190107,-2.420377,-0.614502,0.713867,-0.121582,-0.034959,0.044497,-0.002874,0.999925,-0.001883,-0.000951,-0.012102,-0.367001,0.739744,-0.319923,-0.464476
34705,NaN,-3.969360,4.136942,0.714938,-5.159785,-1.096265,-7.455992,-0.529531,-0.110564,-2.661033,-0.633301,0.696777,-0.114990,-0.039142,0.041911,0.007017,0.999908,-0.002648,-0.000553,-0.013305,-0.371434,0.745414,-0.308210,-0.459784
34706,NaN,-4.286291,3.309605,0.835864,-4.719220,-0.612982,-7.096905,-0.750446,-0.015043,-2.860428,-0.656494,0.679688,-0.110596,-0.042384,0.033736,0.008230,0.999891,-0.003752,-0.000075,-0.014302,-0.375191,0.751119,-0.295771,-0.455600
34707,NaN,-4.539843,1.436820,1.240024,-3.619635,0.672579,-6.548321,-0.869962,0.149353,-3.080198,-0.677490,0.666992,-0.106201,-0.045160,0.015119,0.012369,0.999872,-0.004350,0.000747,-0.015400,-0.378703,0.758253,-0.282071,-0.449525
34708,NaN,-5.389243,-1.061356,1.201908,-2.185740,2.013912,-5.039992,-0.993431,0.320426,-3.262241,-0.700684,0.649658,-0.091064,-0.054036,-0.009673,0.012155,0.999853,-0.004967,0.001602,-0.016310,-0.381758,0.765363,-0.268044,-0.443434
34709,NaN,-7.081148,-2.927841,0.798272,-1.610331,2.780397,-2.811103,-1.025234,0.482967,-3.376872,-0.719238,0.630615,-0.093018,-0.071272,-0.028036,0.008300,0.999841,-0.005126,0.002415,-0.016883,-0.384641,0.773424,-0.253335,-0.435532
34710,NaN,-7.730195,-5.674132,0.170809,0.065569,3.812823,-1.013333,-1.075155,0.521604,-3.501225,-0.737793,0.606934,-0.084229,-0.078274,-0.055366,0.002212,0.999829,-0.005375,0.002608,-0.017505,-0.387378,0.780949,-0.238422,-0.428033
34711,NaN,-7.210577,-9.021501,-0.182870,2.463575,5.432034,0.077812,-1.175884,0.628455,-3.456660,-0.760742,0.587646,-0.083984,-0.073655,-0.088959,-0.001073,0.999828,-0.005879,0.003142,-0.017282,-0.389423,0.789110,-0.223179,-0.419341
34712,NaN,-7.661960,-11.807201,-1.137031,4.118897,6.345754,2.110063,-1.280188,0.677892,-3.413134,-0.775146,0.566406,-0.079346,-0.078657,-0.116810,-0.010356,0.999828,-0.006401,0.003389,-0.017065,-0.390704,0.796714,-0.208318,-0.411340
34713,NaN,-7.068178,-13.723012,-1.887460,5.547930,6.965576,2.935585,-1.495273,0.785465,-3.149999,-0.793701,0.540527,-0.074951,-0.072903,-0.136228,-0.017570,0.999840,-0.007476,0.003927,-0.015749,-0.390466,0.804884,-0.193756,-0.402687
34714,NaN,-5.537693,-15.782363,-2.187400,7.386936,8.146886,2.976640,-1.790737,0.916064,-2.806004,-0.808105,0.525635,-0.070312,-0.057681,-0.157211,-0.020204,0.999851,-0.008953,0.004580,-0.014029,-0.387964,0.812840,-0.180625,-0.395159
34715,NaN,-3.830612,-16.777130,-2.166532,8.506346,9.035241,2.304210,-2.064931,0.949562,-2.359089,-0.816162,0.506348,-0.070068,-0.040380,-0.167514,-0.019746,0.999866,-0.010324,0.004748,-0.011795,-0.383539,0.821159,-0.168297,-0.387648
34716,NaN,-1.859867,-15.803091,-2.874658,9.146596,8.167864,0.726185,-2.061885,0.921527,-1.856020,-0.824463,0.495605,-0.065674,-0.020193,-0.158133,-0.027026,0.999893,-0.010309,0.004607,-0.009280,-0.377855,0.828390,-0.158435,-0.381960
34717,NaN,-2.111364,-12.987789,-1.545006,6.416077,7.490643,-0.967100,-1.530421,0.932215,-1.447540,-0.828613,0.491455,-0.065674,-0.022122,-0.129833,-0.014355,0.999934,-0.007652,0.004661,-0.007238,-0.373849,0.834521,-0.150743,-0.375616
34718,NaN,-6.418231,-20.935305,-8.936074,11.336262,7.242499,9.638775,1.090322,1.058416,-0.832789,-0.828125,0.478516,-0.078369,-0.065528,-0.208592,-0.090155,0.999962,0.005452,0.005292,-0.004164,-0.379153,0.835083,-0.151293,-0.368767
34719,NaN,-8.068043,-84.914634,-20.933450,50.879512,39.891213,49.628642,2.590742,2.086247,2.020924,-0.807617,0.510742,-0.102295,-0.074368,-0.847119,-0.219519,0.999811,0.012953,0.010431,0.010104,-0.385054,0.832658,-0.167848,-0.360889
34720,NaN,18.952998,-71.479904,-1.962438,52.663630,47.060249,12.105171,-9.787362,2.063870,2.641920,-0.812256,0.517090,-0.048828,0.198975,-0.712099,0.013256,0.998662,-0.048915,0.010315,0.013204,-0.337315,0.851901,-0.164942,-0.365072
34721,NaN,14.876258,44.120413,5.345485,-14.853054,-28.766362,-43.695341,-3.711270,-2.014227,-3.564465,-0.820068,0.491211,-0.016357,0.156111,0.439375,0.046837,0.999618,-0.018554,-0.010070,-0.017820,-0.330643,0.857389,-0.138676,-0.369226
34722,NaN,12.391692,42.306897,-11.460152,-5.220225,-39.147480,-32.504441,-2.173027,-1.331601,-0.630584,-0.820312,0.497559,-0.001465,0.126027,0.421401,-0.118352,0.999914,-0.010865,-0.006658,-0.003153,-0.323391,0.858903,-0.129749,-0.375325
34723,NaN,35.359856,-10.592995,-19.473637,40.041604,-4.686401,-20.596570,1.428119,2.260296,2.151294,-0.807861,0.510498,-0.033691,0.352464,-0.100721,-0.199456,0.999853,0.007140,0.011301,0.010756,-0.324445,0.859854,-0.144622,-0.366704
34724,NaN,17.594558,-14.270498,14.184050,11.398663,19.757388,-23.744316,-3.097500,1.696446,0.304263,-0.809814,0.506104,-0.014404,0.177367,-0.140232,0.142525,0.999843,-0.015487,0.008482,0.001521,-0.309297,0.867650,-0.142980,-0.362043
34725,NaN,21.993210,-7.403330,-5.448013,21.799287,1.716537,-19.301385,-0.487734,-0.079362,-0.188198,-0.803467,0.506104,-0.022949,0.219884,-0.074373,-0.054212,0.999997,-0.002439,-0.000397,-0.000941,-0.308111,0.869023,-0.140395,-0.360771
34726,NaN,9.125099,-16.692949,13.313595,6.928881,21.178169,-16.343190,-0.255571,0.066623,-0.923492,-0.813721,0.491211,-0.018555,0.090524,-0.167178,0.133319,0.999988,-0.001278,0.000333,-0.004617,-0.308621,0.870192,-0.136021,-0.359190
34727,NaN,13.932687,-5.902256,3.467204,10.692430,6.625554,-18.909368,0.634940,-0.427074,-0.906480,-0.820312,0.495605,-0.018555,0.138983,-0.059763,0.034780,0.999982,0.003175,-0.002135,-0.004532,-0.313994,0.869648,-0.131707,-0.357455
34728,NaN,12.302443,-3.638196,4.515252,7.963302,5.655690,-19.276960,0.222966,0.043966,-0.573441,-0.820068,0.491211,-0.014160,0.122929,-0.036785,0.045085,0.999995,0.001115,0.000220,-0.002867,-0.315964,0.869767,-0.129677,-0.356169
34729,NaN,10.350863,-2.276752,-3.735187,10.441082,-0.614587,-13.921327,-0.509864,0.054139,-0.723168,-0.823975,0.480469,-0.014160,0.103415,-0.023237,-0.037321,0.999990,-0.002549,0.000271,-0.003616,-0.315770,0.871716,-0.124818,-0.353301
34730,NaN,9.851701,-5.293988,-5.667080,12.465624,0.515773,-11.053621,-0.037793,0.334726,-0.449494,-0.819580,0.476318,-0.018311,0.098303,-0.053172,-0.056825,0.999996,-0.000189,0.001674,-0.002247,-0.316196,0.872660,-0.123316,-0.351108
34731,NaN,9.512676,-6.026020,-5.786455,12.610192,1.024281,-10.282087,0.129115,0.159795,-0.691763,-0.830078,0.469727,-0.020508,0.094871,-0.060551,-0.057979,0.999993,0.000646,0.000799,-0.003459,-0.318594,0.873797,-0.119851,-0.347294
34732,NaN,9.493084,-5.633071,-3.212237,11.066425,2.395492,-11.803613,0.548479,0.084712,-0.847768,-0.829834,0.465576,-0.028809,0.094678,-0.056644,-0.032318,0.999987,0.002742,0.000424,-0.004239,-0.322415,0.873584,-0.117228,-0.345192
34733,NaN,9.756024,-5.452829,-1.173881,10.137288,3.610711,-13.051280,0.543927,0.103127,-0.970569,-0.838135,0.457031,-0.026611,0.097288,-0.054969,-0.011938,0.999984,0.002720,0.000516,-0.004853,-0.327099,0.874111,-0.113110,-0.340797
34734,NaN,10.615622,-4.996651,-0.607585,10.311624,3.695679,-14.059834,0.402315,0.241402,-0.974238,-0.842041,0.444092,-0.030762,0.105904,-0.050470,-0.006305,0.999985,0.002012,0.001207,-0.004871,-0.330384,0.874419,-0.109925,-0.337866
34735,NaN,11.212436,-4.259332,-1.840998,11.142828,2.402539,-13.973659,0.284266,0.343742,-1.013007,-0.846191,0.442139,-0.035156,0.111875,-0.043134,-0.018663,0.999985,0.001421,0.001719,-0.005065,-0.333864,0.875741,-0.105511,-0.332386
34736,NaN,11.323392,-3.829920,-3.303562,11.833606,1.165000,-13.335213,0.341341,0.414415,-0.983775,-0.850098,0.429199,-0.041260,0.112975,-0.038799,-0.033336,0.999984,0.001707,0.002072,-0.004919,-0.336779,0.876381,-0.102454,-0.328693
34737,NaN,10.927343,-3.872348,-3.648993,11.769088,0.980535,-12.683738,0.550761,0.455029,-0.950598,-0.849854,0.420654,-0.043457,0.109004,-0.039141,-0.036846,0.999982,0.002754,0.002275,-0.004753,-0.341214,0.877356,-0.098874,-0.322557
34738,NaN,10.694972,-3.954012,-3.178093,11.416173,1.348820,-12.635325,0.731579,0.503824,-0.931293,-0.855713,0.407715,-0.051758,0.106684,-0.039920,-0.032195,0.999979,0.003658,0.002519,-0.004656,-0.345680,0.877379,-0.096818,-0.318336
34739,NaN,11.032733,-3.908686,-2.378628,11.321343,1.866987,-13.128850,0.830666,0.565014,-0.919755,-0.857910,0.405762,-0.066650,0.110078,-0.039493,-0.024261,0.999977,0.004153,0.002825,-0.004599,-0.351175,0.877966,-0.093934,-0.311492
34740,NaN,11.151423,-3.618305,-1.970283,11.148948,1.928057,-13.461022,0.895410,0.603879,-0.915675,-0.859619,0.392822,-0.070801,0.111287,-0.036603,-0.020202,0.999975,0.004477,0.003019,-0.004578,-0.356251,0.877758,-0.092357,-0.306750
34741,NaN,10.591000,-3.724344,-1.872828,10.758262,2.034284,-12.921933,0.942640,0.608290,-0.947344,-0.863770,0.390625,-0.083740,0.105674,-0.037655,-0.019227,0.999973,0.004713,0.003041,-0.004737,-0.362208,0.878124,-0.089515,-0.299483
34742,NaN,9.554532,-4.025763,-1.781441,10.031088,2.240338,-12.054586,1.013834,0.562036,-0.992620,-0.869629,0.373535,-0.092041,0.095293,-0.040639,-0.018288,0.999971,0.005069,0.002810,-0.004963,-0.367896,0.877564,-0.087680,-0.294698
34743,NaN,8.653636,-4.024264,-1.350277,9.143846,2.474563,-11.592801,1.062516,0.448749,-1.008002,-0.869385,0.367188,-0.100586,0.086301,-0.040605,-0.013912,0.999971,0.005313,0.002244,-0.005040,-0.374488,0.877373,-0.084368,-0.287849
34744,NaN,8.353173,-3.419990,-1.034501,8.562682,2.247914,-11.854370,1.121237,0.313976,-1.020265,-0.873047,0.354248,-0.104736,0.083339,-0.034566,-0.010669,0.999970,0.005606,0.001570,-0.005101,-0.380744,0.876145,-0.082080,-0.284020
34745,NaN,8.225926,-3.173765,-0.307661,8.091911,2.597581,-12.180363,1.168589,0.243813,-1.063107,-0.875000,0.343750,-0.117432,0.082085,-0.032155,-0.003364,0.999968,0.005843,0.001219,-0.005315,-0.387914,0.875339,-0.078201,-0.277828
34746,NaN,8.397916,-2.988203,0.456372,7.872792,3.053321,-12.703706,1.195381,0.215382,-1.032743,-0.878906,0.335205,-0.123779,0.083828,-0.030341,0.004293,0.999968,0.005977,0.001077,-0.005164,-0.394497,0.873710,-0.075745,-0.274344
34747,NaN,8.997003,-2.089395,0.835565,7.957634,2.804093,-13.662626,1.128098,0.163831,-0.946632,-0.882812,0.322266,-0.123535,0.089876,-0.021366,0.008162,0.999973,0.005640,0.000819,-0.004733,-0.401318,0.872677,-0.072075,-0.268671
34748,NaN,9.392165,-1.525124,0.685538,8.194242,2.386237,-14.075107,0.983569,0.179419,-0.888771,-0.880371,0.315918,-0.127686,0.093859,-0.015702,0.006695,0.999978,0.004918,0.000897,-0.004444,-0.406744,0.871259,-0.069864,-0.265680
34749,NaN,9.031144,-2.345725,0.816690,8.163832,3.024060,-13.267712,0.798492,0.206510,-0.814251,-0.890869,0.311523,-0.136230,0.090223,-0.023857,0.007979,0.999983,0.003992,0.001033,-0.004071,-0.411900,0.870785,-0.066340,-0.260137
34750,NaN,8.881945,-3.007971,0.720721,8.315691,3.390922,-12.606717,0.655869,0.144014,-0.791243,-0.886230,0.300781,-0.138184,0.088705,-0.030454,0.007044,0.999987,0.003279,0.000720,-0.003956,-0.415746,0.869885,-0.064030,-0.257594
34751,NaN,8.499740,-2.489540,0.537425,7.924821,2.904806,-12.549674,0.551358,0.090899,-0.755097,-0.892578,0.294434,-0.140381,0.084905,-0.025231,0.005266,0.999989,0.002757,0.000454,-0.003775,-0.419778,0.869664,-0.060141,-0.252694
34752,NaN,9.010966,-1.882914,0.754323,8.106328,2.760117,-13.274007,0.399028,0.123153,-0.637820,-0.889893,0.285889,-0.146484,0.090054,-0.019131,0.007450,0.999993,0.001995,0.000616,-0.003189,-0.422294,0.869180,-0.058115,-0.250630
34753,NaN,9.324587,-0.875890,1.118757,7.970322,2.457101,-14.217584,0.172373,0.195376,-0.514624,-0.898682,0.290283,-0.146729,0.093234,-0.009008,0.011089,0.999996,0.000862,0.000977,-0.002573,-0.424339,0.869758,-0.054969,-0.245836
34754,NaN,9.083397,-1.592741,0.547883,8.214678,2.459258,-13.250132,-0.052559,0.268276,-0.464334,-0.889648,0.275146,-0.152832,0.090804,-0.016137,0.005361,0.999996,-0.000263,0.001341,-0.002322,-0.424623,0.870336,-0.053438,-0.243628
34755,NaN,9.091386,-2.838332,-0.198586,8.905006,2.687199,-11.869019,-0.128333,0.305920,-0.424727,-0.889648,0.273193,-0.152832,0.090850,-0.028578,-0.002107,0.999996,-0.000642,0.001530,-0.002124,-0.425217,0.871623,-0.050522,-0.238561
34756,NaN,9.042592,-1.671436,-0.893193,8.792103,1.414857,-12.273766,-0.041232,0.263788,-0.386887,-0.893799,0.273193,-0.150635,0.090381,-0.016891,-0.009048,0.999997,-0.000206,0.001319,-0.001934,-0.425449,0.872133,-0.049329,-0.236526
34757,NaN,9.590194,-1.779879,-1.376548,9.511887,1.177647,-12.086832,0.077453,0.265728,-0.244514,-0.900391,0.273193,-0.157227,0.095862,-0.017911,-0.013900,0.999998,0.000387,0.001329,-0.001223,-0.426730,0.872861,-0.047328,-0.231894
34758,NaN,10.849368,-1.155369,-1.291642,10.433498,0.979876,-13.113277,0.126766,0.274395,-0.086578,-0.895752,0.268799,-0.152832,0.108471,-0.011592,-0.013073,0.999999,0.000634,0.001372,-0.000433,-0.427337,0.872940,-0.047663,-0.230406
34759,NaN,10.987799,-0.723219,-1.117292,10.406418,0.838554,-13.487785,0.154709,0.260393,0.035380,-0.895996,0.273193,-0.167725,0.109865,-0.007204,-0.011322,0.999999,0.000774,0.001302,0.000177,-0.428616,0.873429,-0.046921,-0.226294
34760,NaN,11.107365,-0.848881,-0.666233,10.393390,1.248680,-13.680011,0.191264,0.211126,0.166442,-0.893799,0.270996,-0.161377,0.111074,-0.008390,-0.006788,0.999999,0.000956,0.001056,0.000832,-0.429232,0.873229,-0.048295,-0.225606
34761,NaN,11.512030,-0.809621,0.098749,10.507126,1.829598,-14.222315,0.244616,0.142473,0.317273,-0.900146,0.273193,-0.165771,0.115134,-0.007915,0.000896,0.999998,0.001223,0.000712,0.001586,-0.430606,0.873331,-0.048587,-0.222511
34762,NaN,12.281684,-0.736737,1.178904,10.798614,2.661434,-15.205161,0.256524,0.081622,0.485289,-0.893799,0.275146,-0.161377,0.122839,-0.007084,0.011730,0.999996,0.001283,0.000408,0.002426,-0.431184,0.872760,-0.051144,-0.223056
34763,NaN,13.484011,-0.470733,2.478519,11.387767,3.585270,-16.568958,0.219205,0.031570,0.672441,-0.889893,0.285889,-0.170166,0.134859,-0.004281,0.024759,0.999994,0.001096,0.000158,0.003362,-0.432105,0.872701,-0.052671,-0.221141
34764,NaN,14.865490,-0.218047,3.682862,12.119794,4.435487,-18.060693,0.079395,-0.009394,0.847684,-0.890137,0.290283,-0.170166,0.148661,-0.001565,0.036835,0.999991,0.000397,-0.000047,0.004238,-0.431533,0.872301,-0.056413,-0.222908
34765,NaN,16.531709,0.379267,4.216294,13.280561,4.558925,-19.511073,-0.156901,-0.054262,1.025747,-0.886230,0.305176,-0.168213,0.165283,0.004674,0.042204,0.999987,-0.000785,-0.000271,0.005129,-0.430508,0.872841,-0.058836,-0.222146
34766,NaN,17.608197,1.363089,4.441872,13.803124,4.101684,-20.960891,-0.283408,-0.135272,1.212172,-0.878174,0.315918,-0.168457,0.175965,0.014761,0.044517,0.999980,-0.001417,-0.000676,0.006061,-0.427978,0.872941,-0.063492,-0.225340
34767,NaN,19.371143,2.743877,3.816938,15.146631,2.767428,-22.471780,-0.368263,-0.185913,1.437105,-0.882812,0.331055,-0.162109,0.193472,0.028900,0.038297,0.999972,-0.001841,-0.000930,0.007185,-0.425670,0.873630,-0.067152,-0.225980
34768,NaN,19.134969,4.102862,2.577491,14.776152,0.764257,-22.877753,-0.353560,-0.293664,1.636865,-0.872559,0.343750,-0.164551,0.190967,0.042638,0.025981,0.999964,-0.001768,-0.001468,0.008184,-0.422381,0.873484,-0.073247,-0.230770
34769,NaN,18.445660,4.793052,1.043796,14.370577,-1.055699,-22.329342,-0.089199,-0.411140,1.821824,-0.866943,0.367432,-0.164795,0.183988,0.049613,0.010795,0.999956,-0.000446,-0.002056,0.009109,-0.420928,0.873160,-0.078380,-0.232954
34770,NaN,18.844073,4.995270,-0.228020,14.857521,-2.303870,-22.223841,0.418978,-0.445027,1.977273,-0.863037,0.380127,-0.165039,0.187939,0.051816,-0.001754,0.999946,0.002095,-0.002225,0.009886,-0.420629,0.870955,-0.086529,-0.238792
34771,NaN,19.904048,4.436214,-1.168309,16.144753,-2.790986,-22.009264,0.692803,-0.338164,2.122385,-0.850830,0.395264,-0.169434,0.198574,0.046510,-0.011188,0.999936,0.003464,-0.001691,0.010612,-0.422123,0.868900,-0.093960,-0.240822
34772,NaN,21.071487,-1.719550,-2.441556,19.626008,-0.140697,-18.040684,1.000650,-0.231156,2.504229,-0.847168,0.418701,-0.169678,0.210935,-0.014434,-0.024249,0.999908,0.005003,-0.001156,0.012521,-0.423549,0.865273,-0.105516,-0.246527
34773,NaN,22.732573,-10.191688,-4.309831,24.930358,3.277588,-12.439529,1.172908,-0.135544,2.873727,-0.837646,0.450928,-0.180908,0.228786,-0.098382,-0.043527,0.999879,0.005864,-0.000678,0.014368,-0.426016,0.861912,-0.117071,-0.248823
34774,NaN,23.829745,-14.611197,-4.349463,27.763955,5.352908,-10.643109,1.568349,0.070010,3.215441,-0.821045,0.468018,-0.187500,0.240586,-0.141909,-0.044702,0.999840,0.007841,0.000350,0.016076,-0.428689,0.856660,-0.132976,-0.254317
34775,NaN,23.444874,-17.312019,-3.988649,28.668999,6.556165,-9.278734,1.445282,-0.090172,3.459963,-0.809082,0.500244,-0.196533,0.237412,-0.168736,-0.041010,0.999824,0.007226,-0.000451,0.017299,-0.431545,0.852026,-0.147230,-0.257186
34776,NaN,22.854139,-17.919157,-4.138652,28.680074,6.133885,-9.295797,0.953262,-0.148428,3.582806,-0.788574,0.528076,-0.205322,0.231731,-0.174860,-0.042056,0.999828,0.004766,-0.000742,0.017913,-0.431057,0.847020,-0.163338,-0.264703
34777,NaN,20.446732,-14.346553,-3.993269,24.996905,3.732497,-10.807204,0.769553,-0.139953,3.612976,-0.772217,0.553711,-0.205566,0.207041,-0.139586,-0.040330,0.999829,0.003848,-0.000700,0.018064,-0.430877,0.843239,-0.176992,-0.268266
34778,NaN,21.733409,-15.926738,-4.092546,26.923550,3.903256,-11.403635,0.476891,-0.306270,4.117247,-0.743408,0.594482,-0.210449,0.220612,-0.154650,-0.040962,0.999784,0.002384,-0.001531,0.020585,-0.427567,0.838006,-0.194256,-0.277845
34779,NaN,18.356508,-17.418958,-3.327116,24.987700,5.177335,-9.385904,0.188980,-0.498073,3.780167,-0.729248,0.617920,-0.206299,0.186895,-0.170647,-0.032971,0.999818,0.000945,-0.002490,0.018900,-0.425009,0.834413,-0.206818,-0.283457
34780,NaN,15.230019,-11.895262,-1.211663,18.797006,3.857221,-12.395797,0.018019,-0.629287,3.564259,-0.715088,0.639404,-0.197998,0.154425,-0.116212,-0.011644,0.999836,0.000090,-0.003146,0.017820,-0.420638,0.829696,-0.220306,-0.293486
34781,NaN,15.084515,-5.913636,-0.406069,14.729031,1.013536,-16.496717,-0.264198,-0.684846,3.672961,-0.698975,0.671387,-0.198486,0.151910,-0.056358,-0.003466,0.999825,-0.001321,-0.003424,0.018364,-0.416525,0.826530,-0.231181,-0.299850
34782,NaN,13.373146,-3.384444,1.035222,11.228421,0.827145,-17.848969,-0.223094,-0.670158,3.801584,-0.678467,0.699219,-0.192383,0.134307,-0.031283,0.010837,0.999813,-0.001115,-0.003351,0.019007,-0.410624,0.821482,-0.245078,-0.310631
34783,NaN,10.706836,-2.530733,1.660340,8.471409,1.090603,-16.942186,-0.148540,-0.603857,3.635885,-0.651367,0.724854,-0.188232,0.107454,-0.023344,0.016945,0.999830,-0.000743,-0.003019,0.018178,-0.406868,0.817861,-0.256020,-0.316252
34784,NaN,9.680485,-1.053316,1.954620,6.471510,0.552707,-17.325786,0.147673,-0.551538,3.416378,-0.628418,0.746338,-0.179932,0.096912,-0.008893,0.019806,0.999850,0.000738,-0.002758,0.017081,-0.402739,0.812238,-0.269022,-0.325110
34785,NaN,8.571876,0.393943,1.837687,4.646617,-0.231575,-17.253021,0.238503,-0.436585,3.168881,-0.607422,0.765625,-0.186523,0.085602,0.005274,0.018570,0.999871,0.001192,-0.002183,0.015844,-0.401048,0.808358,-0.278918,-0.328516
34786,NaN,8.214817,1.615758,1.376822,3.486301,-1.280988,-17.440918,0.421081,-0.255822,2.783773,-0.595215,0.784668,-0.182373,0.081895,0.017269,0.013909,0.999900,0.002105,-0.001279,0.013918,-0.398519,0.803181,-0.290277,-0.334399
34787,NaN,7.354433,2.707773,1.541048,2.013129,-1.594071,-17.375631,0.549325,-0.083495,2.367841,-0.583008,0.799805,-0.191162,0.073211,0.027903,0.015517,0.999926,0.002747,-0.000417,0.011839,-0.398886,0.800151,-0.298108,-0.334335
34788,NaN,6.771543,3.648297,1.145098,0.925002,-2.324160,-17.175821,0.379955,-0.000172,2.069131,-0.568115,0.808350,-0.199951,0.067333,0.037159,0.011521,0.999945,0.001900,-0.000001,0.010345,-0.396951,0.796318,-0.306960,-0.337761
34789,NaN,5.679840,4.586888,0.969365,-0.431326,-2.727855,-16.639927,-0.005175,0.059188,1.751399,-0.557861,0.825439,-0.195801,0.056397,0.046364,0.009676,0.999962,-0.000026,0.000296,0.008757,-0.395912,0.795410,-0.311684,-0.336792
34790,NaN,3.526527,4.927958,0.663737,-1.943039,-2.689489,-14.926625,-0.384867,0.038041,1.335935,-0.545410,0.833984,-0.195801,0.034936,0.049526,0.006536,0.999976,-0.001924,0.000190,0.006680,-0.392088,0.794192,-0.316371,-0.339758
34791,NaN,3.744454,3.506947,0.526230,-0.696671,-2.182068,-14.433230,-0.589551,0.057263,1.130182,-0.541260,0.842529,-0.196045,0.037247,0.035296,0.005148,0.999980,-0.002948,0.000286,0.005651,-0.389735,0.795327,-0.317710,-0.338558
34792,NaN,2.951856,3.479939,0.237045,-1.077340,-2.246277,-13.643234,-0.485340,0.151557,0.631857,-0.539551,0.851074,-0.185303,0.029410,0.034898,0.002264,0.999992,-0.002427,0.000758,0.003159,-0.386517,0.795579,-0.319645,-0.339832
34793,NaN,1.380207,3.537594,0.269752,-2.003048,-1.878260,-12.449393,-0.449227,0.145424,0.248066,-0.541748,0.855469,-0.185303,0.013760,0.035399,0.002608,0.999996,-0.002246,0.000727,0.001240,-0.386023,0.797940,-0.317972,-0.336410
34794,NaN,0.639747,4.291710,-0.142060,-2.880159,-2.431587,-11.966811,-0.568975,0.038922,-0.097144,-0.546143,0.857666,-0.178955,0.006418,0.042910,-0.001544,0.999996,-0.002845,0.000195,-0.000486,-0.383879,0.799316,-0.316649,-0.336844
34795,NaN,0.055579,4.819723,-0.593538,-3.448692,-2.952100,-11.537968,-0.709716,-0.025894,-0.468227,-0.557373,0.866211,-0.172852,0.000669,0.048174,-0.006106,0.999991,-0.003549,-0.000129,-0.002341,-0.383726,0.802956,-0.311430,-0.333208
34796,NaN,-0.463524,4.805146,-0.763215,-3.659684,-2.991513,-11.055314,-0.695073,-0.019588,-0.807252,-0.567871,0.859619,-0.164062,-0.004441,0.048043,-0.007800,0.999986,-0.003475,-0.000098,-0.004036,-0.382333,0.805564,-0.306934,-0.332686
34797,NaN,-1.278157,4.617968,-0.462055,-4.050778,-2.491020,-10.560026,-0.646959,0.010949,-1.129274,-0.574463,0.864014,-0.157959,-0.012521,0.046236,-0.004769,0.999979,-0.003235,0.000055,-0.005646,-0.383306,0.810054,-0.299297,-0.327583
34798,NaN,-2.141369,4.102771,-0.054185,-4.291301,-1.730009,-9.924603,-0.576186,0.031522,-1.429116,-0.595703,0.857666,-0.155762,-0.021120,0.041178,-0.000657,0.999970,-0.002881,0.000158,-0.007146,-0.383284,0.813385,-0.292558,-0.325435
34799,NaN,-2.751132,3.573436,0.532741,-4.450185,-0.883645,-9.621779,-0.551355,0.049591,-1.736501,-0.612793,0.849121,-0.147217,-0.027198,0.035986,0.005235,0.999958,-0.002757,0.000248,-0.008682,-0.385373,0.818452,-0.282719,-0.318895
34800,NaN,-3.329157,3.624586,1.124816,-5.029370,-0.371224,-9.582926,-0.672127,0.058368,-2.023452,-0.631836,0.844727,-0.142822,-0.032919,0.036618,0.011135,0.999943,-0.003361,0.000292,-0.010117,-0.385774,0.822713,-0.273402,-0.315552
34801,NaN,-3.647636,3.858622,0.899809,-5.329124,-0.701309,-9.479468,-0.891166,0.103088,-2.293362,-0.651123,0.836182,-0.134277,-0.036026,0.039041,0.008843,0.999924,-0.004456,0.000515,-0.011467,-0.387029,0.828971,-0.260844,-0.308183
34802,NaN,-3.685889,3.547308,0.682782,-5.073847,-0.786117,-9.291312,-0.920550,0.260761,-2.579057,-0.680908,0.827637,-0.125732,-0.036388,0.035975,0.006711,0.999905,-0.004603,0.001304,-0.012895,-0.386843,0.834495,-0.249152,-0.303141
34803,NaN,-4.237305,2.328104,1.057371,-4.804678,0.220979,-8.647703,-0.989639,0.449283,-2.883635,-0.703857,0.810547,-0.116943,-0.042007,0.023941,0.010551,0.999881,-0.004948,0.002246,-0.014418,-0.387816,0.841752,-0.234639,-0.293253
34804,NaN,-5.016795,0.756659,0.954380,-4.413380,1.105771,-7.373716,-1.170357,0.571188,-3.067435,-0.733643,0.799805,-0.106201,-0.050016,0.008391,0.009639,0.999861,-0.005852,0.002856,-0.015336,-0.386698,0.848392,-0.221019,-0.286088
34805,NaN,-6.088781,-1.319665,0.457530,-3.974156,2.050084,-5.451103,-1.191148,0.690713,-3.282942,-0.756836,0.782715,-0.104004,-0.061077,-0.012167,0.004861,0.999842,-0.005955,0.003453,-0.016414,-0.386740,0.856193,-0.204950,-0.274521
34806,NaN,-6.737288,-4.159381,-0.280211,-2.860241,3.259756,-3.182747,-1.188704,0.744632,-3.436262,-0.790771,0.765625,-0.093262,-0.068084,-0.040443,-0.002307,0.999828,-0.005943,0.003723,-0.017180,-0.385574,0.862933,-0.189940,-0.265711
34807,NaN,-6.948313,-6.683528,-1.327757,-1.738404,4.035280,-1.129663,-1.246715,0.750179,-3.559093,-0.815674,0.744385,-0.084473,-0.070707,-0.065664,-0.012602,0.999815,-0.006233,0.003751,-0.017794,-0.385286,0.870403,-0.172678,-0.253251
34808,NaN,-6.293402,-8.377718,-2.629117,-0.345162,4.083060,0.182395,-1.454410,0.781428,-3.458061,-0.845215,0.725098,-0.075684,-0.064473,-0.082858,-0.025436,0.999816,-0.007272,0.003907,-0.017289,-0.382628,0.877060,-0.157183,-0.244246
34809,NaN,-5.305258,-10.958188,-4.141148,1.618657,4.629612,2.074483,-1.553636,0.936844,-3.317894,-0.866211,0.708008,-0.073486,-0.055055,-0.108996,-0.040308,0.999821,-0.007768,0.004684,-0.016588,-0.380166,0.884319,-0.140923,-0.231506
34810,NaN,-4.006021,-13.678003,-4.760735,3.583698,6.065242,3.459283,-1.695684,1.073672,-3.104382,-0.891357,0.686523,-0.069092,-0.042431,-0.136529,-0.046225,0.999829,-0.008478,0.005368,-0.015521,-0.375479,0.890855,-0.127168,-0.221858
34811,NaN,-2.360454,-15.298734,-5.463713,5.250409,6.782541,4.182973,-1.814078,1.090283,-2.750259,-0.905762,0.671631,-0.058105,-0.026002,-0.153127,-0.053111,0.999849,-0.009070,0.005451,-0.013751,-0.370802,0.897637,-0.113439,-0.209487
34812,NaN,-1.266764,-16.518667,-5.692845,6.244529,7.690865,4.634198,-1.704798,1.106508,-2.257292,-0.924805,0.660889,-0.051514,-0.014844,-0.165504,-0.055440,0.999885,-0.008524,0.005532,-0.011286,-0.364885,0.903162,-0.103473,-0.201122
34813,NaN,-1.441263,-17.611749,-5.169352,5.769575,9.070292,5.133815,-1.408561,1.082842,-1.747903,-0.931152,0.656494,-0.049561,-0.016228,-0.176339,-0.050368,0.999922,-0.007043,0.005414,-0.008739,-0.360855,0.908085,-0.094711,-0.190252
34814,NaN,-0.694942,-16.316740,-2.962737,5.118419,9.834172,2.539662,-1.213029,0.864167,-1.105277,-0.933105,0.647949,-0.040771,-0.007977,-0.163301,-0.028604,0.999957,-0.006065,0.004321,-0.005526,-0.356015,0.911605,-0.090001,-0.184742
34815,NaN,-1.580547,-9.646009,-0.615208,1.478709,6.685452,-2.809880,-0.653412,0.700747,-0.736168,-0.939697,0.656494,-0.051514,-0.016181,-0.096420,-0.005781,0.999982,-0.003267,0.003504,-0.003681,-0.354691,0.914042,-0.085939,-0.177018
34816,NaN,-12.755970,-36.458067,-16.739337,2.903534,15.049240,29.391799,4.350023,1.513015,0.074649,-0.918457,0.669434,-0.111816,-0.128726,-0.360887,-0.174299,0.999735,0.021748,0.007564,0.000373,-0.373801,0.907416,-0.092692,-0.168159
34817,NaN,13.089649,-121.421046,-20.258410,54.742548,71.167389,75.383824,-3.135034,2.878826,6.072119,-0.881836,0.720703,-0.052246,0.164977,-1.212546,-0.185777,0.999313,-0.015672,0.014391,0.030354,-0.354492,0.912422,-0.121649,-0.164386
34818,NaN,27.466878,9.247286,8.238210,20.464409,-3.995778,-31.561790,-8.688768,-1.086000,-3.291275,-0.908203,0.675781,-0.021729,0.275741,0.091448,0.079889,0.998906,-0.043428,-0.005428,-0.016450,-0.317881,0.927956,-0.097343,-0.168447
34819,NaN,-13.740441,56.697381,14.815936,-32.148337,-34.072182,-47.606987,-0.413124,-2.385756,-1.728340,-0.908447,0.675537,0.016846,-0.134241,0.568445,0.145372,0.999889,-0.002066,-0.011928,-0.008641,-0.320648,0.927452,-0.083976,-0.173104
34820,NaN,36.941401,11.511760,-29.488283,38.966451,-29.093777,-8.430760,-1.169417,0.122711,1.001289,-0.893555,0.686279,-0.004639,0.368656,0.115237,-0.295783,0.999970,-0.005847,0.000614,0.005006,-0.314342,0.929011,-0.087693,-0.174465
34821,NaN,21.440985,-15.195399,-2.564934,24.734990,8.900762,-7.340376,-0.214736,2.740734,1.695066,-0.889648,0.699219,-0.004883,0.215311,-0.150161,-0.028434,0.999870,-0.001074,0.013703,0.008475,-0.312241,0.931143,-0.098437,-0.160589
34822,NaN,21.877690,-5.806322,3.372465,21.128615,4.835287,-17.155522,-4.026381,0.107354,-0.149052,-0.889648,0.692627,0.018799,0.218752,-0.057533,0.034769,0.999797,-0.020131,0.000537,-0.000745,-0.293542,0.937426,-0.094545,-0.161641
34823,NaN,20.808433,-13.644250,-6.596839,24.646500,5.463000,-4.774953,0.504655,0.185751,-0.415670,-0.887207,0.688477,0.010254,0.207739,-0.136707,-0.066506,0.999994,0.002523,0.000929,-0.002078,-0.297920,0.937281,-0.092060,-0.155796
34824,NaN,10.357639,-12.516139,11.764035,10.168676,16.209034,-15.828504,0.244900,-0.241443,-0.739506,-0.897949,0.684082,0.010254,0.102970,-0.125687,0.117611,0.999992,0.001224,-0.001207,-0.003698,-0.299795,0.937086,-0.088305,-0.155547
34825,NaN,16.134007,-4.685160,2.948346,15.658876,4.406470,-14.943983,1.316554,-0.392793,-0.704825,-0.897705,0.679932,0.003906,0.161115,-0.047614,0.029488,0.999970,0.006583,-0.001964,-0.003524,-0.308638,0.935259,-0.084184,-0.151483
34826,NaN,9.492087,-4.851255,7.029323,8.510864,7.506675,-15.665940,0.030544,0.068001,-0.505173,-0.906006,0.673584,0.001953,0.094822,-0.048763,0.070254,0.999997,0.000153,0.000340,-0.002526,-0.309178,0.935496,-0.081829,-0.150203
34827,NaN,8.245932,-5.005401,-0.401477,9.078253,3.254662,-9.362310,-0.492604,0.178409,-0.566452,-0.903809,0.669189,-0.000244,0.082314,-0.050297,-0.003965,0.999993,-0.002463,0.000892,-0.002832,-0.309300,0.936716,-0.077858,-0.144344
34828,NaN,7.089202,-6.752920,-2.988633,8.945522,3.195162,-5.997075,-0.255437,0.325404,-0.483707,-0.907959,0.666992,-0.000244,0.070680,-0.067739,-0.029915,0.999995,-0.001277,0.001627,-0.002419,-0.308370,0.937551,-0.075786,-0.141999
34829,NaN,7.106876,-4.996213,-5.873722,9.116407,0.074311,-4.630451,-0.202144,0.154471,-0.687263,-0.914062,0.656494,0.004150,0.070851,-0.050265,-0.058741,0.999993,-0.001011,0.000772,-0.003436,-0.309978,0.938264,-0.071461,-0.135894
34830,NaN,8.888089,-4.130095,-5.180310,10.452332,-0.252203,-6.128096,0.272876,0.189887,-0.670787,-0.918213,0.649902,-0.008545,0.088693,-0.041528,-0.051944,0.999993,0.001364,0.000949,-0.003354,-0.311691,0.938222,-0.068665,-0.133690
34831,NaN,10.684411,-4.839823,-2.470194,11.723615,1.866329,-8.152739,0.512510,0.246343,-0.667911,-0.920166,0.645752,-0.010742,0.106651,-0.048691,-0.024958,0.999990,0.002563,0.001232,-0.003340,-0.316564,0.937797,-0.065044,-0.126863
34832,NaN,11.693339,-4.877592,-0.314574,12.264195,3.191837,-9.970460,0.457160,0.316109,-0.658191,-0.921875,0.635010,-0.014893,0.116767,-0.049153,-0.003442,0.999991,0.002286,0.001581,-0.003291,-0.319066,0.937495,-0.062616,-0.124010
34833,NaN,12.209084,-5.369750,0.857925,12.639679,4.292042,-10.481890,0.334229,0.419098,-0.647053,-0.928223,0.628662,-0.019043,0.121934,-0.054106,0.008233,0.999991,0.001671,0.002095,-0.003235,-0.323032,0.937336,-0.059233,-0.116374
34834,NaN,12.183987,-5.072694,0.621022,12.599751,3.938915,-10.358335,0.159492,0.443121,-0.649937,-0.930176,0.628662,-0.029785,0.121687,-0.051127,0.005900,0.999992,0.000797,0.002216,-0.003250,-0.324072,0.937535,-0.056861,-0.113016
34835,NaN,11.638108,-4.700098,-1.033520,12.282705,2.644566,-8.949425,0.161479,0.447546,-0.655318,-0.936279,0.620117,-0.038330,0.116203,-0.047373,-0.010634,0.999992,0.000807,0.002238,-0.003277,-0.327246,0.937547,-0.053386,-0.105191
34836,NaN,11.211719,-4.270569,-2.428472,12.007518,1.468910,-7.942142,0.257754,0.455802,-0.606647,-0.937988,0.605225,-0.044434,0.111931,-0.043014,-0.024595,0.999992,0.001289,0.002279,-0.003033,-0.328697,0.937531,-0.051285,-0.101805
34837,NaN,10.935899,-3.717426,-3.082368,11.714118,0.616914,-7.507839,0.427237,0.464015,-0.577084,-0.946533,0.605225,-0.055176,0.109179,-0.037423,-0.031157,0.999991,0.002136,0.002320,-0.002885,-0.333053,0.936977,-0.048330,-0.093878
34838,NaN,10.608139,-3.390928,-2.702526,11.272264,0.609048,-7.838053,0.577300,0.451238,-0.534456,-0.939941,0.600830,-0.055176,0.105929,-0.034114,-0.027363,0.999990,0.002886,0.002256,-0.002672,-0.335944,0.936356,-0.046708,-0.090542
34839,NaN,10.087526,-3.741520,-2.203590,10.713394,1.174802,-7.701904,0.727556,0.423556,-0.493447,-0.946289,0.594482,-0.061523,0.100736,-0.037583,-0.022386,0.999988,0.003638,0.002118,-0.002467,-0.341633,0.935136,-0.044178,-0.082806
34840,NaN,9.198574,-4.228607,-1.137793,9.761695,2.242741,-7.950324,0.634110,0.404520,-0.451117,-0.954590,0.588135,-0.072021,0.091867,-0.042457,-0.011698,0.999990,0.003171,0.002023,-0.002256,-0.344739,0.934316,-0.042879,-0.079807
34841,NaN,9.067381,-3.780300,-0.497942,9.476911,2.294677,-8.517221,0.507383,0.380999,-0.451495,-0.954590,0.588135,-0.076416,0.090578,-0.037994,-0.005248,0.999992,0.002537,0.001905,-0.002257,-0.349368,0.933316,-0.040357,-0.072346
34842,NaN,8.631835,-4.055380,-0.094779,9.030202,2.771713,-8.494998,0.556969,0.399134,-0.449024,-0.954102,0.575195,-0.084717,0.086225,-0.040744,-0.001233,0.999992,0.002785,0.001996,-0.002245,-0.352093,0.932574,-0.039014,-0.069386
34843,NaN,8.155320,-4.407915,0.177951,8.555120,3.201575,-8.222088,0.559312,0.417532,-0.494727,-0.962402,0.571045,-0.097656,0.081447,-0.044285,0.001486,0.999991,0.002797,0.002088,-0.002474,-0.356964,0.931373,-0.036363,-0.061638
34844,NaN,8.041648,-4.347630,0.270278,8.415587,3.215135,-8.236804,0.581716,0.383372,-0.499170,-0.959961,0.560303,-0.101807,0.080312,-0.043684,0.002422,0.999991,0.002909,0.001917,-0.002496,-0.359800,0.930535,-0.034753,-0.058651
34845,NaN,8.481372,-3.499619,-0.050498,8.768330,2.338441,-8.459434,0.551116,0.359559,-0.444018,-0.970703,0.562500,-0.104004,0.084735,-0.035183,-0.000754,0.999992,0.002756,0.001798,-0.002220,-0.364626,0.929184,-0.032230,-0.051247
34846,NaN,9.008055,-2.935228,-0.405713,9.253599,1.665179,-8.578578,0.451633,0.378452,-0.375460,-0.966064,0.553955,-0.116699,0.090017,-0.029512,-0.004294,0.999994,0.002258,0.001892,-0.001877,-0.366803,0.928510,-0.031141,-0.048521
34847,NaN,8.963981,-2.713815,-0.654827,9.188092,1.305799,-8.391356,0.360257,0.360149,-0.322635,-0.968262,0.553955,-0.118896,0.089584,-0.027271,-0.006759,0.999995,0.001801,0.001801,-0.001613,-0.370697,0.927376,-0.029128,-0.041345
34848,NaN,8.326226,-3.196696,-0.720138,8.590120,1.616278,-7.899358,0.359036,0.315103,-0.294296,-0.970215,0.549561,-0.123047,0.083204,-0.032076,-0.007390,0.999996,0.001795,0.001576,-0.001471,-0.372421,0.926810,-0.028268,-0.039072
34849,NaN,8.046872,-3.778295,-0.105876,8.304536,2.437279,-7.779687,0.327781,0.258820,-0.258900,-0.976562,0.545410,-0.127197,0.080418,-0.037885,-0.001225,0.999997,0.001639,0.001294,-0.001295,-0.376148,0.925615,-0.026352,-0.032471
34850,NaN,8.147070,-3.535727,0.142351,8.369188,2.428097,-8.092999,0.290068,0.218378,-0.220331,-0.971924,0.536865,-0.135742,0.081433,-0.035449,0.001283,0.999998,0.001450,0.001092,-0.001102,-0.377543,0.925125,-0.025634,-0.030790
34851,NaN,8.245967,-3.320309,0.063779,8.437476,2.190273,-8.070233,0.218537,0.187026,-0.169607,-0.974365,0.543213,-0.131592,0.082432,-0.033274,0.000524,0.999999,0.001093,0.000935,-0.000848,-0.380764,0.924031,-0.023985,-0.024695
34852,NaN,7.795552,-3.196650,-0.124310,7.980595,1.977534,-7.967668,0.131276,0.152488,-0.134096,-0.974121,0.539062,-0.135742,0.077933,-0.032018,-0.001324,0.999999,0.000656,0.000762,-0.000670,-0.381414,0.923807,-0.023513,-0.023497
34853,NaN,7.595894,-3.215565,-0.236859,7.765570,1.890004,-7.759070,0.119244,0.142777,-0.076330,-0.967773,0.539062,-0.142090,0.075945,-0.032183,-0.002442,0.999999,0.000596,0.000714,-0.000382,-0.384175,0.922822,-0.022210,-0.017791
34854,NaN,8.247264,-2.970806,0.123947,8.394781,1.947673,-8.202523,0.044486,0.169767,0.017204,-0.971924,0.534668,-0.139893,0.082476,-0.029701,0.001163,1.000000,0.000222,0.000849,0.000086,-0.384406,0.922738,-0.022457,-0.016810
34855,NaN,8.738346,-2.850347,0.040756,8.867673,1.754466,-8.148045,-0.030569,0.187634,0.067543,-0.972168,0.541016,-0.140137,0.087393,-0.028474,0.000330,0.999999,-0.000153,0.000938,0.000338,-0.386470,0.921974,-0.021908,-0.011189
34856,NaN,8.663645,-3.182055,-0.113612,8.811929,1.863084,-7.793797,-0.105155,0.169793,0.171637,-0.974365,0.545410,-0.142334,0.086663,-0.031747,-0.001193,0.999999,-0.000526,0.000849,0.000858,-0.386003,0.922155,-0.022856,-0.010520
34857,NaN,8.246477,-2.876093,-0.279090,8.368044,1.503425,-7.795339,-0.176086,0.131295,0.255425,-0.968018,0.549805,-0.146729,0.082500,-0.028658,-0.002820,0.999999,-0.000880,0.000656,0.001277,-0.387412,0.921601,-0.023074,-0.005534
34858,NaN,8.469512,-2.767752,-0.333517,8.590699,1.359840,-7.849277,-0.223827,0.144970,0.335110,-0.959229,0.545410,-0.144287,0.084739,-0.027539,-0.003366,0.999998,-0.001119,0.000725,0.001676,-0.386399,0.921985,-0.024724,-0.005306
34859,NaN,9.075300,-2.902929,-0.213080,9.195334,1.460903,-7.776782,-0.289431,0.170854,0.475715,-0.968262,0.553955,-0.144531,0.090820,-0.028816,-0.002167,0.999996,-0.001447,0.000854,0.002379,-0.387301,0.921585,-0.026054,-0.000583
34860,NaN,9.612272,-2.569244,-0.726457,9.715493,0.796914,-7.691749,-0.308779,0.157633,0.596401,-0.955322,0.558350,-0.142334,0.096193,-0.025417,-0.007301,0.999994,-0.001544,0.000788,0.002982,-0.385899,0.922087,-0.028933,-0.000814
34861,NaN,9.996832,-2.763216,-0.811869,10.098991,0.775349,-7.437835,-0.294167,0.134138,0.713667,-0.955811,0.568848,-0.144775,0.100061,-0.027287,-0.008145,0.999992,-0.001471,0.000671,0.003568,-0.386815,0.921620,-0.031303,0.003277
34862,NaN,10.614146,-2.997911,-0.467925,10.753772,1.090804,-7.569384,-0.312016,0.108553,0.814433,-0.949707,0.575439,-0.134033,0.106260,-0.029554,-0.004691,0.999990,-0.001560,0.000543,0.004072,-0.385414,0.922073,-0.035094,0.002395
34863,NaN,10.586042,-3.066349,-0.023141,10.746122,1.365877,-7.782474,-0.283892,0.044998,0.890671,-0.941406,0.588135,-0.140625,0.105996,-0.030192,-0.000212,0.999989,-0.001419,0.000225,0.004453,-0.386429,0.921514,-0.038107,0.005733
34864,NaN,9.925789,-2.796735,0.132535,10.096124,1.275427,-8.138981,-0.323983,-0.021675,0.978635,-0.941650,0.594727,-0.134277,0.099393,-0.027479,0.001381,0.999987,-0.001620,-0.000108,0.004893,-0.385007,0.921931,-0.042403,0.003926
34865,NaN,10.458369,-2.849510,0.461710,10.653496,1.405855,-8.317486,-0.342538,0.016967,1.150011,-0.931641,0.613770,-0.130127,0.104746,-0.027885,0.004656,0.999982,-0.001713,0.000085,0.005750,-0.385808,0.921380,-0.046556,0.006616
34866,NaN,10.677438,-2.487358,0.517180,10.866021,1.085037,-8.711473,-0.455692,0.046421,1.282312,-0.927246,0.615967,-0.128174,0.106932,-0.024176,0.005203,0.999977,-0.002278,0.000232,0.006412,-0.383776,0.921928,-0.052382,0.004499
34867,NaN,9.910701,-3.147234,0.442713,10.172874,1.450752,-8.160639,-0.548808,0.097303,1.375005,-0.917236,0.633057,-0.130371,0.099322,-0.030778,0.004464,0.999972,-0.002744,0.000487,0.006875,-0.383665,0.921639,-0.057731,0.007060
34868,NaN,8.332943,-5.209410,0.802854,8.879650,3.235564,-7.001693,-0.569179,0.149834,1.402694,-0.909180,0.648193,-0.124268,0.083698,-0.051485,0.008113,0.999971,-0.002846,0.000749,0.007013,-0.381081,0.922288,-0.064311,0.005149
34869,NaN,7.323292,-7.335692,0.935932,8.170956,4.839165,-5.554156,-0.593977,0.135344,1.337849,-0.900879,0.660889,-0.122314,0.073728,-0.072837,0.009526,0.999973,-0.002970,0.000677,0.006689,-0.380820,0.921993,-0.069585,0.007907
34870,NaN,7.657256,-7.184482,-0.299999,8.478912,3.764890,-4.885966,-0.527888,0.086993,1.218309,-0.897217,0.676025,-0.115967,0.077007,-0.071384,-0.002845,0.999978,-0.002639,0.000435,0.006091,-0.378439,0.922547,-0.075193,0.006061
34871,NaN,7.861001,-5.380662,-2.245999,8.317822,1.024533,-4.757512,-0.506605,0.067855,1.072169,-0.888916,0.684570,-0.118164,0.078890,-0.053441,-0.022351,0.999982,-0.002533,0.000339,0.005361,-0.378685,0.922091,-0.079153,0.008999
34872,NaN,8.396390,-6.177096,-3.793840,8.880721,0.372364,-3.176230,-0.273778,0.173974,0.985236,-0.884766,0.690918,-0.111816,0.084234,-0.061408,-0.037927,0.999987,-0.001369,0.000870,0.004926,-0.377436,0.922197,-0.083839,0.008088
34873,NaN,9.550110,-6.357255,-3.783688,10.014889,0.203599,-3.060253,-0.028750,0.234521,0.860150,-0.876465,0.699463,-0.120605,0.095729,-0.063167,-0.037940,0.999990,-0.000144,0.001173,0.004301,-0.379835,0.920861,-0.087113,0.012348
34874,NaN,10.702658,-5.225039,-2.893468,11.075847,-0.245171,-4.570102,0.179920,0.303113,0.771297,-0.872314,0.705811,-0.120605,0.107183,-0.051811,-0.029144,0.999991,0.000900,0.001516,0.003856,-0.380617,0.920155,-0.091027,0.012622
34875,NaN,11.629525,-5.758695,-1.651252,12.152190,0.679716,-5.017259,0.362109,0.414634,0.724475,-0.872803,0.714600,-0.125000,0.116468,-0.057135,-0.016858,0.999990,0.001811,0.002073,0.003622,-0.384727,0.918058,-0.093950,0.018120
34876,NaN,12.510033,-5.681626,-0.403978,13.145241,1.222052,-5.984768,0.449912,0.460314,0.647264,-0.866211,0.714600,-0.133545,0.125273,-0.056401,-0.004455,0.999990,0.002250,0.002302,0.003236,-0.386669,0.916837,-0.097562,0.019469
34877,NaN,13.471876,-5.280690,1.090627,14.176252,1.659553,-7.196374,0.497166,0.500662,0.571295,-0.862305,0.723145,-0.144287,0.134895,-0.052448,0.010438,0.999990,0.002486,0.002503,0.002856,-0.391344,0.914447,-0.099876,0.025717
34878,NaN,14.926273,-5.044279,2.139749,15.702810,1.828137,-8.111171,0.503386,0.536314,0.523032,-0.857910,0.723145,-0.152832,0.149450,-0.050105,0.020871,0.999990,0.002517,0.002682,0.002615,-0.393478,0.913122,-0.103046,0.027673
34879,NaN,15.719267,-4.671706,2.351993,16.441657,1.406539,-8.348326,0.533901,0.501637,0.458040,-0.853760,0.727295,-0.157227,0.157357,-0.046419,0.023001,0.999991,0.002669,0.002508,0.002290,-0.398308,0.910607,-0.104770,0.034188
34880,NaN,16.086846,-4.305842,2.121818,16.711070,0.809225,-8.429447,0.677402,0.397131,0.390261,-0.860352,0.731689,-0.167969,0.160994,-0.042815,0.020753,0.999990,0.003387,0.001986,0.001951,-0.401281,0.908975,-0.107014,0.035855
34881,NaN,16.801340,-3.304191,1.687849,17.163419,-0.445856,-8.686118,0.950326,0.258011,0.342544,-0.855713,0.725342,-0.182861,0.168091,-0.032833,0.016505,0.999986,0.004752,0.001290,0.001713,-0.408092,0.905622,-0.107548,0.041749
34882,NaN,18.765194,-1.521965,1.121489,18.688935,-2.530580,-9.651133,1.289066,0.138739,0.358971,-0.857910,0.729492,-0.191650,0.187687,-0.014954,0.010988,0.999977,0.006445,0.000694,0.001795,-0.413952,0.902746,-0.108977,0.042625
34883,NaN,19.024585,-0.763298,1.026615,18.792346,-3.221984,-10.006595,1.631262,-0.075576,0.421485,-0.853760,0.729736,-0.202393,0.190258,-0.007316,0.010278,0.999964,0.008156,-0.000378,0.002107,-0.423945,0.897881,-0.108842,0.047253
34884,NaN,16.861056,3.529277,1.142652,16.039006,-5.258204,-13.439944,1.906435,-0.272388,0.379309,-0.857666,0.723145,-0.210693,0.168527,0.035500,0.011994,0.999952,0.009532,-0.001362,0.001897,-0.432752,0.893650,-0.109304,0.046558
34885,NaN,15.061731,3.112255,1.434335,14.440565,-4.291488,-13.226074,1.912689,-0.391168,0.297191,-0.859863,0.725342,-0.221436,0.150542,0.031205,0.014936,0.999951,0.009563,-0.001956,0.001486,-0.443971,0.888140,-0.107594,0.050204
34886,NaN,13.421985,0.620382,1.163735,13.166596,-2.606677,-11.129624,1.807420,-0.390601,0.483047,-0.864258,0.725342,-0.230225,0.134181,0.006421,0.011957,0.999954,0.009037,-0.001953,0.002415,-0.452339,0.883918,-0.108209,0.048672
34887,NaN,14.996441,-6.032531,0.759265,15.573645,0.386560,-5.434234,1.378474,-0.271977,1.095499,-0.864258,0.729736,-0.238770,0.150282,-0.059554,0.007385,0.999960,0.006892,-0.001360,0.005477,-0.461178,0.878977,-0.110186,0.050722
34888,NaN,16.204463,-11.776760,-0.133958,17.507328,2.379985,-0.372644,0.269515,-0.209588,1.668972,-0.854004,0.742676,-0.239014,0.163021,-0.116408,-0.001327,0.999964,0.001348,-0.001048,0.008345,-0.462916,0.877451,-0.116763,0.046413
34889,NaN,15.679720,-10.295465,-1.357386,16.580051,0.472931,-0.949331,0.249579,-0.368414,1.973818,-0.841797,0.761719,-0.239014,0.157828,-0.101384,-0.013411,0.999949,0.001248,-0.001842,0.009869,-0.467060,0.874523,-0.122501,0.045367
34890,NaN,16.141861,-9.666726,-2.404127,16.871886,-1.053057,-1.210570,0.167003,-0.237627,2.514880,-0.831543,0.779053,-0.245850,0.162645,-0.094607,-0.023928,0.999920,0.000835,-0.001188,0.012574,-0.468500,0.872576,-0.132692,0.038874
34891,NaN,16.178859,-13.525614,-2.354774,17.776884,0.619380,1.754731,-0.116528,0.081160,3.144922,-0.813232,0.808838,-0.243896,0.163879,-0.132704,-0.023536,0.999876,-0.000583,0.000406,0.015724,-0.470968,0.869459,-0.144494,0.036757
34892,NaN,17.566949,-14.778741,-1.607183,19.847530,1.089995,1.781631,-0.910155,0.311580,3.457987,-0.788330,0.832520,-0.237793,0.178166,-0.144793,-0.015685,0.999839,-0.004551,0.001558,0.017289,-0.467378,0.868916,-0.160201,0.029633
34893,NaN,17.789817,-9.682146,-1.635854,18.959838,-2.022861,-2.792250,-2.074889,0.516105,3.698250,-0.754883,0.862305,-0.225098,0.179609,-0.093677,-0.015838,0.999772,-0.010374,0.002580,0.018490,-0.461014,0.869442,-0.175588,0.026543
34894,NaN,18.118130,-10.321576,-1.275441,19.715718,-1.873544,-3.168134,-2.632273,0.554937,4.091815,-0.732422,0.894531,-0.208496,0.183211,-0.099642,-0.011934,0.999700,-0.013160,0.002774,0.020457,-0.449521,0.871607,-0.194743,0.017536
34895,NaN,18.543151,-13.680704,-0.823301,21.463498,-0.356594,-1.398970,-2.783439,0.374394,4.348841,-0.697021,0.924316,-0.191650,0.188335,-0.132833,-0.006717,0.999665,-0.013916,0.001872,0.021742,-0.440044,0.872383,-0.212542,0.011659
34896,NaN,16.072109,-9.147474,1.278420,18.239229,-0.559540,-6.559019,-2.264121,0.198965,4.122449,-0.659180,0.947754,-0.172363,0.162572,-0.087985,0.013632,0.999723,-0.011320,0.000995,0.020610,-0.430106,0.872771,-0.230819,0.001381
34897,NaN,14.527649,-3.926827,2.450113,15.013048,-2.159052,-11.358098,-1.848542,0.131662,3.944428,-0.629639,0.964844,-0.172607,0.146026,-0.036165,0.024749,0.999763,-0.009242,0.000658,0.019721,-0.424762,0.871215,-0.246065,-0.003684
34898,NaN,13.533850,-2.237950,2.550908,13.293759,-2.861061,-12.934155,-1.194101,-0.040224,3.954476,-0.606689,0.988281,-0.159912,0.135739,-0.019545,0.025659,0.999787,-0.005970,-0.000201,0.019771,-0.419476,0.868757,-0.262911,-0.013391
34899,NaN,14.620364,1.875785,-0.318801,11.495787,-7.853124,-14.661334,0.185155,0.032020,4.767648,-0.549805,1.018311,-0.170654,0.145701,0.022238,-0.003192,0.999715,0.000926,0.000160,0.023836,-0.422895,0.861210,-0.281334,-0.018125
34900,NaN,10.726735,-3.110263,1.890629,10.900019,-2.312153,-11.845663,0.921550,0.500267,4.623273,-0.515625,1.026855,-0.187744,0.107996,-0.028697,0.018501,0.999719,0.004607,0.002501,0.023114,-0.425649,0.852636,-0.302084,-0.024105
34901,NaN,9.506184,-1.546824,-0.557311,8.409054,-4.507485,-11.237860,0.722126,0.052456,3.563285,-0.485840,1.043945,-0.205078,0.095316,-0.013751,-0.005650,0.999835,0.003610,0.000262,0.017815,-0.431332,0.845024,-0.315007,-0.025636
34902,NaN,10.512416,1.140324,-1.830140,7.245395,-7.286643,-12.904499,0.728069,0.220685,3.212392,-0.464600,1.052490,-0.211426,0.104902,0.013156,-0.018371,0.999864,0.003640,0.001103,0.016061,-0.433611,0.838393,-0.328892,-0.030133
34903,NaN,9.138647,2.316567,-1.890176,5.293389,-7.191435,-13.377976,0.259549,0.342522,2.792245,-0.437012,1.063232,-0.220215,0.091018,0.024463,-0.019027,0.999900,0.001298,0.001713,0.013961,-0.436880,0.832729,-0.338843,-0.029719
34904,NaN,7.717107,1.704594,-1.763874,4.410433,-6.176193,-12.635845,-0.254580,0.626363,2.385298,-0.417725,1.063232,-0.224365,0.076905,0.017942,-0.017902,0.999923,-0.001273,0.003132,0.011926,-0.434388,0.829367,-0.349868,-0.032395
34905,NaN,6.642254,1.129922,-0.680371,4.116055,-4.632740,-12.542751,-0.504757,0.845802,1.967339,-0.400879,1.075928,-0.228760,0.066278,0.011934,-0.007114,0.999939,-0.002524,0.004229,0.009836,-0.433668,0.826704,-0.357239,-0.029553
34906,NaN,5.592804,1.552233,0.278640,3.227746,-3.562722,-13.076750,-0.768433,1.050998,1.516950,-0.390137,1.078125,-0.224365,0.055822,0.015956,0.002432,0.999950,-0.003842,0.005255,0.007585,-0.428381,0.825876,-0.365443,-0.029510
34907,NaN,5.047544,1.202644,0.931638,3.183814,-2.706781,-13.026396,-0.786293,1.125331,1.181569,-0.388184,1.082275,-0.226562,0.050454,0.012360,0.008984,0.999959,-0.003931,0.005627,0.005908,-0.426077,0.825151,-0.370119,-0.024436
34908,NaN,4.523730,1.728697,0.962740,2.428163,-2.631842,-13.212147,-0.545623,1.200806,0.844364,-0.390381,1.082275,-0.226562,0.045220,0.017504,0.009308,0.999969,-0.002728,0.006004,0.004222,-0.421495,0.824977,-0.375863,-0.021928
34909,NaN,3.787940,2.763627,0.696906,1.168043,-2.794325,-13.459463,-0.114959,1.280365,0.499174,-0.379639,1.086670,-0.239502,0.037854,0.027735,0.006711,0.999976,-0.000575,0.006402,0.002496,-0.421723,0.823990,-0.378160,-0.013616
34910,NaN,3.785618,3.590234,0.231164,0.483982,-3.458192,-13.696058,0.084239,1.456457,0.033563,-0.381836,1.084473,-0.250244,0.037866,0.035908,0.002051,0.999973,0.000421,0.007282,0.000168,-0.419303,0.823933,-0.381140,-0.007160
34911,NaN,4.192542,4.030712,-0.877983,0.179745,-4.672111,-13.381105,0.123953,1.660079,-0.370947,-0.392334,1.080322,-0.256592,0.041925,0.040235,-0.009103,0.999964,0.000620,0.008300,-0.001855,-0.419765,0.823923,-0.380690,0.004898
34912,NaN,4.573601,4.268227,-1.377484,0.133234,-5.385872,-13.277809,0.101473,1.860310,-0.674712,-0.402832,1.073975,-0.271484,0.045749,0.042535,-0.014179,0.999951,0.000507,0.009301,-0.003374,-0.416597,0.825012,-0.381564,0.014541
34913,NaN,4.369417,3.315946,-2.244559,0.293419,-5.534714,-11.911559,-0.130291,2.071747,-0.927372,-0.415771,1.071777,-0.284424,0.043611,0.032942,-0.022919,0.999935,-0.000651,0.010359,-0.004637,-0.415034,0.826282,-0.379696,0.028899
34914,NaN,4.200994,1.345720,-2.884971,1.105620,-5.151837,-9.944235,-0.215122,2.234859,-1.202852,-0.426270,1.065430,-0.288574,0.041764,0.013174,-0.029332,0.999919,-0.001076,0.011174,-0.006014,-0.409679,0.828721,-0.379127,0.040591
34915,NaN,3.889724,0.395994,-3.236553,1.270125,-4.816024,-8.836354,-0.330502,2.307735,-1.556495,-0.445312,1.059082,-0.299316,0.038549,0.003605,-0.032818,0.999902,-0.001652,0.011538,-0.007782,-0.406485,0.831148,-0.375150,0.056790
34916,NaN,3.932084,0.001362,-4.252349,1.075152,-5.301624,-7.744318,-0.564787,2.373181,-1.973166,-0.466309,1.048340,-0.312256,0.038809,-0.000492,-0.042985,0.999877,-0.002824,0.011865,-0.009865,-0.399050,0.835313,-0.371639,0.069971
34917,NaN,4.074020,0.212943,-5.041929,0.657497,-5.911085,-7.226690,-0.837029,2.334901,-2.335347,-0.494141,1.040039,-0.314453,0.040167,0.001446,-0.050897,0.999855,-0.004185,0.011674,-0.011676,-0.393113,0.839644,-0.364574,0.086874
34918,NaN,4.277056,0.690172,-6.347339,-0.061754,-6.937635,-6.508432,-1.304508,2.306697,-2.663692,-0.517334,1.031494,-0.314453,0.042118,0.005922,-0.064002,0.999824,-0.006522,0.011533,-0.013318,-0.382169,0.845995,-0.358167,0.099774
34919,NaN,3.879523,0.406557,-6.941306,-0.526832,-6.749610,-5.622849,-1.981129,2.328814,-3.089704,-0.547119,1.020752,-0.303711,0.038033,0.002783,-0.069891,0.999764,-0.009905,0.011643,-0.015447,-0.370591,0.853150,-0.348336,0.116019
34920,NaN,3.991601,0.967531,-8.966224,-1.672206,-8.011217,-4.310680,-2.395265,2.405234,-3.400610,-0.585449,1.007812,-0.295166,0.038978,0.007929,-0.090237,0.999711,-0.011975,0.012025,-0.017001,-0.354063,0.861940,-0.339299,0.128745
34921,NaN,4.740383,0.212942,-10.466851,-1.567923,-8.653095,-2.415454,-1.645225,2.768234,-3.643303,-0.621094,0.980225,-0.303467,0.045967,0.000419,-0.105320,0.999704,-0.008225,0.013840,-0.018215,-0.342234,0.868128,-0.327445,0.148358
34922,NaN,5.131523,2.311116,-5.812555,-0.089846,-7.539944,-6.881706,-1.536914,3.010325,-3.667373,-0.650635,0.965332,-0.316162,0.050838,0.021724,-0.059064,0.999689,-0.007684,0.015050,-0.018335,-0.327757,0.874316,-0.317420,0.165501
34923,NaN,4.679745,2.900932,-7.554085,-1.632389,-8.263539,-5.760661,-1.377712,2.927047,-3.599736,-0.675781,0.943848,-0.326660,0.046189,0.027650,-0.076413,0.999707,-0.006888,0.014634,-0.017997,-0.316218,0.878649,-0.305588,0.186008
34924,NaN,5.293421,-0.198565,-7.245238,0.181292,-6.422889,-3.547353,-0.953161,3.051459,-3.747253,-0.707031,0.916016,-0.341553,0.051767,-0.003311,-0.073235,0.999697,-0.004765,0.015256,-0.018734,-0.303728,0.882819,-0.294431,0.204181
34925,NaN,5.828140,-1.874767,-6.174421,1.599108,-4.985858,-2.871846,-0.791901,3.006210,-3.942612,-0.744873,0.892578,-0.356201,0.056958,-0.020126,-0.062529,0.999685,-0.003959,0.015029,-0.019711,-0.293687,0.885400,-0.280425,0.226222
34926,NaN,6.148257,-1.059920,-6.638887,1.103206,-5.629248,-2.735989,-0.617360,2.833438,-4.152121,-0.775635,0.852051,-0.381592,0.060294,-0.012066,-0.067213,0.999679,-0.003086,0.014166,-0.020758,-0.282120,0.888665,-0.266485,0.244273
