// Start Time: Unknown
// Update Rate: 100.0Hz
// Filter Profile: human (46.1)
// Firmware Version: 4.4.0
PacketCounter,SampleTimeFine,Acc_X,Acc_Y,Acc_Z,FreeAcc_X,FreeAcc_Y,FreeAcc_Z,Gyr_X,Gyr_Y,Gyr_Z,Mag_X,Mag_Y,Mag_Z,VelInc_X,VelInc_Y,VelInc_Z,OriInc_q0,OriInc_q1,OriInc_q2,OriInc_q3,Quat_q0,Quat_q1,Quat_q2,Quat_q3
08891,NaN,7.022543,1.611677,-0.016948,0.000000,0.000000,-2.607560,-1.000734,0.077437,0.088231,-0.860352,-0.181152,-0.437988,0.070218,0.016147,-0.000277,0.999987,-0.005004,0.000387,0.000441,0.698713,0.059966,-0.705924,-0.099373
08892,NaN,6.899916,1.325451,-0.120152,0.000000,0.000000,-2.785592,-1.022052,0.079305,0.177739,-0.856445,-0.172607,-0.440186,0.068987,0.013309,-0.001297,0.999986,-0.005110,0.000397,0.000889,0.697244,0.066536,-0.710493,-0.067993
08893,NaN,6.609597,1.089329,-0.330248,0.243284,-0.306649,-3.117225,-1.041931,0.042904,0.273727,-0.854492,-0.166016,-0.444580,0.066080,0.010966,-0.003374,0.999985,-0.005210,0.000215,0.001369,0.697983,0.056404,-0.708324,-0.088966
08894,NaN,6.220182,0.774498,-0.234846,0.151763,-0.513268,-3.562956,-0.982758,-0.048853,0.362740,-0.863037,-0.161865,-0.438232,0.062188,0.007846,-0.002372,0.999986,-0.004914,-0.000244,0.001814,0.698239,0.051667,-0.708150,-0.091193
08895,NaN,6.054105,0.457373,-0.158189,0.059643,-0.764119,-3.787831,-0.931103,-0.162106,0.472242,-0.861328,-0.151123,-0.444580,0.060531,0.004709,-0.001555,0.999986,-0.004655,-0.000811,0.002361,0.697956,0.046947,-0.708541,-0.092859
08896,NaN,6.139439,0.369736,-0.142280,0.029598,-0.833796,-3.717324,-0.889224,-0.252384,0.603833,-0.863770,-0.140381,-0.442627,0.061385,0.003877,-0.001362,0.999985,-0.004446,-0.001262,0.003019,0.697540,0.041587,-0.709140,-0.093959
08897,NaN,6.070476,0.420331,0.108408,-0.225691,-0.700301,-3.771366,-0.856448,-0.317456,0.728608,-0.868408,-0.129639,-0.438477,0.060687,0.004429,0.001162,0.999983,-0.004282,-0.001587,0.003643,0.696981,0.035618,-0.710077,-0.093489
08898,NaN,5.942012,0.594345,0.430302,-0.541425,-0.428571,-3.865518,-0.835708,-0.370550,0.860087,-0.875000,-0.121094,-0.440430,0.059386,0.006217,0.004387,0.999980,-0.004179,-0.001853,0.004300,0.696202,0.029478,-0.711116,-0.093523
08899,NaN,6.134974,0.836377,0.900733,-1.002679,-0.103818,-3.637561,-0.842506,-0.420892,0.984497,-0.873047,-0.110352,-0.440674,0.061288,0.008704,0.009100,0.999977,-0.004212,-0.002104,0.004922,0.695617,0.022880,-0.712231,-0.091218
08900,NaN,6.499201,1.139921,1.489200,-1.580519,0.273088,-3.241273,-0.878892,-0.399013,1.101224,-0.875488,-0.099609,-0.434326,0.064898,0.011822,0.014970,0.999973,-0.004394,-0.001995,0.005506,0.694780,0.015719,-0.713325,-0.090560
08901,NaN,6.701579,1.590787,1.924281,-1.961512,0.827122,-2.985382,-0.964858,-0.294955,1.193111,-0.878174,-0.082520,-0.440918,0.066891,0.016400,0.019263,0.999969,-0.004824,-0.001475,0.005965,0.695213,0.008710,-0.713285,-0.088470
08902,NaN,7.399146,2.478620,1.978587,-1.923103,1.720069,-2.187231,-1.069981,-0.172659,1.239515,-0.878662,-0.065430,-0.436768,0.073818,0.025350,0.019715,0.999966,-0.005350,-0.000863,0.006198,0.695169,0.000494,-0.713442,-0.087982
08903,NaN,8.666379,3.278498,1.859865,-1.667937,2.435753,-0.835088,-1.179440,-0.083924,1.213446,-0.881348,-0.050293,-0.443115,0.086455,0.033419,0.018439,0.999964,-0.005897,-0.000420,0.006067,0.696682,-0.008299,-0.711644,-0.090160
08904,NaN,10.262366,3.490529,1.720262,-1.494615,2.573668,0.751392,-1.196029,-0.063221,1.146938,-0.877441,-0.039551,-0.441162,0.102415,0.035595,0.017024,0.999966,-0.005980,-0.000316,0.005735,0.696900,-0.016574,-0.711253,-0.090414
08905,NaN,11.708966,3.569807,2.207270,-1.848136,2.614710,2.206509,-1.150611,-0.057760,1.048671,-0.888428,-0.028809,-0.445312,0.116894,0.036438,0.021898,0.999970,-0.005753,-0.000289,0.005243,0.698192,-0.026209,-0.708403,-0.100033
08906,NaN,12.510555,3.499663,3.600048,-3.178921,2.856294,2.972292,-1.253657,0.079895,0.881257,-0.880371,-0.011719,-0.443359,0.124963,0.035772,0.035728,0.999971,-0.006268,0.000399,0.004406,0.698730,-0.033666,-0.707361,-0.101405
08907,NaN,12.956144,3.353139,5.047587,-4.366490,2.973053,3.479233,-1.432197,0.356013,0.686538,-0.885010,0.000977,-0.449951,0.129534,0.034335,0.050001,0.999967,-0.007161,0.001780,0.003433,0.701321,-0.044361,-0.701381,-0.119355
08908,NaN,13.183706,2.941940,4.839257,-4.121978,2.612756,3.680415,-1.338413,0.656157,0.408622,-0.881104,0.009766,-0.456299,0.131934,0.030010,0.047760,0.999970,-0.006692,0.003281,0.002043,0.703548,-0.050094,-0.698170,-0.122757
08909,NaN,13.401035,2.415290,3.801966,-2.903324,1.686155,3.920565,-0.844201,0.824876,0.095784,-0.876709,0.003174,-0.466797,0.134154,0.024376,0.037364,0.999982,-0.004221,0.004124,0.000479,0.707944,-0.057914,-0.688805,-0.144947
08910,NaN,12.269725,0.944950,2.405660,-1.873181,0.011085,2.585546,-0.326484,0.900251,-0.213757,-0.872559,0.005371,-0.471191,0.122814,0.009357,0.023489,0.999988,-0.001632,0.004501,-0.001069,0.710786,-0.057681,-0.685435,-0.147087
08911,NaN,11.087445,0.125925,1.975578,-1.539633,-0.958793,1.303052,0.074189,0.762777,-0.409310,-0.868164,0.005371,-0.473145,0.110951,0.001025,0.019333,0.999991,0.000371,0.003814,-0.002047,0.714966,-0.059537,-0.676793,-0.165015
08912,NaN,10.235296,0.233719,2.371296,-1.855345,-0.673407,0.509264,0.226458,0.534144,-0.459897,-0.865967,0.001221,-0.479492,0.102421,0.002075,0.023442,0.999993,0.001132,0.002671,-0.002299,0.716456,-0.056731,-0.675203,-0.166050
08913,NaN,9.746794,1.155061,2.915878,-1.972201,0.307517,0.229826,0.097387,0.286010,-0.480868,-0.863770,-0.003174,-0.483887,0.097537,0.011302,0.029025,0.999996,0.000487,0.001430,-0.002404,0.719200,-0.057277,-0.669585,-0.176427
08914,NaN,10.111386,2.384142,3.585684,-2.175055,1.541979,0.849043,-0.057117,0.221729,-0.543507,-0.863525,-0.011719,-0.488037,0.101218,0.023577,0.035738,0.999996,-0.000286,0.001109,-0.002718,0.719444,-0.055467,-0.668890,-0.178635
08915,NaN,10.404733,3.403117,3.934615,-1.986337,2.406381,1.393749,-0.031936,0.283102,-0.576127,-0.865723,-0.013916,-0.485840,0.104200,0.033737,0.039193,0.999995,-0.000160,0.001416,-0.002881,0.721977,-0.056621,-0.662823,-0.190284
08916,NaN,10.342461,4.705666,2.362158,-0.067998,3.027348,1.390872,0.440796,0.197299,-0.491265,-0.863525,-0.015869,-0.485840,0.103563,0.046750,0.023623,0.999994,0.002204,0.000986,-0.002456,0.722284,-0.053213,-0.662665,-0.190651
08917,NaN,9.994440,4.699773,0.618248,1.630456,2.324337,0.878303,1.060294,-0.279732,-0.422095,-0.863037,-0.026611,-0.487793,0.100034,0.046753,0.006571,0.999983,0.005301,-0.001399,-0.002110,0.722506,-0.051324,-0.660096,-0.199057
08918,NaN,9.967757,3.456168,1.199961,0.535301,1.373478,0.702388,1.226823,-0.769693,-0.350418,-0.862793,-0.035156,-0.475098,0.099690,0.034311,0.012594,0.999972,0.006134,-0.003848,-0.001752,0.719912,-0.046501,-0.664169,-0.196071
08919,NaN,9.926286,1.763135,1.908873,-0.784056,-0.041583,0.417933,1.078075,-1.106859,-0.165184,-0.871094,-0.041748,-0.464355,0.099169,0.017444,0.019732,0.999970,0.005390,-0.005534,-0.000826,0.716182,-0.047454,-0.665349,-0.205286
08920,NaN,10.454460,0.381430,1.770474,-1.267777,-1.442242,0.622195,0.821077,-1.312420,0.005031,-0.875244,-0.046143,-0.449463,0.104425,0.003742,0.018406,0.999970,0.004105,-0.006562,0.000025,0.711994,-0.045877,-0.670870,-0.202219
08921,NaN,11.324147,-0.813868,1.230586,-1.292595,-2.926429,1.149794,0.556010,-1.474688,0.147783,-0.885742,-0.041748,-0.441162,0.113153,-0.008091,0.013118,0.999969,0.002780,-0.007373,0.000739,0.707772,-0.047783,-0.673981,-0.206216
08922,NaN,12.440205,-1.820671,1.567501,-2.110014,-3.896917,2.057009,0.189081,-1.459439,0.310113,-0.887939,-0.039795,-0.424316,0.124311,-0.018029,0.016565,0.999972,0.000945,-0.007297,0.001551,0.703199,-0.049662,-0.679248,-0.204127
08923,NaN,13.219834,-2.596718,2.437324,-3.262326,-4.353003,2.751304,-0.136303,-1.114755,0.439839,-0.894287,-0.037598,-0.424072,0.132116,-0.025660,0.025127,0.999982,-0.000682,-0.005574,0.002199,0.701740,-0.052170,-0.681892,-0.199656
08924,NaN,13.499824,-2.898108,1.380567,-2.492890,-4.950696,2.908348,-0.190990,-0.915712,0.357639,-0.900879,-0.029053,-0.415771,0.134985,-0.028726,0.014451,0.999987,-0.000955,-0.004579,0.001788,0.698916,-0.054973,-0.684813,-0.198811
08925,NaN,13.255964,-2.366609,0.203862,-1.155217,-4.672635,2.764808,-0.191015,-0.983785,0.102629,-0.898926,-0.029053,-0.411621,0.132560,-0.023596,0.002713,0.999987,-0.000955,-0.004919,0.000513,0.699321,-0.056331,-0.686214,-0.192059
08926,NaN,10.379880,-1.863404,0.120240,-0.972245,-3.645212,0.035906,0.041391,-1.061690,-0.116254,-0.900879,-0.029053,-0.398926,0.103780,-0.018695,0.001749,0.999986,0.000207,-0.005308,-0.000581,0.695569,-0.056806,-0.689989,-0.192021
08927,NaN,7.901737,-1.119836,-0.186496,-0.363053,-2.521612,-2.247281,0.551252,-1.081911,-0.258918,-0.902832,-0.037598,-0.394531,0.079011,-0.011296,-0.001469,0.999981,0.002756,-0.005410,-0.001295,0.695415,-0.052810,-0.693275,-0.181603
08928,NaN,6.084503,-1.199794,-0.344293,-0.249884,-2.315435,-4.054613,1.342985,-0.866988,-0.219542,-0.906982,-0.039795,-0.381836,0.060846,-0.012042,-0.003260,0.999967,0.006715,-0.004335,-0.001098,0.692542,-0.048165,-0.697544,-0.177476
08929,NaN,5.754419,-1.995611,0.995490,-1.709999,-2.575501,-4.471389,1.773317,-0.516760,-0.015737,-0.908691,-0.046387,-0.375488,0.057517,-0.020049,0.009926,0.999957,0.008866,-0.002584,-0.000079,0.694069,-0.039741,-0.700017,-0.163293
08930,NaN,6.843376,-2.292675,3.329439,-4.059793,-2.408309,-3.418057,1.650854,-0.170126,0.316654,-0.913086,-0.046387,-0.377441,0.068442,-0.023092,0.033162,0.999964,0.008254,-0.000851,0.001583,0.694036,-0.035258,-0.701867,-0.156376
08931,NaN,8.548979,-1.819978,3.300597,-3.792168,-2.314944,-1.593715,1.473421,0.338233,0.612382,-0.908936,-0.046143,-0.385986,0.085601,-0.018180,0.032727,0.999967,0.007367,0.001691,0.003062,0.700742,-0.025023,-0.700324,-0.133721
08932,NaN,9.165060,-0.465410,0.214900,-0.417005,-1.772431,-0.815760,1.459428,0.846305,0.802143,-0.906738,-0.044189,-0.390381,0.091676,-0.004300,0.001729,0.999956,0.007297,0.004231,0.004011,0.704395,-0.022152,-0.698202,-0.125901
08933,NaN,9.815591,1.348558,-4.017737,4.310928,-0.598275,-0.047321,1.456946,0.759467,0.904619,-0.904785,-0.041992,-0.392334,0.097939,0.014223,-0.040448,0.999956,0.007285,0.003797,0.004523,0.713380,-0.007214,-0.693938,-0.097401
08934,NaN,10.198943,2.211513,-5.834014,6.287593,0.087601,0.355949,1.223199,0.183485,0.891377,-0.905029,-0.035400,-0.390381,0.101835,0.022926,-0.058295,0.999971,0.006116,0.000917,0.004457,0.714475,-0.005856,-0.693826,-0.089981
08935,NaN,10.352240,0.928641,-5.241639,5.602413,-0.618583,0.372347,0.631825,-0.553240,0.762221,-0.911377,-0.033447,-0.385986,0.103630,0.009846,-0.052099,0.999984,0.003159,-0.002766,0.003811,0.716430,0.004306,-0.694547,-0.065679
08936,NaN,9.900069,0.011914,-3.037117,3.254144,-1.203270,-0.055771,-0.011175,-0.759031,0.657179,-0.909180,-0.029053,-0.377686,0.099114,0.000443,-0.029995,0.999987,-0.000056,-0.003795,0.003286,0.714003,0.001733,-0.697266,-0.063379
08937,NaN,9.303930,-0.341884,-1.617407,1.777563,-1.205074,-0.610320,-0.476286,-0.581294,0.633676,-0.916016,-0.018311,-0.379883,0.093096,-0.003162,-0.015896,0.999988,-0.002381,-0.002906,0.003168,0.713259,0.002663,-0.698955,-0.052123
08938,NaN,8.253932,-1.422629,-0.045467,0.071667,-2.030771,-1.687190,-0.555318,-0.387545,0.750686,-0.920410,-0.009766,-0.375732,0.082593,-0.013917,-0.000256,0.999987,-0.002777,-0.001938,0.003753,0.712100,-0.002043,-0.700192,-0.051391
08939,NaN,8.079319,-1.899858,-0.169790,0.246763,-2.369994,-1.860622,-0.554739,-0.154817,0.972736,-0.916504,-0.003418,-0.382080,0.080886,-0.018610,-0.001583,0.999984,-0.002774,-0.000774,0.004864,0.713752,0.002934,-0.699553,-0.034277
08940,NaN,8.885184,-0.378628,-1.108239,1.256822,-0.849149,-0.979987,-0.313428,-0.062075,1.128645,-0.916992,0.013672,-0.373779,0.088875,-0.003302,-0.011049,0.999983,-0.001567,-0.000310,0.005643,0.713723,-0.002144,-0.699723,-0.031345
08941,NaN,9.860277,0.052249,-1.489581,1.692316,-0.257496,0.011535,-0.017905,0.149038,1.134763,-0.919189,0.020264,-0.380127,0.098587,0.001081,-0.014969,0.999984,-0.000090,0.000745,0.005674,0.714591,0.005913,-0.699424,-0.011434
08942,NaN,10.083691,-0.276367,-1.383313,1.604624,-0.480833,0.230407,0.053123,0.160585,1.066722,-0.917480,0.030762,-0.378174,0.100839,-0.002222,-0.013915,0.999985,0.000266,0.000803,0.005334,0.715204,0.002380,-0.698872,-0.007431
08943,NaN,9.890007,-1.105055,-1.486628,1.718970,-1.119197,0.037957,0.015164,-0.098291,0.964042,-0.917480,0.035156,-0.374023,0.098959,-0.010573,-0.014818,0.999988,0.000076,-0.000491,0.004820,0.714387,0.006901,-0.699682,0.007044
08944,NaN,9.655694,-1.552239,-1.303078,1.512907,-1.481714,-0.176568,-0.009470,-0.420844,0.850201,-0.917725,0.043701,-0.375977,0.096649,-0.015112,-0.012827,0.999989,-0.000047,-0.002104,0.004251,0.712879,0.003906,-0.701204,0.010033
08945,NaN,9.319757,-1.631778,-0.636480,0.771105,-1.456319,-0.474087,0.121304,-0.565079,0.835766,-0.920166,0.054443,-0.369873,0.093282,-0.015924,-0.006111,0.999987,0.000607,-0.002825,0.004179,0.709101,0.004765,-0.704829,0.019208
08946,NaN,9.134014,-0.870645,-0.563501,0.617933,-0.626867,-0.662262,0.023176,-0.562160,0.816320,-0.920410,0.058594,-0.363525,0.091390,-0.008333,-0.005379,0.999988,0.000116,-0.002811,0.004082,0.707035,0.002023,-0.706828,0.022170
08947,NaN,9.156507,-0.284134,-1.304864,1.262094,0.113907,-0.646521,-0.165920,-0.536496,0.736967,-0.924805,0.062988,-0.363525,0.091609,-0.002515,-0.012801,0.999989,-0.000830,-0.002682,0.003685,0.703949,0.003203,-0.709543,0.031523
08948,NaN,8.981205,-0.072260,-0.755070,0.652320,0.348887,-0.829942,-0.084671,-0.537801,0.612539,-0.922852,0.071533,-0.353027,0.089834,-0.000451,-0.007309,0.999992,-0.000423,-0.002689,0.003063,0.701942,0.000815,-0.711451,0.033370
08949,NaN,8.744328,-0.327292,-0.372597,0.197065,0.144623,-1.057743,0.114050,-0.584340,0.565928,-0.925049,0.075928,-0.355225,0.087462,-0.003023,-0.003472,0.999992,0.000570,-0.002922,0.002830,0.698036,0.003793,-0.714799,0.042346
08950,NaN,8.857753,-0.079073,-0.834182,0.587324,0.475064,-0.947537,0.011784,-0.514988,0.558333,-0.931396,0.077881,-0.344482,0.088600,-0.000543,-0.008114,0.999993,0.000059,-0.002575,0.002792,0.696074,0.001947,-0.716597,0.044327
08951,NaN,9.119471,-0.081980,-1.055232,0.706948,0.582544,-0.677841,-0.068352,-0.580567,0.541634,-0.933838,0.084229,-0.342529,0.091227,-0.000576,-0.010287,0.999992,-0.000342,-0.002903,0.002708,0.692245,0.004567,-0.719752,0.052289
08952,NaN,9.430899,-0.321026,-0.556790,0.162193,0.370349,-0.368586,0.003782,-0.505704,0.538083,-0.929688,0.088623,-0.336182,0.094331,-0.002956,-0.005329,0.999993,0.000019,-0.002529,0.002690,0.690282,0.002775,-0.721506,0.054153
08953,NaN,9.544548,-0.092815,-0.390135,-0.110986,0.656882,-0.282993,-0.017977,-0.406687,0.522510,-0.938232,0.097168,-0.334229,0.095455,-0.000679,-0.003707,0.999995,-0.000090,-0.002033,0.002613,0.687226,0.004296,-0.723899,0.060588
08954,NaN,9.638591,-0.252184,-0.392424,-0.140669,0.551614,-0.179636,-0.109511,-0.357104,0.506047,-0.934082,0.097168,-0.327881,0.096399,-0.002280,-0.003751,0.999995,-0.000548,-0.001786,0.002530,0.685782,0.002196,-0.725165,0.061923
08955,NaN,9.697437,-0.451823,-0.410449,-0.171558,0.419032,-0.106630,-0.393633,-0.364472,0.531645,-0.932129,0.105713,-0.334229,0.096993,-0.004268,-0.003919,0.999993,-0.001968,-0.001822,0.002658,0.683329,0.001022,-0.727186,0.065268
08956,NaN,9.481148,-0.777126,-0.881056,0.295010,0.167956,-0.265083,-0.487506,-0.420013,0.549381,-0.936768,0.114258,-0.327881,0.094851,-0.007532,-0.008593,0.999991,-0.002438,-0.002100,0.002747,0.681622,-0.002504,-0.728774,0.065370
08957,NaN,9.118149,-0.616926,-1.190358,0.549897,0.387734,-0.621110,-0.331967,-0.476182,0.569825,-0.932617,0.118652,-0.319580,0.091227,-0.005929,-0.011676,0.999992,-0.001660,-0.002381,0.002849,0.678775,-0.000545,-0.730827,0.071802
08958,NaN,9.068321,-0.518294,-0.767593,0.073533,0.481815,-0.710253,-0.173865,-0.508091,0.587531,-0.938965,0.125000,-0.313232,0.090717,-0.004923,-0.007441,0.999992,-0.000869,-0.002540,0.002938,0.676704,-0.003100,-0.732604,0.073162
08959,NaN,9.253830,-0.376929,-0.180216,-0.607055,0.635419,-0.591236,-0.035695,-0.572310,0.585429,-0.935059,0.129150,-0.315430,0.092553,-0.003499,-0.001537,0.999992,-0.000178,-0.002862,0.002927,0.673763,-0.003624,-0.734892,0.077227
08960,NaN,9.341522,-0.189098,0.106600,-0.976235,0.847494,-0.558532,0.087779,-0.576385,0.584604,-0.939209,0.129150,-0.313232,0.093417,-0.001618,0.001334,0.999991,0.000439,-0.002882,0.002923,0.671418,-0.005253,-0.736780,0.079529
08961,NaN,9.352597,0.071701,0.398281,-1.373845,1.116329,-0.620262,0.180332,-0.581783,0.619397,-0.935303,0.137695,-0.304932,0.093511,0.001003,0.004256,0.999991,0.000902,-0.002909,0.003097,0.668138,-0.003069,-0.739023,0.086181
08962,NaN,9.505171,0.183473,0.192469,-1.258554,1.320492,-0.480442,0.294913,-0.554180,0.629526,-0.939453,0.139893,-0.298584,0.095039,0.002131,0.002191,0.999990,0.001475,-0.002771,0.003148,0.665820,-0.004170,-0.740728,0.089381
08963,NaN,9.641399,0.516299,0.335163,-1.523283,1.695805,-0.424462,0.323374,-0.546365,0.639161,-0.935547,0.150635,-0.296387,0.096387,0.005465,0.003624,0.999990,0.001617,-0.002732,0.003196,0.663141,-0.003833,-0.742531,0.094217
08964,NaN,9.466439,0.546686,0.334759,-1.562799,1.755585,-0.620329,0.224647,-0.500926,0.666743,-0.939697,0.150635,-0.292236,0.094637,0.005778,0.003591,0.999991,0.001123,-0.002505,0.003334,0.660969,-0.005327,-0.744064,0.097270
08965,NaN,9.706669,0.380315,0.440402,-1.732257,1.663165,-0.389812,0.093480,-0.511029,0.714250,-0.944092,0.156982,-0.290283,0.097041,0.004148,0.004654,0.999990,0.000467,-0.002555,0.003571,0.658763,-0.006826,-0.745594,0.100370
08966,NaN,9.828620,0.191637,0.560744,-1.898806,1.540626,-0.274694,-0.054901,-0.468410,0.734148,-0.940186,0.165527,-0.286133,0.098265,0.002279,0.005837,0.999990,-0.000275,-0.002342,0.003671,0.656643,-0.009508,-0.747130,0.102598
08967,NaN,9.718437,0.203959,0.342463,-1.717832,1.624846,-0.377900,-0.105246,-0.463091,0.746205,-0.938232,0.169922,-0.279785,0.097168,0.002404,0.003648,0.999990,-0.000526,-0.002315,0.003731,0.654742,-0.012205,-0.748513,0.104360
08968,NaN,9.687341,0.711104,-0.057116,-1.428982,2.236290,-0.468706,-0.126892,-0.393983,0.740397,-0.936279,0.176270,-0.279785,0.096847,0.007469,-0.000385,0.999991,-0.000634,-0.001970,0.003702,0.652871,-0.015185,-0.749815,0.106332
08969,NaN,9.645597,1.256393,-0.239713,-1.334093,2.843063,-0.603441,-0.163014,-0.342567,0.722124,-0.936523,0.184814,-0.275635,0.096414,0.012910,-0.002242,0.999992,-0.000815,-0.001713,0.003611,0.651625,-0.018540,-0.750716,0.107083
08970,NaN,9.887608,1.607501,-0.244528,-1.441056,3.287141,-0.457140,-0.175055,-0.333996,0.667107,-0.934570,0.193359,-0.269287,0.098826,0.016403,-0.002294,0.999993,-0.000875,-0.001670,0.003336,0.649996,-0.021435,-0.751828,0.108629
08971,NaN,10.006010,1.839057,-0.302394,-1.437342,3.584977,-0.395923,-0.220902,-0.285067,0.593600,-0.936768,0.197754,-0.271484,0.100009,0.018684,-0.002902,0.999994,-0.001105,-0.001425,0.002968,0.649197,-0.024856,-0.752499,0.108034
08972,NaN,10.145688,1.840095,-0.714501,-1.082554,3.712632,-0.227510,-0.314455,-0.298675,0.511489,-0.936768,0.197754,-0.265137,0.101420,0.018649,-0.007023,0.999994,-0.001572,-0.001493,0.002557,0.647757,-0.027639,-0.753567,0.108547
08973,NaN,10.238117,1.539714,-0.850903,-0.925758,3.477572,-0.067787,-0.423704,-0.296903,0.411316,-0.943359,0.208496,-0.263184,0.102362,0.015590,-0.008390,0.999995,-0.002119,-0.001485,0.002057,0.647224,-0.032033,-0.754292,0.105445
08974,NaN,10.418048,1.659869,-0.689259,-1.148676,3.638784,0.046606,-0.511188,-0.286811,0.314653,-0.935059,0.208496,-0.260986,0.104164,0.016745,-0.006786,0.999994,-0.002556,-0.001434,0.001573,0.645894,-0.034722,-0.755432,0.104580
08975,NaN,10.508212,2.140536,-0.463685,-1.401019,4.104382,0.006200,-0.589369,-0.279737,0.222681,-0.939453,0.214844,-0.263184,0.105065,0.021509,-0.004553,0.999994,-0.002947,-0.001399,0.001113,0.645573,-0.039159,-0.756146,0.099730
08976,NaN,10.485544,2.509067,-0.375244,-1.522535,4.465032,-0.110718,-0.746295,-0.251451,0.132368,-0.937256,0.212646,-0.252441,0.104843,0.025146,-0.003714,0.999992,-0.003731,-0.001257,0.000662,0.644409,-0.041942,-0.757294,0.097383
08977,NaN,10.480310,2.138974,0.482361,-2.301151,4.018496,-0.158612,-0.873854,-0.254334,0.047014,-0.932861,0.210449,-0.254639,0.104792,0.021436,0.004863,0.999990,-0.004369,-0.001272,0.000235,0.644297,-0.046910,-0.757977,0.090286
08978,NaN,10.714333,1.865830,0.718876,-2.567017,3.782433,0.081688,-1.044387,-0.232076,-0.031913,-0.933105,0.217041,-0.250488,0.107138,0.018679,0.007216,0.999986,-0.005222,-0.001160,-0.000160,0.643181,-0.050047,-0.759190,0.086278
08979,NaN,10.908548,0.896920,0.655316,-2.465092,2.858008,0.482235,-1.192725,-0.190937,-0.092176,-0.939453,0.217041,-0.252686,0.109083,0.008958,0.006604,0.999982,-0.005964,-0.000955,-0.000461,0.643349,-0.055726,-0.759640,0.077095
08980,NaN,11.332849,-0.158881,0.488429,-2.377786,1.899147,1.116015,-1.203986,-0.296911,-0.149747,-0.941406,0.214844,-0.241943,0.113320,-0.001644,0.005062,0.999980,-0.006020,-0.001485,-0.000749,0.641935,-0.058913,-0.761083,0.072121
08981,NaN,12.224707,-1.178712,-0.509132,-1.545700,1.039074,2.337331,-0.846946,-0.258718,-0.225503,-0.935059,0.216797,-0.241943,0.122240,-0.011946,-0.004883,0.999990,-0.004235,-0.001294,-0.001128,0.641969,-0.062996,-0.761470,0.063805
08982,NaN,12.176224,-1.590770,-1.468903,-0.620839,0.603822,2.524187,0.033298,-0.057907,-0.340056,-0.939453,0.214844,-0.244141,0.121739,-0.016112,-0.014656,0.999998,0.000166,-0.000290,-0.001700,0.641871,-0.061574,-0.761748,0.062858
08983,NaN,11.480233,-0.576283,-0.286393,-1.623112,1.390024,1.485233,0.725133,-0.018344,-0.459652,-0.934814,0.206299,-0.244141,0.114789,-0.006016,-0.002875,0.999991,0.003626,-0.000092,-0.002298,0.643294,-0.059732,-0.760930,0.059925
08984,NaN,10.614568,0.134648,0.032782,-1.779380,1.885529,0.481317,1.150561,0.111676,-0.572845,-0.936768,0.199707,-0.250244,0.106149,0.001041,0.000275,0.999979,0.005753,0.000558,-0.002864,0.644225,-0.053882,-0.760377,0.062425
08985,NaN,9.559219,0.861713,-1.286215,-0.255297,2.383049,-0.430188,1.375330,0.198751,-0.649542,-0.934326,0.189209,-0.256592,0.095607,0.008395,-0.012899,0.999971,0.006877,0.000994,-0.003248,0.646670,-0.049251,-0.758703,0.061326
08986,NaN,9.839239,1.465298,-2.076452,0.476840,3.003322,-0.116198,1.247866,0.107893,-0.695917,-0.938477,0.184814,-0.260742,0.098432,0.014440,-0.020727,0.999974,0.006239,0.000539,-0.003480,0.647588,-0.042607,-0.758120,0.063781
08987,NaN,10.079756,1.876803,-3.141989,1.524656,3.401362,0.242261,1.361943,0.156289,-0.790385,-0.935791,0.167725,-0.262695,0.100847,0.018583,-0.031372,0.999969,0.006810,0.000781,-0.003952,0.649771,-0.037521,-0.756666,0.062023
08988,NaN,10.961789,1.331150,-3.361262,1.621377,2.953759,1.227110,1.988401,0.359910,-1.003887,-0.931396,0.159180,-0.271240,0.109623,0.013096,-0.033679,0.999936,0.009942,0.001800,-0.005019,0.651780,-0.027370,-0.755016,0.066211
08989,NaN,11.886565,0.615538,-2.355247,0.610173,2.179654,2.107544,2.547929,0.780771,-1.360342,-0.937012,0.135498,-0.279541,0.118812,0.005650,-0.023942,0.999888,0.012739,0.003904,-0.006801,0.656394,-0.016443,-0.751275,0.066803
08990,NaN,11.984763,0.634763,0.201453,-1.826143,1.863625,1.903347,2.549608,1.103002,-1.677796,-0.927979,0.112061,-0.294189,0.119904,0.005321,0.001426,0.999868,0.012747,0.005515,-0.008389,0.661225,-0.002138,-0.746838,0.070773
08991,NaN,12.376642,1.180173,2.621378,-4.152364,1.966488,2.033383,1.610565,1.002954,-1.829752,-0.927490,0.097168,-0.300293,0.123996,0.010460,0.025680,0.999913,0.008053,0.005015,-0.009148,0.666444,0.007500,-0.742568,0.066258
08992,NaN,12.502274,-0.412277,2.161135,-3.409721,0.207744,2.413154,0.666111,1.102497,-1.862978,-0.918457,0.073486,-0.314941,0.125093,-0.005358,0.020905,0.999936,0.003330,0.005512,-0.009315,0.671091,0.016273,-0.738551,0.062559
08993,NaN,12.208727,-1.997977,0.824847,-1.754537,-1.426114,2.377759,0.385728,1.109034,-1.843864,-0.920166,0.058594,-0.327637,0.121939,-0.021119,0.007532,0.999940,0.001929,0.005545,-0.009219,0.677275,0.011271,-0.734345,0.043692
08994,NaN,12.746914,-3.544447,-0.382355,-0.310301,-3.062873,3.060110,0.609088,1.085627,-1.781036,-0.915527,0.043701,-0.340088,0.127123,-0.036564,-0.004624,0.999941,0.003045,0.005428,-0.008905,0.681581,0.019637,-0.730387,0.039955
08995,NaN,13.401290,-5.271492,-1.446214,0.921408,-4.954792,3.754430,1.091387,1.219033,-1.758813,-0.910645,0.022217,-0.346436,0.133450,-0.053807,-0.015568,0.999928,0.005457,0.006095,-0.008794,0.687299,0.018794,-0.725672,0.025835
08996,NaN,14.234621,-6.209334,-1.365685,1.116649,-6.092917,4.493389,1.804324,1.067039,-1.707669,-0.901611,0.000732,-0.358887,0.141732,-0.063174,-0.014981,0.999909,0.009021,0.005335,-0.008538,0.691164,0.031054,-0.721540,0.026610
08997,NaN,15.186224,-5.462966,-0.368508,0.148607,-5.680521,5.296988,1.786056,0.643570,-1.600026,-0.901123,-0.018555,-0.364990,0.151405,-0.055803,-0.004668,0.999923,0.008930,0.003218,-0.008000,0.694090,0.034400,-0.718841,0.017997
08998,NaN,14.341558,-2.379430,0.608517,-0.847514,-2.873971,4.425598,1.919844,0.542306,-1.476668,-0.894043,-0.039795,-0.369141,0.143250,-0.024907,0.005461,0.999923,0.009599,0.002711,-0.007383,0.695793,0.046321,-0.716472,0.019863
09000,NaN,13.937825,1.353752,0.080706,-1.051074,1.148521,18.150128,1.926172,0.282098,-1.570783,-0.890869,-0.074219,-0.375244,0.279140,0.022665,0.001292,0.999687,0.019260,0.002821,-0.015706,0.697595,0.063946,-0.713473,0.015111
09001,NaN,13.891472,1.914048,-1.086794,0.669376,0.924843,4.205455,1.094688,0.847692,-1.872323,-0.885986,-0.097656,-0.377197,0.139039,0.017900,-0.011357,0.999932,0.005473,0.004238,-0.009361,0.700368,0.074378,-0.709782,0.012754
09002,NaN,12.997584,1.908208,-1.941415,1.666447,0.814456,3.336523,0.535742,0.566331,-1.965927,-0.879395,-0.108398,-0.383545,0.130100,0.017856,-0.019734,0.999944,0.002679,0.002832,-0.009829,0.702646,0.076419,-0.707424,0.000289
09003,NaN,12.641919,1.512244,-0.498883,0.373856,0.074477,2.923224,0.818022,0.740713,-1.879079,-0.870361,-0.129883,-0.391846,0.126534,0.013955,-0.005399,0.999941,0.004090,0.003703,-0.009395,0.704919,0.085936,-0.704056,-0.003137
09004,NaN,11.420701,1.153150,0.576572,-0.540453,-0.465844,1.658178,0.445231,1.011844,-1.813966,-0.857178,-0.140625,-0.398193,0.114333,0.010483,0.005212,0.999944,0.002226,0.005059,-0.009070,0.708372,0.087384,-0.700247,-0.015058
09005,NaN,10.656411,0.531309,0.399800,-0.196388,-1.140665,0.801349,-0.131306,0.828128,-1.811924,-0.848389,-0.155518,-0.415039,0.106622,0.004350,0.003554,0.999950,-0.000657,0.004141,-0.009059,0.711162,0.093324,-0.696472,-0.021574
09006,NaN,9.947630,-0.191083,0.115348,0.207004,-1.896673,-0.047345,-0.319563,0.670751,-1.804235,-0.843750,-0.168213,-0.419189,0.099457,-0.002807,0.000824,0.999952,-0.001598,0.003354,-0.009021,0.713369,0.092511,-0.693733,-0.035791
09007,NaN,9.163202,-0.438904,-0.644883,1.036681,-2.098922,-0.919439,-0.359873,0.767491,-1.794879,-0.834717,-0.185547,-0.425293,0.091562,-0.005223,-0.006791,0.999951,-0.001799,0.003837,-0.008974,0.715846,0.097590,-0.690061,-0.043086
09008,NaN,8.982116,-0.801737,-2.071596,2.534001,-2.501793,-1.272815,-0.753576,0.987711,-1.742842,-0.828369,-0.189697,-0.442383,0.089643,-0.008878,-0.021127,0.999943,-0.003768,0.004938,-0.008714,0.719029,0.096454,-0.685897,-0.056917
09009,NaN,8.186834,-0.864870,-2.260357,2.771173,-2.532097,-2.145375,-1.093368,1.090092,-1.686067,-0.817383,-0.200439,-0.448730,0.081666,-0.009463,-0.022999,0.999935,-0.005467,0.005450,-0.008430,0.722772,0.098613,-0.680803,-0.066199
09010,NaN,7.463388,-0.838718,-1.634638,2.141204,-2.535297,-2.879905,-1.174991,0.888521,-1.465972,-0.811035,-0.202393,-0.463379,0.074496,-0.009031,-0.016626,0.999946,-0.005875,0.004443,-0.007330,0.725472,0.095339,-0.676902,-0.080023
09011,NaN,6.798261,-1.349911,-1.274984,1.786609,-2.981835,-3.682445,-1.224513,0.734431,-1.257479,-0.802490,-0.206787,-0.469727,0.067848,-0.014005,-0.012914,0.999955,-0.006122,0.003672,-0.006287,0.728010,0.095446,-0.673113,-0.088376
09012,NaN,5.502017,-1.311631,-0.458621,0.864223,-2.709042,-4.901800,-1.374473,0.620953,-0.902476,-0.793945,-0.206787,-0.478271,0.054946,-0.013396,-0.004665,0.999961,-0.006872,0.003105,-0.004512,0.729836,0.089876,-0.670221,-0.100325
09013,NaN,4.690951,-1.469764,-0.270327,0.611007,-2.681777,-5.729433,-1.852234,0.513617,-0.492702,-0.794189,-0.200195,-0.486816,0.046866,-0.014838,-0.002687,0.999951,-0.009261,0.002568,-0.002463,0.732111,0.085025,-0.667158,-0.108095
09014,NaN,4.018174,-1.653570,-1.282835,1.505321,-2.738088,-6.532087,-2.495085,0.087423,-0.088141,-0.794678,-0.189453,-0.499512,0.040169,-0.016712,-0.012638,0.999922,-0.012475,0.000437,-0.000441,0.732876,0.073089,-0.665684,-0.120063
09015,NaN,3.696992,-0.598032,-0.912968,1.161297,-1.638063,-6.522250,-2.185909,-0.303560,0.239384,-0.794922,-0.176758,-0.499512,0.036991,-0.006035,-0.009008,0.999938,-0.010929,-0.001518,0.001197,0.732768,0.064100,-0.665525,-0.126566
09016,NaN,6.505038,0.388460,0.051174,0.500627,-1.371361,-3.461495,-1.966914,-0.545411,0.426902,-0.799561,-0.163818,-0.497559,0.065040,0.004029,0.000650,0.999946,-0.009834,-0.002727,0.002134,0.731374,0.052636,-0.666564,-0.134217
09017,NaN,8.869276,1.594097,1.048334,-0.147515,-0.704778,-0.769159,-1.923889,0.035029,0.366913,-0.795654,-0.155273,-0.510254,0.088665,0.016203,0.010313,0.999952,-0.009619,0.000175,0.001835,0.732213,0.044403,-0.665204,-0.139273
09018,NaN,8.446319,1.855642,0.617028,0.343540,-0.357567,-1.157171,-1.641166,0.558902,0.281370,-0.787598,-0.144531,-0.519043,0.084453,0.018724,0.005781,0.999961,-0.008206,0.002794,0.001407,0.734336,0.036356,-0.662133,-0.144945
09019,NaN,6.463831,0.566367,-0.366265,1.000859,-1.195684,-3.503609,-1.393414,0.585665,0.208976,-0.789795,-0.137939,-0.523193,0.064621,0.005705,-0.003892,0.999971,-0.006967,0.002928,0.001045,0.736663,0.030976,-0.658986,-0.148682
09021,NaN,4.977974,-0.674982,0.691519,-0.729932,-3.626011,-0.369446,-0.974072,0.061487,0.249852,-0.790039,-0.131592,-0.525391,0.099601,-0.013116,0.013898,0.999949,-0.009741,0.000615,0.002498,0.737645,0.021815,-0.657167,-0.153409
09022,NaN,5.147284,-0.594903,0.861419,-0.506142,-1.718622,-4.875021,-0.609834,-0.302797,0.412886,-0.794678,-0.118652,-0.523438,0.051472,-0.005816,0.008710,0.999992,-0.003049,-0.001514,0.002064,0.737032,0.017981,-0.657851,-0.153924
09023,NaN,4.986074,-0.578861,0.540592,-0.216241,-1.686997,-5.059223,-0.384198,-0.430177,0.531458,-0.790527,-0.116455,-0.521240,0.049864,-0.005646,0.005524,0.999992,-0.001921,-0.002151,0.002657,0.736205,0.014820,-0.659200,-0.152440
09024,NaN,5.053394,-0.491367,0.816173,-0.479776,-1.535235,-4.928318,-0.236905,-0.527342,0.676691,-0.792969,-0.107910,-0.517090,0.050528,-0.004733,0.008301,0.999990,-0.001185,-0.002637,0.003383,0.734997,0.011320,-0.660999,-0.150770
09025,NaN,5.044341,-0.362063,0.964033,-0.614891,-1.336724,-4.879061,-0.168607,-0.600173,0.839330,-0.801514,-0.103760,-0.514893,0.050429,-0.003401,0.009795,0.999986,-0.000843,-0.003001,0.004197,0.733849,0.008016,-0.663134,-0.147154
09026,NaN,5.305301,-0.154229,1.142037,-0.746800,-1.109940,-4.551107,-0.166095,-0.613547,1.017367,-0.801758,-0.095215,-0.510742,0.053025,-0.001263,0.011584,0.999982,-0.000830,-0.003068,0.005087,0.732561,0.003586,-0.665287,-0.143996
09027,NaN,5.951608,0.428995,1.476699,-0.921504,-0.556497,-3.760670,-0.240823,-0.536081,1.183653,-0.806396,-0.082275,-0.506592,0.059449,0.004660,0.014921,0.999978,-0.001204,-0.002680,0.005918,0.731893,-0.000750,-0.667100,-0.138959
09028,NaN,7.194994,1.234811,1.631228,-0.827205,0.088013,-2.378936,-0.488375,-0.368573,1.301197,-0.810791,-0.073730,-0.506592,0.071837,0.012856,0.016414,0.999974,-0.002442,-0.001843,0.006506,0.731552,-0.007130,-0.668082,-0.135823
09029,NaN,9.086061,2.167895,1.442101,-0.297054,0.719302,-0.393101,-0.912738,-0.084545,1.372914,-0.809326,-0.056641,-0.506836,0.090703,0.022368,0.014358,0.999966,-0.004564,-0.000423,0.006864,0.732409,-0.014285,-0.667715,-0.132401
09030,NaN,10.985707,2.936635,0.957096,0.542785,1.175784,1.525123,-1.266533,0.202178,1.359162,-0.807617,-0.041504,-0.513184,0.109663,0.030171,0.009271,0.999956,-0.006333,0.001011,0.006796,0.733866,-0.023322,-0.666005,-0.131663
09031,NaN,11.452022,3.136202,1.832492,-0.117713,1.630982,2.089634,-1.685006,0.439839,1.219679,-0.812256,-0.024414,-0.519775,0.114365,0.032211,0.017804,0.999943,-0.008425,0.002199,0.006098,0.736199,-0.032150,-0.663158,-0.131148
09032,NaN,12.346754,2.834803,3.978740,-2.054072,1.845054,3.175043,-2.002086,0.253100,1.029501,-0.808594,-0.005127,-0.521973,0.123368,0.029379,0.039341,0.999936,-0.010010,0.001265,0.005147,0.737349,-0.042761,-0.660700,-0.134031
09033,NaN,15.454911,3.180035,6.007116,-3.537242,2.430703,6.516008,-2.006869,-0.302828,0.870549,-0.809082,0.009766,-0.517822,0.154316,0.033075,0.059977,0.999939,-0.010034,-0.001514,0.004353,0.736801,-0.051993,-0.660315,-0.135664
09034,NaN,16.828408,4.501454,8.804963,-5.637507,4.486840,8.327472,-2.150239,-0.254272,0.565842,-0.809570,0.024902,-0.515869,0.168042,0.046435,0.087769,0.999937,-0.010751,-0.001271,0.002829,0.735745,-0.061948,-0.659600,-0.140606
09035,NaN,16.831809,3.761986,9.878330,-6.713903,4.267797,8.401234,-1.888441,0.467479,0.228276,-0.812012,0.029297,-0.530762,0.168504,0.038740,0.098027,0.999952,-0.009442,0.002337,0.001141,0.737280,-0.068003,-0.656439,-0.144504
09036,NaN,14.689905,2.975444,8.320951,-5.476338,3.368557,6.078903,-0.360183,1.312662,-0.380522,-0.799072,0.024902,-0.534912,0.147497,0.029623,0.082189,0.999975,-0.001801,0.006563,-0.001903,0.741177,-0.067127,-0.651448,-0.147534
09037,NaN,12.231277,1.204505,5.497253,-3.414269,0.995036,3.172664,0.867786,2.052540,-0.873200,-0.786133,0.012207,-0.560303,0.122919,0.011274,0.053763,0.999928,0.004339,0.010262,-0.004366,0.748284,-0.057036,-0.644655,-0.145731
09038,NaN,9.348627,0.337321,1.978890,-0.511477,-0.578077,-0.282429,1.792914,2.295557,-0.896145,-0.770508,-0.011475,-0.566406,0.093719,0.002782,0.018741,0.999884,0.008964,0.011477,-0.004481,0.755459,-0.045757,-0.637548,-0.143945
09039,NaN,7.464633,1.190969,0.837266,0.657128,0.120058,-2.236876,1.987014,1.436252,-0.707829,-0.768066,-0.024170,-0.572754,0.074746,0.011565,0.007952,0.999919,0.009935,0.007181,-0.003539,0.760829,-0.032045,-0.633487,-0.137139
09040,NaN,8.236530,4.028543,0.332320,1.993204,2.527989,-1.221061,1.713501,0.721269,-0.660257,-0.763428,-0.039307,-0.585449,0.082510,0.039984,0.003369,0.999951,0.008567,0.003606,-0.003301,0.762902,-0.022935,-0.631987,-0.134335
09041,NaN,8.129171,6.605824,0.173654,2.685240,4.951354,-0.979590,1.263209,0.772431,-0.651576,-0.758789,-0.050049,-0.583252,0.081513,0.065782,0.001838,0.999967,0.006316,0.003862,-0.003258,0.765653,-0.013609,-0.629694,-0.130676
09042,NaN,7.612659,7.789120,-2.015929,4.900548,5.751328,-1.713744,1.372546,0.152521,-0.557763,-0.758545,-0.058594,-0.581055,0.076329,0.077815,-0.019683,0.999972,0.006863,0.000763,-0.002789,0.765845,-0.006495,-0.630021,-0.128499
09043,NaN,9.735818,6.877723,-2.518956,5.420592,4.395742,0.173558,1.370012,-1.164770,-0.441878,-0.760254,-0.073486,-0.570312,0.097653,0.068729,-0.024150,0.999957,0.006850,-0.005824,-0.002209,0.762210,0.000314,-0.635125,-0.125106
09044,NaN,13.300383,3.842649,-1.057658,3.761511,1.014356,3.513942,0.855084,-2.027312,-0.361439,-0.781494,-0.071533,-0.555420,0.133170,0.038227,-0.009064,0.999938,0.004275,-0.010136,-0.001807,0.755502,0.003457,-0.643340,-0.123766
09045,NaN,18.237685,1.255692,0.635212,1.985961,-2.170880,8.240606,0.198695,-2.323438,-0.179886,-0.783203,-0.075928,-0.534180,0.182298,0.012385,0.008483,0.999932,0.000993,-0.011617,-0.000899,0.747937,0.003568,-0.652062,-0.124068
09046,NaN,21.196151,-1.824333,1.540225,0.483006,-5.513498,10.786606,-0.307624,-1.930822,0.079694,-0.793945,-0.073730,-0.523682,0.211807,-0.018133,0.017476,0.999952,-0.001538,-0.009654,0.000398,0.741666,0.000965,-0.659056,-0.124803
09047,NaN,20.415026,-4.900192,3.858909,-2.737312,-7.873585,9.838911,-0.809029,-0.920100,0.196014,-0.793945,-0.071533,-0.523682,0.204017,-0.048643,0.039725,0.999981,-0.004045,-0.004600,0.000980,0.738765,-0.003309,-0.661865,-0.127080
09048,NaN,13.769917,-4.742180,6.449905,-5.982408,-5.961310,3.691867,-1.358284,-0.056311,-0.206326,-0.794189,-0.067139,-0.527832,0.137632,-0.047124,0.064859,0.999976,-0.006791,-0.000282,-0.001032,0.738412,-0.007675,-0.661192,-0.132336
09049,NaN,5.948312,-3.970703,3.003688,-3.231752,-4.370045,-4.278360,-0.808441,-0.889660,-0.358921,-0.798340,-0.065186,-0.519531,0.059277,-0.039691,0.030461,0.999980,-0.004042,-0.004448,-0.001795,0.735516,-0.009078,-0.663827,-0.135157
09050,NaN,2.271267,-1.514185,-3.816218,3.566201,-2.622124,-8.256713,0.069898,-1.910672,-0.226078,-0.813232,-0.067383,-0.502441,0.023059,-0.015155,-0.037948,0.999954,0.000349,-0.009553,-0.001130,0.728996,-0.009357,-0.670874,-0.135665
09051,NaN,3.188155,-0.172451,-2.799871,2.872596,-1.293189,-6.965119,0.291006,-1.938565,-0.109927,-0.817383,-0.069580,-0.489746,0.032150,-0.001702,-0.027690,0.999952,0.001455,-0.009693,-0.000550,0.722683,-0.008473,-0.678017,-0.133982
09052,NaN,5.988806,-0.213402,1.849866,-1.610623,-0.934040,-3.823817,0.141228,-0.856827,-0.044222,-0.823730,-0.069580,-0.487549,0.059808,-0.002160,0.018753,0.999991,0.000706,-0.004284,-0.000221,0.719753,-0.008383,-0.681197,-0.133628
09053,NaN,7.292426,-2.060433,4.706461,-4.722676,-2.418353,-2.641698,0.508320,0.709733,0.125496,-0.812988,-0.069580,-0.494141,0.073103,-0.020678,0.046753,0.999990,0.002542,0.003549,0.000627,0.722526,-0.005787,-0.678893,-0.130486
09054,NaN,7.910917,-2.885415,1.316229,-1.450216,-3.971869,-2.412639,1.396915,0.865738,0.564570,-0.815186,-0.071533,-0.500244,0.079246,-0.028720,0.012619,0.999962,0.006984,0.004329,0.002823,0.725851,-0.002087,-0.676629,-0.123727
09055,NaN,9.381893,-2.008059,-2.985268,3.133356,-4.045576,-1.165299,1.802426,0.514452,0.868409,-0.808594,-0.073730,-0.500244,0.093827,-0.019402,-0.030271,0.999947,0.009012,0.002572,0.004342,0.728361,0.002315,-0.675705,-0.113617
09056,NaN,10.507093,-1.934342,-4.588150,4.887543,-4.259994,-0.161103,1.693744,0.210423,1.017998,-0.812988,-0.073730,-0.498291,0.105118,-0.018418,-0.046151,0.999951,0.008469,0.001052,0.005090,0.729599,0.005168,-0.675873,-0.104182
09057,NaN,11.504774,-0.884232,-4.592401,5.167130,-3.198338,1.017835,1.404176,-0.189356,1.085723,-0.817139,-0.071533,-0.493896,0.115136,-0.007895,-0.045873,0.999960,0.007021,-0.000947,0.005429,0.729618,0.006890,-0.677244,-0.094610
09058,NaN,12.774236,-0.107292,-3.646045,4.398019,-2.332464,2.503986,1.078361,-0.562499,1.026383,-0.821533,-0.067383,-0.487549,0.127847,-0.000222,-0.036104,0.999968,0.005392,-0.002812,0.005132,0.728144,0.007086,-0.679814,-0.087232
09059,NaN,12.283578,-0.371965,-2.480953,3.155822,-2.245007,2.111212,0.713075,-0.208126,0.781629,-0.817139,-0.071533,-0.491943,0.122875,-0.003151,-0.024694,0.999985,0.003565,-0.001041,0.003908,0.727780,0.006994,-0.680931,-0.081364
09060,NaN,10.285783,-0.313924,-2.116557,2.691503,-1.806527,0.180688,0.322038,0.199876,0.588263,-0.819336,-0.067383,-0.489746,0.102845,-0.002803,-0.021273,0.999994,0.001610,0.000999,0.002941,0.728689,0.006248,-0.680346,-0.078121
09061,NaN,9.034862,-0.433740,-2.128440,2.647389,-1.698705,-1.068970,0.232589,0.247955,0.500054,-0.821777,-0.065186,-0.494141,0.090333,-0.004087,-0.021401,0.999995,0.001163,0.001240,0.002500,0.729829,0.006636,-0.679614,-0.073690
09062,NaN,8.134231,-0.791520,-2.391525,2.829878,-1.924817,-2.015361,0.156464,-0.044824,0.523449,-0.821777,-0.062988,-0.491943,0.081368,-0.007684,-0.023903,0.999996,0.000782,-0.000224,0.002617,0.729867,0.005415,-0.679844,-0.071251
09063,NaN,8.474553,-1.716113,-1.734974,2.107115,-2.748728,-1.702367,0.047532,-0.427439,0.759944,-0.826172,-0.052490,-0.483643,0.084847,-0.016835,-0.017173,0.999990,0.000238,-0.002137,0.003800,0.728727,0.003910,-0.681548,-0.066588
09064,NaN,9.182617,-1.861703,-0.919135,1.288555,-2.821541,-0.923995,-0.143353,-0.606303,0.903979,-0.830811,-0.041748,-0.483643,0.091936,-0.018208,-0.008900,0.999985,-0.000717,-0.003031,0.004520,0.726959,0.000109,-0.683711,-0.063795
09065,NaN,9.316848,-1.635565,-0.760720,1.120586,-2.500679,-0.727119,-0.081692,-0.405513,0.924349,-0.826660,-0.035156,-0.481445,0.093258,-0.015928,-0.007412,0.999987,-0.000408,-0.002028,0.004622,0.725790,-0.003361,-0.685294,-0.059919
09066,NaN,9.537336,-2.072947,-0.488948,0.798032,-2.840925,-0.496655,0.100183,-0.313761,0.941857,-0.833008,-0.035156,-0.479492,0.095477,-0.020278,-0.004750,0.999988,0.000501,-0.001569,0.004709,0.724995,-0.006315,-0.686432,-0.056153
09067,NaN,9.666088,-1.582626,-0.787426,1.127332,-2.282834,-0.321906,0.126014,-0.405772,0.953639,-0.826904,-0.024658,-0.473145,0.096751,-0.015360,-0.007688,0.999986,0.000630,-0.002029,0.004768,0.723833,-0.008410,-0.688062,-0.050649
09068,NaN,10.230253,-1.606362,-0.823011,1.156435,-2.246074,0.263652,0.189182,-0.463595,0.960862,-0.833496,-0.020264,-0.470947,0.102397,-0.015564,-0.008008,0.999985,0.000946,-0.002318,0.004804,0.722484,-0.011145,-0.689732,-0.046501
09069,NaN,10.344964,-1.453086,-0.790544,1.100778,-1.982207,0.415350,0.157607,-0.647457,0.884270,-0.842041,-0.013916,-0.460449,0.103537,-0.014067,-0.007582,0.999985,0.000788,-0.003237,0.004421,0.720407,-0.012716,-0.692230,-0.040871
09070,NaN,9.747582,-1.125219,-0.335697,0.591825,-1.505542,-0.128870,0.261286,-0.712970,0.832401,-0.842285,-0.011719,-0.452148,0.097533,-0.010842,-0.003024,0.999984,0.001306,-0.003565,0.004162,0.718120,-0.014799,-0.694782,-0.036924
09071,NaN,9.487653,-0.840190,-0.435450,0.644886,-1.122721,-0.366322,0.157642,-0.737637,0.808690,-0.842285,-0.005371,-0.456299,0.094925,-0.008015,-0.004011,0.999985,0.000788,-0.003688,0.004043,0.715645,-0.015782,-0.697588,-0.031221
09072,NaN,8.775537,-1.503828,0.113762,-0.021947,-1.651596,-1.063089,0.381652,-0.713755,0.878195,-0.848877,0.003174,-0.452148,0.087816,-0.014655,0.001423,0.999982,0.001908,-0.003569,0.004391,0.713315,-0.017588,-0.700114,-0.026692
09073,NaN,8.785447,-0.803821,-1.011107,1.088920,-0.925763,-1.048625,0.152932,-0.781235,0.917416,-0.857666,0.009521,-0.441650,0.087929,-0.007627,-0.009774,0.999982,0.000765,-0.003906,0.004587,0.710609,-0.019056,-0.703023,-0.020736
09074,NaN,9.004389,0.464499,-1.142702,1.226271,0.417284,-0.817041,0.159989,-0.856762,0.863363,-0.851562,0.018066,-0.428955,0.090071,0.005043,-0.011037,0.999981,0.000800,-0.004284,0.004317,0.707694,-0.021608,-0.705983,-0.017025
09075,NaN,8.912748,0.957190,-0.835875,0.864085,1.017716,-0.909396,0.201417,-0.891229,0.789773,-0.857666,0.016113,-0.424805,0.089125,0.009932,-0.007952,0.999982,0.001007,-0.004456,0.003949,0.704487,-0.022909,-0.709248,-0.011851
09076,NaN,8.944816,0.305733,-0.300448,0.227050,0.469237,-0.872836,0.173376,-0.734030,0.794433,-0.870605,0.018066,-0.422607,0.089445,0.003415,-0.002673,0.999985,0.000867,-0.003670,0.003972,0.701946,-0.025156,-0.711737,-0.008354
09077,NaN,9.163419,0.150557,-0.286648,0.138712,0.405941,-0.653631,-0.046779,-0.614502,0.817920,-0.868652,0.031006,-0.414307,0.091635,0.001880,-0.002585,0.999987,-0.000234,-0.003072,0.004090,0.699631,-0.026091,-0.714023,-0.002788
09078,NaN,9.331414,0.236235,-0.744331,0.543194,0.555801,-0.480998,-0.107610,-0.604589,0.814925,-0.875244,0.035156,-0.409912,0.093325,0.002739,-0.007163,0.999987,-0.000538,-0.003023,0.004075,0.697466,-0.029382,-0.716016,-0.000243
09079,NaN,9.169209,0.062427,-0.632924,0.372670,0.465389,-0.640840,-0.080544,-0.542537,0.777314,-0.875732,0.050293,-0.407959,0.091705,0.000978,-0.006081,0.999989,-0.000403,-0.002713,0.003887,0.695334,-0.030915,-0.718009,0.004356
09080,NaN,8.843876,-0.227040,-0.321925,0.017322,0.242359,-0.963408,-0.089533,-0.487177,0.767104,-0.873779,0.054443,-0.403809,0.088454,-0.001933,-0.003003,0.999990,-0.000448,-0.002436,0.003836,0.693552,-0.033967,-0.719574,0.006777
09081,NaN,8.515169,-0.486719,-0.639869,0.296058,0.027992,-1.264849,-0.042369,-0.410928,0.767517,-0.873779,0.056641,-0.395264,0.085182,-0.004542,-0.006223,0.999991,-0.000212,-0.002055,0.003838,0.691862,-0.036335,-0.721039,0.010434
09082,NaN,8.348710,-0.637238,-0.807022,0.430446,-0.073572,-1.412261,0.048887,-0.438681,0.748797,-0.873779,0.061035,-0.393311,0.083528,-0.006058,-0.007889,0.999991,0.000244,-0.002193,0.003744,0.690249,-0.038840,-0.722406,0.013280
09084,NaN,8.692433,-0.813297,-0.112886,-0.680655,-0.194916,7.634999,0.165597,-0.452635,0.723418,-0.880615,0.075928,-0.386963,0.173968,-0.015005,-0.001496,0.999962,0.001656,-0.004526,0.007234,0.686708,-0.041309,-0.725436,0.021657
09085,NaN,8.908370,-0.978761,0.026107,-0.549149,-0.142724,-0.868677,0.397573,-0.450949,0.711366,-0.878662,0.080078,-0.380859,0.089117,-0.009471,0.000443,0.999989,0.001988,-0.002255,0.003557,0.685075,-0.042473,-0.726781,0.025634
09086,NaN,9.012271,-0.859399,0.486050,-1.050908,0.062076,-0.807848,0.613813,-0.496183,0.708886,-0.878662,0.084473,-0.380859,0.090140,-0.008290,0.005058,0.999986,0.003069,-0.002481,0.003544,0.683100,-0.041900,-0.728426,0.031840
09087,NaN,8.852464,-0.692262,1.024548,-1.612457,0.276813,-1.025309,0.670519,-0.473746,0.725208,-0.882812,0.084473,-0.374512,0.088524,-0.006636,0.010433,0.999985,0.003353,-0.002369,0.003626,0.681394,-0.042174,-0.729770,0.036858
09088,NaN,9.057843,-0.446516,0.552081,-1.192549,0.604656,-0.826004,0.688187,-0.418540,0.744424,-0.885254,0.088623,-0.372314,0.090582,-0.004147,0.005696,0.999985,0.003441,-0.002093,0.003722,0.679660,-0.041383,-0.731066,0.043492
09089,NaN,8.796313,-0.555116,0.195073,-0.851579,0.532403,-1.054135,0.758975,-0.426793,0.764343,-0.891602,0.090820,-0.365967,0.087979,-0.005223,0.002118,0.999983,0.003795,-0.002134,0.003822,0.678085,-0.041504,-0.732176,0.048952
09090,NaN,8.660408,-0.225999,-0.299591,-0.390700,0.920955,-1.202102,0.846609,-0.420345,0.794818,-0.885010,0.088623,-0.361816,0.086618,-0.001904,-0.002822,0.999981,0.004233,-0.002102,0.003974,0.676277,-0.039986,-0.733379,0.056625
09091,NaN,8.874215,0.702156,-0.440479,-0.322695,1.946116,-1.120933,1.004510,-0.368182,0.832459,-0.885498,0.099365,-0.359619,0.088720,0.007412,-0.004205,0.999977,0.005023,-0.001841,0.004162,0.674881,-0.039536,-0.734151,0.063196
09092,NaN,9.060753,1.663944,-0.030751,-0.831084,2.981668,-1.135981,0.835409,-0.280161,0.827312,-0.889893,0.105713,-0.361816,0.090538,0.017015,-0.000110,0.999982,0.004177,-0.001401,0.004137,0.673464,-0.037974,-0.734816,0.071054
09093,NaN,9.501420,2.163728,-0.502592,-0.459367,3.638168,-0.770376,0.661701,-0.210764,0.783083,-0.885742,0.105713,-0.359863,0.094934,0.022025,-0.004853,0.999986,0.003308,-0.001054,0.003915,0.672533,-0.038547,-0.735128,0.076162
09094,NaN,9.868284,2.361604,-0.596197,-0.454890,3.970540,-0.466940,0.453385,-0.170198,0.724753,-0.892090,0.110107,-0.353516,0.098601,0.023987,-0.005824,0.999991,0.002267,-0.000851,0.003624,0.671515,-0.038760,-0.735487,0.081386
09095,NaN,10.084431,2.235212,-0.523818,-0.566600,3.941734,-0.267657,0.259960,-0.142607,0.631711,-0.890137,0.112305,-0.351318,0.100777,0.022677,-0.005137,0.999994,0.001300,-0.000713,0.003159,0.670785,-0.040152,-0.735729,0.084491
09096,NaN,9.995553,2.358547,-0.522349,-0.589614,4.104889,-0.402659,0.110821,-0.115279,0.534719,-0.888184,0.125000,-0.347168,0.099895,0.023855,-0.005153,0.999996,0.000554,-0.000576,0.002674,0.670053,-0.041557,-0.736021,0.087038
09097,NaN,9.862827,3.033693,-0.757915,-0.393257,4.804919,-0.657851,0.031247,-0.091759,0.420518,-0.888184,0.123047,-0.351318,0.098568,0.030545,-0.007529,0.999998,0.000156,-0.000459,0.002103,0.669542,-0.042960,-0.736221,0.088582
09098,NaN,9.555619,3.416031,-0.881895,-0.273614,5.164790,-1.037332,-0.076296,-0.116637,0.281509,-0.892334,0.122803,-0.344971,0.095513,0.034291,-0.008776,0.999999,-0.000381,-0.000583,0.001408,0.668897,-0.044135,-0.736637,0.089413
09099,NaN,9.576756,3.128567,0.113603,-1.260695,4.832780,-1.062262,-0.271441,-0.239604,0.154951,-0.888184,0.122803,-0.343018,0.095742,0.031361,0.001208,0.999998,-0.001357,-0.001198,0.000775,0.667888,-0.045506,-0.737520,0.088985
09100,NaN,10.368230,2.292157,1.282836,-2.478660,4.090909,-0.246053,-0.538355,-0.286370,0.101886,-0.890381,0.125000,-0.347168,0.103652,0.023009,0.012915,0.999995,-0.002692,-0.001432,0.000509,0.666611,-0.047491,-0.738736,0.087428
09101,NaN,10.618386,2.351620,1.000601,-2.242688,4.227021,0.004851,-0.692121,-0.271265,0.047350,-0.898926,0.127197,-0.340820,0.106165,0.023576,0.010068,0.999993,-0.003461,-0.001356,0.000237,0.665424,-0.049854,-0.739922,0.085094
09102,NaN,11.460653,2.387546,0.931090,-2.283472,4.431406,0.820385,-0.675658,-0.311675,0.036188,-0.899170,0.135742,-0.338867,0.114588,0.023928,0.009409,0.999993,-0.003378,-0.001558,0.000181,0.664072,-0.052067,-0.741255,0.082701
09103,NaN,11.944181,1.937225,0.900096,-2.309780,4.089268,1.375219,-0.622272,-0.232391,0.019609,-0.894775,0.135742,-0.332520,0.119429,0.019412,0.009079,0.999994,-0.003111,-0.001162,0.000098,0.663041,-0.054109,-0.742270,0.080520
09104,NaN,12.590739,1.064352,0.020829,-1.498389,3.393386,2.266209,-0.457791,-0.107228,-0.037924,-0.896973,0.131348,-0.330322,0.125909,0.010620,0.000251,0.999997,-0.002289,-0.000536,-0.000190,0.662564,-0.055470,-0.742813,0.078491
09105,NaN,13.055754,0.262379,-0.407351,-1.115019,2.697121,2.921900,-0.277596,-0.026926,-0.175456,-0.899170,0.133545,-0.328125,0.130560,0.002504,-0.004059,0.999999,-0.001388,-0.000135,-0.000877,0.662459,-0.055727,-0.743055,0.076887
09106,NaN,12.706415,0.497498,-1.177172,-0.307969,2.857161,2.630296,-0.191575,0.078224,-0.319967,-0.894531,0.127197,-0.326172,0.127067,0.004760,-0.011826,0.999998,-0.000958,0.000391,-0.001600,0.662867,-0.055220,-0.742941,0.074811
09107,NaN,11.913796,0.634538,-1.909081,0.522277,2.828166,1.922482,0.002768,0.136230,-0.467204,-0.898682,0.122803,-0.330322,0.119139,0.006067,-0.019172,0.999997,0.000014,0.000681,-0.002336,0.663551,-0.053525,-0.742611,0.073236
09108,NaN,10.543876,0.889879,-1.988976,0.771927,2.778666,0.560550,0.275730,0.179447,-0.627027,-0.898438,0.110107,-0.332275,0.105448,0.008596,-0.019972,0.999994,0.001379,0.000897,-0.003135,0.664567,-0.050366,-0.742064,0.071797
09109,NaN,10.606856,0.543025,-1.299124,0.107557,2.352123,0.624906,0.380303,0.233403,-0.805416,-0.898193,0.105713,-0.330078,0.106074,0.005028,-0.013105,0.999989,0.001902,0.001167,-0.004027,0.665815,-0.046197,-0.741343,0.070473
09110,NaN,10.714174,0.666461,-0.777719,-0.398401,2.375215,0.677368,0.532866,0.260011,-0.985567,-0.893555,0.094971,-0.330078,0.107163,0.006158,-0.007900,0.999983,0.002664,0.001300,-0.004928,0.667282,-0.040864,-0.740499,0.068743
09111,NaN,11.516141,1.187012,-0.090759,-1.158166,2.863673,1.345053,0.637234,0.228782,-1.190306,-0.891113,0.082275,-0.334229,0.115228,0.011188,-0.001003,0.999977,0.003186,0.001144,-0.005951,0.668657,-0.034407,-0.739739,0.067083
09112,NaN,13.768767,1.272769,-0.151229,-1.295805,3.098980,3.601315,0.407495,0.352649,-1.455163,-0.890625,0.064941,-0.340332,0.137773,0.011729,-0.001731,0.999970,0.002037,0.001763,-0.007276,0.670551,-0.027814,-0.738640,0.063233
09113,NaN,15.052675,-0.409359,-0.394010,-1.020751,1.388229,5.151613,0.307498,0.743529,-1.697794,-0.892334,0.052246,-0.342529,0.150469,-0.005364,-0.004507,0.999956,0.001537,0.003718,-0.008489,0.673852,-0.020745,-0.736249,0.058571
09114,NaN,14.492246,-2.318597,-0.462613,-0.663316,-0.818020,4.833088,0.540939,0.939939,-1.744030,-0.889893,0.037354,-0.357178,0.144689,-0.024435,-0.005371,0.999947,0.002705,0.004700,-0.008720,0.677900,-0.012805,-0.733047,0.054125
09115,NaN,13.738252,-4.343614,-0.534357,-0.234454,-3.127855,4.260190,0.818677,1.114477,-1.685725,-0.885254,0.020020,-0.361328,0.136977,-0.044567,-0.006289,0.999941,0.004093,0.005572,-0.008428,0.682458,-0.004151,-0.729108,0.051337
09116,NaN,13.558697,-5.290300,-1.311196,0.837289,-4.246578,4.144445,1.058193,1.255221,-1.637539,-0.882568,0.005127,-0.367432,0.135061,-0.053937,-0.014244,0.999933,0.005291,0.006276,-0.008188,0.687481,0.005073,-0.724519,0.049162
09117,NaN,13.856157,-6.073394,-1.831676,1.657429,-5.149081,4.433890,1.598284,1.126799,-1.528352,-0.871338,-0.016357,-0.380127,0.137985,-0.061637,-0.019585,0.999923,0.007991,0.005634,-0.007642,0.691849,0.015828,-0.720154,0.049724
09118,NaN,14.803432,-6.138384,-1.289605,1.359772,-5.393234,5.271708,2.001612,0.925320,-1.455705,-0.866699,-0.033447,-0.384033,0.147519,-0.062321,-0.014200,0.999913,0.010008,0.004626,-0.007278,0.695353,0.027750,-0.716271,0.051675
09119,NaN,15.852120,-5.822432,-0.756999,1.051465,-5.286011,6.209326,2.174819,0.892413,-1.535949,-0.865967,-0.059082,-0.392334,0.158031,-0.059347,-0.008917,0.999901,0.010874,0.004462,-0.007679,0.698580,0.040581,-0.712318,0.054242
09120,NaN,13.979995,-5.120311,-0.391903,0.960981,-4.867264,4.229516,2.191067,1.523113,-1.746855,-0.856934,-0.078369,-0.394531,0.139308,-0.052366,-0.005551,0.999873,0.010955,0.007615,-0.008734,0.703954,0.054065,-0.705959,0.056108
09121,NaN,14.111386,-0.881038,1.410831,-1.189072,-1.168163,4.297975,2.068865,1.154186,-1.673129,-0.854248,-0.095459,-0.400635,0.141111,-0.010131,0.013194,0.999895,0.010344,0.005771,-0.008365,0.707868,0.066924,-0.700785,0.057828
09122,NaN,14.769869,0.802889,2.618242,-2.520877,0.016141,4.995663,1.255632,0.177926,-1.665458,-0.847168,-0.116943,-0.396240,0.147781,0.006634,0.026096,0.999945,0.006278,0.000890,-0.008327,0.708521,0.077175,-0.699193,0.056315
09123,NaN,14.504505,1.163988,1.361338,-1.267654,0.328395,4.742908,1.370356,0.479457,-2.051304,-0.838379,-0.134033,-0.404541,0.145186,0.010059,0.013338,0.999921,0.006852,0.002397,-0.010256,0.710195,0.089061,-0.696257,0.054019
09124,NaN,12.726000,0.980238,1.046457,-0.849994,0.015913,2.965327,1.590791,0.587530,-2.023571,-0.831299,-0.157715,-0.402344,0.127380,0.008432,0.010161,0.999913,0.007954,0.002938,-0.010118,0.712039,0.101599,-0.692761,0.052535
09125,NaN,11.915863,1.563077,0.324774,-0.196685,0.547204,2.195352,1.323442,0.456782,-2.052233,-0.833008,-0.172607,-0.406494,0.119318,0.014386,0.003073,0.999923,0.006617,0.002284,-0.010261,0.713437,0.113293,-0.689686,0.050042
09126,NaN,11.882630,1.590607,-1.385971,1.545083,0.726663,2.134147,0.939826,0.275655,-2.283059,-0.823730,-0.198242,-0.412598,0.118979,0.014614,-0.013953,0.999923,0.004699,0.001378,-0.011415,0.714400,0.124410,-0.687107,0.045154
09127,NaN,10.481601,-0.259061,-1.065071,1.706819,-1.203434,0.516846,1.089431,0.853515,-2.194062,-0.814697,-0.215576,-0.421143,0.104733,-0.003680,-0.011116,0.999916,0.005447,0.004267,-0.010970,0.717094,0.135637,-0.682385,0.041587
09128,NaN,10.241593,0.198506,1.330078,-0.577139,-1.526197,0.386849,0.931634,1.243851,-2.143489,-0.810059,-0.230469,-0.425049,0.102509,0.000827,0.012669,0.999912,0.004658,0.006219,-0.010717,0.721104,0.145954,-0.676226,0.037760
09129,NaN,9.495498,-0.906311,0.005453,1.092467,-2.302664,-0.621095,0.092224,1.315308,-2.138247,-0.794678,-0.251953,-0.431396,0.094848,-0.010077,-0.000574,0.999921,0.000461,0.006576,-0.010691,0.725834,0.153259,-0.669847,0.031320
09130,NaN,8.133506,-1.461847,-2.057369,3.237351,-2.222946,-2.256415,-0.995036,1.475957,-2.177714,-0.781494,-0.262451,-0.450439,0.081014,-0.015606,-0.021096,0.999901,-0.004975,0.007380,-0.010888,0.731822,0.156602,-0.662924,0.021064
09131,NaN,6.968339,-0.667823,-2.227083,3.199979,-1.356407,-3.341136,-1.199605,1.328816,-1.949592,-0.775146,-0.268799,-0.460938,0.069463,-0.007491,-0.022690,0.999912,-0.005998,0.006644,-0.009748,0.737311,0.158523,-0.656599,0.010993
09132,NaN,6.515276,-0.540969,-1.679137,2.675864,-1.396665,-3.775429,-1.201675,0.979167,-1.557460,-0.764404,-0.270996,-0.471436,0.065024,-0.006018,-0.017075,0.999940,-0.006008,0.004896,-0.007787,0.741508,0.159056,-0.651815,0.001980
09133,NaN,5.891856,-1.011746,-0.853327,1.952613,-1.994258,-4.457767,-1.101426,0.997746,-1.294816,-0.753662,-0.279541,-0.479980,0.058808,-0.010546,-0.008770,0.999951,-0.005507,0.004989,-0.006474,0.745616,0.159177,-0.647061,-0.005617
09134,NaN,5.275263,-1.604550,0.528531,0.677386,-2.793759,-5.077907,-1.324019,0.843853,-1.014673,-0.751465,-0.279541,-0.486328,0.052692,-0.016278,0.005170,0.999956,-0.006620,0.004219,-0.005073,0.749312,0.157459,-0.643091,-0.013073
09135,NaN,4.230171,-0.924744,-0.021206,0.915781,-1.830386,-5.996817,-1.709090,0.075089,-0.805720,-0.747559,-0.273193,-0.494873,0.042264,-0.009419,-0.000148,0.999955,-0.008545,0.000375,-0.004029,0.750817,0.153647,-0.642030,-0.021527
09136,NaN,3.573411,-1.166558,-0.765745,1.550674,-1.789814,-6.794681,-1.854241,0.002937,-0.358536,-0.747559,-0.270996,-0.499023,0.035713,-0.011800,-0.007549,0.999955,-0.009271,0.000015,-0.001793,0.752150,0.147762,-0.641565,-0.028827
09137,NaN,4.447318,-0.690830,0.498153,0.383878,-1.785261,-5.669081,-1.924037,-0.174291,-0.009034,-0.750244,-0.255859,-0.505615,0.044468,-0.006862,0.005086,0.999953,-0.009620,-0.000871,-0.000045,0.752980,0.140526,-0.641901,-0.035160
09138,NaN,6.333145,0.524299,1.197221,-0.132260,-1.155868,-3.451610,-2.124650,0.089646,0.153730,-0.752441,-0.251709,-0.511963,0.063333,0.005418,0.011887,0.999943,-0.010623,0.000448,0.000769,0.754714,0.131979,-0.641313,-0.041302
09139,NaN,7.534800,1.384707,0.539512,0.670492,-0.475016,-2.176852,-2.058146,0.616136,0.189016,-0.744385,-0.236572,-0.522705,0.075351,0.013971,0.005020,0.999942,-0.010291,0.003081,0.000945,0.758047,0.123729,-0.638646,-0.046779
09140,NaN,7.262843,1.031146,0.122065,1.132019,-0.671601,-2.595066,-1.805924,0.768850,0.144942,-0.749023,-0.225830,-0.535400,0.072625,0.010373,0.000848,0.999952,-0.009029,0.003844,0.000725,0.761586,0.116552,-0.635417,-0.051458
09141,NaN,5.337484,-0.427629,0.165767,0.875008,-1.634342,-4.786523,-1.892954,0.484888,0.179048,-0.743164,-0.212891,-0.539795,0.053383,-0.004213,0.001568,0.999952,-0.009465,0.002424,0.000895,0.764243,0.108896,-0.633152,-0.056504
09142,NaN,5.883599,0.057429,1.329949,-0.170440,-1.368996,-3.940257,-1.573237,0.285252,0.329471,-0.745605,-0.200195,-0.543945,0.058854,0.000775,0.013210,0.999967,-0.007866,0.001426,0.001647,0.766034,0.101863,-0.631835,-0.060000
09143,NaN,5.770565,-0.298501,1.271787,-0.112357,-1.644856,-4.130467,-1.517629,0.151834,0.406134,-0.739502,-0.193604,-0.554688,0.057721,-0.002771,0.012696,0.999969,-0.007588,0.000759,0.002031,0.767388,0.094812,-0.630981,-0.063160
09144,NaN,5.083355,-0.452642,1.426998,-0.400246,-1.614121,-4.781191,-1.273378,-0.111488,0.494217,-0.746094,-0.185059,-0.552490,0.050836,-0.004310,0.014326,0.999977,-0.006367,-0.000557,0.002471,0.767747,0.088280,-0.631280,-0.065237
09145,NaN,5.072700,-0.291564,0.695701,0.301816,-1.375726,-4.881417,-1.261118,-0.146740,0.622540,-0.750732,-0.172119,-0.554688,0.050731,-0.002714,0.007012,0.999975,-0.006306,-0.000734,0.003113,0.768028,0.081426,-0.631687,-0.066890
09146,NaN,4.595069,-0.157542,1.159385,-0.258517,-1.123292,-5.213247,-1.012086,-0.281635,0.709702,-0.750977,-0.161377,-0.552734,0.045939,-0.001353,0.011666,0.999980,-0.005060,-0.001408,0.003548,0.767743,0.075175,-0.632759,-0.067339
09147,NaN,3.987603,-0.192289,1.158028,-0.390545,-0.994132,-5.795479,-0.842376,-0.482206,0.818741,-0.757812,-0.150879,-0.552734,0.039855,-0.001711,0.011684,0.999980,-0.004212,-0.002411,0.004094,0.766798,0.069189,-0.634617,-0.067040
09148,NaN,4.038697,0.244406,1.079684,-0.322194,-0.528607,-5.671063,-0.676956,-0.713565,0.952356,-0.764404,-0.140137,-0.544434,0.040336,0.002673,0.010932,0.999977,-0.003385,-0.003568,0.004762,0.765043,0.063299,-0.637490,-0.065636
09150,NaN,5.305990,1.275333,1.160190,-0.413852,0.695715,1.315670,-0.612354,-0.831152,1.133342,-0.775635,-0.118652,-0.533936,0.105624,0.026851,0.023921,0.999882,-0.006123,-0.008311,0.011333,0.760790,0.050839,-0.644085,-0.061387
09151,NaN,7.805032,2.104301,1.370144,-0.037549,0.899367,-1.663304,-0.837727,-0.562497,1.280262,-0.782227,-0.107910,-0.533936,0.077874,0.021600,0.013831,0.999967,-0.004189,-0.002812,0.006401,0.759527,0.043335,-0.646324,-0.059208
09152,NaN,10.286814,1.663087,0.925457,0.764260,0.230598,0.618115,-1.094899,-0.177622,1.378614,-0.782715,-0.093018,-0.529785,0.102742,0.017390,0.009252,0.999961,-0.005474,-0.000888,0.006893,0.759572,0.034670,-0.646944,-0.057546
09153,NaN,11.480040,1.589413,1.884209,0.020616,0.189906,1.927349,-1.586860,0.077042,1.312959,-0.787598,-0.071533,-0.538574,0.114699,0.016796,0.018667,0.999947,-0.007934,0.000385,0.006565,0.760403,0.024437,-0.646437,-0.057524
09154,NaN,12.299583,0.715424,3.171946,-1.136168,-0.534325,2.847205,-1.977978,-0.003569,1.164880,-0.790283,-0.052246,-0.536621,0.122950,0.008184,0.031644,0.999934,-0.009890,-0.000018,0.005824,0.760922,0.013151,-0.645977,-0.059484
09155,NaN,15.545911,2.099415,5.139030,-2.447002,0.850912,6.489881,-2.372953,-0.437527,1.042190,-0.797363,-0.032959,-0.532471,0.155232,0.022414,0.051470,0.999914,-0.011864,-0.002188,0.005211,0.759882,0.000621,-0.646994,-0.063073
09156,NaN,19.543025,4.362472,8.508565,-4.862900,3.301471,11.134805,-2.779465,-0.125237,0.636159,-0.789307,-0.013672,-0.532715,0.195235,0.045424,0.084585,0.999898,-0.013897,-0.000626,0.003181,0.759612,-0.012034,-0.646525,-0.069641
09157,NaN,20.170527,4.123433,9.335101,-5.396968,3.364631,11.879224,-2.303540,0.802681,0.014610,-0.789795,-0.005127,-0.543213,0.202073,0.042314,0.092057,0.999926,-0.011517,0.004013,0.000073,0.762002,-0.020537,-0.642655,-0.076974
09158,NaN,17.126371,1.811372,7.346917,-3.984826,1.148879,8.445559,-1.234966,1.568847,-0.693740,-0.776855,-0.007080,-0.558105,0.171895,0.017966,0.072011,0.999944,-0.006175,0.007844,-0.003469,0.766610,-0.022406,-0.636234,-0.083742
09159,NaN,13.156245,0.210970,5.566738,-2.933836,-0.415972,4.163418,-0.162357,1.905847,-1.152192,-0.772461,-0.017822,-0.570801,0.132094,0.001394,0.054409,0.999938,-0.000812,0.009529,-0.005761,0.772166,-0.018512,-0.628910,-0.088823
09160,NaN,9.809812,0.042527,4.346413,-2.233162,-0.556008,0.667048,0.746316,1.633099,-1.229811,-0.765625,-0.030762,-0.574951,0.098448,-0.000340,0.042661,0.999941,0.003732,0.008165,-0.006149,0.776782,-0.011035,-0.623009,-0.091370
09161,NaN,8.097529,1.350922,2.714515,-0.697953,0.576413,-1.213727,1.181593,1.253489,-1.109688,-0.752441,-0.047852,-0.587402,0.081216,0.012900,0.026714,0.999948,0.005908,0.006267,-0.005548,0.780226,-0.002318,-0.618694,-0.091973
09162,NaN,6.323588,3.356067,3.041094,-1.051901,2.716481,-2.600728,1.255435,1.173950,-0.815026,-0.748047,-0.058594,-0.589600,0.063549,0.033112,0.030247,0.999955,0.006277,0.005870,-0.004075,0.783465,0.005644,-0.614670,-0.091278
09163,NaN,5.159238,5.146545,2.567901,-0.595725,4.519354,-3.574196,1.096871,1.206145,-0.539744,-0.737305,-0.060547,-0.597900,0.051886,0.051185,0.025648,0.999963,0.005484,0.006031,-0.002699,0.786883,0.012242,-0.610392,-0.089924
09164,NaN,4.458645,6.533025,1.609712,0.330216,5.856509,-4.268040,1.035256,0.893644,-0.327115,-0.734619,-0.077637,-0.602051,0.044765,0.065173,0.016235,0.999975,0.005176,0.004468,-0.001636,0.789384,0.017718,-0.607303,-0.087994
09165,NaN,6.070440,7.254109,-0.028989,2.338653,6.155895,-3.022386,1.081025,-0.117427,-0.217680,-0.740967,-0.082031,-0.599854,0.060783,0.072475,0.000138,0.999985,0.005405,-0.000587,-0.001088,0.788817,0.022602,-0.608214,-0.085634
09166,NaN,9.640190,6.397632,-0.871028,3.810681,4.662270,0.105015,1.183077,-1.064795,-0.342336,-0.753174,-0.094971,-0.584961,0.096554,0.063859,-0.007819,0.999967,0.005915,-0.005324,-0.001712,0.785275,0.027856,-0.612857,-0.083504
09167,NaN,12.008092,2.815056,0.109942,2.874759,0.773536,2.156605,1.148741,-1.595251,-0.368094,-0.757324,-0.101318,-0.572266,0.120118,0.027919,0.002218,0.999950,0.005744,-0.007976,-0.001840,0.779955,0.032869,-0.619601,-0.081757
09168,NaN,11.583931,-1.299087,1.103008,1.240998,-3.180733,1.386891,0.696161,-1.943301,-0.199455,-0.765625,-0.103516,-0.563721,0.115712,-0.013147,0.012109,0.999946,0.003481,-0.009716,-0.000997,0.773699,0.035409,-0.627395,-0.080693
09169,NaN,11.078857,-4.777878,2.662121,-0.909419,-6.439743,0.692194,0.097866,-2.445209,0.124088,-0.778320,-0.097168,-0.540527,0.110482,-0.047724,0.027950,0.999925,0.000489,-0.012226,0.000620,0.765952,0.034393,-0.636916,-0.080446
09170,NaN,14.279299,-6.703260,3.485968,-1.626208,-8.755709,3.665621,-0.278906,-2.462571,0.542725,-0.793457,-0.090820,-0.523438,0.142530,-0.066595,0.036709,0.999920,-0.001394,-0.012313,0.002714,0.758317,0.030607,-0.646275,-0.079672
09171,NaN,19.014840,-7.447487,1.880147,0.231585,-10.187412,7.983664,-0.465810,-2.024654,0.831132,-0.804199,-0.084473,-0.510742,0.190251,-0.073637,0.020899,0.999937,-0.002329,-0.010123,0.004156,0.752116,0.025242,-0.653869,-0.078354
09172,NaN,21.690728,-5.678647,0.905721,1.337434,-8.730919,10.815578,-1.235838,-1.277374,0.646896,-0.806641,-0.073730,-0.504639,0.217024,-0.056022,0.010791,0.999955,-0.006179,-0.006387,0.003234,0.748318,0.017981,-0.658239,-0.080119
09173,NaN,17.165761,-0.091689,-2.677878,4.638918,-2.784953,6.696867,-1.070680,-0.796414,-0.167103,-0.812988,-0.071533,-0.500244,0.171761,-0.001201,-0.026089,0.999977,-0.005353,-0.003982,-0.000836,0.745737,0.014147,-0.660745,-0.084214
09174,NaN,9.572263,-0.629302,-5.668149,6.548177,-2.551748,-1.166308,-0.158498,-1.291082,-0.751225,-0.814941,-0.078125,-0.489746,0.096061,-0.006698,-0.056057,0.999972,-0.000792,-0.006455,-0.003756,0.741148,0.015497,-0.665418,-0.087627
09175,NaN,7.036679,-3.880913,1.170181,-0.919536,-4.793600,-3.322646,-0.054137,-0.846067,-0.950060,-0.818848,-0.084473,-0.485352,0.070131,-0.039139,0.012009,0.999980,-0.000271,-0.004230,-0.004750,0.737919,0.018072,-0.668452,-0.091220
09176,NaN,6.136431,-4.271765,7.916640,-7.732857,-4.455377,-3.573390,0.348975,0.653110,-0.640828,-0.816650,-0.088867,-0.496094,0.061485,-0.043052,0.078891,0.999988,0.001745,0.003266,-0.003204,0.739771,0.021802,-0.666133,-0.092358
09177,NaN,3.013673,-4.786346,3.841083,-3.963272,-4.897338,-7.157181,2.018262,1.150100,0.067494,-0.814209,-0.101562,-0.495850,0.030371,-0.048236,0.037751,0.999932,0.010091,0.005750,0.000337,0.743427,0.029521,-0.662731,-0.085039
09178,NaN,3.971270,-2.849788,-3.928436,4.127694,-3.656823,-6.827462,3.289250,0.383299,0.752317,-0.811768,-0.108154,-0.489502,0.039742,-0.027696,-0.039820,0.999856,0.016445,0.001916,0.003761,0.744427,0.039416,-0.662718,-0.071275
09179,NaN,6.367767,-1.355605,-5.166796,5.787096,-2.403563,-4.352942,3.473087,-0.247049,1.155674,-0.820068,-0.118896,-0.478760,0.063815,-0.012289,-0.051810,0.999832,0.017364,-0.001235,0.005778,0.743227,0.048408,-0.664999,-0.055189
09180,NaN,9.482714,-0.566091,-6.231041,7.201442,-1.805219,-1.213852,2.911939,-0.661545,1.407972,-0.815674,-0.118896,-0.472412,0.095065,-0.004087,-0.062063,0.999864,0.014559,-0.003308,0.007040,0.740613,0.054361,-0.668508,-0.040426
09181,NaN,13.154775,-0.949102,-5.725853,7.021284,-2.380208,2.506500,2.011610,-0.722731,1.384830,-0.828613,-0.110352,-0.468262,0.131813,-0.008006,-0.056868,0.999919,0.010058,-0.003614,0.006924,0.737808,0.057059,-0.671996,-0.028389
09182,NaN,13.775514,-0.289716,-2.864305,4.138942,-1.705651,3.529353,0.847333,-0.456142,1.077952,-0.830811,-0.108154,-0.459717,0.137833,-0.002034,-0.028339,0.999974,0.004237,-0.002281,0.005390,0.736169,0.056499,-0.674086,-0.021693
09183,NaN,12.428835,1.617159,-2.221442,3.237002,0.437001,2.489993,0.096764,-0.268387,0.747557,-0.833252,-0.101807,-0.455566,0.124256,0.016647,-0.022040,0.999992,0.000484,-0.001342,0.003738,0.735233,0.054228,-0.675393,-0.018316
09184,NaN,10.400501,1.850961,-1.894697,2.693283,0.932981,0.534378,-0.290713,-0.238589,0.672720,-0.831299,-0.095459,-0.453613,0.103965,0.018832,-0.018850,0.999993,-0.001454,-0.001193,0.003364,0.734565,0.050867,-0.676419,-0.016887
09185,NaN,8.858251,0.914036,-1.374086,2.044354,0.185016,-1.038974,-0.148021,-0.598254,0.701223,-0.837646,-0.091064,-0.453613,0.088590,0.009441,-0.013483,0.999989,-0.000740,-0.002991,0.003506,0.732517,0.047864,-0.678907,-0.014591
09186,NaN,9.412368,0.730412,-1.384963,2.034425,0.021157,-0.490468,-0.001145,-0.925888,0.856385,-0.850586,-0.084717,-0.440918,0.094154,0.007707,-0.013414,0.999980,-0.000006,-0.004629,0.004282,0.729424,0.044886,-0.682488,-0.011678
09187,NaN,10.224716,0.229259,-1.159002,1.801590,-0.463901,0.310483,-0.064844,-0.677704,0.933727,-0.848633,-0.076172,-0.436768,0.102273,0.002766,-0.011244,0.999983,-0.000324,-0.003388,0.004669,0.727043,0.041416,-0.685291,-0.008291
09188,NaN,10.205761,-0.193921,0.139684,0.482307,-0.856273,0.348421,0.220998,-0.075190,0.914962,-0.846680,-0.069580,-0.436768,0.102065,-0.001474,0.001433,0.999989,0.001105,-0.000376,0.004575,0.726771,0.039082,-0.685754,-0.004221
09189,NaN,8.950184,-1.363942,0.674346,-0.057317,-1.882424,-0.931623,0.450420,0.429521,0.963798,-0.853516,-0.061035,-0.445312,0.089580,-0.013223,0.006521,0.999984,0.002252,0.002148,0.004819,0.728045,0.037422,-0.684506,0.001262
09190,NaN,8.170671,-1.438610,-0.200072,0.815602,-1.776784,-1.747563,0.300738,0.636731,1.192001,-0.844971,-0.056885,-0.449707,0.081784,-0.013896,-0.002282,0.999976,0.001504,0.003184,0.005960,0.730144,0.034433,-0.682392,0.006753
09191,NaN,8.119927,-0.582499,-1.089903,1.684874,-0.757821,-1.809797,0.348130,0.327990,1.296572,-0.847656,-0.043945,-0.451904,0.081217,-0.005279,-0.011042,0.999976,0.001741,0.001640,0.006483,0.731048,0.031237,-0.681485,0.013068
09192,NaN,8.884711,0.873550,-1.011790,1.564903,0.782793,-1.000078,0.101272,-0.304248,1.259517,-0.847656,-0.037598,-0.439209,0.088805,0.009300,-0.009978,0.999979,0.000506,-0.001521,0.006298,0.729898,0.027335,-0.682772,0.017972
09193,NaN,9.305662,1.455969,-0.594555,1.071602,1.439773,-0.547379,-0.204006,-0.962694,1.082662,-0.860840,-0.026855,-0.441406,0.093003,0.015057,-0.005513,0.999973,-0.001020,-0.004813,0.005413,0.726377,0.022995,-0.686577,0.021460
09194,NaN,8.961111,0.808715,0.470733,-0.071553,0.812642,-0.839948,-0.216604,-1.213669,0.928872,-0.858887,-0.016113,-0.424561,0.089542,0.008509,0.005242,0.999970,-0.001083,-0.006068,0.004644,0.722114,0.019150,-0.691094,0.023953
09195,NaN,8.468530,0.869358,0.868021,-0.595035,0.919318,-1.325927,-0.126265,-0.949133,0.807221,-0.865234,-0.013916,-0.418213,0.084607,0.009041,0.009076,0.999980,-0.000631,-0.004746,0.004036,0.718591,0.016026,-0.694737,0.026668
09196,NaN,7.638348,0.673804,0.454394,-0.262132,0.795766,-2.177082,-0.195678,-0.546409,0.753645,-0.867676,-0.003174,-0.420410,0.076345,0.007030,0.004746,0.999989,-0.000978,-0.002732,0.003768,0.716600,0.012777,-0.696779,0.028656
09197,NaN,7.216721,0.635624,-0.482828,0.621550,0.856258,-2.629483,-0.385268,-0.481821,0.693691,-0.869873,-0.001221,-0.409668,0.072156,0.006597,-0.004667,0.999989,-0.001926,-0.002409,0.003468,0.714721,0.009097,-0.698703,0.030072
09198,NaN,7.656779,0.231571,-0.753713,0.882816,0.526832,-2.184405,-0.528248,-0.603615,0.669487,-0.874512,0.011719,-0.405518,0.076582,0.002553,-0.007313,0.999986,-0.002641,-0.003018,0.003347,0.712526,0.004961,-0.700961,0.030595
09199,NaN,8.515381,0.173415,-0.562494,0.652721,0.540177,-1.319166,-0.488603,-0.641335,0.627581,-0.874756,0.018066,-0.407715,0.085165,0.001988,-0.005357,0.999987,-0.002443,-0.003207,0.003138,0.710040,0.001198,-0.703460,0.031406
09200,NaN,8.830917,-0.085452,0.311917,-0.259425,0.306303,-0.984997,-0.513121,-0.538854,0.617896,-0.878906,0.018066,-0.395020,0.088302,-0.000573,0.003359,0.999988,-0.002566,-0.002694,0.003089,0.708042,-0.002712,-0.705449,0.031795
09201,NaN,8.976309,-0.611726,0.384568,-0.364292,-0.156485,-0.816105,-0.623752,-0.528159,0.648338,-0.879395,0.032959,-0.390869,0.089772,-0.005814,0.004101,0.999986,-0.003119,-0.002641,0.003242,0.705951,-0.007023,-0.707494,0.032176
09202,NaN,9.268141,-0.629311,0.622924,-0.659860,-0.104001,-0.526374,-0.693229,-0.583120,0.687525,-0.883789,0.039551,-0.384766,0.092684,-0.005952,0.006520,0.999984,-0.003466,-0.002916,0.003438,0.703742,-0.011808,-0.709629,0.032174
09203,NaN,9.467859,-0.836639,1.499788,-1.603471,-0.248460,-0.328184,-0.769864,-0.708143,0.755935,-0.888428,0.052246,-0.380615,0.094655,-0.007950,0.015364,0.999979,-0.003849,-0.003541,0.003780,0.700912,-0.017020,-0.712307,0.032422
09204,NaN,9.535508,-0.874527,1.171894,-1.347836,-0.193418,-0.262345,-0.490057,-0.653717,0.803425,-0.888428,0.056641,-0.374268,0.095350,-0.008333,0.012051,0.999984,-0.002450,-0.003269,0.004017,0.698399,-0.021493,-0.714598,0.033551
09205,NaN,9.041298,-0.439434,0.246153,-0.479831,0.298063,-0.775042,0.001106,-0.543402,0.822357,-0.890869,0.062988,-0.374268,0.090423,-0.004023,0.002707,0.999988,0.000006,-0.002717,0.004112,0.696195,-0.024274,-0.716500,0.036752
09206,NaN,8.992093,-0.548241,0.060059,-0.338715,0.263257,-0.813953,0.498879,-0.523084,0.848306,-0.882324,0.062988,-0.370117,0.089941,-0.005103,0.000823,0.999984,0.002494,-0.002615,0.004242,0.694214,-0.025480,-0.718116,0.041559
09207,NaN,9.049525,-0.325348,1.032688,-1.362088,0.540725,-0.817246,0.672140,-0.460273,0.884559,-0.893066,0.069336,-0.361572,0.090484,-0.002888,0.010525,0.999982,0.003361,-0.002301,0.004423,0.692392,-0.026068,-0.719493,0.047363
09208,NaN,8.816199,-0.232092,1.139383,-1.500433,0.677571,-1.073895,0.623841,-0.396829,0.915916,-0.895508,0.077881,-0.365967,0.088149,-0.001953,0.011562,0.999983,0.003119,-0.001984,0.004580,0.690816,-0.027109,-0.720588,0.052833
09209,NaN,8.827682,-0.087414,0.899276,-1.305023,0.906299,-1.082325,0.537848,-0.403306,0.946129,-0.895508,0.084473,-0.357422,0.088261,-0.000481,0.009169,0.999983,0.002689,-0.002017,0.004731,0.689088,-0.028397,-0.721767,0.058343
09210,NaN,8.895667,0.114970,0.581844,-1.038159,1.206915,-1.040597,0.513361,-0.401091,0.947522,-0.893555,0.088623,-0.351074,0.088938,0.001556,0.006000,0.999983,0.002567,-0.002005,0.004738,0.687424,-0.029930,-0.722854,0.063521
09211,NaN,9.003541,0.405485,0.244067,-0.764470,1.605318,-0.973821,0.535357,-0.429090,0.931443,-0.895752,0.090820,-0.346924,0.090010,0.004467,0.002645,0.999983,0.002677,-0.002145,0.004657,0.685541,-0.031186,-0.724090,0.068954
09212,NaN,9.079716,1.144637,0.295656,-0.904534,2.420973,-1.028678,0.467639,-0.466370,0.909236,-0.891602,0.099365,-0.340576,0.090737,0.011852,0.003196,0.999984,0.002338,-0.002332,0.004546,0.683600,-0.032713,-0.725375,0.073839
09213,NaN,9.266947,2.171495,0.374788,-1.106944,3.530734,-1.035445,0.360801,-0.464483,0.870194,-0.896240,0.105713,-0.342773,0.092565,0.022111,0.004003,0.999986,0.001804,-0.002322,0.004351,0.681521,-0.034279,-0.726778,0.078405
09214,NaN,9.652550,3.549822,0.293621,-1.180321,5.024726,-0.912270,0.213280,-0.358384,0.803956,-0.896240,0.107910,-0.340820,0.096376,0.035883,0.003147,0.999990,0.001066,-0.001792,0.004020,0.679932,-0.036332,-0.727772,0.081985
09215,NaN,9.803009,4.086803,-0.112447,-0.854750,5.669809,-0.872006,-0.057563,-0.217239,0.686916,-0.896484,0.120850,-0.334473,0.097890,0.041204,-0.001030,0.999993,-0.000288,-0.001086,0.003435,0.678779,-0.038768,-0.728457,0.084301
09216,NaN,9.987016,3.554197,-0.109582,-0.853756,5.231560,-0.631923,-0.400702,-0.181564,0.525687,-0.900635,0.118652,-0.332275,0.099777,0.035802,-0.001077,0.999994,-0.002004,-0.000908,0.002628,0.677813,-0.041964,-0.729137,0.084664
09217,NaN,10.600476,3.732103,0.200174,-1.225593,5.535016,-0.107013,-0.702829,-0.238410,0.364450,-0.896729,0.127197,-0.336670,0.105934,0.037521,0.001996,0.999991,-0.003514,-0.001192,0.001822,0.676549,-0.045456,-0.730239,0.083463
09218,NaN,11.497927,4.285836,-0.306431,-0.799441,6.297881,0.692647,-1.235713,-0.114975,0.187331,-0.901123,0.129395,-0.328125,0.114941,0.042946,-0.003263,0.999980,-0.006179,-0.000575,0.000937,0.675755,-0.050269,-0.731088,0.079614
09219,NaN,11.503124,4.661921,-1.417788,0.361183,6.718232,0.713449,-1.964375,0.058047,0.005197,-0.901367,0.139893,-0.326172,0.115026,0.046480,-0.014668,0.999952,-0.009822,0.000290,0.000026,0.675405,-0.056825,-0.731677,0.072442
09220,NaN,11.181176,3.582155,-4.128457,3.183892,5.633287,0.818536,-1.343250,0.103101,-0.113859,-0.895020,0.140137,-0.328369,0.111811,0.035479,-0.041581,0.999977,-0.006716,0.000515,-0.000569,0.675424,-0.060978,-0.731833,0.067117
09221,NaN,11.431337,2.189163,0.052705,-0.973158,4.194715,1.000636,-0.278778,-0.043755,-0.227626,-0.899170,0.139893,-0.326172,0.114338,0.021762,0.000522,0.999998,-0.001394,-0.000219,-0.001138,0.675210,-0.061007,-0.732194,0.065277
09222,NaN,12.258393,1.069672,3.486103,-4.468998,3.173128,1.742597,-0.656822,-0.153183,-0.335114,-0.898926,0.127197,-0.321777,0.122575,0.010606,0.034920,0.999993,-0.003284,-0.000766,-0.001676,0.674552,-0.061945,-0.733024,0.061791
09223,NaN,12.696764,1.148979,1.436202,-2.460302,3.309220,2.335829,-0.619209,0.084081,-0.401136,-0.896729,0.129395,-0.323975,0.126996,0.011279,0.014273,0.999993,-0.003096,0.000420,-0.002006,0.674758,-0.062491,-0.733095,0.058044
09224,NaN,12.905823,-0.207075,0.048805,-1.091443,1.956931,2.898893,0.023361,0.207575,-0.507862,-0.898682,0.118652,-0.328125,0.129053,-0.002399,0.000354,0.999996,0.000117,0.001038,-0.002539,0.675669,-0.060608,-0.732545,0.056355
09225,NaN,12.418329,-0.825176,-0.587416,-0.397530,1.193745,2.583168,0.468645,0.236180,-0.628293,-0.896484,0.118652,-0.325928,0.124150,-0.008628,-0.006041,0.999992,0.002343,0.001181,-0.003141,0.676838,-0.056695,-0.731824,0.055770
09226,NaN,12.186383,-0.089267,-0.546839,-0.387828,1.804553,2.245816,0.664152,0.167322,-0.714133,-0.889648,0.103516,-0.330078,0.121855,-0.001309,-0.005574,0.999988,0.003321,0.000837,-0.003571,0.677827,-0.051877,-0.731267,0.055739
09227,NaN,11.842560,1.299143,-0.684183,-0.204552,3.040716,1.724802,0.975960,0.277968,-0.778591,-0.893555,0.092773,-0.334229,0.118465,0.012564,-0.006944,0.999980,0.004880,0.001390,-0.003893,0.679286,-0.045743,-0.730266,0.056478
09228,NaN,11.755192,0.963222,-0.471142,-0.390685,2.605857,1.693419,1.436527,0.223672,-0.826632,-0.893311,0.082275,-0.332031,0.117585,0.009180,-0.004776,0.999965,0.007183,0.001118,-0.004133,0.680639,-0.037904,-0.729266,0.058866
09229,NaN,11.234023,0.706206,0.046883,-0.847062,2.168657,1.200160,1.662952,0.271580,-0.854890,-0.890869,0.067139,-0.340332,0.112370,0.006578,0.000372,0.999955,0.008315,0.001358,-0.004274,0.682151,-0.029138,-0.728010,0.061831
09230,NaN,10.335192,0.748866,0.245721,-0.961660,1.982968,0.315453,1.717069,0.343214,-1.092892,-0.890137,0.047852,-0.344482,0.103395,0.006903,0.002341,0.999947,0.008585,0.001716,-0.005464,0.683950,-0.019405,-0.726430,0.064304
09231,NaN,10.968518,1.451662,-0.198003,-0.571212,2.650364,0.915885,1.531019,0.431553,-1.390823,-0.885498,0.030762,-0.344482,0.109778,0.013769,-0.002110,0.999944,0.007655,0.002158,-0.006954,0.686066,-0.009179,-0.724579,0.064917
09232,NaN,11.099714,0.981796,-0.573544,-0.108384,2.069093,1.150905,1.058478,0.763479,-1.709873,-0.887207,0.017822,-0.352783,0.111053,0.008900,-0.006111,0.999942,0.005292,0.003817,-0.008549,0.689394,0.000403,-0.721655,0.062851
09233,NaN,11.976634,-1.138172,-0.187269,-0.235278,-0.191415,2.215313,0.417484,0.993772,-1.873476,-0.882568,0.000732,-0.356934,0.119641,-0.012498,-0.002493,0.999942,0.002087,0.004969,-0.009367,0.693516,0.008357,-0.718076,0.057727
09234,NaN,13.146783,-2.995891,-0.023465,-0.124534,-2.195268,3.490416,0.026271,0.953363,-1.853544,-0.877441,-0.022705,-0.363037,0.131180,-0.031175,-0.000864,0.999946,0.000131,0.004767,-0.009268,0.697433,0.014831,-0.714648,0.051433
09235,NaN,14.599449,-4.952739,-0.789277,0.950788,-4.243814,4.998575,0.090686,1.106884,-1.830478,-0.866699,-0.033447,-0.371582,0.145486,-0.050857,-0.008722,0.999943,0.000453,0.005534,-0.009152,0.701797,0.021474,-0.710610,0.045301
09236,NaN,15.407330,-5.773318,-1.280290,1.712962,-5.241901,5.741533,0.440430,1.111032,-1.809127,-0.861816,-0.056885,-0.379883,0.153468,-0.059094,-0.013786,0.999941,0.002202,0.005555,-0.009045,0.706064,0.029199,-0.706378,0.040637
09237,NaN,16.938386,-6.456148,-1.452834,2.199031,-6.144518,7.160731,1.130706,1.037214,-1.820949,-0.859375,-0.069824,-0.390137,0.168708,-0.066013,-0.015775,0.999929,0.005653,0.005186,-0.009105,0.709859,0.039491,-0.702195,0.038263
09238,NaN,16.437736,-7.391040,-1.039561,2.195304,-7.365402,6.522026,1.914824,1.058868,-1.754037,-0.849854,-0.102051,-0.385742,0.163661,-0.075238,-0.011979,0.999902,0.009574,0.005294,-0.008770,0.713461,0.052243,-0.697657,0.038968
09239,NaN,15.345046,-6.475483,-0.824010,2.173619,-6.680523,5.310592,2.188667,1.039400,-1.710650,-0.845459,-0.110596,-0.398438,0.152842,-0.065963,-0.009753,0.999890,0.010943,0.005197,-0.008553,0.716732,0.065908,-0.693028,0.040775
09240,NaN,14.165178,-2.079743,1.986378,-1.076447,-2.930344,4.300151,1.710852,0.396929,-1.436342,-0.840332,-0.134033,-0.394043,0.141536,-0.021981,0.019398,0.999936,0.008554,0.001985,-0.007182,0.717788,0.076936,-0.690741,0.041686
09241,NaN,14.739770,0.663102,1.325761,-0.776621,-0.371123,4.976251,1.059778,0.015773,-1.493284,-0.835693,-0.146973,-0.395996,0.147442,0.005460,0.013277,0.999958,0.005299,0.000079,-0.007466,0.717678,0.085966,-0.689888,0.040035
09242,NaN,14.118944,2.352493,0.738275,-0.485245,1.183036,4.462565,1.394693,0.175990,-1.800509,-0.826660,-0.166260,-0.391846,0.141400,0.022201,0.007416,0.999935,0.006973,0.000880,-0.009002,0.717997,0.097145,-0.688160,0.038460
09243,NaN,12.912461,1.830890,0.255141,0.081874,0.602242,3.217042,1.434734,0.341328,-1.965324,-0.821777,-0.185547,-0.389404,0.129300,0.017021,0.002456,0.999925,0.007173,0.001707,-0.009826,0.718764,0.109059,-0.685674,0.036542
09244,NaN,11.433757,0.839363,-0.040242,0.557108,-0.395051,1.631350,1.230786,0.286796,-2.031174,-0.814941,-0.207031,-0.389404,0.114414,0.007235,-0.000520,0.999928,0.006154,0.001434,-0.010156,0.719393,0.120390,-0.683264,0.033617
09245,NaN,10.705057,0.349611,-0.138091,0.784383,-0.978916,0.825068,0.899382,0.324545,-2.080489,-0.805664,-0.226318,-0.391357,0.107077,0.002389,-0.001542,0.999934,0.004497,0.001623,-0.010402,0.720232,0.130675,-0.680681,0.029377
09246,NaN,10.147251,0.672281,0.765354,-0.122319,-1.000287,0.335467,0.781109,0.446467,-2.018343,-0.801025,-0.243408,-0.395508,0.101550,0.005669,0.007450,0.999939,0.003905,0.002232,-0.010092,0.721491,0.140288,-0.677600,0.025059
09247,NaN,9.538410,-0.067443,0.572953,0.274850,-1.754611,-0.423516,0.474815,0.583013,-1.989554,-0.787842,-0.260498,-0.393311,0.095387,-0.001636,0.005448,0.999943,0.002374,0.002915,-0.009948,0.723311,0.148666,-0.674036,0.019889
09249,NaN,8.437330,-1.543679,-1.072722,4.528542,-5.605777,5.900581,-0.204562,0.912734,-2.030168,-0.768066,-0.281982,-0.412354,0.167868,-0.034334,-0.022922,0.999750,-0.002045,0.009127,-0.020300,0.729986,0.160655,-0.664291,0.005180
09250,NaN,6.861833,-1.808496,-2.245985,3.422112,-2.646070,-3.755905,-0.904192,1.130689,-2.002481,-0.755127,-0.294678,-0.424805,0.068304,-0.018872,-0.022762,0.999924,-0.004521,0.005653,-0.010012,0.734427,0.163974,-0.658568,-0.004187
09251,NaN,6.304163,-1.242252,-1.730100,2.800662,-2.221155,-4.200195,-1.086410,0.792358,-1.742607,-0.742188,-0.303223,-0.431152,0.062861,-0.013065,-0.017480,0.999939,-0.005432,0.003962,-0.008713,0.737843,0.165734,-0.654170,-0.013513
09252,NaN,5.843225,-0.748166,-1.121295,2.092764,-1.876855,-4.515779,-1.126435,0.513821,-1.446642,-0.731445,-0.305420,-0.441895,0.058347,-0.007967,-0.011319,0.999955,-0.005632,0.002569,-0.007233,0.740279,0.166349,-0.651022,-0.022039
09253,NaN,5.630220,-0.706739,-0.190585,1.176117,-2.058623,-4.653850,-1.195648,0.273555,-1.157073,-0.733643,-0.305420,-0.441895,0.056257,-0.007404,-0.001939,0.999964,-0.005978,0.001368,-0.005785,0.742007,0.165719,-0.648895,-0.029984
09254,NaN,4.462828,-0.646113,1.069428,-0.233839,-1.997936,-5.637581,-1.309159,0.143171,-0.753923,-0.725098,-0.307617,-0.450195,0.044611,-0.006559,0.010705,0.999971,-0.006546,0.000716,-0.003770,0.743372,0.163338,-0.647583,-0.036819
09256,NaN,3.761997,-0.141917,0.884004,-0.527055,-2.600085,-2.547840,-1.902401,-0.426395,-0.150031,-0.725586,-0.292480,-0.458740,0.075159,-0.002610,0.018052,0.999809,-0.019023,-0.004264,-0.001500,0.743517,0.149985,-0.649686,-0.050941
09257,NaN,4.931906,0.749930,0.329536,0.320071,-0.662031,-4.867601,-2.091564,-0.630219,0.369907,-0.734375,-0.277588,-0.456787,0.049294,0.007625,0.003371,0.999939,-0.010458,-0.003151,0.001849,0.743042,0.140853,-0.651791,-0.056718
09258,NaN,6.575811,1.820005,0.467146,0.312447,-0.067266,-2.981171,-2.165554,-0.308495,0.452643,-0.734863,-0.268799,-0.463135,0.065710,0.018399,0.004574,0.999938,-0.010828,-0.001542,0.002263,0.743641,0.131240,-0.652604,-0.062306
09259,NaN,7.158581,2.517201,-0.159551,0.990977,0.556788,-2.308379,-2.039660,0.101322,0.387129,-0.735107,-0.256104,-0.471680,0.071536,0.025292,-0.001889,0.999946,-0.010198,0.000507,0.001936,0.745345,0.122433,-0.651871,-0.067340
09260,NaN,6.612667,1.614839,-0.580356,1.436385,-0.103725,-3.134539,-1.495619,0.448543,0.302572,-0.729248,-0.245361,-0.480225,0.066089,0.016204,-0.006073,0.999968,-0.007478,0.002243,0.001513,0.747798,0.116024,-0.649864,-0.070809
09261,NaN,4.769116,-0.188321,-0.378765,1.085174,-1.368365,-5.354737,-1.171133,0.478230,0.297805,-0.727051,-0.245361,-0.486572,0.047685,-0.001835,-0.003891,0.999979,-0.005856,0.002391,0.001489,0.750070,0.110860,-0.647888,-0.073114
09262,NaN,3.755749,-1.168238,-0.106328,0.704635,-2.063620,-6.537528,-1.092848,0.186926,0.479204,-0.727539,-0.232422,-0.484619,0.037584,-0.011598,-0.001035,0.999982,-0.005464,0.000935,0.002396,0.751440,0.105279,-0.647045,-0.074751
09263,NaN,4.186090,-1.258915,0.041635,0.614994,-2.246822,-6.113577,-1.116643,-0.058066,0.688713,-0.727783,-0.221680,-0.489014,0.041904,-0.012442,0.000498,0.999978,-0.005583,-0.000290,0.003444,0.752029,0.098847,-0.647266,-0.075681
09264,NaN,4.106898,-0.896141,0.147328,0.478542,-1.852324,-6.066870,-1.059888,-0.138139,0.853637,-0.725830,-0.213135,-0.486816,0.041106,-0.008778,0.001549,0.999977,-0.005299,-0.000691,0.004268,0.752408,0.092048,-0.647795,-0.075966
09265,NaN,3.941010,-0.471673,0.127750,0.457273,-1.363993,-6.111252,-0.984021,-0.215981,1.007134,-0.730225,-0.208740,-0.491211,0.039432,-0.004512,0.001343,0.999975,-0.004920,-0.001080,0.005036,0.752473,0.085014,-0.648756,-0.075320
09266,NaN,3.882932,0.000107,0.210098,0.357144,-0.851585,-6.035340,-0.923201,-0.284697,1.175025,-0.743408,-0.196045,-0.487061,0.038825,0.000239,0.002156,0.999971,-0.004616,-0.001423,0.005875,0.752359,0.077623,-0.649964,-0.074010
09267,NaN,4.297774,0.303328,0.531693,0.088098,-0.594330,-5.513361,-0.871236,-0.421440,1.377802,-0.739746,-0.176758,-0.482910,0.042944,0.003353,0.005393,0.999965,-0.004356,-0.002107,0.006889,0.751756,0.069723,-0.651817,-0.071670
09269,NaN,6.705195,0.766565,1.554465,-1.224906,-0.947218,3.950857,-0.975681,-0.489679,1.614374,-0.753418,-0.146729,-0.485107,0.133676,0.017798,0.031579,0.999810,-0.009756,-0.004896,0.016143,0.750255,0.051506,-0.655804,-0.066219
09270,NaN,10.746079,1.161955,2.482752,-1.025388,-0.511011,1.217982,-1.443204,-0.360827,1.722256,-0.758057,-0.133789,-0.476807,0.107309,0.012724,0.024932,0.999935,-0.007216,-0.001804,0.008611,0.749911,0.040334,-0.657157,-0.064428
09271,NaN,12.464655,2.223626,2.517049,-0.799088,0.523225,3.060920,-1.872014,-0.347170,1.671193,-0.758545,-0.112305,-0.477051,0.124410,0.023512,0.025170,0.999920,-0.009360,-0.001736,0.008356,0.749623,0.027712,-0.658144,-0.064375
09272,NaN,14.667181,3.678924,4.458373,-2.333310,2.054409,5.642512,-2.537705,-0.389351,1.481768,-0.767578,-0.095215,-0.485596,0.146305,0.038438,0.044388,0.999890,-0.012688,-0.001947,0.007409,0.749036,0.013207,-0.658993,-0.067074
09273,NaN,18.378615,7.004801,8.972817,-5.875352,5.601218,10.223141,-3.014737,0.469729,0.978267,-0.757568,-0.073730,-0.485840,0.183645,0.072284,0.088218,0.999872,-0.015073,0.002349,0.004891,0.751011,-0.001147,-0.656208,-0.073301
09274,NaN,20.485097,9.105455,9.865461,-5.758873,7.890007,12.646527,-3.345686,1.461991,0.154204,-0.747559,-0.061035,-0.500732,0.205486,0.092829,0.095611,0.999833,-0.016728,0.007310,0.000771,0.755684,-0.013673,-0.649435,-0.083595
09275,NaN,19.810778,7.506693,5.007647,-0.700706,5.825422,11.150036,-2.307313,2.114306,-0.789267,-0.734863,-0.058594,-0.526123,0.198912,0.074838,0.047112,0.999870,-0.011536,0.010571,-0.003946,0.761960,-0.018939,-0.640456,-0.094200
09278,NaN,11.399981,1.067572,2.742590,-1.303068,-0.661405,25.472131,0.032273,1.455735,-1.607075,-0.712646,-0.099365,-0.547119,0.344326,0.023707,0.074788,0.999471,0.000484,0.021832,-0.024102,0.773256,-0.001060,-0.624017,-0.112591
09279,NaN,8.762862,1.252247,4.444634,-2.354478,0.249823,-0.194888,1.424657,0.421837,-1.242879,-0.708008,-0.105713,-0.540771,0.087796,0.011661,0.044346,0.999953,0.007123,0.002109,-0.006214,0.773841,0.008567,-0.623170,-0.112945
09280,NaN,9.323932,2.451407,4.983987,-2.567264,1.224677,0.660749,1.199478,0.521183,-0.783918,-0.701416,-0.118652,-0.542725,0.093463,0.023850,0.049741,0.999971,0.005997,0.002606,-0.003920,0.774934,0.015949,-0.621801,-0.112187
09281,NaN,10.572177,3.831179,3.119757,-0.293932,2.000432,1.680484,1.193233,0.539265,-0.401046,-0.696777,-0.133545,-0.544678,0.105882,0.037914,0.031139,0.999977,0.005966,0.002696,-0.002005,0.776269,0.022125,-0.620339,-0.109983
09282,NaN,11.963550,4.090677,1.363850,1.722177,1.726680,2.668202,1.234151,0.286072,-0.343243,-0.694580,-0.135742,-0.544678,0.119725,0.040617,0.013719,0.999978,0.006171,0.001430,-0.001716,0.776805,0.028140,-0.619870,-0.107443
09283,NaN,12.442237,2.792121,1.455138,1.535416,0.310812,2.925762,0.825115,-0.038081,-0.426016,-0.692139,-0.146484,-0.542480,0.124479,0.027596,0.014689,0.999989,0.004126,-0.000190,-0.002130,0.776330,0.032648,-0.620399,-0.106542
09284,NaN,10.870393,0.294953,1.503159,0.813104,-1.848752,0.977708,0.253503,-0.322359,-0.382190,-0.696289,-0.146484,-0.531982,0.108685,0.002723,0.015210,0.999996,0.001268,-0.001612,-0.001911,0.775065,0.034653,-0.621741,-0.107289
09285,NaN,9.674848,-1.624947,2.154505,-0.393347,-3.429581,-0.380482,-0.151886,-1.453692,-0.052705,-0.702637,-0.144531,-0.519287,0.096584,-0.016258,0.022260,0.999973,-0.000759,-0.007268,-0.000264,0.770520,0.033451,-0.627272,-0.108212
09286,NaN,12.526376,-1.715199,4.563353,-2.408951,-3.850105,2.838149,-0.261506,-1.966436,0.423954,-0.717529,-0.144531,-0.508545,0.124843,-0.016826,0.046885,0.999949,-0.001308,-0.009832,0.002120,0.764570,0.030053,-0.634769,-0.107695
09287,NaN,13.578435,-2.460806,4.419203,-2.401238,-4.684329,3.687146,-0.470093,-1.366378,0.668640,-0.721924,-0.135986,-0.502441,0.135559,-0.024049,0.045176,0.999968,-0.002350,-0.006832,0.003343,0.760636,0.025400,-0.639824,-0.106830
09288,NaN,11.572658,-2.128496,0.634977,0.883980,-4.230528,1.149966,-0.452942,-0.917048,0.596101,-0.724121,-0.129639,-0.491699,0.115758,-0.020925,0.006928,0.999982,-0.002265,-0.004585,0.002980,0.758063,0.021279,-0.643148,-0.106060
09289,NaN,10.526887,-2.058256,-1.736014,2.934040,-4.145366,-0.206937,-0.142637,-1.498861,0.435524,-0.732666,-0.127441,-0.485352,0.105439,-0.020365,-0.016556,0.999969,-0.000713,-0.007494,0.002178,0.753462,0.018545,-0.648785,-0.105021
09290,NaN,12.467326,-2.967529,-0.766605,1.963993,-5.237477,1.743129,0.033559,-1.468938,0.131578,-0.737061,-0.121094,-0.477051,0.124745,-0.029592,-0.006755,0.999973,0.000168,-0.007345,0.000658,0.748735,0.017471,-0.654356,-0.104445
09291,NaN,12.410172,-5.473666,2.348386,-1.561156,-7.321068,1.739485,-0.035408,-0.470358,-0.174573,-0.737061,-0.125244,-0.472656,0.123998,-0.054841,0.023785,0.999997,-0.000177,-0.002352,-0.000873,0.747102,0.017667,-0.656086,-0.105252
09292,NaN,8.242451,-6.858501,2.987591,-2.879018,-7.868626,-2.484759,0.357937,0.130603,-0.183893,-0.736816,-0.131836,-0.474854,0.082381,-0.068714,0.029699,0.999998,0.001790,0.000653,-0.000919,0.747397,0.019669,-0.655799,-0.104590
09293,NaN,6.188915,-6.181379,0.645887,-0.671963,-7.101488,-4.709153,1.203248,0.090917,0.223093,-0.728027,-0.135986,-0.476807,0.061961,-0.061782,0.006059,0.999981,0.006016,0.000455,0.001115,0.747675,0.023484,-0.656103,-0.099796
09294,NaN,6.286622,-4.004680,-1.627890,1.926029,-5.177160,-4.550033,1.785684,0.138097,0.663486,-0.728271,-0.131836,-0.466309,0.062987,-0.039690,-0.016678,0.999954,0.008928,0.000690,0.003317,0.748224,0.028035,-0.656548,-0.091209
09295,NaN,7.173594,-1.833452,-3.032168,3.709370,-3.212482,-3.493294,2.299013,-0.021524,1.007577,-0.730225,-0.138184,-0.462158,0.071829,-0.017623,-0.030519,0.999921,0.011495,-0.000108,0.005038,0.748228,0.033318,-0.657771,-0.079885
09296,NaN,9.157562,-0.296829,-4.424674,5.470219,-1.918201,-1.450885,2.529945,-0.333695,1.224527,-0.742676,-0.140381,-0.453613,0.091663,-0.001849,-0.044122,0.999900,0.012649,-0.001668,0.006122,0.747120,0.038602,-0.660200,-0.066767
09297,NaN,11.260634,0.636345,-4.484255,5.801829,-1.088628,0.792225,2.024251,-0.340303,1.287061,-0.740723,-0.135986,-0.453613,0.112636,0.007540,-0.044579,0.999927,0.010121,-0.001701,0.006435,0.745977,0.041801,-0.662351,-0.055334
09299,NaN,11.499677,0.820561,-2.503765,7.600280,-1.285917,12.487236,0.986313,-0.358665,1.116877,-0.751465,-0.129639,-0.445068,0.229965,0.019467,-0.049068,0.999883,0.009863,-0.003587,0.011168,0.743688,0.041543,-0.666014,-0.040334
09300,NaN,10.405035,1.592828,-1.418754,2.535618,0.443435,0.492055,0.228648,-0.390792,0.926875,-0.751709,-0.125488,-0.440918,0.104002,0.016426,-0.013966,0.999987,0.001143,-0.001954,0.004634,0.742512,0.039230,-0.667702,-0.036203
09301,NaN,9.506293,1.698235,-1.668137,2.643811,0.741498,-0.405454,-0.067957,-0.434064,0.870665,-0.751953,-0.116943,-0.434814,0.095024,0.017390,-0.016481,0.999988,-0.000340,-0.002170,0.004353,0.741170,0.035979,-0.669540,-0.033001
09302,NaN,9.017612,0.771341,-1.759209,2.636466,-0.054052,-0.977956,0.055875,-0.609727,0.841242,-0.756348,-0.110352,-0.428467,0.090196,0.008098,-0.017315,0.999986,0.000279,-0.003049,0.004206,0.739243,0.033271,-0.671955,-0.029802
09303,NaN,9.492361,1.238978,-1.576244,2.433510,0.452762,-0.432041,0.319501,-0.717648,0.854330,-0.767090,-0.104004,-0.424072,0.094925,0.012820,-0.015402,0.999983,0.001597,-0.003588,0.004272,0.736825,0.031464,-0.674873,-0.025415
09304,NaN,9.862677,1.813804,-1.639244,2.456677,1.084430,-0.012835,0.331523,-0.601191,0.864735,-0.771484,-0.101807,-0.415771,0.098596,0.018591,-0.016065,0.999985,0.001658,-0.003006,0.004324,0.734838,0.029692,-0.677261,-0.021200
09305,NaN,9.612030,1.077475,-0.996505,1.734283,0.444066,-0.255525,0.388392,-0.618513,0.731413,-0.769287,-0.097656,-0.411621,0.096110,0.011145,-0.009646,0.999987,0.001942,-0.003093,0.003657,0.732672,0.028567,-0.679769,-0.017026
09306,NaN,8.936534,-0.674653,-0.021445,0.676127,-1.210712,-0.958666,0.526420,-0.639974,0.733860,-0.771484,-0.097656,-0.407227,0.089389,-0.006418,0.000054,0.999985,0.002632,-0.003200,0.003669,0.730468,0.027948,-0.682258,-0.012634
09307,NaN,8.872589,-1.038313,0.800133,-0.182632,-1.518006,-0.975100,0.557297,-0.345420,0.878515,-0.771729,-0.084717,-0.405273,0.088756,-0.010016,0.008126,0.999985,0.002786,-0.001727,0.004393,0.729167,0.026954,-0.683765,-0.007310
09308,NaN,8.865450,-1.251323,0.030497,0.572128,-1.628275,-1.027263,0.525685,-0.166564,0.988786,-0.767578,-0.084717,-0.405273,0.088715,-0.012076,0.000347,0.999984,0.002628,-0.000833,0.004944,0.728547,0.025485,-0.684519,-0.001925
09309,NaN,8.843035,-0.526495,-0.652166,1.217533,-0.786626,-1.049133,0.532300,-0.084991,1.012187,-0.776123,-0.080566,-0.401123,0.088458,-0.004800,-0.006497,0.999984,0.002661,-0.000425,0.005061,0.728095,0.023945,-0.685048,0.003844
09310,NaN,8.642542,-0.025541,-0.677941,1.193227,-0.190945,-1.228233,0.463958,-0.298823,0.961534,-0.778564,-0.069824,-0.394775,0.086435,0.000176,-0.006650,0.999985,0.002320,-0.001494,0.004808,0.726981,0.022347,-0.686236,0.008904
09311,NaN,8.318909,-0.661283,-0.829747,1.309132,-0.731251,-1.561581,0.335167,-0.663172,0.864481,-0.782959,-0.065430,-0.390625,0.083244,-0.006239,-0.008032,0.999984,0.001676,-0.003316,0.004322,0.724519,0.020614,-0.688816,0.013392
09312,NaN,8.018271,-1.213157,0.003328,0.425440,-1.249922,-1.811419,0.325311,-0.907074,0.893302,-0.782959,-0.063477,-0.377930,0.080235,-0.011774,0.000378,0.999978,0.001627,-0.004535,0.004466,0.721281,0.018777,-0.692163,0.017661
09313,NaN,8.265010,-0.836621,-0.347494,0.687744,-0.781820,-1.563698,0.183357,-0.957150,0.927865,-0.789551,-0.054932,-0.371582,0.082703,-0.007980,-0.003087,0.999977,0.000917,-0.004786,0.004639,0.717749,0.016296,-0.695769,0.021825
09314,NaN,8.409794,-0.428221,-0.376357,0.619517,-0.299301,-1.411773,0.269482,-0.890352,0.875177,-0.791748,-0.052734,-0.369385,0.084131,-0.003909,-0.003395,0.999980,0.001347,-0.004452,0.004376,0.714514,0.014316,-0.698998,0.025837
09315,NaN,8.682667,0.402784,0.379546,-0.249508,0.562962,-1.134258,0.368934,-0.661848,0.801345,-0.787598,-0.048584,-0.363281,0.086796,0.004368,0.004091,0.999985,0.001845,-0.003309,0.004007,0.711951,0.012903,-0.701460,0.030215
09317,NaN,8.669783,0.194541,0.429516,-0.724250,0.883575,7.514679,0.515407,-0.447273,0.723489,-0.791992,-0.040039,-0.350586,0.173321,0.005098,0.009390,0.999951,0.005154,-0.004473,0.007235,0.708487,0.011632,-0.704553,0.038928
09318,NaN,8.906701,0.012198,0.337461,-0.324526,0.367895,-0.913126,0.381831,-0.434166,0.752149,-0.798340,-0.040039,-0.348389,0.089058,0.000450,0.003569,0.999989,0.001909,-0.002171,0.003761,0.706672,0.010403,-0.706146,0.043173
09319,NaN,9.140156,0.209567,-0.013536,-0.036427,0.666419,-0.694544,0.298728,-0.478554,0.767816,-0.802979,-0.027100,-0.344238,0.091393,0.002447,0.000087,0.999989,0.001494,-0.002393,0.003839,0.704787,0.008851,-0.707810,0.046923
09320,NaN,8.979686,0.034775,-0.050871,-0.039912,0.556578,-0.850179,0.331365,-0.558542,0.788993,-0.805176,-0.024902,-0.340088,0.089796,0.000703,-0.000257,0.999987,0.001657,-0.002793,0.003945,0.702493,0.007341,-0.709816,0.051101
09321,NaN,8.995023,0.330435,0.427719,-0.602197,0.880100,-0.864806,0.312987,-0.650435,0.852701,-0.803223,-0.016357,-0.333740,0.089921,0.003681,0.004575,0.999984,0.001565,-0.003252,0.004263,0.699938,0.005580,-0.712047,0.055190
09322,NaN,8.848380,0.538820,0.671323,-0.930254,1.129632,-1.043849,0.220218,-0.706274,0.908967,-0.805420,-0.018555,-0.329590,0.088434,0.005783,0.007032,0.999983,0.001101,-0.003531,0.004545,0.697046,0.003292,-0.714557,0.059374
09323,NaN,8.860755,0.651346,0.690458,-1.029619,1.314204,-1.059070,0.242750,-0.695889,0.946284,-0.807861,-0.003662,-0.323242,0.088551,0.006924,0.007221,0.999982,0.001214,-0.003479,0.004731,0.694255,0.000964,-0.716919,0.063534
09324,NaN,9.193368,0.814183,1.163891,-1.598916,1.539306,-0.778938,0.357648,-0.628201,0.967523,-0.810059,-0.003662,-0.319092,0.091856,0.008565,0.011943,0.999982,0.001788,-0.003141,0.004838,0.691577,-0.001080,-0.719057,0.068394
09325,NaN,9.164348,0.741169,1.622894,-2.109023,1.495724,-0.841486,0.390557,-0.497616,0.965006,-0.805908,0.007080,-0.312744,0.091566,0.007822,0.016472,0.999983,0.001953,-0.002488,0.004825,0.689441,-0.003029,-0.720633,0.073145
09326,NaN,9.567052,0.891845,1.944500,-2.519981,1.733262,-0.498739,0.350605,-0.446711,0.966217,-0.814697,0.017822,-0.308594,0.095582,0.009346,0.019675,0.999984,0.001753,-0.002234,0.004831,0.687376,-0.005156,-0.722088,0.077950
09327,NaN,9.568757,1.081732,1.741988,-2.387847,2.020918,-0.540197,0.298268,-0.375071,0.955557,-0.814697,0.017822,-0.308594,0.095602,0.011248,0.017616,0.999986,0.001491,-0.001875,0.004778,0.685640,-0.007435,-0.723232,0.082328
09328,NaN,9.336671,1.319513,0.661159,-1.371500,2.425682,-0.780191,0.239157,-0.328037,0.938241,-0.814941,0.024170,-0.300293,0.093292,0.013625,0.006781,0.999987,0.001196,-0.001640,0.004691,0.683983,-0.009889,-0.724272,0.086604
09329,NaN,9.217040,1.445576,-0.851130,0.083557,2.782291,-0.867347,0.171214,-0.308849,0.907640,-0.812988,0.032715,-0.291748,0.092116,0.014881,-0.008356,0.999988,0.000856,-0.001544,0.004538,0.682464,-0.012457,-0.725206,0.090351
09330,NaN,9.139736,1.361616,-1.708356,0.908247,2.864703,-0.909024,0.015464,-0.311321,0.854295,-0.819580,0.039062,-0.289795,0.091365,0.014008,-0.016940,0.999990,0.000077,-0.001557,0.004271,0.680863,-0.015376,-0.726256,0.093499
09331,NaN,9.266998,0.914093,-2.039687,1.239307,2.552394,-0.712025,-0.079172,-0.297613,0.791270,-0.809082,0.041260,-0.289795,0.092663,0.009500,-0.020263,0.999991,-0.000396,-0.001488,0.003956,0.679392,-0.018380,-0.727245,0.095936
09332,NaN,9.770852,0.745059,-1.414129,0.562490,2.460266,-0.239041,-0.256347,-0.285940,0.708338,-0.815918,0.054199,-0.285645,0.097701,0.007779,-0.014011,0.999992,-0.001282,-0.001430,0.003542,0.677899,-0.021703,-0.728328,0.097569
09333,NaN,10.177555,0.829664,-0.837177,-0.080625,2.601213,0.096839,-0.420877,-0.249673,0.578874,-0.817871,0.056396,-0.285645,0.101761,0.008574,-0.008263,0.999993,-0.002104,-0.001248,0.002894,0.676649,-0.025117,-0.729318,0.098034
09335,NaN,10.632341,1.730350,-0.703029,-0.738937,7.213865,10.523297,-0.497119,-0.199660,0.378233,-0.816162,0.066895,-0.272949,0.212542,0.035342,-0.013811,0.999978,-0.004971,-0.001997,0.003782,0.674599,-0.031054,-0.731107,0.097126
09336,NaN,11.246433,3.232178,-0.979285,-0.289415,5.254746,0.684554,-0.649792,-0.106591,0.189308,-0.818359,0.066895,-0.279297,0.112439,0.032396,-0.009838,0.999994,-0.003249,-0.000533,0.000947,0.674005,-0.033887,-0.731755,0.095414
09337,NaN,10.695031,3.545655,-0.775257,-0.453669,5.452276,0.067758,-0.773923,-0.029140,0.032524,-0.818115,0.064941,-0.275146,0.106946,0.035444,-0.007874,0.999992,-0.003870,-0.000146,0.000163,0.673671,-0.036607,-0.732273,0.092754
09338,NaN,10.779511,2.636894,-1.265963,0.105736,4.611781,0.359530,-0.376019,-0.049023,-0.102399,-0.818359,0.066895,-0.272949,0.107812,0.026290,-0.012683,0.999998,-0.001880,-0.000245,-0.000512,0.673461,-0.037477,-0.732636,0.091050
09339,NaN,11.209724,2.072785,1.625105,-2.769654,3.883286,0.667981,-0.445038,-0.137478,-0.149378,-0.816162,0.066895,-0.272949,0.112102,0.020680,0.016282,0.999997,-0.002225,-0.000687,-0.000747,0.672870,-0.038368,-0.733390,0.088959
09340,NaN,11.680423,2.683087,1.439358,-2.672820,4.565525,1.036966,-0.403260,-0.149842,-0.214168,-0.813965,0.062744,-0.272949,0.116822,0.026735,0.014427,0.999997,-0.002016,-0.000749,-0.001071,0.672328,-0.038874,-0.734118,0.086797
09341,NaN,12.103760,2.716926,0.632338,-1.922472,4.708098,1.519584,-0.328537,-0.181133,-0.272908,-0.813965,0.066895,-0.270996,0.121069,0.027015,0.006389,0.999997,-0.001643,-0.000906,-0.001365,0.671663,-0.038896,-0.734972,0.084691
09342,NaN,13.185037,2.612363,0.364609,-1.767286,4.770715,2.633972,0.013674,-0.137897,-0.368756,-0.815918,0.062744,-0.264648,0.131896,0.025880,0.003739,0.999998,0.000068,-0.000689,-0.001844,0.671305,-0.037438,-0.735506,0.083539
09343,NaN,12.461529,2.657838,0.379075,-1.726319,4.639038,1.934496,0.402637,0.034812,-0.483441,-0.813477,0.054199,-0.266602,0.124680,0.026269,0.003822,0.999995,0.002013,0.000174,-0.002417,0.671666,-0.034317,-0.735352,0.083335
09344,NaN,11.667506,2.971144,-0.352814,-0.945075,4.812962,1.188435,0.415197,0.080430,-0.590168,-0.811279,0.047607,-0.264404,0.116761,0.029374,-0.003514,0.999993,0.002076,0.000402,-0.002951,0.672266,-0.030787,-0.735012,0.082874
09345,NaN,11.655598,3.468166,-0.574426,-0.753878,5.247566,1.146566,0.430302,0.161885,-0.702048,-0.811035,0.039062,-0.262207,0.116672,0.034285,-0.005765,0.999991,0.002152,0.000809,-0.003510,0.673180,-0.026816,-0.734431,0.081980
09346,NaN,11.265129,4.017185,-0.571708,-0.750972,5.652554,0.715927,0.385366,0.199817,-0.789125,-0.804688,0.036865,-0.272949,0.112803,0.039738,-0.005753,0.999990,0.001927,0.000999,-0.003946,0.674273,-0.022704,-0.733706,0.080720
09347,NaN,11.544274,3.235306,-0.207389,-1.062434,4.799270,1.124303,0.540128,0.301618,-0.894584,-0.804199,0.026123,-0.268555,0.115583,0.031842,-0.002162,0.999985,0.002701,0.001508,-0.004473,0.675766,-0.017705,-0.732601,0.079519
09348,NaN,11.514503,2.347484,0.170892,-1.335431,3.782201,1.234214,0.577771,0.339667,-0.999299,-0.803955,0.013428,-0.268555,0.115263,0.022894,0.001580,0.999982,0.002889,0.001698,-0.004996,0.677438,-0.012228,-0.731305,0.078236
09349,NaN,11.271255,0.525907,0.063582,-1.006895,1.845437,1.273377,0.443233,0.377074,-1.136326,-0.797363,0.006836,-0.270508,0.112741,0.004617,0.000434,0.999980,0.002216,0.001885,-0.005682,0.679254,-0.006696,-0.729945,0.075822
09350,NaN,11.597109,-1.239028,0.022867,-0.756662,0.006754,1.825765,0.129090,0.631828,-1.344021,-0.794678,-0.008057,-0.274658,0.115884,-0.013169,-0.000146,0.999972,0.000645,0.003159,-0.006720,0.682046,-0.001592,-0.727782,0.071713
09351,NaN,11.365096,-2.880709,0.239867,-0.697860,-1.822954,1.750525,-0.137329,0.880450,-1.515742,-0.792480,-0.016602,-0.282959,0.113437,-0.029666,0.001919,0.999961,-0.000687,0.004402,-0.007579,0.685748,0.003167,-0.724845,0.065869
09352,NaN,11.672432,-4.339298,0.276742,-0.488050,-3.417879,2.155070,-0.123369,1.055450,-1.605076,-0.785645,-0.029541,-0.287109,0.116384,-0.044326,0.002180,0.999954,-0.000617,0.005277,-0.008025,0.690064,0.008213,-0.721215,0.059940
09353,NaN,12.831679,-5.307646,-0.145436,0.117421,-4.448386,3.341642,0.204394,1.005185,-1.633457,-0.785400,-0.040039,-0.295654,0.127868,-0.054120,-0.002153,0.999953,0.001022,0.005026,-0.008167,0.694119,0.014532,-0.717614,0.054938
09354,NaN,13.801944,-6.396015,-0.533376,0.752187,-5.641232,4.304338,0.562176,0.967302,-1.624239,-0.776611,-0.050781,-0.303955,0.137466,-0.065061,-0.006181,0.999951,0.002811,0.004836,-0.008121,0.697953,0.022045,-0.713957,0.051393
09355,NaN,14.591891,-6.561252,-1.140815,1.559366,-5.921198,5.012088,0.745072,1.002856,-1.612327,-0.767578,-0.067871,-0.310303,0.145323,-0.066741,-0.012385,0.999948,0.003725,0.005014,-0.008061,0.701806,0.030163,-0.710079,0.048433
09356,NaN,15.031644,-6.637080,-2.131435,2.791925,-6.082561,5.344511,0.804288,1.273887,-1.668484,-0.760986,-0.078613,-0.314453,0.149615,-0.067532,-0.022539,0.999937,0.004021,0.006369,-0.008342,0.706559,0.038598,-0.705126,0.045630
09357,NaN,15.026587,-5.799912,-3.189932,4.041780,-5.317019,5.187076,1.457015,1.477071,-1.724232,-0.756348,-0.089355,-0.320801,0.149517,-0.059050,-0.033433,0.999909,0.007285,0.007385,-0.008621,0.711781,0.049498,-0.699215,0.044905
09358,NaN,14.910358,-0.795381,1.103707,-0.672179,-1.126001,5.101904,1.553711,0.306262,-1.452791,-0.751709,-0.108643,-0.320557,0.149057,-0.009121,0.010741,0.999942,0.007768,0.001531,-0.007264,0.712744,0.060035,-0.697385,0.045247
09359,NaN,15.941021,0.812162,1.148049,-0.869680,0.198584,6.165191,0.959509,0.020327,-1.524701,-0.744873,-0.119385,-0.316406,0.159467,0.006851,0.011499,0.999959,0.004797,0.000102,-0.007623,0.712801,0.068774,-0.696652,0.043138
09360,NaN,15.303697,1.957687,0.951602,-0.813463,1.123833,5.582443,1.029396,0.386876,-1.720792,-0.738037,-0.136475,-0.318359,0.153216,0.018211,0.009316,0.999948,0.005147,0.001934,-0.008604,0.714120,0.078349,-0.694431,0.040728
09361,NaN,14.281250,1.239083,0.649515,-0.340688,0.255324,4.530380,1.052600,0.428134,-1.861401,-0.735596,-0.151611,-0.320312,0.142933,0.011028,0.006250,0.999941,0.005263,0.002141,-0.009307,0.715493,0.088490,-0.691957,0.037873
09362,NaN,13.347644,1.469729,0.868628,-0.544353,0.247914,3.630170,1.140227,0.392389,-1.911838,-0.728760,-0.166504,-0.320312,0.133625,0.013372,0.008503,0.999936,0.005701,0.001962,-0.009559,0.716654,0.099104,-0.689456,0.035156
09363,NaN,13.059623,0.695699,0.270415,0.262365,-0.626694,3.250355,0.723564,0.372814,-2.044949,-0.719971,-0.177246,-0.322266,0.130663,0.005612,0.002483,0.999939,0.003618,0.001864,-0.010225,0.717860,0.108687,-0.686975,0.030475
09364,NaN,11.052901,-0.435532,-0.251390,0.985273,-1.644723,1.084053,0.762584,0.583001,-2.071750,-0.715088,-0.194336,-0.326416,0.110468,-0.005489,-0.002855,0.999935,0.003813,0.002915,-0.010359,0.719709,0.118444,-0.683605,0.025979
09365,NaN,10.042262,-0.627358,0.946695,-0.081550,-2.136679,0.064585,0.909183,1.116012,-1.842913,-0.704102,-0.205078,-0.330566,0.100410,-0.007240,0.008875,0.999932,0.004546,0.005580,-0.009214,0.723136,0.127873,-0.678372,0.023094
09366,NaN,9.553828,-0.958847,0.556031,0.476593,-2.461265,-0.527458,0.444298,1.059405,-1.895022,-0.699707,-0.211426,-0.334717,0.095469,-0.010505,0.005032,0.999939,0.002221,0.005297,-0.009475,0.726612,0.135777,-0.673246,0.018431
09367,NaN,8.977868,0.027225,-0.162824,1.038366,-1.410396,-1.005918,0.057902,0.820333,-1.851667,-0.680176,-0.232910,-0.343262,0.089768,-0.000558,-0.001997,0.999949,0.000290,0.004102,-0.009258,0.729430,0.142145,-0.669008,0.012452
09368,NaN,8.048315,-0.996706,-1.339500,2.396475,-2.104961,-2.237285,-0.281618,0.812407,-1.872590,-0.677734,-0.237061,-0.351562,0.080330,-0.010739,-0.013707,0.999947,-0.001408,0.004062,-0.009363,0.732417,0.147324,-0.664706,0.005263
09369,NaN,7.432346,-1.433652,-1.905405,3.054191,-2.406857,-3.044966,-0.959940,1.124579,-1.835555,-0.665039,-0.245605,-0.368408,0.074079,-0.015110,-0.019400,0.999931,-0.004800,0.005623,-0.009178,0.736817,0.149874,-0.659261,-0.003808
09370,NaN,6.160338,-0.816409,-1.844144,2.797618,-1.683528,-4.213189,-1.671351,1.307230,-1.566886,-0.658691,-0.243408,-0.374756,0.061414,-0.008802,-0.018771,0.999913,-0.008357,0.006536,-0.007834,0.742276,0.148894,-0.653191,-0.014104
09371,NaN,4.858896,-0.664717,-1.224728,2.037363,-1.464025,-5.424532,-1.631214,0.819560,-1.106525,-0.650146,-0.243408,-0.385498,0.048500,-0.007016,-0.012390,0.999943,-0.008156,0.004098,-0.005533,0.745996,0.146506,-0.649232,-0.022897
09372,NaN,4.617757,-1.233845,-0.622427,1.515727,-2.118626,-5.757162,-1.653002,0.153732,-0.693705,-0.648193,-0.241211,-0.389648,0.046130,-0.012550,-0.006157,0.999960,-0.008265,0.000769,-0.003468,0.747588,0.142604,-0.647945,-0.030731
09373,NaN,3.681988,-1.251087,-0.200195,0.939003,-2.023290,-6.621010,-2.000461,-0.110884,-0.391444,-0.644287,-0.232666,-0.394043,0.036796,-0.012602,-0.001856,0.999948,-0.010002,-0.000554,-0.001957,0.748500,0.136372,-0.647805,-0.038709
09374,NaN,3.224685,-1.308465,-0.344340,0.980740,-1.966332,-7.092251,-2.318050,-0.402781,0.021312,-0.648682,-0.226318,-0.398193,0.032255,-0.013119,-0.003227,0.999931,-0.011590,-0.002014,0.000107,0.748721,0.127540,-0.648844,-0.046404
09375,NaN,4.341206,-0.724380,-0.441804,1.148997,-1.662371,-5.877951,-2.542923,-0.606124,0.291654,-0.653320,-0.213379,-0.406738,0.043436,-0.007235,-0.004194,0.999914,-0.012714,-0.003031,0.001458,0.748322,0.116921,-0.650723,-0.053887
09376,NaN,5.672574,0.515036,-0.223922,1.014095,-0.792721,-4.259609,-2.497600,-0.408618,0.349890,-0.655762,-0.204834,-0.408936,0.056721,0.005222,-0.002188,0.999918,-0.012488,-0.002043,0.001749,0.748477,0.106318,-0.651740,-0.060933
09377,NaN,6.174137,0.766272,0.343843,0.513978,-0.688273,-3.641190,-2.237715,0.010095,0.317493,-0.654053,-0.191895,-0.413330,0.061729,0.007799,0.003349,0.999936,-0.011188,0.000050,0.001587,0.749689,0.096902,-0.651224,-0.066963
09378,NaN,6.056774,0.399562,0.444138,0.427824,-0.995715,-3.823796,-1.929327,0.294771,0.316420,-0.652344,-0.181152,-0.426025,0.060568,0.004133,0.004313,0.999951,-0.009646,0.001474,0.001582,0.751645,0.088733,-0.649605,-0.071907
09379,NaN,4.551853,-0.097610,0.020970,0.647805,-1.104747,-5.443570,-1.884821,0.280096,0.324145,-0.650391,-0.174805,-0.421875,0.045520,-0.000901,0.000155,0.999953,-0.009424,0.001400,0.001621,0.753412,0.080689,-0.648066,-0.076615
09380,NaN,4.275357,-1.477314,0.007161,0.598418,-2.372204,-6.008003,-1.715326,-0.028045,0.496562,-0.652832,-0.159668,-0.430420,0.042790,-0.014666,0.000204,0.999960,-0.008577,-0.000140,0.002483,0.754165,0.072604,-0.647700,-0.080304
09381,NaN,5.176467,-0.566485,0.641742,0.110118,-1.651406,-4.833818,-1.484893,-0.096226,0.563884,-0.652832,-0.157715,-0.426270,0.051777,-0.005471,0.006483,0.999968,-0.007424,-0.000481,0.002819,0.754534,0.065130,-0.647733,-0.082942
09382,NaN,4.802585,-0.469503,0.357986,0.330277,-1.445006,-5.206585,-1.254510,-0.061207,0.644360,-0.655518,-0.146973,-0.430664,0.048039,-0.004518,0.003623,0.999975,-0.006272,-0.000306,0.003222,0.754984,0.058282,-0.647648,-0.084585
09383,NaN,4.276847,-0.397598,0.003895,0.598181,-1.242348,-5.744742,-1.008064,-0.165383,0.738427,-0.655518,-0.140381,-0.426514,0.042783,-0.003818,0.000094,0.999980,-0.005040,-0.000827,0.003692,0.754978,0.052003,-0.648132,-0.085022
09384,NaN,4.000716,-0.411209,0.184901,0.368053,-1.163003,-5.975912,-0.809547,-0.286888,0.855225,-0.666504,-0.131836,-0.428467,0.040022,-0.003933,0.001923,0.999982,-0.004048,-0.001434,0.004276,0.754601,0.046052,-0.649091,-0.084483
09385,NaN,4.345420,-0.155527,0.491865,0.117412,-0.923013,-5.536843,-0.694786,-0.395539,0.984527,-0.662354,-0.125488,-0.424316,0.043451,-0.001324,0.005009,0.999980,-0.003474,-0.001978,0.004923,0.753815,0.040053,-0.650589,-0.083021
09386,NaN,5.781417,-0.008120,1.109215,-0.298257,-0.944139,-4.009724,-0.763054,-0.426920,1.081506,-0.666748,-0.119141,-0.422363,0.057789,0.000274,0.011215,0.999976,-0.003815,-0.002135,0.005407,0.753001,0.033480,-0.652093,-0.081503
09387,NaN,8.387256,0.104778,1.791980,-0.630076,-1.132633,-1.334057,-1.005766,-0.360471,1.168001,-0.667236,-0.108398,-0.420166,0.083832,0.001628,0.018064,0.999969,-0.005029,-0.001802,0.005840,0.752384,0.025720,-0.653301,-0.080347
09388,NaN,10.641518,0.339508,2.737315,-1.250578,-1.046475,1.058778,-1.343023,-0.144808,1.191841,-0.673828,-0.097656,-0.422363,0.106372,0.004213,0.027424,0.999959,-0.006715,-0.000724,0.005959,0.752523,0.016714,-0.653443,-0.080258
09389,NaN,12.456766,-0.030164,2.994032,-1.300427,-1.464959,2.848099,-1.501388,-0.183300,1.260612,-0.676270,-0.082520,-0.418213,0.124538,0.000709,0.030052,0.999952,-0.007507,-0.000916,0.006303,0.752459,0.006852,-0.653685,-0.080332
09390,NaN,13.204367,1.310658,4.029651,-2.069250,0.077975,3.899306,-1.804141,-0.310097,1.209070,-0.677002,-0.065430,-0.416260,0.131897,0.014268,0.040376,0.999940,-0.009021,-0.001550,0.006045,0.751940,-0.004014,-0.654140,-0.081678
09391,NaN,16.170539,4.326366,6.967573,-4.137580,3.314692,7.526140,-2.204179,-0.245984,1.036320,-0.681396,-0.054688,-0.422852,0.161390,0.044866,0.069386,0.999925,-0.011021,-0.001230,0.005181,0.751404,-0.015813,-0.654169,-0.084880
09392,NaN,19.608460,7.401867,10.119307,-6.094129,6.720585,11.619880,-2.640085,0.621418,0.547480,-0.673584,-0.039795,-0.429199,0.196190,0.075877,0.099590,0.999904,-0.013200,0.003107,0.002737,0.753380,-0.027259,-0.650619,-0.091490
09393,NaN,19.695467,7.024605,8.761766,-4.401266,6.305510,11.515107,-2.118781,1.489157,-0.267552,-0.667236,-0.037598,-0.433594,0.197691,0.070894,0.085399,0.999915,-0.010594,0.007446,-0.001338,0.757715,-0.033702,-0.644071,-0.099522
09394,NaN,18.013393,3.656881,5.980595,-2.148223,2.602349,9.219224,-1.332074,2.311335,-1.108842,-0.656494,-0.041748,-0.454590,0.181008,0.035955,0.057477,0.999896,-0.006660,0.011556,-0.005544,0.764295,-0.034026,-0.634782,-0.108383
09395,NaN,13.005209,0.682863,3.869672,-1.219062,-0.322253,3.714080,-0.150903,2.496780,-1.487463,-0.647705,-0.054688,-0.467285,0.130568,0.005887,0.037064,0.999894,-0.000754,0.012483,-0.007437,0.771287,-0.028533,-0.625375,-0.114926
09396,NaN,9.068516,0.499740,2.252607,-0.258918,-0.467478,-0.470714,1.059623,1.653684,-1.451146,-0.641113,-0.065430,-0.471436,0.090900,0.004222,0.021799,0.999925,0.005298,0.008268,-0.007256,0.775710,-0.018959,-0.619779,-0.117427
09397,NaN,7.445828,1.943796,2.678022,-0.639700,1.106668,-1.765644,1.634449,0.774672,-1.176344,-0.632080,-0.078125,-0.479736,0.074673,0.018781,0.026647,0.999942,0.008172,0.003873,-0.005882,0.777513,-0.008529,-0.617836,-0.116956
09398,NaN,7.285591,4.435023,3.661987,-1.155863,3.583576,-1.328592,1.503743,0.429723,-0.853920,-0.637939,-0.095215,-0.473389,0.073123,0.043762,0.036793,0.999960,0.007519,0.002149,-0.004270,0.778367,0.000205,-0.617068,-0.115635
09399,NaN,6.737141,6.042137,4.896476,-2.202777,5.316464,-1.283095,1.069724,0.645813,-0.523602,-0.627441,-0.097412,-0.479736,0.067687,0.059982,0.049068,0.999977,0.005349,0.003229,-0.002618,0.780024,0.006352,-0.615180,-0.114350
09400,NaN,6.378549,6.875765,3.547926,-0.859780,5.945669,-1.784035,0.873822,0.711763,-0.252659,-0.625000,-0.103760,-0.479736,0.063999,0.068522,0.035551,0.999983,0.004369,0.003559,-0.001263,0.782020,0.010942,-0.612897,-0.112614
09401,NaN,7.163539,7.264409,0.543275,2.228537,5.776707,-1.685824,0.985714,0.078313,-0.247812,-0.629395,-0.103760,-0.477539,0.071728,0.072527,0.005762,0.999987,0.004929,0.000392,-0.001239,0.782046,0.015610,-0.613134,-0.110573
09402,NaN,9.758005,5.902154,-1.502822,4.453588,3.713982,0.121178,1.258741,-1.071349,-0.315480,-0.637451,-0.116699,-0.464844,0.097750,0.058958,-0.014134,0.999965,0.006294,-0.005357,-0.001577,0.778454,0.020904,-0.617984,-0.108019
09403,NaN,11.453983,2.265249,-0.693481,3.313143,-0.078910,1.404169,1.173336,-1.897649,-0.179656,-0.641357,-0.123291,-0.449951,0.114618,0.022585,-0.005715,0.999937,0.005867,-0.009488,-0.000898,0.772297,0.025026,-0.625969,-0.105328
09404,NaN,10.089875,-1.933956,0.350437,1.251696,-3.798730,-0.343419,0.461861,-2.373355,0.086390,-0.656250,-0.123291,-0.439209,0.100856,-0.019306,0.004657,0.999927,0.002309,-0.011866,0.000432,0.764792,0.025285,-0.635353,-0.103829
09405,NaN,9.309823,-5.493003,2.224549,-1.412188,-6.895902,-1.313273,-0.264584,-2.814800,0.507030,-0.664795,-0.119141,-0.420166,0.092911,-0.054664,0.023626,0.999897,-0.001323,-0.014074,0.002535,0.756035,0.021220,-0.646011,-0.103106
09407,NaN,15.002569,-7.117683,4.808463,-7.656341,-17.964556,18.715221,-1.007664,-2.099481,0.997474,-0.684326,-0.097656,-0.399170,0.299318,-0.138345,0.103867,0.999679,-0.010076,-0.020993,0.009974,0.743464,0.004986,-0.660859,-0.102479
09408,NaN,20.289811,-3.942828,1.531159,-0.089013,-6.789641,9.769157,-1.299533,-1.362853,0.676109,-0.688721,-0.091309,-0.396973,0.202918,-0.038636,0.016947,0.999950,-0.006498,-0.006814,0.003380,0.739291,-0.002792,-0.665263,-0.104243
09409,NaN,18.779946,0.462175,-2.964268,4.655633,-2.809008,8.411448,-0.765130,-0.859552,-0.124120,-0.692871,-0.095459,-0.388672,0.187927,0.004394,-0.028852,0.999983,-0.003826,-0.004298,-0.000621,0.736335,-0.005658,-0.668043,-0.107225
09410,NaN,13.311085,1.731942,-5.748884,6.968006,-1.219143,2.961929,0.150603,-1.302817,-0.789226,-0.696777,-0.104248,-0.382080,0.133549,0.016836,-0.056607,0.999971,0.000753,-0.006514,-0.003946,0.731523,-0.003190,-0.672956,-0.109512
09411,NaN,8.302244,-2.471109,-0.872442,0.998823,-3.874597,-2.080695,0.110849,-0.737696,-1.038312,-0.694580,-0.104248,-0.380127,0.082924,-0.025137,-0.008432,0.999980,0.000554,-0.003688,-0.005192,0.728451,0.000303,-0.675729,-0.112914
09412,NaN,5.229391,-4.777250,5.609174,-5.973644,-4.697927,-4.926380,0.565452,0.199360,-0.681315,-0.694336,-0.114990,-0.382080,0.052186,-0.048109,0.055904,0.999990,0.002827,0.000997,-0.003407,0.728698,0.004751,-0.675366,-0.113391
09413,NaN,3.545967,-5.020344,5.380247,-5.827461,-4.774968,-6.656265,1.918976,0.621551,-0.040051,-0.687744,-0.121338,-0.386230,0.035616,-0.050723,0.053207,0.999949,0.009595,0.003108,-0.000200,0.730682,0.012227,-0.674165,-0.107028
09414,NaN,3.414427,-3.061781,-1.980437,1.817839,-3.798041,-7.124968,3.151469,0.217826,0.553892,-0.689697,-0.129883,-0.377686,0.034206,-0.030206,-0.020320,0.999871,0.015757,0.001089,0.002769,0.731418,0.021944,-0.675029,-0.094238
09415,NaN,4.483506,-2.053919,-6.113080,6.206100,-3.226812,-6.241097,3.438245,0.031633,1.014336,-0.696045,-0.129883,-0.373535,0.044925,-0.019257,-0.061476,0.999839,0.017190,0.000158,0.005071,0.731499,0.031103,-0.676547,-0.078897
09416,NaN,8.089389,-1.002819,-6.671353,7.158386,-2.507974,-2.504534,3.293582,-0.381966,1.381998,-0.702148,-0.132080,-0.360840,0.081083,-0.008370,-0.066706,0.999839,0.016467,-0.001910,0.006910,0.730099,0.038268,-0.679390,-0.062610
09417,NaN,11.782349,-0.087242,-6.807622,7.566734,-1.824574,1.348946,2.219009,-0.620128,1.332972,-0.706543,-0.127930,-0.352295,0.118033,0.000666,-0.067709,0.999911,0.011095,-0.003101,0.006665,0.727911,0.041641,-0.682554,-0.050311
09418,NaN,13.315038,-0.279280,-4.451115,5.239812,-1.955520,3.067446,0.932816,-0.603953,1.002650,-0.708740,-0.125732,-0.345947,0.133295,-0.001918,-0.044119,0.999972,0.004664,-0.003020,0.005013,0.725835,0.041411,-0.685245,-0.043447
09419,NaN,12.229339,0.003362,-1.921795,2.581209,-1.416508,2.211446,0.330546,-0.594621,0.691395,-0.706787,-0.123535,-0.343994,0.122349,0.000488,-0.018854,0.999988,0.001653,-0.002973,0.003457,0.723861,0.040110,-0.687621,-0.039919
09420,NaN,10.609512,0.457251,-0.818870,1.334750,-0.703387,0.730768,0.062563,-0.474101,0.657965,-0.713135,-0.121338,-0.343994,0.106098,0.004924,-0.007936,0.999992,0.000313,-0.002370,0.003290,0.722275,0.037927,-0.689560,-0.037251
09421,NaN,10.157189,-0.494844,-0.216119,0.663792,-1.528925,0.221311,0.295871,-0.431044,0.797009,-0.713135,-0.117188,-0.339600,0.101595,-0.004541,-0.001949,0.999989,0.001479,-0.002155,0.003985,0.720863,0.036164,-0.691326,-0.033425
09422,NaN,9.836735,-0.236403,-1.036963,1.424723,-1.147705,-0.089281,0.515248,-0.462160,0.858307,-0.724121,-0.110840,-0.337646,0.098400,-0.001915,-0.010148,0.999985,0.002576,-0.002311,0.004292,0.719231,0.034923,-0.693309,-0.028463
09423,NaN,9.328984,-0.780255,-1.767444,2.106184,-1.544953,-0.650870,0.430749,-0.272905,0.939858,-0.726318,-0.108643,-0.341797,0.093349,-0.007326,-0.017563,0.999986,0.002154,-0.001365,0.004699,0.718323,0.033172,-0.694517,-0.023628
09424,NaN,8.837684,-1.702197,-2.141672,2.447776,-2.324933,-1.199257,0.345079,-0.370440,0.940844,-0.728516,-0.100098,-0.331299,0.088495,-0.016569,-0.021282,0.999986,0.001725,-0.001852,0.004704,0.716999,0.031042,-0.696125,-0.018935
09425,NaN,8.706108,-2.806549,-1.190350,1.484368,-3.347891,-1.346431,0.177635,-0.337198,0.979059,-0.726562,-0.100098,-0.329102,0.087217,-0.027628,-0.011781,0.999986,0.000888,-0.001686,0.004895,0.715870,0.028236,-0.697504,-0.014849
09426,NaN,8.429961,-2.659590,-0.529999,0.789138,-3.104757,-1.557059,-0.036033,-0.239026,1.153294,-0.726807,-0.089355,-0.327148,0.084457,-0.026110,-0.005194,0.999983,-0.000180,-0.001195,0.005766,0.715025,0.024003,-0.698605,-0.010689
