// Start Time: Unknown
// Update Rate: 100.0Hz
// Filter Profile: human (46.1)
// Firmware Version: 4.4.0
PacketCounter,SampleTimeFine,Acc_X,Acc_Y,Acc_Z,FreeAcc_X,FreeAcc_Y,FreeAcc_Z,Gyr_X,Gyr_Y,Gyr_Z,Mag_X,Mag_Y,Mag_Z,VelInc_X,VelInc_Y,VelInc_Z,OriInc_q0,OriInc_q1,OriInc_q2,OriInc_q3,Quat_q0,Quat_q1,Quat_q2,Quat_q3
22456,NaN,10.256323,1.143619,-1.933501,-0.000000,-0.000000,11.185479,0.985197,0.133524,1.287570,-0.931885,-0.370117,-0.051270,0.204754,0.025892,-0.038698,0.999868,0.009852,0.001335,0.012875,0.601694,0.346830,-0.686918,0.214048
22457,NaN,9.663500,0.232001,0.856307,-0.000000,-0.000000,-0.108597,1.017303,0.111985,1.186496,-0.936523,-0.361572,-0.047119,0.096624,0.002850,0.008523,0.999969,0.005086,0.000560,0.005932,-0.505921,-0.504831,0.448591,-0.536616
22458,NaN,9.843456,0.434008,0.009876,-0.041992,-1.121782,-0.023872,0.777840,-0.013720,1.119539,-0.941162,-0.352783,-0.055908,0.098408,0.004891,0.000124,0.999977,0.003889,-0.000069,0.005598,0.593882,0.402661,-0.623028,0.311456
22459,NaN,9.657126,0.697502,-0.902353,0.067237,-0.135890,-0.089684,0.679444,-0.136016,1.080487,-0.950195,-0.342285,-0.045410,0.096538,0.007527,-0.008933,0.999979,0.003397,-0.000680,0.005402,0.590395,0.401517,-0.624536,0.316500
22460,NaN,9.575416,0.213075,-0.557490,0.228034,-0.580218,-0.239014,0.638189,-0.236767,1.022325,-0.946289,-0.333496,-0.043213,0.095748,0.002638,-0.005454,0.999981,0.003191,-0.001184,0.005112,0.588150,0.398983,-0.625517,0.321902
22461,NaN,10.087728,-0.450508,-0.912930,0.884523,-0.622969,0.268348,0.596947,-0.325969,0.939361,-0.952881,-0.324951,-0.032715,0.100912,-0.004004,-0.008977,0.999983,0.002985,-0.001630,0.004697,0.584418,0.398319,-0.627378,0.325876
22462,NaN,9.998554,0.316783,-2.168691,0.689935,0.861654,0.363519,0.704984,-0.341839,0.888666,-0.947021,-0.312256,-0.030762,0.100007,0.003688,-0.021504,0.999982,0.003525,-0.001709,0.004443,0.580004,0.398498,-0.629022,0.330341
22463,NaN,9.442589,0.909610,-2.956688,0.430913,1.911197,-0.071406,0.800854,-0.275099,0.830816,-0.962158,-0.310059,-0.022217,0.094427,0.009606,-0.029399,0.999982,0.004004,-0.001375,0.004154,0.576161,0.398655,-0.630142,0.334715
22464,NaN,9.129930,0.225629,-3.532661,1.201781,2.140773,-0.333330,0.741210,-0.221849,0.775913,-0.958252,-0.301514,-0.013916,0.091328,0.002741,-0.035216,0.999985,0.003706,-0.001109,0.003880,0.572272,0.398495,-0.632128,0.337818
22465,NaN,9.405674,-0.529513,-4.052911,2.009390,2.253646,-0.011880,0.716708,-0.151003,0.713209,-0.958252,-0.299316,-0.016113,0.094105,-0.004814,-0.040476,0.999987,0.003584,-0.000755,0.003566,0.569154,0.398541,-0.632762,0.341819
22466,NaN,9.599060,-0.797266,-3.826949,2.044258,1.867486,0.175104,0.767016,-0.089774,0.619269,-0.960693,-0.290771,-0.009766,0.096032,-0.007529,-0.038256,0.999988,0.003835,-0.000449,0.003096,0.565637,0.397566,-0.636388,0.342063
22467,NaN,9.751419,-0.406380,-3.182176,1.323244,1.491269,0.257375,0.912038,-0.029097,0.533074,-0.962891,-0.286621,-0.007568,0.097529,-0.003659,-0.031825,0.999986,0.004560,-0.000145,0.002665,0.562812,0.398493,-0.635961,0.346410
22468,NaN,9.817744,0.138920,-2.108369,0.264158,0.719192,0.200566,0.988500,0.000455,0.466199,-0.969727,-0.280029,-0.007812,0.098174,0.001722,-0.021076,0.999985,0.004942,0.000002,0.002331,0.559680,0.396791,-0.640463,0.345141
22469,NaN,9.997546,0.643926,-1.745912,-0.417324,0.626808,0.328635,0.949631,-0.005787,0.440911,-0.967529,-0.280029,0.000732,0.099961,0.006742,-0.017425,0.999986,0.004748,-0.000029,0.002205,0.557009,0.398041,-0.639706,0.349400
22470,NaN,10.051312,1.103068,-1.670146,-0.941401,0.711157,0.367820,0.880984,-0.020957,0.438383,-0.967773,-0.271484,-0.001465,0.100490,0.011324,-0.016641,0.999988,0.004405,-0.000105,0.002192,0.554768,0.395610,-0.644363,0.347161
22471,NaN,10.085409,1.175893,-1.759250,-1.028581,0.834926,0.406791,0.787860,-0.032856,0.470958,-0.967773,-0.271484,0.009277,0.100829,0.012066,-0.017529,0.999989,0.003939,-0.000164,0.002355,0.552281,0.396331,-0.644012,0.350937
22472,NaN,10.066152,0.945628,-2.107293,-0.726837,0.995794,0.441191,0.729841,-0.038428,0.514508,-0.972412,-0.265137,0.004883,0.100641,0.009792,-0.021018,0.999990,0.003649,-0.000192,0.002573,0.550866,0.393152,-0.648969,0.347587
22473,NaN,9.979784,1.148863,-2.334806,-0.866230,1.321436,0.378992,0.661249,-0.027219,0.548680,-0.970459,-0.258545,0.004639,0.099769,0.011839,-0.023296,0.999991,0.003306,-0.000136,0.002743,0.548519,0.393237,-0.648968,0.351187
22474,NaN,9.922481,0.570783,-2.828247,-0.167275,1.453030,0.416714,0.614011,0.003399,0.574811,-0.977051,-0.256592,0.009033,0.099207,0.006080,-0.028266,0.999991,0.003070,0.000017,0.002874,0.548193,0.388579,-0.654617,0.346362
22475,NaN,9.716942,0.325534,-2.854906,0.016083,1.424272,0.219568,0.589761,0.030439,0.595848,-0.977295,-0.250000,0.004639,0.097155,0.003629,-0.028554,0.999991,0.002949,0.000152,0.002979,0.546110,0.388189,-0.654665,0.349981
22476,NaN,9.553143,0.596580,-2.964029,-0.186635,1.608902,0.075691,0.529289,0.045626,0.632352,-0.977783,-0.235107,0.004395,0.095505,0.006346,-0.029646,0.999991,0.002646,0.000228,0.003162,0.546489,0.382083,-0.661245,0.343682
22478,NaN,9.420494,0.543055,-3.231068,-0.206893,3.790231,9.770576,0.477733,0.073578,0.693940,-0.980225,-0.226562,0.004150,0.188279,0.012477,-0.064703,0.999964,0.004777,0.000736,0.006939,0.542746,0.379839,-0.661829,0.350902
22479,NaN,9.676897,0.411942,-2.801303,-0.280975,1.371714,0.172209,0.478399,0.100695,0.758650,-0.982422,-0.224365,0.010498,0.096738,0.004553,-0.028051,0.999990,0.002392,0.000503,0.003793,0.543873,0.370566,-0.671048,0.341434
22480,NaN,9.666192,0.396691,-2.604052,-0.432000,1.247440,0.118591,0.459383,0.120377,0.803831,-0.984863,-0.215820,0.008301,0.096629,0.004415,-0.026089,0.999989,0.002297,0.000602,0.004019,0.542047,0.368909,-0.671419,0.345381
22481,NaN,9.503170,0.633256,-2.393075,-0.722339,1.168861,-0.089040,0.393459,0.120422,0.874350,-0.989746,-0.198730,0.010254,0.094988,0.006795,-0.023975,0.999988,0.001967,0.000602,0.004372,0.544408,0.360124,-0.678624,0.336750
22482,NaN,9.618549,0.549298,-2.353421,-0.762490,1.135697,0.009981,0.294484,0.119566,0.938136,-0.985596,-0.196533,0.008057,0.096144,0.005979,-0.023583,0.999988,0.001472,0.000598,0.004691,0.542697,0.357536,-0.679483,0.340514
22483,NaN,9.928497,0.120482,-2.484085,-0.421409,0.932860,0.371198,0.222288,0.117357,0.995185,-0.992432,-0.183594,0.003418,0.099263,0.001726,-0.024897,0.999987,0.001111,0.000587,0.004976,0.543985,0.348121,-0.687723,0.331556
22484,NaN,9.981191,-0.222396,-2.540710,-0.195720,0.856821,0.451591,0.209462,0.117786,1.031273,-0.990723,-0.168701,0.005371,0.099807,-0.001683,-0.025468,0.999986,0.001047,0.000589,0.005156,0.542308,0.344944,-0.688841,0.335281
22485,NaN,9.978273,-0.680556,-2.413257,0.034709,0.465681,0.465144,0.213849,0.123434,1.039688,-0.993164,-0.162109,0.005371,0.099801,-0.006261,-0.024201,0.999986,0.001069,0.000617,0.005198,0.542699,0.335022,-0.696643,0.328521
22486,NaN,9.958179,-0.967776,-2.230857,0.093943,0.229490,0.435051,0.214289,0.127722,1.049269,-0.989014,-0.155762,0.003174,0.099616,-0.009131,-0.022382,0.999985,0.001071,0.000639,0.005246,0.541054,0.331734,-0.697692,0.332323
22487,NaN,9.857532,-1.004619,-2.157382,0.045454,0.155095,0.326710,0.205368,0.116953,1.046280,-1.000244,-0.145020,0.000732,0.098613,-0.009508,-0.021641,0.999986,0.001027,0.000585,0.005231,0.543071,0.321783,-0.703618,0.326270
22488,NaN,9.814229,-1.098527,-2.468292,0.221003,0.429080,0.355123,0.231110,0.111813,1.046746,-1.000488,-0.134277,-0.001465,0.098184,-0.010443,-0.024750,0.999985,0.001156,0.000559,0.005234,0.541377,0.318541,-0.704611,0.330100
22489,NaN,9.932315,-1.024707,-2.741707,0.224896,0.693556,0.516167,0.274430,0.102815,1.035994,-0.998779,-0.123535,0.000488,0.099360,-0.009695,-0.027482,0.999986,0.001372,0.000514,0.005180,0.542914,0.308109,-0.710290,0.325272
22490,NaN,10.257615,-0.758496,-2.411190,-0.328284,0.639710,0.727223,0.333735,0.118315,1.031751,-1.003662,-0.110596,-0.004150,0.102599,-0.007015,-0.024185,0.999985,0.001669,0.000592,0.005159,0.541134,0.305154,-0.711005,0.329435
22491,NaN,10.301829,-0.864878,-2.320403,-0.384047,0.525397,0.762532,0.352615,0.115629,1.055036,-1.001709,-0.102051,-0.001953,0.103048,-0.008064,-0.023278,0.999984,0.001763,0.000578,0.005275,0.541867,0.295608,-0.716258,0.325530
22492,NaN,10.289801,-0.677459,-1.928381,-0.839752,0.416834,0.636115,0.346621,0.127141,1.096669,-1.008545,-0.093506,-0.002197,0.102921,-0.006177,-0.019360,0.999983,0.001733,0.000636,0.005483,0.540016,0.292408,-0.716959,0.329925
22493,NaN,10.330211,-0.240352,-1.768820,-1.336471,0.613549,0.566901,0.295828,0.131426,1.157592,-1.002197,-0.084961,-0.006592,0.103302,-0.001779,-0.017759,0.999982,0.001479,0.000657,0.005788,0.541561,0.282796,-0.721352,0.326173
22494,NaN,10.406120,-0.609624,-1.787389,-1.152535,0.484024,0.689202,0.236378,0.139227,1.218211,-1.009277,-0.072021,-0.010986,0.104083,-0.005441,-0.017953,0.999981,0.001182,0.000696,0.006091,0.539732,0.278810,-0.722298,0.330515
22495,NaN,10.447306,-0.602098,-1.838936,-1.186677,0.618188,0.727638,0.183180,0.151390,1.282336,-1.007568,-0.057129,-0.007080,0.104495,-0.005334,-0.018474,0.999979,0.000916,0.000757,0.006412,0.544076,0.262684,-0.728508,0.322885
22496,NaN,10.681334,-0.750311,-1.804462,-1.256456,0.594582,0.956524,0.116725,0.184875,1.348893,-1.010254,-0.041992,-0.007324,0.106844,-0.006772,-0.018147,0.999977,0.000584,0.000924,0.006744,0.542406,0.257784,-0.729571,0.327215
22497,NaN,10.897109,-0.801272,-1.709673,-1.397454,0.568106,1.143329,0.050571,0.219377,1.424220,-1.008545,-0.031494,-0.005371,0.109006,-0.007232,-0.017218,0.999974,0.000253,0.001097,0.007121,0.543900,0.248047,-0.732922,0.324763
22498,NaN,11.155132,-0.696697,-1.634851,-1.695085,0.706626,1.332718,-0.025144,0.252601,1.509248,-1.013428,-0.011963,-0.011963,0.111579,-0.006127,-0.016489,0.999971,-0.000126,0.001263,0.007546,0.542390,0.242030,-0.734126,0.329079
22499,NaN,11.807128,-0.384463,-1.788540,-2.050093,1.136838,1.902971,-0.109246,0.306273,1.601888,-1.009766,0.005127,-0.016602,0.118070,-0.002909,-0.018064,0.999967,-0.000546,0.001531,0.008009,0.544100,0.233079,-0.736393,0.327651
22500,NaN,12.427998,-0.346406,-2.192545,-2.111880,1.631271,2.526582,-0.194476,0.367387,1.698594,-1.005859,0.022217,-0.023193,0.124263,-0.002430,-0.022151,0.999962,-0.000972,0.001837,0.008493,0.542876,0.225685,-0.737663,0.331971
22501,NaN,12.757667,-0.192819,-2.700741,-2.079899,2.273588,2.859710,-0.235155,0.420364,1.803256,-1.008545,0.030762,-0.021240,0.127530,-0.000810,-0.027274,0.999956,-0.001176,0.002102,0.009016,0.543015,0.215007,-0.740579,0.332340
22502,NaN,13.264624,-0.616332,-3.249926,-1.709282,2.605576,3.498065,-0.222578,0.480119,1.904022,-1.011475,0.056641,-0.025879,0.132619,-0.004937,-0.032812,0.999951,-0.001113,0.002401,0.009520,0.541842,0.206544,-0.741656,0.337185
22503,NaN,13.602931,-0.197101,-3.661822,-1.785046,3.383645,3.746282,-0.108014,0.526358,1.999674,-1.005615,0.077881,-0.032715,0.135943,-0.000631,-0.036975,0.999946,-0.000540,0.002632,0.009998,0.546275,0.191692,-0.744437,0.332642
22504,NaN,13.871183,-0.222821,-4.104238,-1.678751,3.948337,4.003563,0.040153,0.570042,2.113893,-1.006348,0.095215,-0.039307,0.138607,-0.000755,-0.041438,0.999940,0.000201,0.002850,0.010569,0.544810,0.182974,-0.744795,0.339091
22505,NaN,14.477209,0.398262,-3.953143,-2.368599,4.561634,4.292170,0.224887,0.605228,2.216429,-1.000488,0.112305,-0.043701,0.144595,0.005630,-0.039963,0.999933,0.001124,0.003026,0.011082,0.547599,0.168455,-0.747048,0.337160
22506,NaN,15.686341,1.501874,-3.833906,-3.690558,5.725467,4.904694,0.349666,0.690113,2.338588,-0.999268,0.137939,-0.052734,0.156540,0.016918,-0.038851,0.999924,0.001748,0.003450,0.011693,0.545899,0.159501,-0.746482,0.345424
22507,NaN,16.763169,2.351787,-3.627930,-4.518238,6.713446,5.490718,0.407930,0.810793,2.492739,-0.991455,0.163818,-0.063721,0.167172,0.025678,-0.036907,0.999912,0.002040,0.004054,0.012463,0.552709,0.139025,-0.748612,0.338769
22508,NaN,17.459681,3.695060,-3.755835,-5.579280,8.301498,5.436397,0.462031,0.920984,2.652291,-0.989990,0.187256,-0.074951,0.173910,0.039348,-0.038271,0.999899,0.002310,0.004605,0.013261,0.551287,0.128801,-0.747052,0.348433
22509,NaN,17.900575,3.694654,-3.272810,-5.788414,8.581946,5.601924,0.560537,0.977543,2.833468,-0.986816,0.215332,-0.081787,0.178295,0.039569,-0.033492,0.999884,0.002803,0.004888,0.014167,0.558091,0.105772,-0.748506,0.342177
22510,NaN,18.630636,4.578546,-2.709225,-7.078547,9.521578,5.504143,0.742558,1.046920,2.980223,-0.976807,0.238770,-0.092773,0.185451,0.048656,-0.027887,0.999868,0.003713,0.005234,0.014900,0.556445,0.094887,-0.745792,0.353780
22511,NaN,19.569762,4.319013,-2.433459,-6.954114,10.028031,6.268098,0.951801,1.135832,3.120301,-0.964844,0.266602,-0.112305,0.194849,0.046353,-0.025227,0.999851,0.004759,0.005679,0.015601,0.566614,0.069779,-0.745231,0.344543
22512,NaN,20.864257,4.819193,-2.756693,-7.514758,11.534208,6.818106,1.172937,1.219408,3.250811,-0.954834,0.294678,-0.127686,0.207649,0.051738,-0.028539,0.999832,0.005864,0.006097,0.016253,0.565054,0.058878,-0.740765,0.358490
22513,NaN,21.520456,5.411306,-2.665067,-7.223003,12.961373,6.899318,1.390792,1.240611,3.348464,-0.942871,0.322510,-0.145264,0.214087,0.057893,-0.027587,0.999816,0.006954,0.006203,0.016741,0.578038,0.028427,-0.738369,0.346230
22514,NaN,21.331990,5.900042,-2.406855,-7.703443,13.714793,5.940570,1.369660,1.160707,3.365478,-0.932861,0.345947,-0.164795,0.212142,0.062746,-0.024881,0.999818,0.006848,0.005803,0.016826,0.576198,0.017948,-0.732987,0.361114
22515,NaN,18.370612,5.692507,-2.825378,-5.061378,13.370371,3.357109,1.116421,1.052736,3.283008,-0.920898,0.371826,-0.171631,0.182586,0.060089,-0.028887,0.999836,0.005582,0.005263,0.016414,0.593293,-0.017909,-0.729549,0.339765
22516,NaN,14.384793,4.541259,-4.279621,-2.224610,11.858690,0.200371,0.562960,0.834840,3.095665,-0.904541,0.399658,-0.176270,0.142941,0.047751,-0.043262,0.999868,0.002815,0.004174,0.015478,0.591053,-0.028947,-0.725742,0.350881
22517,NaN,12.085498,2.446958,-5.081871,0.853821,9.601182,-0.595836,-0.199920,0.603805,2.791673,-0.892578,0.425293,-0.182861,0.120344,0.026101,-0.051208,0.999898,-0.001000,0.003019,0.013958,0.607177,-0.062287,-0.723666,0.322125
22518,NaN,10.261263,1.482127,-5.253626,1.772627,8.230114,-1.799586,-0.951771,0.474791,2.454207,-0.884521,0.438232,-0.180908,0.102297,0.015827,-0.052853,0.999911,-0.004759,0.002374,0.012271,0.604593,-0.074815,-0.722927,0.325954
22519,NaN,8.511966,2.671543,-4.476897,1.864372,7.820205,-3.896653,-0.961829,0.453752,2.095907,-0.870117,0.457520,-0.181152,0.084733,0.027388,-0.045092,0.999931,-0.004809,0.002269,0.010479,0.618500,-0.105237,-0.720682,0.294958
22520,NaN,7.483791,2.251429,-2.044144,-0.111222,6.324073,-4.788097,0.084073,0.595085,1.734645,-0.864014,0.468018,-0.185547,0.074578,0.023171,-0.020654,0.999958,0.000420,0.002975,0.008673,0.618106,-0.112101,-0.717774,0.300299
22521,NaN,5.681400,1.508267,-0.988923,-0.226481,4.474665,-5.881223,0.253386,0.620785,1.518609,-0.857910,0.480957,-0.196533,0.056666,0.015526,-0.010046,0.999966,0.001267,0.003104,0.007593,0.631588,-0.134409,-0.712328,0.274991
22522,NaN,4.406257,-1.129834,-1.346705,0.762706,1.782313,-5.482957,0.093256,0.530761,1.239123,-0.849609,0.487305,-0.194336,0.044095,-0.011019,-0.013589,0.999977,0.000466,0.002654,0.006196,0.631825,-0.139254,-0.709673,0.278873
22523,NaN,7.347809,-7.568619,-3.902970,3.730053,-1.552647,0.684106,0.362514,-0.000431,0.783173,-0.845215,0.489502,-0.198730,0.073774,-0.075327,-0.039166,0.999991,0.001813,-0.000002,0.003916,0.640189,-0.152974,-0.706812,0.259179
22524,NaN,8.120430,-5.545974,-4.036823,3.536076,0.623915,0.192402,0.555818,-0.132794,0.283964,-0.845215,0.485352,-0.202881,0.081310,-0.055232,-0.040468,0.999995,0.002779,-0.000664,0.001420,0.639776,-0.152026,-0.706294,0.262151
22525,NaN,4.738397,0.222490,-3.413264,2.822899,3.219468,-5.835435,0.677551,-0.028307,-0.289435,-0.846924,0.476807,-0.204834,0.047392,0.002272,-0.034118,0.999993,0.003388,-0.000142,-0.001447,0.647066,-0.157970,-0.704454,0.245144
22526,NaN,2.600161,4.022529,-2.621841,1.900248,5.118376,-9.730693,0.777891,-0.132289,-0.761591,-0.850830,0.466064,-0.200439,0.026172,0.040227,-0.026045,0.999985,0.003889,-0.000661,-0.003808,0.648141,-0.152606,-0.704518,0.245519
22527,NaN,1.634121,5.676580,-1.170781,0.579045,5.788959,-11.367267,0.752003,-0.139177,-1.195257,-0.861328,0.453125,-0.204590,0.016688,0.056710,-0.011483,0.999975,0.003760,-0.000696,-0.005976,0.655251,-0.154303,-0.703818,0.226885
22528,NaN,1.069215,6.073361,0.213386,-0.815986,5.698661,-12.033742,0.424551,-0.183829,-1.532681,-0.862793,0.433838,-0.199951,0.011155,0.060645,0.002273,0.999968,0.002123,-0.000919,-0.007663,0.656651,-0.147305,-0.705097,0.223491
22529,NaN,1.205546,5.632180,1.330152,-1.722009,5.376412,-11.565429,-0.032739,-0.255573,-1.832510,-0.868652,0.416748,-0.199951,0.012554,0.056210,0.013308,0.999957,-0.000164,-0.001278,-0.009162,0.662689,-0.149074,-0.706082,0.200172
22530,NaN,1.561382,4.137854,1.670408,-2.005489,4.232125,-10.458046,-0.473639,-0.317873,-2.154318,-0.878662,0.393066,-0.188721,0.016032,0.041247,0.016632,0.999938,-0.002368,-0.001589,-0.010771,0.663330,-0.142711,-0.709169,0.191585
22531,NaN,2.368005,2.192201,1.635597,-1.822227,2.931304,-8.728743,-0.681790,-0.349621,-2.450109,-0.888428,0.369629,-0.192871,0.023918,0.021686,0.016323,0.999918,-0.003409,-0.001748,-0.012250,0.668037,-0.144132,-0.711277,0.164431
22532,NaN,2.591547,0.593811,1.036441,-1.216161,1.568722,-7.762650,-0.724492,-0.365434,-2.722806,-0.894287,0.348145,-0.175293,0.025974,0.005622,0.010391,0.999899,-0.003622,-0.001827,-0.013614,0.668389,-0.136554,-0.714981,0.153006
22533,NaN,2.841555,-0.550639,0.540234,-0.717263,0.559684,-7.012475,-0.742646,-0.376700,-2.993894,-0.906250,0.322510,-0.172852,0.028319,-0.005911,0.005477,0.999879,-0.003713,-0.001883,-0.014969,0.671899,-0.135600,-0.717306,0.125049
22534,NaN,2.948184,-0.902783,-0.058347,-0.153257,0.176897,-6.737863,-0.760180,-0.394849,-3.275645,-0.924561,0.288086,-0.166016,0.029330,-0.009511,-0.000490,0.999857,-0.003801,-0.001974,-0.016377,0.671921,-0.126140,-0.721223,0.111567
22535,NaN,3.477645,0.197126,-0.083244,-0.107282,1.248786,-6.561917,-0.717156,-0.393352,-3.573885,-0.923340,0.256104,-0.159180,0.034806,0.001347,-0.000770,0.999832,-0.003586,-0.001967,-0.017868,0.674098,-0.122243,-0.723678,0.083298
22536,NaN,4.228029,1.753929,0.712466,-0.863043,2.864901,-6.276423,-0.834792,-0.359188,-3.873606,-0.930664,0.215332,-0.145752,0.042597,0.016746,0.007130,0.999802,-0.004174,-0.001796,-0.019367,0.673771,-0.110868,-0.727458,0.067425
22537,NaN,5.228031,2.526838,1.147217,-1.218647,3.721095,-5.374511,-1.139847,-0.369342,-4.127712,-0.944336,0.176758,-0.149414,0.052767,0.024248,0.011429,0.999769,-0.005699,-0.001847,-0.020637,0.674353,-0.106002,-0.729844,0.036603
22538,NaN,6.177907,2.438027,1.038808,-1.205458,3.615014,-4.275373,-1.412140,-0.358912,-4.371115,-0.951904,0.144531,-0.134033,0.062275,0.023096,0.010333,0.999735,-0.007060,-0.001794,-0.021854,0.672918,-0.094720,-0.733433,0.016893
22539,NaN,7.066427,1.825615,0.575844,-0.840212,2.800156,-3.101271,-1.509137,-0.341952,-4.605946,-0.950195,0.097412,-0.126953,0.071050,0.016666,0.005750,0.999705,-0.007545,-0.001710,-0.023027,0.671662,-0.089215,-0.735282,-0.016454
22540,NaN,7.867883,1.227967,0.180684,-0.668383,1.908597,-2.109287,-1.522173,-0.306354,-4.855509,-0.955078,0.052490,-0.122070,0.078943,0.010379,0.001844,0.999675,-0.007610,-0.001532,-0.024275,0.669243,-0.076475,-0.738110,-0.038213
22541,NaN,8.827779,0.669297,-0.064372,-0.662650,0.909307,-1.032103,-1.492937,-0.315026,-5.114158,-0.957764,0.005127,-0.119141,0.088411,0.004429,-0.000543,0.999644,-0.007464,-0.001575,-0.025568,0.666021,-0.068803,-0.739215,-0.072417
22542,NaN,10.031842,0.160410,-0.499139,-0.589729,-0.151965,0.213136,-1.392526,-0.349342,-5.347737,-0.951660,-0.048340,-0.111816,0.100321,-0.001113,-0.004815,0.999617,-0.006962,-0.001746,-0.026735,0.662062,-0.053777,-0.741427,-0.095222
22543,NaN,11.129220,-0.053332,-0.758988,-0.683108,-1.106866,1.264940,-1.151453,-0.370111,-5.548388,-0.951904,-0.102051,-0.104736,0.111233,-0.003663,-0.007369,0.999597,-0.005756,-0.001850,-0.027738,0.656531,-0.042846,-0.742088,-0.128205
22544,NaN,12.367021,-0.025861,-0.830253,-0.972954,-1.864900,2.400640,-0.938921,-0.379398,-5.757100,-0.943604,-0.155518,-0.103760,0.123609,-0.003856,-0.008056,0.999573,-0.004694,-0.001897,-0.028781,0.650955,-0.024795,-0.743645,-0.150448
22545,NaN,14.414997,-0.928112,-1.272579,-1.370972,-3.967720,4.064910,-0.736123,-0.449835,-5.931816,-0.930908,-0.213379,-0.092285,0.143817,-0.013596,-0.012357,0.999551,-0.003680,-0.002249,-0.029655,0.643037,-0.010688,-0.744001,-0.181249
22546,NaN,17.025982,-2.380743,-2.348237,-1.458162,-7.042056,5.975184,-0.383032,-0.500151,-6.063797,-0.918213,-0.271484,-0.089111,0.169491,-0.028999,-0.023006,0.999535,-0.001915,-0.002500,-0.030314,0.635366,0.010186,-0.745238,-0.202056
22547,NaN,18.404918,-2.463631,-3.352163,-1.220944,-8.783702,6.839548,0.194319,-0.466824,-6.116360,-0.899414,-0.318604,-0.075439,0.183260,-0.030217,-0.033121,0.999529,0.000971,-0.002334,-0.030577,0.625746,0.029060,-0.745579,-0.227396
22548,NaN,19.173957,-1.668445,-2.990784,-1.860288,-9.168602,7.267549,0.787391,-0.478196,-6.104069,-0.877930,-0.376465,-0.070068,0.191185,-0.022409,-0.029531,0.999524,0.003936,-0.002391,-0.030515,0.616616,0.053717,-0.746725,-0.243517
22549,NaN,19.735332,-2.087706,-3.000908,-2.465659,-10.729528,6.966247,0.831425,-0.591673,-5.965356,-0.859131,-0.423828,-0.056396,0.196704,-0.026628,-0.029529,0.999542,0.004156,-0.002958,-0.029822,0.605761,0.075330,-0.747188,-0.262847
22550,NaN,20.349537,-2.436640,-4.014868,-2.068006,-12.490820,6.793019,0.424913,-0.828154,-5.736978,-0.829346,-0.477539,-0.044922,0.202851,-0.030108,-0.039368,0.999578,0.002124,-0.004140,-0.028681,0.594717,0.096926,-0.747776,-0.278834
22551,NaN,20.902165,-4.157381,-4.064870,-2.868148,-15.015969,5.578498,-0.000275,-1.078900,-5.405377,-0.806396,-0.518311,-0.031250,0.208012,-0.047205,-0.039525,0.999620,-0.000001,-0.005394,-0.027023,0.582917,0.114839,-0.747707,-0.296571
22552,NaN,21.175592,-5.951813,-3.416142,-4.237124,-17.074077,3.822368,-0.232386,-1.273023,-5.020737,-0.781494,-0.559082,-0.017578,0.210384,-0.064850,-0.032746,0.999664,-0.001162,-0.006364,-0.025101,0.570655,0.131004,-0.747936,-0.312701
22553,NaN,20.959063,-7.626648,-1.935064,-6.077794,-18.324542,1.517292,-0.137481,-1.291395,-4.662035,-0.754639,-0.589111,-0.006348,0.207856,-0.081138,-0.017950,0.999707,-0.000687,-0.006456,-0.023308,0.559592,0.146975,-0.747667,-0.325959
22554,NaN,20.523986,-9.370095,-0.012601,-8.235430,-19.141863,-1.168781,0.053425,-1.182779,-4.282311,-0.727539,-0.625732,0.017822,0.203167,-0.098066,0.001054,0.999753,0.000267,-0.005913,-0.021410,0.548019,0.161167,-0.747729,-0.338527
22555,NaN,19.531612,-10.415621,1.147737,-9.087705,-19.239017,-3.608221,0.149311,-1.000595,-3.868940,-0.703125,-0.645020,0.020508,0.193192,-0.107916,0.012368,0.999800,0.000747,-0.005003,-0.019343,0.539717,0.176679,-0.746781,-0.346134
22556,NaN,18.388163,-11.472102,0.424938,-8.201116,-19.660348,-5.802775,0.153862,-0.775162,-3.416099,-0.685303,-0.668701,0.035889,0.181868,-0.117843,0.004867,0.999846,0.000769,-0.003876,-0.017080,0.530697,0.188481,-0.746004,-0.355408
22557,NaN,16.271208,-13.025235,-1.127717,-5.907320,-19.984102,-8.633635,0.150426,-0.548854,-2.871617,-0.661133,-0.683838,0.038330,0.160850,-0.132563,-0.010933,0.999893,0.000752,-0.002744,-0.014358,0.526311,0.201794,-0.744051,-0.358699
22558,NaN,14.631344,-14.859541,-2.351157,-4.258082,-20.492314,-11.338102,0.315609,-0.390665,-2.225404,-0.649902,-0.694580,0.042969,0.144694,-0.150174,-0.023464,0.999935,0.001578,-0.001953,-0.011127,0.520518,0.210190,-0.743349,-0.363750
22559,NaN,13.994113,-15.395899,-1.801667,-4.491761,-20.214190,-12.517887,0.584327,-0.277989,-1.461866,-0.643311,-0.703125,0.055908,0.138836,-0.154923,-0.018275,0.999968,0.002922,-0.001390,-0.007309,0.516892,0.214926,-0.744125,-0.364564
22560,NaN,13.808084,-13.311329,-0.809283,-5.122446,-18.430048,-11.425748,0.554098,-0.105865,-0.653228,-0.640869,-0.707275,0.060303,0.137650,-0.133540,-0.008389,0.999991,0.002770,-0.000529,-0.003266,0.514712,0.218594,-0.744698,-0.364299
22561,NaN,13.241573,-11.095272,-0.881846,-4.787657,-16.621001,-10.018913,0.137043,0.093341,0.095807,-0.643311,-0.700928,0.064453,0.132465,-0.110883,-0.008956,1.000000,0.000685,0.000467,0.000479,0.514822,0.215059,-0.745984,-0.363615
22562,NaN,12.673063,-10.942033,-1.311932,-4.161788,-16.268301,-10.089173,-0.147388,0.235778,0.746029,-0.649658,-0.700928,0.062256,0.127122,-0.108956,-0.013189,0.999992,-0.000737,0.001179,0.003730,0.517217,0.212324,-0.745903,-0.361986
22563,NaN,12.261336,-11.485333,-1.325744,-4.181188,-16.310379,-10.517241,-0.300080,0.369373,1.281126,-0.658691,-0.687988,0.062012,0.123321,-0.114085,-0.013313,0.999977,-0.001500,0.001847,0.006406,0.520607,0.203147,-0.747033,-0.360058
22564,NaN,12.033340,-12.166032,-1.221660,-4.276945,-16.574765,-10.945842,-0.265259,0.453243,1.717944,-0.669922,-0.675293,0.061768,0.121345,-0.120637,-0.012330,0.999960,-0.001326,0.002266,0.008590,0.525646,0.196848,-0.747088,-0.356100
22565,NaN,12.548098,-9.055945,-5.354485,-0.551299,-16.149719,-7.164830,-0.074007,0.313081,1.930672,-0.687744,-0.662354,0.061523,0.126264,-0.089363,-0.053709,0.999952,-0.000370,0.001565,0.009653,0.529567,0.185564,-0.749217,-0.351850
22566,NaN,10.467905,-1.222845,-14.513211,9.431999,-12.395086,-0.918713,-0.188784,0.120429,1.785245,-0.694580,-0.647217,0.056885,0.104696,-0.011431,-0.145184,0.999960,-0.000944,0.000602,0.008926,0.533318,0.178580,-0.750190,-0.347702
22567,NaN,8.555575,13.769856,-8.269787,5.924046,1.567290,7.323017,1.461778,0.334093,1.596671,-0.701904,-0.627930,0.069580,0.084312,0.138975,-0.081827,0.999940,0.007309,0.001670,0.007983,0.535191,0.172708,-0.754376,-0.338613
22568,NaN,8.474032,17.097842,-3.139383,1.500059,6.012106,8.506596,1.292015,0.524670,1.320746,-0.718994,-0.625732,0.071533,0.083527,0.171732,-0.030506,0.999954,0.006460,0.002623,0.006604,0.538271,0.172064,-0.756263,-0.329735
22569,NaN,14.133137,0.339819,4.452566,-9.238170,-6.866713,-0.475294,0.568258,0.483981,1.636779,-0.728027,-0.614990,0.071289,0.141405,0.004429,0.044195,0.999960,0.002841,0.002420,0.008184,0.540946,0.163175,-0.758465,-0.324781
22570,NaN,19.408206,-3.999248,5.105812,-12.100936,-12.869987,0.514887,0.483922,0.589846,2.021655,-0.743896,-0.595703,0.071045,0.194623,-0.038149,0.050391,0.999942,0.002420,0.002949,0.010108,0.546045,0.157765,-0.759258,-0.316975
22571,NaN,18.212715,7.895810,4.164199,-9.398537,-3.197295,7.873997,0.357052,0.585970,2.096780,-0.755127,-0.580811,0.077148,0.181408,0.080789,0.041253,0.999939,0.001785,0.002930,0.010484,0.550820,0.148632,-0.760466,-0.310159
22572,NaN,15.124717,8.522579,1.495480,-5.586433,-1.439037,6.629146,-0.808416,0.134200,2.327554,-0.764404,-0.561523,0.065918,0.150251,0.087038,0.014504,0.999924,-0.004042,0.000671,0.011637,0.555504,0.137752,-0.760511,-0.306696
22573,NaN,14.295401,-5.036501,-1.267245,-4.539749,-11.990075,-1.630667,-1.620044,-0.203063,2.731124,-0.782227,-0.541992,0.061279,0.143637,-0.048506,-0.012129,0.999873,-0.008100,-0.001015,0.013655,0.559322,0.119223,-0.760901,-0.306552
22574,NaN,12.164544,-6.526803,-2.978142,-2.576972,-12.396550,-3.558271,-1.472439,-0.280965,2.779619,-0.793945,-0.516357,0.061035,0.122580,-0.063785,-0.029136,0.999875,-0.007362,-0.001405,0.013898,0.563327,0.104085,-0.760989,-0.304507
22575,NaN,10.061330,-1.044814,-3.662981,-0.338718,-7.036091,-1.681658,-1.467992,-0.494445,2.703643,-0.811768,-0.497070,0.052002,0.100835,-0.009353,-0.036309,0.999879,-0.007340,-0.002472,0.013518,0.565554,0.085510,-0.761883,-0.303926
22576,NaN,8.587733,1.314055,-4.674653,1.589257,-4.659909,-1.263679,-1.370106,-0.551543,2.616377,-0.822998,-0.479736,0.053711,0.085827,0.013944,-0.046603,0.999887,-0.006850,-0.002758,0.013081,0.567957,0.070821,-0.762390,-0.301946
22577,NaN,8.303605,-3.200220,-3.265483,-0.688254,-7.493454,-4.048533,-0.608569,-0.375009,2.420509,-0.830322,-0.456299,0.057617,0.083477,-0.031093,-0.032403,0.999920,-0.003043,-0.001875,0.012102,0.570102,0.057270,-0.763545,-0.297831
22578,NaN,10.245555,-6.780739,-4.048924,-1.554406,-11.420551,-3.939758,0.443083,-0.157952,2.231392,-0.837646,-0.434814,0.061523,0.103235,-0.066569,-0.040556,0.999935,0.002215,-0.000790,0.011157,0.572663,0.049775,-0.765241,-0.289803
22579,NaN,10.870913,-3.454159,-4.184466,-0.760790,-8.800159,-1.470702,1.604065,0.144490,1.986188,-0.844482,-0.421875,0.065674,0.109012,-0.033123,-0.042193,0.999918,0.008020,0.000722,0.009931,0.575266,0.044579,-0.767784,-0.278548
22580,NaN,8.797859,-0.753302,-1.505644,-1.722764,-4.553585,-2.293993,2.129013,0.276130,1.720121,-0.855957,-0.404785,0.071777,0.088017,-0.006614,-0.015252,0.999905,0.010645,0.001381,0.008600,0.578199,0.044479,-0.770262,-0.265338
22581,NaN,9.476237,-1.324209,0.280842,-3.620329,-4.541151,-2.203430,1.990545,0.193930,1.536990,-0.864746,-0.394043,0.075928,0.094863,-0.012540,0.002589,0.999920,0.009952,0.000970,0.007685,0.581221,0.045466,-0.772607,-0.251384
22582,NaN,10.640954,0.252200,0.185885,-3.505692,-3.511896,-0.394459,1.761269,0.057247,1.390621,-0.865479,-0.376953,0.090576,0.106389,0.003245,0.001855,0.999937,0.008806,0.000286,0.006953,0.582759,0.045280,-0.774918,-0.240508
22583,NaN,10.399670,1.432715,-1.317152,-1.750369,-2.723982,0.259792,1.266632,-0.110111,1.288686,-0.867920,-0.368408,0.090576,0.103908,0.015080,-0.013020,0.999959,0.006333,-0.000551,0.006443,0.584399,0.045311,-0.776945,-0.229739
22584,NaN,9.967577,0.859195,-1.007518,-2.010623,-2.855171,-0.383490,0.816934,-0.204354,1.241162,-0.879395,-0.351318,0.098633,0.099630,0.009251,-0.009936,0.999972,0.004085,-0.001022,0.006206,0.584836,0.042639,-0.778737,-0.222976
22585,NaN,9.800111,0.136384,-1.760021,-1.375581,-3.542690,-0.608655,0.484985,-0.285719,1.176479,-0.879883,-0.338379,0.100586,0.098016,0.001983,-0.017456,0.999979,0.002425,-0.001429,0.005882,0.585728,0.040821,-0.780259,-0.215530
22586,NaN,9.859600,-0.901780,-2.602190,-0.809446,-4.629382,-0.718254,0.424959,-0.266668,1.080627,-0.884277,-0.333984,0.106934,0.098677,-0.008430,-0.025909,0.999982,0.002125,-0.001333,0.005403,0.585761,0.037560,-0.781701,-0.210755
22587,NaN,9.648246,-1.039946,-2.635863,-0.725137,-4.586471,-0.893307,0.525117,-0.243287,0.972716,-0.884766,-0.316895,0.111084,0.096563,-0.009861,-0.026268,0.999984,0.002626,-0.001216,0.004864,0.586194,0.035628,-0.783105,-0.204583
22588,NaN,9.544856,-1.027215,-2.844386,-0.497137,-4.506230,-0.885437,0.664998,-0.229333,0.880566,-0.886963,-0.319092,0.119629,0.095525,-0.009757,-0.028367,0.999984,0.003325,-0.001147,0.004403,0.586075,0.033892,-0.784598,-0.199433
22589,NaN,9.707226,-1.293502,-2.972436,-0.452335,-4.729395,-0.748136,0.841214,-0.214234,0.787085,-0.887451,-0.304199,0.121582,0.097154,-0.012428,-0.029673,0.999983,0.004206,-0.001071,0.003935,0.586422,0.034158,-0.786131,-0.192199
22590,NaN,9.875709,-1.149364,-3.023363,-0.427965,-4.564652,-0.486847,1.056834,-0.207678,0.706790,-0.894043,-0.297607,0.123535,0.098828,-0.010985,-0.030190,0.999979,0.005284,-0.001038,0.003534,0.586099,0.034276,-0.787856,-0.186001
22591,NaN,9.916072,-0.637046,-2.863704,-0.481305,-3.957788,-0.271274,1.224147,-0.159907,0.629286,-0.896484,-0.295410,0.123535,0.099203,-0.005883,-0.028595,0.999976,0.006121,-0.000800,0.003146,0.586361,0.036424,-0.789487,-0.177663
22592,NaN,9.839927,0.151737,-1.995279,-1.152801,-2.911002,-0.271989,1.176344,-0.128926,0.550688,-0.896729,-0.286865,0.136230,0.098407,0.001905,-0.019879,0.999979,0.005882,-0.000645,0.002753,0.586120,0.037581,-0.790990,-0.171422
22593,NaN,9.882916,0.530299,-1.436980,-1.612552,-2.376586,-0.233058,0.980897,-0.138242,0.511272,-0.896973,-0.278320,0.138184,0.098825,0.005626,-0.014274,0.999984,0.004904,-0.000691,0.002556,0.586924,0.042484,-0.792089,-0.162204
22594,NaN,9.935417,0.237224,-1.710741,-1.415919,-2.659074,-0.188782,0.800829,-0.162069,0.503281,-0.896973,-0.278320,0.142578,0.099361,0.002691,-0.017017,0.999988,0.004004,-0.000810,0.002516,0.586519,0.042707,-0.793308,-0.157585
22595,NaN,9.959699,-0.101979,-2.372767,-0.813322,-3.051176,-0.072849,0.736126,-0.169587,0.496225,-0.897461,-0.263428,0.146729,0.099619,-0.000686,-0.023646,0.999990,0.003681,-0.000848,0.002481,0.587001,0.046437,-0.794251,-0.149796
22596,NaN,9.757180,-0.112094,-2.608784,-0.537590,-2.989026,-0.179556,0.734015,-0.150342,0.472128,-0.897705,-0.261230,0.148682,0.097594,-0.000795,-0.026018,0.999990,0.003670,-0.000752,0.002361,0.586587,0.046601,-0.795340,-0.145525
22597,NaN,9.584438,-0.113941,-2.768051,-0.330435,-2.903932,-0.273601,0.719197,-0.137045,0.458378,-0.902100,-0.257080,0.152832,0.095865,-0.000820,-0.027618,0.999991,0.003596,-0.000685,0.002292,0.586545,0.047533,-0.796291,-0.140092
22598,NaN,9.243272,-0.080891,-2.942301,-0.064506,-2.758415,-0.512773,0.649870,-0.132226,0.462889,-0.902100,-0.254883,0.150635,0.092454,-0.000499,-0.029364,0.999992,0.003249,-0.000661,0.002314,0.586190,0.047500,-0.797234,-0.136174
22599,NaN,9.098419,-0.125244,-3.113858,0.161489,-2.723254,-0.590404,0.591413,-0.117936,0.472091,-0.902344,-0.250488,0.155029,0.091005,-0.000946,-0.031088,0.999993,0.002957,-0.000590,0.002360,0.586665,0.050790,-0.797842,-0.129200
22600,NaN,9.191986,-0.154886,-2.775397,-0.196596,-2.664850,-0.588857,0.552113,-0.111926,0.489626,-0.904785,-0.244141,0.154785,0.091939,-0.001247,-0.027706,0.999993,0.002761,-0.000560,0.002448,0.586396,0.050380,-0.798642,-0.125585
22601,NaN,9.635264,-0.441011,-2.587823,-0.496441,-2.952760,-0.285670,0.508000,-0.107247,0.503070,-0.903076,-0.231201,0.161133,0.096377,-0.004102,-0.025837,0.999993,0.002540,-0.000536,0.002515,0.587022,0.054469,-0.799063,-0.118050
22602,NaN,9.782345,-0.625219,-2.986650,-0.176666,-3.153057,-0.064255,0.515796,-0.097939,0.500520,-0.903076,-0.229248,0.158936,0.097853,-0.005930,-0.029834,0.999993,0.002579,-0.000490,0.002503,0.586788,0.053922,-0.799783,-0.114542
22603,NaN,9.626890,-0.496389,-3.019260,-0.087329,-2.926586,-0.144883,0.565673,-0.087367,0.507696,-0.905273,-0.227051,0.161133,0.096294,-0.004634,-0.030164,0.999993,0.002828,-0.000437,0.002538,0.586810,0.054154,-0.800422,-0.109756
22604,NaN,9.579320,-0.419578,-2.608179,-0.464121,-2.732220,-0.270087,0.581418,-0.076412,0.526987,-0.905518,-0.222656,0.165283,0.095814,-0.003868,-0.026057,0.999992,0.002907,-0.000382,0.002635,0.586638,0.053706,-0.801098,-0.105899
22605,NaN,9.582255,-0.471515,-2.464477,-0.572086,-2.702497,-0.300357,0.556052,-0.057772,0.564370,-0.907959,-0.214111,0.169434,0.095842,-0.004376,-0.024630,0.999992,0.002780,-0.000289,0.002822,0.587246,0.057577,-0.801366,-0.098184
22606,NaN,9.532131,-0.225025,-2.498172,-0.520846,-2.387485,-0.263801,0.519470,-0.037380,0.614334,-0.908447,-0.203369,0.171387,0.095332,-0.001893,-0.024969,0.999992,0.002597,-0.000187,0.003072,0.587249,0.056618,-0.801897,-0.094305
22607,NaN,9.459137,-0.201785,-2.628216,-0.364259,-2.283218,-0.269247,0.496150,-0.018460,0.670770,-0.908447,-0.201416,0.162842,0.094600,-0.001635,-0.026278,0.999991,0.002481,-0.000092,0.003354,0.587612,0.056754,-0.802244,-0.088860
22608,NaN,9.525968,-0.288325,-2.800622,-0.220633,-2.316954,-0.155919,0.458184,-0.002678,0.722674,-0.910889,-0.190674,0.171143,0.095269,-0.002475,-0.028011,0.999991,0.002291,-0.000013,0.003613,0.587793,0.055196,-0.802649,-0.084895
22609,NaN,9.557490,-0.414718,-2.710399,-0.298034,-2.353642,-0.156871,0.432949,0.011128,0.785003,-0.913330,-0.182129,0.175293,0.095589,-0.003713,-0.027118,0.999990,0.002165,0.000056,0.003925,0.588394,0.055858,-0.802809,-0.078551
22610,NaN,9.796301,-0.566604,-2.606799,-0.466648,-2.453091,0.028443,0.413848,0.016540,0.826566,-0.911621,-0.171387,0.177246,0.097983,-0.005207,-0.026087,0.999989,0.002069,0.000083,0.004133,0.588669,0.053760,-0.803141,-0.074448
22611,NaN,9.873294,-0.804516,-2.559856,-0.529893,-2.600036,0.068622,0.414795,0.022181,0.871531,-0.916260,-0.162842,0.175049,0.098764,-0.007562,-0.025626,0.999988,0.002074,0.000111,0.004358,0.589042,0.051404,-0.803433,-0.069871
22612,NaN,9.854516,-0.659040,-2.294492,-0.774601,-2.344199,0.021660,0.436233,0.010339,0.913517,-0.918701,-0.154053,0.170654,0.098573,-0.006090,-0.022964,0.999987,0.002181,0.000052,0.004568,0.589289,0.049018,-0.803776,-0.065420
22613,NaN,10.100296,-0.488660,-2.033931,-1.096204,-2.094874,0.227260,0.421017,0.003274,0.959423,-0.916748,-0.145508,0.177002,0.101024,-0.004359,-0.020351,0.999986,0.002105,0.000016,0.004797,0.589547,0.045957,-0.804126,-0.060854
22614,NaN,10.133797,-0.454008,-1.818024,-1.311388,-1.950004,0.221350,0.384775,0.007556,1.021299,-0.919434,-0.134766,0.178955,0.101359,-0.003988,-0.018192,0.999985,0.001924,0.000038,0.005106,0.589797,0.042983,-0.804440,-0.056290
22615,NaN,10.167556,-0.344820,-1.524257,-1.596163,-1.720251,0.202965,0.317796,0.019230,1.107858,-0.921875,-0.124023,0.174316,0.101691,-0.002861,-0.015257,0.999983,0.001589,0.000096,0.005539,0.590220,0.040117,-0.804636,-0.050919
22616,NaN,10.163399,-0.253096,-1.379557,-1.730054,-1.503873,0.187607,0.195173,0.058704,1.205028,-0.915771,-0.113525,0.178467,0.101643,-0.001905,-0.013827,0.999981,0.000976,0.000294,0.006025,0.590718,0.035855,-0.804735,-0.046560
22617,NaN,10.195737,-0.214744,-1.983689,-1.151583,-1.359207,0.422502,0.059446,0.083140,1.302756,-0.925049,-0.096191,0.178223,0.101960,-0.001477,-0.019880,0.999979,0.000297,0.000416,0.006514,0.591456,0.031905,-0.804645,-0.041334
22618,NaN,10.388364,-0.140279,-2.674365,-0.539818,-1.185185,0.835888,-0.042320,0.125861,1.418057,-0.923096,-0.085449,0.176025,0.103873,-0.000672,-0.026809,0.999975,-0.000212,0.000629,0.007090,0.592253,0.026095,-0.804466,-0.037285
22619,NaN,10.891934,-0.070638,-3.234762,-0.140357,-1.016273,1.503150,-0.127811,0.163762,1.529616,-0.925781,-0.072754,0.171387,0.108894,0.000106,-0.032437,0.999970,-0.000639,0.000819,0.007648,0.593193,0.018104,-0.804136,-0.034055
22620,NaN,11.661904,-0.328207,-3.518589,-0.076512,-1.163342,2.316867,-0.174090,0.213880,1.636004,-0.924316,-0.055664,0.173340,0.116603,-0.002359,-0.035308,0.999966,-0.000870,0.001069,0.008180,0.594332,0.011041,-0.803589,-0.029878
22621,NaN,12.330841,-0.248880,-3.420263,-0.331502,-0.915961,2.948864,-0.192614,0.273212,1.739219,-0.933350,-0.040527,0.168701,0.123277,-0.001450,-0.034369,0.999961,-0.000963,0.001366,0.008696,0.595726,0.003514,-0.802784,-0.025205
22622,NaN,12.670949,-0.453360,-3.617012,-0.204741,-0.924933,3.337960,-0.203706,0.330658,1.824346,-0.929688,-0.021240,0.164307,0.126684,-0.003415,-0.036376,0.999957,-0.001019,0.001653,0.009122,0.597267,-0.004379,-0.801767,-0.020577
22623,NaN,13.003196,-0.916907,-3.404486,-0.469620,-1.148156,3.602619,-0.170504,0.381476,1.908789,-0.932617,-0.001953,0.164062,0.130047,-0.007957,-0.034286,0.999952,-0.000853,0.001907,0.009544,0.598980,-0.013596,-0.800486,-0.016141
22624,NaN,12.957809,-0.993113,-3.454404,-0.354269,-0.981306,3.593653,-0.107863,0.423617,1.976565,-0.930908,0.010986,0.159424,0.129594,-0.008669,-0.034814,0.999949,-0.000539,0.002118,0.009883,0.600802,-0.021800,-0.799029,-0.010677
22625,NaN,13.082912,-0.523182,-3.510037,-0.245245,-0.248930,3.738264,-0.019435,0.460921,2.049477,-0.929443,0.036621,0.154785,0.130792,-0.003895,-0.035401,0.999945,-0.000097,0.002305,0.010247,0.602746,-0.031056,-0.797311,-0.005199
22626,NaN,13.517586,-0.660290,-3.874162,0.057113,-0.107591,4.263816,0.071513,0.489815,2.136983,-0.926025,0.060303,0.152344,0.135141,-0.005145,-0.039075,0.999940,0.000358,0.002449,0.010685,0.604735,-0.039350,-0.795453,0.001455
22627,NaN,14.056636,0.029133,-3.796952,-0.017514,0.924514,4.718059,0.237950,0.512287,2.222258,-0.926514,0.077393,0.143555,0.140453,0.001898,-0.038328,0.999934,0.001190,0.002561,0.011111,0.606836,-0.052252,-0.793089,0.005570
22628,NaN,15.071920,0.433995,-3.927685,-0.015534,1.745379,5.670192,0.390668,0.557401,2.312934,-0.923096,0.101074,0.138916,0.150545,0.006159,-0.039686,0.999927,0.001953,0.002787,0.011564,0.609045,-0.060254,-0.790720,0.013995
22629,NaN,16.132789,1.455660,-4.019170,0.040147,3.254054,6.555993,0.521508,0.646805,2.437949,-0.917480,0.122314,0.132080,0.161003,0.016626,-0.040671,0.999917,0.002607,0.003234,0.012189,0.611644,-0.071302,-0.787629,0.021162
22630,NaN,16.694211,3.220217,-4.110196,0.299654,5.483581,6.793987,0.603695,0.726572,2.570057,-0.922852,0.152344,0.129639,0.166358,0.034468,-0.041605,0.999906,0.003018,0.003633,0.012850,0.614397,-0.079651,-0.784348,0.031142
22631,NaN,16.838095,2.876986,-3.945123,0.296413,5.618910,6.790945,0.678541,0.737971,2.749844,-0.915039,0.178223,0.120605,0.167816,0.031215,-0.039968,0.999893,0.003393,0.003690,0.013749,0.617277,-0.092119,-0.780352,0.039162
22632,NaN,17.526336,3.704277,-3.382577,-0.148985,7.066513,6.990640,0.881582,0.741663,2.898644,-0.907471,0.208252,0.107422,0.174574,0.039727,-0.034303,0.999878,0.004408,0.003708,0.014493,0.619939,-0.100846,-0.776456,0.051206
22633,NaN,18.235703,3.097467,-2.995741,-0.446219,7.171955,7.491736,1.140470,0.768379,3.019230,-0.895508,0.236084,0.102783,0.181744,0.033894,-0.030469,0.999862,0.005702,0.003842,0.015095,0.623128,-0.115019,-0.771291,0.059935
22634,NaN,19.387129,3.831454,-2.597155,-0.796739,8.747985,8.078283,1.431213,0.811898,3.132704,-0.892090,0.266113,0.097900,0.193131,0.041532,-0.026467,0.999843,0.007156,0.004059,0.015663,0.626051,-0.122870,-0.766405,0.074742
22635,NaN,20.526895,3.978207,-2.574153,-0.645599,9.826077,8.809669,1.669440,0.855824,3.255007,-0.884766,0.300293,0.084717,0.204471,0.043332,-0.026266,0.999824,0.008347,0.004279,0.016274,0.629845,-0.137193,-0.759757,0.085106
22636,NaN,21.099211,4.116185,-2.254007,-0.837609,10.789079,8.896802,1.858850,0.857276,3.340330,-0.870850,0.336914,0.064941,0.210165,0.044889,-0.023036,0.999808,0.009294,0.004286,0.016701,0.632839,-0.144371,-0.753824,0.102085
22637,NaN,21.220978,5.679312,-2.445214,-0.008512,12.923903,8.117353,1.815736,0.753689,3.294817,-0.856934,0.371094,0.053711,0.211141,0.060501,-0.024711,0.999816,0.009078,0.003768,0.016473,0.636768,-0.161354,-0.745897,0.110133
22638,NaN,17.763927,4.670792,-2.249455,0.313150,11.231666,4.889452,1.534826,0.640108,3.174150,-0.844971,0.398926,0.046875,0.176794,0.049692,-0.022688,0.999839,0.007674,0.003200,0.015870,0.638548,-0.168636,-0.740328,0.125432
22639,NaN,14.416371,3.417134,-4.084627,2.891686,8.975896,2.321780,0.858611,0.395968,2.949958,-0.828613,0.422607,0.038086,0.143556,0.036468,-0.040978,0.999880,0.004293,0.001980,0.014749,0.641402,-0.191118,-0.732413,0.125095
22640,NaN,12.669013,1.896643,-5.093961,3.975836,7.101283,1.314028,0.087133,0.256550,2.682973,-0.814209,0.439697,0.040039,0.126355,0.020685,-0.051093,0.999909,0.000436,0.001283,0.013414,0.640693,-0.200812,-0.728899,0.133764
22641,NaN,11.048490,2.807534,-5.050683,4.291780,7.371716,-0.719102,-0.277266,0.292065,2.391642,-0.804199,0.460938,0.037598,0.110065,0.029323,-0.050708,0.999926,-0.001386,0.001460,0.011958,0.639977,-0.210948,-0.725599,0.139416
22642,NaN,9.302080,4.549098,-4.081861,3.787100,8.255596,-3.379686,0.240591,0.394530,1.963837,-0.793945,0.478271,0.028809,0.092487,0.046450,-0.040946,0.999949,0.001203,0.001973,0.009819,0.640265,-0.217572,-0.722055,0.146153
22643,NaN,7.741986,3.119165,-1.609579,1.351042,6.503010,-4.507796,1.075699,0.534095,1.604060,-0.783691,0.490967,0.020264,0.077123,0.031898,-0.016132,0.999950,0.005378,0.002670,0.008020,0.642329,-0.220712,-0.717676,0.153759
22644,NaN,5.357866,1.230630,-0.434157,0.174768,3.809136,-5.829091,0.853844,0.482672,1.404473,-0.775391,0.503906,0.009277,0.053480,0.012701,-0.004417,0.999963,0.004269,0.002413,0.007022,0.643904,-0.223377,-0.713887,0.160798
22645,NaN,5.643366,-5.913712,-1.118539,0.071620,-2.075959,-1.828017,0.781779,0.190364,1.085086,-0.767090,0.512451,0.004883,0.056742,-0.058785,-0.011470,0.999977,0.003909,0.000952,0.005425,0.644762,-0.225309,-0.711312,0.165992
22646,NaN,8.995757,-9.939141,-3.777342,2.129788,-3.709205,3.441820,1.230064,-0.438576,0.738692,-0.760742,0.516846,0.002686,0.090407,-0.098824,-0.038184,0.999972,0.006150,-0.002193,0.003693,0.643961,-0.223606,-0.710846,0.173241
22647,NaN,7.557422,-5.087614,-2.292658,1.289203,-0.263631,-0.510931,1.506085,-0.252528,0.214320,-0.754395,0.516846,-0.012207,0.075658,-0.050621,-0.023213,0.999970,0.007530,-0.001263,0.001072,0.644711,-0.219663,-0.710016,0.178811
22648,NaN,4.337745,0.613476,-2.099847,1.813490,2.819135,-6.296243,1.765089,-0.274028,-0.297372,-0.750000,0.519043,-0.022949,0.043415,0.006255,-0.020884,0.999959,0.008825,-0.001370,-0.001487,0.645920,-0.212668,-0.709613,0.184414
22649,NaN,2.357563,4.704208,-0.637682,0.716581,5.230787,-10.280487,1.838818,-0.290408,-0.796108,-0.753906,0.508301,-0.031250,0.023772,0.047003,-0.005910,0.999949,0.009194,-0.001452,-0.003980,0.647707,-0.203987,-0.709610,0.187934
22650,NaN,1.291260,7.052885,0.801636,-0.629905,6.664960,-12.502125,1.427230,-0.280882,-1.276951,-0.762207,0.497559,-0.039795,0.013351,0.070385,0.008538,0.999953,0.007136,-0.001404,-0.006385,0.649339,-0.194566,-0.710442,0.189142
22651,NaN,1.298114,7.720566,1.754303,-1.639383,7.253024,-12.825047,0.769643,-0.366773,-1.594139,-0.763916,0.484619,-0.041748,0.013563,0.077031,0.017864,0.999959,0.003848,-0.001834,-0.007971,0.650441,-0.186446,-0.712377,0.186236
22652,NaN,1.633507,7.056630,2.611346,-2.586028,6.862714,-12.157427,0.077298,-0.440971,-1.870740,-0.776367,0.476074,-0.039551,0.016936,0.070400,0.026178,0.999954,0.000386,-0.002205,-0.009354,0.650658,-0.179117,-0.715444,0.180832
22653,NaN,2.439330,5.063779,2.661425,-2.746278,5.551827,-10.369147,-0.611205,-0.497430,-2.139843,-0.784424,0.458984,-0.034912,0.024868,0.050455,0.026521,0.999935,-0.003056,-0.002487,-0.010699,0.650412,-0.173425,-0.719426,0.171214
22654,NaN,3.374612,2.910977,1.995914,-2.223737,4.103735,-8.377700,-0.943196,-0.525411,-2.412511,-0.790283,0.437500,-0.030518,0.034042,0.028794,0.019912,0.999913,-0.004716,-0.002627,-0.012062,0.649717,-0.167354,-0.723965,0.160419
22655,NaN,3.851521,1.395373,1.677099,-2.003733,2.926172,-7.163949,-1.055521,-0.459277,-2.712241,-0.804443,0.416260,-0.028076,0.038662,0.013519,0.016788,0.999891,-0.005277,-0.002296,-0.013561,0.649456,-0.161030,-0.728426,0.147211
22656,NaN,4.034391,0.419820,1.243166,-1.646886,2.043582,-6.479736,-1.140887,-0.378190,-3.036383,-0.808105,0.394775,-0.023438,0.040379,0.003656,0.012486,0.999867,-0.005704,-0.001891,-0.015181,0.649313,-0.153381,-0.732836,0.133484
22657,NaN,4.257047,-0.012654,0.962644,-1.430260,1.625542,-6.023251,-1.186556,-0.300373,-3.337262,-0.830811,0.364746,-0.023193,0.042547,-0.000779,0.009694,0.999842,-0.005932,-0.001502,-0.016685,0.649579,-0.145227,-0.736975,0.117576
22658,NaN,4.459702,0.358183,0.883269,-1.370266,1.913668,-5.906831,-1.167833,-0.224391,-3.636440,-0.838379,0.336914,-0.020508,0.044643,0.002822,0.008865,0.999817,-0.005839,-0.001122,-0.018181,0.649928,-0.135467,-0.740890,0.101607
22659,NaN,4.831977,0.814594,0.703378,-1.216321,2.311685,-5.607911,-1.234821,-0.156696,-3.940136,-0.852295,0.304932,-0.024414,0.048463,0.007235,0.007025,0.999787,-0.006174,-0.000783,-0.019699,0.650489,-0.125213,-0.744467,0.083397
22660,NaN,5.411120,0.893176,0.527383,-1.122922,2.367658,-4.966543,-1.285864,-0.112089,-4.233293,-0.863770,0.266357,-0.019775,0.054282,0.007818,0.005252,0.999755,-0.006429,-0.000560,-0.021165,0.650878,-0.113565,-0.747830,0.064896
22661,NaN,5.867731,0.728456,0.171011,-0.858706,2.078446,-4.342127,-1.280842,-0.063582,-4.502572,-0.877686,0.231934,-0.021484,0.058821,0.005972,0.001688,0.999726,-0.006404,-0.000318,-0.022511,0.651270,-0.101282,-0.750736,0.044556
22662,NaN,6.287126,0.874755,-0.115106,-0.641850,2.023339,-3.829977,-1.175968,-0.027527,-4.766189,-0.886963,0.187012,-0.022949,0.063056,0.007239,-0.001188,0.999699,-0.005879,-0.000138,-0.023829,0.651442,-0.087189,-0.753269,0.024626
22663,NaN,6.993161,1.123331,-0.259713,-0.595907,2.052469,-3.055829,-1.065987,0.003982,-5.027955,-0.895996,0.142090,-0.024414,0.070184,0.009457,-0.002652,0.999670,-0.005329,0.000020,-0.025137,0.651424,-0.072131,-0.755270,0.003312
22664,NaN,7.446695,1.100942,-0.539336,-0.422522,1.689831,-2.470437,-1.023810,0.002003,-5.275547,-0.900879,0.094971,-0.023682,0.074722,0.009013,-0.005444,0.999639,-0.005118,0.000010,-0.026375,0.650920,-0.055522,-0.756905,-0.017734
22665,NaN,8.397495,0.747311,-1.080137,-0.111955,0.904907,-1.363264,-0.998264,-0.023272,-5.527920,-0.905762,0.049805,-0.029541,0.084139,0.005095,-0.010821,0.999606,-0.004991,-0.000116,-0.027636,0.649784,-0.038264,-0.758080,-0.040397
22666,NaN,9.598311,0.287075,-1.723669,0.225526,-0.135487,-0.061542,-0.832986,-0.051417,-5.775786,-0.912598,0.000732,-0.033203,0.096016,0.000026,-0.017216,0.999574,-0.004164,-0.000257,-0.028875,0.647992,-0.019077,-0.758856,-0.062287
22667,NaN,11.155407,-0.039697,-2.033252,0.166960,-1.206576,1.459229,-0.580606,-0.088943,-6.025718,-0.908691,-0.055176,-0.036621,0.111482,-0.003816,-0.020275,0.999542,-0.002903,-0.000445,-0.030124,0.645348,0.001468,-0.759161,-0.084844
22668,NaN,12.650229,-0.112658,-2.394962,0.170102,-2.219728,2.866723,-0.336721,-0.162874,-6.254484,-0.904297,-0.113037,-0.037842,0.126403,-0.005121,-0.023840,0.999509,-0.001683,-0.000814,-0.031267,0.641769,0.024047,-0.759120,-0.106257
22669,NaN,14.247722,-0.026152,-2.903309,0.276873,-3.323496,4.337740,-0.089761,-0.270163,-6.436381,-0.897949,-0.175049,-0.039062,0.142409,-0.004859,-0.028839,0.999481,-0.000449,-0.001351,-0.032176,0.636882,0.047652,-0.758765,-0.128008
22670,NaN,15.938162,0.143258,-3.564613,0.484894,-4.585305,5.852609,0.072858,-0.427481,-6.534654,-0.883057,-0.230957,-0.035889,0.159391,-0.003763,-0.035306,0.999464,0.000364,-0.002137,-0.032667,0.630726,0.072370,-0.758205,-0.148567
22671,NaN,18.263302,-0.208273,-4.891818,1.115469,-6.845940,7.773978,0.056706,-0.632207,-6.540900,-0.872559,-0.286621,-0.030762,0.182588,-0.008042,-0.048343,0.999460,0.000283,-0.003160,-0.032699,0.622969,0.096517,-0.757478,-0.169769
22672,NaN,20.672666,-1.294348,-6.694275,2.083835,-10.103892,9.351456,-0.062913,-0.876438,-6.460602,-0.855469,-0.346680,-0.023438,0.206455,-0.019637,-0.066032,0.999469,-0.000315,-0.004381,-0.032297,0.613873,0.119989,-0.756630,-0.190457
22673,NaN,23.308387,-2.758095,-8.717465,3.096515,-14.031911,10.686188,-0.358942,-1.225660,-6.305382,-0.832275,-0.393799,-0.013916,0.232585,-0.035074,-0.085690,0.999483,-0.001794,-0.006127,-0.031521,0.603009,0.141300,-0.755897,-0.212210
22674,NaN,25.887399,-6.149506,-9.508872,2.727240,-19.544351,10.404464,-0.635658,-1.586317,-6.027785,-0.809326,-0.438965,-0.006836,0.257600,-0.069570,-0.092829,0.999509,-0.003178,-0.007930,-0.030134,0.590780,0.160408,-0.755372,-0.233797
22675,NaN,26.519011,-9.151831,-8.812133,1.306553,-23.370546,7.979034,-0.747373,-1.958675,-5.517348,-0.784180,-0.481934,0.002686,0.263369,-0.099123,-0.085175,0.999565,-0.003736,-0.009792,-0.027583,0.577271,0.176673,-0.755536,-0.254383
22676,NaN,24.921071,-13.212747,-6.717264,-0.916475,-26.162337,2.647703,-0.640542,-2.361461,-4.870501,-0.756836,-0.522705,0.018311,0.246658,-0.138363,-0.063813,0.999629,-0.003202,-0.011806,-0.024349,0.562516,0.190152,-0.756950,-0.272847
22677,NaN,24.423874,-16.577767,-0.189139,-7.448284,-27.619332,-2.537831,0.358498,-2.359220,-4.298648,-0.734375,-0.552734,0.038086,0.240603,-0.170975,0.000658,0.999698,0.001792,-0.011795,-0.021491,0.547467,0.204466,-0.759703,-0.285174
22678,NaN,22.013563,-10.892836,4.926483,-11.714710,-21.034910,-2.904256,0.938296,-1.721586,-3.817384,-0.718750,-0.574219,0.049316,0.217568,-0.113333,0.050620,0.999770,0.004691,-0.008607,-0.019085,0.534408,0.219031,-0.761672,-0.293750
22679,NaN,16.929965,-9.805153,2.600025,-7.881227,-17.658095,-5.867499,-0.274885,-1.081383,-3.251407,-0.696533,-0.595947,0.060547,0.167532,-0.100748,0.027047,0.999852,-0.001374,-0.005407,-0.016256,0.526359,0.229706,-0.760300,-0.303521
22680,NaN,15.116140,-16.564021,-5.856328,0.799770,-23.158266,-10.242467,-0.777751,-0.851919,-2.495877,-0.687012,-0.617188,0.058594,0.149323,-0.167736,-0.057275,0.999906,-0.003889,-0.004259,-0.012479,0.520183,0.235831,-0.758421,-0.313992
22681,NaN,14.807868,-21.915524,-6.498115,1.677764,-26.760230,-14.592819,-0.358186,-0.798276,-1.471941,-0.680420,-0.623779,0.063232,0.146717,-0.220354,-0.064000,0.999963,-0.001791,-0.003991,-0.007360,0.516153,0.240122,-0.757911,-0.318589
22682,NaN,14.010490,-19.140300,-0.192372,-4.127142,-22.781298,-14.975972,-0.179231,-0.644410,-0.252993,-0.682617,-0.623779,0.061035,0.139867,-0.191581,-0.001301,0.999994,-0.000896,-0.003222,-0.001265,0.513527,0.239589,-0.758977,-0.320689
22683,NaN,13.650407,-14.401430,1.460271,-5.769822,-18.902192,-12.110111,-0.905423,-0.380814,0.851649,-0.683105,-0.610840,0.056396,0.137087,-0.143363,0.015513,0.999979,-0.004527,-0.001904,0.004258,0.515709,0.234625,-0.759191,-0.320350
22684,NaN,13.931883,-12.694272,0.832056,-5.576551,-18.015200,-10.338649,-1.642904,-0.061439,1.623167,-0.696289,-0.600098,0.043457,0.140340,-0.125732,0.009400,0.999933,-0.008214,-0.000307,0.008116,0.519976,0.224112,-0.758569,-0.322447
22685,NaN,13.684294,-14.989940,-0.320672,-4.596998,-19.698340,-11.510911,-1.801784,0.218191,2.131942,-0.711914,-0.580811,0.036621,0.138428,-0.148451,-0.002015,0.999902,-0.009009,0.001091,0.010659,0.527612,0.213076,-0.757083,-0.321012
22686,NaN,13.144684,-11.050007,-3.928671,-1.224779,-17.464913,-7.867319,-1.182456,0.207046,2.369315,-0.722900,-0.572021,0.027832,0.132705,-0.109163,-0.038776,0.999912,-0.005912,0.001035,0.011846,0.533420,0.201300,-0.757094,-0.318984
22687,NaN,11.382449,1.165826,-7.516524,3.181945,-8.397186,0.520598,-0.735612,0.192694,2.135485,-0.734131,-0.559326,0.029785,0.113621,0.012595,-0.075320,0.999936,-0.003678,0.000963,0.010677,0.539821,0.193146,-0.757183,-0.312988
22688,NaN,8.566833,16.833658,-4.099216,1.708268,5.953914,8.495473,0.478836,0.347595,1.719655,-0.743408,-0.544189,0.027344,0.084145,0.169162,-0.040735,0.999959,0.002394,0.001738,0.008598,0.543351,0.188462,-0.758621,-0.306179
22689,NaN,8.370492,15.290611,-0.799707,-1.352088,6.108330,6.477242,0.140377,0.330118,1.496450,-0.750244,-0.531250,0.020752,0.082544,0.153532,-0.008026,0.999970,0.000702,0.001651,0.007482,0.548196,0.185221,-0.759027,-0.298418
22690,NaN,12.492158,-2.619011,5.754291,-9.662570,-8.059184,-3.672401,-0.379996,0.323945,1.938487,-0.763672,-0.514160,0.016113,0.125260,-0.024868,0.057388,0.999950,-0.001900,0.001620,0.009692,0.552650,0.177294,-0.759326,-0.294225
22691,NaN,16.379296,-7.126935,4.432105,-9.846795,-14.013447,-3.077205,-0.706758,0.320127,2.206926,-0.770508,-0.501221,0.009277,0.164636,-0.069299,0.044305,0.999932,-0.003534,0.001601,0.011034,0.559114,0.168938,-0.759016,-0.287658
22692,NaN,16.754870,4.765717,5.184634,-9.845694,-4.544910,4.771955,-0.464176,0.457562,2.042335,-0.786133,-0.486328,0.009033,0.167167,0.049485,0.051350,0.999943,-0.002321,0.002288,0.010211,0.564156,0.160534,-0.758748,-0.283300
22693,NaN,17.298516,5.894337,2.755703,-7.443338,-4.223217,6.567813,-1.253649,-0.005924,2.193175,-0.795410,-0.466797,0.004395,0.172323,0.061007,0.027184,0.999920,-0.006268,-0.000030,0.010966,0.569712,0.150258,-0.758380,-0.278764
22694,NaN,19.621769,-5.683902,-0.430379,-6.156000,-15.179084,2.401269,-1.394290,-0.212187,2.594096,-0.809082,-0.445312,-0.006592,0.196937,-0.054315,-0.003711,0.999891,-0.006971,-0.001061,0.012970,0.573517,0.136134,-0.758905,-0.276783
22695,NaN,16.006519,-7.037805,-3.605057,-2.183216,-14.899752,-0.223657,-0.820268,-0.184710,2.690407,-0.816406,-0.419678,-0.007080,0.161027,-0.068363,-0.035619,0.999901,-0.004101,-0.000924,0.013452,0.578606,0.124999,-0.759776,-0.268944
22696,NaN,11.819474,-0.815178,-4.161575,0.293752,-7.575656,0.197252,-0.692915,-0.361225,2.719803,-0.832275,-0.395996,-0.009521,0.118367,-0.006686,-0.041377,0.999900,-0.003464,-0.001806,0.013599,0.581274,0.112160,-0.761511,-0.263898
22697,NaN,8.458023,3.996733,-3.053763,0.947208,-1.377285,-0.115317,-0.680779,-0.331112,2.701669,-0.839355,-0.376709,-0.007812,0.084082,0.041001,-0.030537,0.999902,-0.003404,-0.001656,0.013508,0.585461,0.101252,-0.762796,-0.255198
22698,NaN,5.589686,0.619160,-2.650193,0.955614,-2.666331,-4.278474,-0.485934,-0.265647,2.563130,-0.851074,-0.353271,-0.006104,0.055847,0.006843,-0.026444,0.999914,-0.002430,-0.001328,0.012815,0.587923,0.089701,-0.764182,-0.249652
22699,NaN,8.376966,-6.714150,-4.798368,1.108922,-10.619404,-4.886228,0.258256,-0.085810,2.435361,-0.864502,-0.335938,-0.002197,0.084599,-0.066053,-0.048033,0.999925,0.001291,-0.000429,0.012176,0.591910,0.082828,-0.765621,-0.237922
22700,NaN,10.419368,-3.945136,-4.160978,0.389396,-8.709008,-1.723496,1.274234,0.130584,2.210475,-0.860840,-0.316650,0.001953,0.104592,-0.038030,-0.041923,0.999918,0.006371,0.000653,0.011052,0.594472,0.078280,-0.767600,-0.226420
22701,NaN,9.148946,-1.169998,-2.078108,-0.697605,-5.015993,-1.828962,1.711714,0.153759,1.950060,-0.872070,-0.301758,0.008057,0.091581,-0.010629,-0.020945,0.999916,0.008558,0.000769,0.009750,0.597914,0.077936,-0.769583,-0.210158
22702,NaN,8.793200,-2.342407,-0.366801,-2.329378,-5.396088,-2.856000,1.790661,0.077247,1.765104,-0.870605,-0.282471,0.010010,0.088132,-0.022613,-0.003907,0.999921,0.008953,0.000386,0.008825,0.599330,0.076565,-0.771858,-0.197933
22703,NaN,10.201866,-0.630393,0.259262,-3.020236,-4.066656,-0.931186,1.871500,0.014408,1.596135,-0.877441,-0.271729,0.016113,0.102065,-0.005513,0.002531,0.999924,0.009357,0.000072,0.007980,0.601481,0.077956,-0.773963,-0.182000
22704,NaN,10.777658,1.083298,-0.136368,-2.614971,-2.608515,0.370898,1.506803,-0.109562,1.461458,-0.884521,-0.254639,0.020020,0.107694,0.011630,-0.001219,0.999945,0.007534,-0.000548,0.007307,0.601775,0.076720,-0.776188,-0.171795
22705,NaN,10.652789,1.715424,0.013719,-2.660040,-1.781472,0.491356,0.911147,-0.242192,1.386864,-0.889160,-0.248047,0.028564,0.106405,0.017891,0.000346,0.999965,0.004556,-0.001211,0.006934,0.602866,0.075832,-0.777900,-0.160227
22706,NaN,10.271069,0.821093,-0.980497,-1.691701,-2.510091,0.085101,0.535468,-0.289349,1.345149,-0.889648,-0.233154,0.026123,0.102666,0.008927,-0.009633,0.999973,0.002677,-0.001447,0.006726,0.602607,0.071971,-0.779687,-0.154183
22707,NaN,9.854020,0.064434,-1.941178,-0.698292,-3.080586,-0.278806,0.309788,-0.302986,1.273195,-0.890137,-0.222412,0.030273,0.098563,0.001302,-0.019261,0.999977,0.001549,-0.001515,0.006366,0.603432,0.069676,-0.780963,-0.145301
22708,NaN,9.703462,-0.708817,-2.476640,-0.214708,-3.726239,-0.492758,0.290955,-0.266332,1.175737,-0.892578,-0.213867,0.036621,0.097107,-0.006482,-0.024647,0.999981,0.001455,-0.001332,0.005879,0.603142,0.065758,-0.782369,-0.140693
22709,NaN,9.734459,-0.976395,-2.585948,-0.110082,-3.858048,-0.458419,0.395058,-0.223458,1.086562,-0.895020,-0.203125,0.040771,0.097424,-0.009184,-0.025769,0.999983,0.001975,-0.001117,0.005433,0.603980,0.064525,-0.783344,-0.131973
22710,NaN,9.676588,-1.112534,-2.574892,-0.125192,-3.866179,-0.509993,0.497534,-0.177286,0.992549,-0.899902,-0.190186,0.038330,0.096842,-0.010581,-0.025690,0.999984,0.002488,-0.000886,0.004963,0.603779,0.062011,-0.784512,-0.127068
22712,NaN,9.881258,-1.118590,-2.596064,-0.250634,-7.492205,9.326565,0.648332,-0.125302,0.830814,-0.902344,-0.179688,0.040283,0.197865,-0.020392,-0.051810,0.999944,0.006483,-0.001253,0.008308,0.604423,0.061256,-0.786222,-0.113029
22713,NaN,9.832461,-0.730651,-2.077161,-0.602209,-3.173535,-0.268516,0.721977,-0.092431,0.677052,-0.900635,-0.168945,0.048828,0.098358,-0.006899,-0.020752,0.999988,0.003610,-0.000462,0.003385,0.604223,0.060711,-0.787103,-0.108156
22714,NaN,9.746597,-0.495364,-1.510093,-1.088562,-2.771307,-0.396933,0.634143,-0.097068,0.595175,-0.900635,-0.166748,0.048828,0.097487,-0.004616,-0.015069,0.999990,0.003171,-0.000485,0.002976,0.604932,0.062282,-0.787538,-0.099806
22715,NaN,9.916270,-0.293258,-1.165710,-1.468070,-2.521352,-0.259440,0.513917,-0.122060,0.546676,-0.900879,-0.162354,0.046631,0.099177,-0.002632,-0.011604,0.999993,0.002570,-0.000610,0.002733,0.604568,0.061609,-0.788325,-0.096150
22716,NaN,9.908391,-0.399552,-1.596147,-1.031611,-2.568539,-0.157552,0.427432,-0.144978,0.523503,-0.903076,-0.156006,0.050781,0.099105,-0.003702,-0.015898,0.999994,0.002137,-0.000725,0.002618,0.605044,0.062821,-0.788723,-0.088840
22717,NaN,9.871842,-0.577666,-2.188326,-0.464756,-2.715407,-0.066612,0.442158,-0.154228,0.496577,-0.901123,-0.151855,0.054932,0.098749,-0.005483,-0.021819,0.999994,0.002211,-0.000771,0.002483,0.604522,0.062117,-0.789534,-0.085624
22718,NaN,9.798590,-0.583263,-2.550157,-0.076103,-2.632680,-0.018875,0.504955,-0.137957,0.464847,-0.907715,-0.149658,0.056885,0.098017,-0.005541,-0.025448,0.999994,0.002525,-0.000690,0.002324,0.604906,0.063803,-0.789877,-0.078184
22719,NaN,9.638875,-0.544376,-2.599690,0.001700,-2.509195,-0.134553,0.538232,-0.126325,0.450079,-0.907959,-0.141113,0.056885,0.096417,-0.005157,-0.025950,0.999994,0.002691,-0.000632,0.002250,0.604416,0.063589,-0.790605,-0.074718
22720,NaN,9.457543,-0.537876,-2.793044,0.255786,-2.380364,-0.231263,0.531278,-0.110338,0.446270,-0.907959,-0.138916,0.052490,0.094602,-0.005094,-0.027892,0.999994,0.002656,-0.000552,0.002231,0.604816,0.065438,-0.790819,-0.067229
22721,NaN,9.277486,-0.412120,-2.815577,0.312633,-2.168268,-0.359135,0.532923,-0.087551,0.454967,-0.904053,-0.134521,0.058838,0.092796,-0.003835,-0.028126,0.999994,0.002665,-0.000438,0.002275,0.604453,0.065205,-0.791404,-0.063754
22722,NaN,9.182664,-0.394669,-2.696780,0.241356,-2.036615,-0.456226,0.501752,-0.075698,0.471087,-0.906250,-0.132568,0.061035,0.091846,-0.003663,-0.026942,0.999994,0.002509,-0.000378,0.002355,0.604928,0.066870,-0.791466,-0.056314
22723,NaN,9.373310,-0.624500,-2.429700,-0.064151,-2.237692,-0.371252,0.483192,-0.065139,0.491285,-0.906250,-0.128174,0.063232,0.093756,-0.005956,-0.024281,0.999994,0.002416,-0.000326,0.002456,0.604652,0.066353,-0.791956,-0.052916
22724,NaN,9.605951,-0.708437,-2.253762,-0.268464,-2.266377,-0.187367,0.487089,-0.055001,0.506724,-0.906494,-0.121826,0.062988,0.096083,-0.006786,-0.022528,0.999994,0.002435,-0.000275,0.002534,0.605136,0.067803,-0.791925,-0.045487
22725,NaN,9.701431,-0.487754,-2.158126,-0.403414,-2.005042,-0.074622,0.483063,-0.054731,0.536353,-0.910889,-0.117432,0.054443,0.097033,-0.004565,-0.021566,0.999993,0.002415,-0.000274,0.002682,0.604881,0.067110,-0.792373,-0.041947
22726,NaN,9.765280,-0.372811,-2.368135,-0.207187,-1.798756,0.078162,0.485688,-0.047745,0.577275,-0.909180,-0.108887,0.064941,0.097669,-0.003389,-0.023667,0.999993,0.002428,-0.000239,0.002886,0.605310,0.068205,-0.792314,-0.034452
22727,NaN,9.701731,-0.139400,-2.345399,-0.236428,-1.489708,0.054852,0.479439,-0.042535,0.631383,-0.909424,-0.102539,0.062744,0.097026,-0.001032,-0.023436,0.999992,0.002397,-0.000213,0.003157,0.605090,0.067128,-0.792731,-0.030633
22728,NaN,9.743110,0.072278,-2.055282,-0.532719,-1.190515,0.059292,0.434612,-0.047278,0.698814,-0.907471,-0.091797,0.060547,0.097433,0.001108,-0.020528,0.999992,0.002173,-0.000236,0.003494,0.605442,0.067475,-0.792685,-0.023190
22729,NaN,9.704599,0.110427,-1.843856,-0.740215,-1.078356,-0.020858,0.329948,-0.045289,0.774570,-0.907715,-0.087402,0.064697,0.097045,0.001511,-0.018414,0.999991,0.001650,-0.000226,0.003873,0.605243,0.065378,-0.793111,-0.019529
22730,NaN,9.667148,-0.222444,-1.894670,-0.648823,-1.290256,-0.065551,0.215939,-0.047838,0.847636,-0.914307,-0.083252,0.068848,0.096684,-0.001794,-0.018926,0.999990,0.001080,-0.000239,0.004238,0.605565,0.064339,-0.793088,-0.012766
22731,NaN,9.650347,-0.555826,-1.737856,-0.779274,-1.540916,-0.144393,0.145978,-0.055409,0.901990,-0.914795,-0.072510,0.070801,0.096532,-0.005110,-0.017356,0.999990,0.000730,-0.000277,0.004510,0.605357,0.061180,-0.793543,-0.009449
22732,NaN,9.512743,-1.055649,-1.840745,-0.596814,-1.901577,-0.272136,0.103610,-0.069534,0.942117,-0.910889,-0.059570,0.066406,0.095182,-0.010099,-0.018380,0.999989,0.000518,-0.000348,0.004711,0.605519,0.059286,-0.793614,-0.003120
22733,NaN,9.445597,-1.420043,-1.858353,-0.546931,-2.164725,-0.341501,0.128596,-0.086275,0.967074,-0.915283,-0.055420,0.064209,0.094531,-0.013732,-0.018552,0.999988,0.000643,-0.000431,0.004835,0.605153,0.055816,-0.794150,0.000319
22734,NaN,9.612239,-1.474987,-1.793397,-0.647120,-2.121938,-0.176049,0.175484,-0.090831,0.975149,-0.909424,-0.042480,0.070312,0.096201,-0.014265,-0.017903,0.999988,0.000877,-0.000454,0.004876,0.605097,0.053879,-0.794298,0.006772
22735,NaN,9.745381,-1.337979,-1.462744,-1.031745,-1.923776,-0.110318,0.212369,-0.096228,1.005367,-0.911865,-0.033936,0.065918,0.097526,-0.012874,-0.014594,0.999987,0.001062,-0.000481,0.005027,0.604622,0.050510,-0.794838,0.010658
22736,NaN,9.743942,-1.023839,-1.305777,-1.216301,-1.503693,-0.119582,0.179822,-0.091462,1.050263,-0.907959,-0.020996,0.074463,0.097497,-0.009715,-0.013022,0.999986,0.000899,-0.000457,0.005251,0.604450,0.048164,-0.795002,0.017109
22737,NaN,9.826308,-0.762517,-1.544966,-1.053788,-1.121719,0.044033,0.067420,-0.073587,1.106999,-0.914795,-0.012451,0.069824,0.098309,-0.007076,-0.015416,0.999985,0.000337,-0.000368,0.005535,0.604043,0.043951,-0.795468,0.020732
22738,NaN,9.879107,-0.735323,-2.195713,-0.454234,-0.908215,0.283168,-0.069759,-0.046453,1.183233,-0.915039,-0.001709,0.067627,0.098837,-0.006776,-0.021932,0.999982,-0.000349,-0.000232,0.005916,0.603990,0.040195,-0.795541,0.026358
22739,NaN,10.165731,-0.914551,-3.157411,0.390769,-0.890344,0.826911,-0.134488,-0.011898,1.247145,-0.917480,0.009033,0.071777,0.101714,-0.008533,-0.031562,0.999980,-0.000672,-0.000059,0.006236,0.603799,0.034806,-0.795825,0.029614
22740,NaN,10.829387,-1.047776,-3.509430,0.557351,-0.848767,1.574011,-0.091733,0.028180,1.302865,-0.917969,0.021729,0.075928,0.108354,-0.009788,-0.035105,0.999979,-0.000459,0.000141,0.006514,0.603917,0.030371,-0.795686,0.035288
22741,NaN,11.343280,-0.860439,-3.332030,0.221016,-0.535227,2.026885,-0.024152,0.074876,1.362389,-0.909912,0.034668,0.071289,0.113475,-0.007836,-0.033362,0.999977,-0.000121,0.000374,0.006812,0.603970,0.024841,-0.795648,0.039344
22742,NaN,11.890877,-0.587350,-3.030619,-0.237005,-0.101789,2.469561,-0.035560,0.131323,1.442131,-0.915039,0.056152,0.071045,0.118927,-0.005021,-0.030383,0.999974,-0.000178,0.000657,0.007211,0.604341,0.019883,-0.795180,0.045453
22743,NaN,12.416540,-0.500481,-2.820511,-0.586044,0.158584,2.915415,-0.060090,0.175334,1.541009,-0.915039,0.058350,0.066650,0.124174,-0.004057,-0.028313,0.999970,-0.000300,0.000877,0.007705,0.604681,0.013511,-0.794787,0.049916
22744,NaN,12.801257,-0.533405,-2.776756,-0.716427,0.356202,3.272544,-0.085392,0.226056,1.633716,-0.909180,0.079834,0.060059,0.128019,-0.004300,-0.027910,0.999966,-0.000427,0.001130,0.008168,0.605261,0.007508,-0.794005,0.056204
22745,NaN,12.926669,-0.694586,-2.816664,-0.686698,0.423970,3.410752,-0.079216,0.265408,1.729884,-0.909912,0.096924,0.063965,0.129283,-0.005839,-0.028336,0.999962,-0.000396,0.001327,0.008649,0.605814,0.000302,-0.793252,0.061161
22746,NaN,12.962630,-0.883439,-3.181741,-0.309565,0.524668,3.549867,-0.030113,0.316553,1.820255,-0.906006,0.107666,0.061768,0.129649,-0.007659,-0.032021,0.999957,-0.000151,0.001583,0.009101,0.606557,-0.006399,-0.792097,0.068043
22747,NaN,13.015091,-0.615825,-3.523858,0.011087,1.075126,3.641976,0.068972,0.368828,1.907564,-0.908936,0.131104,0.052734,0.130136,-0.004905,-0.035480,0.999953,0.000345,0.001844,0.009538,0.607347,-0.013894,-0.790850,0.074115
22748,NaN,13.720487,-0.768899,-3.727492,0.068465,1.310689,4.365031,0.174603,0.414422,2.001876,-0.907227,0.144043,0.048340,0.137195,-0.006283,-0.037565,0.999947,0.000873,0.002072,0.010009,0.608262,-0.020818,-0.789198,0.082168
22749,NaN,14.552112,-0.148221,-3.664708,-0.204379,2.327930,5.011151,0.310128,0.492554,2.099641,-0.907959,0.165527,0.045898,0.145435,0.000102,-0.037006,0.999941,0.001551,0.002463,0.010498,0.609343,-0.028385,-0.787299,0.089751
22750,NaN,15.535805,0.911096,-3.790988,-0.344221,3.886329,5.722095,0.465178,0.580088,2.189124,-0.897949,0.187012,0.043457,0.155134,0.010899,-0.038336,0.999933,0.002326,0.002900,0.010945,0.610679,-0.035319,-0.784832,0.099310
22751,NaN,16.099498,1.480944,-3.794358,-0.444937,4.916071,6.043041,0.586785,0.645571,2.342889,-0.894287,0.206299,0.026123,0.160682,0.016805,-0.038415,0.999922,0.002934,0.003228,0.011714,0.612108,-0.043064,-0.782086,0.108674
22752,NaN,16.604527,2.654601,-3.306588,-1.043508,6.519436,6.001273,0.748045,0.680762,2.498194,-0.892822,0.227783,0.015137,0.165582,0.028741,-0.033525,0.999909,0.003740,0.003404,0.012491,0.613508,-0.050481,-0.778877,0.120043
22753,NaN,17.566710,3.454431,-2.616662,-1.918083,7.862964,6.368854,0.946806,0.700526,2.656164,-0.880859,0.255615,0.014648,0.175094,0.036998,-0.026609,0.999894,0.004734,0.003503,0.013280,0.614819,-0.058361,-0.775398,0.131718
22754,NaN,19.131960,3.308546,-1.611314,-3.179074,8.482556,7.435113,1.170423,0.733248,2.822795,-0.879639,0.283447,0.001465,0.190766,0.035877,-0.016609,0.999877,0.005852,0.003666,0.014113,0.616055,-0.065852,-0.771353,0.145447
22755,NaN,20.719917,4.655312,-1.251952,-3.918516,10.699493,8.150735,1.475765,0.829538,2.953053,-0.871826,0.306885,-0.013916,0.206427,0.049700,-0.013018,0.999855,0.007378,0.004147,0.014765,0.617506,-0.073314,-0.766630,0.159970
22756,NaN,22.022808,5.664189,-0.210196,-5.231654,12.477205,8.464001,1.667724,0.947416,3.105430,-0.857666,0.334961,-0.031494,0.219301,0.060073,-0.002651,0.999833,0.008338,0.004737,0.015526,0.619165,-0.080570,-0.761004,0.176111
22757,NaN,22.403913,5.433540,-0.007049,-5.398926,12.973593,8.461574,1.941126,1.067973,3.224165,-0.856445,0.366943,-0.044678,0.223122,0.057942,-0.000713,0.999809,0.009705,0.005340,0.016120,0.621055,-0.087779,-0.754533,0.193043
22758,NaN,21.228201,5.520217,-0.970729,-4.147986,13.401184,7.075396,2.058675,1.015748,3.283010,-0.838135,0.392822,-0.060059,0.211286,0.058779,-0.010189,0.999799,0.010293,0.005078,0.016414,0.622542,-0.094571,-0.747695,0.210830
22759,NaN,18.949178,5.565723,-2.759140,-1.902408,13.431632,4.802110,1.522152,0.831182,3.307870,-0.821777,0.418457,-0.077393,0.188419,0.058991,-0.027935,0.999826,0.007610,0.004156,0.016538,0.622774,-0.103084,-0.741797,0.226416
22760,NaN,15.528647,4.747517,-4.418700,0.535124,12.030443,1.941367,0.834153,0.616239,3.221091,-0.809814,0.448486,-0.082031,0.154356,0.050151,-0.044458,0.999857,0.004171,0.003081,0.016105,0.621846,-0.113034,-0.737071,0.239282
22761,NaN,13.494027,3.160360,-5.271593,1.998585,10.253114,0.710166,0.009987,0.351757,3.025475,-0.803955,0.467773,-0.086670,0.134349,0.033642,-0.052951,0.999884,0.000050,0.001759,0.015127,0.619456,-0.124586,-0.734157,0.248529
22762,NaN,12.191334,1.523137,-5.401472,2.614558,8.520216,0.221599,-0.840489,0.265848,2.774043,-0.789795,0.493408,-0.084961,0.121617,0.016692,-0.054245,0.999894,-0.004202,0.001329,0.013870,0.616522,-0.137688,-0.732496,0.253756
22763,NaN,10.558018,3.077695,-5.296164,2.715823,9.130779,-2.181034,-1.147414,0.379188,2.409716,-0.779785,0.512695,-0.078613,0.105101,0.031740,-0.053341,0.999909,-0.005737,0.001896,0.012048,0.614006,-0.150544,-0.731043,0.256727
22764,NaN,9.094084,4.167860,-3.643479,1.365907,9.038068,-4.354445,-0.129757,0.564469,1.938772,-0.771484,0.523438,-0.089600,0.090428,0.042533,-0.036718,0.999949,-0.000649,0.002822,0.009694,0.613601,-0.158812,-0.727920,0.261544
22765,NaN,7.481165,2.846255,-1.443714,-0.297076,6.751403,-5.286991,0.524905,0.732333,1.567957,-0.767822,0.542725,-0.098389,0.074532,0.029086,-0.014635,0.999959,0.002624,0.003662,0.007840,0.614607,-0.163885,-0.723696,0.267701
22766,NaN,4.648722,1.524010,-0.051178,-0.960848,3.886108,-7.000148,0.476277,0.775646,1.291223,-0.763672,0.547119,-0.109131,0.046385,0.015541,-0.000655,0.999969,0.002381,0.003878,0.006456,0.616231,-0.168231,-0.719541,0.272430
22767,NaN,5.875737,-5.466089,-0.869259,0.295381,-0.748904,-1.780919,0.326034,0.411958,0.933373,-0.765869,0.549316,-0.111328,0.058993,-0.054372,-0.008903,0.999986,0.001630,0.002060,0.004667,0.616706,-0.171168,-0.717016,0.276156
22768,NaN,8.529140,-7.859107,-4.146214,3.277505,-0.396723,2.053346,0.682549,-0.177184,0.495997,-0.763916,0.551270,-0.111328,0.085523,-0.078237,-0.041654,0.999991,0.003413,-0.000886,0.002480,0.616136,-0.170696,-0.716139,0.279972
22769,NaN,6.764992,-2.434842,-3.668514,2.609502,2.787297,-2.701223,0.863062,0.056903,-0.087075,-0.768066,0.549316,-0.117676,0.067629,-0.024219,-0.036809,0.999991,0.004315,0.000285,-0.000435,0.617191,-0.167828,-0.714807,0.282771
22770,NaN,3.776231,2.773114,-3.456899,2.377847,5.083138,-8.261011,1.034768,0.072517,-0.630676,-0.774414,0.544922,-0.122070,0.037837,0.027790,-0.034439,0.999982,0.005174,0.000363,-0.003153,0.619354,-0.162595,-0.713603,0.284137
22771,NaN,2.275538,5.640238,-2.421121,1.243601,6.266541,-11.239394,1.066715,0.040265,-1.122995,-0.788818,0.527832,-0.134766,0.023067,0.056402,-0.023915,0.999970,0.005334,0.000201,-0.005615,0.621941,-0.155362,-0.712839,0.284452
22772,NaN,1.814571,6.780930,-1.237571,-0.044250,6.681462,-12.294647,0.857467,0.111018,-1.600546,-0.801270,0.517090,-0.136719,0.018681,0.067713,-0.012096,0.999959,0.004287,0.000555,-0.008003,0.625414,-0.147287,-0.712470,0.282047
22773,NaN,1.506034,6.441356,-0.316074,-0.895565,6.074289,-12.294354,0.393071,0.100579,-1.947426,-0.811523,0.502197,-0.136475,0.015685,0.064269,-0.003042,0.999951,0.001965,0.000503,-0.009737,0.628776,-0.139280,-0.712985,0.277298
22774,NaN,1.871899,5.110710,0.239605,-1.319770,5.114604,-11.146318,-0.044744,0.085025,-2.235768,-0.827881,0.478760,-0.134033,0.019290,0.050894,0.002377,0.999937,-0.000224,0.000425,-0.011179,0.632276,-0.131721,-0.714283,0.269586
22775,NaN,2.364247,3.416737,0.187175,-1.090744,4.011557,-9.687968,-0.406906,0.099853,-2.512503,-0.844238,0.455078,-0.135986,0.024070,0.033870,0.001791,0.999919,-0.002034,0.000499,-0.012562,0.635700,-0.124183,-0.716098,0.260131
22776,NaN,2.844595,1.768510,-0.229436,-0.492684,2.950160,-8.287874,-0.598277,0.111041,-2.775141,-0.860596,0.431641,-0.129395,0.028686,0.017281,-0.002362,0.999899,-0.002991,0.000555,-0.013875,0.639436,-0.116446,-0.718166,0.248597
22777,NaN,3.346818,0.770943,-0.731628,0.090665,2.391604,-7.243285,-0.689035,0.169527,-3.041808,-0.876709,0.399414,-0.128906,0.033574,0.007174,-0.007370,0.999878,-0.003445,0.000848,-0.015208,0.643347,-0.107947,-0.720150,0.236298
22778,NaN,3.708721,0.232353,-1.015002,0.421980,2.052499,-6.580573,-0.753721,0.234499,-3.332520,-0.893066,0.373779,-0.128662,0.037107,0.001667,-0.010201,0.999853,-0.003768,0.001172,-0.016662,0.647775,-0.098799,-0.721974,0.222218
22779,NaN,4.124643,0.456469,-1.232008,0.575980,2.349298,-6.223012,-0.823730,0.295125,-3.629072,-0.913330,0.337402,-0.119629,0.041301,0.003765,-0.012398,0.999826,-0.004118,0.001476,-0.018144,0.652353,-0.088702,-0.723587,0.207336
22780,NaN,4.427110,0.867774,-1.378793,0.664647,2.720404,-6.016892,-0.881084,0.341032,-3.924183,-0.920654,0.301025,-0.127686,0.044406,0.007746,-0.013899,0.999796,-0.004405,0.001705,-0.019620,0.657255,-0.077881,-0.724981,0.190664
22781,NaN,4.880038,1.209072,-1.532652,0.761451,3.056767,-5.605817,-0.961020,0.354901,-4.199410,-0.936523,0.258057,-0.127197,0.049011,0.010989,-0.015468,0.999766,-0.004805,0.001774,-0.020995,0.662020,-0.066161,-0.726185,0.173228
22782,NaN,5.562372,1.303538,-1.729249,0.924686,3.190311,-4.853838,-1.028901,0.358578,-4.453118,-0.954346,0.213135,-0.122314,0.055863,0.011704,-0.017455,0.999737,-0.005144,0.001793,-0.022264,0.666762,-0.053863,-0.727177,0.154078
22783,NaN,6.285923,1.236872,-2.102765,1.290234,3.134292,-3.984548,-1.042028,0.332917,-4.672261,-0.960938,0.161621,-0.123535,0.063088,0.010786,-0.021191,0.999712,-0.005210,0.001664,-0.023359,0.671103,-0.040614,-0.727909,0.134611
22784,NaN,6.856374,0.850882,-2.481633,1.727364,2.638809,-3.184391,-0.993947,0.299831,-4.889984,-0.974609,0.116699,-0.120850,0.068705,0.006706,-0.024956,0.999688,-0.004969,0.001499,-0.024447,0.675141,-0.026520,-0.728353,0.113948
22785,NaN,7.073928,0.431530,-2.807158,2.144063,1.960533,-2.766159,-0.950068,0.224591,-5.096041,-0.983398,0.061035,-0.128662,0.070785,0.002378,-0.028165,0.999663,-0.004750,0.001123,-0.025477,0.678514,-0.011312,-0.728557,0.093250
22786,NaN,7.733222,0.375484,-3.046888,2.396927,1.620100,-2.012614,-0.971836,0.102179,-5.297411,-0.987793,0.003174,-0.117188,0.077377,0.001557,-0.030520,0.999637,-0.004859,0.000511,-0.026484,0.681083,0.004460,-0.728728,0.071149
22787,NaN,8.978456,0.453840,-3.441757,2.744538,1.378447,-0.690817,-0.961233,-0.054119,-5.502273,-0.989990,-0.056885,-0.116211,0.089870,0.001901,-0.034407,0.999610,-0.004806,-0.000271,-0.027508,0.682605,0.021229,-0.728840,0.048914
22788,NaN,10.328016,0.388827,-3.804502,3.064495,0.817666,0.732509,-0.937643,-0.232167,-5.686776,-0.983643,-0.116943,-0.111084,0.103376,0.000772,-0.037934,0.999584,-0.004688,-0.001161,-0.028430,0.682949,0.038609,-0.729000,0.025489
22789,NaN,11.813551,0.434996,-4.149321,3.333349,0.185446,2.261067,-0.930684,-0.435438,-5.865566,-0.981445,-0.178955,-0.107910,0.118282,0.000690,-0.041245,0.999557,-0.004653,-0.002177,-0.029323,0.681994,0.056826,-0.729144,0.002007
22790,NaN,13.519055,0.164917,-4.485700,3.578253,-1.000241,3.936768,-0.910610,-0.665543,-6.020854,-0.962158,-0.241211,-0.100586,0.135303,-0.002626,-0.044401,0.999531,-0.004552,-0.003327,-0.030100,0.679502,0.075455,-0.729434,-0.022579
22791,NaN,15.586624,-0.226377,-4.738861,3.680388,-2.586970,5.843882,-0.855898,-0.936273,-6.149949,-0.955811,-0.303467,-0.099609,0.155914,-0.007259,-0.046635,0.999507,-0.004279,-0.004681,-0.030745,0.675391,0.094811,-0.729834,-0.046902
22792,NaN,17.861195,-0.114008,-5.007266,3.669104,-4.004125,7.921386,-0.821068,-1.223772,-6.232145,-0.929932,-0.361328,-0.089844,0.178758,-0.006912,-0.048959,0.999487,-0.004105,-0.006118,-0.031155,0.669395,0.114251,-0.730529,-0.072002
22793,NaN,20.493163,-0.203875,-5.961127,4.238325,-5.968142,10.232405,-0.925231,-1.511207,-6.275849,-0.901855,-0.427979,-0.080322,0.205170,-0.008746,-0.058031,0.999468,-0.004625,-0.007555,-0.031374,0.661801,0.133450,-0.731278,-0.097177
22794,NaN,22.923584,-1.017236,-7.364049,5.190604,-8.867672,11.981216,-1.061488,-1.735217,-6.215275,-0.871826,-0.488037,-0.062012,0.229391,-0.017684,-0.071570,0.999465,-0.005306,-0.008675,-0.031071,0.652647,0.151569,-0.732062,-0.123143
22795,NaN,24.591047,-2.836474,-8.839769,6.237985,-12.602909,12.389357,-1.112752,-1.901561,-6.045765,-0.835693,-0.537354,-0.063232,0.245718,-0.036278,-0.085873,0.999482,-0.005563,-0.009506,-0.030224,0.642484,0.168796,-0.732621,-0.148288
22796,NaN,24.921485,-4.999781,-9.373244,6.404547,-16.080034,11.023032,-1.033708,-2.053537,-5.762201,-0.804199,-0.582520,-0.047363,0.248570,-0.057641,-0.090893,0.999519,-0.005168,-0.010266,-0.028806,0.631101,0.184837,-0.733342,-0.172501
22797,NaN,24.761962,-7.598210,-9.095440,5.793544,-19.464663,8.652697,-1.041164,-2.272023,-5.356248,-0.768066,-0.631836,-0.037842,0.246467,-0.083056,-0.087730,0.999563,-0.005205,-0.011358,-0.026777,0.618852,0.199130,-0.734344,-0.195212
22798,NaN,23.512210,-11.201251,-8.279387,4.806107,-22.751953,4.537113,-0.904046,-2.527424,-4.866026,-0.734863,-0.657715,-0.024414,0.233315,-0.118068,-0.079313,0.999614,-0.004520,-0.012635,-0.024327,0.605375,0.211579,-0.736260,-0.216049
22799,NaN,24.066385,-14.921690,-1.522774,-2.156859,-26.310076,0.538776,0.698120,-2.244522,-4.433645,-0.692871,-0.694336,-0.002441,0.237433,-0.154456,-0.013084,0.999685,0.003490,-0.011221,-0.022166,0.591410,0.227503,-0.738888,-0.229175
22800,NaN,21.954686,-14.525868,2.817214,-6.134722,-24.784526,-2.817231,0.939509,-1.567027,-3.948107,-0.668213,-0.719971,0.006836,0.216395,-0.149687,0.029180,0.999763,0.004697,-0.007835,-0.019739,0.579905,0.243049,-0.740001,-0.238822
22801,NaN,16.956227,-17.307799,-1.554126,-0.588061,-24.223699,-8.295755,0.366485,-1.215962,-3.352578,-0.639648,-0.739502,0.020020,0.166721,-0.175861,-0.014842,0.999839,0.001832,-0.006079,-0.016762,0.570879,0.255006,-0.739776,-0.248596
22802,NaN,14.656325,-24.941582,-6.329192,5.434569,-28.721834,-14.549854,1.056225,-1.039068,-2.350656,-0.622314,-0.743896,0.043701,0.143952,-0.250782,-0.063862,0.999903,0.005281,-0.005195,-0.011753,0.562890,0.265546,-0.740991,-0.252137
22803,NaN,13.300862,-20.610628,-1.128335,0.527266,-24.161177,-14.163783,1.918739,-0.775981,-1.016917,-0.615723,-0.750244,0.050293,0.132006,-0.206662,-0.012751,0.999934,0.009593,-0.003880,-0.005084,0.556163,0.273699,-0.744200,-0.248875
22804,NaN,13.650183,-13.581576,1.772188,-3.035345,-19.096969,-9.951284,1.075875,-0.493906,0.255480,-0.618164,-0.741699,0.062988,0.136632,-0.135735,0.017329,0.999982,0.005379,-0.002470,0.001277,0.553445,0.275360,-0.747215,-0.244020
22805,NaN,14.510014,-11.195502,1.853955,-3.654796,-17.924906,-7.655526,-0.011795,-0.100365,1.159672,-0.629150,-0.735352,0.054443,0.145737,-0.111110,0.018619,0.999983,-0.000059,-0.000502,0.005798,0.554506,0.270849,-0.749068,-0.240959
22806,NaN,13.778070,-12.252152,1.951492,-3.507443,-18.166161,-8.614039,-0.815449,0.240471,1.803206,-0.638184,-0.720215,0.047607,0.138901,-0.121192,0.019844,0.999950,-0.004077,0.001202,0.009016,0.559021,0.262410,-0.749755,-0.237707
22807,NaN,13.035583,-15.119023,1.401572,-2.630053,-19.826278,-10.488795,-1.132923,0.409373,2.313138,-0.658203,-0.703125,0.038818,0.132122,-0.149587,0.014597,0.999915,-0.005664,0.002047,0.011565,0.564757,0.251017,-0.750241,-0.234901
22808,NaN,13.906847,-16.812824,1.237035,-2.663262,-21.683893,-10.346459,-0.647337,0.428429,2.816536,-0.673828,-0.685791,0.036133,0.141444,-0.166107,0.012609,0.999893,-0.003237,0.002142,0.014082,0.570846,0.239447,-0.751636,-0.227692
22809,NaN,13.512404,-9.846251,-2.230617,-0.037543,-16.154405,-4.962802,0.120181,0.390834,3.050253,-0.693848,-0.668701,0.033691,0.136561,-0.096374,-0.022630,0.999882,0.000601,0.001954,0.015251,0.575590,0.228723,-0.754224,-0.218009
22810,NaN,10.009938,21.226851,-6.117728,1.576709,10.890009,11.799899,0.470012,0.223410,2.079714,-0.705322,-0.649414,0.035400,0.097816,0.213437,-0.060787,0.999943,0.002350,0.001117,0.010398,0.578575,0.222852,-0.756320,-0.208730
22811,NaN,4.495271,35.300468,-2.759250,-1.730656,26.134024,14.434774,0.290260,0.242780,1.408050,-0.711914,-0.642822,0.037598,0.042433,0.353349,-0.027132,0.999973,0.001451,0.001214,0.007040,0.580638,0.218593,-0.757473,-0.203252
22812,NaN,7.155931,16.398107,3.833925,-6.793323,9.766627,4.088921,-1.519407,-0.020832,1.591347,-0.723145,-0.629883,0.030762,0.070246,0.164828,0.037097,0.999939,-0.007597,-0.000104,0.007957,0.584120,0.208397,-0.757618,-0.203446
22813,NaN,14.002539,-14.207215,7.359164,-9.483756,-18.937225,-7.948890,-2.396912,-0.079551,2.294305,-0.736572,-0.612793,0.006836,0.141606,-0.139558,0.075330,0.999862,-0.011984,-0.000398,0.011471,0.588583,0.192575,-0.757702,-0.205848
22814,NaN,15.962889,-9.218543,3.490179,-6.770453,-15.835408,-2.372880,-2.440206,-0.027144,2.404457,-0.745850,-0.591309,-0.001953,0.160713,-0.089823,0.036029,0.999853,-0.012200,-0.000136,0.012022,0.593559,0.176510,-0.757403,-0.207056
22815,NaN,19.119860,7.796895,3.465528,-7.911267,-2.571696,9.400493,-1.727525,0.007527,2.155420,-0.750488,-0.580566,-0.015137,0.190343,0.080319,0.033961,0.999905,-0.008637,0.000038,0.010777,0.597301,0.163190,-0.757424,-0.207143
22816,NaN,21.601341,0.955340,1.200667,-6.203608,-9.459515,8.652927,-1.659961,-0.317024,2.484786,-0.768555,-0.559082,-0.021973,0.215852,0.012337,0.012254,0.999887,-0.008299,-0.001585,0.012423,0.600334,0.148778,-0.758514,-0.205233
22817,NaN,20.778868,-11.600629,-4.726445,-0.666941,-20.379188,3.335753,-1.130045,-0.403005,2.827065,-0.788818,-0.533203,-0.020264,0.209497,-0.113316,-0.046198,0.999882,-0.005650,-0.002015,0.014135,0.602490,0.134212,-0.760579,-0.201277
22818,NaN,15.991911,-8.262702,-6.232839,1.901144,-15.172707,1.545707,-0.289606,-0.320526,2.938476,-0.800293,-0.511963,-0.016357,0.161210,-0.080355,-0.061953,0.999890,-0.001448,-0.001603,0.014692,0.604741,0.122162,-0.763064,-0.192608
22819,NaN,11.739958,2.138929,-3.153265,0.357011,-3.290761,2.077511,0.249752,-0.202318,3.024649,-0.816162,-0.486084,-0.012451,0.117090,0.023201,-0.031386,0.999884,0.001249,-0.001012,0.015123,0.606674,0.111146,-0.765675,-0.182578
22820,NaN,6.058141,3.356000,-2.939234,1.579462,0.374310,-2.466670,0.621468,-0.048959,2.968157,-0.832275,-0.460449,-0.006592,0.060081,0.034545,-0.029271,0.999885,0.003107,-0.000245,0.014840,0.609123,0.101944,-0.767887,-0.170074
22821,NaN,7.502584,-4.588286,-4.739957,2.610492,-7.504969,-3.757854,1.266561,0.101798,2.887909,-0.843750,-0.438965,-0.009033,0.075651,-0.044492,-0.047723,0.999876,0.006333,0.000509,0.014439,0.611262,0.094764,-0.770030,-0.156309
22822,NaN,9.667263,-4.821470,-4.051114,1.522893,-8.114921,-1.754760,2.181347,0.318169,2.678588,-0.853271,-0.411133,0.001221,0.097238,-0.046468,-0.041179,0.999850,0.010906,0.001591,0.013392,0.613734,0.091662,-0.771852,-0.138470
22823,NaN,8.688426,-1.401083,-1.900517,-0.165992,-4.109206,-1.803629,2.249879,0.175328,2.422088,-0.860352,-0.395996,0.005127,0.087027,-0.012742,-0.019230,0.999863,0.011249,0.000877,0.012110,0.614985,0.089303,-0.773874,-0.122222
22824,NaN,9.156125,-1.682187,0.869141,-2.924673,-4.093770,-1.932072,2.112564,0.079375,2.185609,-0.865234,-0.374512,0.013428,0.091742,-0.015910,0.008484,0.999884,0.010562,0.000397,0.010928,0.615850,0.087683,-0.775732,-0.106210
22825,NaN,10.565673,-0.087028,1.475178,-3.826027,-2.732884,-0.236292,1.778368,-0.010383,1.952859,-0.874512,-0.361816,0.021729,0.105659,0.000030,0.014755,0.999913,0.008892,-0.000052,0.009764,0.616024,0.085547,-0.777495,-0.093261
22826,NaN,11.309666,0.433558,0.255346,-2.820961,-2.268105,0.913738,1.120632,-0.125784,1.796557,-0.875000,-0.342529,0.027832,0.113050,0.005337,0.002653,0.999944,0.005603,-0.000629,0.008983,0.616077,0.082252,-0.779036,-0.082377
22827,NaN,10.859634,0.325695,-1.837376,-0.703052,-2.131735,0.974894,0.612728,-0.197175,1.682715,-0.890625,-0.327393,0.025391,0.108582,0.004227,-0.018255,0.999959,0.003064,-0.000986,0.008413,0.615736,0.077475,-0.780554,-0.074850
22828,NaN,9.792862,-0.567440,-2.714126,0.403022,-2.608135,0.016937,0.400983,-0.163708,1.576923,-0.893555,-0.310303,0.031738,0.097991,-0.004848,-0.027071,0.999967,0.002005,-0.000819,0.007885,0.615708,0.072782,-0.781698,-0.067490
22829,NaN,9.723719,-1.257131,-2.880023,0.581133,-3.122212,-0.099921,0.228503,-0.134823,1.452425,-0.895996,-0.299561,0.029297,0.097344,-0.011832,-0.028748,0.999973,0.001143,-0.000674,0.007262,0.615582,0.067735,-0.782694,-0.062138
22830,NaN,9.660254,-2.002251,-3.022980,0.749642,-3.699673,-0.209726,0.241701,-0.062463,1.286691,-0.900635,-0.286621,0.033447,0.096738,-0.019364,-0.030223,0.999979,0.001208,-0.000312,0.006433,0.615814,0.063697,-0.783293,-0.056288
22831,NaN,9.737897,-1.766372,-2.684626,0.387890,-3.357062,-0.131138,0.300764,-0.007867,1.133212,-0.898926,-0.276123,0.035400,0.097478,-0.017071,-0.026868,0.999983,0.001504,-0.000039,0.005666,0.616006,0.060155,-0.783746,-0.051587
22832,NaN,9.707326,-1.953563,-2.713406,0.435036,-3.418532,-0.141359,0.340979,0.027930,0.979369,-0.901367,-0.267334,0.033203,0.097163,-0.019014,-0.027180,0.999987,0.001705,0.000140,0.004897,0.616409,0.057635,-0.783949,-0.046287
22833,NaN,9.729501,-2.208758,-2.716756,0.446314,-3.578020,-0.121435,0.447456,0.055169,0.838467,-0.903809,-0.260986,0.035156,0.097379,-0.021619,-0.027243,0.999989,0.002237,0.000276,0.004192,0.616693,0.055712,-0.784111,-0.041897
22834,NaN,9.617237,-2.037812,-2.135686,-0.082071,-3.300851,-0.309942,0.533577,0.067063,0.700029,-0.904053,-0.250244,0.037109,0.096236,-0.019984,-0.021443,0.999990,0.002668,0.000335,0.003500,0.617085,0.054875,-0.784122,-0.036713
22835,NaN,9.439260,-1.427418,-1.352021,-0.818162,-2.610618,-0.567145,0.490303,0.048804,0.593862,-0.906250,-0.250244,0.030762,0.094431,-0.013961,-0.013578,0.999993,0.002452,0.000244,0.002969,0.617255,0.054040,-0.784215,-0.032908
22836,NaN,9.423472,-1.138828,-1.345387,-0.825047,-2.256310,-0.531689,0.376867,-0.002327,0.518175,-0.904541,-0.241699,0.034912,0.094264,-0.011119,-0.013474,0.999995,0.001884,-0.000012,0.002591,0.617354,0.053410,-0.784337,-0.028940
22837,NaN,9.584866,-1.070469,-1.610056,-0.610802,-2.150810,-0.293834,0.326839,-0.046456,0.461105,-0.906494,-0.241699,0.039062,0.095877,-0.010457,-0.016096,0.999996,0.001634,-0.000232,0.002306,0.617158,0.052575,-0.784644,-0.026210
22838,NaN,9.835976,-1.131108,-1.693091,-0.586463,-2.180835,-0.025338,0.355707,-0.076526,0.420099,-0.909180,-0.233154,0.045410,0.098390,-0.011074,-0.016913,0.999996,0.001779,-0.000383,0.002100,0.616937,0.052244,-0.784949,-0.022672
22839,NaN,9.990703,-1.010269,-1.650905,-0.678364,-2.032546,0.135612,0.399165,-0.099952,0.393650,-0.909180,-0.228760,0.043213,0.099935,-0.009873,-0.016479,0.999996,0.001996,-0.000500,0.001968,0.616492,0.051890,-0.785398,-0.019880
22840,NaN,10.218371,-0.844192,-1.818839,-0.584303,-1.831379,0.421588,0.440669,-0.113389,0.369884,-0.906982,-0.229004,0.047363,0.102209,-0.008213,-0.018149,0.999996,0.002203,-0.000567,0.001849,0.616081,0.052007,-0.785797,-0.016197
22841,NaN,10.252394,-0.528960,-2.290108,-0.167830,-1.456062,0.603045,0.480668,-0.132403,0.370481,-0.911377,-0.226807,0.038818,0.102549,-0.005045,-0.022846,0.999995,0.002403,-0.000662,0.001852,0.615471,0.051992,-0.786333,-0.013164
22842,NaN,9.945591,-0.605566,-2.388050,-0.007112,-1.438732,0.331969,0.488577,-0.151585,0.397019,-0.911865,-0.213867,0.049316,0.099486,-0.005800,-0.023819,0.999995,0.002443,-0.000758,0.001985,0.614878,0.052137,-0.786842,-0.009245
22843,NaN,9.618555,-0.635172,-2.070513,-0.251271,-1.402175,-0.056787,0.501698,-0.158743,0.434311,-0.909668,-0.216064,0.051514,0.096215,-0.006091,-0.020644,0.999994,0.002508,-0.000794,0.002172,0.614148,0.051934,-0.787458,-0.005940
22844,NaN,9.477094,-0.763427,-1.868042,-0.416695,-1.467565,-0.243985,0.491417,-0.155877,0.472136,-0.911865,-0.213867,0.053711,0.094803,-0.007365,-0.018625,0.999994,0.002457,-0.000779,0.002361,0.613515,0.051782,-0.787982,-0.001811
22845,NaN,9.396883,-0.805671,-1.987055,-0.295207,-1.440435,-0.287111,0.474710,-0.152509,0.513166,-0.912109,-0.207520,0.051514,0.094004,-0.007768,-0.019818,0.999994,0.002374,-0.000763,0.002566,0.612800,0.051185,-0.788577,0.001632
22846,NaN,9.187965,-0.841028,-2.215065,-0.033845,-1.377202,-0.424696,0.443659,-0.138217,0.562970,-0.912598,-0.196777,0.059814,0.091918,-0.008103,-0.022105,0.999993,0.002218,-0.000691,0.002815,0.612223,0.050518,-0.789049,0.005824
22847,NaN,9.014386,-0.601088,-2.541670,0.287552,-1.039124,-0.489721,0.392152,-0.120918,0.629462,-0.910645,-0.192383,0.062012,0.090177,-0.005677,-0.025374,0.999993,0.001961,-0.000605,0.003147,0.611631,0.049207,-0.789556,0.009306
22848,NaN,8.779395,-0.726700,-2.897945,0.687760,-1.045753,-0.623730,0.338917,-0.110176,0.682819,-0.915039,-0.183838,0.061768,0.087834,-0.006918,-0.028943,0.999993,0.001695,-0.000551,0.003414,0.611156,0.047732,-0.789956,0.013421
22849,NaN,8.835861,-0.766094,-2.911457,0.675342,-1.014868,-0.557992,0.327235,-0.096839,0.750498,-0.915283,-0.177490,0.059570,0.088400,-0.007282,-0.029084,0.999992,0.001636,-0.000484,0.003752,0.610647,0.045743,-0.790397,0.017022
22850,NaN,9.038767,-0.786956,-2.723261,0.432378,-0.975441,-0.400155,0.311108,-0.091584,0.811525,-0.922119,-0.166748,0.059326,0.090431,-0.007460,-0.027203,0.999990,0.001556,-0.000458,0.004058,0.610205,0.043656,-0.790751,0.021383
22851,NaN,9.053552,-0.799849,-2.443751,0.144909,-0.929846,-0.448273,0.257122,-0.087887,0.876979,-0.918213,-0.158203,0.059326,0.090580,-0.007570,-0.024408,0.999989,0.001286,-0.000439,0.004385,0.609708,0.040950,-0.791170,0.025095
22852,NaN,9.113652,-0.920784,-2.209630,-0.098893,-0.978659,-0.441417,0.194703,-0.093145,0.948382,-0.918457,-0.153809,0.061279,0.091189,-0.008754,-0.022063,0.999988,0.000974,-0.000466,0.004742,0.609228,0.037952,-0.791542,0.029373
22853,NaN,9.302760,-1.097117,-1.983957,-0.366015,-1.086116,-0.306549,0.152149,-0.097104,1.013250,-0.922852,-0.145264,0.067627,0.093091,-0.010485,-0.019802,0.999987,0.000761,-0.000486,0.005066,0.608664,0.034388,-0.791992,0.033081
22854,NaN,9.489439,-1.215604,-1.727627,-0.667463,-1.124617,-0.179378,0.123154,-0.100855,1.073655,-0.925781,-0.128174,0.069336,0.094966,-0.011636,-0.017236,0.999985,0.000616,-0.000504,0.005368,0.608103,0.030665,-0.792383,0.037421
22855,NaN,9.617039,-1.190666,-1.620199,-0.828201,-1.003734,-0.074324,0.071841,-0.103993,1.136268,-0.928223,-0.117432,0.069336,0.096244,-0.011354,-0.016156,0.999984,0.000359,-0.000520,0.005681,0.607464,0.026368,-0.792841,0.041183
22856,NaN,9.731533,-1.278101,-1.558973,-0.929905,-0.976521,0.033488,0.026455,-0.093202,1.202168,-0.928467,-0.111084,0.069092,0.097397,-0.012194,-0.015546,0.999982,0.000132,-0.000466,0.006011,0.606872,0.021831,-0.793196,0.045498
22857,NaN,9.739291,-1.158592,-1.639359,-0.889300,-0.729367,0.064533,-0.013220,-0.097480,1.267732,-0.924561,-0.100342,0.062500,0.097472,-0.010969,-0.016345,0.999980,-0.000066,-0.000487,0.006339,0.606192,0.016753,-0.793611,0.049320
22858,NaN,9.782774,-1.169228,-2.090986,-0.489127,-0.561991,0.231489,-0.090851,-0.092108,1.340928,-0.925049,-0.083252,0.068848,0.097913,-0.011045,-0.020860,0.999977,-0.000454,-0.000461,0.006705,0.605523,0.011301,-0.793943,0.053557
22859,NaN,10.264320,-1.526284,-2.824769,0.091430,-0.686116,0.919707,-0.102337,-0.065771,1.408114,-0.927734,-0.068115,0.066406,0.102757,-0.014554,-0.028206,0.999975,-0.000512,-0.000329,0.007041,0.604882,0.005386,-0.794222,0.057449
22860,NaN,10.896514,-1.582227,-3.423447,0.478557,-0.486921,1.697708,-0.036756,-0.038645,1.459720,-0.928223,-0.057373,0.064209,0.109083,-0.015033,-0.034211,0.999973,-0.000184,-0.000193,0.007299,0.604319,-0.000399,-0.794308,0.062226
22861,NaN,11.359579,-1.460256,-3.744952,0.632731,-0.132555,2.219628,0.031668,-0.000962,1.508081,-0.926514,-0.042480,0.063965,0.113702,-0.013740,-0.037451,0.999972,0.000158,-0.000005,0.007540,0.603835,-0.006326,-0.794268,0.066946
22862,NaN,11.797697,-1.477253,-3.771948,0.526720,0.082081,2.649591,0.092023,0.034647,1.559443,-0.931152,-0.031738,0.070068,0.118081,-0.013835,-0.037746,0.999969,0.000460,0.000173,0.007797,0.603450,-0.012154,-0.794006,0.072493
22863,NaN,12.251623,-1.321524,-3.596332,0.214185,0.464295,3.013746,0.151581,0.082806,1.611097,-0.927490,-0.016602,0.069824,0.122602,-0.012201,-0.036024,0.999967,0.000758,0.000414,0.008055,0.603189,-0.018156,-0.793569,0.077988
22864,NaN,12.482695,-1.124418,-3.478451,0.022786,0.893755,3.163380,0.173190,0.134201,1.688190,-0.925781,0.000488,0.067627,0.124892,-0.010160,-0.034877,0.999964,0.000866,0.000671,0.008441,0.603062,-0.024298,-0.792866,0.084192
22865,NaN,12.528884,-0.988266,-3.386774,-0.082714,1.248540,3.142998,0.203391,0.182196,1.755944,-0.924561,0.026123,0.058594,0.125338,-0.008748,-0.033991,0.999961,0.001017,0.000911,0.008780,0.603051,-0.030755,-0.791977,0.090308
22866,NaN,12.517536,-1.168378,-3.451360,0.003037,1.317565,3.157466,0.241152,0.223587,1.842208,-0.927246,0.036865,0.060547,0.125237,-0.010489,-0.034667,0.999956,0.001206,0.001118,0.009211,0.603114,-0.037350,-0.790832,0.097181
22867,NaN,12.524074,-0.905542,-3.496983,0.043650,1.828282,3.092791,0.298794,0.247102,1.936852,-0.925781,0.058350,0.051758,0.125277,-0.007790,-0.035137,0.999951,0.001494,0.001235,0.009684,0.603180,-0.044260,-0.789531,0.104192
22868,NaN,12.879709,-0.659905,-3.476487,-0.067236,2.402362,3.326042,0.360843,0.276517,2.012567,-0.922119,0.077637,0.055664,0.128806,-0.005240,-0.034953,0.999947,0.001804,0.001383,0.010063,0.603263,-0.051198,-0.787980,0.111982
22869,NaN,13.967160,-1.171136,-3.204554,-0.566609,2.398264,4.352113,0.431794,0.325121,2.086953,-0.922607,0.096924,0.046875,0.139731,-0.010184,-0.032296,0.999942,0.002159,0.001626,0.010435,0.603454,-0.058331,-0.786166,0.119927
22870,NaN,15.180427,-0.663784,-2.641935,-1.421917,3.433257,5.155506,0.552251,0.389174,2.133799,-0.914795,0.114014,0.038086,0.151811,-0.004945,-0.026730,0.999937,0.002761,0.001946,0.010669,0.603816,-0.065234,-0.783950,0.128736
22871,NaN,15.935333,0.228371,-2.286822,-1.962250,4.783830,5.434268,0.678324,0.453271,2.185187,-0.913330,0.137695,0.033447,0.159263,0.004103,-0.023217,0.999932,0.003392,0.002266,0.010926,0.604369,-0.072073,-0.781367,0.137875
22872,NaN,16.503058,0.635676,-1.826970,-2.521009,5.637423,5.612738,0.827047,0.482831,2.258562,-0.907715,0.163330,0.031006,0.164899,0.008296,-0.018636,0.999925,0.004135,0.002414,0.011293,0.604943,-0.078686,-0.778423,0.148019
22873,NaN,17.116989,2.009394,-1.085803,-3.414904,7.396565,5.413027,1.005926,0.517810,2.350735,-0.901855,0.182617,0.017822,0.170889,0.022159,-0.011193,0.999915,0.005029,0.002589,0.011753,0.605564,-0.085203,-0.775109,0.158867
22874,NaN,18.123049,2.853650,-0.468781,-4.257626,8.821386,5.706522,1.128259,0.589088,2.461568,-0.898438,0.208496,0.013184,0.180846,0.030792,-0.005051,0.999904,0.005641,0.002945,0.012307,0.606317,-0.091753,-0.771261,0.170640
22875,NaN,19.052298,3.312399,-0.088527,-4.815469,9.935384,6.063320,1.182463,0.694273,2.587108,-0.886475,0.234131,0.004150,0.190069,0.035592,-0.001340,0.999893,0.005912,0.003471,0.012935,0.607265,-0.098761,-0.766864,0.182745
22876,NaN,20.330537,3.118176,0.431384,-5.522731,10.614679,6.921747,1.373411,0.860195,2.702445,-0.885010,0.253418,-0.015381,0.202876,0.033898,0.003667,0.999876,0.006867,0.004301,0.013512,0.608719,-0.105696,-0.761517,0.195911
22877,NaN,20.789638,3.264006,-0.005586,-5.105722,11.501460,7.053851,1.710679,0.994865,2.794008,-0.877441,0.283447,-0.026367,0.207411,0.035545,-0.000793,0.999853,0.008553,0.004974,0.013969,0.610584,-0.112120,-0.755210,0.210413
22878,NaN,19.299381,4.474895,-1.325133,-3.491068,12.666449,5.073202,1.808366,0.950084,2.880861,-0.858643,0.304932,-0.043701,0.192257,0.047645,-0.013744,0.999844,0.009041,0.004750,0.014404,0.612108,-0.118428,-0.748620,0.225536
22879,NaN,17.122059,4.841990,-2.378363,-1.968761,12.638133,2.782589,1.590888,0.739442,2.954170,-0.848877,0.332764,-0.050537,0.170390,0.051131,-0.024015,0.999852,0.007954,0.003697,0.014770,0.612394,-0.125466,-0.742687,0.240099
22880,NaN,14.733614,4.141049,-6.449111,2.593099,12.095730,1.267259,0.951850,0.425557,2.967737,-0.836670,0.356445,-0.057373,0.146560,0.043896,-0.064599,0.999876,0.004759,0.002128,0.014838,0.611008,-0.134046,-0.738239,0.252397
22881,NaN,14.438642,4.320969,-6.960663,3.139547,12.518661,0.627938,-0.030558,0.177175,2.861210,-0.826904,0.379883,-0.068359,0.143687,0.045258,-0.069741,0.999897,-0.000153,0.000886,0.014306,0.607964,-0.144943,-0.735726,0.260919
22882,NaN,14.263625,0.403862,-5.235627,1.915024,9.118588,2.195656,-0.987117,0.098656,2.737592,-0.816895,0.405518,-0.064453,0.142540,0.005731,-0.052452,0.999894,-0.004935,0.000493,0.013687,0.604069,-0.158142,-0.734620,0.265376
22883,NaN,13.316686,-0.531908,-5.438889,2.399094,8.132504,1.819098,-0.940490,0.232388,2.530401,-0.804688,0.422607,-0.060303,0.133159,-0.003890,-0.054523,0.999908,-0.004702,0.001162,0.012652,0.600763,-0.170603,-0.733080,0.269393
22884,NaN,12.452823,0.990305,-4.157344,1.253734,8.818654,-0.117823,-0.302417,0.357364,2.221069,-0.796875,0.444092,-0.071289,0.124334,0.011221,-0.041812,0.999936,-0.001512,0.001787,0.011105,0.598892,-0.180162,-0.730450,0.274432
22885,NaN,10.411095,-0.340213,-2.390263,0.112240,6.426695,-1.274503,0.714621,0.674644,1.923514,-0.786377,0.457031,-0.080078,0.104055,-0.002315,-0.024263,0.999942,0.003573,0.003373,0.009617,0.599322,-0.185995,-0.725654,0.282215
22886,NaN,7.142607,0.062825,-2.844601,1.278702,4.973394,-4.090730,1.019284,0.798895,1.596640,-0.773926,0.469971,-0.095215,0.071303,0.001344,-0.028725,0.999947,0.005096,0.003994,0.007983,0.601008,-0.189900,-0.720284,0.289688
22887,NaN,6.955142,-4.244412,-2.653693,1.514513,1.660341,-1.543536,1.192173,0.587735,1.117039,-0.770020,0.478516,-0.101562,0.069708,-0.041895,-0.026992,0.999962,0.005961,0.002939,0.005585,0.602612,-0.191217,-0.715683,0.296806
22888,NaN,8.315178,-6.225946,-5.184828,3.950099,1.653082,0.978449,1.482371,-0.027951,0.735974,-0.767822,0.480713,-0.108154,0.083386,-0.061566,-0.052295,0.999966,0.007412,-0.000140,0.003680,0.602941,-0.189391,-0.712833,0.304076
22889,NaN,7.462906,-2.624659,-5.120452,3.759311,3.890604,-2.096940,1.434097,0.066066,0.253338,-0.761475,0.484863,-0.118896,0.074645,-0.025784,-0.051415,0.999973,0.007170,0.000330,0.001267,0.604129,-0.186099,-0.710174,0.309916
22890,NaN,5.127890,2.443120,-4.188731,2.761045,5.996493,-7.317107,1.655794,0.094106,-0.312081,-0.769531,0.472168,-0.127197,0.051298,0.024697,-0.041708,0.999964,0.008279,0.000471,-0.001560,0.606584,-0.180201,-0.707599,0.314462
22891,NaN,3.778989,4.955573,-2.353293,0.859368,6.598508,-10.123875,1.972642,0.215141,-0.828296,-0.765381,0.472168,-0.142334,0.037970,0.049628,-0.023084,0.999942,0.009863,0.001076,-0.004141,0.610385,-0.171648,-0.704531,0.318754
22892,NaN,2.746044,5.515320,-0.496457,-0.916363,5.922898,-11.324091,1.902259,0.333761,-1.254399,-0.781982,0.457275,-0.152832,0.027798,0.055024,-0.004487,0.999934,0.009511,0.001669,-0.006272,0.615275,-0.162027,-0.701537,0.320983
22893,NaN,2.391576,5.194739,0.697914,-2.038668,5.164090,-11.351147,1.494233,0.336606,-1.581222,-0.790039,0.444336,-0.161377,0.024337,0.051702,0.007325,0.999939,0.007471,0.001683,-0.007906,0.620161,-0.152446,-0.699323,0.321105
22894,NaN,2.412016,4.559635,0.903879,-2.178693,4.650835,-10.835978,0.943900,0.250885,-1.862831,-0.804688,0.429443,-0.171875,0.024555,0.045326,0.009223,0.999945,0.004719,0.001254,-0.009314,0.624842,-0.143474,-0.698444,0.318063
22895,NaN,2.792141,3.373969,0.820016,-1.957203,4.000972,-9.699061,0.457348,0.206581,-2.166136,-0.816895,0.410156,-0.171631,0.028293,0.033416,0.008248,0.999938,0.002287,0.001033,-0.010830,0.629292,-0.134831,-0.698564,0.312762
22896,NaN,3.171079,1.859779,0.346598,-1.253020,3.164529,-8.381024,0.141575,0.131261,-2.443569,-0.824707,0.388672,-0.173584,0.031937,0.018206,0.003458,0.999925,0.000708,0.000656,-0.012218,0.633748,-0.126110,-0.699558,0.305087
22897,NaN,3.621259,0.888986,-0.021054,-0.753356,2.708323,-7.363030,-0.072999,0.094383,-2.743174,-0.836914,0.371582,-0.177490,0.036330,0.008392,-0.000231,0.999906,-0.000365,0.000472,-0.013715,0.638152,-0.116909,-0.701017,0.296089
22898,NaN,3.917466,0.491610,-0.354944,-0.367713,2.563339,-6.811511,-0.180500,0.062501,-3.058986,-0.853027,0.339600,-0.172852,0.039243,0.004313,-0.003566,0.999883,-0.000902,0.000312,-0.015294,0.642839,-0.106899,-0.702825,0.285250
22899,NaN,4.320109,0.832268,-0.533854,-0.299913,2.999217,-6.564013,-0.317916,0.045827,-3.371979,-0.862793,0.311523,-0.170410,0.043332,0.007584,-0.005361,0.999857,-0.001590,0.000229,-0.016859,0.647544,-0.096153,-0.704817,0.273268
22900,NaN,4.551494,1.344988,-0.504832,-0.435659,3.418294,-6.510751,-0.483362,0.026017,-3.686261,-0.879150,0.281738,-0.172119,0.045752,0.012596,-0.005085,0.999827,-0.002417,0.000130,-0.018430,0.652435,-0.084800,-0.707078,0.259187
22901,NaN,5.063658,1.805716,-0.495154,-0.571861,3.913602,-6.138563,-0.675118,0.006537,-3.968538,-0.897217,0.247314,-0.167480,0.050981,0.017031,-0.005012,0.999797,-0.003375,0.000033,-0.019841,0.657180,-0.072994,-0.709457,0.243839
22902,NaN,5.623352,2.059072,-0.551355,-0.587680,4.226511,-5.575756,-0.881669,-0.034855,-4.207793,-0.906738,0.208740,-0.158447,0.056651,0.019377,-0.005591,0.999769,-0.004408,-0.000174,-0.021037,0.661807,-0.060957,-0.712053,0.226443
22903,NaN,6.026457,2.042854,-0.852888,-0.278702,4.249400,-5.008859,-1.068534,-0.100907,-4.413113,-0.918213,0.168213,-0.162109,0.060699,0.019046,-0.008603,0.999742,-0.005342,-0.000504,-0.022064,0.665947,-0.048682,-0.714745,0.208049
22904,NaN,6.745507,1.997602,-1.274181,0.131206,4.314354,-4.113972,-1.198386,-0.172293,-4.603136,-0.929688,0.127441,-0.159424,0.067901,0.018340,-0.012797,0.999717,-0.005991,-0.000861,-0.023014,0.669718,-0.036079,-0.717518,0.188002
22905,NaN,7.353677,1.676196,-1.590347,0.510827,3.976407,-3.230102,-1.269395,-0.251822,-4.805844,-0.934570,0.080322,-0.158691,0.073930,0.014888,-0.015909,0.999690,-0.006346,-0.001259,-0.024027,0.672896,-0.022871,-0.720188,0.167384
22906,NaN,7.966676,1.034817,-2.066506,1.108282,3.265838,-2.269485,-1.252276,-0.353629,-5.004337,-0.943604,0.031006,-0.151611,0.079927,0.008221,-0.020580,0.999666,-0.006261,-0.001768,-0.025019,0.675500,-0.008813,-0.722793,0.145579
22907,NaN,8.321878,0.555418,-2.333466,1.482751,2.516513,-1.660521,-1.219483,-0.422910,-5.212914,-0.939453,-0.024658,-0.148682,0.083372,0.003241,-0.023183,0.999640,-0.006097,-0.002114,-0.026061,0.677471,0.006188,-0.725068,0.123574
22908,NaN,8.872658,0.363917,-2.537377,1.721311,1.977247,-0.958289,-1.205806,-0.517085,-5.414053,-0.944336,-0.069824,-0.139404,0.088844,0.001083,-0.025156,0.999612,-0.006028,-0.002585,-0.027067,0.678744,0.021991,-0.727155,0.100341
22909,NaN,9.771208,0.343301,-2.821071,1.973616,1.562199,0.045746,-1.185942,-0.642171,-5.597123,-0.934082,-0.116943,-0.140869,0.097844,0.000530,-0.027906,0.999586,-0.005929,-0.003210,-0.027982,0.679071,0.038599,-0.729005,0.076966
22910,NaN,11.074156,0.196522,-3.225492,2.326218,0.909584,1.447948,-1.140552,-0.778447,-5.774520,-0.929932,-0.174805,-0.131348,0.110858,-0.001417,-0.031822,0.999559,-0.005702,-0.003892,-0.028868,0.678370,0.055994,-0.730697,0.052553
22911,NaN,12.683467,0.005540,-3.430702,2.450921,-0.002820,3.093901,-0.986135,-0.915430,-5.952059,-0.917236,-0.232666,-0.130371,0.126913,-0.003888,-0.033713,0.999535,-0.004930,-0.004576,-0.029756,0.676557,0.074579,-0.732049,0.028525
22912,NaN,14.522187,-0.000946,-3.456185,2.332812,-1.007338,4.894823,-0.729449,-1.034324,-6.117347,-0.895996,-0.288574,-0.127197,0.145305,-0.004578,-0.033799,0.999512,-0.003647,-0.005171,-0.030582,0.673541,0.094542,-0.733066,0.004304
22913,NaN,16.386030,0.253167,-3.553211,2.222446,-1.979047,6.687070,-0.484418,-1.170375,-6.244454,-0.881348,-0.340088,-0.107178,0.164035,-0.002673,-0.034570,0.999493,-0.002422,-0.005851,-0.031217,0.669282,0.115746,-0.733692,-0.019012
22914,NaN,18.235435,0.086924,-4.188433,2.668922,-3.545743,8.360570,-0.359198,-1.319071,-6.326241,-0.862061,-0.400146,-0.101807,0.182530,-0.004977,-0.040675,0.999476,-0.001796,-0.006594,-0.031626,0.663619,0.137489,-0.734088,-0.042683
22915,NaN,20.344689,-0.747841,-5.186025,3.509911,-6.003505,10.007679,-0.316276,-1.491816,-6.384586,-0.830322,-0.443115,-0.092529,0.203447,-0.014054,-0.050324,0.999461,-0.001581,-0.007458,-0.031917,0.656653,0.159451,-0.734185,-0.065987
22916,NaN,22.101611,-2.600006,-6.300072,4.588806,-9.515545,10.757891,-0.304230,-1.654273,-6.353002,-0.804932,-0.498779,-0.074463,0.220550,-0.033106,-0.061128,0.999460,-0.001521,-0.008270,-0.031759,0.648264,0.181061,-0.734125,-0.089616
22917,NaN,23.530134,-4.353284,-6.717415,4.954182,-12.957695,10.805195,-0.263250,-1.824513,-6.190312,-0.775391,-0.543945,-0.067139,0.234402,-0.050885,-0.064969,0.999479,-0.001316,-0.009121,-0.030946,0.638707,0.201989,-0.733937,-0.112209
22918,NaN,24.221222,-6.430997,-5.981924,4.243845,-16.453814,9.548829,-0.414937,-2.002578,-5.877671,-0.745850,-0.586914,-0.059814,0.240763,-0.071521,-0.057260,0.999516,-0.002074,-0.010011,-0.029384,0.628051,0.220930,-0.733887,-0.134729
22919,NaN,24.487713,-9.074114,-3.914349,2.312270,-20.128253,7.117242,-0.506729,-2.194078,-5.433723,-0.710205,-0.621338,-0.046387,0.242698,-0.097450,-0.036232,0.999568,-0.002533,-0.010969,-0.027165,0.616643,0.237677,-0.734121,-0.155975
22920,NaN,24.925043,-10.049041,-0.038271,-1.681278,-22.305124,5.077829,-0.097006,-2.089942,-4.930785,-0.679199,-0.653564,-0.032959,0.246658,-0.106593,0.002255,0.999641,-0.000485,-0.010448,-0.024651,0.604931,0.253691,-0.734442,-0.174053
22921,NaN,23.388166,-11.038912,2.160472,-3.681149,-22.960040,1.706636,-0.297796,-1.767869,-4.314633,-0.656738,-0.681396,-0.028076,0.231224,-0.115362,0.023826,0.999727,-0.001489,-0.008839,-0.021571,0.594913,0.267001,-0.733863,-0.190353
22922,NaN,20.432032,-15.125843,-0.188195,-0.474267,-24.624153,-3.517077,-0.798329,-1.483794,-3.631765,-0.632324,-0.700684,-0.031982,0.201532,-0.154937,0.000234,0.999800,-0.003991,-0.007418,-0.018158,0.586960,0.276451,-0.732564,-0.205920
22923,NaN,17.645401,-21.001151,-1.860052,2.384731,-27.388427,-9.775013,-0.484057,-1.183678,-2.747441,-0.616943,-0.709473,-0.016602,0.173651,-0.212452,-0.017055,0.999885,-0.002420,-0.005918,-0.013737,0.580413,0.283819,-0.731666,-0.217331
22924,NaN,15.522072,-21.247743,1.177934,-0.224129,-26.170975,-12.779652,0.190004,-0.768961,-1.594469,-0.597168,-0.720215,-0.014404,0.153474,-0.213717,0.012169,0.999960,0.000950,-0.003845,-0.007972,0.575666,0.289346,-0.731839,-0.222036
22925,NaN,14.401791,-16.553658,2.119487,-1.751935,-21.943002,-10.979594,-0.176928,-0.337534,-0.380199,-0.603760,-0.718018,-0.020752,0.143667,-0.165791,0.021584,0.999996,-0.000885,-0.001688,-0.001901,0.574278,0.289828,-0.732070,-0.224228
22926,NaN,14.740719,-13.793332,-0.503314,0.197313,-20.133869,-8.268566,-0.788464,0.062950,0.654991,-0.612549,-0.713623,-0.029541,0.147856,-0.137468,-0.004537,0.999987,-0.003942,0.000315,0.003275,0.576553,0.285246,-0.731951,-0.224654
22927,NaN,14.644664,-12.414846,-1.751340,1.063430,-19.038286,-6.972266,-1.275737,0.349559,1.457434,-0.619385,-0.698730,-0.036133,0.147317,-0.123186,-0.016983,0.999952,-0.006379,0.001748,0.007287,0.581276,0.276589,-0.731562,-0.224574
22928,NaN,13.952369,-12.898457,-1.426342,0.762046,-18.905713,-7.564681,-1.589446,0.486029,2.060393,-0.632812,-0.681396,-0.055664,0.140810,-0.127648,-0.013587,0.999912,-0.007947,0.002430,0.010302,0.587735,0.264975,-0.731154,-0.223092
22929,NaN,14.137917,-13.939752,-1.738525,0.940119,-19.788570,-7.638410,-1.574530,0.522908,2.551420,-0.656982,-0.668457,-0.064697,0.143099,-0.137712,-0.016669,0.999884,-0.007872,0.002614,0.012757,0.594526,0.251548,-0.731164,-0.220594
22930,NaN,14.225931,-13.650485,-2.599975,1.549202,-19.583173,-6.722877,-1.151692,0.528383,2.910777,-0.677246,-0.642578,-0.075928,0.144159,-0.134564,-0.025600,0.999874,-0.005758,0.002642,0.014553,0.601289,0.238057,-0.731899,-0.214721
22931,NaN,13.795069,0.913111,-7.745244,5.276893,-7.722972,2.979030,-0.407808,0.227514,2.518914,-0.688477,-0.627686,-0.076172,0.137734,0.010709,-0.077630,0.999918,-0.002039,0.001138,0.012594,0.605277,0.227813,-0.733721,-0.208313
22932,NaN,8.388918,17.598005,-6.777527,3.839721,9.338470,8.188218,0.446356,0.476877,1.988850,-0.697510,-0.616943,-0.076416,0.081971,0.176953,-0.067578,0.999945,0.002232,0.002384,0.009944,0.608795,0.222366,-0.734983,-0.199301
22933,NaN,7.506442,17.461737,1.318242,-3.926844,10.236214,5.768966,-0.062517,0.454828,1.697694,-0.715088,-0.601807,-0.083008,0.073608,0.175250,0.012959,0.999961,-0.000313,0.002274,0.008488,0.612220,0.216356,-0.735401,-0.193810
22934,NaN,10.550837,0.155546,5.027122,-6.606001,-5.515276,-1.903695,-1.148215,0.286231,2.106489,-0.728271,-0.593262,-0.098389,0.105554,0.002955,0.050106,0.999927,-0.005741,0.001431,0.010532,0.616695,0.205357,-0.735660,-0.190580
22935,NaN,14.445759,-8.384056,2.801764,-4.530292,-14.637332,-2.599546,-1.733375,0.106334,2.389407,-0.735840,-0.565430,-0.105225,0.145459,-0.081860,0.028656,0.999891,-0.008667,0.000532,0.011947,0.621090,0.191276,-0.736058,-0.189417
22936,NaN,15.933060,1.624844,2.278420,-4.766364,-6.571125,4.179567,-1.366566,0.247336,2.210194,-0.747070,-0.550293,-0.118408,0.159165,0.018162,0.022468,0.999915,-0.006833,0.001237,0.011051,0.625560,0.179125,-0.736052,-0.186592
22937,NaN,16.915045,5.506896,3.509845,-6.180392,-3.246535,6.920788,-1.491821,-0.010553,2.232913,-0.756348,-0.528809,-0.125244,0.168518,0.057213,0.034686,0.999910,-0.007459,-0.000053,0.011164,0.628899,0.166189,-0.736630,-0.185050
22938,NaN,20.300780,-4.193508,1.843254,-4.945242,-13.013941,5.655278,-1.488219,-0.279288,2.648852,-0.772217,-0.507324,-0.127686,0.203512,-0.039102,0.019015,0.999884,-0.007441,-0.001396,0.013244,0.631707,0.151492,-0.738239,-0.181659
22939,NaN,18.747244,-9.414455,-4.220102,1.089081,-17.017115,3.114133,-1.015894,-0.355443,2.870380,-0.788086,-0.481689,-0.130371,0.188874,-0.091652,-0.041396,0.999883,-0.005079,-0.001777,0.014351,0.633712,0.137321,-0.740528,-0.176549
22940,NaN,13.394355,-3.788592,-5.998626,3.683506,-9.499998,1.408490,-0.447792,-0.402808,2.888071,-0.799561,-0.462402,-0.130615,0.134594,-0.036079,-0.059633,0.999891,-0.002239,-0.002014,0.014440,0.635238,0.124861,-0.743303,-0.168474
22941,NaN,7.883993,3.658783,-3.530420,2.312936,-0.028142,-0.721295,-0.415090,-0.407103,2.744397,-0.815430,-0.436523,-0.126709,0.078400,0.037593,-0.035222,0.999902,-0.002075,-0.002035,0.013722,0.636248,0.112961,-0.745887,-0.161496
22942,NaN,4.058479,1.851786,-1.271730,0.653604,0.126811,-5.222110,-0.406016,-0.435220,2.582353,-0.820557,-0.415039,-0.131348,0.040369,0.019014,-0.012668,0.999912,-0.002030,-0.002176,0.012911,0.637074,0.101691,-0.748344,-0.154200
22943,NaN,7.402741,-5.321603,-1.696475,0.179338,-7.645702,-4.568216,0.181181,-0.341715,2.521730,-0.832031,-0.395752,-0.121094,0.074719,-0.052261,-0.016885,0.999919,0.000906,-0.001709,0.012608,0.637610,0.092533,-0.750792,-0.145608
22944,NaN,11.328931,-5.091401,-3.801268,1.613185,-8.712853,-0.315782,1.187382,-0.067430,2.312322,-0.841064,-0.378662,-0.119141,0.113879,-0.049373,-0.038271,0.999915,0.005937,-0.000337,0.011561,0.638602,0.087591,-0.752881,-0.132985
22945,NaN,9.878469,-1.818698,-2.938149,1.173921,-4.851078,-0.614442,1.844269,0.026881,2.060894,-0.848145,-0.363770,-0.106689,0.098959,-0.016896,-0.029555,0.999904,0.009221,0.000134,0.010304,0.639219,0.085702,-0.754851,-0.119395
22947,NaN,9.627754,-1.695730,0.426984,-4.115887,-8.302392,7.423842,1.811923,-0.122908,1.786406,-0.857666,-0.337891,-0.098389,0.193111,-0.030619,0.008202,0.999676,0.018117,-0.001229,0.017862,0.638798,0.083634,-0.759073,-0.093545
22948,NaN,11.146633,0.396356,-0.418241,-1.505529,-2.291077,1.006788,1.487663,-0.320060,1.534659,-0.862305,-0.327148,-0.090088,0.111438,0.004849,-0.003970,0.999942,0.007438,-0.001600,0.007673,0.637654,0.082376,-0.761386,-0.083082
22949,NaN,10.665257,0.788681,-1.127948,-0.774862,-1.632771,0.787936,0.967907,-0.391214,1.430368,-0.864990,-0.316650,-0.079590,0.106614,0.008703,-0.011030,0.999961,0.004839,-0.001956,0.007152,0.636469,0.079867,-0.763563,-0.074164
22950,NaN,9.927211,-0.082743,-1.291613,-0.508173,-2.175406,-0.053989,0.630200,-0.432509,1.336986,-0.869385,-0.310059,-0.073242,0.099302,-0.000123,-0.012703,0.999970,0.003151,-0.002163,0.006685,0.635055,0.076574,-0.765682,-0.067630
22951,NaN,9.679705,-1.065989,-3.046711,1.251877,-2.954104,-0.126620,0.482424,-0.409335,1.233116,-0.878662,-0.292969,-0.069336,0.096922,-0.009989,-0.030293,0.999976,0.002412,-0.002047,0.006166,0.633826,0.073262,-0.767561,-0.061216
22952,NaN,9.701312,-1.092088,-3.410458,1.568737,-2.859326,0.000630,0.573224,-0.304778,1.112701,-0.876953,-0.284424,-0.062988,0.097123,-0.010283,-0.033987,0.999979,0.002866,-0.001524,0.005563,0.632784,0.070681,-0.769091,-0.055556
22953,NaN,9.861965,-1.212830,-2.586480,0.711578,-2.880118,0.016684,0.734478,-0.230047,1.013148,-0.875000,-0.278076,-0.062988,0.098709,-0.011534,-0.025794,0.999980,0.003672,-0.001150,0.005066,0.632012,0.069055,-0.770330,-0.048821
22954,NaN,9.906460,-1.316708,-1.893899,0.009780,-2.889710,-0.060403,0.796735,-0.189343,0.911030,-0.883789,-0.271484,-0.058838,0.099141,-0.012640,-0.018896,0.999981,0.003984,-0.000947,0.004555,0.631228,0.067983,-0.771420,-0.042893
22955,NaN,10.183525,-1.158373,-2.143352,0.179881,-2.662870,0.312328,0.778280,-0.171756,0.791528,-0.885986,-0.269287,-0.058838,0.101898,-0.011097,-0.021390,0.999984,0.003891,-0.000859,0.003958,0.630553,0.067357,-0.772347,-0.036682
22956,NaN,10.322611,-1.143827,-2.579053,0.565416,-2.563987,0.561401,0.891848,-0.121341,0.675313,-0.888428,-0.265137,-0.056885,0.103279,-0.010975,-0.025778,0.999984,0.004459,-0.000607,0.003377,0.629908,0.067504,-0.773105,-0.031104
22957,NaN,10.340680,-0.730173,-2.353937,0.309011,-2.067739,0.609991,0.975479,-0.068945,0.580191,-0.886719,-0.252197,-0.052734,0.103435,-0.006887,-0.023538,0.999984,0.004877,-0.000345,0.002901,0.629475,0.068326,-0.773614,-0.024775
22958,NaN,10.130062,-0.181649,-1.682021,-0.354556,-1.452926,0.348181,0.919293,-0.047809,0.519030,-0.886719,-0.252197,-0.046387,0.101309,-0.001476,-0.016803,0.999986,0.004596,-0.000239,0.002595,0.629041,0.069171,-0.774042,-0.019556
22959,NaN,10.088497,0.014341,-1.423033,-0.624291,-1.193631,0.286233,0.767213,-0.073967,0.501149,-0.889160,-0.243652,-0.044434,0.100889,0.000451,-0.014192,0.999989,0.003836,-0.000370,0.002506,0.628608,0.069637,-0.774467,-0.014303
22960,NaN,9.988129,-0.299051,-1.960808,-0.064623,-1.394511,0.274321,0.670952,-0.096437,0.489646,-0.895508,-0.245850,-0.044434,0.099898,-0.002680,-0.019569,0.999991,0.003355,-0.000482,0.002448,0.628039,0.069808,-0.774978,-0.010154
22961,NaN,9.788874,-0.318944,-2.400806,0.394221,-1.286148,0.181197,0.649709,-0.097555,0.481800,-0.895752,-0.237305,-0.040283,0.097908,-0.002876,-0.023970,0.999992,0.003249,-0.000488,0.002409,0.627524,0.069975,-0.775427,-0.005445
22962,NaN,9.599876,-0.420925,-2.541578,0.566067,-1.292802,0.026130,0.622971,-0.097346,0.469343,-0.891602,-0.232910,-0.033691,0.096021,-0.003905,-0.025382,0.999992,0.003115,-0.000487,0.002347,0.626945,0.070071,-0.775905,-0.001545
22963,NaN,9.509956,-0.479087,-2.935946,0.962532,-1.234965,0.027873,0.625801,-0.091201,0.468273,-0.896240,-0.224365,-0.031738,0.095124,-0.004476,-0.029330,0.999992,0.003129,-0.000456,0.002341,0.626434,0.070210,-0.776300,0.003010
22964,NaN,9.459277,-0.515704,-2.951411,0.979940,-1.201056,-0.012099,0.643709,-0.064503,0.481786,-0.894043,-0.224365,-0.031738,0.094614,-0.004834,-0.029500,0.999992,0.003219,-0.000323,0.002409,0.625953,0.070321,-0.776652,0.007042
22965,NaN,9.514301,-0.356299,-2.653282,0.651226,-1.004092,-0.001666,0.637106,-0.037405,0.498634,-0.894287,-0.218018,-0.033936,0.095156,-0.003241,-0.026526,0.999992,0.003186,-0.000187,0.002493,0.625614,0.070368,-0.776864,0.011731
22966,NaN,9.659614,-0.458646,-2.503078,0.479474,-1.069920,0.107439,0.601578,-0.015650,0.522560,-0.896729,-0.213623,-0.029785,0.096610,-0.004259,-0.025036,0.999992,0.003008,-0.000078,0.002613,0.625313,0.070184,-0.777052,0.015744
22969,NaN,10.075922,-0.250947,-1.943375,-0.574265,-2.451134,20.877759,0.585222,0.002150,0.586223,-0.899170,-0.200928,-0.027832,0.302323,-0.004358,-0.058359,0.999923,0.008778,0.000032,0.008793,0.624576,0.068818,-0.777396,0.028707
22970,NaN,10.022997,-0.440432,-1.425168,-0.671053,-0.925396,0.255998,0.493940,0.010864,0.674711,-0.903564,-0.196533,-0.030029,0.100243,-0.004031,-0.014267,0.999991,0.002470,0.000054,0.003374,0.624352,0.067699,-0.777513,0.032785
22971,NaN,9.979953,-0.524822,-1.294078,-0.783451,-0.938303,0.190053,0.450301,0.017232,0.729819,-0.901855,-0.183594,-0.030273,0.099817,-0.004855,-0.012961,0.999991,0.002251,0.000086,0.003649,0.624179,0.066248,-0.777567,0.037445
22972,NaN,9.794968,-0.774483,-1.223786,-0.782862,-1.103809,-0.004168,0.399266,0.027761,0.781098,-0.904297,-0.179443,-0.030273,0.097977,-0.007338,-0.012266,0.999990,0.001996,0.000139,0.003905,0.624008,0.064414,-0.777652,0.041492
22973,NaN,9.569425,-0.936945,-1.336921,-0.607636,-1.145732,-0.192053,0.365213,0.032019,0.829264,-0.906982,-0.166504,-0.030518,0.095730,-0.008948,-0.013401,0.999990,0.001826,0.000160,0.004146,0.623870,0.062305,-0.777674,0.046113
22974,NaN,9.358912,-1.022421,-1.422296,-0.475737,-1.122898,-0.369719,0.320678,0.032558,0.876852,-0.906982,-0.162354,-0.032715,0.093630,-0.009791,-0.014254,0.999989,0.001603,0.000163,0.004384,0.623693,0.059850,-0.777759,0.050153
22975,NaN,9.187021,-1.052822,-1.652332,-0.220499,-1.016170,-0.476838,0.264543,0.039721,0.928682,-0.907471,-0.151611,-0.028564,0.091914,-0.010080,-0.016555,0.999988,0.001323,0.000199,0.004643,0.623558,0.057035,-0.777775,0.054670
22976,NaN,9.094414,-1.243213,-1.875996,0.034772,-1.076087,-0.506053,0.215510,0.041082,0.958235,-0.907471,-0.149414,-0.030762,0.090998,-0.011976,-0.018792,0.999988,0.001078,0.000205,0.004791,0.623391,0.053930,-0.777847,0.058556
22977,NaN,9.110746,-1.304155,-1.982400,0.132788,-1.019121,-0.454298,0.152465,0.029038,0.993230,-0.910156,-0.134277,-0.029053,0.091168,-0.012574,-0.019847,0.999987,0.000762,0.000145,0.004966,0.623187,0.050513,-0.777908,0.062810
22978,NaN,9.236661,-1.895429,-2.111292,0.308242,-1.486646,-0.270141,0.133810,0.017771,1.008472,-0.910400,-0.127930,-0.026855,0.092459,-0.018474,-0.021134,0.999987,0.000669,0.000089,0.005042,0.622902,0.046963,-0.778050,0.066525
22979,NaN,9.399505,-2.087641,-2.064495,0.243206,-1.575947,-0.095309,0.224207,-0.004647,1.018009,-0.912842,-0.117188,-0.024902,0.094100,-0.020374,-0.020666,0.999986,0.001121,-0.000023,0.005090,0.622500,0.043678,-0.778159,0.071103
22980,NaN,9.422435,-1.821855,-1.589528,-0.277020,-1.289786,-0.174905,0.303387,-0.017426,1.030084,-0.911133,-0.108643,-0.033691,0.094318,-0.017709,-0.015914,0.999986,0.001517,-0.000087,0.005150,0.621994,0.040581,-0.778313,0.075534
22981,NaN,9.642208,-1.306244,-1.065174,-0.927805,-0.751951,-0.097450,0.271925,-0.016163,1.071162,-0.915771,-0.097900,-0.033691,0.096491,-0.012531,-0.010661,0.999985,0.001360,-0.000081,0.005356,0.621472,0.037238,-0.778406,0.080437
22982,NaN,9.833829,-0.908369,-0.868589,-1.240473,-0.275976,0.019289,0.125385,0.015977,1.138226,-0.918213,-0.084961,-0.029785,0.098387,-0.008518,-0.008699,0.999984,0.000627,0.000080,0.005691,0.621046,0.033152,-0.778499,0.084512
