// Start Time: Unknown
// Update Rate: 100.0Hz
// Filter Profile: human (46.1)
// Firmware Version: 4.4.0
PacketCounter,SampleTimeFine,Acc_X,Acc_Y,Acc_Z,FreeAcc_X,FreeAcc_Y,FreeAcc_Z,Gyr_X,Gyr_Y,Gyr_Z,Mag_X,Mag_Y,Mag_Z,VelInc_X,VelInc_Y,VelInc_Z,OriInc_q0,OriInc_q1,OriInc_q2,OriInc_q3,Quat_q0,Quat_q1,Quat_q2,Quat_q3
63839,NaN,17.382229,-2.186886,-3.940784,-0.000000,-0.000000,8.144034,0.578731,0.109161,1.870886,-0.780518,0.487793,0.461670,0.173994,-0.020127,-0.039563,0.999952,0.002894,0.000546,0.009354,0.318717,-0.713063,-0.318908,-0.536897
63840,NaN,20.104234,-0.508538,-5.865251,0.000000,0.000000,11.135432,0.946748,0.102606,1.919531,-0.770752,0.515625,0.452881,0.201047,-0.002878,-0.058773,0.999943,0.004734,0.000513,0.009597,0.328743,-0.675476,-0.428969,-0.501643
63841,NaN,25.187511,1.366970,-7.182244,2.327790,-1.893411,16.241641,1.491046,0.094397,2.043468,-0.758545,0.539307,0.439697,0.251680,0.016777,-0.071824,0.999920,0.007455,0.000472,0.010217,0.338872,-0.689511,-0.388094,-0.509042
63842,NaN,30.354969,5.390647,-5.516310,8.160425,-1.693167,20.376656,2.023707,0.194035,2.316518,-0.742188,0.567139,0.422119,0.302841,0.057973,-0.054884,0.999881,0.010118,0.000970,0.011582,0.352081,-0.690001,-0.384884,-0.501799
63843,NaN,30.198647,9.445084,-2.690208,13.561027,-1.531680,18.859470,2.412826,0.281682,2.550604,-0.719482,0.592773,0.408936,0.300709,0.098610,-0.026153,0.999845,0.012064,0.001408,0.012752,0.369794,-0.687234,-0.382244,-0.494825
63844,NaN,27.332437,10.830476,-0.518464,15.744467,-0.906484,15.003915,2.537200,0.331971,2.684277,-0.699219,0.629395,0.387207,0.271830,0.112018,-0.004231,0.999828,0.012685,0.001660,0.013421,0.385723,-0.686734,-0.378618,-0.486069
63845,NaN,20.974979,13.576014,1.925467,17.831889,-0.818411,7.773770,2.460275,0.378912,2.588720,-0.674072,0.655029,0.361084,0.208009,0.138213,0.020550,0.999839,0.012301,0.001894,0.012943,0.397801,-0.681240,-0.379715,-0.483201
63846,NaN,12.831487,15.403139,4.459512,18.708390,-0.284386,-1.345679,1.708488,0.295124,2.152627,-0.664062,0.674316,0.341797,0.126717,0.155014,0.045729,0.999905,0.008542,0.001476,0.010763,0.409343,-0.681151,-0.375888,-0.476635
63847,NaN,2.543158,11.111576,6.334089,12.866369,1.955964,-10.639726,0.477123,0.145292,1.476234,-0.644775,0.678711,0.341797,0.024657,0.111148,0.063588,0.999970,0.002386,0.000726,0.007381,0.411296,-0.674403,-0.379340,-0.481784
63848,NaN,-5.941168,1.360514,2.217228,0.464217,0.873845,-16.222406,0.466764,0.208204,1.599812,-0.636475,0.691406,0.330811,-0.059495,0.013078,0.022265,0.999965,0.002334,0.001041,0.007999,0.417105,-0.675952,-0.374629,-0.478294
63849,NaN,-10.642371,5.061403,1.450321,2.458334,-1.586838,-21.319930,1.055367,0.347709,1.373425,-0.617432,0.699951,0.317871,-0.106742,0.049804,0.014953,0.999961,0.005277,0.001739,0.006867,0.420440,-0.670464,-0.373589,-0.483879
63850,NaN,-20.445814,0.727349,-3.338797,-5.695101,-5.233928,-29.044879,1.387329,0.114793,1.063150,-0.611328,0.710693,0.309326,-0.204513,0.006417,-0.033224,0.999962,0.006937,0.000574,0.005316,0.427861,-0.669230,-0.373126,-0.479419
63851,NaN,-9.641277,-0.111624,-5.353369,-4.118235,-5.970302,-18.120557,1.455680,-0.390952,0.672426,-0.600830,0.719238,0.296387,-0.096304,-0.001050,-0.053730,0.999966,0.007278,-0.001955,0.003362,0.429455,-0.663821,-0.386255,-0.475097
63852,NaN,-5.218538,8.605897,-2.495197,5.924000,-5.686614,-16.144123,1.856014,-0.198607,-0.195434,-0.603027,0.723633,0.283447,-0.052077,0.086337,-0.024203,0.999956,0.009280,-0.000993,-0.000977,0.434749,-0.659900,-0.391722,-0.471252
63853,NaN,-5.085081,12.860620,3.580917,11.883860,-0.869840,-17.692172,2.103167,-0.001095,-1.004923,-0.613770,0.721680,0.268311,-0.050205,0.128474,0.037160,0.999932,0.010516,-0.000005,-0.005024,0.434047,-0.648189,-0.425259,-0.458921
63854,NaN,-4.050966,11.557246,5.211890,11.303186,1.450373,-16.688083,1.876136,0.135423,-1.635784,-0.624268,0.715088,0.255615,-0.039530,0.115403,0.053229,0.999922,0.009380,0.000677,-0.008179,0.436628,-0.640279,-0.434538,-0.458885
63855,NaN,-4.463987,8.441544,3.203170,8.087722,0.495022,-15.794830,1.638151,0.121179,-2.172896,-0.641113,0.702393,0.240723,-0.043701,0.084627,0.032751,0.999907,0.008191,0.000606,-0.010864,0.428925,-0.622944,-0.465520,-0.459626
63856,NaN,-5.397347,5.132828,0.237420,4.345908,-1.750927,-15.607289,1.727275,0.008002,-2.550989,-0.657959,0.693848,0.229980,-0.053313,0.051988,0.002823,0.999881,0.008636,0.000040,-0.012754,0.428410,-0.613210,-0.477362,-0.461047
63857,NaN,-4.603676,8.302520,0.384621,7.967054,-1.826782,-14.655702,1.636333,-0.265818,-2.976509,-0.676514,0.674561,0.219482,-0.044800,0.083663,0.004469,0.999855,0.008181,-0.001329,-0.014882,0.416082,-0.592831,-0.509034,-0.465094
63858,NaN,-1.533948,5.636874,0.679803,5.623999,-0.394274,-11.486417,1.103408,-0.416999,-3.343619,-0.690918,0.657471,0.213135,-0.014409,0.056576,0.007079,0.999843,0.005517,-0.002085,-0.016717,0.410450,-0.582902,-0.522298,-0.467932
63859,NaN,0.736739,3.379155,0.238472,3.346041,0.101711,-8.912376,0.618473,-0.380488,-3.763313,-0.713379,0.616943,0.215820,0.007997,0.033637,0.002504,0.999816,0.003092,-0.001902,-0.018815,0.390727,-0.560487,-0.552789,-0.477086
63860,NaN,2.566244,-1.708537,-1.514047,-2.070723,-0.686766,-7.160100,0.219708,-0.382447,-4.215729,-0.742432,0.589111,0.216064,0.025324,-0.017605,-0.015111,0.999775,0.001098,-0.001912,-0.021077,0.380142,-0.549193,-0.565750,-0.483536
63861,NaN,4.534031,-4.712582,-1.343549,-5.517267,0.143918,-6.057284,0.314973,-0.534879,-4.549268,-0.765137,0.563477,0.216309,0.044289,-0.048120,-0.013391,0.999736,0.001575,-0.002674,-0.022744,0.357761,-0.525865,-0.593033,-0.493746
63862,NaN,6.793275,-5.874430,-0.925655,-7.249387,1.171399,-4.561589,0.246030,-0.738218,-4.703568,-0.787354,0.522705,0.214844,0.066560,-0.060309,-0.009083,0.999716,0.001230,-0.003691,-0.023516,0.344506,-0.513153,-0.607158,-0.499348
63863,NaN,8.149624,-7.622351,-0.987355,-9.657391,1.467104,-4.330828,0.061414,-0.774686,-4.740220,-0.797119,0.492676,0.223633,0.079697,-0.078124,-0.009586,0.999712,0.000307,-0.003873,-0.023699,0.323979,-0.493783,-0.627581,-0.507305
63864,NaN,9.828934,-11.110695,-1.529943,-13.791005,1.371223,-4.309684,0.240968,-0.805647,-4.799138,-0.817383,0.456299,0.217773,0.095647,-0.113405,-0.015046,0.999703,0.001205,-0.004028,-0.023993,0.309778,-0.480231,-0.641159,-0.512183
63865,NaN,12.509154,-13.324378,-0.890445,-17.023688,2.604506,-3.635470,0.390207,-0.859570,-4.807818,-0.839844,0.417725,0.229004,0.121879,-0.136183,-0.008640,0.999700,0.001951,-0.004297,-0.024037,0.295448,-0.465857,-0.655634,-0.515589
63866,NaN,15.697019,-14.353393,-0.265379,-19.506678,3.988653,-2.330709,0.338346,-0.947362,-4.788015,-0.853516,0.383545,0.229248,0.153486,-0.147232,-0.002168,0.999701,0.001692,-0.004736,-0.023938,0.280700,-0.451966,-0.668861,-0.519192
63867,NaN,18.280831,-14.512415,0.033965,-20.901499,5.027012,-0.726789,0.257160,-1.066898,-4.715389,-0.865234,0.342773,0.238525,0.179315,-0.149381,0.001112,0.999707,0.001286,-0.005334,-0.023575,0.273447,-0.446455,-0.675055,-0.519813
63868,NaN,21.009099,-14.205142,-0.862689,-22.433736,5.023613,0.924385,-0.330714,-1.265390,-4.554051,-0.883301,0.308594,0.247314,0.206832,-0.146799,-0.007071,0.999719,-0.001653,-0.006326,-0.022768,0.256527,-0.434700,-0.685901,-0.524184
63869,NaN,24.539326,-15.102462,-1.495802,-24.815176,5.825696,3.701067,-0.891353,-1.454219,-4.283191,-0.888428,0.270020,0.262939,0.242180,-0.156294,-0.012500,0.999734,-0.004456,-0.007270,-0.021414,0.254063,-0.441307,-0.681438,-0.525684
63870,NaN,24.802987,-14.914142,-0.591252,-25.206730,7.022819,2.562095,-1.346521,-1.541749,-3.899820,-0.902588,0.239990,0.282715,0.245089,-0.153967,-0.002990,0.999758,-0.006732,-0.007708,-0.019498,0.235528,-0.433676,-0.688296,-0.531695
63871,NaN,23.415654,-13.846117,0.061496,-22.909479,7.861749,2.566961,-1.987984,-1.600408,-3.356119,-0.895020,0.205566,0.306885,0.231767,-0.142336,0.003878,0.999778,-0.009939,-0.008001,-0.016779,0.239227,-0.452985,-0.673076,-0.533427
63872,NaN,21.764082,-13.895345,-1.053854,-22.657046,6.668407,0.674457,-2.187447,-1.493284,-2.767739,-0.904785,0.177734,0.315674,0.215752,-0.142040,-0.007381,0.999817,-0.010937,-0.007466,-0.013838,0.221823,-0.450187,-0.675173,-0.540618
63873,NaN,18.212000,-13.292597,-1.412492,-19.772354,5.806610,-0.557336,-1.967298,-1.308731,-2.125864,-0.901611,0.145508,0.335449,0.180774,-0.134975,-0.011618,0.999874,-0.009836,-0.006543,-0.010629,0.233054,-0.478024,-0.652637,-0.539670
63874,NaN,16.028029,-11.699590,-0.157420,-17.262288,6.436953,-2.439595,-1.746043,-1.131671,-1.459949,-0.899170,0.134766,0.339844,0.159422,-0.118164,0.000358,0.999919,-0.008730,-0.005658,-0.007300,0.221230,-0.478310,-0.652681,-0.544320
63875,NaN,11.783331,-10.687593,2.285678,-13.476775,7.322599,-5.012410,-1.879884,-0.933268,-0.814426,-0.894287,0.121826,0.350830,0.117286,-0.107130,0.024411,0.999937,-0.009399,-0.004666,-0.004072,0.243409,-0.504138,-0.629695,-0.538592
63876,NaN,8.693146,-10.606823,3.343228,-11.899037,7.390752,-8.070590,-2.077025,-0.800114,-0.076580,-0.896484,0.121826,0.365967,0.086753,-0.105744,0.034879,0.999938,-0.010385,-0.004000,-0.000383,0.235434,-0.508548,-0.625229,-0.543174
63877,NaN,7.702375,-11.722241,4.392290,-11.788659,8.718845,-8.798289,-2.192155,-0.716600,0.615395,-0.887939,0.121826,0.370117,0.077222,-0.116492,0.045479,0.999929,-0.010961,-0.003583,0.003077,0.246463,-0.537311,-0.595467,-0.544033
63878,NaN,6.644551,-13.051526,4.441676,-12.453571,8.886271,-10.201870,-2.085344,-0.600227,1.239088,-0.885986,0.124023,0.380859,0.067114,-0.129627,0.045972,0.999922,-0.010426,-0.003001,0.006195,0.242425,-0.545161,-0.587158,-0.547060
63879,NaN,5.611579,-12.907995,4.240485,-11.576991,9.054814,-10.058828,-1.657366,-0.384628,1.789878,-0.882080,0.134521,0.385010,0.057183,-0.128213,0.043579,0.999924,-0.008287,-0.001923,0.008949,0.252054,-0.573784,-0.553267,-0.548759
63880,NaN,5.419834,-12.325043,-3.237245,-13.495543,2.362542,-7.802754,-1.061977,-0.406645,2.293896,-0.876221,0.156006,0.397705,0.055673,-0.122787,-0.031607,0.999918,-0.005310,-0.002033,0.011469,0.254156,-0.582536,-0.544239,-0.547595
63881,NaN,7.981779,-3.379328,-21.626372,-12.637479,-15.152533,2.576610,-2.041980,-1.873567,2.665544,-0.859619,0.166748,0.408203,0.082297,-0.034908,-0.215148,0.999815,-0.010209,-0.009367,0.013327,0.258364,-0.614388,-0.509408,-0.544315
63882,NaN,21.953836,-4.004823,18.182127,1.793984,24.660334,4.923098,-2.342929,0.265485,3.119997,-0.860107,0.186035,0.403564,0.220347,-0.034484,0.181955,0.999809,-0.011714,0.001327,0.015599,0.260285,-0.624521,-0.493008,-0.546963
63883,NaN,12.119671,-2.787549,-1.719399,-3.520554,3.364106,1.758154,-2.562041,0.443251,4.022333,-0.852783,0.218018,0.411865,0.121690,-0.025651,-0.017125,0.999713,-0.012809,0.002216,0.020110,0.271340,-0.651323,-0.449530,-0.547792
63884,NaN,17.124707,9.790260,-16.263726,1.165106,-13.405739,11.924519,-0.479220,-0.039597,3.686239,-0.847168,0.245850,0.407227,0.169441,0.100647,-0.162843,0.999827,-0.002396,-0.000198,0.018430,0.279740,-0.660254,-0.436189,-0.543645
63885,NaN,9.812748,28.360938,-6.852578,22.132806,-17.215004,2.887366,-0.605497,0.238864,3.228043,-0.834961,0.265137,0.413330,0.093453,0.284933,-0.069501,0.999864,-0.003027,0.001194,0.016139,0.293850,-0.678576,-0.406767,-0.536402
63886,NaN,9.021654,7.714967,-18.262130,-1.411444,-16.999891,3.730768,-1.453381,-0.429579,3.151241,-0.825195,0.290771,0.419434,0.089393,0.077234,-0.182990,0.999847,-0.007267,-0.002148,0.015755,0.296452,-0.688169,-0.392746,-0.533189
63887,NaN,36.098067,2.775921,5.061045,10.716814,10.374341,23.560670,-1.461698,0.190934,3.264859,-0.815186,0.312256,0.419189,0.360507,0.034014,0.050033,0.999840,-0.007308,0.000955,0.016323,0.306529,-0.702419,-0.372676,-0.523220
63888,NaN,53.179412,15.669483,17.326950,31.950458,15.829835,36.035159,-0.933666,0.773452,3.414340,-0.811768,0.337891,0.418701,0.529670,0.166550,0.170456,0.999836,-0.004668,0.003867,0.017071,0.313573,-0.708074,-0.356996,-0.522358
63889,NaN,32.026857,15.154945,7.136132,23.537637,2.198303,17.524374,-1.463648,-0.133779,3.454147,-0.792969,0.354980,0.431396,0.317534,0.157567,0.070436,0.999824,-0.007318,-0.000669,0.017270,0.319478,-0.721424,-0.331506,-0.517286
63890,NaN,13.854306,-9.035814,4.434305,-1.243548,10.762094,3.448113,-1.152435,-0.641982,3.436181,-0.783203,0.380859,0.431152,0.139921,-0.087703,0.045301,0.999831,-0.005762,-0.003210,0.017180,0.323091,-0.730499,-0.317100,-0.511304
63891,NaN,-0.550322,-10.734787,0.016093,-8.491602,6.446659,-8.448142,-0.365923,-0.850260,3.219292,-0.769043,0.406494,0.445801,-0.003776,-0.107417,0.000339,0.999860,-0.001830,-0.004251,0.016096,0.329604,-0.741395,-0.295322,-0.504460
63892,NaN,-1.350684,-7.188965,-3.982394,-8.146216,1.133262,-8.503326,-0.402610,-1.039936,2.901158,-0.752441,0.425537,0.452148,-0.012255,-0.072154,-0.039745,0.999879,-0.002013,-0.005199,0.014505,0.333854,-0.748876,-0.285230,-0.496358
63893,NaN,7.147682,-6.166332,-7.052965,-5.899000,-1.070907,0.331560,-0.183470,-0.885573,2.465046,-0.735840,0.440674,0.462646,0.072541,-0.060838,-0.070154,0.999914,-0.000917,-0.004428,0.012325,0.339493,-0.758039,-0.266165,-0.489160
63894,NaN,13.987625,-5.345390,-8.898259,-3.434437,-2.611674,7.062662,0.405255,-0.692887,2.121415,-0.725830,0.461914,0.462402,0.140739,-0.051784,-0.088602,0.999936,0.002026,-0.003464,0.010607,0.345274,-0.761820,-0.260274,-0.482362
63895,NaN,17.976951,-5.124447,-8.044855,-0.639705,-2.172672,10.411203,0.923128,-0.422646,1.827200,-0.711426,0.479248,0.459961,0.180395,-0.049227,-0.080298,0.999945,0.004616,-0.002113,0.009136,0.354338,-0.766438,-0.247488,-0.475150
63896,NaN,19.480726,-0.487918,-6.395381,4.568375,-3.962719,9.784512,1.358674,-0.125309,1.670669,-0.705566,0.498535,0.457764,0.194877,-0.002817,-0.063856,0.999942,0.006793,-0.000627,0.008353,0.363339,-0.766351,-0.244520,-0.470001
63897,NaN,18.878887,3.274730,-7.640836,6.741590,-7.674656,8.108079,1.504433,0.029421,1.634200,-0.704102,0.517822,0.450928,0.188499,0.034862,-0.076179,0.999938,0.007522,0.000147,0.008171,0.374391,-0.767656,-0.235403,-0.463811
63898,NaN,19.118182,2.227224,-10.444773,4.936899,-9.511276,9.284415,1.868579,0.036266,1.653198,-0.694092,0.541260,0.437744,0.190965,0.024826,-0.104258,0.999922,0.009343,0.000181,0.008266,0.385411,-0.765960,-0.233304,-0.458620
63899,NaN,21.890832,0.907101,-7.508768,7.339822,-6.710996,11.103223,2.509958,0.144064,1.744432,-0.681885,0.560547,0.418213,0.218759,0.011922,-0.075108,0.999883,0.012549,0.000720,0.008722,0.400117,-0.764115,-0.229725,-0.450846
63900,NaN,22.055529,4.283265,-3.684923,12.129027,-5.800639,8.560883,3.126349,0.247920,1.777976,-0.676270,0.588623,0.398682,0.220114,0.045362,-0.036426,0.999838,0.015631,0.001240,0.008889,0.416289,-0.759220,-0.229446,-0.444572
63901,NaN,20.431930,9.044148,-0.418359,16.702333,-5.710850,3.892577,3.360269,0.375009,1.845111,-0.664307,0.616455,0.374756,0.203467,0.092379,-0.003024,0.999815,0.016800,0.001875,0.009225,0.433859,-0.753969,-0.229473,-0.436622
63902,NaN,16.775511,11.736985,2.685034,18.448488,-4.269094,-1.578767,3.076751,0.441093,1.848540,-0.658447,0.639893,0.361572,0.166725,0.118486,0.028299,0.999837,0.015383,0.002205,0.009242,0.449929,-0.748330,-0.228226,-0.430674
63903,NaN,11.091246,12.286427,3.608547,16.407402,-3.243935,-7.118198,2.120514,0.360909,1.543933,-0.645752,0.646484,0.348633,0.110028,0.123326,0.037192,0.999912,0.010602,0.001804,0.007719,0.461091,-0.744037,-0.229129,-0.425799
63904,NaN,5.253819,8.369714,4.258274,10.734506,-0.422619,-10.427970,0.937364,0.228806,0.998043,-0.648438,0.661377,0.346191,0.052169,0.083757,0.042915,0.999976,0.004687,0.001144,0.004990,0.466954,-0.742514,-0.226878,-0.423265
63905,NaN,-0.281899,0.837373,1.113541,0.922171,0.626834,-10.694321,1.205478,0.231653,1.131936,-0.638184,0.676514,0.339600,-0.002853,0.008290,0.011189,0.999965,0.006027,0.001158,0.005660,0.473124,-0.739344,-0.228752,-0.420948
63906,NaN,-2.798555,1.625346,0.337173,-0.189433,-0.227040,-13.052988,2.313386,0.428594,1.160052,-0.632080,0.687256,0.313721,-0.028071,0.016050,0.003618,0.999914,0.011567,0.002143,0.005800,0.484567,-0.734232,-0.228298,-0.417106
63907,NaN,-9.020856,-0.302813,-0.153183,-5.211028,0.602024,-17.159321,2.820046,0.429142,1.019552,-0.625977,0.702148,0.294189,-0.090195,-0.003468,-0.001385,0.999885,0.014100,0.002146,0.005098,0.496625,-0.726597,-0.232952,-0.413708
63908,NaN,-6.974987,1.364773,0.766075,-2.547958,0.704566,-16.454265,3.329933,0.162604,0.824787,-0.626709,0.725830,0.261719,-0.069799,0.013229,0.007940,0.999853,0.016649,0.000813,0.004124,0.510545,-0.718846,-0.236405,-0.408311
63909,NaN,-3.739784,3.624889,1.490024,1.196198,0.396150,-15.081153,2.989624,0.149251,0.460440,-0.625000,0.736572,0.246582,-0.037469,0.035934,0.015467,0.999885,0.014948,0.000746,0.002302,0.521706,-0.710709,-0.243165,-0.404459
63910,NaN,-2.118740,9.783527,3.284830,7.398788,0.084958,-17.312056,2.727563,0.161746,0.031126,-0.625244,0.743164,0.227295,-0.021175,0.097372,0.034196,0.999907,0.013637,0.000809,0.000156,0.531609,-0.703239,-0.248125,-0.401598
63911,NaN,-0.972579,9.955839,7.535794,9.462319,4.247349,-16.832031,2.139593,0.245000,-0.368651,-0.633545,0.740967,0.210205,-0.009450,0.098762,0.076429,0.999940,0.010698,0.001225,-0.001843,0.537952,-0.695742,-0.255765,-0.401416
63912,NaN,-0.454125,8.487989,7.624449,8.596041,4.906675,-15.506087,1.300164,0.153527,-0.702703,-0.639893,0.739014,0.201660,-0.004185,0.084397,0.076797,0.999972,0.006501,0.000768,-0.003513,0.541246,-0.691019,-0.260399,-0.402166
63913,NaN,-0.457436,5.895495,6.150692,6.151384,4.316647,-13.852908,0.874977,0.084457,-1.026802,-0.642090,0.739014,0.199463,-0.004246,0.058707,0.061766,0.999977,0.004375,0.000422,-0.005134,0.541476,-0.685810,-0.267847,-0.405866
63914,NaN,-1.167746,4.962375,2.962036,4.199645,1.597709,-13.630060,0.533129,-0.049342,-1.381748,-0.654785,0.728271,0.195312,-0.011342,0.049624,0.029750,0.999973,0.002666,-0.000247,-0.006909,0.540419,-0.682597,-0.273793,-0.408712
63915,NaN,-1.349035,4.644762,0.823855,3.361598,-0.352344,-13.369012,0.163804,-0.212685,-1.658786,-0.667236,0.719727,0.206055,-0.013113,0.046551,0.008263,0.999965,0.000819,-0.001063,-0.008294,0.536425,-0.678741,-0.282425,-0.414481
63916,NaN,-1.057402,3.759571,-0.572289,2.463551,-1.494323,-12.510349,-0.309725,-0.377644,-1.952251,-0.684082,0.704834,0.203857,-0.010196,0.037688,-0.005801,0.999949,-0.001549,-0.001888,-0.009761,0.530768,-0.677564,-0.289407,-0.418852
63917,NaN,-0.098999,1.700879,-1.572247,0.979698,-1.969195,-10.545498,-0.640241,-0.503437,-2.291117,-0.696533,0.689697,0.217041,-0.000756,0.016968,-0.015779,0.999926,-0.003201,-0.002517,-0.011455,0.522142,-0.675364,-0.299333,-0.426205
63918,NaN,1.521797,-1.212929,-1.847712,-0.844444,-1.488143,-7.745520,-0.502525,-0.553196,-2.660321,-0.719482,0.672607,0.221436,0.015105,-0.012377,-0.018404,0.999905,-0.002513,-0.002766,-0.013301,0.513899,-0.673809,-0.308660,-0.431993
63919,NaN,3.220524,-3.345241,-1.508151,-1.959442,-0.570611,-5.377567,-0.096818,-0.587249,-3.084973,-0.733887,0.649170,0.228027,0.031728,-0.033952,-0.014972,0.999877,-0.000484,-0.002936,-0.015424,0.505068,-0.669001,-0.322491,-0.439709
63920,NaN,5.172562,-5.092233,-1.772105,-2.936745,-0.294121,-2.948974,0.223064,-0.654963,-3.527277,-0.759033,0.629883,0.230469,0.050875,-0.051805,-0.017611,0.999838,0.001115,-0.003275,-0.017635,0.496922,-0.664082,-0.336381,-0.445995
63921,NaN,6.131497,-7.154481,-2.536097,-4.910235,-0.383514,-1.389741,0.562389,-0.643968,-3.928502,-0.781250,0.593506,0.235107,0.059977,-0.072660,-0.025370,0.999798,0.002812,-0.003220,-0.019641,0.488073,-0.656096,-0.354022,-0.453862
63922,NaN,6.733673,-9.153492,-1.536261,-6.610945,1.175854,-0.518424,0.977373,-0.685664,-4.258585,-0.802002,0.569824,0.229004,0.065422,-0.092866,-0.015588,0.999755,0.004886,-0.003428,-0.021291,0.480283,-0.647569,-0.371795,-0.460164
63923,NaN,8.491217,-10.914687,-0.355454,-7.914955,2.843248,1.168860,1.396708,-0.702764,-4.506492,-0.828857,0.540039,0.233643,0.082439,-0.110996,-0.004033,0.999716,0.006983,-0.003513,-0.022530,0.472424,-0.636348,-0.392370,-0.466822
63924,NaN,11.067653,-11.805828,0.677530,-8.440248,4.194730,3.357247,1.584188,-0.723942,-4.617976,-0.849365,0.505615,0.225342,0.107888,-0.120622,0.006220,0.999696,0.007920,-0.003619,-0.023088,0.465122,-0.625043,-0.412349,-0.472177
63925,NaN,14.945178,-12.542922,0.819392,-9.030460,4.813745,6.817515,1.296272,-0.820964,-4.618444,-0.871826,0.471436,0.232178,0.146469,-0.128887,0.007971,0.999704,0.006481,-0.004104,-0.023090,0.456188,-0.613825,-0.431802,-0.478182
63926,NaN,18.925841,-13.089236,0.439579,-9.811478,5.054645,10.381405,0.819846,-0.909807,-4.556918,-0.889893,0.437256,0.236816,0.186190,-0.135177,0.004699,0.999722,0.004099,-0.004549,-0.022782,0.445719,-0.604122,-0.449701,-0.483881
63927,NaN,20.530050,-12.306655,0.512675,-9.710622,5.393433,11.393955,-0.179851,-1.045214,-4.282364,-0.910400,0.402832,0.248047,0.202572,-0.127418,0.006303,0.999757,-0.000899,-0.005226,-0.021410,0.432468,-0.597411,-0.463539,-0.491124
63928,NaN,21.599335,-10.464243,0.872368,-8.540978,5.974320,11.822139,-1.681509,-1.413856,-3.762995,-0.919922,0.370605,0.276367,0.213902,-0.108593,0.011143,0.999763,-0.008407,-0.007069,-0.018813,0.414827,-0.595655,-0.473597,-0.498818
63929,NaN,23.173997,-12.419605,-1.901603,-11.557756,4.584610,13.429328,-2.590947,-1.559018,-3.274368,-0.925293,0.332031,0.300537,0.229793,-0.128186,-0.015576,0.999752,-0.012954,-0.007794,-0.016370,0.395588,-0.597716,-0.478190,-0.507523
63930,NaN,22.480453,-14.239174,-1.086259,-13.730473,6.445624,12.076549,-2.759193,-1.484601,-2.851509,-0.932617,0.297607,0.326660,0.222805,-0.145694,-0.007209,0.999776,-0.013795,-0.007422,-0.014256,0.376469,-0.599988,-0.482539,-0.515210
63931,NaN,20.458221,-12.308816,0.115982,-11.855486,7.419396,9.536727,-2.784533,-1.318853,-2.442255,-0.933838,0.269775,0.342041,0.203038,-0.125529,0.004239,0.999807,-0.013922,-0.006594,-0.012210,0.359398,-0.604049,-0.482358,-0.522770
63932,NaN,19.165625,-13.048390,0.192174,-12.786741,8.016107,7.789027,-2.288103,-1.092812,-2.017219,-0.939697,0.248291,0.357422,0.190308,-0.132367,0.004471,0.999869,-0.011440,-0.005464,-0.010086,0.344533,-0.606073,-0.484370,-0.528544
63933,NaN,15.658171,-12.943224,1.162988,-12.314873,8.559349,3.939416,-1.823283,-0.850071,-1.539051,-0.936768,0.226807,0.372559,0.155525,-0.130515,0.013479,0.999920,-0.009116,-0.004250,-0.007695,0.334013,-0.609784,-0.481972,-0.533200
63934,NaN,12.295461,-12.617859,1.228032,-11.909675,8.051835,0.444771,-1.558137,-0.743111,-0.910301,-0.943115,0.222656,0.381348,0.122330,-0.126633,0.013721,0.999952,-0.007791,-0.003715,-0.004551,0.325030,-0.612144,-0.481811,-0.536184
63935,NaN,9.823886,-12.035504,2.128096,-10.802061,8.345609,-2.095607,-1.228796,-0.636158,-0.231544,-0.938477,0.211914,0.390137,0.098030,-0.120334,0.022332,0.999975,-0.006144,-0.003181,-0.001158,0.320547,-0.617925,-0.475715,-0.537692
63936,NaN,7.579094,-10.886619,3.598693,-9.032299,8.894885,-4.501589,-1.089681,-0.532791,0.394521,-0.934326,0.213867,0.398682,0.075908,-0.108518,0.036781,0.999980,-0.005448,-0.002664,0.001973,0.316968,-0.622030,-0.472410,-0.537995
63937,NaN,6.583484,-9.747219,4.794581,-7.261639,9.468685,-5.459750,-1.085670,-0.408844,0.973338,-0.928223,0.224609,0.404785,0.066208,-0.096888,0.048608,0.999971,-0.005428,-0.002044,0.004867,0.316858,-0.630089,-0.461850,-0.537852
63938,NaN,6.347976,-8.857565,4.598763,-6.350902,8.986540,-5.476074,-1.028316,-0.196742,1.482079,-0.924561,0.243896,0.408936,0.064087,-0.087864,0.046503,0.999959,-0.005142,-0.000984,0.007410,0.317137,-0.635643,-0.454707,-0.537236
63939,NaN,5.812120,-9.975572,-3.593895,-10.403623,2.115686,-4.025448,-0.776445,-0.224744,2.066892,-0.912354,0.263184,0.417236,0.059189,-0.099286,-0.035487,0.999938,-0.003882,-0.001124,0.010334,0.321399,-0.645120,-0.440550,-0.535199
63940,NaN,9.961255,-9.442778,-7.868215,-11.317984,-0.802136,1.212170,-1.541174,-0.858582,2.544054,-0.906494,0.280273,0.432129,0.101142,-0.093748,-0.077526,0.999880,-0.007706,-0.004293,0.012720,0.321307,-0.655421,-0.429546,-0.531672
63941,NaN,11.079985,-3.388864,13.450591,4.342549,15.376096,-2.076366,-2.459349,0.462643,2.779515,-0.896484,0.297363,0.425293,0.111553,-0.030687,0.134639,0.999825,-0.012296,0.002313,0.013897,0.314229,-0.673864,-0.395886,-0.538927
63942,NaN,10.572902,0.557694,-0.924678,1.291372,0.888149,0.698545,-1.528109,0.531940,3.319073,-0.884766,0.331543,0.435547,0.105593,0.007258,-0.009579,0.999830,-0.007640,0.002660,0.016594,0.319025,-0.681286,-0.379681,-0.538437
63943,NaN,10.192192,15.847275,-15.117880,6.914562,-19.529293,2.610698,-1.592207,-0.146555,3.005903,-0.872559,0.350830,0.437500,0.099648,0.158772,-0.152368,0.999855,-0.007961,-0.000733,0.015029,0.315805,-0.696956,-0.350136,-0.540300
63944,NaN,7.944799,15.151786,-6.892986,10.198737,-13.053453,-1.702122,-1.639476,-0.013538,2.843685,-0.858398,0.378662,0.450195,0.077293,0.152055,-0.070170,0.999865,-0.008197,-0.000068,0.014218,0.317710,-0.704466,-0.335770,-0.538560
63945,NaN,6.840342,2.241006,-12.436825,-3.874773,-10.409297,-0.695711,-1.642865,-0.032836,2.903431,-0.848389,0.400146,0.458496,0.068099,0.022378,-0.124541,0.999861,-0.008214,-0.000164,0.014516,0.314896,-0.716988,-0.309371,-0.539498
63946,NaN,9.704191,-0.129641,-15.224563,-6.666373,-10.860685,2.977122,-1.363793,-0.567526,2.729020,-0.829834,0.419434,0.470947,0.097488,-0.001005,-0.151962,0.999880,-0.006819,-0.002838,0.013645,0.316454,-0.724801,-0.296764,-0.535212
63947,NaN,23.530600,-2.350039,-2.538387,3.018826,1.441227,13.733756,-0.717738,-0.514338,2.530811,-0.822021,0.447266,0.468506,0.235643,-0.020609,-0.024701,0.999910,-0.003589,-0.002572,0.012654,0.320652,-0.732647,-0.283260,-0.529314
63948,NaN,54.756866,23.359653,10.750451,39.742796,-3.020922,35.692105,-0.252866,0.327458,2.908487,-0.812256,0.470703,0.474609,0.544268,0.241663,0.106309,0.999892,-0.001264,0.001637,0.014542,0.327855,-0.736226,-0.271379,-0.526152
63949,NaN,56.202200,33.364663,10.202120,48.304592,-11.540583,33.878283,-1.714108,-0.153985,3.621793,-0.795654,0.485596,0.491699,0.555770,0.344609,0.099528,0.999799,-0.008570,-0.000770,0.018108,0.331330,-0.744856,-0.251590,-0.521644
63950,NaN,14.805310,-17.548774,3.845203,-4.938591,14.795301,7.466349,-1.985395,-0.971893,3.780359,-0.775146,0.513428,0.504150,0.151135,-0.172252,0.040902,0.999760,-0.009926,-0.004859,0.018900,0.332496,-0.755256,-0.233881,-0.514134
63951,NaN,-1.246521,-12.068568,0.294782,-8.561862,8.332595,-7.682218,-0.586653,-0.673415,3.419070,-0.753906,0.524170,0.512695,-0.010411,-0.120866,0.003265,0.999844,-0.002933,-0.003367,0.017094,0.338678,-0.761613,-0.219288,-0.507105
63952,NaN,-8.743400,-4.128272,-6.229796,-10.173620,-1.649114,-14.918255,-0.459311,-0.835929,3.216095,-0.739502,0.543457,0.523193,-0.086492,-0.042822,-0.062564,0.999859,-0.002296,-0.004179,0.016080,0.344121,-0.767929,-0.207259,-0.498908
63953,NaN,-1.138538,-7.885924,-8.423235,-10.896148,-0.755853,-5.923086,-0.900559,-0.891994,2.802783,-0.724854,0.553955,0.533936,-0.009901,-0.079383,-0.083922,0.999882,-0.004503,-0.004460,0.014013,0.347243,-0.774527,-0.194094,-0.491790
63954,NaN,11.621408,-11.594720,-8.017127,-7.164470,1.542050,6.921896,-0.098486,-0.663257,2.333810,-0.708252,0.571045,0.533691,0.117822,-0.114618,-0.079726,0.999926,-0.000492,-0.003316,0.011669,0.351933,-0.778537,-0.185949,-0.485228
63955,NaN,18.451460,-5.683098,-6.754241,0.886439,-2.176187,10.505700,0.709515,-0.431905,1.928620,-0.698242,0.590332,0.529297,0.185195,-0.054808,-0.067340,0.999945,0.003548,-0.002159,0.009643,0.359502,-0.780321,-0.179031,-0.479380
63956,NaN,20.790523,-1.322544,-6.139712,5.435301,-5.101580,10.585964,0.940853,-0.226011,1.906381,-0.685791,0.605469,0.524658,0.208086,-0.010954,-0.061217,0.999943,0.004704,-0.001130,0.009532,0.367522,-0.780833,-0.174241,-0.474202
63957,NaN,19.558507,0.076791,-8.081918,4.834782,-7.723113,9.287520,1.009312,-0.016582,2.025366,-0.675537,0.622559,0.511719,0.195568,0.003156,-0.080791,0.999936,0.005046,-0.000083,0.010127,0.376656,-0.780864,-0.167326,-0.469451
63958,NaN,17.826183,0.252615,-11.609186,2.240423,-10.637780,8.474044,1.335630,0.001081,2.102796,-0.663330,0.644043,0.504883,0.178216,0.005175,-0.116064,0.999922,0.006678,0.000005,0.010514,0.386780,-0.780044,-0.162233,-0.464341
63959,NaN,20.698524,-2.319578,-10.054020,3.451495,-8.521754,11.408161,1.839923,0.007591,2.225993,-0.651367,0.667480,0.491943,0.207216,-0.019964,-0.100742,0.999896,0.009199,0.000038,0.011130,0.399272,-0.778321,-0.157048,-0.458404
63960,NaN,21.761071,0.778513,-4.465067,9.571060,-6.740489,9.082221,2.426852,0.064154,2.266131,-0.639160,0.693359,0.472168,0.217485,0.010791,-0.044602,0.999862,0.012134,0.000321,0.011330,0.413908,-0.775001,-0.153639,-0.452160
63961,NaN,20.040259,3.237775,-0.986183,12.467010,-5.591709,5.232362,2.690990,0.112563,2.301462,-0.629150,0.714844,0.448486,0.200006,0.034810,-0.009517,0.999843,0.013454,0.000563,0.011507,0.429556,-0.770883,-0.150448,-0.445631
63962,NaN,18.543273,1.532278,1.367756,12.162015,-2.710121,4.072520,2.611195,0.106584,2.333801,-0.617188,0.744873,0.426514,0.185246,0.017306,0.013796,0.999847,0.013055,0.000533,0.011668,0.444837,-0.766674,-0.147015,-0.438997
63963,NaN,18.904410,1.763578,3.359668,13.767847,-1.738983,3.573352,2.628214,0.155029,2.340154,-0.600342,0.757568,0.409424,0.188850,0.019404,0.033697,0.999845,0.013140,0.000775,0.011700,0.455597,-0.763345,-0.136270,-0.437225
63964,NaN,18.294426,4.665600,4.193359,15.818784,-2.662991,0.990212,2.603327,0.197136,2.347663,-0.583984,0.783447,0.385498,0.182426,0.048250,0.042375,0.999846,0.013016,0.000986,0.011738,0.470732,-0.758465,-0.132528,-0.430788
63965,NaN,16.350614,7.820538,4.284754,16.696100,-4.177262,-2.696322,2.410902,0.233923,2.306676,-0.562988,0.798340,0.365967,0.162644,0.079562,0.043611,0.999860,0.012054,0.001170,0.011533,0.480506,-0.754558,-0.121966,-0.429978
63966,NaN,12.626921,7.745513,3.309348,14.014601,-4.067719,-5.638799,1.893111,0.183948,2.167397,-0.559326,0.819824,0.348633,0.125453,0.078500,0.033718,0.999896,0.009465,0.000920,0.010837,0.492372,-0.750857,-0.117402,-0.424265
63967,NaN,8.587066,7.546748,3.848346,11.716148,-2.692250,-8.821934,1.022805,0.101476,1.802091,-0.549072,0.830566,0.346436,0.085207,0.076039,0.038828,0.999946,0.005114,0.000507,0.009010,0.496141,-0.749527,-0.107714,-0.424795
63968,NaN,1.704476,4.806454,4.506341,6.226915,0.998085,-12.370685,0.120059,0.047542,1.342283,-0.542725,0.836914,0.344238,0.016733,0.048150,0.045088,0.999977,0.000600,0.000238,0.006711,0.499458,-0.749833,-0.102815,-0.421569
63969,NaN,-4.018669,1.257232,0.722187,-1.384621,1.114562,-13.697544,0.579862,0.121699,1.425166,-0.527832,0.845459,0.335449,-0.040270,0.012264,0.007282,0.999970,0.002899,0.000608,0.007126,0.500460,-0.749086,-0.093219,-0.423934
63970,NaN,-7.418803,4.931903,-1.110284,-2.468049,-1.129066,-18.370010,1.120482,0.126879,1.245974,-0.521729,0.854248,0.326904,-0.074501,0.048917,-0.010781,0.999965,0.005602,0.000634,0.006230,0.507341,-0.746567,-0.090604,-0.420754
63971,NaN,-13.131353,6.779400,-1.614806,-5.289319,-0.568079,-23.694291,1.580711,0.014910,0.800326,-0.513428,0.862793,0.313965,-0.131585,0.067393,-0.015605,0.999961,0.007903,0.000075,0.004002,0.511576,-0.742970,-0.087161,-0.422715
63972,NaN,-9.731902,1.459167,-3.893426,-7.374155,-0.986961,-17.339006,1.947689,-0.432216,0.400524,-0.515625,0.866943,0.298828,-0.097264,0.014776,-0.039001,0.999948,0.009738,-0.002161,0.002003,0.519445,-0.739037,-0.090889,-0.419214
63973,NaN,-4.634370,4.777405,-1.637306,-1.033907,-2.078462,-16.261874,2.146685,-0.424669,-0.240887,-0.524414,0.869141,0.281738,-0.046252,0.048003,-0.015957,0.999939,0.010733,-0.002123,-0.001204,0.523454,-0.734506,-0.093705,-0.421565
63974,NaN,-2.814273,8.079886,1.063715,3.542028,-1.691897,-17.488915,2.279753,-0.233196,-1.075368,-0.537354,0.875732,0.266357,-0.027721,0.080821,0.011526,0.999920,0.011398,-0.001166,-0.005377,0.529410,-0.728467,-0.103060,-0.422421
63975,NaN,-1.451758,8.557878,2.126680,5.373449,-1.323832,-16.829524,2.465000,-0.162039,-1.591389,-0.550049,0.871582,0.242920,-0.013855,0.085420,0.022309,0.999892,0.012325,-0.000810,-0.007957,0.531531,-0.721864,-0.110795,-0.429082
63976,NaN,-2.486878,9.002203,1.147840,4.718391,-1.912009,-17.725787,2.262099,-0.293343,-1.911129,-0.569092,0.865234,0.227783,-0.024026,0.090117,0.012462,0.999889,0.011310,-0.001467,-0.009555,0.535376,-0.715342,-0.123311,-0.431802
63977,NaN,-2.875005,6.709344,0.762720,3.038776,-1.193032,-16.385500,1.958144,-0.590016,-2.378528,-0.592285,0.850342,0.215088,-0.027974,0.067351,0.008202,0.999877,0.009790,-0.002950,-0.011892,0.533955,-0.710221,-0.135100,-0.438436
63978,NaN,-1.272875,3.401903,-0.818526,1.179487,-1.703478,-12.906008,1.970511,-0.705479,-2.982646,-0.617676,0.839600,0.204346,-0.012191,0.034282,-0.007892,0.999834,0.009852,-0.003527,-0.014912,0.533850,-0.704374,-0.151869,-0.442490
63979,NaN,-0.534036,2.948167,-0.916040,1.346870,-1.816284,-11.980994,2.326059,-0.714985,-3.543735,-0.649170,0.820312,0.193848,-0.004784,0.029674,-0.008834,0.999769,0.011629,-0.003575,-0.017717,0.530363,-0.697541,-0.168629,-0.451349
63980,NaN,0.278307,3.178394,-0.607278,2.198852,-1.798809,-11.386149,2.499379,-0.768097,-3.975915,-0.685059,0.796875,0.174805,0.003437,0.031792,-0.005663,0.999717,0.012496,-0.003840,-0.019878,0.529311,-0.689096,-0.190121,-0.456979
63981,NaN,1.259920,2.806732,1.323226,3.314415,-0.113756,-10.277159,2.281078,-0.879320,-4.301016,-0.720459,0.764893,0.168701,0.013137,0.027635,0.013606,0.999694,0.011404,-0.004396,-0.021503,0.523068,-0.681630,-0.209836,-0.466637
63982,NaN,2.861066,0.201034,2.699107,2.576207,1.851663,-7.479657,1.762962,-1.093655,-4.534058,-0.755859,0.732910,0.166748,0.028495,0.001125,0.027160,0.999689,0.008814,-0.005468,-0.022668,0.517190,-0.674601,-0.232193,-0.472773
63983,NaN,5.012835,-1.572477,3.705515,2.335854,3.134310,-4.709376,1.351129,-1.172811,-4.729883,-0.788818,0.692139,0.171387,0.049516,-0.017152,0.037234,0.999680,0.006755,-0.005863,-0.023647,0.505075,-0.669493,-0.250932,-0.483437
63984,NaN,6.213772,-2.828777,4.755122,1.898461,4.552281,-3.113157,0.750585,-1.197858,-4.884608,-0.815674,0.657959,0.171875,0.061134,-0.029968,0.047809,0.999677,0.003753,-0.005989,-0.024420,0.494117,-0.664148,-0.272037,-0.490665
63985,NaN,7.842607,-4.292558,5.062555,1.065637,5.394708,-1.134929,-0.011560,-1.279249,-4.989196,-0.846436,0.610840,0.189453,0.076997,-0.044855,0.051124,0.999668,-0.000058,-0.006396,-0.024943,0.475701,-0.661881,-0.287952,-0.502699
63986,NaN,10.416700,-6.228971,4.606441,-0.359448,5.801173,1.793724,-0.809524,-1.399765,-5.076281,-0.875000,0.563721,0.213623,0.102218,-0.064712,0.047043,0.999645,-0.004047,-0.006998,-0.025378,0.458082,-0.659780,-0.305940,-0.511128
63987,NaN,13.520578,-8.418064,3.009260,-2.459293,5.543258,5.216828,-1.660498,-1.462624,-5.150158,-0.896729,0.507812,0.244385,0.132755,-0.087361,0.031786,0.999607,-0.008301,-0.007312,-0.025747,0.432088,-0.661274,-0.317202,-0.524785
63988,NaN,17.310291,-9.917494,2.454004,-3.673849,6.247181,8.932903,-2.193493,-1.405152,-5.223775,-0.914307,0.456543,0.268555,0.170256,-0.103361,0.026861,0.999574,-0.010966,-0.007025,-0.026115,0.408721,-0.661132,-0.331616,-0.534680
63989,NaN,21.164917,-12.718055,2.035630,-6.099353,8.170566,12.764403,-2.733210,-1.298428,-5.171149,-0.923096,0.396484,0.295166,0.208127,-0.132286,0.023500,0.999551,-0.013664,-0.006491,-0.025852,0.377175,-0.664411,-0.337282,-0.550034
63990,NaN,23.696226,-15.268904,1.515066,-8.834996,10.157951,14.996648,-3.191833,-1.253663,-4.872813,-0.934082,0.338379,0.321777,0.233042,-0.158115,0.019115,0.999556,-0.015957,-0.006267,-0.024360,0.350894,-0.665364,-0.346904,-0.560198
63991,NaN,23.744497,-18.836030,0.429743,-12.752783,12.591809,14.628428,-3.711491,-1.226201,-4.380501,-0.936768,0.289062,0.350342,0.233199,-0.193358,0.009294,0.999569,-0.018555,-0.006130,-0.021899,0.317470,-0.670805,-0.345824,-0.574142
63992,NaN,24.562180,-21.241878,-1.374898,-15.960897,13.872717,14.864891,-3.883110,-1.240301,-3.551709,-0.935059,0.241943,0.372559,0.241858,-0.216930,-0.008058,0.999635,-0.019413,-0.006201,-0.017756,0.291994,-0.674140,-0.348431,-0.582125
63993,NaN,23.416624,-20.538030,-3.225681,-16.409053,13.389218,13.250134,-3.327528,-0.914658,-2.621455,-0.933838,0.205322,0.390137,0.231577,-0.208914,-0.027737,0.999765,-0.016636,-0.004573,-0.013106,0.265197,-0.680458,-0.341097,-0.591861
63994,NaN,18.927494,-20.903938,-3.545799,-17.191218,13.603012,8.274619,-2.780185,-0.499184,-1.872212,-0.930908,0.177490,0.396973,0.187387,-0.211261,-0.032062,0.999856,-0.013900,-0.002496,-0.009361,0.249310,-0.682329,-0.339852,-0.597304
63995,NaN,15.189379,-19.134556,-2.806922,-15.187159,13.315987,4.213288,-2.637679,-0.332309,-1.105686,-0.923584,0.151855,0.408203,0.150875,-0.192527,-0.025284,0.999896,-0.013188,-0.001661,-0.005528,0.230954,-0.687956,-0.328682,-0.604437
63996,NaN,11.023960,-16.995740,-0.851873,-12.289527,12.974086,-0.234939,-2.293533,-0.403814,-0.178911,-0.919189,0.151855,0.416748,0.110102,-0.170137,-0.006346,0.999932,-0.011467,-0.002019,-0.000895,0.221846,-0.691482,-0.322810,-0.606985
63997,NaN,7.622714,-15.615905,1.165032,-9.542269,13.262614,-3.782951,-1.874343,-0.420119,0.653299,-0.912598,0.143066,0.425537,0.076710,-0.155790,0.013272,0.999949,-0.009372,-0.002101,0.003266,0.211534,-0.699010,-0.307766,-0.609851
63998,NaN,6.459103,-14.663559,3.575062,-6.938623,14.130156,-5.153703,-1.472463,-0.350186,1.329009,-0.902344,0.156006,0.438232,0.065498,-0.145933,0.036941,0.999949,-0.007362,-0.001751,0.006645,0.209892,-0.703642,-0.298986,-0.609459
63999,NaN,6.584438,-13.049179,4.381539,-4.727603,13.627306,-4.835521,-0.851495,-0.185958,1.849034,-0.894043,0.164551,0.437988,0.067005,-0.129688,0.044431,0.999948,-0.004257,-0.000930,0.009245,0.207299,-0.710727,-0.282394,-0.610039
64000,NaN,7.168999,-20.771090,-22.015917,-29.278554,2.702557,0.333190,-0.164539,-1.163591,2.638128,-0.877441,0.183594,0.461426,0.075701,-0.206911,-0.219556,0.999896,-0.000823,-0.005818,0.013190,0.213098,-0.718096,-0.273694,-0.603340
64001,NaN,22.499335,4.514832,0.861952,6.579569,-0.195828,12.187064,-1.798359,-0.856462,2.434687,-0.864990,0.194336,0.461426,0.224382,0.047963,0.009158,0.999876,-0.008991,-0.004282,0.012173,0.207397,-0.728817,-0.251868,-0.601976
64002,NaN,12.803388,1.361249,17.749584,16.692809,10.759712,-0.521447,-2.524667,1.053951,3.919139,-0.852539,0.207275,0.467773,0.128637,0.018363,0.176607,0.999714,-0.012622,0.005269,0.019594,0.211263,-0.732987,-0.228824,-0.604762
64003,NaN,12.035475,18.087428,-11.952511,2.551507,-20.939796,3.218858,-2.551874,0.274560,3.730040,-0.844238,0.219971,0.476074,0.116807,0.181529,-0.122001,0.999744,-0.012758,0.001373,0.018649,0.207524,-0.741229,-0.198202,-0.606820
64004,NaN,6.743821,22.355985,-15.527841,0.400864,-26.984209,-2.196379,-2.701129,-0.391369,3.184440,-0.825439,0.228516,0.495361,0.064198,0.222476,-0.158160,0.999780,-0.013505,-0.001957,0.015921,0.206744,-0.748209,-0.178567,-0.604611
64005,NaN,0.743480,5.716595,-17.973519,-12.414267,-13.777246,-6.301301,-2.919301,-0.797038,3.049187,-0.799561,0.230469,0.510498,0.007307,0.054647,-0.180516,0.999769,-0.014595,-0.003985,0.015245,0.196136,-0.758447,-0.148147,-0.603607
64006,NaN,17.578066,-17.303907,-13.842368,-15.489194,8.468040,12.285649,-2.538321,-0.899456,2.939986,-0.782715,0.241211,0.519043,0.178929,-0.172156,-0.135435,0.999801,-0.012691,-0.004497,0.014699,0.194680,-0.765676,-0.130189,-0.599075
64007,NaN,52.923840,10.785487,20.353890,35.525947,-3.891308,35.509920,0.042279,0.620788,2.599800,-0.770508,0.258301,0.510254,0.528406,0.114685,0.201922,0.999911,0.000211,0.003104,0.012999,0.194571,-0.767262,-0.108349,-0.601424
64008,NaN,64.330998,32.712290,10.437148,38.713239,-30.290810,44.046629,-0.704863,0.104135,3.040049,-0.756104,0.277588,0.514160,0.638289,0.337215,0.102862,0.999878,-0.003524,0.000521,0.015200,0.201043,-0.769186,-0.094451,-0.599177
64009,NaN,29.287026,0.855300,6.694194,14.234498,-1.189690,16.628541,-1.846510,-0.566418,3.252780,-0.745850,0.294678,0.520508,0.292482,0.013935,0.067659,0.999821,-0.009232,-0.002832,0.016263,0.203471,-0.774021,-0.077123,-0.594594
64010,NaN,4.654408,-13.638203,-1.339954,-4.671438,11.171786,-1.887333,-0.774658,-0.514855,2.998165,-0.725098,0.316162,0.524658,0.048615,-0.135714,-0.012750,0.999877,-0.003873,-0.002574,0.014990,0.209165,-0.777399,-0.063730,-0.589780
64011,NaN,-10.097332,-2.397483,-7.940808,-10.948799,0.617733,-16.918391,-0.682372,-0.593255,2.949366,-0.712891,0.333252,0.539307,-0.100367,-0.025729,-0.079621,0.999881,-0.003412,-0.002966,0.014746,0.215140,-0.780568,-0.051013,-0.584659
64012,NaN,-3.385124,-7.642119,-10.681097,-13.063987,3.324047,-8.322750,-0.972285,-0.744161,2.642243,-0.694336,0.354492,0.549805,-0.032436,-0.077374,-0.106559,0.999894,-0.004861,-0.003721,0.013211,0.218859,-0.784378,-0.038653,-0.579101
64013,NaN,7.706602,-10.643303,-6.645926,-6.662356,5.428232,2.144665,0.044557,-0.627725,2.198453,-0.686279,0.369629,0.543213,0.078438,-0.105561,-0.066238,0.999935,0.000223,-0.003139,0.010992,0.225320,-0.786490,-0.030799,-0.574209
64014,NaN,17.874545,-6.402333,-2.570655,1.880142,0.821444,9.236654,0.965235,-0.445916,1.711695,-0.669678,0.388916,0.542969,0.179341,-0.062366,-0.025611,0.999949,0.004826,-0.002230,0.008558,0.233952,-0.786904,-0.027339,-0.570352
64015,NaN,19.157956,-0.504745,-1.806980,4.978616,-4.697910,8.178473,1.021210,-0.237029,1.545927,-0.668213,0.408203,0.538574,0.191632,-0.003475,-0.017863,0.999956,0.005106,-0.001185,0.007730,0.242388,-0.786544,-0.024352,-0.567454
64016,NaN,15.215332,-2.226891,-6.191507,-0.703643,-4.300156,6.181282,0.800284,-0.096801,1.509535,-0.656006,0.427490,0.529785,0.152344,-0.020872,-0.061927,0.999963,0.004001,-0.000484,0.007548,0.249799,-0.786001,-0.020801,-0.565128
64017,NaN,12.025712,-0.882673,-10.155934,-4.815191,-6.587315,3.676349,1.244877,-0.040294,1.350303,-0.658691,0.444580,0.529541,0.120331,-0.007382,-0.101584,0.999958,0.006224,-0.000201,0.006751,0.258524,-0.784649,-0.019047,-0.563142
64018,NaN,13.546779,-2.027359,-10.243571,-4.604799,-6.317619,5.400125,1.680695,-0.095769,1.266738,-0.646484,0.466064,0.507812,0.135638,-0.018553,-0.102532,0.999945,0.008403,-0.000479,0.006334,0.268662,-0.782821,-0.018931,-0.560940
64019,NaN,17.320455,-3.391903,-6.754567,-0.529326,-4.964225,8.413452,2.273407,-0.142022,1.213168,-0.645264,0.491699,0.496582,0.173451,-0.032098,-0.067794,0.999917,0.011367,-0.000710,0.006066,0.280889,-0.780241,-0.020729,-0.558476
64020,NaN,20.152894,0.644777,-1.979252,6.154391,-7.238675,8.081168,2.931581,-0.114367,1.167380,-0.637451,0.519775,0.474854,0.201497,0.007912,-0.019568,0.999875,0.014657,-0.000572,0.005837,0.295540,-0.776464,-0.024517,-0.556020
64021,NaN,22.512218,4.484075,0.935725,11.107713,-9.836303,7.726997,3.153817,-0.065966,1.268137,-0.636230,0.547607,0.459473,0.224829,0.046111,0.010152,0.999856,0.015768,-0.000330,0.006340,0.311211,-0.772054,-0.028512,-0.553415
64022,NaN,23.853122,7.762567,2.451764,14.397649,-12.185883,6.903793,3.104896,0.044403,1.428499,-0.633057,0.583984,0.437500,0.237976,0.078934,0.025683,0.999854,0.015524,0.000222,0.007142,0.327111,-0.767189,-0.031514,-0.550842
64023,NaN,21.885504,10.499471,2.844105,15.336837,-13.518600,3.578282,3.006010,0.142633,1.524441,-0.629639,0.609863,0.413574,0.218069,0.106217,0.029876,0.999858,0.015029,0.000713,0.007622,0.342791,-0.761996,-0.033971,-0.548363
64024,NaN,17.371141,11.703272,1.815854,13.491581,-13.509559,-1.010595,2.655615,0.140731,1.453214,-0.624268,0.639893,0.395996,0.172870,0.118037,0.019600,0.999885,0.013278,0.000704,0.007266,0.356879,-0.757216,-0.035468,-0.545896
64025,NaN,11.628264,10.238731,1.925622,10.974565,-10.193415,-5.407687,2.072652,0.063426,1.146385,-0.615967,0.654785,0.378662,0.115700,0.102845,0.020284,0.999930,0.010363,0.000317,0.005732,0.371509,-0.753183,-0.042243,-0.541213
64026,NaN,4.521791,4.441675,1.647971,5.239835,-3.710226,-8.520920,1.599865,0.026221,0.940497,-0.614746,0.676270,0.367676,0.045011,0.044495,0.016830,0.999957,0.007999,0.000131,0.004702,0.380070,-0.750304,-0.042978,-0.539206
64027,NaN,-2.889301,1.925678,-0.134375,-0.369699,-0.430882,-13.240774,2.199677,0.199505,0.757240,-0.614990,0.687012,0.352539,-0.028967,0.019160,-0.001104,0.999932,0.010998,0.000998,0.003786,0.394520,-0.745263,-0.051969,-0.535010
64028,NaN,-8.371662,3.409851,-0.876631,-2.443976,0.042988,-18.559324,3.519194,0.293439,0.425404,-0.613525,0.710693,0.317871,-0.083801,0.034066,-0.008044,0.999842,0.017595,0.001467,0.002127,0.408786,-0.737527,-0.059209,-0.534268
64029,NaN,-13.554177,2.224331,2.867719,-2.504470,5.239589,-22.585996,4.393799,0.336299,0.316406,-0.614014,0.730225,0.283203,-0.135527,0.021389,0.029381,0.999756,0.021967,0.001681,0.001582,0.429884,-0.726967,-0.075081,-0.530172
64030,NaN,-9.541139,-1.697723,-0.329332,-5.297314,4.099190,-16.823996,3.995080,-0.234336,0.340541,-0.614746,0.749512,0.259277,-0.095378,-0.017068,-0.003745,0.999798,0.019974,-0.001172,0.001703,0.445134,-0.718980,-0.084920,-0.526984
64031,NaN,-4.564613,3.280167,-2.071644,-1.345344,-1.871341,-15.342037,3.770858,-0.498211,0.070399,-0.613037,0.762451,0.231445,-0.045607,0.033170,-0.020207,0.999819,0.018853,-0.002491,0.000352,0.462915,-0.710940,-0.101952,-0.519499
64032,NaN,-3.338227,8.728022,3.243698,6.161922,-1.056615,-17.477422,3.824419,-0.278817,-0.475170,-0.615234,0.768799,0.205566,-0.033223,0.086718,0.034052,0.999813,0.019121,-0.001394,-0.002376,0.475048,-0.702436,-0.114198,-0.517564
64033,NaN,-1.981666,9.989133,6.772666,9.871689,1.076553,-16.951085,3.289770,-0.158152,-0.890288,-0.621826,0.777588,0.181885,-0.019429,0.098847,0.069343,0.999855,0.016448,-0.000791,-0.004451,0.488002,-0.693407,-0.131735,-0.513505
64034,NaN,-1.104331,8.703804,7.386027,9.801500,2.206073,-15.343171,2.451989,-0.198888,-1.199327,-0.625977,0.771240,0.158203,-0.010599,0.086188,0.074910,0.999906,0.012260,-0.000994,-0.005996,0.493248,-0.687078,-0.142659,-0.514081
64035,NaN,-0.947277,6.039556,5.136315,6.736873,1.820987,-13.692414,1.605992,-0.331369,-1.501809,-0.645020,0.764893,0.156250,-0.009107,0.060050,0.051831,0.999938,0.008030,-0.001657,-0.007509,0.498473,-0.681601,-0.158183,-0.511784
64036,NaN,-1.513794,4.094833,2.408301,3.650898,0.623780,-13.150435,1.076272,-0.472071,-1.779755,-0.655518,0.758301,0.151855,-0.014831,0.040951,0.024268,0.999943,0.005381,-0.002360,-0.008899,0.497186,-0.678678,-0.168168,-0.513733
64037,NaN,-0.621707,3.684067,0.175463,2.593886,-1.312185,-12.166224,0.443332,-0.622491,-1.961173,-0.666016,0.747803,0.154053,-0.005861,0.036895,0.001818,0.999945,0.002217,-0.003112,-0.009806,0.495517,-0.676531,-0.180994,-0.513820
64038,NaN,-0.641030,3.265356,-1.099642,1.649112,-2.240449,-11.944107,-0.421822,-0.752246,-2.155048,-0.689209,0.734863,0.171387,-0.006017,0.032696,-0.011088,0.999933,-0.002109,-0.003761,-0.010775,0.487841,-0.677510,-0.189050,-0.516964
64039,NaN,0.059089,1.429190,-2.302035,-0.064635,-2.641014,-10.417623,-1.177706,-0.988304,-2.389718,-0.712402,0.717773,0.190674,0.000875,0.014147,-0.023100,0.999899,-0.005888,-0.004941,-0.011948,0.478223,-0.679906,-0.198815,-0.519137
64040,NaN,2.060628,-1.936103,-2.755961,-2.145966,-1.882997,-7.085390,-1.443329,-1.160368,-2.680455,-0.733398,0.698486,0.208008,0.020501,-0.019834,-0.027298,0.999867,-0.007216,-0.005802,-0.013402,0.465144,-0.683612,-0.206928,-0.522969
64041,NaN,4.563555,-4.576550,-3.180767,-3.567425,-1.335027,-3.699207,-1.295895,-1.162438,-3.058474,-0.747314,0.668457,0.231934,0.045109,-0.046662,-0.031244,0.999845,-0.006479,-0.005812,-0.015292,0.451485,-0.686264,-0.217025,-0.527355
64042,NaN,7.263777,-6.037090,-4.623591,-4.682111,-2.067433,-0.626877,-0.915281,-1.053425,-3.494504,-0.776367,0.638428,0.245117,0.071807,-0.061840,-0.045575,0.999823,-0.004576,-0.005267,-0.017471,0.437910,-0.687192,-0.228940,-0.532531
64043,NaN,9.468524,-7.490969,-5.410764,-5.784721,-2.005047,1.915103,-0.611237,-0.881829,-3.879204,-0.803223,0.604248,0.251953,0.093443,-0.076894,-0.053461,0.999798,-0.003056,-0.004409,-0.019395,0.424398,-0.686196,-0.242818,-0.538573
64044,NaN,11.540385,-7.728743,-4.557670,-5.258424,-1.042801,3.785811,-0.419031,-0.820346,-4.148375,-0.830078,0.572021,0.265137,0.113952,-0.079756,-0.044942,0.999774,-0.002095,-0.004101,-0.020740,0.410700,-0.684101,-0.257607,-0.544950
64045,NaN,14.420877,-8.338971,-4.076359,-5.172115,-0.141582,6.536662,-0.308553,-0.821666,-4.345824,-0.852539,0.531250,0.274170,0.142516,-0.086561,-0.040044,0.999754,-0.001543,-0.004108,-0.021727,0.396630,-0.681142,-0.273473,-0.551310
64046,NaN,17.381898,-11.692361,-4.658698,-8.069259,1.502803,10.014141,-0.227638,-0.745201,-4.379628,-0.872559,0.490723,0.281250,0.171374,-0.120747,-0.045809,0.999753,-0.001138,-0.003726,-0.021896,0.382668,-0.677488,-0.289169,-0.557635
64047,NaN,20.935641,-14.125482,-6.131795,-10.807445,2.069314,13.729807,-0.145102,-0.775219,-4.288977,-0.894775,0.449951,0.285889,0.206498,-0.145748,-0.060409,0.999762,-0.000725,-0.003876,-0.021443,0.368971,-0.673540,-0.304841,-0.563272
64048,NaN,22.646091,-15.561693,-6.894204,-12.852221,2.843637,15.270705,0.026323,-0.788200,-4.037227,-0.906250,0.406982,0.297363,0.223528,-0.160140,-0.068078,0.999788,0.000132,-0.003941,-0.020185,0.356413,-0.669413,-0.319899,-0.567909
64049,NaN,21.854900,-12.702121,-6.485555,-11.048910,2.260986,13.719820,-0.238078,-1.014354,-3.650661,-0.920166,0.370605,0.312744,0.216506,-0.131062,-0.063600,0.999820,-0.001190,-0.005071,-0.018252,0.343500,-0.666813,-0.333197,-0.571269
64050,NaN,22.154602,-11.771487,-4.798258,-9.845464,3.883421,13.432379,-0.935488,-1.493212,-3.172157,-0.923584,0.342773,0.328125,0.219987,-0.121430,-0.045774,0.999835,-0.004677,-0.007466,-0.015860,0.328778,-0.667287,-0.343610,-0.573206
64051,NaN,21.324046,-12.173106,-2.212752,-9.200550,6.963306,11.972441,-1.590736,-1.751848,-2.744977,-0.922607,0.312744,0.354248,0.211719,-0.124805,-0.019284,0.999836,-0.007953,-0.008759,-0.013724,0.312458,-0.670221,-0.350931,-0.574475
64052,NaN,19.204735,-11.016962,-0.467247,-7.644934,8.263539,9.256391,-1.918071,-1.917845,-2.446446,-0.923584,0.280518,0.378418,0.190707,-0.112534,-0.001768,0.999833,-0.009590,-0.009589,-0.012232,0.295589,-0.674319,-0.356557,-0.575142
64053,NaN,17.917406,-8.873173,1.363045,-5.006655,8.982628,7.387170,-1.873935,-1.877577,-2.114859,-0.920410,0.248291,0.400391,0.178080,-0.090475,0.016148,0.999856,-0.009369,-0.009387,-0.010574,0.279728,-0.678789,-0.360823,-0.575156
64054,NaN,16.774034,-8.138948,1.072063,-4.677797,8.644204,6.066034,-1.601175,-1.627668,-1.761702,-0.915527,0.230957,0.424072,0.166917,-0.082766,0.012740,0.999896,-0.008006,-0.008138,-0.008808,0.266264,-0.682458,-0.364436,-0.574927
64055,NaN,14.539210,-9.168332,0.799588,-5.815974,9.000639,3.649745,-1.068881,-1.361485,-1.407594,-0.914795,0.207520,0.430908,0.144681,-0.092655,0.009476,0.999938,-0.005344,-0.006807,-0.007038,0.256031,-0.685371,-0.367694,-0.574035
64056,NaN,12.174871,-9.934556,1.223221,-6.324942,9.542847,1.019831,-0.481517,-1.169645,-0.919664,-0.908203,0.200928,0.446045,0.121215,-0.099873,0.013182,0.999969,-0.002408,-0.005848,-0.004598,0.249585,-0.687630,-0.370949,-0.572074
64057,NaN,10.287103,-9.942770,2.303525,-5.768694,10.098323,-1.167816,-0.202666,-1.023802,-0.324134,-0.899658,0.205078,0.454590,0.102590,-0.099570,0.023662,0.999985,-0.001013,-0.005119,-0.001621,0.246045,-0.690408,-0.372418,-0.569301
64058,NaN,8.303487,-8.911549,4.472711,-3.717210,10.747887,-3.565056,-0.374365,-0.900021,0.280114,-0.893066,0.200928,0.461182,0.082957,-0.088915,0.045267,0.999987,-0.001872,-0.004500,0.001401,0.243873,-0.693941,-0.371487,-0.566542
64059,NaN,6.392054,-6.863518,6.428909,-0.932369,10.572568,-5.732678,-0.942506,-0.749366,0.813474,-0.891113,0.202881,0.473877,0.063956,-0.068070,0.064850,0.999974,-0.004712,-0.003747,0.004067,0.241532,-0.698921,-0.366494,-0.564671
64060,NaN,4.957701,-6.051125,6.962752,0.078413,10.136485,-7.182690,-1.458778,-0.536145,1.264967,-0.884766,0.209473,0.480225,0.049769,-0.059686,0.070198,0.999950,-0.007294,-0.002681,0.006325,0.239013,-0.704478,-0.358584,-0.563917
64061,NaN,4.113522,-6.200629,7.268686,0.286600,10.245104,-8.036840,-1.701579,-0.237345,1.636322,-0.872314,0.215820,0.486816,0.041551,-0.061046,0.073258,0.999930,-0.008508,-0.001187,0.008181,0.237261,-0.710251,-0.347850,-0.564138
64062,NaN,3.743110,-6.317015,6.581333,-0.062351,9.717947,-8.144657,-1.604537,0.026061,1.945474,-0.870605,0.230713,0.488770,0.038048,-0.062271,0.066310,0.999920,-0.008022,0.000130,0.009727,0.237079,-0.715406,-0.336356,-0.564671
64063,NaN,3.884948,-6.170700,6.408610,0.161984,9.502061,-7.832603,-1.206960,0.235797,2.216440,-0.864502,0.239258,0.486328,0.039603,-0.060883,0.064409,0.999920,-0.006035,0.001179,0.011082,0.239512,-0.719993,-0.324262,-0.564888
64064,NaN,4.258045,-10.962113,-9.231642,-13.444455,1.698228,-3.497950,-0.477515,-0.246314,2.642200,-0.854248,0.256348,0.499023,0.044139,-0.109265,-0.092002,0.999909,-0.002388,-0.001232,0.013211,0.244837,-0.725477,-0.313666,-0.561562
64065,NaN,12.397937,-7.810660,-15.436920,-13.604156,-3.259027,6.227880,-1.571815,-1.146691,2.773386,-0.843994,0.269287,0.513916,0.125938,-0.077575,-0.153040,0.999857,-0.007859,-0.005733,0.013866,0.245207,-0.735040,-0.300030,-0.556392
64066,NaN,15.369012,-9.803981,9.382779,2.781665,15.779992,2.975762,-2.764646,0.317329,3.582349,-0.831787,0.288574,0.511475,0.155548,-0.093958,0.094900,0.999743,-0.013822,0.001587,0.017910,0.245428,-0.742729,-0.278707,-0.557173
64067,NaN,15.497038,2.234882,-7.231240,0.157922,-4.559513,6.818751,-1.455901,0.244782,4.104199,-0.822021,0.318359,0.517578,0.154387,0.024993,-0.072677,0.999762,-0.007279,0.001224,0.020519,0.251858,-0.749552,-0.258458,-0.554922
64068,NaN,18.050331,17.723096,-10.955169,8.808136,-18.712822,8.411223,0.261691,0.099981,3.623442,-0.808105,0.350586,0.508545,0.177197,0.180605,-0.109406,0.999835,0.001308,0.000500,0.018116,0.262982,-0.753502,-0.245435,-0.550306
64069,NaN,11.304601,18.372106,-2.566187,13.430023,-14.591756,-0.947508,0.036100,0.314634,3.065984,-0.795898,0.372070,0.512695,0.110172,0.185429,-0.025803,0.999881,0.000180,0.001573,0.015329,0.271980,-0.756404,-0.233061,-0.547323
64070,NaN,12.610499,-0.520495,-12.626669,-5.395096,-7.426797,5.499307,-0.828712,-0.291299,3.037499,-0.785645,0.386963,0.520996,0.126354,-0.003810,-0.126065,0.999875,-0.004143,-0.001456,0.015187,0.276787,-0.761771,-0.219671,-0.542990
64071,NaN,17.549765,-2.088526,2.798625,6.364728,3.823815,6.467135,-0.705589,-0.281242,2.942106,-0.771484,0.406250,0.527344,0.175739,-0.018202,0.028301,0.999885,-0.003528,-0.001406,0.014710,0.281770,-0.766776,-0.206532,-0.538521
64072,NaN,23.487128,-2.081625,11.950772,15.296565,9.414977,9.581197,-0.786894,0.074341,2.880988,-0.760986,0.418945,0.527100,0.235179,-0.016960,0.119492,0.999888,-0.003934,0.000372,0.014404,0.286559,-0.770572,-0.193239,-0.535502
64073,NaN,25.140790,1.374511,11.662734,18.248760,5.920067,10.233256,-1.311704,0.200950,2.858036,-0.744629,0.440430,0.535400,0.251287,0.018100,0.116266,0.999876,-0.006558,0.001005,0.014290,0.289426,-0.774603,-0.178128,-0.533379
64074,NaN,22.235183,4.011187,4.454730,13.911868,-1.256562,8.495070,-1.789687,-0.167211,2.880931,-0.729736,0.446777,0.543945,0.221702,0.043706,0.044352,0.999856,-0.008948,-0.000836,0.014404,0.289990,-0.780091,-0.162411,-0.530082
64075,NaN,22.999729,2.634570,-3.673589,7.816823,-5.799371,11.510090,-1.814008,-0.494868,2.757817,-0.712891,0.457520,0.558838,0.229698,0.029183,-0.036423,0.999861,-0.009070,-0.002474,0.013788,0.289983,-0.786081,-0.147450,-0.525591
64076,NaN,19.372958,-2.520921,-6.917104,1.541695,-3.770668,10.507274,-1.307937,-0.661246,2.590091,-0.698486,0.470215,0.565186,0.194265,-0.023145,-0.068373,0.999889,-0.006539,-0.003306,0.012950,0.291132,-0.791535,-0.134773,-0.520145
64077,NaN,14.643713,-7.433958,-6.610251,-2.403042,0.512490,7.718618,-0.446500,-0.600866,2.372945,-0.681641,0.480957,0.571533,0.147504,-0.072740,-0.065497,0.999923,-0.002232,-0.003004,0.011864,0.295301,-0.795189,-0.125069,-0.514616
64078,NaN,11.102975,-6.534288,-5.039084,-2.052082,0.909108,3.837229,0.263992,-0.433057,2.155015,-0.665283,0.504395,0.569092,0.111834,-0.064074,-0.050234,0.999939,0.001320,-0.002165,0.010775,0.301609,-0.797210,-0.117810,-0.509518
64079,NaN,10.091964,-4.814524,-7.739291,-3.463645,-2.158978,3.158821,0.635315,-0.317587,1.897433,-0.656738,0.510986,0.569092,0.101492,-0.046938,-0.077382,0.999949,0.003177,-0.001588,0.009487,0.308954,-0.798054,-0.112297,-0.505022
64080,NaN,9.027730,-3.952751,-6.960591,-2.808043,-2.418272,1.669312,0.861225,-0.193272,1.747126,-0.648926,0.534424,0.571045,0.090684,-0.038437,-0.069685,0.999952,0.004306,-0.000966,0.008735,0.316682,-0.798152,-0.107790,-0.501047
64081,NaN,7.811587,-5.166802,-5.683179,-2.926221,-0.705967,0.720613,0.972901,-0.116436,1.658257,-0.638672,0.545166,0.558105,0.078572,-0.050741,-0.057034,0.999954,0.004864,-0.000582,0.008291,0.324787,-0.797698,-0.103721,-0.497427
64082,NaN,6.848267,-5.961095,-4.000057,-2.468015,0.929231,-0.248350,1.016249,-0.050157,1.530881,-0.628662,0.568848,0.555664,0.068945,-0.058880,-0.040284,0.999958,0.005081,-0.000251,0.007654,0.332611,-0.796930,-0.100217,-0.494196
64083,NaN,6.784287,-6.497733,-3.668623,-2.453479,1.393487,-0.130640,1.019242,-0.018940,1.385666,-0.620361,0.579346,0.553223,0.068294,-0.064317,-0.037009,0.999963,0.005096,-0.000095,0.006928,0.340204,-0.795897,-0.097142,-0.491297
64084,NaN,7.510149,-6.211968,-2.323878,-0.933408,1.752215,0.008087,1.070021,0.047785,1.290268,-0.610107,0.594482,0.542480,0.075494,-0.061508,-0.023587,0.999965,0.005350,0.000239,0.006451,0.347646,-0.794556,-0.094547,-0.488757
64085,NaN,7.766332,-4.748149,-1.575864,0.491698,0.957180,-0.637473,1.098794,0.090229,1.239815,-0.610596,0.607422,0.533691,0.077948,-0.046911,-0.016053,0.999966,0.005494,0.000451,0.006199,0.355200,-0.792938,-0.092023,-0.486430
64086,NaN,7.343770,-4.360641,-1.027947,0.895570,0.991283,-1.314637,0.963878,0.106843,1.228976,-0.604736,0.624512,0.524902,0.073698,-0.043104,-0.010527,0.999969,0.004819,0.000534,0.006145,0.362052,-0.791505,-0.089299,-0.484215
64087,NaN,7.400875,-3.786245,-1.168048,1.155915,0.357470,-1.505592,0.774967,0.066510,1.275807,-0.594238,0.635254,0.526855,0.074244,-0.037344,-0.011851,0.999972,0.003875,0.000333,0.006379,0.368363,-0.790434,-0.085887,-0.481816
64088,NaN,9.663408,-3.174673,-1.811117,2.248018,-1.121637,0.208618,0.725346,0.048921,1.356547,-0.581543,0.641602,0.516113,0.096842,-0.031024,-0.018248,0.999970,0.003627,0.000245,0.006783,0.374511,-0.789536,-0.082177,-0.479188
64089,NaN,12.702955,-1.734410,-2.512455,4.155365,-3.454563,2.081892,0.653401,0.029137,1.489168,-0.575684,0.658691,0.513916,0.127150,-0.016315,-0.025197,0.999967,0.003267,0.000146,0.007446,0.380797,-0.788765,-0.077718,-0.476239
64090,NaN,15.524013,-0.792704,-2.897753,5.972976,-5.234290,3.859885,0.773043,0.037230,1.699964,-0.556885,0.675781,0.507324,0.155294,-0.006495,-0.029033,0.999956,0.003865,0.000186,0.008500,0.387895,-0.787828,-0.072777,-0.472830
64091,NaN,17.324810,1.243127,-3.617447,7.587129,-7.810231,4.194608,0.935925,0.037894,1.969562,-0.544434,0.690918,0.498535,0.173107,0.014306,-0.036143,0.999941,0.004680,0.000189,0.009848,0.396362,-0.786517,-0.067151,-0.468806
64092,NaN,18.686379,1.623166,-4.172620,8.328066,-9.081557,4.931006,1.132621,0.040221,2.247537,-0.525879,0.710205,0.491943,0.186656,0.018566,-0.041663,0.999921,0.005663,0.000201,0.011237,0.406069,-0.784868,-0.060878,-0.464095
64093,NaN,19.358353,1.859274,-4.793714,8.626390,-10.172949,5.128948,1.467924,0.010271,2.535903,-0.515869,0.731689,0.478760,0.193322,0.021396,-0.047797,0.999893,0.007339,0.000051,0.012679,0.417785,-0.782469,-0.054440,-0.458513
64094,NaN,19.554931,2.580453,-4.535136,9.520282,-10.855141,4.368912,1.870038,-0.000505,2.797140,-0.490723,0.757324,0.463379,0.195159,0.028958,-0.045090,0.999858,0.009350,-0.000003,0.013985,0.431457,-0.779212,-0.047773,-0.452096
64095,NaN,19.938366,3.372573,-3.354415,11.189415,-10.956053,3.411799,2.272971,0.032301,3.020712,-0.457031,0.776611,0.448242,0.198835,0.037110,-0.033167,0.999821,0.011364,0.000161,0.015103,0.447151,-0.774742,-0.041345,-0.445109
64096,NaN,19.498483,5.200540,-2.019136,12.932864,-11.216085,1.059871,2.557127,0.095171,3.193176,-0.434570,0.810791,0.422363,0.194109,0.055362,-0.019590,0.999791,0.012785,0.000476,0.015965,0.464091,-0.769308,-0.034441,-0.437719
64097,NaN,17.994202,6.990663,-0.841812,13.851582,-11.003051,-2.041082,2.650447,0.129127,3.286909,-0.407471,0.836670,0.411377,0.178755,0.072955,-0.007580,0.999777,0.013251,0.000646,0.016433,0.481461,-0.763201,-0.027742,-0.430058
64098,NaN,15.919974,7.105687,-0.097143,13.285642,-9.824768,-4.255584,2.633009,0.154844,3.302402,-0.378174,0.866699,0.378906,0.157997,0.073678,-0.000136,0.999777,0.013164,0.000774,0.016511,0.498525,-0.756815,-0.020419,-0.422241
64099,NaN,12.868503,7.665364,0.678373,12.221072,-8.314706,-7.301192,2.489539,0.165847,3.154791,-0.353027,0.885986,0.359375,0.127462,0.078579,0.007648,0.999798,0.012447,0.000829,0.015773,0.514579,-0.750370,-0.013933,-0.414679
64100,NaN,9.586091,9.721500,0.918695,11.215027,-7.673960,-11.414002,1.941142,0.160154,2.818884,-0.323486,0.903076,0.346436,0.094487,0.098458,0.010063,0.999853,0.009705,0.000801,0.014094,0.527644,-0.745127,-0.006964,-0.407834
64101,NaN,6.340069,13.401026,2.591867,11.656857,-6.484641,-16.781273,0.585262,0.382334,2.115740,-0.308838,0.915771,0.344238,0.062029,0.134595,0.026193,0.999938,0.002926,0.001912,0.010578,0.534179,-0.742785,0.000014,-0.403638
64102,NaN,1.772426,4.625596,3.396743,5.211673,-0.038722,-12.797998,0.517083,0.619225,1.850193,-0.291748,0.922119,0.333496,0.017401,0.046330,0.034033,0.999949,0.002585,0.003096,0.009251,0.539808,-0.740113,0.007500,-0.400978
64103,NaN,2.470411,-2.916407,2.691805,2.069180,2.217167,-6.255145,1.584447,0.446551,2.106079,-0.272949,0.937256,0.313965,0.025071,-0.029113,0.026632,0.999911,0.007922,0.002233,0.010530,0.549903,-0.734755,0.012567,-0.396969
64104,NaN,2.002725,-9.527056,-1.525514,-3.481489,1.538558,-0.723627,1.092213,0.116581,1.922484,-0.251709,0.947998,0.305420,0.020932,-0.094987,-0.015786,0.999939,0.005461,0.000583,0.009612,0.557692,-0.731352,0.017785,-0.392158
64105,NaN,2.737107,-9.000134,-11.595349,-8.616445,-7.275505,-0.026731,0.993060,-0.573369,1.323638,-0.243408,0.954346,0.303223,0.028296,-0.089239,-0.116318,0.999962,0.004965,-0.002867,0.006618,0.564019,-0.729528,0.018417,-0.386435
64106,NaN,8.278846,2.271306,-6.889484,2.755954,-10.232063,-6.834373,1.797753,-0.270017,0.387359,-0.237305,0.967285,0.281738,0.082836,0.023491,-0.068574,0.999957,0.008989,-0.001350,0.001937,0.571327,-0.724910,0.015598,-0.384510
64107,NaN,9.931117,8.349637,0.041653,10.538262,-7.393413,-11.433263,1.543002,0.116090,-0.482238,-0.241699,0.971680,0.270752,0.099513,0.083250,0.001002,0.999967,0.007715,0.000580,-0.002411,0.575969,-0.720303,0.010641,-0.386406
64108,NaN,7.999910,6.371233,1.834249,9.405131,-4.303274,-10.802382,0.640679,0.038406,-1.161999,-0.257080,0.980225,0.266357,0.080371,0.063187,0.018530,0.999978,0.003203,0.000192,-0.005810,0.576018,-0.718427,0.005332,-0.389920
64109,NaN,6.050000,4.056385,2.582601,7.468998,-1.984462,-9.844627,0.336327,-0.040758,-1.758830,-0.274170,0.975830,0.266357,0.060848,0.039986,0.025906,0.999960,0.001682,-0.000204,-0.008794,0.573789,-0.717552,-0.002394,-0.394817
64110,NaN,6.024648,2.407090,2.289208,6.525171,-1.622145,-8.356714,0.056670,-0.239068,-2.308890,-0.299805,0.973877,0.264160,0.060492,0.023367,0.022971,0.999933,0.000283,-0.001195,-0.011544,0.569394,-0.717782,-0.011472,-0.400560
64111,NaN,5.614022,0.853046,-0.116915,4.126763,-2.823960,-7.119858,-0.275589,-0.554359,-2.911241,-0.332031,0.969727,0.272461,0.056259,0.007711,-0.001024,0.999889,-0.001378,-0.002772,-0.014556,0.562505,-0.719396,-0.023588,-0.406817
64112,NaN,5.180643,0.366784,-2.522226,2.204614,-4.375888,-6.759264,-0.137755,-0.708067,-3.545610,-0.363770,0.954590,0.279053,0.051949,0.002730,-0.025041,0.999836,-0.000689,-0.003540,-0.017727,0.554624,-0.720685,-0.038045,-0.414195
64113,NaN,5.588400,0.298542,-3.087211,2.062623,-4.883461,-6.242916,0.212347,-0.744788,-4.079915,-0.406494,0.946289,0.272461,0.056044,0.001876,-0.030661,0.999784,0.001062,-0.003724,-0.020398,0.546692,-0.720656,-0.055857,-0.422685
64114,NaN,5.489802,0.417385,-1.934455,2.616434,-3.815403,-6.256547,0.430571,-0.786221,-4.540409,-0.445068,0.939941,0.274658,0.055050,0.002967,-0.019121,0.999732,0.002153,-0.003931,-0.022700,0.538284,-0.719676,-0.075257,-0.432033
64115,NaN,6.680449,1.120610,-0.972047,4.169513,-3.569398,-5.726858,0.460767,-0.885445,-4.960450,-0.498047,0.916260,0.274658,0.067097,0.009566,-0.009401,0.999680,0.002304,-0.004427,-0.024800,0.528716,-0.718185,-0.097039,-0.441874
64116,NaN,8.689454,1.215938,-0.657779,5.423492,-3.792046,-4.015694,0.370042,-1.017408,-5.320191,-0.551025,0.892822,0.276855,0.087209,0.009854,-0.006115,0.999632,0.001850,-0.005086,-0.026598,0.517605,-0.716605,-0.119610,-0.451946
64117,NaN,10.143518,1.327437,-0.763752,6.026147,-4.061083,-2.573853,0.313362,-1.146564,-5.636942,-0.599365,0.863037,0.283447,0.101797,0.010420,-0.007037,0.999585,0.001567,-0.005732,-0.028181,0.505078,-0.714619,-0.144002,-0.462039
64118,NaN,10.857947,2.123240,-0.997503,6.541551,-4.450113,-2.017435,0.283194,-1.259330,-5.870228,-0.652344,0.835205,0.292236,0.109200,0.018046,-0.009262,0.999548,0.001416,-0.006296,-0.029347,0.491397,-0.712260,-0.168741,-0.471954
64119,NaN,11.410213,2.957758,-1.047261,7.071247,-4.591085,-1.511312,0.161603,-1.393361,-6.032152,-0.706787,0.794434,0.303223,0.114994,0.026126,-0.009651,0.999521,0.000808,-0.006966,-0.030156,0.476310,-0.709583,-0.194518,-0.481438
64120,NaN,12.959753,3.060640,-1.464614,7.293415,-4.812063,0.339078,0.068329,-1.562948,-6.128521,-0.757080,0.753906,0.316406,0.130563,0.026620,-0.013619,0.999500,0.000342,-0.007813,-0.030637,0.460046,-0.706864,-0.220046,-0.490184
64121,NaN,13.828916,2.693311,-1.072800,7.129043,-3.846309,1.761287,-0.096487,-1.718370,-6.231317,-0.802734,0.706787,0.331787,0.139124,0.022602,-0.009547,0.999478,-0.000482,-0.008590,-0.031151,0.442277,-0.703892,-0.246251,-0.498284
64122,NaN,14.114764,2.126309,-0.646019,6.487267,-2.597388,2.647603,-0.572472,-1.922069,-6.364329,-0.843994,0.651123,0.360352,0.141782,0.016742,-0.005152,0.999443,-0.002862,-0.009609,-0.031816,0.421799,-0.701715,-0.271332,-0.506025
64123,NaN,15.692522,0.829694,-1.578950,4.918912,-2.096381,5.044911,-0.702985,-2.089544,-6.504315,-0.889160,0.584717,0.384766,0.157237,0.003134,-0.014165,0.999410,-0.003514,-0.010446,-0.032515,0.399764,-0.699018,-0.297198,-0.513065
64124,NaN,17.517289,-0.043980,-2.484959,3.584450,-1.571346,7.438066,-0.417868,-2.179228,-6.620713,-0.921387,0.522461,0.404785,0.175286,-0.006291,-0.022931,0.999391,-0.002089,-0.010894,-0.033097,0.377843,-0.695176,-0.323435,-0.518994
64125,NaN,19.663204,-0.362359,-3.035168,2.744049,-0.764037,9.877685,0.120590,-2.269968,-6.706838,-0.945068,0.458252,0.435547,0.196691,-0.010202,-0.028124,0.999373,0.000603,-0.011347,-0.033527,0.356915,-0.689292,-0.351693,-0.523259
64126,NaN,20.018554,-0.784592,-2.801581,1.655581,0.738962,10.330709,0.604625,-2.385046,-6.671746,-0.964355,0.391846,0.455811,0.200092,-0.014443,-0.025666,0.999368,0.003022,-0.011923,-0.033352,0.337129,-0.682282,-0.380297,-0.525556
64127,NaN,19.460625,-1.092657,-1.883926,0.800506,2.628312,9.571789,0.762460,-2.549233,-6.551261,-0.977051,0.323242,0.478271,0.194330,-0.017230,-0.016418,0.999375,0.003812,-0.012744,-0.032749,0.317412,-0.674524,-0.409206,-0.526134
64128,NaN,20.091499,-2.704471,-1.352467,-1.216249,4.972143,9.845701,0.377968,-2.669629,-6.322797,-0.985596,0.256592,0.507080,0.200084,-0.033357,-0.010909,0.999409,0.001889,-0.013346,-0.031608,0.296410,-0.667608,-0.435515,-0.526086
64129,NaN,22.730664,-5.119460,-2.563132,-4.690013,6.747329,12.136040,-0.057891,-2.661350,-6.026154,-0.979248,0.196533,0.535645,0.225941,-0.058024,-0.022602,0.999458,-0.000289,-0.013304,-0.030125,0.274368,-0.660912,-0.459614,-0.525996
64130,NaN,23.478235,-7.865619,-4.262061,-8.843318,7.722161,12.396133,-0.365705,-2.457064,-5.696136,-0.970947,0.140869,0.562256,0.232913,-0.085382,-0.039599,0.999517,-0.001828,-0.012283,-0.028476,0.252405,-0.654462,-0.480622,-0.526282
64131,NaN,22.101658,-11.117740,-4.535084,-12.744556,9.149719,9.843359,-0.089144,-2.171373,-5.261510,-0.960449,0.084961,0.584717,0.218465,-0.116967,-0.042918,0.999595,-0.000446,-0.010855,-0.026304,0.232918,-0.647119,-0.500469,-0.525849
64132,NaN,21.392151,-13.535224,-2.917688,-14.892915,11.710031,7.225213,0.375050,-1.951873,-4.780397,-0.952637,0.041992,0.604736,0.210879,-0.140365,-0.027369,0.999665,0.001875,-0.009758,-0.023899,0.216604,-0.639630,-0.519027,-0.523991
64133,NaN,19.866322,-14.090750,0.668749,-14.314234,14.511922,3.531850,0.789340,-1.697905,-4.294681,-0.934326,0.009766,0.615967,0.195513,-0.145158,0.007789,0.999726,0.003946,-0.008489,-0.021471,0.203399,-0.631732,-0.536702,-0.521051
64134,NaN,17.892885,-14.112242,2.593456,-13.782119,15.313979,0.262376,0.699754,-1.382083,-3.662215,-0.931152,-0.018066,0.627197,0.176121,-0.144457,0.026657,0.999802,0.003499,-0.006910,-0.018310,0.192322,-0.624663,-0.551393,-0.518434
64135,NaN,14.447202,-17.348726,0.942362,-17.232821,13.324028,-3.808299,0.430665,-1.094041,-2.820152,-0.921631,-0.048096,0.636230,0.141954,-0.175522,0.009828,0.999883,0.002153,-0.005470,-0.014100,0.183346,-0.619156,-0.562346,-0.516524
64136,NaN,12.433989,-19.927498,1.712334,-19.043450,13.613460,-7.234801,0.462363,-0.820958,-1.827027,-0.910400,-0.058838,0.642822,0.122442,-0.200439,0.017166,0.999947,0.002312,-0.004105,-0.009135,0.177743,-0.615676,-0.569921,-0.514335
64137,NaN,12.546889,-19.502337,3.781845,-17.902284,15.122895,-8.118443,0.405238,-0.501766,-0.808200,-0.903809,-0.061035,0.642822,0.124584,-0.195605,0.037736,0.999987,0.002026,-0.002509,-0.004041,0.175543,-0.614334,-0.573792,-0.512388
64138,NaN,13.446502,-19.094431,3.840673,-17.733791,15.472982,-7.311564,0.389179,-0.094840,0.145484,-0.910400,-0.058838,0.642822,0.134586,-0.190921,0.038099,0.999998,0.001946,-0.000474,0.000727,0.176841,-0.614645,-0.574426,-0.510856
64139,NaN,12.757185,-18.286964,2.580529,-17.430929,13.839880,-6.908640,0.492873,0.292917,0.932723,-0.910889,-0.043945,0.640381,0.128460,-0.182334,0.025168,0.999985,0.002464,0.001465,0.004664,0.181681,-0.616276,-0.572321,-0.509554
64140,NaN,12.319391,-16.822122,-1.003978,-17.521370,10.259078,-4.964903,0.648477,0.509767,1.541182,-0.915771,-0.026611,0.635742,0.124458,-0.167231,-0.010899,0.999962,0.003242,0.002549,0.007706,0.189060,-0.618768,-0.568741,-0.507854
64141,NaN,12.620114,-9.768434,-10.807184,-15.171518,0.416492,2.067043,0.413922,0.188347,1.786919,-0.918701,-0.003174,0.633301,0.126964,-0.096328,-0.108391,0.999958,0.002070,0.000942,0.008934,0.195540,-0.623193,-0.563713,-0.505591
64142,NaN,12.634061,-2.593082,-10.645935,-8.358921,-1.631282,4.579261,1.622219,0.316029,2.318809,-0.915771,0.033447,0.637207,0.126455,-0.023599,-0.106857,0.999899,0.008111,0.001580,0.011594,0.207330,-0.627274,-0.560224,-0.499690
64143,NaN,14.694900,21.726701,-3.121831,16.967526,-1.464701,10.377591,2.770397,0.687893,1.820016,-0.916992,0.072021,0.623779,0.144860,0.219001,-0.028693,0.999857,0.013851,0.003439,0.009100,0.222589,-0.627987,-0.560246,-0.492149
64144,NaN,18.208755,18.476074,9.175385,18.508617,11.393464,7.061016,1.996195,1.052815,1.880156,-0.919922,0.091309,0.612549,0.180832,0.185543,0.092649,0.999892,0.009981,0.005264,0.009400,0.236412,-0.628368,-0.558024,-0.487722
64145,NaN,26.895395,-2.620411,10.139303,-1.246069,21.705581,9.168760,0.202511,0.979469,2.823813,-0.929443,0.116943,0.605713,0.269781,-0.022501,0.100049,0.999888,0.001013,0.004897,0.014119,0.246783,-0.633692,-0.548133,-0.486912
64146,NaN,28.343344,-7.664934,-3.896022,-10.224113,11.599777,15.448129,-1.160531,0.536505,3.479099,-0.919434,0.140625,0.603271,0.284607,-0.071932,-0.039296,0.999828,-0.005802,0.002682,0.017395,0.253007,-0.643238,-0.533530,-0.487420
64147,NaN,27.977366,-19.054456,-7.696803,-21.223505,11.569585,15.098977,-0.585901,0.239164,4.265336,-0.920898,0.185547,0.596191,0.283663,-0.184747,-0.076759,0.999768,-0.002929,0.001196,0.021325,0.262290,-0.654765,-0.517594,-0.484338
64148,NaN,12.427745,2.360846,6.531312,4.669684,9.902275,-0.712900,1.329190,1.069152,3.812228,-0.916016,0.228516,0.582764,0.124150,0.025544,0.064815,0.999782,0.006645,0.005345,0.019060,0.278586,-0.660150,-0.506819,-0.479298
64149,NaN,-4.919423,0.289505,-4.016262,-1.340239,-5.476355,-12.749767,0.133820,0.049316,3.045153,-0.906006,0.251953,0.591064,-0.049241,0.002172,-0.040149,0.999884,0.000669,0.000247,0.015225,0.286641,-0.667640,-0.496528,-0.474925
64150,NaN,7.917715,-15.323548,-4.055041,-15.195696,4.871764,-2.113330,0.643914,0.136629,2.818939,-0.904785,0.277832,0.579834,0.081297,-0.151968,-0.041096,0.999895,0.003219,0.000683,0.014094,0.295797,-0.673316,-0.488399,-0.469697
64151,NaN,8.769485,-3.885983,-3.323141,-3.943763,1.759877,-0.626257,1.749353,0.308341,2.337152,-0.890869,0.314209,0.575195,0.088087,-0.037539,-0.033699,0.999892,0.008746,0.001542,0.011685,0.308109,-0.675824,-0.483662,-0.463037
64152,NaN,8.990454,-1.715521,-0.503459,-0.761157,3.427885,-1.345579,1.459811,-0.003220,1.999919,-0.887207,0.333496,0.572754,0.090070,-0.016218,-0.005154,0.999923,0.007299,-0.000016,0.009999,0.317644,-0.678362,-0.480251,-0.456384
64153,NaN,11.104233,-6.405080,2.875567,-3.690552,8.636831,-0.626842,1.209573,-0.160865,1.688814,-0.883789,0.354980,0.574707,0.111556,-0.063283,0.028461,0.999946,0.006048,-0.000804,0.008444,0.325415,-0.681001,-0.477039,-0.450307
64154,NaN,9.418631,-2.969222,-0.555003,-1.589464,3.848595,-0.840776,0.965849,-0.292947,1.361326,-0.877686,0.369873,0.563721,0.094394,-0.029023,-0.005553,0.999964,0.004829,-0.001465,0.006807,0.331062,-0.683307,-0.475037,-0.444780
64155,NaN,9.730865,-2.613827,-2.345667,-1.593610,2.248611,0.158605,0.752254,-0.395794,1.102972,-0.865479,0.384766,0.567871,0.097497,-0.025513,-0.023361,0.999976,0.003761,-0.001979,0.005515,0.335375,-0.685710,-0.473096,-0.439894
64156,NaN,10.155603,-3.006773,-1.689503,-1.588447,3.097188,0.331999,0.665566,-0.439230,0.872796,-0.863525,0.393555,0.567627,0.101723,-0.029568,-0.016771,0.999983,0.003328,-0.002196,0.004364,0.338536,-0.687608,-0.472294,-0.435346
64157,NaN,10.472559,-2.127901,-1.458166,-0.531775,3.127171,0.495854,0.634907,-0.478883,0.687513,-0.853027,0.399902,0.567627,0.104832,-0.020873,-0.014397,0.999986,0.003175,-0.002394,0.003438,0.341323,-0.689346,-0.471630,-0.431121
64158,NaN,10.602224,-1.778464,-3.684892,-0.693054,1.125125,1.474542,0.632891,-0.512034,0.533607,-0.853516,0.412842,0.565430,0.106163,-0.017385,-0.036633,0.999988,0.003164,-0.002560,0.002668,0.343449,-0.690617,-0.472021,-0.426952
64159,NaN,10.428990,-2.189981,-4.753743,-1.302561,0.267034,1.779953,0.782835,-0.468431,0.377342,-0.845215,0.425537,0.569580,0.104442,-0.021517,-0.047378,0.999988,0.003914,-0.002342,0.001887,0.346095,-0.691301,-0.472711,-0.422926
64160,NaN,10.204928,-1.542609,-3.677089,-0.379600,0.944923,1.096199,0.881574,-0.449846,0.250432,-0.849609,0.423340,0.571533,0.102151,-0.015137,-0.036608,0.999987,0.004408,-0.002249,0.001252,0.348610,-0.691306,-0.474479,-0.418852
64161,NaN,10.562901,-0.986597,-3.696931,0.283192,0.900356,1.382150,0.876893,-0.435334,0.147650,-0.841064,0.429932,0.571533,0.105716,-0.009626,-0.036782,0.999988,0.004384,-0.002177,0.000738,0.351159,-0.691172,-0.476092,-0.415096
64162,NaN,10.563136,-1.046093,-4.350269,0.125674,0.366493,1.652416,0.845362,-0.396139,0.061946,-0.839355,0.438477,0.567139,0.105721,-0.010245,-0.043337,0.999989,0.004227,-0.001981,0.000310,0.353268,-0.690647,-0.478320,-0.411605
64163,NaN,10.263962,-0.580058,-4.667221,0.490217,-0.144461,1.465917,0.825728,-0.367540,-0.018871,-0.835205,0.447021,0.569092,0.102725,-0.005618,-0.046507,0.999990,0.004129,-0.001838,-0.000094,0.355442,-0.690025,-0.480280,-0.408483
64164,NaN,10.019709,-0.597637,-4.461090,0.510055,-0.025120,1.159647,0.826650,-0.329395,-0.087601,-0.839600,0.447021,0.562744,0.100268,-0.005836,-0.044470,0.999990,0.004133,-0.001647,-0.000438,0.357327,-0.689008,-0.482848,-0.405516
64165,NaN,9.764592,-0.436168,-4.386580,0.666375,-0.085802,0.879742,0.817869,-0.303329,-0.130731,-0.835449,0.451172,0.569092,0.097710,-0.004247,-0.043735,0.999990,0.004089,-0.001517,-0.000654,0.359383,-0.687963,-0.485064,-0.402819
64166,NaN,9.537018,-0.271170,-4.176312,0.849740,-0.008771,0.567466,0.825838,-0.296719,-0.144744,-0.839844,0.453369,0.560547,0.095430,-0.002609,-0.041632,0.999990,0.004129,-0.001484,-0.000724,0.361216,-0.686716,-0.487750,-0.400055
64167,NaN,9.304920,-0.283775,-3.877023,0.880309,0.186581,0.231391,0.803152,-0.300322,-0.140792,-0.833740,0.461914,0.566895,0.093105,-0.002748,-0.038642,0.999991,0.004016,-0.001502,-0.000704,0.363191,-0.685630,-0.489969,-0.397410
64168,NaN,8.880093,-0.428354,-3.834781,0.687946,0.119504,-0.155698,0.783862,-0.305346,-0.115196,-0.833496,0.457764,0.558350,0.088857,-0.004185,-0.038229,0.999991,0.003919,-0.001527,-0.000576,0.364905,-0.684522,-0.492468,-0.394651
64169,NaN,8.432549,-0.398577,-4.016274,0.624839,-0.209199,-0.487297,0.768902,-0.294290,-0.072652,-0.831543,0.464111,0.556152,0.084383,-0.003862,-0.040054,0.999991,0.003844,-0.001471,-0.000363,0.366898,-0.683618,-0.494376,-0.391975
64170,NaN,8.277598,-0.260904,-4.347954,0.702239,-0.580846,-0.503512,0.758993,-0.283262,-0.006846,-0.831787,0.468506,0.556152,0.082837,-0.002447,-0.043372,0.999992,0.003795,-0.001416,-0.000034,0.368783,-0.682756,-0.496398,-0.389143
64171,NaN,8.248224,-0.087667,-4.725534,0.845992,-0.960740,-0.392887,0.743419,-0.251187,0.069539,-0.823242,0.472656,0.560303,0.082542,-0.000673,-0.047154,0.999992,0.003717,-0.001256,0.000348,0.371057,-0.682137,-0.497694,-0.386403
64172,NaN,8.046890,0.294743,-4.935027,1.188654,-1.302218,-0.534492,0.696240,-0.217888,0.156639,-0.823486,0.477051,0.558105,0.080520,0.003182,-0.049252,0.999993,0.003481,-0.001089,0.000783,0.373197,-0.681649,-0.498901,-0.383637
64173,NaN,8.036848,0.041682,-5.260815,0.948609,-1.537429,-0.378439,0.593918,-0.190962,0.254221,-0.819092,0.477051,0.551758,0.080418,0.000675,-0.052530,0.999994,0.002970,-0.000955,0.001271,0.375448,-0.681624,-0.499175,-0.381119
64174,NaN,8.104914,-0.291229,-5.327933,0.687958,-1.494761,-0.249558,0.557967,-0.135949,0.341260,-0.823975,0.494141,0.549316,0.081090,-0.002625,-0.053232,0.999994,0.002790,-0.000680,0.001706,0.377667,-0.681681,-0.499323,-0.378623
64175,NaN,7.961345,-0.573101,-5.398020,0.438954,-1.562462,-0.314489,0.555398,-0.093370,0.417136,-0.819580,0.494141,0.549316,0.079650,-0.005415,-0.053958,0.999994,0.002777,-0.000467,0.002086,0.380322,-0.681927,-0.498793,-0.376214
64176,NaN,7.861216,-0.890999,-5.434077,0.171628,-1.576350,-0.346588,0.603494,-0.058904,0.483277,-0.813477,0.502686,0.544922,0.078649,-0.008556,-0.054344,0.999992,0.003017,-0.000295,0.002416,0.383147,-0.682088,-0.498383,-0.373588
64177,NaN,7.848301,-0.879813,-5.117731,0.295488,-1.320046,-0.499753,0.639361,-0.032184,0.557338,-0.807373,0.513428,0.542725,0.078515,-0.008416,-0.051192,0.999991,0.003197,-0.000161,0.002787,0.386483,-0.682383,-0.497415,-0.370894
64178,NaN,7.892927,-0.630071,-4.759843,0.666347,-1.050325,-0.658253,0.613329,-0.004993,0.629434,-0.807617,0.519775,0.536133,0.078949,-0.005906,-0.047615,0.999990,0.003067,-0.000025,0.003147,0.389735,-0.682764,-0.496404,-0.368134
64179,NaN,7.837612,-0.808320,-4.506190,0.591628,-0.830692,-0.793449,0.571498,-0.000815,0.706534,-0.801514,0.530518,0.538086,0.078404,-0.007677,-0.045084,0.999990,0.002857,-0.000004,0.003533,0.393171,-0.683470,-0.494735,-0.365407
64180,NaN,7.985117,-0.934034,-4.089722,0.633343,-0.391020,-0.823487,0.532322,-0.026028,0.779321,-0.802002,0.541260,0.529297,0.079892,-0.008920,-0.040911,0.999989,0.002662,-0.000130,0.003897,0.396353,-0.684390,-0.493084,-0.362467
64181,NaN,8.191456,-1.219353,-3.621238,0.547595,0.147580,-0.791720,0.486845,-0.046416,0.842467,-0.793457,0.545654,0.522949,0.081973,-0.011760,-0.036222,0.999988,0.002434,-0.000232,0.004212,0.399612,-0.685642,-0.490877,-0.359507
64182,NaN,8.453710,-1.237674,-3.102264,0.739182,0.705879,-0.780759,0.494834,-0.069701,0.902331,-0.785400,0.558350,0.529297,0.084602,-0.011918,-0.031023,0.999987,0.002474,-0.000349,0.004512,0.402762,-0.686983,-0.488800,-0.356247
64183,NaN,8.767226,-0.902661,-2.756042,1.275965,1.055073,-0.727935,0.504633,-0.095059,0.970651,-0.776855,0.562744,0.524902,0.087728,-0.008531,-0.027541,0.999985,0.002523,-0.000475,0.004853,0.406171,-0.688552,-0.486266,-0.352800
64184,NaN,9.000434,-0.646718,-2.284025,1.729157,1.510116,-0.792073,0.427900,-0.143751,1.045703,-0.777344,0.575684,0.520508,0.090053,-0.005948,-0.022789,0.999984,0.002139,-0.000719,0.005228,0.409141,-0.690466,-0.483698,-0.349137
64185,NaN,9.593110,-0.811000,-2.040064,1.876340,1.978469,-0.356936,0.323511,-0.187449,1.118203,-0.764893,0.588379,0.526611,0.095993,-0.007540,-0.020323,0.999983,0.001618,-0.000937,0.005591,0.411938,-0.692860,-0.480509,-0.345490
64186,NaN,10.171117,-0.629040,-1.798933,2.361060,2.377086,-0.022029,0.234815,-0.214007,1.186416,-0.754395,0.596924,0.526611,0.101765,-0.005666,-0.017887,0.999981,0.001174,-0.001070,0.005932,0.414288,-0.695582,-0.477229,-0.341735
64187,NaN,10.724784,-0.575129,-1.974913,2.703527,2.410680,0.489253,0.162936,-0.243238,1.251819,-0.750244,0.603271,0.522217,0.107305,-0.005064,-0.019623,0.999979,0.000815,-0.001216,0.006259,0.416602,-0.698645,-0.473398,-0.337983
64188,NaN,11.319497,-0.551235,-2.576745,3.014727,2.088645,1.215524,0.119890,-0.269454,1.319650,-0.737793,0.618408,0.526367,0.113263,-0.004750,-0.025618,0.999977,0.000599,-0.001347,0.006598,0.418613,-0.701957,-0.469534,-0.334003
64189,NaN,11.929614,-0.287720,-3.338954,3.571371,1.571516,1.948273,0.151316,-0.290431,1.389332,-0.725342,0.629150,0.526367,0.119360,-0.002023,-0.033218,0.999975,0.000757,-0.001452,0.006947,0.420977,-0.705352,-0.465282,-0.329802
64190,NaN,11.993752,0.075865,-4.033646,4.056399,0.890870,2.140349,0.245582,-0.300333,1.475632,-0.717041,0.637695,0.526123,0.119988,0.001693,-0.040155,0.999971,0.001228,-0.001502,0.007378,0.423575,-0.708742,-0.461093,-0.325058
64191,NaN,11.893579,0.478576,-4.318589,4.562988,0.498582,1.988307,0.307869,-0.335576,1.587887,-0.706787,0.654785,0.530273,0.118965,0.005796,-0.042978,0.999966,0.001539,-0.001678,0.007939,0.426667,-0.712224,-0.456474,-0.319881
64192,NaN,12.228663,0.940899,-4.492197,5.305536,0.359305,2.117241,0.305800,-0.324918,1.715174,-0.689941,0.663330,0.521729,0.122272,0.010526,-0.044708,0.999961,0.001529,-0.001625,0.008576,0.429751,-0.715977,-0.451522,-0.314356
64193,NaN,12.227228,0.800265,-4.523843,5.389691,0.340635,2.080209,0.296915,-0.320761,1.846623,-0.675537,0.682373,0.532227,0.122263,0.009199,-0.045029,0.999955,0.001485,-0.001604,0.009233,0.433180,-0.719897,-0.445909,-0.308657
64194,NaN,12.333521,0.912677,-4.878519,5.746155,0.016774,2.175811,0.362741,-0.331925,1.999642,-0.662842,0.691162,0.523682,0.123316,0.010448,-0.048562,0.999947,0.001814,-0.001660,0.009998,0.436818,-0.724043,-0.439958,-0.302307
64195,NaN,13.029197,1.375243,-4.929662,6.715148,0.091602,2.469141,0.473450,-0.349002,2.154013,-0.642090,0.712402,0.521240,0.130219,0.015271,-0.049034,0.999938,0.002367,-0.001745,0.010770,0.441196,-0.728110,-0.433530,-0.295386
64196,NaN,13.953006,2.074465,-5.077355,8.034249,0.103338,2.844269,0.616599,-0.360495,2.320360,-0.623291,0.729492,0.516846,0.139367,0.022518,-0.050455,0.999926,0.003083,-0.001802,0.011602,0.446064,-0.732257,-0.426748,-0.287598
64197,NaN,15.468490,3.448113,-5.131170,10.279777,0.239046,3.292478,0.810834,-0.398119,2.495057,-0.604736,0.748779,0.510254,0.154339,0.036615,-0.050859,0.999912,0.004054,-0.001991,0.012475,0.451930,-0.736117,-0.419627,-0.278936
64198,NaN,17.295746,3.768005,-4.412001,11.853104,1.432954,3.979848,1.081457,-0.453782,2.646178,-0.583984,0.770264,0.503418,0.172536,0.040201,-0.043515,0.999895,0.005407,-0.002269,0.013230,0.458611,-0.739780,-0.412368,-0.268990
64199,NaN,18.520543,3.075545,-3.439713,12.325568,2.872332,4.473784,1.491524,-0.440273,2.747935,-0.558594,0.787354,0.499023,0.184832,0.033550,-0.033747,0.999875,0.007457,-0.002201,0.013739,0.467050,-0.742296,-0.405283,-0.258082
64200,NaN,19.555125,4.961114,-1.492909,14.904108,4.518514,3.097150,1.980876,-0.311848,2.783452,-0.537842,0.812988,0.468750,0.194857,0.052469,-0.014115,0.999853,0.009904,-0.001559,0.013917,0.477302,-0.743603,-0.398167,-0.246375
64201,NaN,20.540354,4.399614,-1.032221,15.386988,5.380049,3.476080,2.520435,-0.202793,2.765756,-0.510742,0.836670,0.451416,0.204778,0.046954,-0.009535,0.999824,0.012601,-0.001014,0.013828,0.489787,-0.742900,-0.391661,-0.234113
64202,NaN,22.435536,2.398458,0.659638,15.227014,7.975158,4.817648,3.149499,-0.118313,2.673848,-0.488037,0.864502,0.423340,0.224005,0.026872,0.007137,0.999786,0.015746,-0.000592,0.013368,0.504288,-0.740402,-0.385612,-0.220911
64203,NaN,23.311567,2.815560,0.126205,16.522002,7.669135,5.004519,3.967121,0.054500,2.571454,-0.462891,0.890381,0.380127,0.232729,0.031118,0.001796,0.999721,0.019834,0.000272,0.012856,0.521986,-0.734676,-0.380652,-0.207091
64204,NaN,20.508193,5.968657,-3.040654,17.907527,3.267899,1.765561,4.165864,0.092347,2.563178,-0.435791,0.916016,0.341309,0.204276,0.062925,-0.029213,0.999701,0.020827,0.000462,0.012815,0.539970,-0.728365,-0.375185,-0.192754
64205,NaN,18.067398,4.610215,-8.820074,16.441400,-2.689411,2.347724,2.867027,-0.325101,2.742944,-0.408203,0.931152,0.328369,0.180150,0.049830,-0.087211,0.999802,0.014334,-0.001625,0.013714,0.552547,-0.725419,-0.369387,-0.178919
64206,NaN,19.256541,-0.439408,-12.096199,14.526218,-4.703240,7.044039,1.220891,-0.641862,2.961596,-0.380859,0.946045,0.311279,0.192982,-0.000802,-0.120355,0.999867,0.006104,-0.003209,0.014807,0.558375,-0.727991,-0.361450,-0.166133
64207,NaN,17.988361,-3.178721,-8.489505,11.635420,-1.389770,6.570596,1.019817,-0.678492,2.754663,-0.353271,0.956787,0.306885,0.180582,-0.028872,-0.084435,0.999886,0.005099,-0.003392,0.013773,0.563210,-0.730112,-0.354840,-0.154337
64208,NaN,15.791371,-3.337682,-6.980269,10.176214,-0.674378,4.512127,1.936782,-0.681276,2.235188,-0.329834,0.969482,0.279053,0.158506,-0.030933,-0.069571,0.999885,0.009684,-0.003406,0.011176,0.570740,-0.729063,-0.350040,-0.142106
64209,NaN,11.792639,-2.237192,-3.374757,7.680887,1.180158,-0.062657,3.336201,-0.400916,1.700805,-0.317139,0.980469,0.240234,0.118176,-0.020803,-0.033867,0.999823,0.016680,-0.002004,0.008504,0.583413,-0.722116,-0.348212,-0.130102
64210,NaN,6.226924,-3.987956,-2.525701,2.548466,0.073546,-2.426731,4.138069,-0.349576,1.392647,-0.298096,0.986816,0.206055,0.062587,-0.038912,-0.025960,0.999760,0.020689,-0.001748,0.006963,0.598519,-0.712522,-0.346799,-0.117547
64211,NaN,8.284827,-7.800359,-5.737630,2.681350,-2.208865,2.447890,4.190918,-0.813917,0.701780,-0.291748,0.995605,0.163086,0.083355,-0.076492,-0.058651,0.999766,0.020953,-0.004069,0.003509,0.612395,-0.700900,-0.350157,-0.105364
64212,NaN,10.866993,-9.402924,-8.103019,4.660109,-3.715249,5.569603,5.456969,-1.433945,0.275117,-0.285400,1.004150,0.105225,0.109386,-0.091636,-0.082770,0.999601,0.027281,-0.007169,0.001375,0.628917,-0.685148,-0.356304,-0.089907
64213,NaN,8.596669,-1.221584,-2.589357,6.413852,0.803567,-3.463276,5.489612,-1.129786,-0.157058,-0.291748,1.008545,0.051514,0.086103,-0.011576,-0.025731,0.999607,0.027444,-0.005648,-0.000785,0.645408,-0.667242,-0.363793,-0.076751
64214,NaN,4.222926,5.781078,-2.669750,7.406627,-0.073411,-11.685311,5.016140,-1.299261,-0.682568,-0.300293,1.006592,0.008545,0.042594,0.058306,-0.024963,0.999659,0.025078,-0.006496,-0.003412,0.659306,-0.650083,-0.372049,-0.065475
64215,NaN,2.125067,9.713802,-0.222635,7.084721,2.328201,-16.392019,4.865980,-1.344405,-1.142592,-0.308350,0.996094,-0.038330,0.021809,0.097028,0.000281,0.999665,0.024327,-0.006721,-0.005712,0.671972,-0.631522,-0.382777,-0.055812
64216,NaN,1.206154,11.587991,3.779689,5.510172,6.385947,-18.692462,4.597116,-1.164462,-1.604973,-0.327148,0.983398,-0.076904,0.012755,0.114869,0.040518,0.999687,0.022983,-0.005822,-0.008024,0.683610,-0.613131,-0.392905,-0.048717
64217,NaN,1.241114,11.612048,7.398506,3.542572,10.018881,-18.653835,3.621335,-1.190202,-1.871532,-0.348145,0.972656,-0.111084,0.013040,0.114635,0.076146,0.999775,0.018105,-0.005951,-0.009357,0.691675,-0.596577,-0.404617,-0.044341
64218,NaN,1.627441,9.551127,8.310647,1.969982,10.646828,-16.572386,2.390776,-1.394711,-1.984092,-0.367432,0.966309,-0.117676,0.016629,0.094344,0.084354,0.999855,0.011953,-0.006973,-0.009920,0.695456,-0.584515,-0.415815,-0.042204
64219,NaN,3.199170,6.348830,8.652937,0.851358,10.727294,-12.912832,1.506979,-1.637128,-2.110795,-0.388428,0.953613,-0.124023,0.031942,0.062495,0.087264,0.999882,0.007535,-0.008185,-0.010554,0.695856,-0.574421,-0.429059,-0.041634
64220,NaN,4.290254,4.043920,8.103665,0.379991,10.001277,-10.318207,0.768531,-1.830889,-2.372849,-0.413818,0.940674,-0.119629,0.042631,0.039620,0.081581,0.999880,0.003843,-0.009154,-0.011864,0.693570,-0.566967,-0.442337,-0.042983
64221,NaN,4.853286,1.542220,6.612924,-0.052372,8.133573,-7.941274,0.417318,-1.945789,-2.767226,-0.443115,0.921387,-0.117432,0.048092,0.014616,0.066630,0.999855,0.002086,-0.009728,-0.013835,0.689705,-0.558912,-0.458029,-0.046189
64222,NaN,5.032761,0.297166,5.491517,-0.224549,6.816535,-6.803728,0.400771,-1.944531,-3.166107,-0.477295,0.910889,-0.104492,0.049828,0.002069,0.055406,0.999825,0.002004,-0.009722,-0.015830,0.685534,-0.550627,-0.473579,-0.050753
64223,NaN,4.518344,0.787420,4.719904,0.020353,6.122511,-7.399437,0.368089,-1.953492,-3.515620,-0.508789,0.889404,-0.100098,0.044848,0.006996,0.047652,0.999796,0.001840,-0.009767,-0.017577,0.680853,-0.540532,-0.490975,-0.056636
64224,NaN,4.524850,1.824600,3.890976,0.974227,5.877806,-7.957426,0.157556,-2.028841,-3.815627,-0.549072,0.868164,-0.091309,0.045187,0.017353,0.039382,0.999766,0.000788,-0.010143,-0.019077,0.675074,-0.531073,-0.508107,-0.063747
64225,NaN,5.082175,1.953267,3.299737,1.488452,5.720075,-7.447770,-0.093680,-2.143344,-4.078525,-0.584717,0.844482,-0.076172,0.050849,0.018511,0.033533,0.999735,-0.000468,-0.010716,-0.020391,0.667868,-0.520613,-0.526978,-0.072176
64226,NaN,5.859886,2.167900,3.434288,1.668038,6.266253,-6.849953,-0.265947,-2.220458,-4.337427,-0.622559,0.814453,-0.061035,0.058665,0.020453,0.034966,0.999702,-0.001330,-0.011101,-0.021685,0.659577,-0.510716,-0.545413,-0.081564
64227,NaN,6.609186,2.468888,3.908075,1.589334,7.087972,-6.308996,-0.410416,-2.224409,-4.622643,-0.668945,0.786621,-0.037109,0.066200,0.023241,0.039768,0.999669,-0.002052,-0.011121,-0.023111,0.650325,-0.499173,-0.565124,-0.092400
64228,NaN,7.192987,2.712380,4.061285,1.570448,7.550720,-5.800256,-0.583324,-2.156252,-4.904529,-0.699951,0.752441,-0.021729,0.072125,0.025476,0.041314,0.999637,-0.002916,-0.010780,-0.024520,0.640293,-0.488023,-0.583884,-0.104585
64229,NaN,7.745157,2.574406,3.332409,1.762257,7.125596,-4.931467,-0.663677,-2.069537,-5.173358,-0.743896,0.713867,0.000000,0.077735,0.023848,0.034046,0.999606,-0.003318,-0.010346,-0.025863,0.629646,-0.474828,-0.603412,-0.118231
64230,NaN,8.178981,1.914883,2.163886,1.775584,6.024154,-3.830724,-0.429658,-1.955649,-5.413524,-0.783447,0.668945,0.019775,0.082052,0.016978,0.022402,0.999584,-0.002148,-0.009777,-0.027064,0.619284,-0.460802,-0.621897,-0.131881
64231,NaN,8.749933,1.086938,1.527061,1.233006,5.217450,-2.649593,0.017386,-1.855392,-5.646238,-0.816162,0.621826,0.037354,0.087613,0.008395,0.016084,0.999558,0.000087,-0.009276,-0.028227,0.609524,-0.443031,-0.641173,-0.145264
64232,NaN,9.950137,0.149406,1.291338,0.337583,4.805072,-1.011516,0.492920,-1.778852,-5.880040,-0.861572,0.568359,0.046631,0.099367,-0.001462,0.013796,0.999525,0.002464,-0.008893,-0.029396,0.600375,-0.423756,-0.659654,-0.157598
64233,NaN,11.622596,-0.459833,1.292984,-0.627856,4.776705,0.850787,0.958171,-1.693103,-6.137650,-0.896484,0.514648,0.057861,0.115896,-0.008224,0.013878,0.999482,0.004790,-0.008464,-0.030683,0.591618,-0.400515,-0.678852,-0.169515
64234,NaN,13.012220,-1.160769,1.041084,-1.664608,4.260609,2.465835,1.477982,-1.583112,-6.383984,-0.919922,0.448486,0.060791,0.129574,-0.015832,0.011331,0.999432,0.007389,-0.007914,-0.031914,0.583481,-0.375585,-0.697168,-0.180118
64235,NaN,13.918703,-1.527792,0.563694,-2.439912,3.462211,3.542710,2.061025,-1.471642,-6.594682,-0.947754,0.382080,0.061768,0.138536,-0.019918,0.006469,0.999376,0.010303,-0.007357,-0.032967,0.575834,-0.346411,-0.715855,-0.189647
64236,NaN,14.585384,-1.347883,0.663277,-3.240457,3.259153,4.107848,2.627877,-1.405058,-6.722925,-0.977539,0.311279,0.071289,0.145239,-0.018463,0.007434,0.999324,0.013136,-0.007024,-0.033607,0.568618,-0.315877,-0.733533,-0.197037
64237,NaN,15.843527,-0.999941,1.174699,-4.424289,3.445739,5.081730,2.832484,-1.430161,-6.778723,-0.990234,0.240479,0.074219,0.157883,-0.015533,0.012684,0.999300,0.014159,-0.007149,-0.033886,0.560647,-0.282888,-0.751051,-0.203893
64238,NaN,18.283844,-1.144566,1.164713,-5.946084,3.028751,7.283962,2.595612,-1.514628,-6.797409,-0.998291,0.161377,0.086182,0.182211,-0.017808,0.012825,0.999310,0.012975,-0.007571,-0.033979,0.551341,-0.251431,-0.767020,-0.210916
64239,NaN,20.972450,-2.714492,1.061113,-8.570016,1.170555,9.509352,2.223771,-1.579125,-6.739440,-1.006592,0.092773,0.100098,0.208558,-0.034314,0.011906,0.999339,0.011116,-0.007894,-0.033690,0.540463,-0.219735,-0.782017,-0.219238
64240,NaN,23.807668,-3.881601,2.185526,-12.017761,0.099514,11.210667,1.748179,-1.612350,-6.588664,-0.999756,0.019775,0.111816,0.236437,-0.046824,0.023380,0.999387,0.008739,-0.008060,-0.032937,0.528555,-0.190876,-0.795032,-0.228298
64241,NaN,26.049669,-4.242919,3.211766,-14.868138,-0.714499,12.211839,1.267731,-1.540137,-6.262265,-0.997559,-0.048828,0.123535,0.258738,-0.050761,0.033811,0.999460,0.006338,-0.007699,-0.031306,0.516075,-0.163202,-0.806277,-0.238640
64242,NaN,26.839160,-4.881859,3.005607,-16.318810,-2.507171,12.105237,0.477315,-1.369376,-5.766564,-0.980225,-0.113281,0.133301,0.266621,-0.056598,0.031757,0.999558,0.002386,-0.006846,-0.028829,0.503866,-0.140276,-0.814713,-0.250368
64243,NaN,25.484978,-8.660599,0.796586,-16.647834,-7.879388,9.827146,-0.533139,-1.214896,-5.085091,-0.976318,-0.162598,0.140381,0.252483,-0.093022,0.009747,0.999655,-0.002665,-0.006074,-0.025423,0.491926,-0.121507,-0.820420,-0.264868
64244,NaN,22.242550,-15.017935,-2.684763,-15.956758,-15.578986,5.354156,-1.051703,-1.138623,-4.200102,-0.953369,-0.205566,0.149658,0.219350,-0.154942,-0.024786,0.999749,-0.005258,-0.005693,-0.020999,0.480962,-0.108331,-0.824160,-0.278748
64245,NaN,20.100585,-21.020724,0.019479,-19.800307,-19.221271,-0.630301,-0.555638,-0.861045,-3.197302,-0.941406,-0.239746,0.152588,0.197606,-0.213381,0.001640,0.999859,-0.002778,-0.004305,-0.015986,0.472567,-0.097072,-0.827012,-0.288634
64246,NaN,17.918734,-22.972017,2.677286,-21.454645,-19.302331,-5.012281,0.031295,-0.578556,-2.211101,-0.934326,-0.259033,0.150635,0.176555,-0.231686,0.027250,0.999935,0.000156,-0.002893,-0.011055,0.466998,-0.088670,-0.829429,-0.293423
64247,NaN,17.206248,-21.763589,2.595991,-20.421672,-18.476600,-5.569233,0.408492,-0.218211,-1.293593,-0.923340,-0.265625,0.146484,0.170622,-0.218795,0.025701,0.999976,0.002042,-0.001091,-0.006468,0.464411,-0.082391,-0.830978,-0.294973
64248,NaN,16.051888,-20.408431,0.004239,-17.239016,-18.833891,-5.094024,0.561119,0.195044,-0.298732,-0.916748,-0.269775,0.155273,0.160213,-0.204323,-0.000687,0.999994,0.002806,0.000975,-0.001494,0.465041,-0.079545,-0.831458,-0.293407
64249,NaN,14.289462,-18.523827,-0.002604,-15.392023,-17.122673,-5.663425,0.511100,0.447674,0.684377,-0.925781,-0.256836,0.144287,0.143526,-0.184746,-0.000819,0.999988,0.002555,0.002238,0.003422,0.468211,-0.080543,-0.830739,-0.290110
64250,NaN,14.374531,-15.782316,-0.412020,-13.957560,-15.092859,-4.045508,0.252612,0.603203,1.529187,-0.921387,-0.254883,0.137695,0.144933,-0.156712,-0.004755,0.999965,0.001263,0.003016,0.007646,0.473052,-0.085412,-0.829035,-0.285706
64251,NaN,12.957433,-11.127494,-9.886133,-4.287930,-16.226760,0.567676,-0.415461,0.368086,1.863425,-0.928711,-0.231201,0.133057,0.130423,-0.110268,-0.098871,0.999953,-0.002077,0.001840,0.009317,0.477192,-0.093790,-0.826568,-0.283333
64252,NaN,11.113587,-3.361346,-12.113420,1.721944,-10.681649,3.011980,0.839136,0.432456,2.216672,-0.931641,-0.211914,0.132812,0.111233,-0.031872,-0.121511,0.999927,0.004196,0.002162,0.011083,0.482509,-0.100316,-0.825611,-0.274751
64253,NaN,8.891665,17.347634,-7.357138,8.414549,9.644573,6.627688,1.813254,0.604226,1.641002,-0.932129,-0.192627,0.128174,0.087266,0.174856,-0.072256,0.999921,0.009066,0.003021,0.008205,0.488267,-0.102114,-0.825621,-0.263661
64254,NaN,9.931144,13.781190,-0.228743,1.087271,10.679733,3.353766,1.502444,0.742617,1.463944,-0.928223,-0.181885,0.125977,0.098292,0.138548,-0.001615,0.999938,0.007512,0.003713,0.007320,0.494031,-0.103491,-0.824976,-0.254240
64255,NaN,17.517196,-1.393884,2.513140,-10.981370,-1.181426,4.083869,0.749616,0.740160,1.939065,-0.931396,-0.154053,0.116943,0.175388,-0.012332,0.024434,0.999939,0.003748,0.003701,0.009695,0.500030,-0.108829,-0.822918,-0.246844
64256,NaN,23.944197,0.199345,3.131325,-13.530519,0.339216,10.186068,0.134455,0.915802,2.313878,-0.934082,-0.141113,0.108154,0.239538,0.004744,0.030219,0.999922,0.000672,0.004579,0.011569,0.506720,-0.116863,-0.819456,-0.240978
64257,NaN,23.102024,1.255664,-0.675679,-9.330671,-0.243295,11.367041,-0.976700,0.469294,2.789074,-0.934814,-0.113281,0.103516,0.230799,0.015741,-0.007370,0.999888,-0.004883,0.002346,0.013945,0.511546,-0.130427,-0.815181,-0.238307
64258,NaN,22.712105,-11.705141,-4.728309,-11.688508,-12.823803,9.528373,-1.028555,0.214646,3.473862,-0.936035,-0.083252,0.100830,0.229061,-0.113326,-0.046939,0.999835,-0.005142,0.001073,0.017368,0.515836,-0.146928,-0.810991,-0.233709
64259,NaN,14.664114,-2.677822,2.290632,-9.115533,-0.914646,2.166525,0.683033,0.796481,3.476792,-0.943848,-0.044678,0.098145,0.147167,-0.024300,0.022235,0.999835,0.003415,0.003982,0.017383,0.523743,-0.158639,-0.806819,-0.222644
64260,NaN,1.623980,5.729081,-2.824974,4.387784,3.449134,-6.307305,0.239289,0.339430,3.140921,-0.936035,-0.020996,0.095703,0.015289,0.057570,-0.028207,0.999875,0.001196,0.001697,0.015704,0.528763,-0.170274,-0.803587,-0.213690
64261,NaN,3.075228,-6.097913,-7.409131,1.537254,-8.875180,-5.295878,0.317822,0.185872,2.869124,-0.936768,0.002441,0.088867,0.031553,-0.060412,-0.074217,0.999895,0.001589,0.000929,0.014345,0.532992,-0.181060,-0.800671,-0.205092
64262,NaN,8.864397,-7.512903,-3.299348,-4.400281,-7.385990,-1.328575,1.536959,0.361319,2.640594,-0.937744,0.032471,0.086182,0.089563,-0.073693,-0.033725,0.999882,0.007684,0.001807,0.013202,0.538505,-0.187134,-0.798782,-0.192200
64263,NaN,10.406914,-1.972183,-1.005534,-3.754886,-1.143651,0.076249,2.054606,0.320336,2.314379,-0.934326,0.060547,0.077393,0.104271,-0.018410,-0.010416,0.999879,0.010273,0.001602,0.011571,0.544053,-0.190833,-0.797411,-0.178116
64264,NaN,9.725715,-1.283438,-0.903050,-3.117726,-0.389259,-0.475849,1.519538,0.062912,2.068792,-0.932861,0.079834,0.079102,0.097380,-0.011758,-0.009153,0.999918,0.007597,0.000315,0.010344,0.547582,-0.194867,-0.796535,-0.166471
64265,NaN,9.401146,-2.972939,-0.932365,-3.708139,-1.743815,-0.796324,1.178789,-0.040122,1.857855,-0.929199,0.094727,0.076904,0.094284,-0.028799,-0.009476,0.999939,0.005894,-0.000201,0.009289,0.550278,-0.199379,-0.795539,-0.156717
64266,NaN,9.662134,-2.153764,-2.593027,-1.946205,-1.613562,0.103215,0.955412,-0.110252,1.632569,-0.929932,0.114014,0.083008,0.096806,-0.020624,-0.025977,0.999955,0.004777,-0.000551,0.008163,0.552077,-0.203314,-0.794909,-0.148304
64267,NaN,10.186073,-2.064232,-2.698197,-1.892804,-1.343977,0.670922,0.780798,-0.120366,1.411288,-0.923584,0.122559,0.076416,0.102019,-0.019817,-0.026999,0.999967,0.003904,-0.000602,0.007056,0.553616,-0.207167,-0.794129,-0.141246
64268,NaN,10.211345,-1.426228,-1.841028,-2.226461,-0.255892,0.418187,0.654998,-0.107857,1.253971,-0.917725,0.137451,0.080566,0.102210,-0.013561,-0.018400,0.999975,0.003275,-0.000539,0.006270,0.554768,-0.210397,-0.793553,-0.135054
64269,NaN,9.831602,-1.598229,-2.393737,-1.683008,-0.603222,0.274291,0.404127,-0.129878,1.105090,-0.920410,0.148193,0.078125,0.098418,-0.015390,-0.023905,0.999982,0.002021,-0.000649,0.005525,0.555606,-0.214052,-0.792781,-0.130310
64270,NaN,9.699675,-2.317963,-3.660654,-0.902561,-1.716958,0.632095,0.340504,-0.096313,0.969873,-0.920410,0.150391,0.080322,0.097125,-0.022647,-0.036599,0.999987,0.001703,-0.000482,0.004849,0.556244,-0.217004,-0.792204,-0.126157
64271,NaN,9.117799,-2.611369,-4.822466,0.130648,-2.511530,0.525786,0.433218,-0.058937,0.807616,-0.920654,0.158936,0.080078,0.091296,-0.025641,-0.048254,0.999989,0.002166,-0.000295,0.004038,0.557169,-0.219328,-0.791536,-0.122184
64272,NaN,8.944457,-2.957233,-4.656354,-0.076941,-2.700689,0.342601,0.605866,0.008604,0.625513,-0.916748,0.167480,0.077881,0.089534,-0.029151,-0.046656,0.999991,0.003029,0.000043,0.003128,0.558275,-0.220102,-0.791169,-0.118048
64273,NaN,8.740631,-2.429810,-3.814677,-0.412833,-1.858408,-0.157126,0.688449,0.067518,0.444927,-0.914551,0.169678,0.073730,0.087447,-0.023972,-0.038259,0.999992,0.003442,0.000338,0.002225,0.559729,-0.220178,-0.790687,-0.114194
64274,NaN,8.928280,-2.090820,-3.592603,-0.443662,-1.382575,-0.071850,0.675333,0.083055,0.293957,-0.912842,0.178223,0.075684,0.089298,-0.020655,-0.036033,0.999993,0.003377,0.000415,0.001470,0.560994,-0.219395,-0.790492,-0.110788
64275,NaN,9.255716,-1.565773,-3.752591,-0.110565,-0.882429,0.257605,0.620446,0.074799,0.169232,-0.912842,0.180420,0.071289,0.092556,-0.015463,-0.037609,0.999995,0.003102,0.000374,0.000846,0.562223,-0.218546,-0.790244,-0.107971
64276,NaN,9.357142,-1.064576,-4.014978,0.344911,-0.503815,0.406736,0.551951,0.056497,0.066527,-0.910645,0.178223,0.073486,0.093564,-0.010504,-0.040205,0.999996,0.002760,0.000282,0.000333,0.563112,-0.217221,-0.790288,-0.105660
64277,NaN,9.438367,-1.227731,-3.762150,0.058754,-0.508137,0.408965,0.521552,0.034178,-0.011309,-0.916992,0.176270,0.069336,0.094377,-0.012184,-0.037669,0.999997,0.002608,0.000171,-0.000057,0.563958,-0.215936,-0.790298,-0.103691
64278,NaN,9.520456,-0.941407,-3.159146,-0.328908,0.018270,0.256921,0.500662,0.008924,-0.068081,-0.914795,0.178223,0.067139,0.095200,-0.009367,-0.031619,0.999997,0.002503,0.000045,-0.000340,0.564526,-0.214245,-0.790585,-0.101909
64279,NaN,9.638203,-0.627129,-2.881407,-0.442948,0.442045,0.247091,0.463005,-0.020078,-0.083243,-0.914795,0.174072,0.071533,0.096382,-0.006245,-0.028819,0.999997,0.002315,-0.000100,-0.000416,0.565044,-0.212850,-0.790796,-0.100314
64280,NaN,9.846818,-0.246059,-2.566247,-0.594888,0.957850,0.303370,0.445313,-0.051162,-0.079509,-0.918945,0.174072,0.062744,0.098474,-0.002443,-0.025643,0.999997,0.002227,-0.000256,-0.000398,0.565303,-0.211298,-0.791227,-0.098718
64281,NaN,9.850005,-0.263449,-2.593374,-0.579369,0.941392,0.316266,0.444219,-0.105764,-0.048202,-0.916992,0.176270,0.062744,0.098513,-0.002601,-0.025887,0.999997,0.002221,-0.000529,-0.000241,0.565470,-0.210121,-0.791633,-0.097009
64282,NaN,9.800505,-0.220426,-3.085415,-0.132241,0.791239,0.433028,0.475989,-0.160637,-0.000105,-0.912598,0.174072,0.062744,0.098030,-0.002131,-0.030781,0.999997,0.002380,-0.000803,-0.000001,0.565361,-0.208848,-0.792296,-0.094951
64283,NaN,9.640201,-0.158726,-3.363774,0.174160,0.728635,0.371237,0.553760,-0.198711,0.049426,-0.912842,0.178223,0.073486,0.096436,-0.001470,-0.033546,0.999996,0.002769,-0.000994,0.000247,0.565311,-0.207775,-0.792911,-0.092438
64284,NaN,9.517007,-0.093755,-3.409453,0.269298,0.775029,0.263685,0.607752,-0.220420,0.108511,-0.916992,0.180420,0.069092,0.095208,-0.000783,-0.033992,0.999995,0.003039,-0.001102,0.000543,0.565145,-0.206584,-0.793679,-0.089487
64285,NaN,9.437256,-0.120645,-3.539948,0.390983,0.724682,0.233676,0.594496,-0.227869,0.171133,-0.912842,0.178223,0.073486,0.094414,-0.001021,-0.035295,0.999995,0.002972,-0.001139,0.000856,0.565061,-0.205872,-0.794262,-0.086438
64286,NaN,9.304980,-0.420924,-3.896127,0.605702,0.337806,0.259971,0.571171,-0.220669,0.230754,-0.915039,0.184814,0.069092,0.093097,-0.003991,-0.038870,0.999995,0.002856,-0.001103,0.001154,0.564898,-0.205265,-0.794871,-0.083284
64287,NaN,9.256036,-0.676116,-4.083574,0.680078,0.078323,0.303540,0.577348,-0.202689,0.267240,-0.917236,0.184814,0.073486,0.092611,-0.006520,-0.040761,0.999994,0.002887,-0.001013,0.001336,0.564920,-0.204952,-0.795268,-0.080055
64288,NaN,9.160774,-0.977366,-4.487463,0.940352,-0.307212,0.386990,0.653350,-0.162686,0.299071,-0.911133,0.195312,0.075439,0.091659,-0.009490,-0.044831,0.999993,0.003267,-0.000813,0.001495,0.565087,-0.204356,-0.795659,-0.076439
64289,NaN,8.845994,-0.712779,-4.630044,1.280094,-0.133223,0.114055,0.739021,-0.125106,0.346204,-0.911377,0.199707,0.071045,0.088501,-0.006804,-0.046271,0.999991,0.003695,-0.000626,0.001731,0.565590,-0.203848,-0.795807,-0.072416
64290,NaN,8.548259,-0.171351,-4.781466,1.735456,0.298607,-0.176137,0.751213,-0.096115,0.418694,-0.911377,0.201904,0.075195,0.085509,-0.001355,-0.047779,0.999991,0.003756,-0.000481,0.002093,0.566148,-0.203419,-0.795898,-0.068138
64291,NaN,8.618606,0.040818,-4.636054,1.700047,0.628965,-0.195579,0.713123,-0.072995,0.511921,-0.905029,0.204102,0.068848,0.086201,0.000794,-0.046327,0.999990,0.003566,-0.000365,0.002560,0.566861,-0.203599,-0.795705,-0.063795
64292,NaN,8.836432,-0.199017,-4.451852,1.409922,0.602334,-0.035680,0.641605,-0.072571,0.608157,-0.903076,0.208252,0.066650,0.088386,-0.001579,-0.044492,0.999990,0.003208,-0.000363,0.003041,0.567442,-0.204218,-0.795469,-0.059438
64293,NaN,8.840402,-0.584642,-4.455966,1.292840,0.333325,0.014159,0.647134,-0.076813,0.705959,-0.909912,0.223389,0.064209,0.088441,-0.005390,-0.044544,0.999988,0.003236,-0.000384,0.003530,0.568101,-0.205330,-0.795046,-0.054799
64294,NaN,8.705132,-0.649126,-4.052579,0.980997,0.458709,-0.249714,0.754128,-0.113345,0.798442,-0.901611,0.231934,0.064209,0.087099,-0.005991,-0.040500,0.999985,0.003771,-0.000567,0.003992,0.568663,-0.206388,-0.794724,-0.049410
64295,NaN,8.859290,-0.311525,-3.398857,0.524482,1.111932,-0.398663,0.796659,-0.159009,0.895787,-0.897461,0.236084,0.068359,0.088632,-0.002583,-0.033929,0.999982,0.003983,-0.000795,0.004479,0.569157,-0.207823,-0.794338,-0.043547
64296,NaN,9.403217,-0.149763,-2.519297,-0.309849,1.787052,-0.247171,0.731275,-0.185465,1.014012,-0.900146,0.249023,0.061768,0.094061,-0.000929,-0.025110,0.999980,0.003656,-0.000927,0.005070,0.569418,-0.209804,-0.793936,-0.037557
64297,NaN,9.656278,-0.224487,-2.550858,-0.344924,1.899426,-0.011012,0.652220,-0.184126,1.133636,-0.889893,0.261719,0.065918,0.096597,-0.001614,-0.025426,0.999978,0.003261,-0.000921,0.005668,0.569664,-0.212573,-0.793284,-0.031566
64298,NaN,9.597000,-0.050710,-3.060750,0.222280,2.017558,0.054004,0.584643,-0.194093,1.259866,-0.892090,0.268311,0.061523,0.096000,0.000187,-0.030514,0.999975,0.002923,-0.000970,0.006299,0.569728,-0.215929,-0.792551,-0.025446
64299,NaN,9.850286,0.273014,-3.526215,0.731010,2.396323,0.348913,0.490582,-0.198578,1.386617,-0.884033,0.285400,0.065674,0.098515,0.003499,-0.035156,0.999972,0.002453,-0.000993,0.006933,0.569725,-0.220132,-0.791568,-0.019363
64300,NaN,10.596208,0.037744,-4.061037,0.973785,2.433040,1.228261,0.367873,-0.198918,1.511988,-0.875977,0.298340,0.072021,0.105995,0.001253,-0.040503,0.999969,0.001839,-0.000995,0.007560,0.569500,-0.225080,-0.790462,-0.013375
64301,NaN,11.138580,-0.241923,-4.523841,1.198892,2.414052,1.905818,0.351109,-0.197717,1.622864,-0.867676,0.308838,0.063232,0.111445,-0.001436,-0.045131,0.999965,0.001756,-0.000989,0.008114,0.569293,-0.230571,-0.789107,-0.007177
64302,NaN,11.668853,-0.232814,-4.775983,1.352929,2.739147,2.422053,0.392781,-0.210430,1.731979,-0.866211,0.326172,0.069336,0.116752,-0.001224,-0.047640,0.999960,0.001964,-0.001052,0.008660,0.568983,-0.236285,-0.787672,-0.000449
64303,NaN,12.082026,-0.073023,-4.311432,0.960188,3.375495,2.526207,0.452903,-0.223930,1.827324,-0.858154,0.345459,0.062744,0.120868,0.000471,-0.042979,0.999955,0.002264,-0.001120,0.009136,0.568703,-0.242239,-0.786036,0.006758
64304,NaN,12.396359,0.100065,-3.896386,0.644258,3.992798,2.536332,0.503471,-0.250344,1.947586,-0.856689,0.358154,0.071045,0.123994,0.002306,-0.038804,0.999949,0.002517,-0.001252,0.009738,0.568261,-0.248441,-0.784311,0.014583
64305,NaN,12.809062,0.297785,-3.587246,0.419243,4.662669,2.641468,0.522796,-0.255802,2.076952,-0.850830,0.381836,0.060059,0.128096,0.004402,-0.035698,0.999942,0.002614,-0.001279,0.010385,0.567812,-0.255108,-0.782297,0.022799
64306,NaN,13.290580,0.649336,-3.758155,0.676693,5.398092,2.898694,0.526783,-0.253486,2.215929,-0.832275,0.398926,0.064209,0.132870,0.008064,-0.037393,0.999934,0.002634,-0.001267,0.011079,0.567230,-0.262235,-0.780059,0.031477
64307,NaN,14.112087,0.987065,-4.053745,0.981776,6.275219,3.461535,0.593837,-0.300361,2.369426,-0.824219,0.420410,0.068115,0.141050,0.011662,-0.040293,0.999924,0.002969,-0.001502,0.011847,0.566516,-0.269750,-0.777577,0.040834
64308,NaN,15.214914,1.395679,-4.977458,1.829330,7.252985,4.408744,0.738950,-0.400498,2.529633,-0.807861,0.443848,0.061523,0.152054,0.016063,-0.049413,0.999911,0.003695,-0.002002,0.012648,0.565417,-0.277387,-0.775059,0.051413
64309,NaN,16.655543,2.094174,-5.900371,2.729120,8.724070,5.452541,1.008425,-0.483454,2.687135,-0.795654,0.463135,0.067627,0.166393,0.023474,-0.058487,0.999894,0.005042,-0.002417,0.013435,0.564291,-0.284799,-0.772291,0.063490
64310,NaN,18.439792,2.768979,-6.334099,3.121086,10.570054,6.506444,1.396661,-0.502415,2.833039,-0.777100,0.484619,0.058838,0.184135,0.030739,-0.062671,0.999872,0.006983,-0.002512,0.014165,0.563396,-0.291603,-0.769112,0.077587
64311,NaN,20.413521,3.155282,-7.356645,3.933017,12.280212,7.920537,1.825302,-0.503431,2.980925,-0.767334,0.514648,0.047852,0.203812,0.035259,-0.072743,0.999844,0.009126,-0.002517,0.014904,0.562982,-0.297652,-0.765306,0.093599
64312,NaN,22.447251,3.612412,-7.554982,4.025685,14.397943,8.907147,2.392982,-0.467000,3.090794,-0.746338,0.531738,0.041260,0.224044,0.040485,-0.074559,0.999806,0.011964,-0.002335,0.015453,0.563228,-0.302470,-0.760731,0.112135
64313,NaN,24.401203,3.876303,-8.052490,4.353917,16.393522,9.872157,3.198527,-0.432265,3.078754,-0.725830,0.563721,0.023682,0.243536,0.043790,-0.079325,0.999751,0.015991,-0.002161,0.015392,0.564667,-0.304778,-0.755287,0.133426
64314,NaN,24.906579,3.423376,-7.329713,3.560234,17.238376,9.574123,4.165716,-0.403612,2.975422,-0.709229,0.581055,0.004150,0.248651,0.039444,-0.072010,0.999670,0.020826,-0.002018,0.014875,0.567346,-0.303888,-0.748843,0.158129
64315,NaN,23.167274,3.927168,-6.698623,3.437586,17.331551,7.061279,4.682632,-0.499318,2.833678,-0.686279,0.602295,-0.023926,0.231235,0.044094,-0.065414,0.999622,0.023410,-0.002496,0.014167,0.570260,-0.300578,-0.741982,0.184171
64316,NaN,18.821510,4.617787,-6.866479,4.412388,15.628638,2.794201,4.502446,-0.725531,2.646157,-0.674072,0.623779,-0.047607,0.187814,0.050184,-0.066883,0.999653,0.022510,-0.003627,0.013229,0.571726,-0.296791,-0.735647,0.209446
64317,NaN,15.427722,3.009234,-5.756927,3.453267,12.669826,0.566554,3.529278,-1.058877,2.443783,-0.663574,0.632568,-0.062744,0.154186,0.032976,-0.056188,0.999756,0.017645,-0.005294,0.012218,0.570502,-0.294338,-0.731226,0.230654
64318,NaN,13.659861,-0.010931,-4.761245,2.172793,9.642304,0.749009,2.432683,-1.093046,2.237128,-0.646973,0.649658,-0.069336,0.136842,0.001993,-0.046849,0.999849,0.012163,-0.005465,0.011185,0.567446,-0.294280,-0.728111,0.247506
64319,NaN,11.685010,-2.502443,-4.972882,2.337551,6.830678,0.929452,3.361539,-0.899002,2.143114,-0.632080,0.662598,-0.097168,0.117326,-0.022934,-0.049599,0.999791,0.016807,-0.004495,0.010715,0.566485,-0.291175,-0.723282,0.266786
64320,NaN,10.759801,0.241941,-3.710312,1.583681,8.285094,-2.168329,4.288571,-0.828867,1.792295,-0.621582,0.666748,-0.116699,0.107718,0.004173,-0.036580,0.999721,0.021441,-0.004144,0.008961,0.567208,-0.284332,-0.717074,0.288506
64321,NaN,9.120015,2.478704,-0.113740,-1.554075,8.395581,-5.759766,5.171141,-0.720342,1.290108,-0.616943,0.664795,-0.150879,0.091039,0.025387,-0.000158,0.999638,0.025853,-0.003601,0.006450,0.570041,-0.272939,-0.709682,0.311301
64322,NaN,5.564241,0.047035,1.178026,-2.298705,3.994682,-6.479687,5.095403,-1.023412,0.871814,-0.608398,0.662598,-0.180664,0.055579,0.000408,0.012076,0.999653,0.025474,-0.005116,0.004359,0.571833,-0.259834,-0.703207,0.333157
64323,NaN,6.458391,-4.392393,-3.565814,2.220928,2.706521,-1.973269,4.630868,-1.794490,0.572336,-0.608154,0.658447,-0.199951,0.065030,-0.042906,-0.036077,0.999688,0.023152,-0.008972,0.002861,0.570549,-0.245325,-0.699790,0.352964
64324,NaN,6.660417,2.868441,0.239181,-2.039212,6.695375,-7.900831,4.164986,-1.762938,0.026097,-0.620605,0.647705,-0.217041,0.066572,0.028627,0.003575,0.999744,0.020823,-0.008814,0.000130,0.569322,-0.230374,-0.697232,0.369687
64325,NaN,4.483892,7.969203,3.784401,-5.710037,7.210839,-13.462450,3.653805,-1.761106,-0.557988,-0.630859,0.637207,-0.229736,0.044716,0.078853,0.039684,0.999790,0.018268,-0.008805,-0.002790,0.568436,-0.214512,-0.696134,0.382443
64326,NaN,4.116060,10.614452,6.794609,-9.180657,7.447868,-15.812871,2.985738,-1.862646,-0.944743,-0.643311,0.624268,-0.238281,0.041013,0.104917,0.069901,0.999834,0.014928,-0.009313,-0.004723,0.566892,-0.199154,-0.696590,0.392090
64327,NaN,3.540056,10.537844,8.682341,-11.060787,6.123032,-16.067193,1.892913,-1.968419,-1.307631,-0.651611,0.615723,-0.225342,0.035222,0.104318,0.088161,0.999885,0.009464,-0.009842,-0.006538,0.564598,-0.185152,-0.699807,0.396506
64328,NaN,3.399787,8.447801,8.385153,-10.497882,4.639426,-14.449694,0.830714,-2.062750,-1.630614,-0.668701,0.607178,-0.225098,0.033814,0.083852,0.084550,0.999905,0.004153,-0.010313,-0.008153,0.561353,-0.173009,-0.705400,0.396689
64329,NaN,3.611650,6.162720,7.630632,-9.476739,3.503209,-12.489832,0.260204,-2.100569,-1.983267,-0.685303,0.587891,-0.207764,0.035920,0.061171,0.076764,0.999895,0.001301,-0.010502,-0.009916,0.558287,-0.160926,-0.712508,0.393383
64330,NaN,4.101056,4.505065,6.796145,-8.567421,2.973165,-10.842279,-0.088747,-2.113427,-2.371496,-0.704102,0.572754,-0.190674,0.040820,0.044596,0.068374,0.999874,-0.000444,-0.010567,-0.011857,0.555305,-0.148563,-0.720374,0.388107
64331,NaN,4.230558,3.546510,6.213563,-7.909879,2.547840,-9.969866,-0.363195,-2.130509,-2.779062,-0.722900,0.557861,-0.173340,0.042129,0.034992,0.062521,0.999845,-0.001816,-0.010652,-0.013895,0.552959,-0.135262,-0.728998,0.380136
64332,NaN,4.714765,2.529687,5.870338,-7.577873,2.172785,-8.842023,-0.617619,-2.138168,-3.169256,-0.743896,0.538574,-0.153809,0.046912,0.024734,0.059129,0.999813,-0.003088,-0.010690,-0.015845,0.550693,-0.121344,-0.738063,0.370508
64333,NaN,5.208623,1.749368,5.740158,-7.493106,1.820902,-7.895790,-0.770448,-2.077990,-3.523229,-0.764648,0.517090,-0.130127,0.051787,0.016802,0.057875,0.999783,-0.003852,-0.010389,-0.017615,0.549287,-0.106478,-0.747210,0.358642
64334,NaN,5.710024,1.226986,5.725631,-7.573562,1.539694,-7.136977,-0.802452,-1.985864,-3.856119,-0.787354,0.487061,-0.112549,0.056754,0.011404,0.057774,0.999757,-0.004012,-0.009929,-0.019279,0.548248,-0.090704,-0.755947,0.346036
64335,NaN,6.571928,1.185799,5.412798,-7.635086,1.860971,-6.329709,-0.722546,-1.819686,-4.173243,-0.805908,0.461426,-0.093018,0.065455,0.010687,0.054684,0.999734,-0.003612,-0.009098,-0.020864,0.548464,-0.073664,-0.763868,0.332064
64336,NaN,7.528219,1.397578,4.995292,-7.706930,2.383402,-5.512257,-0.526294,-1.636546,-4.471038,-0.834717,0.422852,-0.073242,0.075160,0.012427,0.050534,0.999713,-0.002631,-0.008182,-0.022353,0.549313,-0.055308,-0.770631,0.318315
64337,NaN,8.131765,1.795035,4.720267,-7.808561,2.760181,-5.014387,-0.258029,-1.405114,-4.762931,-0.857178,0.386475,-0.060059,0.081381,0.016074,0.047753,0.999691,-0.001290,-0.007025,-0.023812,0.551605,-0.035372,-0.775945,0.303957
64338,NaN,8.592151,1.734433,4.484560,-7.754154,2.627439,-4.344822,0.052012,-1.222676,-5.021918,-0.875488,0.352051,-0.051025,0.086044,0.015173,0.045376,0.999666,0.000260,-0.006113,-0.025107,0.554345,-0.013890,-0.779842,0.290439
64339,NaN,9.261917,1.384240,4.456446,-7.836771,2.153883,-3.371980,0.443736,-1.043204,-5.244477,-0.895508,0.313477,-0.039795,0.092704,0.011312,0.045075,0.999640,0.002218,-0.005215,-0.026219,0.558106,0.009315,-0.782119,0.276984
64340,NaN,9.837896,0.855397,4.764506,-8.063638,1.243815,-2.490211,0.833515,-0.847036,-5.460392,-0.915527,0.266357,-0.034912,0.098357,0.005668,0.048089,0.999610,0.004167,-0.004235,-0.027298,0.562126,0.034149,-0.782744,0.264878
64341,NaN,10.216947,0.658400,4.853454,-8.064217,0.571048,-1.876465,1.138011,-0.692099,-5.682054,-0.931396,0.227783,-0.028076,0.102127,0.003404,0.048913,0.999574,0.005689,-0.003460,-0.028406,0.566898,0.060461,-0.781812,0.252469
64342,NaN,10.768399,0.900097,4.777132,-8.098174,0.311621,-1.217883,1.373510,-0.560309,-5.895941,-0.950928,0.172119,-0.025146,0.107746,0.005495,0.048119,0.999538,0.006866,-0.002801,-0.029475,0.571500,0.088065,-0.779499,0.240862
64343,NaN,11.717234,1.417829,4.557448,-8.201677,0.322229,-0.187177,1.548117,-0.449763,-6.109377,-0.970947,0.131592,-0.024658,0.117422,0.010239,0.045928,0.999501,0.007739,-0.002248,-0.030542,0.576527,0.116738,-0.775768,0.228415
64344,NaN,12.973875,1.608936,4.235248,-8.114257,-0.007659,1.275108,1.701726,-0.350903,-6.301895,-0.986328,0.075684,-0.021729,0.130077,0.011631,0.042692,0.999466,0.008507,-0.001754,-0.031504,0.581088,0.146410,-0.770719,0.216547
64345,NaN,14.302749,1.718525,4.159857,-8.101479,-0.691646,2.782127,1.816886,-0.270204,-6.468393,-1.001953,0.032959,-0.016846,0.143419,0.012171,0.041918,0.999435,0.009083,-0.001351,-0.032336,0.585776,0.176732,-0.764294,0.203684
64346,NaN,15.296832,1.458314,3.931087,-7.578691,-1.750241,4.006707,1.719209,-0.238286,-6.599705,-1.021729,-0.020508,-0.014160,0.153284,0.009188,0.039588,0.999418,0.008594,-0.001191,-0.032992,0.589752,0.207111,-0.756942,0.190623
64347,NaN,16.363721,0.958501,3.469241,-6.623357,-2.996307,5.279349,1.372955,-0.280740,-6.696045,-1.047852,-0.074219,-0.013428,0.163781,0.003863,0.034962,0.999415,0.006863,-0.001403,-0.033474,0.593676,0.236521,-0.749015,0.174880
64348,NaN,18.730467,-0.215410,2.647400,-5.104088,-4.905142,7.726855,0.857717,-0.340889,-6.736800,-1.073975,-0.129883,-0.012695,0.187042,-0.008573,0.026765,0.999422,0.004288,-0.001704,-0.033678,0.596957,0.264444,-0.740856,0.157622
64349,NaN,20.864650,-1.809068,1.536692,-2.859515,-7.138808,9.723545,0.244898,-0.348748,-6.670955,-1.110840,-0.181152,-0.010010,0.207861,-0.025053,0.015702,0.999442,0.001224,-0.001743,-0.033349,0.600610,0.289850,-0.732403,0.137259
64350,NaN,22.838960,-3.911293,0.251269,-0.020788,-9.753555,11.203036,-0.606886,-0.415334,-6.443128,-1.147217,-0.247559,-0.007080,0.226966,-0.046432,0.003119,0.999474,-0.003034,-0.002076,-0.032210,0.604099,0.311743,-0.724323,0.115049
64351,NaN,25.397757,-7.113602,-1.443094,3.814672,-13.312852,12.675756,-1.378604,-0.539347,-6.004055,-1.196533,-0.311768,-0.012695,0.251725,-0.078810,-0.013224,0.999522,-0.006892,-0.002696,-0.030015,0.607763,0.329291,-0.716971,0.090246
64352,NaN,26.010782,-10.700257,-2.591756,7.471283,-16.799540,11.623614,-1.680860,-0.602759,-5.445638,-1.232422,-0.393066,-0.007568,0.257137,-0.114240,-0.024200,0.999589,-0.008403,-0.003013,-0.027224,0.610601,0.343834,-0.710280,0.066680
64353,NaN,24.368102,-13.064621,-2.417319,9.187851,-18.970200,8.239548,-1.614478,-0.595316,-4.804087,-1.274902,-0.472412,-0.012939,0.240515,-0.136635,-0.022367,0.999675,-0.008072,-0.002976,-0.024018,0.612917,0.355844,-0.704075,0.044568
64354,NaN,21.486658,-15.808183,-1.670162,10.361800,-20.783548,3.413327,-1.637163,-0.544051,-4.096759,-1.304443,-0.553711,-0.016113,0.211609,-0.162565,-0.014804,0.999753,-0.008185,-0.002720,-0.020482,0.614700,0.365278,-0.698624,0.025307
64355,NaN,18.289501,-18.176684,-1.925111,11.886593,-21.312878,-1.268578,-1.334303,-0.437634,-3.334571,-1.329346,-0.637207,-0.025635,0.179869,-0.184904,-0.017629,0.999836,-0.006671,-0.002188,-0.016672,0.616139,0.372612,-0.693866,0.009096
64356,NaN,16.760560,-20.318415,-2.262755,13.296922,-22.153764,-4.223445,-0.719310,-0.206394,-2.422139,-1.346436,-0.701416,-0.024902,0.165151,-0.205273,-0.021720,0.999920,-0.003596,-0.001032,-0.012110,0.616848,0.378776,-0.689946,-0.001210
64357,NaN,16.042524,-21.360840,-3.576579,14.959611,-22.009694,-5.545413,-0.406973,0.040263,-1.451735,-1.365967,-0.759277,-0.036865,0.158862,-0.214838,-0.035362,0.999972,-0.002035,0.000201,-0.007259,0.617910,0.382326,-0.686994,-0.007317
64358,NaN,14.960612,-21.283545,-5.675623,16.697794,-20.421624,-6.184819,-0.083295,0.222967,-0.446272,-1.385986,-0.800049,-0.040771,0.149067,-0.213192,-0.056834,0.999997,-0.000416,0.001115,-0.002231,0.618841,0.383606,-0.685427,-0.008519
64359,NaN,14.288620,-19.190357,-4.987980,15.020151,-18.875172,-5.883895,0.158349,0.314874,0.583546,-1.408936,-0.819092,-0.053467,0.143366,-0.191446,-0.050257,0.999994,0.000792,0.001574,0.002918,0.619785,0.381950,-0.685529,-0.005658
