// Start Time: Unknown
// Update Rate: 100.0Hz
// Filter Profile: human (46.1)
// Firmware Version: 4.4.0
PacketCounter,SampleTimeFine,Acc_X,Acc_Y,Acc_Z,FreeAcc_X,FreeAcc_Y,FreeAcc_Z,Gyr_X,Gyr_Y,Gyr_Z,Mag_X,Mag_Y,Mag_Z,VelInc_X,VelInc_Y,VelInc_Z,OriInc_q0,OriInc_q1,OriInc_q2,OriInc_q3,Quat_q0,Quat_q1,Quat_q2,Quat_q3
15219,NaN,11.889952,1.081089,-0.094877,0.000000,-0.000000,2.126413,-1.000781,0.240293,-2.325455,-0.844482,-0.129883,-0.341309,0.119013,0.009422,-0.001141,0.999919,-0.005004,0.001201,-0.011627,0.703168,0.084064,-0.705487,0.027856
15220,NaN,10.499710,1.174591,-4.172342,-0.000000,0.000000,1.546045,-2.623841,1.156573,-2.126491,-0.840088,-0.136230,-0.360107,0.104866,0.010076,-0.042470,0.999841,-0.013119,0.005783,-0.010632,0.559445,0.066519,-0.826149,-0.008645
15221,NaN,8.078868,2.096797,-5.060228,3.300629,1.766571,-0.799140,-3.042418,1.757135,-1.904183,-0.825439,-0.136230,-0.383545,0.080528,0.019420,-0.051614,0.999800,-0.015211,0.008785,-0.009520,0.643331,0.074327,-0.761971,-0.000812
15222,NaN,4.833841,1.691521,-4.537331,3.542385,1.468897,-4.146564,-2.044423,1.410116,-1.692064,-0.814453,-0.146973,-0.396240,0.048154,0.016040,-0.045880,0.999887,-0.010222,0.007050,-0.008460,0.649384,0.074195,-0.756712,-0.013519
15223,NaN,4.045620,-1.288257,-0.967720,0.501549,-1.758149,-5.860475,0.245273,0.670243,-1.684587,-0.813965,-0.164062,-0.395996,0.040313,-0.013211,-0.009829,0.999958,0.001226,0.003351,-0.008423,0.651308,0.081451,-0.754208,-0.018242
15224,NaN,5.010343,-4.755684,4.421369,-4.548292,-5.798588,-6.213044,-0.153675,1.226216,-1.349410,-0.807617,-0.170410,-0.415039,0.050051,-0.047861,0.043943,0.999958,-0.000768,0.006131,-0.006747,0.655845,0.086148,-0.749620,-0.022715
15225,NaN,4.609434,-4.631875,5.242952,-5.270806,-5.644354,-6.564749,-2.134126,2.077217,-1.261924,-0.792480,-0.176758,-0.434082,0.046348,-0.046051,0.052441,0.999869,-0.010670,0.010386,-0.006309,0.667189,0.079756,-0.740061,-0.028426
15226,NaN,4.134573,-2.064400,0.702940,-0.918163,-2.733460,-6.133606,-2.788457,2.069613,-0.950468,-0.788574,-0.170410,-0.457520,0.041319,-0.020744,0.006890,0.999838,-0.013942,0.010348,-0.004752,0.675715,0.074252,-0.732262,-0.041084
15227,NaN,5.764258,0.631031,-3.471008,3.185946,0.000942,-3.852820,-2.223088,1.609860,-0.853584,-0.780273,-0.166016,-0.472168,0.057385,0.005675,-0.035238,0.999897,-0.011115,0.008049,-0.004268,0.692056,0.057789,-0.718571,-0.037059
15228,NaN,7.384095,1.682268,-2.637691,2.383386,0.689125,-2.186783,-1.603930,1.313692,-1.022586,-0.773926,-0.168213,-0.480713,0.073749,0.016231,-0.026993,0.999933,-0.008019,0.006568,-0.005113,0.697004,0.056152,-0.713385,-0.045978
15229,NaN,8.156802,2.654150,0.721257,-0.910960,1.609963,-1.405875,-1.088727,0.992753,-1.205286,-0.765137,-0.176758,-0.493408,0.081760,0.026086,0.006664,0.999955,-0.005444,0.004964,-0.006026,0.700510,0.048795,-0.710638,-0.043574
15230,NaN,8.775272,1.644601,2.250562,-2.331549,0.422939,-0.915592,-1.157870,1.004185,-1.354073,-0.756836,-0.172363,-0.506104,0.087973,0.015979,0.021971,0.999948,-0.005789,0.005021,-0.006770,0.704029,0.049767,-0.706501,-0.052184
15231,NaN,7.151081,1.269859,3.753567,-3.641771,0.290552,-2.498910,-1.527617,1.346149,-1.130927,-0.748291,-0.176514,-0.518799,0.071832,0.012577,0.036957,0.999932,-0.007638,0.006731,-0.005655,0.712754,0.045382,-0.697547,-0.057878
15232,NaN,4.656997,2.541892,4.362336,-4.160774,1.922369,-4.697071,-1.740963,1.441012,-0.590502,-0.746338,-0.172363,-0.533691,0.046957,0.025657,0.043063,0.999932,-0.008705,0.007205,-0.002952,0.717955,0.041651,-0.691727,-0.065723
15233,NaN,4.697498,2.149365,2.103810,-1.693955,1.280318,-4.654922,-2.064710,1.231723,-0.291428,-0.734131,-0.161621,-0.542236,0.047134,0.021639,0.020525,0.999927,-0.010323,0.006158,-0.001457,0.734374,0.057317,-0.672731,-0.069588
15234,NaN,3.489988,3.363882,1.905455,-1.464542,2.716836,-5.617524,-2.045547,0.920981,-0.065303,-0.738525,-0.155029,-0.554932,0.034997,0.033819,0.018548,0.999937,-0.010228,0.004605,-0.000327,0.737989,0.050343,-0.668577,-0.076440
15235,NaN,4.254982,4.807080,3.629780,-2.842479,4.022202,-4.323747,-2.142512,0.554616,0.153929,-0.728516,-0.137939,-0.567871,0.042612,0.048488,0.035662,0.999938,-0.010712,0.002773,0.000770,0.746411,0.047248,-0.658276,-0.085507
15236,NaN,2.894310,5.467079,3.206498,-2.405803,4.982322,-5.577811,-2.185205,0.526993,0.248308,-0.729004,-0.120605,-0.565918,0.028958,0.055052,0.031389,0.999936,-0.010926,0.002635,0.001242,0.748720,0.038498,-0.655392,-0.091643
15237,NaN,0.133485,4.466462,1.998973,-1.418402,4.499302,-8.506288,-1.882466,0.154480,0.408261,-0.729492,-0.107910,-0.568115,0.001259,0.044853,0.019567,0.999953,-0.009412,0.000772,0.002041,0.753736,0.030499,-0.647064,-0.110725
15238,NaN,-1.615829,3.563184,0.213236,0.045604,3.819537,-10.685286,-1.300296,-0.425436,0.618933,-0.733887,-0.099365,-0.565918,-0.016273,0.035594,0.001866,0.999972,-0.006501,-0.002127,0.003095,0.752880,0.023360,-0.648023,-0.112661
15239,NaN,-2.870467,1.758400,-0.009161,-0.081314,2.348078,-12.223363,-0.571472,-1.077132,0.775757,-0.740479,-0.094971,-0.563965,-0.028771,0.017472,-0.000296,0.999974,-0.002857,-0.005386,0.003879,0.752353,0.018781,-0.645022,-0.132510
15240,NaN,-3.166780,0.649385,0.658268,-0.928858,1.411658,-12.645999,0.258059,-1.590559,0.918851,-0.753174,-0.088623,-0.551270,-0.031748,0.006340,0.006339,0.999957,0.001290,-0.007953,0.004594,0.747776,0.015734,-0.651234,-0.128365
15241,NaN,-1.141575,1.225228,0.480998,-0.362887,1.521633,-10.579898,1.036036,-2.069287,0.986395,-0.767822,-0.095215,-0.531982,-0.011525,0.012171,0.004754,0.999921,0.005180,-0.010346,0.004932,0.744599,0.014777,-0.652290,-0.140968
15242,NaN,3.003487,2.380303,1.241746,-0.486680,1.817690,-6.250875,1.607241,-2.508985,1.022540,-0.780518,-0.090820,-0.510986,0.029752,0.023853,0.012983,0.999876,0.008036,-0.012544,0.005112,0.736926,0.015656,-0.662758,-0.132087
15243,NaN,7.235654,2.453599,2.288392,-1.179433,1.022524,-1.991608,1.864535,-2.712728,1.123814,-0.795410,-0.091064,-0.485352,0.071897,0.024720,0.024091,0.999849,0.009322,-0.013563,0.005619,0.730827,0.017214,-0.667651,-0.140845
15244,NaN,8.990054,1.611971,4.575158,-3.694124,0.287073,-0.293437,1.599032,-2.427613,1.229502,-0.810303,-0.082520,-0.468506,0.089236,0.016297,0.046967,0.999875,0.007995,-0.012138,0.006147,0.723361,0.017241,-0.677670,-0.131206
15245,NaN,9.781268,-0.398723,6.357974,-5.868178,-1.565352,0.155662,0.872675,-1.329903,1.193780,-0.810303,-0.082520,-0.460205,0.097410,-0.003684,0.064212,0.999951,0.004363,-0.006649,0.005969,0.721407,0.019010,-0.680114,-0.129054
15246,NaN,10.324308,-2.673105,2.565739,-2.539756,-4.349340,-0.068355,1.287436,-0.667426,1.141836,-0.816895,-0.078125,-0.455811,0.103308,-0.026307,0.025832,0.999957,0.006437,-0.003337,0.005709,0.719722,0.019340,-0.683432,-0.120616
15247,NaN,13.334487,-4.873186,-2.138003,2.059316,-7.553864,2.221388,2.186238,-1.682799,1.453990,-0.829590,-0.073975,-0.434814,0.133870,-0.047531,-0.020779,0.999878,0.010931,-0.008414,0.007270,0.720534,0.019979,-0.684753,-0.107446
15248,NaN,15.793603,-5.236687,-0.408519,0.232382,-7.910777,4.829074,1.739160,-2.353322,1.489172,-0.840332,-0.069824,-0.407227,0.158357,-0.051161,-0.002672,0.999865,0.008695,-0.011766,0.007446,0.713007,0.019879,-0.694222,-0.096347
15249,NaN,18.104488,-6.528553,-1.721132,1.509255,-9.236879,7.091249,0.833138,-2.062440,1.415637,-0.855225,-0.065430,-0.394531,0.181667,-0.063934,-0.015608,0.999913,0.004166,-0.010312,0.007078,0.710488,0.020125,-0.699079,-0.078045
15250,NaN,19.656651,-4.970288,-3.551177,3.186237,-7.767571,8.980750,0.595576,-1.768040,1.474536,-0.855713,-0.046143,-0.386230,0.197230,-0.048148,-0.033915,0.999929,0.002978,-0.008840,0.007373,0.704773,0.016396,-0.705691,-0.070898
15251,NaN,19.980683,-1.888994,-2.052070,1.969393,-3.878504,9.886925,1.177072,-1.252510,1.269014,-0.859863,-0.046387,-0.377686,0.200045,-0.017505,-0.019374,0.999943,0.005885,-0.006262,0.006345,0.704836,0.017681,-0.707699,-0.045345
15252,NaN,17.821514,0.812358,-1.339251,1.212460,-0.712012,8.022034,0.996138,-0.609788,1.221675,-0.864502,-0.035645,-0.369385,0.178200,0.009277,-0.012805,0.999964,0.004981,-0.003049,0.006108,0.702842,0.016730,-0.710156,-0.037567
15253,NaN,16.101374,1.280104,-2.200259,2.046762,0.355011,6.355657,0.267945,-0.403684,1.150404,-0.866943,-0.027100,-0.367188,0.160980,0.013756,-0.021660,0.999981,0.001340,-0.002018,0.005752,0.702754,0.018215,-0.710969,-0.018133
15254,NaN,15.206686,0.449795,-1.593632,1.379222,-0.244552,5.419520,0.259663,-0.484595,1.131945,-0.869141,-0.020508,-0.356689,0.152076,0.005379,-0.015561,0.999980,0.001298,-0.002423,0.005660,0.701096,0.015059,-0.712784,-0.013276
15255,NaN,14.316725,0.114834,-0.192650,-0.066813,-0.204097,4.504107,0.224700,-0.217133,1.109310,-0.873535,-0.011963,-0.358887,0.143160,0.001944,-0.001769,0.999983,0.001123,-0.001086,0.005547,0.700164,0.013949,-0.713842,0.002053
15256,NaN,12.376190,0.446562,-0.440508,0.197369,0.317161,2.573688,0.140850,0.099664,1.152412,-0.869873,0.000732,-0.365479,0.123731,0.005182,-0.004463,0.999983,0.000704,0.000498,0.005762,0.700487,0.010328,-0.713560,0.006597
15257,NaN,10.661299,-0.283954,-1.513326,1.365258,-0.135008,0.871423,-0.066507,0.549484,1.240367,-0.867920,0.007324,-0.369629,0.106586,-0.002184,-0.015425,0.999977,-0.000333,0.002747,0.006202,0.702606,0.010767,-0.711194,0.020769
15258,NaN,9.086609,-1.197947,-2.627331,2.594329,-0.896519,-0.682038,-0.229405,0.737412,1.285950,-0.870605,0.024414,-0.371826,0.090843,-0.011426,-0.026595,0.999972,-0.001147,0.003687,0.006430,0.705088,0.005312,-0.708677,0.024510
15259,NaN,8.847244,-1.867714,-3.054074,3.098903,-1.321561,-0.883035,-0.029621,0.151894,1.244822,-0.866455,0.028809,-0.376221,0.088563,-0.018131,-0.030605,0.999980,-0.000148,0.000759,0.006224,0.704541,0.006084,-0.708595,0.038455
15260,NaN,9.905081,-1.685466,-2.651013,2.671054,-1.000473,0.179435,0.029377,-0.117263,1.230361,-0.868896,0.041504,-0.376221,0.099168,-0.016241,-0.026454,0.999981,0.000147,-0.000586,0.006152,0.703875,0.001851,-0.709025,0.042889
15261,NaN,11.620375,-1.608570,-1.500093,1.402137,-0.691690,1.910155,0.024380,-0.437845,1.026377,-0.873291,0.043701,-0.374023,0.116317,-0.015487,-0.014748,0.999984,0.000122,-0.002189,0.005132,0.699038,0.005559,-0.712801,0.056830
15262,NaN,12.166149,-2.704704,0.130044,-0.203637,-1.782781,2.521275,0.102708,-0.529232,0.788763,-0.875732,0.054443,-0.367920,0.121763,-0.026568,0.001609,0.999989,0.000514,-0.002646,0.003944,0.696917,0.003257,-0.714635,0.059938
15263,NaN,10.235339,-4.107800,1.252294,-1.192968,-3.341406,0.704718,0.376904,-0.387487,0.669641,-0.879883,0.056641,-0.365723,0.102466,-0.040759,0.012644,0.999991,0.001885,-0.001937,0.003348,0.690793,0.011299,-0.718982,0.075772
15264,NaN,8.495044,-3.376676,0.485455,-0.466920,-2.612339,-1.051374,0.475046,-0.280828,0.818003,-0.878174,0.067383,-0.370117,0.085081,-0.033431,0.004894,0.999988,0.002375,-0.001404,0.004090,0.689439,0.010106,-0.719809,0.080288
15265,NaN,7.596273,-2.087717,-1.166316,1.043903,-1.042487,-1.986755,0.127238,-0.284639,0.923315,-0.880371,0.069336,-0.359619,0.076075,-0.020519,-0.011568,0.999988,0.000636,-0.001423,0.004617,0.683523,0.024380,-0.722009,0.104420
15266,NaN,6.012997,-2.111368,0.018232,-0.049997,-1.395866,-3.594724,0.345546,-0.638911,0.870785,-0.884766,0.077881,-0.353271,0.060220,-0.020852,0.000338,0.999984,0.001728,-0.003195,0.004354,0.680710,0.022751,-0.724106,0.108564
15267,NaN,6.516191,0.041339,0.557530,-1.115830,0.732906,-3.410292,0.752974,-0.688678,0.871927,-0.880615,0.077881,-0.349121,0.065140,0.000676,0.005802,0.999977,0.003765,-0.003443,0.004360,0.673848,0.024660,-0.728442,0.121216
15268,NaN,6.335552,2.603220,-0.389117,-0.745612,3.433487,-3.920146,0.756689,-0.573703,0.872484,-0.882812,0.082275,-0.340576,0.063252,0.026322,-0.003610,0.999979,0.003783,-0.002868,0.004362,0.671123,0.024379,-0.730008,0.126838
15269,NaN,6.479797,3.865569,-0.506191,-1.096872,4.752882,-4.034030,0.642800,-0.729931,0.779110,-0.887207,0.088623,-0.334229,0.064664,0.038923,-0.004701,0.999981,0.003214,-0.003650,0.003896,0.663957,0.027349,-0.734221,0.139039
15270,NaN,7.628696,3.971297,-0.089157,-1.743235,4.944329,-2.994325,0.494823,-0.878525,0.569299,-0.889404,0.097168,-0.330078,0.076176,0.039931,-0.000458,0.999983,0.002474,-0.004393,0.002846,0.660258,0.027513,-0.736859,0.142623
15271,NaN,8.322625,4.266834,-0.417607,-1.665751,5.436816,-2.375487,0.032163,-1.059628,0.246322,-0.889160,0.090576,-0.319580,0.083194,0.042771,-0.003728,0.999985,0.000161,-0.005298,0.001232,0.655496,0.024921,-0.741257,0.142272
15272,NaN,6.906787,3.333589,-0.052486,-1.704618,4.225589,-3.643641,-0.021644,-1.448246,-0.087265,-0.895752,0.094971,-0.313232,0.069084,0.033306,-0.000028,0.999974,-0.000108,-0.007241,-0.000436,0.650177,0.026205,-0.745988,0.141721
15273,NaN,6.808078,2.430291,0.053457,-1.736285,3.260651,-3.598892,0.083444,-1.813855,-0.108581,-0.901855,0.086426,-0.293945,0.068085,0.024266,0.001162,0.999959,0.000417,-0.009069,-0.000543,0.642299,0.032240,-0.752083,0.144161
15274,NaN,7.873045,2.701881,0.348876,-2.396114,3.546434,-2.665221,0.354587,-1.780889,-0.087707,-0.901855,0.090576,-0.279297,0.078707,0.026977,0.004238,0.999959,0.001773,-0.008904,-0.000439,0.635583,0.034992,-0.757501,0.144920
15275,NaN,8.815575,3.297328,-0.236439,-2.337917,4.307590,-1.774077,0.495499,-1.651313,-0.049282,-0.910156,0.088379,-0.262207,0.088179,0.032956,-0.001555,0.999963,0.002477,-0.008256,-0.000246,0.628723,0.041824,-0.762300,0.147840
15276,NaN,9.152841,3.821198,-0.694825,-2.259064,4.935036,-1.482097,0.596461,-1.499204,0.073862,-0.910156,0.090576,-0.251709,0.091562,0.038265,-0.006148,0.999967,0.002982,-0.007496,0.000369,0.622809,0.044527,-0.766563,0.150026
15277,NaN,9.568861,4.018324,0.177017,-3.317916,4.865660,-1.265387,0.545275,-1.295030,0.116600,-0.916260,0.083984,-0.243164,0.095651,0.040233,0.002499,0.999975,0.002726,-0.006475,0.000583,0.619018,0.046416,-0.769794,0.148590
15278,NaN,9.448407,3.924081,1.761316,-4.878119,4.277234,-1.708307,0.130804,-1.228132,0.099669,-0.918701,0.090332,-0.232666,0.094354,0.039276,0.018219,0.999981,0.000654,-0.006141,0.000498,0.614175,0.047351,-0.773506,0.149114
15279,NaN,9.802750,3.619200,4.009987,-7.069135,3.292793,-1.784243,-0.194148,-1.273378,0.107824,-0.916504,0.090332,-0.224121,0.097750,0.036284,0.040688,0.999979,-0.000971,-0.006367,0.000539,0.610466,0.049921,-0.776783,0.146450
15280,NaN,11.229271,3.550466,4.898265,-8.335589,3.111500,-0.673192,-0.381361,-1.054675,0.307241,-0.918701,0.096680,-0.211670,0.111978,0.035771,0.049506,0.999983,-0.001907,-0.005273,0.001536,0.606230,0.048338,-0.780344,0.145640
15281,NaN,10.718600,3.892314,3.466034,-6.976232,3.767901,-0.914031,-0.453400,-0.861836,0.377255,-0.920898,0.098877,-0.205322,0.106962,0.039204,0.035033,0.999986,-0.002267,-0.004309,0.001886,0.605247,0.048219,-0.781712,0.142395
15282,NaN,10.355436,4.173742,2.896772,-6.480905,4.192503,-1.241416,-0.499874,-0.682710,0.382118,-0.925293,0.107422,-0.196777,0.103375,0.042008,0.029216,0.999989,-0.002499,-0.003414,0.001911,0.602422,0.045700,-0.784217,0.141431
15283,NaN,10.247190,3.752360,1.680454,-5.171968,4.109487,-0.965561,-0.592769,-0.335459,0.393782,-0.923340,0.109619,-0.196777,0.102369,0.037775,0.016865,0.999992,-0.002964,-0.001677,0.001969,0.604071,0.044261,-0.783821,0.136978
15284,NaN,10.041228,2.912618,1.319084,-4.593607,3.424186,-0.968303,-0.631011,-0.164366,0.362244,-0.925537,0.115967,-0.192627,0.100348,0.029350,0.013181,0.999993,-0.003155,-0.000822,0.001811,0.603315,0.041050,-0.784824,0.135561
15285,NaN,10.341827,2.426393,0.899958,-4.090523,3.080191,-0.462254,-0.805260,-0.076623,0.294312,-0.923584,0.118164,-0.190674,0.103379,0.024452,0.008941,0.999991,-0.004026,-0.000383,0.001472,0.606222,0.039778,-0.783522,0.130405
15286,NaN,12.674575,0.134299,1.977744,-5.216095,0.883406,1.874303,-1.057692,-0.025142,0.489857,-0.919678,0.128906,-0.197021,0.126739,0.001758,0.019785,0.999983,-0.005288,-0.000126,0.002449,0.606005,0.034671,-0.784371,0.127739
15287,NaN,12.505619,-0.819605,0.294196,-3.287586,0.363148,2.278969,-1.223121,0.295124,0.590064,-0.923828,0.131104,-0.192871,0.125084,-0.007810,0.002806,0.999976,-0.006116,0.001476,0.002950,0.610205,0.031323,-0.782006,0.123026
15288,NaN,13.866217,-1.412120,-1.255156,-2.010652,0.364649,4.031622,-1.003982,0.690817,0.536824,-0.921875,0.135254,-0.203369,0.138655,-0.013813,-0.012961,0.999978,-0.005020,0.003454,0.002684,0.612721,0.025738,-0.780582,0.120843
15289,NaN,15.381537,-2.021922,-1.711870,-1.600746,0.021118,5.712953,-0.722134,1.072055,0.308313,-0.919922,0.139648,-0.211914,0.153752,-0.020046,-0.017870,0.999978,-0.003611,0.005360,0.001542,0.619997,0.024490,-0.775394,0.117342
15290,NaN,15.917103,-2.244365,-1.319395,-1.892334,-0.175245,6.203471,-0.186697,1.243594,-0.068729,-0.920166,0.144043,-0.224609,0.159077,-0.022511,-0.014162,0.999980,-0.000933,0.006218,-0.000344,0.624870,0.023451,-0.771623,0.116554
15291,NaN,16.464121,-1.545901,-0.732891,-2.350165,0.358216,6.568334,0.453894,1.359277,-0.401435,-0.917725,0.133301,-0.230957,0.164555,-0.015771,-0.008483,0.999972,0.002269,0.006796,-0.002007,0.633130,0.029733,-0.764552,0.117139
15292,NaN,16.586378,-1.044678,-0.786565,-2.142793,0.843514,6.664760,0.916734,1.772443,-0.679269,-0.919678,0.124756,-0.251953,0.165748,-0.010969,-0.009384,0.999944,0.004584,0.008862,-0.003396,0.640134,0.034195,-0.758260,0.118749
15293,NaN,15.873383,-1.452192,-1.402169,-0.859531,0.390015,6.160292,1.409536,2.128350,-0.934864,-0.906738,0.112061,-0.270996,0.158502,-0.015156,-0.015815,0.999908,0.007047,0.010641,-0.004674,0.651669,0.041594,-0.748141,0.117826
15294,NaN,14.682922,-1.649723,-1.271133,-0.391862,0.008934,5.011620,1.734778,2.178016,-1.077330,-0.910645,0.101318,-0.285645,0.146587,-0.017167,-0.014456,0.999889,0.008674,0.010890,-0.005386,0.660018,0.049992,-0.739714,0.121244
15295,NaN,13.210376,-2.430111,-1.287388,0.424547,-0.981382,3.638127,1.643235,1.986741,-1.084113,-0.904053,0.092773,-0.312988,0.131832,-0.024902,-0.014387,0.999902,0.008216,0.009933,-0.005420,0.670447,0.057238,-0.730004,0.119661
15296,NaN,12.184284,-1.518460,-1.322344,0.620729,-0.223786,2.518989,1.164137,1.705508,-1.068463,-0.903564,0.075684,-0.321533,0.121641,-0.015753,-0.014352,0.999932,0.005821,0.008527,-0.005342,0.676934,0.064021,-0.723234,0.120807
15297,NaN,11.042775,0.287726,-0.833699,0.056972,1.202274,1.199529,0.218430,1.386260,-1.089073,-0.899170,0.064941,-0.329834,0.110380,0.002286,-0.009099,0.999961,0.001092,0.006931,-0.005445,0.684692,0.068996,-0.716152,0.116456
15298,NaN,7.503914,-0.132092,0.317009,-0.606516,0.201439,-2.328284,-0.869533,1.313798,-1.590525,-0.894775,0.056396,-0.340332,0.075044,-0.001905,0.002685,0.999937,-0.004348,0.006569,-0.007952,0.690581,0.070951,-0.711566,0.108341
15299,NaN,15.530477,-1.389737,-3.598277,3.471000,0.122268,5.807887,0.172641,1.059120,-1.890138,-0.892090,0.037109,-0.344482,0.154971,-0.015331,-0.036817,0.999941,0.000863,0.005295,-0.009451,0.697351,0.076966,-0.705664,0.099077
15300,NaN,19.739333,3.157808,-1.984888,0.777855,3.981803,9.861760,1.963836,-0.647645,-1.531584,-0.895508,0.015869,-0.346436,0.197691,0.030254,-0.018908,0.999917,0.009819,-0.003238,-0.007658,0.695012,0.089537,-0.706300,0.100406
15301,NaN,17.611709,1.719814,-1.587923,0.876614,2.046499,7.813474,3.090666,0.021988,-2.521090,-0.896729,-0.014160,-0.341797,0.176316,0.015219,-0.015653,0.999801,0.015452,0.000110,-0.012605,0.696447,0.108655,-0.702378,0.099101
15302,NaN,17.635175,0.665506,0.895692,-1.167503,-0.175141,7.817456,2.591000,-0.961578,-3.032561,-0.895752,-0.044189,-0.324707,0.176378,0.003857,0.009867,0.999790,0.012954,-0.004808,-0.015162,0.693019,0.128785,-0.702646,0.097095
15303,NaN,16.962363,0.317172,0.864222,-1.039245,-1.155998,7.102136,1.678065,-2.066069,-3.513946,-0.896729,-0.084961,-0.303223,0.169542,0.000110,0.010404,0.999757,0.008390,-0.010330,-0.017568,0.687415,0.147995,-0.705703,0.086841
15304,NaN,16.524185,0.343002,2.182501,-2.426548,-2.233966,6.527554,1.158321,-2.254289,-3.798587,-0.897949,-0.113037,-0.283936,0.165006,0.000161,0.023693,0.999739,0.005791,-0.011270,-0.018991,0.680075,0.166323,-0.709952,0.076180
15305,NaN,13.907912,-0.550122,0.659231,-0.683881,-2.861978,3.806646,0.163777,-1.451161,-3.421810,-0.894775,-0.145264,-0.281738,0.138905,-0.007885,0.007595,0.999827,0.000819,-0.007255,-0.017108,0.677028,0.179323,-0.711110,0.061625
15306,NaN,10.903613,-0.509441,-3.095978,2.945784,-1.480989,1.043270,-0.949600,0.190995,-2.990339,-0.894287,-0.164307,-0.294189,0.108913,-0.006871,-0.031034,0.999876,-0.004748,0.000955,-0.014951,0.679396,0.186665,-0.707986,0.048288
15307,NaN,8.957951,-0.614327,-4.138906,4.190431,-1.128834,-0.929631,-1.815363,1.763453,-2.555384,-0.881104,-0.183594,-0.311035,0.089119,-0.007664,-0.042111,0.999838,-0.009076,0.008817,-0.012776,0.688674,0.190011,-0.698875,0.034614
15308,NaN,6.240998,-1.767458,-1.775413,2.449864,-2.505395,-4.073122,-2.505937,2.517523,-2.297052,-0.864014,-0.192139,-0.340576,0.061972,-0.018615,-0.018307,0.999776,-0.012529,0.012587,-0.011484,0.700094,0.188936,-0.688301,0.020330
15309,NaN,4.049154,-3.618531,-0.999778,2.236886,-4.038824,-6.784253,-2.646718,2.461832,-2.030575,-0.853027,-0.202881,-0.365967,0.039997,-0.036725,-0.010009,0.999785,-0.013233,0.012308,-0.010152,0.711730,0.187257,-0.677001,0.006686
15310,NaN,2.209997,-4.710581,-0.304195,1.690894,-4.851030,-8.933030,-2.466423,2.808969,-1.334490,-0.840332,-0.204834,-0.395752,0.021745,-0.047287,-0.002767,0.999803,-0.012331,0.014044,-0.006672,0.723451,0.182871,-0.665704,-0.003784
15311,NaN,1.186208,-3.983455,0.604396,0.479701,-4.171541,-9.722523,-2.293704,2.806236,-0.770360,-0.834473,-0.198242,-0.425293,0.011796,-0.039809,0.006335,0.999828,-0.011468,0.014030,-0.003852,0.735301,0.177861,-0.653894,-0.010978
15312,NaN,1.926277,-2.133539,-0.608359,1.326365,-2.334901,-8.620407,-2.173910,2.198534,-0.480283,-0.826172,-0.191895,-0.446533,0.019145,-0.021447,-0.006062,0.999878,-0.010869,0.010992,-0.002401,0.744305,0.171543,-0.645184,-0.017897
15313,NaN,4.465038,1.215445,-2.205349,2.695708,0.541574,-5.486492,-2.085405,1.618466,-0.646176,-0.813721,-0.185303,-0.469971,0.044508,0.011777,-0.022538,0.999908,-0.010427,0.008092,-0.003231,0.751757,0.167245,-0.637431,-0.023917
15314,NaN,8.866348,5.026811,-3.816988,4.562371,3.316942,-0.505312,-1.465573,1.473307,-1.246467,-0.804688,-0.200195,-0.474121,0.088687,0.049431,-0.039187,0.999927,-0.007328,0.007366,-0.006232,0.757474,0.165877,-0.630627,-0.032042
15315,NaN,10.854284,6.369354,-0.970037,2.252723,3.349282,2.146611,-0.432583,1.942917,-1.579657,-0.789795,-0.210938,-0.495117,0.108939,0.062811,-0.010894,0.999919,-0.002163,0.009714,-0.007898,0.763959,0.170220,-0.621309,-0.036986
15316,NaN,6.248027,2.139339,3.572617,-2.266021,-0.457689,-2.669135,-0.924275,2.250588,-1.528650,-0.783203,-0.215088,-0.516357,0.063038,0.021076,0.034921,0.999897,-0.004621,0.011253,-0.007643,0.771375,0.171841,-0.611175,-0.043779
15317,NaN,1.551405,0.351529,3.727662,-3.208643,-0.884044,-7.500042,-1.450851,1.850981,-1.376007,-0.768311,-0.219482,-0.533203,0.015883,0.003676,0.037104,0.999907,-0.007254,0.009255,-0.006880,0.778149,0.171126,-0.602083,-0.051912
15318,NaN,2.999590,-0.286974,3.637612,-2.609664,-1.858640,-6.341821,-1.719060,1.216072,-1.042145,-0.762207,-0.217285,-0.545898,0.030202,-0.002715,0.036217,0.999931,-0.008595,0.006080,-0.005211,0.782957,0.167883,-0.595971,-0.060100
15319,NaN,2.792443,0.574751,2.087214,-1.228961,-0.677592,-6.570047,-1.962509,1.448267,-0.960133,-0.751709,-0.210693,-0.565186,0.028102,0.005816,0.020612,0.999914,-0.009812,0.007241,-0.004801,0.788923,0.163678,-0.588332,-0.068375
15320,NaN,2.668362,1.308795,2.278814,-1.446241,0.031455,-6.358275,-2.031380,1.355130,-0.722375,-0.741455,-0.204346,-0.580078,0.026884,0.013220,0.022473,0.999919,-0.010157,0.006775,-0.003612,0.794261,0.158244,-0.581652,-0.076088
15321,NaN,3.015137,3.505907,3.039309,-1.959926,2.037853,-5.056202,-2.063409,1.332919,-0.492269,-0.741699,-0.195557,-0.586426,0.030438,0.035294,0.029828,0.999922,-0.010317,0.006664,-0.002461,0.796540,0.132002,-0.579531,-0.110647
15322,NaN,3.214160,4.681058,3.335871,-2.015963,3.098485,-4.362530,-2.188806,1.190025,-0.262977,-0.731445,-0.184814,-0.601318,0.032399,0.047128,0.032652,0.999922,-0.010944,0.005950,-0.001315,0.801225,0.124699,-0.573360,-0.117245
15323,NaN,3.089518,5.267355,3.481951,-1.774296,3.855116,-4.208973,-2.231377,1.038284,-0.047625,-0.721191,-0.174072,-0.609863,0.031086,0.053049,0.034068,0.999924,-0.011157,0.005191,-0.000238,0.801740,0.099324,-0.570534,-0.147777
15324,NaN,1.883841,5.594841,2.966135,-1.466451,4.635123,-5.339160,-2.058138,0.786563,0.194417,-0.717529,-0.156982,-0.631104,0.018899,0.056268,0.029009,0.999939,-0.010290,0.003933,0.000972,0.805101,0.091098,-0.565921,-0.152472
15325,NaN,1.269001,5.731462,2.270949,-0.619808,5.040951,-6.095044,-1.662855,0.292372,0.441120,-0.724121,-0.150635,-0.626953,0.012596,0.057529,0.022213,0.999962,-0.008314,0.001462,0.002206,0.803287,0.069815,-0.564870,-0.175438
15326,NaN,1.712420,5.765512,2.322407,-0.453885,4.959140,-5.717885,-1.171219,-0.339165,0.621656,-0.733154,-0.135498,-0.626953,0.016906,0.057843,0.022914,0.999977,-0.005856,-0.001696,0.003108,0.803264,0.063060,-0.565407,-0.176366
15327,NaN,2.941922,6.186407,2.489894,0.090181,4.973061,-4.484822,-0.595127,-0.938025,0.710449,-0.735352,-0.129150,-0.618652,0.029082,0.062042,0.024851,0.999978,-0.002976,-0.004690,0.003552,0.797797,0.046250,-0.569297,-0.193086
15328,NaN,5.243260,6.772100,2.145898,1.154954,4.695892,-2.425428,-0.034671,-1.480300,0.666902,-0.750244,-0.126953,-0.607910,0.052046,0.067899,0.021833,0.999967,-0.000173,-0.007401,0.003334,0.794208,0.042786,-0.575303,-0.190863
15329,NaN,7.801484,6.018784,3.516974,0.377090,3.358109,0.088620,0.155250,-1.880860,0.594044,-0.758789,-0.120605,-0.597412,0.077500,0.060391,0.035947,0.999951,0.000776,-0.009404,0.002970,0.786045,0.030180,-0.583013,-0.203270
15330,NaN,8.519092,4.192254,6.130009,-2.567349,2.040208,1.002528,0.182062,-1.906854,0.654985,-0.775879,-0.118652,-0.576172,0.084463,0.042144,0.062146,0.999949,0.000910,-0.009534,0.003275,0.781084,0.027051,-0.590761,-0.200445
15331,NaN,7.545993,1.188425,5.311957,-3.032799,-0.348623,-1.023570,0.634963,-1.921598,1.099876,-0.788818,-0.112061,-0.563477,0.074878,0.012127,0.053879,0.999934,0.003175,-0.009608,0.005499,0.773548,0.015865,-0.598678,-0.207260
15332,NaN,6.361068,-2.085126,4.806799,-3.907493,-2.945518,-3.181688,1.421271,-2.159518,1.835478,-0.803711,-0.105713,-0.542480,0.063278,-0.020614,0.048605,0.999874,0.007106,-0.010797,0.009177,0.768775,0.013632,-0.608573,-0.196056
15333,NaN,7.630295,-3.862723,3.219188,-2.897675,-5.153694,-2.845231,1.560369,-2.159554,2.530055,-0.821045,-0.093018,-0.523438,0.076434,-0.037915,0.032719,0.999831,0.007801,-0.010797,0.012650,0.762282,0.002001,-0.617875,-0.192752
15334,NaN,13.009372,-4.057068,-4.087784,4.736588,-8.383895,0.659475,1.205915,-2.305414,2.732150,-0.834229,-0.075928,-0.500244,0.131091,-0.038543,-0.039607,0.999822,0.006029,-0.011526,0.013660,0.757645,-0.004061,-0.627740,-0.178606
15335,NaN,21.719683,-3.131817,-5.152955,6.787786,-9.709274,9.362080,1.122372,-3.634452,2.778399,-0.855469,-0.065186,-0.472656,0.218492,-0.028014,-0.047730,0.999723,0.005611,-0.018171,0.013891,0.746866,-0.019062,-0.641612,-0.173671
15336,NaN,30.428420,-5.366189,2.164675,-0.318608,-11.263250,19.037397,1.113913,-2.709483,2.112769,-0.862305,-0.052490,-0.458008,0.304501,-0.050581,0.025484,0.999837,0.005569,-0.013547,0.010563,0.739994,-0.024025,-0.652390,-0.161925
15337,NaN,29.540532,-7.101536,4.529688,-3.598021,-11.472348,18.454092,0.493531,-0.857064,1.612012,-0.870850,-0.043945,-0.449707,0.295768,-0.068746,0.046392,0.999955,0.002468,-0.004285,0.008060,0.737648,-0.032715,-0.655308,-0.159300
15338,NaN,21.259304,-4.264648,2.198379,-1.354919,-7.427493,10.631580,0.538070,-0.387503,1.326571,-0.873535,-0.028809,-0.449707,0.212827,-0.041295,0.022284,0.999973,0.002690,-0.001937,0.006633,0.737503,-0.035380,-0.656930,-0.152580
15339,NaN,13.560557,0.141059,-1.318838,2.504599,-2.542631,3.336732,0.266856,-0.494105,1.211355,-0.880127,-0.020264,-0.443359,0.135626,0.002249,-0.012851,0.999978,0.001334,-0.002471,0.006057,0.736395,-0.042169,-0.658327,-0.150167
15340,NaN,11.642373,0.871172,-3.865189,4.932428,-2.016146,1.270929,0.100008,-0.996310,1.316022,-0.886719,-0.009766,-0.432861,0.116554,0.009498,-0.038067,0.999966,0.000500,-0.004981,0.006580,0.734100,-0.046875,-0.661770,-0.144780
15341,NaN,9.573696,1.306379,-2.591694,3.616709,-0.806973,-0.520486,0.021109,-0.649920,1.627072,-0.889404,0.005371,-0.435059,0.095710,0.013845,-0.025604,0.999962,0.000106,-0.003250,0.008135,0.732612,-0.055855,-0.663479,-0.141264
15342,NaN,8.300009,1.786200,0.186640,0.989314,0.720497,-1.409354,-0.041262,-0.341255,1.606622,-0.889648,0.016113,-0.428955,0.082850,0.018528,0.002004,0.999966,-0.000206,-0.001706,0.008033,0.732578,-0.061570,-0.664229,-0.135419
15343,NaN,6.893668,2.506857,1.105901,0.215466,1.955191,-2.660094,0.214303,-0.259131,1.628792,-0.894287,0.031006,-0.428955,0.068715,0.025617,0.011175,0.999965,0.001072,-0.001296,0.008144,0.732555,-0.068380,-0.664649,-0.130108
15344,NaN,5.884901,1.504940,-0.769147,1.656266,0.688046,-3.958533,0.308303,0.051224,1.512906,-0.890137,0.037354,-0.424805,0.058731,0.015506,-0.007683,0.999970,0.001541,0.000256,0.007564,0.733794,-0.072239,-0.664125,-0.123558
15345,NaN,5.768515,0.095854,-1.894725,2.354300,-0.875887,-4.284170,0.229838,0.075549,1.291200,-0.894775,0.046143,-0.428955,0.057670,0.001353,-0.018968,0.999978,0.001149,0.000378,0.006456,0.734757,-0.076708,-0.663452,-0.118657
15346,NaN,6.407028,-1.400481,-1.754573,1.879092,-2.244267,-3.687202,0.192043,-0.394433,1.153967,-0.897217,0.056641,-0.427002,0.064184,-0.013618,-0.017432,0.999981,0.000960,-0.001972,0.005770,0.734193,-0.080058,-0.664559,-0.113630
15347,NaN,8.136643,-2.099394,-1.025483,1.123069,-2.723459,-1.876432,0.028563,-1.029602,1.114739,-0.897461,0.065186,-0.412354,0.081533,-0.020538,-0.009838,0.999971,0.000143,-0.005148,0.005574,0.731354,-0.084298,-0.668024,-0.108445
15348,NaN,10.991445,-2.379221,-0.376410,0.579217,-2.820605,1.064798,0.160587,-1.473854,1.030658,-0.904053,0.073730,-0.403809,0.110059,-0.023223,-0.002972,0.999959,0.000803,-0.007369,0.005153,0.727028,-0.087944,-0.673038,-0.103517
15349,NaN,13.187246,-1.502230,0.957606,-0.426559,-1.526258,3.399529,0.553885,-1.245633,0.892923,-0.906250,0.082275,-0.395508,0.131875,-0.014461,0.010357,0.999967,0.002769,-0.006228,0.004465,0.723471,-0.089457,-0.677631,-0.096973
15350,NaN,11.866774,-0.444883,1.144783,-0.499642,-0.302673,2.103113,0.626945,-0.687594,0.832506,-0.910645,0.082275,-0.389160,0.118645,-0.003992,0.011843,0.999981,0.003135,-0.003438,0.004163,0.721812,-0.090337,-0.680036,-0.091531
15351,NaN,9.743502,-0.311308,-0.113998,0.586678,-0.361785,-0.087982,0.430159,-0.493277,0.862836,-0.908691,0.088867,-0.385010,0.097450,-0.002691,-0.000906,0.999985,0.002151,-0.002466,0.004314,0.720707,-0.091556,-0.681819,-0.085564
15352,NaN,7.945893,-0.432279,-0.273728,0.588138,-0.436683,-1.884139,0.297276,-0.527772,0.846786,-0.913086,0.097412,-0.382812,0.079483,-0.003982,-0.002534,0.999986,0.001486,-0.002639,0.004234,0.719397,-0.093592,-0.683451,-0.081259
15353,NaN,6.559026,-1.167178,0.406386,-0.345681,-0.923252,-3.211473,0.595484,-0.714053,0.830562,-0.913086,0.099365,-0.372314,0.065623,-0.011412,0.004264,0.999981,0.002977,-0.003570,0.004153,0.717556,-0.093913,-0.686109,-0.074487
15354,NaN,5.439794,1.365674,-0.233774,0.783898,1.420555,-4.438851,0.946604,-0.832114,0.841526,-0.917725,0.110107,-0.368164,0.054349,0.013896,-0.002046,0.999971,0.004733,-0.004161,0.004208,0.715439,-0.093706,-0.689032,-0.067830
15355,NaN,4.777336,2.901612,-1.283311,2.070978,2.724606,-5.210924,0.744293,-0.833133,0.830403,-0.921875,0.112305,-0.364014,0.047705,0.029261,-0.012526,0.999976,0.003721,-0.004166,0.004152,0.713134,-0.093769,-0.692060,-0.060823
15356,NaN,4.572132,2.929331,-0.965651,1.713720,2.868767,-5.425116,0.534900,-0.811952,0.827392,-0.926270,0.114502,-0.355469,0.045638,0.029508,-0.009392,0.999980,0.002674,-0.004060,0.004137,0.710813,-0.094966,-0.694716,-0.055642
15357,NaN,5.818783,3.100015,-0.506845,1.282413,3.259737,-4.204273,0.201650,-0.814843,0.766153,-0.926270,0.120850,-0.349121,0.058088,0.031228,-0.004800,0.999984,0.001008,-0.004074,0.003831,0.708211,-0.096325,-0.697569,-0.050566
15358,NaN,6.557715,2.325249,0.209077,0.398772,2.748672,-3.429930,-0.226562,-0.761849,0.601013,-0.924316,0.127197,-0.338623,0.065498,0.023452,0.002314,0.999988,-0.001133,-0.003809,0.003005,0.705588,-0.099411,-0.699911,-0.048862
15359,NaN,6.437742,1.690162,0.220177,0.208671,2.166914,-3.519010,-0.493784,-0.794560,0.394703,-0.926758,0.133545,-0.332275,0.064335,0.017034,0.002415,0.999987,-0.002469,-0.003973,0.001974,0.702578,-0.101742,-0.702688,-0.047568
15360,NaN,6.490624,1.009735,0.486082,-0.231908,1.594362,-3.426134,-0.517965,-0.775609,0.257245,-0.930908,0.133545,-0.325928,0.064874,0.010194,0.005086,0.999988,-0.002590,-0.003878,0.001286,0.699643,-0.104645,-0.705150,-0.048091
15361,NaN,5.194724,-0.299761,0.023514,-0.104077,0.140894,-4.612233,-0.308607,-0.783535,0.203067,-0.930908,0.135742,-0.317627,0.051949,-0.002944,0.000443,0.999991,-0.001543,-0.003918,0.001015,0.696705,-0.105570,-0.707997,-0.046880
15362,NaN,6.293378,-1.006032,0.648015,-0.915513,-0.298715,-3.479363,0.025915,-0.805457,0.237901,-0.935303,0.139893,-0.313232,0.062919,-0.009986,0.006732,0.999991,0.000130,-0.004027,0.001190,0.693918,-0.106506,-0.710676,-0.045537
15363,NaN,7.494414,-0.122194,0.375996,-0.532976,0.635163,-2.353819,0.309632,-0.817639,0.213244,-0.935303,0.142090,-0.302734,0.074929,-0.001148,0.004064,0.999990,0.001548,-0.004088,0.001066,0.691186,-0.105113,-0.713763,-0.041905
15364,NaN,8.859012,0.218334,0.496488,-0.669039,1.144487,-1.036674,0.626503,-0.719988,0.205614,-0.941650,0.137695,-0.302734,0.088569,0.002258,0.005291,0.999988,0.003133,-0.003600,0.001028,0.688981,-0.103827,-0.716266,-0.038581
15365,NaN,10.323484,1.650596,0.213800,-0.217494,2.653699,0.299419,0.836760,-0.503463,0.164569,-0.941406,0.137695,-0.296387,0.103215,0.016581,0.002467,0.999988,0.004184,-0.002517,0.000823,0.687603,-0.100508,-0.718311,-0.033594
15366,NaN,10.448726,1.758937,0.305982,-0.347976,2.813791,0.401254,0.951388,-0.366149,0.154376,-0.943848,0.142090,-0.290039,0.104468,0.017655,0.003335,0.999987,0.004757,-0.001831,0.000772,0.686784,-0.097848,-0.719643,-0.029464
15367,NaN,10.703552,2.705166,0.749990,-0.697293,3.865201,0.532351,1.116001,-0.513137,0.158898,-0.943604,0.137695,-0.292236,0.106994,0.027093,0.007926,0.999981,0.005580,-0.002566,0.000794,0.685448,-0.094049,-0.721620,-0.024108
15368,NaN,11.288871,3.935657,0.576378,-0.438126,5.129141,0.992827,1.246149,-0.549688,0.167498,-0.943604,0.137695,-0.287842,0.112839,0.039413,0.006319,0.999976,0.006231,-0.002748,0.000837,0.684055,-0.090442,-0.723558,-0.018781
15369,NaN,11.701037,4.463209,-0.198676,0.277542,5.603904,1.385174,1.261667,-0.480708,0.178777,-0.947998,0.139893,-0.285889,0.116974,0.044747,-0.001424,0.999977,0.006308,-0.002404,0.000894,0.682856,-0.086505,-0.725291,-0.013320
15370,NaN,11.993491,4.635682,-0.690311,0.666366,5.778308,1.675389,1.053301,-0.520485,0.185999,-0.945557,0.135498,-0.281494,0.119909,0.046503,-0.006346,0.999982,0.005266,-0.002602,0.000930,0.681425,-0.083612,-0.727045,-0.008641
15371,NaN,12.756512,4.534547,0.246385,-0.425356,5.917440,2.359117,0.629040,-0.820012,0.245097,-0.949707,0.135498,-0.266846,0.127498,0.045493,0.003130,0.999986,0.003145,-0.004100,0.001225,0.678674,-0.082820,-0.729730,-0.006025
15372,NaN,14.150658,4.620558,1.294588,-1.671312,6.339861,3.614061,0.016850,-0.991993,0.353200,-0.949951,0.142090,-0.264648,0.141358,0.046454,0.013651,0.999986,0.000084,-0.004960,0.001766,0.675064,-0.084077,-0.732940,-0.004356
15373,NaN,14.837229,4.466694,1.960274,-2.503815,6.416544,4.204961,-0.582910,-0.955717,0.475825,-0.952148,0.146240,-0.245605,0.148170,0.045078,0.020180,0.999982,-0.002915,-0.004779,0.002379,0.671323,-0.088259,-0.735870,-0.005562
15374,NaN,14.310632,3.828923,2.291208,-2.952414,5.865038,3.662755,-1.004250,-0.794915,0.568804,-0.952393,0.156982,-0.247803,0.142904,0.038812,0.023286,0.999975,-0.005021,-0.003975,0.002844,0.667956,-0.093738,-0.738241,-0.006999
15375,NaN,14.233887,2.863428,2.297250,-3.116921,5.011646,3.650112,-1.220943,-0.563963,0.611908,-0.958984,0.161133,-0.239502,0.142185,0.029211,0.023196,0.999973,-0.006105,-0.002820,0.003060,0.665387,-0.100842,-0.739579,-0.010725
15376,NaN,14.826649,2.011367,1.359217,-2.400648,4.226605,4.403300,-1.268514,-0.280892,0.608291,-0.957031,0.171875,-0.230957,0.148185,0.020651,0.013670,0.999974,-0.006343,-0.001404,0.003041,0.663725,-0.107320,-0.740119,-0.013253
15377,NaN,16.700277,0.720182,0.529118,-1.971087,3.171072,6.489346,-1.179923,-0.003599,0.502804,-0.957275,0.176270,-0.233154,0.166984,0.007653,0.005250,0.999979,-0.005900,-0.000018,0.002514,0.663257,-0.113265,-0.739575,-0.017068
15378,NaN,17.655895,-0.131984,0.348752,-1.985498,2.504266,7.555537,-1.099971,0.531585,0.228070,-0.955322,0.182617,-0.237549,0.176569,-0.001101,0.003025,0.999981,-0.005500,0.002658,0.001140,0.664607,-0.117704,-0.737574,-0.020682
15379,NaN,17.833480,-1.065628,1.194575,-2.874326,1.750776,7.773277,-0.799074,1.010625,-0.108169,-0.953125,0.180420,-0.248047,0.178386,-0.010707,0.011087,0.999979,-0.003995,0.005053,-0.000541,0.668040,-0.119809,-0.733972,-0.025555
15380,NaN,16.938393,-1.672236,1.694071,-3.231644,1.058236,6.950582,-0.259704,1.382317,-0.432365,-0.951172,0.180664,-0.264893,0.169459,-0.017068,0.015792,0.999973,-0.001299,0.006912,-0.002162,0.672885,-0.118905,-0.729561,-0.028782
15381,NaN,15.333039,-2.020114,1.053590,-2.346653,0.214196,5.508322,0.386084,1.673276,-0.754493,-0.952881,0.163330,-0.279541,0.153333,-0.020798,0.009213,0.999956,0.001930,0.008366,-0.003772,0.679327,-0.114493,-0.724151,-0.031806
15382,NaN,13.956459,-2.421576,0.503055,-1.591057,-0.639593,4.256838,0.823399,1.768188,-1.022564,-0.950439,0.155029,-0.294434,0.139475,-0.024946,0.003695,0.999939,0.004117,0.008841,-0.005113,0.685997,-0.107701,-0.718817,-0.033311
15383,NaN,13.507355,-2.978402,0.088968,-1.044901,-1.538214,3.893576,0.911080,1.707864,-1.198421,-0.946045,0.144287,-0.309082,0.134892,-0.030593,-0.000401,0.999935,0.004555,0.008539,-0.005992,0.692679,-0.099012,-0.713556,-0.035086
15384,NaN,12.556549,-3.101726,-0.080139,-0.671213,-1.989323,2.949721,0.944819,1.636916,-1.330787,-0.943604,0.129395,-0.328125,0.125342,-0.031844,-0.001977,0.999933,0.004724,0.008184,-0.006654,0.698708,-0.090693,-0.708663,-0.037136
15385,NaN,12.520338,-1.677047,1.330434,-1.607969,-0.567613,2.774096,0.719217,1.584324,-1.399559,-0.940918,0.112305,-0.342773,0.125182,-0.017692,0.012250,0.999938,0.003596,0.007921,-0.006998,0.704547,-0.083399,-0.703515,-0.041528
15386,NaN,11.118627,-1.314335,-0.176112,0.102206,-0.776677,1.357018,0.661388,1.778430,-1.650178,-0.936279,0.097168,-0.357422,0.111051,-0.014052,-0.002794,0.999921,0.003307,0.008892,-0.008251,0.710681,-0.074884,-0.698019,-0.045757
15387,NaN,9.674284,-1.550758,-1.439820,1.451848,-1.515692,-0.135003,0.977211,2.036987,-2.070583,-0.933350,0.067383,-0.376221,0.096422,-0.016433,-0.015460,0.999883,0.004886,0.010185,-0.010353,0.717766,-0.064281,-0.691369,-0.051858
15388,NaN,9.790722,1.858531,-0.097562,0.842926,1.825468,-0.051970,1.437393,1.995915,-2.492555,-0.930664,0.048096,-0.386719,0.098113,0.017374,-0.001826,0.999847,0.007187,0.009979,-0.012462,0.724372,-0.049974,-0.685273,-0.056471
15389,NaN,16.843869,4.366407,-1.605438,3.104241,3.672231,6.986927,2.039710,-0.095791,-2.098179,-0.929688,0.015869,-0.384277,0.168893,0.042054,-0.015539,0.999893,0.010198,-0.000479,-0.010491,0.723988,-0.036033,-0.686384,-0.058485
15390,NaN,15.571156,3.308667,-2.190104,3.307480,2.273724,5.746316,2.292217,-0.508155,-2.561753,-0.933105,-0.014160,-0.375488,0.156175,0.031333,-0.021139,0.999849,0.011461,-0.002541,-0.012808,0.721799,-0.019082,-0.689250,-0.059794
15391,NaN,13.689803,1.131636,0.022129,0.595308,0.096834,3.910029,1.702045,-1.023104,-2.870505,-0.934326,-0.044189,-0.371094,0.137038,0.009344,0.001007,0.999848,0.008510,-0.005115,-0.014352,0.717440,-0.004394,-0.693462,-0.066113
15392,NaN,12.257979,-0.296153,1.804048,-1.554328,-1.390878,2.403498,0.872058,-1.203114,-3.073896,-0.935303,-0.078369,-0.360352,0.122403,-0.004925,0.018759,0.999854,0.004360,-0.006015,-0.015369,0.712168,0.009001,-0.698031,-0.074083
15393,NaN,11.005257,-0.522323,3.361277,-3.273014,-1.653310,1.106685,0.284895,-0.344483,-2.688324,-0.937012,-0.097656,-0.364258,0.109911,-0.006749,0.033793,0.999907,0.001424,-0.001722,-0.013441,0.709762,0.017749,-0.699070,-0.084993
15394,NaN,9.824792,0.153557,1.911157,-1.768889,-1.196253,-0.033168,-0.898060,0.960059,-2.058903,-0.923828,-0.108398,-0.376953,0.098348,0.000608,0.018636,0.999925,-0.004490,0.004800,-0.010294,0.712270,0.022171,-0.695045,-0.095351
15395,NaN,8.338782,0.679540,-1.493805,1.768639,-0.988933,-1.559393,-2.129131,2.152052,-1.653936,-0.913086,-0.119141,-0.400146,0.083272,0.005941,-0.015901,0.999851,-0.010645,0.010760,-0.008269,0.718746,0.018741,-0.685965,-0.111826
15396,NaN,6.297097,-0.231524,-3.429550,3.637040,-1.920114,-3.934852,-2.405519,2.435136,-1.472078,-0.902344,-0.123291,-0.423584,0.062526,-0.003195,-0.035024,0.999826,-0.012027,0.012175,-0.007360,0.726375,0.016510,-0.675611,-0.125122
15397,NaN,5.351145,-3.197214,-3.014177,2.745825,-4.701991,-5.535873,-1.711899,2.107628,-1.507323,-0.898193,-0.127441,-0.444580,0.052948,-0.032632,-0.030424,0.999879,-0.008559,0.010538,-0.007536,0.732259,0.014949,-0.666575,-0.138748
15398,NaN,5.647648,-3.646065,0.108841,-0.323322,-4.787126,-5.103242,-1.079023,2.487695,-1.422593,-0.881104,-0.133789,-0.469971,0.056225,-0.036857,0.000586,0.999883,-0.005395,0.012438,-0.007113,0.739558,0.017470,-0.656533,-0.147354
15399,NaN,5.142892,-3.756202,-0.131660,-0.128233,-4.886799,-5.728888,-1.898926,2.712979,-1.342435,-0.874756,-0.135986,-0.497559,0.051154,-0.037921,-0.001653,0.999840,-0.009494,0.013564,-0.006712,0.747017,0.014814,-0.644817,-0.161115
15400,NaN,5.270728,-2.564197,-1.815523,1.810415,-4.188181,-5.710078,-2.279251,2.107388,-1.501959,-0.864014,-0.140137,-0.518555,0.052319,-0.026245,-0.018411,0.999851,-0.011396,0.010536,-0.007509,0.752659,0.012845,-0.634901,-0.173897
15401,NaN,6.284765,-1.098727,-0.740330,1.285580,-2.997135,-4.279493,-1.791044,1.703502,-1.588293,-0.849365,-0.140137,-0.531494,0.062692,-0.011554,-0.007836,0.999892,-0.008955,0.008517,-0.007941,0.756142,0.010702,-0.626714,-0.188056
15402,NaN,7.473162,0.796969,1.428360,-0.024223,-1.244205,-2.264681,-1.145505,1.525413,-1.764961,-0.840576,-0.152832,-0.550293,0.074904,0.007389,0.013669,0.999916,-0.005727,0.007627,-0.008825,0.759259,0.013342,-0.619721,-0.198226
15403,NaN,6.673936,0.609712,2.977187,-1.589340,-0.949659,-2.717135,-0.610219,1.463942,-1.908165,-0.827637,-0.161377,-0.558838,0.067009,0.005548,0.029265,0.999923,-0.003051,0.007320,-0.009541,0.761289,0.016659,-0.613368,-0.209619
15404,NaN,5.584841,-0.276997,2.625332,-1.639167,-1.596916,-4.074980,-0.340143,1.304562,-1.852073,-0.818848,-0.174316,-0.569336,0.055990,-0.003244,0.025894,0.999934,-0.001701,0.006523,-0.009260,0.763327,0.022417,-0.607850,-0.217594
15405,NaN,5.697445,1.006934,1.179670,0.154336,-0.928215,-3.983473,-0.043084,0.923402,-1.903154,-0.811768,-0.191406,-0.571289,0.057120,0.009529,0.011531,0.999944,-0.000215,0.004617,-0.009516,0.763339,0.027164,-0.604036,-0.227412
15406,NaN,6.298776,2.148644,3.031719,-1.083689,0.169200,-2.582345,-0.092802,1.106917,-1.677588,-0.798828,-0.206299,-0.588135,0.063332,0.020970,0.029958,0.999949,-0.000464,0.005534,-0.008388,0.764748,0.033140,-0.599446,-0.233938
15407,NaN,5.829103,2.973531,4.905251,-2.557849,1.409289,-2.173924,-0.882129,1.589838,-1.326171,-0.783936,-0.208496,-0.605225,0.058874,0.029561,0.048455,0.999937,-0.004411,0.007949,-0.006631,0.767545,0.034293,-0.592069,-0.243215
15408,NaN,3.793288,2.528148,2.548968,-0.773366,1.224798,-4.794914,-1.551844,1.950255,-0.978786,-0.773438,-0.206299,-0.617920,0.038302,0.025289,0.024921,0.999910,-0.007759,0.009751,-0.004894,0.772324,0.033610,-0.582475,-0.251214
15409,NaN,3.197618,4.821632,1.280739,1.216426,3.111557,-4.918831,-1.863712,1.606925,-0.642720,-0.765137,-0.199707,-0.639160,0.032230,0.048228,0.012100,0.999919,-0.009318,0.008034,-0.003214,0.775984,0.029213,-0.573713,-0.260477
15410,NaN,4.673114,6.825213,2.327664,1.486276,4.402865,-2.584852,-2.104512,1.192230,-0.518050,-0.755127,-0.184814,-0.651855,0.047043,0.068368,0.022278,0.999924,-0.010522,0.005961,-0.002590,0.778977,0.024091,-0.566226,-0.268335
15411,NaN,5.471518,6.811892,2.908869,1.368652,4.129421,-1.696579,-2.329627,1.054709,-0.365079,-0.755371,-0.176025,-0.660400,0.054989,0.068349,0.028004,0.999917,-0.011648,0.005273,-0.001825,0.780990,0.016105,-0.558829,-0.278396
15412,NaN,5.517780,6.482117,3.428709,1.008485,3.946437,-1.589306,-2.452919,0.962544,-0.168674,-0.749512,-0.163330,-0.679688,0.055394,0.065186,0.033223,0.999913,-0.012264,0.004813,-0.000843,0.783574,0.008343,-0.551593,-0.285812
15413,NaN,4.441313,6.348009,3.691252,0.721472,4.390281,-2.474511,-2.457644,0.840775,0.043588,-0.741699,-0.143799,-0.688232,0.044552,0.063935,0.035942,0.999916,-0.012288,0.004204,0.000218,0.785232,-0.001473,-0.544622,-0.294611
15414,NaN,3.362814,6.164240,3.668304,0.599627,4.740986,-3.494174,-2.260541,0.480975,0.253492,-0.739746,-0.133057,-0.694580,0.033637,0.062094,0.035902,0.999932,-0.011302,0.002405,0.001267,0.786845,-0.010324,-0.539363,-0.299760
15415,NaN,3.171119,5.604682,3.169551,0.859692,4.221795,-4.072418,-1.719165,-0.006317,0.402864,-0.742188,-0.122559,-0.694824,0.031597,0.056380,0.031213,0.999961,-0.008596,-0.000032,0.002014,0.786856,-0.018779,-0.536610,-0.304228
15416,NaN,3.136594,5.068030,2.724400,1.029728,3.676478,-4.486496,-0.990305,-0.452251,0.463707,-0.744873,-0.107422,-0.690674,0.031187,0.050887,0.027063,0.999982,-0.004951,-0.002261,0.002319,0.786241,-0.024600,-0.536828,-0.305018
15417,NaN,3.192699,4.258024,2.756688,0.626234,3.043556,-4.687483,-0.357992,-1.029995,0.528037,-0.761719,-0.109619,-0.682129,0.031672,0.042714,0.027654,0.999982,-0.001790,-0.005150,0.002640,0.783989,-0.029141,-0.540100,-0.304638
15418,NaN,4.130272,4.054948,2.583132,0.843589,2.454829,-4.030326,0.163377,-1.611912,0.501484,-0.776855,-0.101074,-0.669434,0.040991,0.040631,0.026196,0.999964,0.000817,-0.008059,0.002507,0.780395,-0.032302,-0.546573,-0.301991
15419,NaN,5.413117,3.352188,3.445464,-0.040761,1.728136,-2.782761,0.583049,-2.145843,0.531684,-0.789307,-0.105469,-0.645996,0.053667,0.033563,0.035130,0.999935,0.002915,-0.010729,0.002658,0.774897,-0.035308,-0.555519,-0.299479
15420,NaN,5.551367,1.284471,5.503046,-2.919721,0.883826,-2.502306,0.911319,-2.386499,0.967403,-0.808594,-0.099121,-0.629150,0.054789,0.012858,0.055746,0.999907,0.004556,-0.011932,0.004837,0.769804,-0.038027,-0.565906,-0.292756
15421,NaN,4.331612,-0.673026,5.754816,-4.452765,-0.034320,-4.111513,1.153372,-2.368318,1.747190,-0.827637,-0.092773,-0.610107,0.042689,-0.006689,0.058018,0.999875,0.005767,-0.011841,0.008736,0.765779,-0.041747,-0.576158,-0.282633
15422,NaN,4.760517,-1.315528,3.674119,-2.983631,-1.440829,-4.624949,1.244127,-2.548568,2.354656,-0.847168,-0.082031,-0.591064,0.047285,-0.012828,0.037265,0.999830,0.006220,-0.012742,0.011773,0.761894,-0.047354,-0.587083,-0.269460
15423,NaN,9.708382,-1.549170,-2.567718,3.082802,-5.633336,-1.938864,1.233038,-2.535377,2.293086,-0.866455,-0.069336,-0.563721,0.097568,-0.014221,-0.024533,0.999835,0.006165,-0.012676,0.011465,0.757738,-0.052618,-0.597581,-0.256829
15424,NaN,16.553394,-0.582438,-4.161035,5.786519,-7.261609,4.519524,1.117840,-3.472159,2.040129,-0.889893,-0.058594,-0.536133,0.166270,-0.003909,-0.038753,0.999782,0.005589,-0.017360,0.010200,0.750112,-0.058918,-0.611502,-0.244797
15425,NaN,24.408915,-1.907707,4.055138,-1.435736,-7.018331,13.946802,0.947087,-2.775621,1.590684,-0.900879,-0.048096,-0.517090,0.243638,-0.017341,0.043850,0.999861,0.004735,-0.013877,0.007953,0.743754,-0.063460,-0.622440,-0.235311
15426,NaN,25.225145,-4.426789,3.798053,-2.494223,-9.065649,14.310030,0.320396,-1.339233,1.296423,-0.905518,-0.037354,-0.515137,0.252270,-0.042695,0.039601,0.999955,0.001602,-0.006696,0.006482,0.741179,-0.067869,-0.627357,-0.229063
15427,NaN,21.689041,-3.730992,2.112020,-1.159439,-7.868314,10.815769,0.108230,-0.762648,1.175004,-0.911621,-0.037354,-0.496094,0.217022,-0.036047,0.021928,0.999975,0.000541,-0.003813,0.005875,0.740173,-0.071978,-0.629827,-0.224235
15428,NaN,15.798634,-0.156876,0.343804,1.309418,-3.729974,5.487954,0.109661,-0.376963,1.085017,-0.914062,-0.028809,-0.498291,0.157985,-0.000714,0.003735,0.999983,0.000548,-0.001885,0.005425,0.740229,-0.075402,-0.630943,-0.219741
15429,NaN,12.323732,-0.186599,-3.056997,3.998138,-4.123712,1.512617,-0.178435,-0.510735,1.112013,-0.916504,-0.015869,-0.494141,0.123323,-0.001208,-0.030254,0.999981,-0.000892,-0.002554,0.005560,0.739777,-0.080140,-0.632167,-0.216040
15430,NaN,10.073626,-0.267493,-3.811481,4.387862,-3.860566,-0.761865,-0.111368,-0.941527,1.292077,-0.923340,0.001221,-0.483643,0.100929,-0.002044,-0.037639,0.999968,-0.000557,-0.004708,0.006460,0.738128,-0.085643,-0.634990,-0.211235
15431,NaN,9.187383,1.236576,-2.397737,3.619242,-1.635292,-1.099974,-0.374868,-1.107013,1.300032,-0.927979,0.011963,-0.477295,0.091922,0.012919,-0.023493,0.999962,-0.001874,-0.005535,0.006500,0.735782,-0.092313,-0.638132,-0.207101
15432,NaN,9.331386,2.638993,-1.243432,3.150072,0.187306,-0.559269,-0.736268,-1.074254,1.146918,-0.936768,0.024658,-0.466797,0.093226,0.026880,-0.012032,0.999962,-0.003681,-0.005371,0.005735,0.733175,-0.099782,-0.640767,-0.204733
15433,NaN,9.374585,2.686913,-1.273369,3.173899,0.326530,-0.509861,-0.525400,-0.805907,0.996240,-0.939209,0.039795,-0.460449,0.093661,0.027303,-0.012428,0.999976,-0.002627,-0.004030,0.004981,0.731292,-0.105679,-0.642751,-0.202275
15434,NaN,9.878302,0.772071,-0.990488,2.120278,-1.248815,-0.163751,-0.118814,-0.638735,0.864067,-0.941406,0.041748,-0.452148,0.098779,0.008142,-0.009594,0.999985,-0.000594,-0.003194,0.004320,0.730040,-0.109527,-0.644500,-0.199163
15435,NaN,10.164688,-0.623109,-0.498804,1.074804,-2.237956,0.076367,-0.223184,-0.693320,0.747609,-0.947998,0.043945,-0.447754,0.101686,-0.005856,-0.004629,0.999986,-0.001116,-0.003467,0.003738,0.728358,-0.113366,-0.646504,-0.196662
15436,NaN,10.595506,-1.649795,0.163691,0.027961,-2.837111,0.529554,-0.477048,-0.912369,0.729071,-0.948242,0.061035,-0.439453,0.106005,-0.016107,0.002159,0.999980,-0.002385,-0.004562,0.003645,0.725840,-0.118347,-0.648931,-0.195034
15437,NaN,11.306434,-1.246374,-0.340235,0.637703,-2.657074,1.234290,-0.754904,-1.165408,0.755156,-0.952881,0.073975,-0.427002,0.113127,-0.012048,-0.002697,0.999969,-0.003774,-0.005827,0.003776,0.722260,-0.124613,-0.652084,-0.193907
15438,NaN,12.670238,-1.753265,-0.460882,0.519590,-3.179589,2.574332,-0.553491,-1.316625,0.716135,-0.961670,0.080322,-0.420654,0.126791,-0.017090,-0.003727,0.999968,-0.002767,-0.006583,0.003581,0.718293,-0.130212,-0.655834,-0.192304
15439,NaN,13.327881,-3.070542,-0.103756,-0.450416,-4.122075,3.220916,-0.152533,-1.028652,0.588621,-0.963623,0.075928,-0.412109,0.133371,-0.030313,-0.000329,0.999982,-0.000763,-0.005143,0.002943,0.715300,-0.133639,-0.659126,-0.189844
15440,NaN,11.578164,-3.558821,0.458937,-1.338149,-4.037741,1.537865,0.109770,-0.641883,0.483736,-0.970215,0.086670,-0.403809,0.115852,-0.035311,0.004942,0.999992,0.000549,-0.003209,0.002419,0.713711,-0.135441,-0.661197,-0.187327
15441,NaN,9.418675,-4.722603,1.089692,-2.569094,-4.540815,-0.594102,0.420251,-0.633383,0.456496,-0.968018,0.086670,-0.403809,0.094259,-0.047034,0.011096,0.999990,0.002101,-0.003167,0.002282,0.712249,-0.136053,-0.663668,-0.183672
15442,NaN,8.047505,-3.994354,0.530236,-1.838779,-3.967208,-1.946424,0.369264,-0.821850,0.564897,-0.965820,0.086670,-0.393066,0.080565,-0.039726,0.005560,0.999986,0.001846,-0.004109,0.002824,0.710282,-0.137358,-0.666541,-0.179879
15443,NaN,6.747085,-2.897785,-0.078998,-0.895111,-3.088687,-3.210801,0.279711,-0.829144,0.742002,-0.974609,0.095215,-0.384766,0.067580,-0.028726,-0.000550,0.999984,0.001399,-0.004146,0.003710,0.708303,-0.139656,-0.669327,-0.175512
15444,NaN,6.473392,-1.509407,-0.233758,-0.171363,-1.825572,-3.419308,0.335783,-0.487360,0.918910,-0.974854,0.101562,-0.382568,0.064808,-0.014793,-0.002205,0.999985,0.001679,-0.002437,0.004595,0.707702,-0.141961,-0.670696,-0.170796
15445,NaN,6.219207,0.224859,-0.041742,0.399815,-0.099465,-3.602957,0.106883,-0.297781,0.979152,-0.970947,0.114502,-0.378662,0.062181,0.002553,-0.000324,0.999987,0.000534,-0.001489,0.004896,0.707542,-0.145220,-0.671243,-0.166519
15446,NaN,5.559514,0.001798,-0.407835,0.612716,-0.372975,-4.284600,-0.302989,-0.318596,0.930402,-0.975586,0.125244,-0.374268,0.055601,0.000271,-0.003990,0.999987,-0.001515,-0.001593,0.004652,0.707018,-0.149671,-0.671433,-0.164016
15447,NaN,5.579191,-0.136603,0.345245,-0.125335,-0.119031,-4.223846,-0.123474,-0.483521,0.740480,-0.971436,0.131592,-0.370117,0.055788,-0.001157,0.003588,0.999990,-0.000617,-0.002418,0.003702,0.705835,-0.153083,-0.672588,-0.161212
15448,NaN,5.228084,-0.270619,0.164643,-0.049472,-0.265843,-4.582016,0.292984,-0.698062,0.528703,-0.977783,0.133789,-0.363770,0.052282,-0.002571,0.001825,0.999989,0.001465,-0.003490,0.002644,0.704130,-0.154381,-0.674876,-0.157830
15449,NaN,4.663479,0.699474,-0.110289,0.564172,0.541020,-5.160996,0.481002,-1.017908,0.395723,-0.981934,0.133789,-0.357422,0.046626,0.007089,-0.000849,0.999982,0.002405,-0.005090,0.001979,0.701299,-0.154916,-0.678622,-0.153794
15450,NaN,5.728173,1.764558,0.418316,0.524829,1.765577,-4.093645,0.478247,-1.120235,0.296452,-0.990723,0.137939,-0.349121,0.057231,0.017720,0.004546,0.999980,0.002391,-0.005601,0.001482,0.698083,-0.155096,-0.682675,-0.150266
15451,NaN,5.635130,1.295836,-1.240284,1.776586,0.689877,-4.214505,0.645146,-0.895842,0.309662,-0.986084,0.133545,-0.336426,0.056386,0.013085,-0.012108,0.999984,0.003226,-0.004479,0.001548,0.695678,-0.154644,-0.686134,-0.146071
15452,NaN,5.700518,2.335865,-1.663472,2.551302,1.510634,-4.162222,0.908497,-0.710207,0.258540,-0.994629,0.133545,-0.334229,0.057033,0.023507,-0.016326,0.999983,0.004542,-0.003551,0.001293,0.694121,-0.152880,-0.689056,-0.141508
15453,NaN,6.396835,2.324100,-1.045631,1.934538,1.818480,-3.459389,1.123159,-0.833136,0.213894,-0.992432,0.131348,-0.325684,0.063986,0.023367,-0.010059,0.999975,0.005616,-0.004166,0.001069,0.692163,-0.150336,-0.692678,-0.136039
15454,NaN,7.842781,3.216587,0.320894,0.962337,3.261757,-2.041423,1.072505,-0.882600,0.200060,-0.996582,0.131348,-0.319336,0.078380,0.032225,0.003728,0.999975,0.005362,-0.004413,0.001000,0.690032,-0.147907,-0.696295,-0.130970
15455,NaN,8.626208,3.748845,-0.404541,1.740007,3.551749,-1.269539,1.089139,-0.780316,0.206486,-0.996582,0.131348,-0.312988,0.086238,0.037598,-0.003504,0.999977,0.005446,-0.003902,0.001032,0.688155,-0.145366,-0.699653,-0.125688
15456,NaN,9.007694,4.813557,0.633997,1.068533,5.001797,-0.949870,1.109311,-0.913170,0.230098,-0.998535,0.129150,-0.302490,0.089991,0.048201,0.007018,0.999974,0.005547,-0.004566,0.001150,0.685894,-0.142918,-0.703306,-0.120353
15457,NaN,10.050675,5.066488,1.592772,0.109649,5.692088,0.026418,1.030092,-1.142342,0.260902,-1.002930,0.131348,-0.296143,0.100346,0.050711,0.016762,0.999970,0.005150,-0.005712,0.001304,0.682661,-0.140923,-0.707759,-0.114855
15458,NaN,10.927120,5.185336,2.213150,-0.606227,6.136445,0.825044,0.741193,-1.282780,0.378131,-1.007080,0.131348,-0.279053,0.109027,0.051975,0.023024,0.999971,0.003706,-0.006414,0.001891,0.678842,-0.140457,-0.712276,-0.110038
15459,NaN,11.759149,5.594301,2.439555,-0.865906,6.734676,1.563442,0.479196,-1.315492,0.513755,-1.009521,0.142090,-0.270752,0.117283,0.056185,0.025302,0.999972,0.002396,-0.006577,0.002569,0.674682,-0.141273,-0.716730,-0.105566
15460,NaN,12.572596,5.994640,2.707663,-1.165662,7.364014,2.259856,0.175017,-1.356064,0.591773,-1.011719,0.144043,-0.253906,0.125360,0.060293,0.027980,0.999972,0.000875,-0.006780,0.002959,0.670240,-0.143508,-0.720959,-0.101986
15461,NaN,13.154536,5.854219,2.578258,-1.262240,7.350913,2.770192,-0.093000,-1.263893,0.597317,-1.013672,0.144043,-0.239014,0.131203,0.058947,0.026585,0.999975,-0.000465,-0.006319,0.002987,0.665852,-0.146467,-0.724782,-0.099398
15462,NaN,14.550474,5.654420,2.947887,-1.874831,7.529850,4.049584,-0.429560,-1.053180,0.611617,-1.016113,0.158936,-0.226562,0.145173,0.057053,0.030122,0.999979,-0.002148,-0.005266,0.003058,0.662011,-0.150627,-0.727612,-0.098150
15463,NaN,14.936805,2.983282,2.124204,-2.143498,4.931240,4.595834,-0.749682,-0.988916,0.842738,-1.016357,0.167480,-0.216064,0.149133,0.030543,0.021866,0.999972,-0.003748,-0.004945,0.004214,0.658218,-0.156474,-0.729915,-0.097415
15464,NaN,15.116548,1.209481,1.699653,-2.434007,3.316700,4.882018,-1.073225,-0.579141,0.890566,-1.019043,0.182617,-0.216064,0.151059,0.012860,0.017366,0.999971,-0.005366,-0.002896,0.004453,0.655680,-0.163527,-0.730581,-0.097950
15465,NaN,16.338220,0.803861,0.881955,-1.918300,2.926340,6.190951,-0.989699,-0.118602,0.810877,-1.016846,0.186768,-0.211914,0.163342,0.008745,0.008874,0.999979,-0.004948,-0.000593,0.004054,0.654825,-0.169609,-0.729828,-0.098939
15466,NaN,16.868833,0.640945,-0.140394,-1.010728,2.551257,6.844341,-0.657577,0.428338,0.456304,-1.014893,0.188965,-0.216064,0.168670,0.006789,-0.001787,0.999990,-0.003288,0.002142,0.002282,0.656049,-0.173206,-0.727706,-0.100211
15467,NaN,16.262958,-1.075846,-1.447272,-0.315299,0.393642,6.542133,-0.090341,0.767289,-0.079988,-1.021240,0.188965,-0.224609,0.162568,-0.010830,-0.015092,0.999992,-0.000452,0.003836,-0.000400,0.658739,-0.172648,-0.725208,-0.101628
15468,NaN,16.523690,-2.596052,-2.080287,-0.210655,-1.314807,6.989780,0.516372,1.028250,-0.543221,-1.016846,0.182617,-0.237305,0.165056,-0.026354,-0.021719,0.999980,0.002582,0.005141,-0.002716,0.662624,-0.168444,-0.722539,-0.102435
15469,NaN,16.022916,-4.335399,-2.188214,-0.565168,-3.197727,6.611857,1.015102,1.375066,-0.850237,-1.016602,0.165527,-0.251953,0.159887,-0.043919,-0.023204,0.999954,0.005075,0.006875,-0.004251,0.668000,-0.161128,-0.719185,-0.102891
15470,NaN,15.201102,-3.855659,-1.084883,-1.135574,-2.666180,5.637468,1.226920,1.854945,-1.075325,-1.011963,0.154785,-0.279297,0.151690,-0.039299,-0.012496,0.999924,0.006134,0.009274,-0.005376,0.675055,-0.152190,-0.714433,-0.103562
15471,NaN,14.318937,-2.631411,-0.636364,-0.815732,-1.715420,4.635150,1.299270,2.239496,-1.258165,-1.009521,0.137695,-0.296143,0.142936,-0.027165,-0.008140,0.999896,0.006496,0.011197,-0.006291,0.683338,-0.142000,-0.708423,-0.104986
15472,NaN,13.207470,-1.461112,-0.149826,-0.598586,-0.788499,3.438927,1.421386,1.996829,-1.315515,-1.011230,0.120605,-0.317139,0.131950,-0.015462,-0.002924,0.999903,0.007107,0.009984,-0.006577,0.690664,-0.131415,-0.703212,-0.105859
15473,NaN,12.194735,-0.329156,0.372053,-0.539266,0.170998,2.378832,1.499953,1.474040,-1.314816,-1.010498,0.099365,-0.329590,0.121945,-0.004117,0.002793,0.999923,0.007500,0.007370,-0.006574,0.696098,-0.120707,-0.699713,-0.106201
15474,NaN,12.103363,1.095866,0.666478,-0.285683,1.405913,2.273455,1.499739,0.971660,-1.374007,-1.008057,0.086426,-0.335938,0.121136,0.010079,0.006154,0.999936,0.007499,0.004858,-0.006870,0.699629,-0.110149,-0.697913,-0.106321
15475,NaN,12.352891,0.908717,1.076926,-0.693779,1.122557,2.549855,1.449215,0.994083,-1.749258,-1.005371,0.060791,-0.348389,0.123653,0.007931,0.010215,0.999923,0.007246,0.004970,-0.008746,0.702928,-0.098324,-0.696097,-0.108044
15476,NaN,12.362077,-0.251386,0.761812,-0.679445,-0.365858,2.550979,1.499507,1.154785,-2.249267,-0.998291,0.035156,-0.358887,0.123623,-0.003958,0.006878,0.999892,0.007497,0.005774,-0.011246,0.706393,-0.084584,-0.693879,-0.111291
15477,NaN,11.036628,2.279624,0.864148,-0.063749,1.817464,1.342305,1.888873,1.274490,-2.707008,-0.995117,0.000977,-0.369141,0.110714,0.021221,0.008142,0.999844,0.009444,0.006372,-0.013534,0.710012,-0.067691,-0.691440,-0.114947
15478,NaN,16.811831,3.876834,1.905602,-0.679307,2.859788,7.294059,1.681043,-0.496761,-2.398725,-1.005127,-0.018555,-0.354248,0.168517,0.036584,0.019788,0.999890,0.008405,-0.002484,-0.011993,0.707406,-0.053701,-0.694904,-0.117476
15479,NaN,18.136137,4.025952,-0.222964,1.117046,1.959761,8.628077,1.848664,-1.086562,-2.726755,-0.999756,-0.057129,-0.349609,0.181895,0.037794,-0.000885,0.999850,0.009243,-0.005433,-0.013633,0.702433,-0.038201,-0.700429,-0.120535
15480,NaN,14.970910,2.648069,1.411301,-1.074323,0.913107,5.389959,1.502016,-0.826074,-3.220690,-1.000488,-0.099854,-0.343018,0.150048,0.023956,0.014919,0.999834,0.007510,-0.004130,-0.016103,0.697769,-0.022131,-0.704733,-0.126414
15481,NaN,11.819221,-0.806392,1.704008,-2.225807,-2.312197,1.717025,0.907359,-1.024844,-3.072563,-1.001709,-0.127930,-0.330078,0.117960,-0.009956,0.017603,0.999859,0.004537,-0.005124,-0.015362,0.692224,-0.008660,-0.709087,-0.133960
15482,NaN,10.999884,-1.272766,1.245807,-1.972623,-3.010490,0.732840,-0.006362,-0.315378,-2.590955,-0.990479,-0.145020,-0.334229,0.109802,-0.014151,0.012632,0.999915,-0.000032,-0.001577,-0.012954,0.689312,0.000302,-0.710226,-0.142931
15483,NaN,10.145853,-1.395839,-1.846974,1.034486,-3.836947,-0.194976,-1.488930,0.760617,-2.116662,-0.985840,-0.168457,-0.351074,0.101231,-0.015169,-0.018745,0.999909,-0.007444,0.003803,-0.010583,0.690456,0.003305,-0.706422,-0.155650
15484,NaN,8.837284,-0.651540,-3.766584,3.171300,-3.491531,-1.418965,-2.155774,1.679978,-1.785526,-0.975098,-0.168457,-0.374268,0.087987,-0.007713,-0.038327,0.999867,-0.010778,0.008400,-0.008927,0.694943,0.003484,-0.698821,-0.169385
15485,NaN,6.434431,-2.017194,-3.370931,2.616849,-4.311472,-4.209710,-2.656606,2.203811,-1.349766,-0.964600,-0.170410,-0.397461,0.063830,-0.021055,-0.034139,0.999828,-0.013282,0.011018,-0.006748,0.701431,0.000908,-0.688741,-0.183383
15486,NaN,4.239999,-2.581587,-1.948931,1.152870,-4.034595,-6.521472,-2.737595,2.203900,-1.145194,-0.956055,-0.178955,-0.429199,0.042035,-0.026325,-0.019596,0.999829,-0.013687,0.011019,-0.005726,0.707862,-0.002720,-0.678378,-0.196791
15487,NaN,3.235442,-2.229402,-0.637271,-0.008232,-3.138251,-7.364133,-2.340831,2.237995,-0.981594,-0.947754,-0.176758,-0.450439,0.032172,-0.022528,-0.006471,0.999857,-0.011704,0.011189,-0.004908,0.714349,-0.005409,-0.668064,-0.208245
15488,NaN,3.626019,-1.807705,-0.012957,-0.446949,-2.724940,-6.847783,-1.953377,2.223665,-0.807625,-0.939453,-0.174561,-0.473633,0.036184,-0.018226,-0.000355,0.999882,-0.009767,0.011118,-0.004038,0.720798,-0.007364,-0.658031,-0.217696
15489,NaN,5.371903,-0.802871,-0.256745,0.230081,-2.472049,-4.975031,-1.689062,2.028024,-0.849573,-0.924316,-0.180908,-0.499023,0.053655,-0.008281,-0.003043,0.999904,-0.008445,0.010140,-0.004248,0.726411,-0.008411,-0.648850,-0.226386
15490,NaN,7.549381,1.364033,-0.451453,1.375295,-1.388885,-2.380766,-1.018765,2.247778,-1.267680,-0.913818,-0.187256,-0.520264,0.075521,0.013136,-0.005431,0.999904,-0.005094,0.011239,-0.006338,0.732154,-0.005445,-0.639523,-0.234374
15491,NaN,8.707114,2.193860,0.386081,1.118384,-0.963301,-0.947535,-0.454310,2.504302,-1.681948,-0.894287,-0.199951,-0.545654,0.087290,0.021212,0.002720,0.999884,-0.002271,0.012521,-0.008409,0.738087,0.001236,-0.629804,-0.242019
15492,NaN,6.860190,1.421175,1.933587,-0.612380,-0.714979,-2.606435,-0.359077,2.573583,-1.847955,-0.876953,-0.217041,-0.566650,0.068971,0.013609,0.018425,0.999873,-0.001795,0.012867,-0.009239,0.743862,0.008852,-0.619779,-0.249929
15493,NaN,3.852016,-0.011409,3.465533,-2.765068,-0.509932,-5.460573,-0.545686,2.435054,-1.860795,-0.859619,-0.227783,-0.589844,0.038936,-0.000381,0.034184,0.999879,-0.002728,0.012175,-0.009304,0.749010,0.015657,-0.609896,-0.258389
15494,NaN,2.717935,-0.589211,2.921409,-2.554457,-0.790500,-6.793027,-0.688974,2.037075,-1.664816,-0.848877,-0.236328,-0.602539,0.027425,-0.006020,0.028956,0.999908,-0.003445,0.010185,-0.008324,0.753054,0.020791,-0.601190,-0.266548
15495,NaN,3.550791,0.333281,2.052164,-1.255302,-0.666255,-5.951286,-0.693672,1.479123,-1.435351,-0.835938,-0.244873,-0.619385,0.035681,0.003148,0.020247,0.999941,-0.003468,0.007395,-0.007177,0.755616,0.024453,-0.594505,-0.273881
15496,NaN,5.259201,2.237107,3.481759,-1.515058,0.532994,-3.316099,-1.216089,1.373681,-1.250265,-0.825439,-0.242676,-0.636475,0.052968,0.022250,0.034319,0.999938,-0.006080,0.006868,-0.006251,0.758087,0.025462,-0.587459,-0.282041
15497,NaN,4.215242,1.107599,1.949898,-0.649557,-0.454250,-5.104383,-1.337304,1.656825,-0.870078,-0.812744,-0.242676,-0.649170,0.042360,0.011021,0.019075,0.999934,-0.006686,0.008284,-0.004350,0.761850,0.025257,-0.579126,-0.289067
15498,NaN,3.608117,4.056051,2.978564,-0.364460,2.538886,-4.176916,-1.368624,1.281165,-0.600979,-0.800293,-0.233887,-0.670410,0.036392,0.040653,0.029275,0.999952,-0.006843,0.006406,-0.003005,0.764825,0.023641,-0.572163,-0.295150
15499,NaN,5.284342,5.089589,3.997336,-0.413588,2.855482,-1.971772,-1.646048,1.033186,-0.428596,-0.798340,-0.233887,-0.678955,0.053157,0.051107,0.039279,0.999950,-0.008230,0.005166,-0.002143,0.767307,0.020072,-0.565680,-0.301403
15500,NaN,5.847169,5.450636,4.723610,-0.628121,3.075464,-1.074520,-1.819542,0.959397,-0.216551,-0.790283,-0.218994,-0.683350,0.058755,0.054868,0.046457,0.999947,-0.009098,0.004797,-0.001083,0.769833,0.015156,-0.559204,-0.307274
15501,NaN,6.625109,5.941416,5.074404,-0.375022,3.201340,-0.089029,-1.975759,0.745326,0.052824,-0.784180,-0.212402,-0.700195,0.066422,0.059927,0.049906,0.999944,-0.009879,0.003727,0.000264,0.772107,0.008543,-0.553235,-0.312584
15502,NaN,8.643639,7.057904,5.682215,0.247076,3.329739,2.256293,-2.143224,0.726453,0.252275,-0.782715,-0.188721,-0.710938,0.086551,0.071289,0.055746,0.999935,-0.010716,0.003632,0.001261,0.774550,0.000713,-0.547055,-0.317495
15503,NaN,7.656337,7.525090,5.213569,0.938819,4.055138,1.371954,-2.269969,0.729802,0.347329,-0.783203,-0.173828,-0.719482,0.076619,0.075967,0.050997,0.999927,-0.011350,0.003649,0.001737,0.777050,-0.007849,-0.540538,-0.322411
15504,NaN,6.115900,6.751656,4.776699,0.828844,4.082682,-0.408085,-2.242357,0.393022,0.472821,-0.781738,-0.154541,-0.732422,0.061091,0.068190,0.046885,0.999932,-0.011212,0.001965,0.002364,0.778732,-0.017197,-0.535341,-0.326635
15505,NaN,4.585437,5.758270,4.171614,0.656537,3.878479,-2.322003,-2.021681,-0.032280,0.626691,-0.780029,-0.139404,-0.730469,0.045666,0.058144,0.041138,0.999944,-0.010108,-0.000161,0.003133,0.779454,-0.026736,-0.532027,-0.329673
15506,NaN,2.569938,4.545031,3.942303,-0.144033,3.883536,-4.549599,-1.451069,-0.630472,0.711178,-0.793213,-0.124512,-0.726318,0.025413,0.045826,0.039172,0.999962,-0.007255,-0.003152,0.003556,0.778724,-0.035314,-0.531976,-0.330671
15507,NaN,0.749232,3.452307,3.386718,-0.655843,3.732563,-6.716401,-0.513153,-1.355139,0.766703,-0.803955,-0.118164,-0.715820,0.007130,0.034638,0.033828,0.999966,-0.002566,-0.006776,0.003833,0.776276,-0.041496,-0.536188,-0.328903
15508,NaN,0.514984,2.704595,1.819695,0.125309,2.646374,-7.844957,0.542105,-2.221385,0.765275,-0.827393,-0.115967,-0.694580,0.004843,0.027015,0.018325,0.999927,0.002710,-0.011107,0.003826,0.771633,-0.045086,-0.545503,-0.324001
15509,NaN,3.446540,1.243096,2.425975,-0.670161,0.488679,-5.497620,1.262123,-2.786303,0.846590,-0.848145,-0.126709,-0.668945,0.034070,0.012420,0.024815,0.999874,0.006310,-0.013931,0.004233,0.765601,-0.046922,-0.557965,-0.316745
15510,NaN,6.018881,-0.533290,6.299210,-4.502680,-0.296053,-2.341043,1.754440,-2.656465,1.281290,-0.869629,-0.118164,-0.652100,0.059380,-0.005508,0.063737,0.999853,0.008772,-0.013282,0.006406,0.760516,-0.047973,-0.570529,-0.306284
15511,NaN,8.156430,0.102110,7.836940,-5.291766,0.116656,0.183978,1.742395,-2.286262,1.770929,-0.880127,-0.114014,-0.624512,0.080652,0.001050,0.079304,0.999858,0.008712,-0.011431,0.008854,0.757031,-0.049815,-0.581297,-0.294138
15512,NaN,10.139147,0.804517,-1.167195,2.861468,-3.618650,-0.673780,1.598404,-2.615831,1.740951,-0.907715,-0.112061,-0.601074,0.101456,0.009014,-0.010276,0.999845,0.007992,-0.013078,0.008704,0.752267,-0.052655,-0.593024,-0.282213
15513,NaN,13.258866,-0.828283,-2.794474,3.684255,-6.466745,1.539557,1.762600,-3.814757,1.546697,-0.933350,-0.107910,-0.561035,0.133148,-0.007023,-0.025474,0.999749,0.008812,-0.019072,0.007733,0.743435,-0.055933,-0.609215,-0.270247
15514,NaN,20.826205,0.581449,3.109371,-0.405243,-4.884904,10.672795,1.466483,-3.628336,1.478817,-0.948242,-0.101562,-0.535645,0.207602,0.007105,0.034913,0.999781,0.007332,-0.018140,0.007394,0.734627,-0.059868,-0.624135,-0.259218
15515,NaN,24.652648,-1.371952,0.786683,0.623107,-8.119930,13.508761,1.322684,-2.559514,1.541676,-0.963135,-0.095215,-0.510254,0.246496,-0.011885,0.010939,0.999867,0.006613,-0.012797,0.007708,0.728952,-0.063107,-0.634650,-0.248728
15516,NaN,23.313579,-1.636955,1.976399,-0.976922,-6.964392,12.561968,0.957887,-2.033243,1.482613,-0.976074,-0.084473,-0.493408,0.233033,-0.014744,0.022060,0.999909,0.004789,-0.010166,0.007413,0.724579,-0.066835,-0.642726,-0.239628
15517,NaN,19.877554,-1.710573,-0.569507,0.870465,-6.740279,8.953337,0.580348,-1.580906,1.442049,-0.984863,-0.075928,-0.480713,0.198929,-0.015658,-0.004170,0.999939,0.002902,-0.007904,0.007210,0.721389,-0.071290,-0.648589,-0.232052
15518,NaN,14.756542,-0.362064,-2.512912,2.815474,-4.775180,4.096450,0.310918,-1.473832,1.422793,-1.002197,-0.061035,-0.468018,0.147766,-0.002532,-0.024045,0.999946,0.001555,-0.007369,0.007114,0.718332,-0.076480,-0.653723,-0.225381
15519,NaN,12.367891,-0.179162,-2.401777,2.583623,-3.784907,1.924379,-0.003189,-1.632539,1.390843,-1.002441,-0.050293,-0.451172,0.123878,-0.000931,-0.023007,0.999943,-0.000016,-0.008163,0.006954,0.714524,-0.082924,-0.659002,-0.219762
15520,NaN,10.650043,0.760535,-1.271501,1.813977,-1.920404,0.610175,-0.122680,-1.362238,1.567344,-1.013428,-0.033203,-0.447021,0.106520,0.008433,-0.011995,0.999946,-0.000613,-0.006811,0.007837,0.711667,-0.090010,-0.663048,-0.213997
15521,NaN,9.269752,1.782589,-1.151851,2.064462,-0.516862,-0.544396,-0.286861,-0.887993,1.613348,-1.013916,-0.018311,-0.436523,0.092600,0.018557,-0.011133,0.999957,-0.001434,-0.004440,0.008067,0.710283,-0.097370,-0.665158,-0.208763
15522,NaN,8.088806,1.668498,-1.894630,2.662365,-0.585369,-1.789589,-0.334225,-0.447385,1.589853,-1.018799,-0.000977,-0.432373,0.080794,0.017296,-0.018794,0.999965,-0.001671,-0.002237,0.007949,0.710266,-0.104299,-0.665600,-0.204011
15523,NaN,7.285914,0.063741,-2.572012,2.588337,-2.073597,-2.833884,-0.292866,-0.202960,1.479890,-1.019043,0.007568,-0.434570,0.072878,0.001139,-0.025648,0.999971,-0.001464,-0.001015,0.007399,0.710911,-0.110489,-0.665263,-0.199559
15524,NaN,7.360917,-0.813108,-2.524106,2.201725,-2.757882,-2.829775,-0.233733,-0.100296,1.375535,-1.019287,0.018311,-0.434814,0.073676,-0.007654,-0.025195,0.999976,-0.001169,-0.000501,0.006878,0.711803,-0.115983,-0.664610,-0.195394
15525,NaN,8.165824,-1.590523,-2.442333,1.855302,-3.429159,-2.068445,-0.421605,-0.109373,1.318652,-1.019775,0.037598,-0.434814,0.081774,-0.015418,-0.024346,0.999976,-0.002108,-0.000547,0.006593,0.712438,-0.121980,-0.663861,-0.191941
15526,NaN,8.695591,-2.499173,-2.364377,1.437739,-4.173080,-1.568497,-0.346539,-0.250065,1.285881,-1.026611,0.052490,-0.428711,0.087144,-0.024473,-0.023492,0.999977,-0.001733,-0.001250,0.006429,0.712614,-0.127711,-0.663620,-0.188360
15527,NaN,10.544907,-1.637145,-1.762125,1.363268,-3.194843,0.430006,0.072132,-0.829723,1.206472,-1.024414,0.052490,-0.420166,0.105617,-0.015728,-0.017189,0.999973,0.000361,-0.004149,0.006032,0.710985,-0.132252,-0.665930,-0.183161
15528,NaN,12.857041,-2.955214,0.186840,-0.916944,-3.569987,2.855486,0.514699,-1.423894,0.900237,-1.024658,0.061035,-0.405518,0.128684,-0.028979,0.002709,0.999961,0.002573,-0.007119,0.004501,0.707381,-0.134710,-0.670842,-0.177305
15529,NaN,12.728274,-2.264405,2.279280,-2.597261,-1.896957,2.914682,0.744262,-1.017747,0.670195,-1.037842,0.075928,-0.399170,0.127240,-0.022304,0.023357,0.999975,0.003721,-0.005089,0.003351,0.704999,-0.135261,-0.674710,-0.171602
15530,NaN,10.830838,-1.809859,1.577993,-1.870593,-1.579426,1.007597,1.060357,-0.556028,0.694581,-1.033203,0.067383,-0.396973,0.108326,-0.017807,0.015986,0.999976,0.005302,-0.002780,0.003473,0.704419,-0.134332,-0.677094,-0.165203
15531,NaN,8.558190,-1.516278,0.392516,-0.731531,-1.623561,-1.296560,1.088366,-0.214555,0.698777,-1.031250,0.071777,-0.395020,0.085630,-0.014885,0.003935,0.999979,0.005442,-0.001073,0.003494,0.704948,-0.133110,-0.678322,-0.158777
15532,NaN,7.139401,-0.773050,-0.717516,0.561699,-1.274510,-2.731497,0.927033,-0.215348,0.789771,-1.035645,0.073730,-0.395020,0.071431,-0.007415,-0.007133,0.999981,0.004635,-0.001077,0.003949,0.705448,-0.132681,-0.679278,-0.152709
15533,NaN,6.315658,-0.915087,-1.051945,0.797943,-1.442806,-3.558670,0.865914,-0.480760,0.834778,-1.040039,0.080322,-0.388672,0.063219,-0.008842,-0.010406,0.999979,0.004330,-0.002404,0.004174,0.704973,-0.132908,-0.681122,-0.146363
15534,NaN,5.491273,0.692723,0.173121,0.262526,0.595748,-4.313617,1.063307,-0.513464,0.913787,-1.042236,0.086670,-0.388672,0.054876,0.007168,0.001910,0.999972,0.005316,-0.002567,0.004569,0.704580,-0.132636,-0.683084,-0.139182
15535,NaN,5.011012,2.256741,0.112180,0.880955,2.087674,-4.804602,0.684124,-0.353766,0.966810,-1.038330,0.093018,-0.384521,0.049998,0.022805,0.001288,0.999981,0.003421,-0.001769,0.004834,0.704443,-0.133848,-0.684208,-0.133060
15536,NaN,4.556892,2.559939,0.056933,1.025487,2.401420,-5.284648,0.238663,-0.192118,0.929460,-1.042725,0.103760,-0.382324,0.045449,0.025810,0.000644,0.999988,0.001193,-0.000961,0.004647,0.704555,-0.136305,-0.684413,-0.128846
15537,NaN,4.330124,2.559847,-0.011486,1.086523,2.416621,-5.536921,-0.135710,-0.182021,0.856713,-1.036621,0.112305,-0.380371,0.043191,0.025784,-0.000093,0.999990,-0.000679,-0.000910,0.004284,0.704341,-0.139881,-0.684436,-0.126032
15538,NaN,4.486566,2.891824,0.019905,1.190962,2.771358,-5.408894,-0.344834,-0.381836,0.646449,-1.038818,0.114502,-0.378174,0.044771,0.029063,0.000235,0.999991,-0.001724,-0.001909,0.003232,0.703195,-0.143540,-0.685106,-0.124674
15539,NaN,4.465839,2.248296,0.170018,0.808382,2.257921,-5.422277,-0.434028,-0.595007,0.430767,-1.045410,0.123047,-0.372070,0.044605,0.022583,0.001784,0.999991,-0.002170,-0.002975,0.002154,0.701061,-0.146931,-0.686677,-0.124092
15540,NaN,4.406075,2.064457,0.366421,0.545889,2.184166,-5.483589,-0.583410,-0.715872,0.367714,-1.047607,0.127197,-0.357178,0.044009,0.020736,0.003761,0.999988,-0.002917,-0.003579,0.001839,0.698394,-0.150673,-0.688547,-0.124284
15541,NaN,4.961300,1.010635,0.061219,0.420049,1.138588,-4.896723,-0.514180,-0.725082,0.283309,-1.047852,0.133789,-0.348877,0.049596,0.010178,0.000766,0.999989,-0.002571,-0.003625,0.001417,0.695633,-0.153890,-0.690606,-0.124401
15542,NaN,5.542288,0.683055,-0.308740,0.617949,0.740737,-4.303769,-0.529646,-0.705023,0.211117,-1.052002,0.133789,-0.346680,0.055426,0.006881,-0.002910,0.999990,-0.002648,-0.003525,0.001056,0.692916,-0.156891,-0.692560,-0.124957
15543,NaN,6.136462,1.092951,-0.239921,0.686972,1.194412,-3.729138,-0.357539,-0.741815,0.113344,-1.058594,0.140137,-0.336182,0.061367,0.010960,-0.002191,0.999991,-0.001788,-0.003709,0.000567,0.690085,-0.158969,-0.694881,-0.125108
15544,NaN,8.328089,0.180217,0.026993,0.044066,0.595174,-1.504031,-0.182294,-0.759191,0.125337,-1.060547,0.137939,-0.327637,0.083278,0.001855,0.000584,0.999992,-0.000911,-0.003796,0.000627,0.687375,-0.160499,-0.697283,-0.124709
15545,NaN,9.111082,0.904818,0.116010,0.183959,1.374114,-0.761641,0.001014,-0.849758,0.102189,-1.062744,0.137939,-0.317139,0.091100,0.009095,0.001547,0.999991,0.000005,-0.004249,0.000511,0.684424,-0.161355,-0.700186,-0.123564
15546,NaN,10.467319,1.101301,0.961650,-0.606360,2.013629,0.544876,0.039573,-0.969664,0.213256,-1.058594,0.144287,-0.304443,0.104613,0.011123,0.010126,0.999988,0.000198,-0.004848,0.001066,0.681184,-0.162556,-0.703349,-0.121917
15547,NaN,11.191287,1.209542,0.846310,-0.548540,2.176523,1.250100,0.051136,-0.768888,0.315306,-1.062988,0.150635,-0.300293,0.111860,0.012270,0.008896,0.999991,0.000256,-0.003844,0.001577,0.678665,-0.163924,-0.705802,-0.119944
15548,NaN,10.999161,0.682364,1.215967,-1.151192,1.892416,1.050947,0.016376,-0.714014,0.407519,-1.069336,0.148438,-0.293945,0.109933,0.007047,0.012553,0.999992,0.000082,-0.003570,0.002038,0.676397,-0.165726,-0.707896,-0.117922
15549,NaN,11.309370,0.695762,1.169287,-1.174921,1.987947,1.341675,0.131921,-0.844093,0.471665,-1.069336,0.155029,-0.283447,0.113026,0.007216,0.012175,0.999988,0.000660,-0.004220,0.002358,0.673753,-0.167408,-0.710484,-0.115086
15550,NaN,11.719517,0.367095,0.923437,-1.154754,1.716867,1.765410,-0.013213,-0.783086,0.611167,-1.069580,0.165527,-0.279297,0.117146,0.004030,0.009693,0.999988,-0.000066,-0.003915,0.003056,0.671303,-0.170065,-0.712595,-0.112422
15551,NaN,12.875679,1.260571,1.583833,-1.514896,3.020012,2.775530,-0.210117,-0.878362,0.831890,-1.076172,0.169922,-0.264404,0.128632,0.013158,0.016390,0.999981,-0.001051,-0.004392,0.004159,0.668421,-0.174189,-0.714748,-0.109577
15552,NaN,14.220931,2.966417,2.675140,-1.955760,5.294917,3.837479,-0.103421,-0.815915,0.910849,-1.076416,0.178467,-0.260254,0.141962,0.030325,0.027315,0.999981,-0.000517,-0.004080,0.004554,0.665902,-0.178226,-0.716612,-0.106195
15553,NaN,14.709306,4.189285,2.453950,-1.330946,6.539164,4.165905,0.031105,-0.615504,0.945059,-1.072510,0.189209,-0.249756,0.146816,0.042583,0.024998,0.999984,0.000156,-0.003078,0.004725,0.664201,-0.181790,-0.717850,-0.102373
15554,NaN,15.122750,4.552315,2.606004,-1.365998,7.135102,4.450354,0.103186,-0.472994,0.961855,-1.072754,0.201904,-0.249756,0.150944,0.046236,0.026441,0.999986,0.000516,-0.002365,0.004809,0.663080,-0.185132,-0.718590,-0.098381
15555,NaN,15.424777,4.037240,2.809861,-1.772519,6.941847,4.705733,-0.066454,-0.407922,1.050917,-1.077393,0.212646,-0.247803,0.153975,0.041191,0.028399,0.999984,-0.000332,-0.002040,0.005255,0.662063,-0.189258,-0.718936,-0.094791
15556,NaN,15.472887,3.736766,2.403946,-1.493588,6.684175,4.755795,-0.301543,-0.271437,1.108346,-1.075439,0.221191,-0.245850,0.154486,0.038261,0.024192,0.999983,-0.001508,-0.001357,0.005542,0.661316,-0.194358,-0.718632,-0.091952
15557,NaN,15.575794,3.015786,2.124919,-1.472032,6.093387,4.915405,-0.371058,-0.047332,1.076473,-1.075684,0.231934,-0.241699,0.155587,0.031035,0.021229,0.999984,-0.001855,-0.000237,0.005382,0.661293,-0.199382,-0.717553,-0.089762
15558,NaN,15.311758,2.593514,1.676313,-1.127937,5.628436,4.714264,-0.333710,0.260447,1.018019,-1.078125,0.238281,-0.245850,0.153004,0.026742,0.016520,0.999985,-0.001669,0.001302,0.005090,0.662341,-0.204010,-0.715518,-0.087856
15559,NaN,15.905296,3.297614,0.733787,0.132341,6.090232,5.263117,-0.277388,0.647536,0.886533,-1.069824,0.247070,-0.258545,0.158927,0.033690,0.006777,0.999984,-0.001387,0.003238,0.004433,0.664794,-0.207702,-0.712315,-0.086694
15560,NaN,16.644018,3.673049,0.154519,0.982135,6.375858,5.964459,-0.443356,1.050944,0.626227,-1.063721,0.255615,-0.265137,0.166329,0.037253,0.000589,0.999979,-0.002217,0.005255,0.003131,0.668334,-0.210938,-0.707966,-0.087287
15561,NaN,16.128437,3.837036,0.553935,0.926510,6.572244,5.389231,-0.919197,1.245049,0.390963,-1.068359,0.261963,-0.281982,0.161239,0.038707,0.004358,0.999968,-0.004596,0.006225,0.001955,0.671970,-0.214692,-0.702950,-0.090692
15562,NaN,13.971897,3.988278,0.699398,1.110026,6.326031,3.239263,-1.483579,1.338194,0.208319,-1.070801,0.268555,-0.290527,0.139719,0.040074,0.005762,0.999950,-0.007418,0.006691,0.001042,0.675141,-0.219783,-0.697524,-0.096644
15563,NaN,11.770828,3.460641,0.269337,1.472669,5.198032,1.205852,-1.743177,1.456904,0.021738,-1.064453,0.268555,-0.301025,0.117719,0.034636,0.001534,0.999935,-0.008716,0.007284,0.000109,0.678331,-0.224826,-0.691677,-0.104415
15564,NaN,10.352194,1.356909,0.485044,0.480602,3.114423,0.152803,-1.663815,1.539497,-0.219884,-1.064697,0.274902,-0.313965,0.103569,0.013491,0.003941,0.999935,-0.008319,0.007697,-0.001099,0.681626,-0.228882,-0.685792,-0.112644
15565,NaN,9.566595,0.859478,0.813479,0.073260,2.600925,-0.531120,-1.546089,1.617658,-0.537079,-1.062256,0.262207,-0.332764,0.095750,0.008396,0.007295,0.999934,-0.007730,0.008088,-0.002685,0.685118,-0.231153,-0.679961,-0.121798
15566,NaN,9.929208,1.583557,1.116546,0.302962,3.294434,-0.252619,-1.451733,1.670124,-0.911214,-1.057861,0.255859,-0.341309,0.099451,0.015459,0.010222,0.999928,-0.007258,0.008350,-0.004556,0.688514,-0.231986,-0.674362,-0.131783
15567,NaN,11.147077,1.944099,1.320157,0.505456,3.679361,0.956761,-1.339266,1.767289,-1.200924,-1.059814,0.249512,-0.362305,0.111695,0.018854,0.012088,0.999921,-0.006696,0.008836,-0.006004,0.692139,-0.231117,-0.668713,-0.142657
15568,NaN,10.946737,1.923188,-0.357294,2.069863,2.526385,0.816541,-1.324060,2.414656,-1.654308,-1.055420,0.236572,-0.387695,0.109567,0.018296,-0.005019,0.999871,-0.006620,0.012073,-0.008271,0.697413,-0.228407,-0.661240,-0.155588
15569,NaN,12.937649,1.474218,-3.275825,4.639251,0.392954,2.780542,-0.737408,2.973691,-2.084870,-1.046143,0.213135,-0.416992,0.129013,0.013270,-0.034729,0.999828,-0.003687,0.014868,-0.010424,0.704724,-0.221457,-0.652542,-0.168847
15570,NaN,11.321952,-0.106777,-2.951117,3.538635,-1.288337,1.264734,0.378573,2.965058,-2.467006,-1.045410,0.178955,-0.442139,0.112741,-0.002402,-0.031189,0.999812,0.001893,0.014824,-0.012334,0.712601,-0.209520,-0.645026,-0.179563
15571,NaN,16.310555,1.729276,-2.600320,4.770946,0.136782,6.093134,1.205976,1.065829,-2.150359,-1.051025,0.153320,-0.448242,0.163139,0.015699,-0.026775,0.999910,0.006030,0.005329,-0.010751,0.715350,-0.197002,-0.644512,-0.184578
15572,NaN,18.823551,-0.820641,-3.029518,3.980406,-2.611087,8.667234,1.925977,0.074918,-2.008179,-1.052246,0.125488,-0.456543,0.188131,-0.009803,-0.030455,0.999903,0.009630,0.000375,-0.010041,0.715565,-0.183544,-0.647939,-0.185618
15573,NaN,16.717918,-3.606655,-2.906224,2.166901,-5.210969,6.591076,2.217904,0.093747,-2.282494,-1.051025,0.084717,-0.454102,0.166742,-0.037645,-0.029552,0.999873,0.011089,0.000469,-0.011412,0.715713,-0.167764,-0.651713,-0.186764
15574,NaN,16.203151,-4.122185,-0.340732,-0.501097,-4.757710,6.210587,2.182512,-0.407427,-2.851192,-1.056396,0.048340,-0.456055,0.161429,-0.043488,-0.003544,0.999837,0.010912,-0.002037,-0.014255,0.713435,-0.151007,-0.657495,-0.189491
15575,NaN,15.906594,-3.665020,3.302206,-3.765802,-3.074888,6.115108,1.578753,-0.626242,-3.058368,-1.052979,0.009766,-0.451416,0.158374,-0.039337,0.033215,0.999847,0.007893,-0.003131,-0.015291,0.709562,-0.135578,-0.663477,-0.194780
15576,NaN,14.763891,-2.843269,4.181385,-4.509653,-2.239614,4.957861,0.880554,-0.726081,-2.819969,-1.056396,-0.022461,-0.440674,0.147064,-0.030694,0.042217,0.999884,0.004403,-0.003630,-0.014099,0.704921,-0.123780,-0.668746,-0.201357
15577,NaN,14.224148,-1.082186,2.229774,-2.196994,-1.818021,4.341023,-0.338517,0.205228,-2.466473,-1.049316,-0.048096,-0.450928,0.142117,-0.012537,0.022172,0.999922,-0.001693,0.001026,-0.012332,0.702865,-0.116258,-0.669165,-0.211384
15578,NaN,12.181003,-0.607535,-1.649331,1.372452,-3.161778,2.001547,-1.394756,1.247277,-2.326129,-1.033936,-0.065186,-0.467773,0.121622,-0.007609,-0.017203,0.999889,-0.006974,0.006236,-0.011630,0.703689,-0.112034,-0.664586,-0.224935
15579,NaN,9.884096,-0.546294,-4.272280,3.664874,-4.247201,-0.605832,-1.858373,1.465278,-2.325982,-1.031250,-0.084473,-0.493164,0.098449,-0.007011,-0.043385,0.999862,-0.009291,0.007326,-0.011629,0.704810,-0.108951,-0.658555,-0.240161
15580,NaN,8.328443,-0.596070,-2.645568,2.164401,-3.510818,-2.086103,-2.224733,1.600790,-2.306068,-1.016357,-0.090820,-0.507812,0.082991,-0.007217,-0.027045,0.999840,-0.011123,0.008004,-0.011530,0.705985,-0.107247,-0.651394,-0.256454
15581,NaN,4.975753,-2.089281,-1.543973,0.354606,-3.676233,-5.586011,-2.692283,1.321386,-1.887033,-1.011963,-0.097168,-0.529053,0.049454,-0.021569,-0.015480,0.999843,-0.013461,0.006607,-0.009435,0.706315,-0.108660,-0.644213,-0.272585
15582,NaN,4.224816,-0.687445,-0.531118,0.167442,-1.906305,-5.947306,-2.574879,0.799890,-1.493654,-1.001465,-0.094971,-0.543945,0.042173,-0.007259,-0.005388,0.999881,-0.012874,0.003999,-0.007468,0.705370,-0.111828,-0.638615,-0.286564
15583,NaN,5.810584,-0.223922,0.434077,-0.359680,-1.514134,-4.193176,-2.832273,1.159011,-1.181063,-0.993164,-0.094971,-0.556641,0.058115,-0.002524,0.004038,0.999866,-0.014161,0.005795,-0.005905,0.705702,-0.116154,-0.631073,-0.300399
15584,NaN,7.748004,2.923035,-1.458603,3.070471,-0.734007,-2.019594,-3.125399,1.035768,-1.340353,-0.982666,-0.090576,-0.571533,0.077594,0.028474,-0.015437,0.999842,-0.015626,0.005179,-0.006701,0.705027,-0.121367,-0.623404,-0.315553
15585,NaN,10.770539,6.917566,-2.208848,6.195681,0.726358,1.580653,-2.166927,1.444014,-1.911362,-0.969482,-0.105469,-0.594727,0.108192,0.067893,-0.023609,0.999870,-0.010834,0.007220,-0.009556,0.705110,-0.120536,-0.616012,-0.329880
15586,NaN,13.194160,7.460273,-0.563362,5.376200,0.850024,4.343884,-0.997838,2.288598,-2.564939,-0.949951,-0.124756,-0.617920,0.132805,0.072869,-0.007517,0.999840,-0.004989,0.011442,-0.012824,0.707210,-0.112349,-0.607746,-0.343332
15587,NaN,10.918848,1.788634,0.738137,0.864733,-2.272911,1.005612,-1.489182,2.891612,-2.491789,-0.930664,-0.139648,-0.651611,0.109491,0.016570,0.005673,0.999790,-0.007445,0.014457,-0.012458,0.710740,-0.104780,-0.596307,-0.358173
15588,NaN,6.275987,-1.516137,0.411130,-1.045129,-3.370516,-4.390683,-2.207217,3.691207,-2.347950,-0.903076,-0.143799,-0.689697,0.062640,-0.015859,0.003127,0.999700,-0.011035,0.018454,-0.011739,0.716165,-0.098970,-0.580291,-0.374933
15589,NaN,3.075163,-1.137431,-0.079488,-0.532563,-2.182087,-7.423016,-2.420144,3.652465,-2.132505,-0.873535,-0.143799,-0.729980,0.030608,-0.011714,-0.001214,0.999703,-0.012100,0.018261,-0.010661,0.721366,-0.094321,-0.563631,-0.391223
15590,NaN,1.658744,0.308809,1.896792,-1.067823,0.513846,-7.567788,-2.573428,3.338271,-2.050016,-0.841553,-0.150146,-0.757568,0.016933,0.003157,0.018647,0.999725,-0.012866,0.016690,-0.010249,0.725346,-0.091259,-0.547371,-0.407345
15591,NaN,2.938376,2.014860,2.215875,0.041342,1.089055,-5.761256,-2.514707,2.351331,-2.184454,-0.822510,-0.147949,-0.778809,0.029859,0.020098,0.021557,0.999792,-0.012573,0.011756,-0.010922,0.726052,-0.089360,-0.534669,-0.423075
15593,NaN,6.193223,1.034267,0.897443,1.191844,-4.472713,1.995663,-3.073498,2.461936,-2.091916,-0.774414,-0.130615,-0.827881,0.124650,0.018560,0.014293,0.999006,-0.030725,0.024611,-0.020912,0.726890,-0.089974,-0.505139,-0.456475
15594,NaN,3.916165,0.608828,-0.473382,1.057035,-2.236980,-6.680925,-2.941098,2.489669,-1.920927,-0.751465,-0.122070,-0.851074,0.039154,0.005637,-0.005306,0.999768,-0.014704,0.012447,-0.009604,0.727333,-0.089887,-0.490194,-0.471824
15595,NaN,3.936139,0.366615,0.871082,0.043874,-1.689818,-6.134657,-2.899615,2.289187,-1.749286,-0.730713,-0.109131,-0.874512,0.039488,0.003443,0.008208,0.999791,-0.014497,0.011445,-0.008746,0.727354,-0.090715,-0.475715,-0.486232
15596,NaN,3.596606,-0.162190,1.306890,-0.634074,-1.574833,-6.379446,-2.804630,2.189796,-1.519646,-0.705811,-0.091797,-0.889648,0.036094,-0.001716,0.012698,0.999813,-0.014022,0.010948,-0.007598,0.727497,-0.091751,-0.461610,-0.499246
15597,NaN,4.718503,-0.659870,1.777721,-1.194930,-2.324415,-5.450496,-2.618864,1.915277,-1.295986,-0.687256,-0.076904,-0.904541,0.047310,-0.006675,0.017412,0.999847,-0.013094,0.009576,-0.006480,0.727363,-0.093481,-0.448632,-0.510817
15598,NaN,4.791521,-0.258437,2.070547,-0.985985,-2.083390,-5.122340,-2.407611,1.737103,-1.189304,-0.674805,-0.063965,-0.921631,0.048077,-0.002624,0.020320,0.999872,-0.012038,0.008685,-0.005946,0.727042,-0.094938,-0.436739,-0.521206
15599,NaN,3.570374,-0.473114,2.239171,-1.315135,-1.307706,-5.998840,-2.079380,1.381906,-1.097040,-0.664307,-0.061768,-0.932373,0.035832,-0.004696,0.022193,0.999907,-0.010397,0.006909,-0.005485,0.726137,-0.096482,-0.426780,-0.530353
15600,NaN,2.513714,-0.940435,2.740056,-2.024476,-0.501348,-6.593810,-1.744272,0.864822,-0.982742,-0.649902,-0.051025,-0.934570,0.025210,-0.009289,0.027373,0.999941,-0.008721,0.004324,-0.004914,0.724529,-0.098261,-0.419535,-0.537952
15601,NaN,2.239460,-1.121074,3.194742,-2.406221,-0.107232,-6.545135,-1.410666,0.322530,-0.805158,-0.650146,-0.042480,-0.940918,0.022401,-0.011075,0.031990,0.999966,-0.007053,0.001613,-0.004026,0.722313,-0.100802,-0.414956,-0.543979
15602,NaN,2.482819,-0.831018,3.570082,-2.305359,0.076711,-6.033822,-1.145240,-0.104736,-0.604364,-0.650146,-0.042480,-0.940918,0.024785,-0.008180,0.035761,0.999979,-0.005726,-0.000524,-0.003022,0.719890,-0.103834,-0.412572,-0.548416
15603,NaN,3.021672,-0.202164,3.921415,-1.875366,0.171652,-5.229860,-1.013801,-0.346319,-0.383999,-0.656982,-0.027344,-0.943115,0.030145,-0.001881,0.039276,0.999984,-0.005069,-0.001732,-0.001920,0.717576,-0.107630,-0.411235,-0.551712
15604,NaN,2.981736,0.646140,4.541519,-1.399074,0.920534,-4.604169,-1.033966,-0.510312,-0.166665,-0.656982,-0.023193,-0.936768,0.029707,0.006672,0.045457,0.999983,-0.005170,-0.002552,-0.000833,0.715523,-0.112290,-0.410338,-0.554113
15605,NaN,2.992962,1.664903,5.097074,-0.714721,1.665870,-3.945531,-1.082061,-0.767706,0.070457,-0.667969,-0.012451,-0.934814,0.029728,0.016935,0.050994,0.999978,-0.005410,-0.003839,0.000352,0.713510,-0.118421,-0.410041,-0.555649
15606,NaN,2.854592,2.362139,5.545962,-0.254326,2.351421,-3.576385,-1.081817,-1.074520,0.284102,-0.678955,-0.003906,-0.930664,0.028214,0.023962,0.055483,0.999970,-0.005409,-0.005373,0.001420,0.711456,-0.125736,-0.410719,-0.556175
15607,NaN,2.818121,2.566864,5.980589,-0.210283,2.811550,-3.305172,-1.017098,-1.424106,0.473257,-0.694092,0.009033,-0.920166,0.027694,0.026039,0.059872,0.999959,-0.005085,-0.007120,0.002366,0.709170,-0.134272,-0.412645,-0.555674
15608,NaN,3.112426,2.864677,6.571454,-0.133875,3.212521,-2.689663,-0.907959,-1.647140,0.608285,-0.709473,0.026123,-0.911621,0.030494,0.029039,0.065836,0.999951,-0.004540,-0.008236,0.003041,0.706840,-0.143198,-0.415554,-0.554244
15609,NaN,4.025070,3.922991,7.018394,0.717272,3.404904,-1.521807,-0.760742,-1.722286,0.589620,-0.722168,0.028076,-0.901123,0.039529,0.039615,0.070376,0.999951,-0.003804,-0.008611,0.002948,0.704308,-0.151868,-0.419094,-0.552492
15610,NaN,5.373966,5.681497,6.885747,2.451617,3.194614,-0.202595,-0.617686,-1.855840,0.390860,-0.737305,0.036621,-0.890625,0.052987,0.057132,0.069175,0.999950,-0.003088,-0.009279,0.001954,0.701022,-0.159845,-0.423616,-0.550970
15611,NaN,7.829163,7.330868,7.449730,3.800771,2.764133,2.371161,-0.429346,-1.963351,0.138470,-0.756348,0.036621,-0.879883,0.077505,0.073523,0.075103,0.999949,-0.002147,-0.009817,0.000692,0.696857,-0.167034,-0.429186,-0.549808
15612,NaN,10.180987,8.272735,8.857550,4.094286,2.828860,5.213155,-0.234138,-1.977592,-0.029783,-0.769043,0.036621,-0.867188,0.100940,0.082817,0.089480,0.999950,-0.001171,-0.009888,-0.000149,0.692340,-0.173037,-0.435459,-0.548725
15613,NaN,12.626357,8.230933,10.328893,3.416566,2.625407,7.943655,-0.088377,-1.688271,-0.100590,-0.781494,0.032471,-0.856445,0.125427,0.082292,0.104314,0.999964,-0.000442,-0.008441,-0.000503,0.688277,-0.177741,-0.441137,-0.547796
15614,NaN,13.746635,6.557559,10.108187,1.913272,1.426049,8.310519,0.019742,-0.949341,-0.055638,-0.787842,0.032471,-0.854248,0.137003,0.065527,0.101739,0.999989,0.000099,-0.004747,-0.000278,0.686092,-0.179928,-0.444542,-0.547071
15615,NaN,11.752098,3.814589,8.621289,-0.014741,0.683516,5.237960,-0.168055,-0.286440,-0.009016,-0.785889,0.036621,-0.850098,0.117399,0.038213,0.086349,0.999999,-0.000840,-0.001432,-0.000045,0.685269,-0.181258,-0.445077,-0.547228
15616,NaN,7.383828,2.844329,6.419061,-0.004481,1.351587,0.286243,-0.573824,-0.541700,0.006965,-0.798584,0.038818,-0.843750,0.073663,0.028630,0.064308,0.999992,-0.002869,-0.002708,0.000035,0.683610,-0.184490,-0.445396,-0.547962
15617,NaN,5.705862,2.283611,5.933268,-0.305575,1.876573,-1.484478,-0.711033,-1.606063,0.085626,-0.809326,0.042969,-0.831055,0.056570,0.023072,0.059707,0.999961,-0.003555,-0.008030,0.000428,0.679576,-0.191494,-0.448847,-0.547762
15618,NaN,11.756324,3.445460,10.670539,-1.158264,2.566214,6.187553,-0.615023,-1.967466,0.116361,-0.822266,0.047363,-0.824707,0.116486,0.034853,0.107748,0.999947,-0.003075,-0.009837,0.000582,0.674908,-0.198991,-0.453749,-0.546821
15619,NaN,19.417145,5.507528,8.901593,1.299912,-2.105503,12.106865,0.072261,-1.346643,0.000329,-0.830811,0.049316,-0.807861,0.193566,0.055043,0.090341,0.999977,0.000361,-0.006733,0.000002,0.671901,-0.202415,-0.458485,-0.545315
15620,NaN,17.807689,3.251573,4.904572,0.729664,-4.821082,8.297047,0.024871,-1.121341,-0.067527,-0.832764,0.049316,-0.807861,0.177809,0.032449,0.050047,0.999984,0.000124,-0.005607,-0.000338,0.669212,-0.205001,-0.462418,-0.544333
15621,NaN,12.325308,-0.380553,3.728882,-2.094257,-3.767185,2.327387,-0.421897,-1.574250,0.197781,-0.845703,0.053711,-0.790771,0.122958,-0.003604,0.038265,0.999966,-0.002109,-0.007871,0.000989,0.665646,-0.211137,-0.466324,-0.543027
15622,NaN,9.531759,-2.630322,6.414323,-5.158135,-0.714121,0.760726,-0.310372,-1.546710,0.681905,-0.856445,0.060059,-0.784424,0.094906,-0.025879,0.064919,0.999963,-0.001552,-0.007733,0.003409,0.663581,-0.217753,-0.469942,-0.539813
15623,NaN,8.454945,-2.599289,5.632821,-4.764454,-0.630273,-0.492134,0.238738,-0.938574,1.177083,-0.860840,0.068604,-0.780273,0.084435,-0.025563,0.056694,0.999971,0.001194,-0.004693,0.005885,0.664784,-0.222243,-0.472411,-0.534321
15624,NaN,8.215021,-1.112686,2.862981,-2.257671,-2.148729,-1.614744,0.939079,-0.850920,1.372808,-0.869385,0.070557,-0.769775,0.082102,-0.010699,0.028928,0.999956,0.004695,-0.004255,0.006864,0.667484,-0.224478,-0.476219,-0.526584
15625,NaN,10.011898,-0.730504,2.359582,-1.668463,-3.211209,-0.156465,1.398444,-0.839775,1.201936,-0.871338,0.068604,-0.763428,0.100061,-0.006870,0.023967,0.999949,0.006992,-0.004199,0.006010,0.670174,-0.224862,-0.481336,-0.518285
15626,NaN,10.747793,-1.707082,0.720872,-1.826377,-5.140134,-0.368589,1.614841,-0.856533,1.055827,-0.873535,0.070557,-0.761230,0.107534,-0.016563,0.007534,0.999944,0.008074,-0.004283,0.005279,0.672644,-0.224081,-0.487191,-0.509885
15627,NaN,11.049708,-2.174812,-0.149747,-1.803585,-6.063643,-0.494654,1.687026,-1.015470,1.111341,-0.886230,0.068359,-0.752686,0.110622,-0.021123,-0.001116,0.999936,0.008435,-0.005077,0.005557,0.674841,-0.223678,-0.493637,-0.500880
15628,NaN,11.264529,-0.746622,-0.272687,-0.394033,-5.571471,0.001701,1.708487,-1.167367,1.130113,-0.890137,0.059814,-0.739990,0.112699,-0.006810,-0.002129,0.999931,0.008542,-0.005837,0.005650,0.676659,-0.223537,-0.500576,-0.491517
15629,NaN,11.337731,0.330150,0.370233,0.316377,-4.485393,0.606925,1.783511,-1.307343,1.061784,-0.900635,0.053467,-0.729248,0.113330,0.003866,0.004476,0.999925,0.008917,-0.006537,0.005309,0.677929,-0.223345,-0.508164,-0.481974
15630,NaN,11.419839,0.842505,0.744760,0.611786,-3.827126,0.987925,1.994047,-1.189340,0.999366,-0.906738,0.049072,-0.722900,0.114107,0.008916,0.008214,0.999920,0.009970,-0.005947,0.004997,0.679484,-0.221925,-0.515879,-0.472143
15631,NaN,10.703011,1.515115,0.190109,1.467286,-3.492194,0.313278,2.112217,-1.062825,0.980289,-0.910645,0.040527,-0.712158,0.106942,0.015650,0.002633,0.999918,0.010561,-0.005314,0.004901,0.681336,-0.219756,-0.523353,-0.462158
15632,NaN,10.217468,2.150894,0.426235,1.886629,-2.633872,0.122353,2.068155,-1.142688,1.032714,-0.923340,0.038330,-0.703857,0.102035,0.021986,0.005071,0.999917,0.010340,-0.005713,0.005163,0.682940,-0.217996,-0.530900,-0.451903
15633,NaN,10.805963,2.994172,1.125485,2.241091,-1.699224,1.100002,1.928845,-1.193199,1.159415,-0.927490,0.036133,-0.695312,0.107813,0.030453,0.012191,0.999919,0.009644,-0.005966,0.005797,0.684430,-0.217154,-0.538031,-0.441499
15634,NaN,11.489248,3.773570,1.267413,2.825140,-1.210048,1.951594,1.745066,-1.182745,1.280821,-0.931641,0.033936,-0.684570,0.114569,0.038354,0.013685,0.999924,0.008725,-0.005914,0.006404,0.685907,-0.217176,-0.544573,-0.431052
15635,NaN,11.681834,4.297995,1.213847,3.291289,-0.792448,2.226648,1.508930,-1.125360,1.347895,-0.942383,0.038330,-0.669922,0.116454,0.043669,0.013122,0.999933,0.007544,-0.005627,0.006739,0.687333,-0.218069,-0.550191,-0.421082
15636,NaN,11.273376,4.415856,1.229997,3.362371,-0.327632,1.878497,1.275130,-1.150575,1.383416,-0.944580,0.042480,-0.665771,0.112351,0.044854,0.013232,0.999939,0.006376,-0.005753,0.006917,0.688415,-0.219836,-0.555385,-0.411466
15637,NaN,10.362411,4.222627,1.082545,3.261543,-0.022492,0.945555,1.035839,-1.081241,1.459120,-0.951172,0.051025,-0.657227,0.103251,0.042922,0.011605,0.999945,0.005179,-0.005406,0.007295,0.689508,-0.222522,-0.559609,-0.402368
15638,NaN,9.912902,4.270023,1.025296,3.334263,0.313938,0.498978,0.701298,-1.020868,1.521943,-0.955811,0.065918,-0.642578,0.098746,0.043415,0.010909,0.999952,0.003506,-0.005104,0.007610,0.690444,-0.226315,-0.562940,-0.393912
15639,NaN,9.768811,4.174899,1.250538,3.157155,0.666661,0.385744,0.299337,-0.939173,1.562071,-0.958252,0.074463,-0.638428,0.097298,0.042491,0.013026,0.999957,0.001497,-0.004696,0.007810,0.691179,-0.231506,-0.564987,-0.386609
15640,NaN,9.523774,4.207729,1.473289,3.097952,1.097835,0.175927,-0.179614,-0.720737,1.616703,-0.962891,0.089600,-0.634277,0.094840,0.042858,0.015037,0.999960,-0.000898,-0.003604,0.008083,0.692015,-0.237961,-0.565380,-0.380573
15641,NaN,9.224741,4.176176,1.542169,3.105203,1.354123,-0.146458,-0.590662,-0.509655,1.632713,-0.961426,0.111084,-0.630127,0.091863,0.042559,0.015531,0.999959,-0.002953,-0.002548,0.008163,0.692942,-0.245568,-0.564060,-0.375983
15642,NaN,8.890391,4.378490,1.717346,3.250801,1.809930,-0.468530,-1.044693,-0.363986,1.612845,-0.961914,0.132324,-0.628174,0.088515,0.044589,0.017103,0.999952,-0.005223,-0.001820,0.008064,0.693614,-0.254264,-0.561514,-0.372762
15643,NaN,8.537673,4.648845,1.236259,3.864349,1.758506,-0.980728,-1.671774,-0.056891,1.579148,-0.960449,0.153809,-0.630615,0.085002,0.047262,0.011994,0.999934,-0.008359,-0.000284,0.007896,0.694218,-0.264572,-0.556559,-0.371894
15644,NaN,7.940224,4.416391,1.129561,3.840321,1.701470,-1.677496,-2.295547,0.210608,1.470216,-0.959229,0.183838,-0.628662,0.079086,0.044871,0.010700,0.999907,-0.011477,0.001053,0.007351,0.694421,-0.276040,-0.549752,-0.373301
15645,NaN,7.156377,3.357153,1.325458,2.941053,1.419873,-2.493365,-2.764686,0.309440,1.354960,-0.947266,0.211670,-0.628906,0.071353,0.034233,0.012674,0.999880,-0.013823,0.001547,0.006775,0.693894,-0.288741,-0.541590,-0.376590
15646,NaN,6.788029,2.474749,0.942054,2.509242,0.695447,-3.007724,-3.084245,0.176723,1.181176,-0.941895,0.241699,-0.620605,0.067740,0.025289,0.008973,0.999863,-0.015421,0.000884,0.005906,0.692040,-0.302065,-0.533607,-0.380922
15647,NaN,6.366299,1.770223,0.119465,2.376713,-0.278621,-3.652273,-3.372978,-0.019969,0.918631,-0.946533,0.260986,-0.610107,0.063581,0.018011,0.000899,0.999847,-0.016864,-0.000100,0.004593,0.688528,-0.316167,-0.525792,-0.386665
15648,NaN,6.035861,0.886173,-0.242292,1.788164,-0.962582,-4.054957,-3.501918,-0.366850,0.584861,-0.945312,0.295166,-0.599854,0.060337,0.008995,-0.002469,0.999841,-0.017509,-0.001834,0.002924,0.683045,-0.330202,-0.519515,-0.393090
15649,NaN,6.250089,-0.505284,0.089434,0.456674,-1.341546,-3.703821,-3.456004,-0.721304,0.330144,-0.945801,0.307861,-0.583008,0.062505,-0.004931,0.001206,0.999843,-0.017279,-0.003606,0.001651,0.675999,-0.344217,-0.514569,-0.399698
15650,NaN,6.472854,-1.083133,0.476700,-0.199390,-1.217862,-3.349370,-3.329744,-0.913073,0.259613,-0.950439,0.327148,-0.568359,0.064719,-0.010663,0.005241,0.999850,-0.016648,-0.004565,0.001298,0.668334,-0.357697,-0.510730,-0.405631
15651,NaN,7.283104,-1.240017,-0.656643,0.199377,-2.342727,-2.778244,-3.119823,-0.900983,0.265207,-0.955322,0.346436,-0.555908,0.072875,-0.012401,-0.006045,0.999867,-0.015598,-0.004505,0.001326,0.660895,-0.370568,-0.506882,-0.411057
15653,NaN,8.756894,-0.999021,-0.797510,1.258671,-4.972089,7.126872,-2.750925,-0.867446,0.187772,-0.960205,0.376465,-0.522217,0.175302,-0.020052,-0.013879,0.999582,-0.027505,-0.008673,0.001877,0.646799,-0.392904,-0.500661,-0.420257
15654,NaN,9.153570,-1.373535,-0.122825,0.073578,-1.909601,-0.755268,-2.441743,-0.630228,0.132730,-0.962646,0.389160,-0.511719,0.091548,-0.013686,-0.000772,0.999920,-0.012208,-0.003151,0.000664,0.640643,-0.402415,-0.497280,-0.424678
15655,NaN,8.669870,-2.242616,0.869328,-1.119507,-1.088993,-0.952007,-2.347617,-0.487244,0.174276,-0.962891,0.397705,-0.501221,0.086696,-0.022245,0.009166,0.999928,-0.011738,-0.002436,0.000871,0.635024,-0.411184,-0.493745,-0.428823
15656,NaN,8.258585,-1.836535,1.046828,-0.829332,-0.654441,-1.353593,-2.172429,-0.396815,0.207559,-0.965332,0.410645,-0.488770,0.082584,-0.018163,0.010830,0.999939,-0.010862,-0.001984,0.001038,0.629974,-0.419409,-0.489902,-0.432694
15657,NaN,8.221040,-1.058079,1.558453,-0.199033,0.124334,-1.381892,-1.937969,-0.404626,0.203448,-0.961182,0.416992,-0.480225,0.082189,-0.010344,0.015852,0.999950,-0.009690,-0.002023,0.001017,0.625319,-0.426691,-0.486802,-0.435815
15658,NaN,8.105011,-0.394966,1.605620,0.443973,0.407666,-1.562740,-1.880504,-0.295555,0.213300,-0.961426,0.427734,-0.461426,0.081030,-0.003711,0.016212,0.999954,-0.009402,-0.001478,0.001066,0.621014,-0.433704,-0.483164,-0.439084
15659,NaN,7.626103,0.104353,1.570123,0.896953,0.590566,-2.100351,-1.667654,-0.286004,0.229858,-0.961914,0.438232,-0.463623,0.076237,0.001263,0.015800,0.999964,-0.008338,-0.001430,0.001149,0.617182,-0.439876,-0.480142,-0.441655
15660,NaN,7.653344,1.194018,1.459756,2.015867,0.744084,-2.228974,-1.452709,-0.246629,0.271377,-0.961914,0.442627,-0.457275,0.076499,0.012150,0.014604,0.999972,-0.007263,-0.001233,0.001357,0.613967,-0.445533,-0.477098,-0.443759
15661,NaN,7.417548,1.440368,-0.007590,2.525810,-0.592142,-2.715903,-1.231702,-0.179539,0.277562,-0.962158,0.451172,-0.446777,0.074155,0.014506,-0.000098,0.999980,-0.006158,-0.000898,0.001388,0.611395,-0.450183,-0.474565,-0.445332
15662,NaN,7.337953,1.678499,-0.220320,2.801066,-0.742287,-2.861826,-0.884806,-0.156438,0.253837,-0.962402,0.459717,-0.442627,0.073360,0.016868,-0.002220,0.999989,-0.004424,-0.000782,0.001269,0.609581,-0.453824,-0.472510,-0.446307
15663,NaN,7.635720,1.762788,-0.528382,2.995251,-1.059491,-2.629599,-0.701925,-0.078710,0.250449,-0.958252,0.461914,-0.442627,0.076337,0.017705,-0.005316,0.999993,-0.003510,-0.000394,0.001252,0.608354,-0.456533,-0.470910,-0.446909
15664,NaN,7.818375,1.964615,-0.907750,3.297862,-1.418249,-2.537843,-0.687605,-0.046924,0.263762,-0.958252,0.463867,-0.438232,0.078160,0.019718,-0.009127,0.999993,-0.003438,-0.000235,0.001319,0.607249,-0.459338,-0.468925,-0.447623
15665,NaN,7.840755,2.028750,-1.278372,3.434355,-1.774684,-2.581976,-0.698022,-0.065561,0.278699,-0.954102,0.468262,-0.436279,0.078383,0.020352,-0.012829,0.999993,-0.003490,-0.000328,0.001393,0.606108,-0.462047,-0.467245,-0.448138
15666,NaN,7.760174,1.728585,-1.589181,3.188444,-2.123812,-2.667267,-0.764780,-0.151548,0.323132,-0.952148,0.474609,-0.429932,0.077586,0.017350,-0.015899,0.999991,-0.003824,-0.000758,0.001616,0.604696,-0.465446,-0.465254,-0.448600
15667,NaN,8.150858,1.359346,-1.530901,2.896439,-2.159320,-2.224808,-0.802152,-0.263296,0.387294,-0.958740,0.485352,-0.425781,0.081502,0.013690,-0.015256,0.999989,-0.004011,-0.001316,0.001936,0.603073,-0.469140,-0.463702,-0.448544
15668,NaN,8.766021,1.089076,-0.692674,2.643052,-1.422643,-1.476068,-0.987010,-0.395254,0.474103,-0.952637,0.493896,-0.419678,0.087648,0.011065,-0.006808,0.999983,-0.004935,-0.001976,0.002371,0.600884,-0.474085,-0.461575,-0.448475
15669,NaN,9.304064,1.716724,-0.131606,3.308456,-0.792123,-0.983394,-1.090342,-0.575900,0.557170,-0.946533,0.502441,-0.402832,0.092996,0.017420,-0.001143,0.999977,-0.005452,-0.002879,0.002786,0.598197,-0.479703,-0.459913,-0.447801
15670,NaN,9.996632,1.922699,0.895637,3.557644,0.238025,-0.235766,-1.088368,-0.769062,0.590890,-0.952881,0.506592,-0.394287,0.099874,0.019572,0.009235,0.999973,-0.005442,-0.003845,0.002954,0.595115,-0.486018,-0.458363,-0.446687
15671,NaN,10.548124,2.463254,1.401288,4.181915,0.834196,0.242611,-1.022451,-0.824077,0.560226,-0.953125,0.513184,-0.381592,0.105353,0.025000,0.014320,0.999975,-0.005112,-0.004120,0.002801,0.591969,-0.491931,-0.457569,-0.445205
15672,NaN,10.619635,2.794382,0.926583,4.623495,0.460377,0.180041,-0.972538,-0.664796,0.488204,-0.944824,0.523682,-0.375488,0.106096,0.028249,0.009482,0.999980,-0.004863,-0.003324,0.002441,0.589120,-0.497388,-0.456178,-0.444348
15673,NaN,10.025603,3.106641,0.103267,4.934418,-0.241148,-0.551598,-1.136643,-0.437667,0.412819,-0.945068,0.532227,-0.362793,0.100189,0.031279,0.001075,0.999979,-0.005683,-0.002188,0.002064,0.586195,-0.502373,-0.454349,-0.444482
15674,NaN,10.146350,2.986023,0.013060,4.882155,-0.348682,-0.436772,-1.496858,-0.300972,0.327138,-0.949463,0.538818,-0.352295,0.101414,0.030027,0.000059,0.999970,-0.007484,-0.001505,0.001636,0.582450,-0.508148,-0.451086,-0.446160
15675,NaN,10.342549,2.924280,0.438368,4.859087,0.047138,-0.215878,-2.122781,-0.342884,0.313577,-0.949707,0.551514,-0.335449,0.103372,0.029450,0.004249,0.999941,-0.010614,-0.001714,0.001568,0.576949,-0.515480,-0.447010,-0.448990
15676,NaN,10.954794,0.849292,0.686158,2.973072,0.117687,0.786675,-2.307773,-0.260655,0.199535,-0.943359,0.551514,-0.329102,0.109530,0.008682,0.006905,0.999932,-0.011539,-0.001303,0.000998,0.570816,-0.523126,-0.442054,-0.452876
15677,NaN,10.916243,-0.787031,1.913612,1.357718,1.300787,1.137653,-2.162093,-0.132152,0.080932,-0.941406,0.562256,-0.312256,0.109153,-0.007618,0.019292,0.999941,-0.010810,-0.000661,0.000405,0.565027,-0.529433,-0.437811,-0.456910
15678,NaN,11.877601,-0.367745,2.391312,1.996649,1.768228,2.011761,-2.023305,-0.189938,-0.084601,-0.945557,0.560059,-0.305908,0.118752,-0.003485,0.024062,0.999948,-0.010116,-0.000950,-0.000423,0.559021,-0.535363,-0.433945,-0.461056
15679,NaN,11.872649,2.560962,1.598819,4.868543,0.956471,1.388037,-2.338834,0.295822,-0.327109,-0.945801,0.566406,-0.297607,0.118792,0.025599,0.015513,0.999929,-0.011694,0.001479,-0.001636,0.552629,-0.540150,-0.429089,-0.467677
15680,NaN,9.768505,3.127818,0.459527,4.950646,-0.208844,-0.820298,-1.955698,1.032232,-0.674119,-0.952148,0.564209,-0.293213,0.097811,0.030988,0.003787,0.999933,-0.009778,0.005161,-0.003371,0.547937,-0.541651,-0.423475,-0.476496
15681,NaN,9.586849,4.225323,-1.014250,5.825515,-1.890789,-1.252719,-1.716175,1.507669,-0.947865,-0.943359,0.557861,-0.305908,0.095985,0.041705,-0.011225,0.999924,-0.008581,0.007538,-0.004739,0.544220,-0.540364,-0.418339,-0.486646
15682,NaN,8.273872,4.627904,-3.366001,5.677209,-4.366881,-2.748864,-1.802167,1.746379,-1.204140,-0.951660,0.544922,-0.307861,0.082714,0.045471,-0.034795,0.999903,-0.009011,0.008732,-0.006021,0.540008,-0.538441,-0.412435,-0.498367
15683,NaN,8.139579,3.121642,-4.222711,3.913658,-5.267326,-2.687926,-1.399675,1.574184,-1.405402,-0.955811,0.540771,-0.322754,0.081274,0.030345,-0.043082,0.999920,-0.006998,0.007871,-0.007027,0.535993,-0.534985,-0.409043,-0.509104
15684,NaN,10.701200,0.150697,-4.207241,1.170000,-5.386881,0.279255,-0.675561,1.180431,-1.519049,-0.953125,0.525879,-0.328857,0.106768,0.000552,-0.042706,0.999948,-0.003378,0.005902,-0.007595,0.532692,-0.530651,-0.408223,-0.517690
15685,NaN,12.465279,-1.927344,-2.478535,-0.670540,-3.810702,2.445499,0.742861,1.434690,-1.734555,-0.963135,0.500244,-0.349854,0.124298,-0.020258,-0.025752,0.999930,0.003714,0.007173,-0.008673,0.533113,-0.521010,-0.411517,-0.524398
15686,NaN,13.504662,-1.003441,0.143982,0.389670,-1.602730,3.628836,1.551451,1.246256,-1.892438,-0.962646,0.480957,-0.362305,0.134949,-0.011318,0.000514,0.999906,0.007757,0.006231,-0.009462,0.534692,-0.509660,-0.417174,-0.529449
15687,NaN,17.335985,-4.824504,-0.149501,-3.433660,-2.330514,7.697088,1.349736,1.387323,-2.222730,-0.963867,0.450928,-0.378906,0.172792,-0.050151,-0.003029,0.999891,0.006748,0.006936,-0.011113,0.535129,-0.497323,-0.423262,-0.535869
15688,NaN,19.592283,-2.948220,1.729297,-1.738699,-1.254714,9.958722,-1.064159,2.194954,-2.632404,-0.974121,0.433838,-0.397949,0.195688,-0.031974,0.015310,0.999839,-0.005321,0.010974,-0.013161,0.529974,-0.488635,-0.421037,-0.550538
15689,NaN,17.401166,-0.904149,-2.105700,-0.684362,-5.113356,6.962489,-2.666370,2.048192,-2.573471,-0.969482,0.423096,-0.397705,0.173647,-0.011573,-0.022694,0.999776,-0.013331,0.010240,-0.012866,0.520625,-0.484193,-0.415037,-0.567671
15690,NaN,16.101381,0.115248,-3.766027,-0.408209,-6.799804,5.254589,-2.847034,1.285966,-2.382065,-0.975342,0.406006,-0.397705,0.160761,-0.001309,-0.038688,0.999807,-0.014234,0.006429,-0.011910,0.509524,-0.482914,-0.409317,-0.582785
15691,NaN,16.623116,1.831132,-1.883259,1.073390,-5.432576,6.079003,-2.783604,0.659801,-2.204148,-0.979492,0.397461,-0.391357,0.166354,0.016209,-0.019617,0.999837,-0.013917,0.003299,-0.011020,0.497706,-0.483173,-0.405359,-0.595413
15692,NaN,16.106858,1.930597,0.215185,1.154383,-3.388180,6.010760,-1.743115,0.382386,-2.132751,-0.980957,0.375977,-0.393066,0.161266,0.017603,0.001685,0.999903,-0.008715,0.001912,-0.010663,0.487856,-0.482000,-0.404353,-0.605120
15693,NaN,16.316774,3.334446,2.237451,2.534678,-1.798456,6.700693,-0.795629,0.493561,-2.179878,-0.984619,0.358887,-0.401611,0.163573,0.031651,0.021843,0.999930,-0.003978,0.002468,-0.010899,0.480366,-0.477688,-0.406557,-0.613004
15694,NaN,17.121806,5.613226,2.433693,4.341541,-2.345435,7.686447,-0.847669,0.941763,-2.340557,-0.990479,0.339600,-0.403564,0.171971,0.054223,0.023296,0.999911,-0.004238,0.004709,-0.011702,0.473022,-0.472036,-0.407273,-0.622544
15695,NaN,17.179875,4.323793,-2.141476,1.681265,-6.597685,6.681200,-0.947547,1.490410,-2.505295,-0.994141,0.320312,-0.416016,0.172155,0.040977,-0.022895,0.999883,-0.004738,0.007452,-0.012526,0.466041,-0.464142,-0.407271,-0.633647
15696,NaN,14.502193,2.743740,-5.375083,-0.617756,-8.882647,3.126976,-0.228579,1.465619,-2.454066,-0.991455,0.296875,-0.426270,0.144944,0.025596,-0.054843,0.999897,-0.001143,0.007328,-0.012270,0.460654,-0.454986,-0.408806,-0.643166
15697,NaN,12.852953,1.668577,-4.704282,-1.614252,-7.725133,1.492991,-0.700697,1.357566,-2.154159,-0.986816,0.281738,-0.434814,0.128375,0.015136,-0.047969,0.999913,-0.003503,0.006788,-0.010770,0.454941,-0.447467,-0.408915,-0.652373
15698,NaN,11.951883,-1.030795,-3.121341,-4.016539,-5.439051,0.576106,-1.646959,1.685994,-1.934131,-0.984619,0.275391,-0.449463,0.119142,-0.011723,-0.032126,0.999884,-0.008234,0.008430,-0.009670,0.448323,-0.441708,-0.404010,-0.663835
15699,NaN,11.013141,-1.501703,-1.984192,-4.292018,-4.079800,-0.199754,-2.392928,1.429915,-1.846327,-0.979980,0.264648,-0.451660,0.109840,-0.016274,-0.020438,0.999860,-0.011964,0.007149,-0.009231,0.439808,-0.438249,-0.397503,-0.675646
15700,NaN,9.063171,-2.318426,-2.000536,-4.850289,-3.345253,-2.276284,-2.830191,0.805774,-1.965267,-0.981934,0.258301,-0.451416,0.090316,-0.024356,-0.020031,0.999843,-0.014150,0.004029,-0.009826,0.428481,-0.437779,-0.390437,-0.687251
15701,NaN,7.568599,-1.378712,-1.101337,-3.544952,-2.369671,-3.315582,-3.220775,0.105611,-1.995335,-0.988037,0.253906,-0.438721,0.075537,-0.014717,-0.010821,0.999820,-0.016103,0.000528,-0.009976,0.414770,-0.440098,-0.384036,-0.697708
15702,NaN,8.291148,-1.732302,-0.670315,-4.078545,-1.892749,-2.603489,-3.785067,-0.380086,-1.937747,-0.985596,0.245361,-0.426025,0.082750,-0.018246,-0.006206,0.999772,-0.018924,-0.001900,-0.009688,0.398838,-0.445455,-0.375819,-0.707996
15703,NaN,6.904886,-1.461931,-0.027778,-3.322065,-0.953386,-3.658962,-3.987930,-0.739505,-1.597044,-0.994385,0.251709,-0.413330,0.068929,-0.015168,0.000276,0.999762,-0.019938,-0.003697,-0.007985,0.382877,-0.452705,-0.367219,-0.716669
15704,NaN,5.807400,-0.542203,0.914233,-1.870461,-0.175590,-4.215764,-3.669334,-0.960277,-1.412460,-0.998291,0.247314,-0.396484,0.057989,-0.005659,0.009523,0.999795,-0.018345,-0.004801,-0.007062,0.367649,-0.460489,-0.359053,-0.723785
15705,NaN,6.171372,0.042066,1.245871,-1.355667,-0.160065,-3.666468,-3.407138,-0.811353,-1.313701,-1.004883,0.251709,-0.385742,0.061664,0.000231,0.012704,0.999825,-0.017035,-0.004057,-0.006568,0.353583,-0.467055,-0.351730,-0.730154
15706,NaN,6.493092,1.177288,0.913188,-0.677556,-1.037855,-3.267185,-3.351113,-0.217282,-1.331140,-1.002441,0.243164,-0.377197,0.064998,0.011492,0.009008,0.999837,-0.016755,-0.001086,-0.006655,0.340438,-0.471362,-0.342953,-0.737769
15707,NaN,5.812961,2.035825,-0.595311,-0.537393,-2.621461,-4.233495,-3.361257,0.092418,-1.288385,-1.004639,0.247314,-0.364746,0.058256,0.019879,-0.006317,0.999838,-0.016805,0.000462,-0.006442,0.327923,-0.474272,-0.333920,-0.745674
15708,NaN,5.420421,1.426124,-2.230613,-1.825232,-3.517189,-5.264441,-3.196698,-0.136321,-1.265961,-1.004395,0.240967,-0.358154,0.054307,0.013559,-0.022490,0.999852,-0.015983,-0.000682,-0.006329,0.315327,-0.477845,-0.325200,-0.752647
15709,NaN,5.236075,-0.094015,-1.185578,-2.519413,-1.704589,-5.388085,-2.730616,-0.296425,-1.152292,-1.006104,0.234375,-0.349609,0.052371,-0.001403,-0.011761,0.999889,-0.013653,-0.001482,-0.005761,0.304002,-0.481170,-0.318651,-0.757971
15710,NaN,4.997221,-1.576097,0.400674,-2.750426,0.530059,-5.366249,-2.577309,-0.048944,-0.704431,-1.012695,0.238770,-0.345459,0.049915,-0.015883,0.004223,0.999911,-0.012886,-0.000245,-0.003522,0.295008,-0.484117,-0.310646,-0.762955
15711,NaN,5.507550,-1.055651,0.663224,-2.386116,0.364039,-4.707668,-2.683344,-0.033562,-0.399187,-1.006348,0.242920,-0.337158,0.055053,-0.010576,0.006783,0.999908,-0.013416,-0.000168,-0.001996,0.286956,-0.487391,-0.301919,-0.767431
15712,NaN,8.047495,-0.357722,0.159312,-3.073291,-0.806452,-2.408639,-2.670176,-0.161683,-0.396910,-1.008545,0.245117,-0.332764,0.080466,-0.003715,0.001707,0.999909,-0.013350,-0.000808,-0.001984,0.278637,-0.491210,-0.292866,-0.771559
15713,NaN,7.893632,-0.361893,0.673228,-2.721157,-0.384782,-2.373543,-2.673377,0.087875,-0.296101,-1.002441,0.249268,-0.333008,0.078934,-0.003646,0.006746,0.999909,-0.013366,0.000439,-0.001480,0.271072,-0.493993,-0.283631,-0.775915
15714,NaN,7.494990,-0.997703,0.197272,-3.312911,-0.207947,-3.016327,-2.515472,0.040022,-0.311360,-1.008789,0.251465,-0.324463,0.074935,-0.010068,0.002084,0.999920,-0.012577,0.000200,-0.001557,0.263667,-0.496778,-0.274585,-0.779932
15715,NaN,6.406526,-2.242221,1.416444,-2.971870,1.701384,-3.783559,-2.171505,-0.196548,-0.251305,-1.006836,0.260010,-0.320312,0.064023,-0.022347,0.014470,0.999940,-0.010857,-0.000983,-0.001257,0.257038,-0.499932,-0.267461,-0.782601
15716,NaN,5.259603,-3.019709,1.987186,-2.634457,2.840105,-4.740836,-1.724783,-0.665818,-0.031273,-1.010986,0.260010,-0.305420,0.052524,-0.030031,0.020306,0.999957,-0.008624,-0.003329,-0.000156,0.251685,-0.504705,-0.261655,-0.783240
15717,NaN,5.460340,-2.768220,1.493947,-2.779399,2.343492,-4.665630,-1.310062,-1.251798,0.288364,-1.011230,0.270752,-0.290771,0.054547,-0.027503,0.015462,0.999958,-0.006550,-0.006259,0.001442,0.247880,-0.511529,-0.257803,-0.781301
15718,NaN,7.114477,-1.390138,1.988592,-2.019504,1.481927,-2.725620,-0.969715,-1.622422,0.571786,-1.015625,0.277100,-0.273926,0.071019,-0.013600,0.020529,0.999951,-0.004848,-0.008112,0.002859,0.245513,-0.519795,-0.254571,-0.777644
15719,NaN,8.318218,0.192208,2.937597,-0.607966,0.815331,-1.047849,-0.764523,-1.684274,0.731156,-1.015869,0.283447,-0.252686,0.082923,0.002340,0.030067,0.999951,-0.003823,-0.008421,0.003656,0.244221,-0.528120,-0.252165,-0.773213
15720,NaN,8.891516,1.664740,3.593912,0.781504,0.098743,-0.110962,-0.644623,-1.660267,0.745113,-1.018066,0.296143,-0.236084,0.088550,0.017095,0.036621,0.999953,-0.003223,-0.008301,0.003726,0.243278,-0.536255,-0.249742,-0.768684
15721,NaN,9.708063,3.360732,3.567000,1.778797,-1.252920,0.842248,-0.585121,-1.640583,0.738706,-1.013916,0.298340,-0.218994,0.096659,0.034071,0.036365,0.999955,-0.002926,-0.008203,0.003693,0.242493,-0.544107,-0.247901,-0.763996
15722,NaN,11.048620,5.029152,3.362680,2.500613,-2.759872,2.220550,-0.590127,-1.564788,0.738912,-1.014160,0.309082,-0.208496,0.110032,0.050799,0.034339,0.999958,-0.002951,-0.007824,0.003695,0.241744,-0.551708,-0.245545,-0.759531
15723,NaN,12.066581,6.366604,3.870431,3.626934,-3.536786,3.433056,-0.768781,-1.320780,0.748576,-1.014404,0.315430,-0.191650,0.120168,0.064267,0.039253,0.999964,-0.003844,-0.006604,0.003743,0.240839,-0.558482,-0.242570,-0.755813
15724,NaN,13.014280,6.904455,5.018063,4.703956,-3.358020,4.637865,-1.112820,-0.665002,0.604256,-1.014648,0.323975,-0.187500,0.129766,0.069716,0.050226,0.999974,-0.005564,-0.003325,0.003021,0.239187,-0.563070,-0.237493,-0.754546
15725,NaN,13.869317,7.240358,6.533084,5.834905,-2.884687,5.842669,-1.438352,0.597608,0.207137,-1.016846,0.326172,-0.196045,0.138811,0.073013,0.064393,0.999969,-0.007192,0.002988,0.001036,0.236636,-0.562680,-0.231220,-0.757583
15726,NaN,11.664258,6.399442,3.484594,3.487957,-4.079921,2.849604,-1.076027,1.431166,-0.149978,-1.014404,0.319580,-0.206543,0.116934,0.064090,0.033665,0.999960,-0.005380,0.007156,-0.000750,0.234670,-0.558353,-0.225885,-0.762986
15727,NaN,9.117442,5.320107,-0.059752,0.699968,-5.215020,-0.661388,-0.456023,1.407224,-0.518653,-1.012207,0.313232,-0.219238,0.091304,0.052962,-0.001361,0.999969,-0.002280,0.007036,-0.002593,0.233035,-0.552815,-0.224431,-0.767933
15728,NaN,7.832221,4.238281,-0.970966,-0.396725,-4.790390,-2.253357,0.016001,0.834200,-0.848528,-1.005615,0.302490,-0.223389,0.078460,0.042051,-0.010033,0.999982,0.000080,0.004171,-0.004243,0.230738,-0.548649,-0.225883,-0.771182
15729,NaN,5.788495,2.324096,-1.940648,-1.746132,-3.613943,-4.658623,0.100516,0.267134,-0.938606,-1.013916,0.298340,-0.221191,0.057967,0.022979,-0.019472,0.999988,0.000503,0.001336,-0.004693,0.227724,-0.546341,-0.229046,-0.772781
15730,NaN,3.452623,0.865099,-5.897879,-4.883878,-4.574730,-8.177688,0.006522,-0.746148,-0.825807,-1.015625,0.287598,-0.210449,0.034781,0.008510,-0.058849,0.999985,0.000033,-0.003731,-0.004129,0.223677,-0.548281,-0.232194,-0.771649
15731,NaN,4.678712,0.550634,-6.331273,-5.766174,-4.644727,-7.082400,-0.128826,-1.735908,-0.868201,-1.015381,0.281006,-0.191406,0.047357,0.005261,-0.062907,0.999953,-0.000644,-0.008679,-0.004341,0.217957,-0.554015,-0.236512,-0.767870
15732,NaN,6.124255,-0.357301,-3.444589,-4.548297,-2.179614,-4.907672,-0.254745,-2.290366,-0.879294,-1.017090,0.272461,-0.166016,0.061615,-0.003887,-0.033737,0.999924,-0.001274,-0.011452,-0.004396,0.211135,-0.562022,-0.240468,-0.762711
15733,NaN,10.762812,0.714955,-0.882141,-3.147847,-1.518425,0.429510,-0.178530,-3.170192,-0.748222,-1.023193,0.265869,-0.136230,0.107776,0.006740,-0.007120,0.999867,-0.000893,-0.015850,-0.003741,0.203917,-0.573280,-0.245689,-0.754589
15734,NaN,18.916986,-0.838644,4.934496,-1.413770,3.346277,9.414410,-0.655048,-2.885757,-0.441493,-1.022949,0.261475,-0.110840,0.188413,-0.008635,0.052095,0.999888,-0.003275,-0.014428,-0.002207,0.196791,-0.584248,-0.247417,-0.747471
15735,NaN,22.947107,-2.023115,6.261480,-1.755060,5.274153,13.403039,-1.951507,-0.360169,-0.148289,-1.020752,0.261475,-0.110840,0.229343,-0.019786,0.063222,0.999950,-0.009757,-0.001801,-0.000741,0.190047,-0.587267,-0.241359,-0.748830
15736,NaN,20.197161,-1.301304,1.994835,-3.992874,2.177567,10.009345,-1.340510,0.354219,-0.063108,-1.029297,0.257324,-0.113037,0.202003,-0.012944,0.019678,0.999976,-0.006702,0.001771,-0.000316,0.186283,-0.587143,-0.236202,-0.751512
15737,NaN,21.302434,2.258673,0.786599,-3.265126,-1.410750,11.326433,-0.213063,-0.113668,-0.305505,-1.024902,0.255127,-0.110840,0.213054,0.022270,0.007963,0.999998,-0.001065,-0.000568,-0.001528,0.184341,-0.587384,-0.236821,-0.751608
15738,NaN,16.258109,1.924867,0.767982,-2.298166,-1.074360,6.379405,0.152028,0.128312,-0.761430,-1.026855,0.246582,-0.113037,0.162658,0.018624,0.007590,0.999992,0.000760,0.000642,-0.003807,0.182062,-0.585876,-0.239528,-0.752482
15739,NaN,9.132373,-2.030821,1.199086,-2.470157,2.428345,-1.039821,-0.091925,0.576958,-0.715552,-1.018066,0.238037,-0.117188,0.091284,-0.020629,0.011737,0.999989,-0.000460,0.002885,-0.003578,0.179749,-0.582918,-0.241151,-0.754813
15740,NaN,6.580581,-3.571396,1.030562,-2.849991,3.574642,-3.794348,-0.357037,0.577908,-0.096156,-1.026855,0.244385,-0.119141,0.065818,-0.035727,0.010179,0.999994,-0.001785,0.002890,-0.000481,0.179027,-0.580960,-0.239582,-0.756991
15741,NaN,5.233356,-5.035410,-1.229836,-5.110115,3.455568,-5.787579,-0.360988,0.601666,0.645430,-1.016602,0.255127,-0.129883,0.052459,-0.050207,-0.012365,0.999989,-0.001805,0.003008,0.003227,0.181100,-0.579778,-0.236164,-0.758476
15742,NaN,6.961753,-5.334063,-1.968203,-6.302426,3.226722,-4.275648,-0.445562,0.486405,1.343725,-1.012451,0.263672,-0.127930,0.069926,-0.052915,-0.019734,0.999972,-0.002228,0.002432,0.006719,0.185460,-0.579929,-0.230151,-0.759156
