// Start Time: Unknown
// Update Rate: 100.0Hz
// Filter Profile: human (46.1)
// Firmware Version: 4.4.0
PacketCounter,SampleTimeFine,Acc_X,Acc_Y,Acc_Z,FreeAcc_X,FreeAcc_Y,FreeAcc_Z,Gyr_X,Gyr_Y,Gyr_Z,Mag_X,Mag_Y,Mag_Z,VelInc_X,VelInc_Y,VelInc_Z,OriInc_q0,OriInc_q1,OriInc_q2,OriInc_q3,Quat_q0,Quat_q1,Quat_q2,Quat_q3
49712,NaN,1.824281,-0.335326,9.342614,0.000000,-0.000000,-0.287729,-0.234617,-0.016542,0.211041,0.068359,-0.129150,-1.380615,0.018239,-0.003224,0.093431,0.999999,-0.001173,-0.000083,0.001055,0.968096,0.005761,-0.097523,0.230752
49713,NaN,1.582907,-0.373639,9.257283,-0.203799,-0.187778,-0.417708,-0.258456,0.024487,0.246791,0.074707,-0.129150,-1.378662,0.015845,-0.003597,0.092576,0.999998,-0.001292,0.000122,0.001234,0.970356,0.005862,-0.099658,0.220099
49714,NaN,1.464841,-0.379400,9.076834,-0.280085,-0.205129,-0.617145,-0.292485,0.045911,0.280710,0.076660,-0.124756,-1.385010,0.014674,-0.003641,0.090770,0.999998,-0.001462,0.000230,0.001404,0.970076,0.004252,-0.099765,0.221316
49715,NaN,1.498119,-0.407477,9.105077,-0.252258,-0.186362,-0.581525,-0.311032,0.062681,0.312009,0.078857,-0.128906,-1.385010,0.015016,-0.003910,0.091052,0.999998,-0.001555,0.000313,0.001560,0.969768,0.002521,-0.099801,0.222675
49716,NaN,1.620553,-0.397206,9.254812,-0.186688,-0.098249,-0.411044,-0.322614,0.052041,0.318633,0.085205,-0.124756,-1.389160,0.016236,-0.003797,0.092550,0.999997,-0.001613,0.000260,0.001593,0.969440,0.000739,-0.099912,0.224059
49717,NaN,1.674511,-0.411377,9.418323,-0.174652,-0.059916,-0.239610,-0.332079,0.056859,0.337703,0.089355,-0.122559,-1.378662,0.016779,-0.003929,0.094185,0.999997,-0.001660,0.000284,0.001689,0.969089,-0.001105,-0.100003,0.225530
49718,NaN,1.894821,-0.507510,9.566622,0.023584,-0.018489,-0.047078,-0.330971,0.101778,0.352568,0.093750,-0.124756,-1.385010,0.019006,-0.004883,0.095665,0.999997,-0.001655,0.000509,0.001763,0.968738,-0.003000,-0.099881,0.227072
49719,NaN,1.933029,-0.446422,9.775445,-0.014461,0.086504,0.161648,-0.327496,0.162210,0.404202,0.100098,-0.131104,-1.387207,0.019418,-0.004265,0.097746,0.999996,-0.001637,0.000811,0.002021,0.968352,-0.004976,-0.099451,0.228864
49720,NaN,2.181989,-0.521755,9.951863,0.201929,0.168778,0.385520,-0.328775,0.194897,0.427274,0.106445,-0.129150,-1.382812,0.021928,-0.005007,0.099506,0.999996,-0.001644,0.000974,0.002136,0.967948,-0.007003,-0.098872,0.230763
49721,NaN,2.352990,-0.681689,9.658159,0.482860,0.160669,0.138298,-0.328182,0.247585,0.459302,0.112793,-0.126953,-1.385010,0.023665,-0.006604,0.096563,0.999995,-0.001641,0.001238,0.002297,0.967525,-0.009101,-0.098034,0.232814
49722,NaN,2.180998,-0.843975,9.450951,0.453609,-0.003453,-0.087283,-0.349466,0.311547,0.513987,0.125488,-0.124756,-1.385254,0.021978,-0.008218,0.094490,0.999994,-0.001747,0.001558,0.002570,0.967057,-0.011406,-0.096909,0.235113
49723,NaN,2.142054,-1.069081,9.387546,0.545013,-0.163455,-0.141426,-0.358206,0.346452,0.565166,0.127686,-0.126953,-1.385254,0.021613,-0.010462,0.093857,0.999993,-0.001791,0.001732,0.002826,0.966531,-0.013819,-0.095655,0.237650
49724,NaN,2.311442,-1.041691,9.476504,0.676414,-0.003771,-0.026261,-0.342420,0.353540,0.586121,0.136230,-0.131104,-1.383057,0.023312,-0.010187,0.094742,0.999993,-0.001712,0.001768,0.002931,0.965973,-0.016174,-0.094313,0.240292
49725,NaN,2.134677,-1.229082,9.462079,0.627061,-0.192202,-0.057281,-0.331642,0.389783,0.608394,0.153320,-0.131104,-1.374512,0.021568,-0.012069,0.094599,0.999992,-0.001658,0.001949,0.003042,0.965383,-0.018552,-0.092863,0.243039
49726,NaN,2.358185,-1.274809,9.394950,0.874051,-0.063912,-0.082177,-0.345203,0.432306,0.622099,0.161865,-0.131104,-1.376709,0.023824,-0.012512,0.093920,0.999991,-0.001726,0.002162,0.003110,0.964787,-0.021032,-0.091137,0.245840
49727,NaN,2.672357,-1.327633,9.370424,1.190877,0.106654,-0.051593,-0.373250,0.425410,0.614662,0.174805,-0.137695,-1.370361,0.026963,-0.013019,0.093672,0.999991,-0.001866,0.002127,0.003073,0.964163,-0.023688,-0.089632,0.248585
49728,NaN,2.767376,-1.468754,9.348737,1.363366,0.100442,-0.048204,-0.401952,0.474468,0.645463,0.183105,-0.135498,-1.376709,0.027942,-0.014410,0.093450,0.999990,-0.002010,0.002372,0.003227,0.963516,-0.026505,-0.087767,0.251458
49729,NaN,2.587479,-1.481383,9.193861,1.263547,0.078591,-0.230764,-0.413715,0.604041,0.722462,0.194092,-0.139893,-1.368408,0.026205,-0.014529,0.091890,0.999987,-0.002069,0.003020,0.003612,0.962779,-0.029652,-0.085575,0.254665
49730,NaN,2.811371,-1.231417,9.077004,1.391226,0.489116,-0.345023,-0.384864,0.749867,0.731873,0.204590,-0.137695,-1.362061,0.028498,-0.012036,0.090687,0.999984,-0.001924,0.003749,0.003659,0.962096,-0.032773,-0.082346,0.257908
49731,NaN,2.378414,-1.264504,9.217989,1.050465,0.332745,-0.272663,-0.382745,0.839801,0.707961,0.224121,-0.152832,-1.351562,0.024215,-0.012384,0.092103,0.999983,-0.001914,0.004199,0.003540,0.961414,-0.036075,-0.079139,0.260994
49732,NaN,2.129549,-1.164019,9.430097,0.807459,0.393609,-0.116885,-0.447839,0.977808,0.756384,0.239014,-0.152832,-1.347412,0.021800,-0.011347,0.094221,0.999978,-0.002239,0.004889,0.003782,0.960713,-0.039802,-0.074885,0.264271
49733,NaN,1.839950,-1.057894,9.747393,0.509441,0.453531,0.139674,-0.505045,1.125356,0.758364,0.258301,-0.156982,-1.338867,0.018987,-0.010262,0.097394,0.999974,-0.002525,0.005627,0.003792,0.959970,-0.044071,-0.070568,0.267463
49734,NaN,1.815518,-0.838875,10.189823,0.384270,0.773640,0.535452,-0.599417,1.315724,0.767111,0.279541,-0.150635,-1.324219,0.018856,-0.008012,0.101800,0.999967,-0.002997,0.006579,0.003836,0.959244,-0.048977,-0.064883,0.270634
49735,NaN,1.587462,-0.824630,10.780858,0.174794,0.845828,1.081251,-0.687203,1.529600,0.724768,0.302979,-0.152832,-1.307373,0.016727,-0.007817,0.107710,0.999958,-0.003436,0.007648,0.003624,0.958524,-0.054581,-0.058934,0.273458
49736,NaN,1.564064,-1.159035,11.286037,0.370178,0.762347,1.608425,-0.753816,1.744152,0.669259,0.332764,-0.150879,-1.296875,0.016662,-0.011111,0.112761,0.999949,-0.003769,0.008721,0.003346,0.957869,-0.060773,-0.051420,0.275953
49737,NaN,0.993313,-1.752034,11.831372,0.245486,0.199897,2.184480,-0.831896,1.876064,0.603745,0.354004,-0.150879,-1.273682,0.011095,-0.016996,0.118285,0.999943,-0.004159,0.009380,0.003019,0.957202,-0.067400,-0.044077,0.277990
49738,NaN,0.838172,-2.700711,12.232415,0.711297,-0.414678,2.715050,-0.875569,1.922375,0.550940,0.375000,-0.138184,-1.252686,0.009631,-0.026446,0.122352,0.999940,-0.004378,0.009612,0.002755,0.956508,-0.074380,-0.035906,0.279769
49739,NaN,0.507717,-3.418987,12.144431,0.957135,-0.978434,2.739391,-0.892096,1.930891,0.490851,0.394287,-0.140381,-1.229492,0.006333,-0.033633,0.121538,0.999940,-0.004460,0.009654,0.002454,0.955781,-0.081379,-0.028448,0.281160
49740,NaN,0.273039,-3.727489,11.915348,1.089375,-1.170208,2.572091,-0.871067,1.797440,0.410323,0.406494,-0.123291,-1.212891,0.003878,-0.036748,0.119283,0.999948,-0.004355,0.008987,0.002052,0.955056,-0.088122,-0.020915,0.282251
49741,NaN,-0.250044,-3.799190,11.440062,0.832021,-1.385952,2.135294,-0.863413,1.573359,0.331261,0.423340,-0.116943,-1.196045,-0.001537,-0.037501,0.114578,0.999958,-0.004317,0.007867,0.001656,0.954327,-0.094662,-0.015256,0.282960
49742,NaN,0.280090,-3.996574,11.581151,1.468279,-1.053086,2.307795,-0.816469,1.370232,0.242412,0.438232,-0.106201,-1.166504,0.003643,-0.039489,0.115950,0.999967,-0.004082,0.006851,0.001212,0.953671,-0.100512,-0.009758,0.283397
49743,NaN,0.231127,-3.870906,11.821957,1.397680,-0.757840,2.526901,-0.818959,1.223526,0.140440,0.441895,-0.086914,-1.156250,0.003062,-0.038223,0.118360,0.999973,-0.004095,0.006118,0.000702,0.953074,-0.106557,-0.005872,0.283304
49744,NaN,0.003762,-2.936311,11.706070,0.770935,0.022397,2.231268,-0.902761,1.071854,0.023811,0.460693,-0.072021,-1.139404,0.000669,-0.028834,0.117189,0.999975,-0.004514,0.005359,0.000119,0.952567,-0.112376,-0.002030,0.282813
49745,NaN,-0.237729,-1.661190,11.802058,-0.115755,1.108367,2.055799,-0.920930,0.838389,-0.135089,0.451904,-0.061279,-1.131104,-0.001893,-0.016067,0.118104,0.999980,-0.004605,0.004192,-0.000675,0.952208,-0.118429,-0.000374,0.281557
49746,NaN,-0.739113,-0.814406,11.524939,-0.965316,1.602291,1.612425,-0.953936,0.580821,-0.288863,0.455566,-0.041992,-1.122803,-0.007068,-0.007584,0.115307,0.999983,-0.004770,0.002904,-0.001444,0.952035,-0.123786,0.000877,0.279831
49747,NaN,-0.633866,-0.809156,11.257377,-0.903043,1.714617,1.324126,-0.942456,0.256187,-0.443350,0.461426,-0.022705,-1.108154,-0.006212,-0.007547,0.112618,0.999986,-0.004712,0.001281,-0.002217,0.952063,-0.128835,-0.000367,0.277447
49748,NaN,-0.888153,-1.418368,10.894718,-0.822125,1.089085,1.124979,-0.918083,-0.045403,-0.541202,0.448242,-0.007812,-1.110352,-0.008944,-0.013659,0.109009,0.999986,-0.004590,-0.000227,-0.002706,0.952209,-0.133139,-0.002206,0.274894
49749,NaN,-0.679478,-2.376132,10.959784,-0.242334,0.502566,1.408376,-0.874549,-0.251908,-0.580416,0.445557,0.011475,-1.102051,-0.007001,-0.023262,0.109692,0.999985,-0.004373,-0.001260,-0.002902,0.952443,-0.136867,-0.005727,0.272189
49750,NaN,-0.648359,-3.276956,11.063679,0.144951,-0.129345,1.742612,-0.831678,-0.375226,-0.589768,0.438721,0.026367,-1.104248,-0.006787,-0.032289,0.110759,0.999985,-0.004158,-0.001876,-0.002949,0.952652,-0.140298,-0.009049,0.269610
49751,NaN,-0.120532,-3.786865,11.043999,0.735262,-0.237235,1.837492,-0.803329,-0.481380,-0.611443,0.429932,0.037109,-1.099854,-0.001586,-0.037420,0.110587,0.999984,-0.004017,-0.002407,-0.003057,0.952909,-0.143335,-0.013531,0.266901
49752,NaN,-0.118848,-4.202630,10.939120,0.840051,-0.565251,1.862673,-0.784081,-0.545752,-0.630279,0.420654,0.058594,-1.095947,-0.001619,-0.041592,0.109551,0.999984,-0.003920,-0.002729,-0.003151,0.953136,-0.146298,-0.017630,0.264232
49753,NaN,-0.039160,-4.372900,10.600563,0.893472,-0.728038,1.596347,-0.752419,-0.596177,-0.636639,0.411865,0.075684,-1.100098,-0.000846,-0.043328,0.106167,0.999983,-0.003762,-0.002981,-0.003183,0.953372,-0.149031,-0.022661,0.261453
49754,NaN,0.063858,-4.510811,10.283999,0.967568,-0.854683,1.342771,-0.642400,-0.665610,-0.645261,0.402832,0.086426,-1.100342,0.000151,-0.044778,0.102985,0.999984,-0.003212,-0.003328,-0.003226,0.953647,-0.151147,-0.027154,0.258796
49755,NaN,0.192507,-4.414626,9.806943,0.958464,-0.838948,0.868065,-0.520024,-0.762965,-0.650014,0.390137,0.090820,-1.095947,0.001408,-0.043896,0.098190,0.999984,-0.002600,-0.003815,-0.003250,0.953958,-0.152704,-0.032739,0.256073
49756,NaN,0.493166,-4.273414,9.522402,1.073726,-0.662421,0.559801,-0.430402,-0.883539,-0.657729,0.376465,0.116455,-1.096191,0.004371,-0.042544,0.095336,0.999983,-0.002152,-0.004418,-0.003289,0.954310,-0.153515,-0.038006,0.253536
49757,NaN,0.682503,-4.327510,9.395787,1.141434,-0.669603,0.469399,-0.394033,-1.011731,-0.671562,0.365723,0.122803,-1.104492,0.006204,-0.043111,0.094075,0.999980,-0.001970,-0.005059,-0.003358,0.954597,-0.154278,-0.044693,0.250891
49758,NaN,0.736178,-4.250570,9.365821,1.027380,-0.618305,0.428823,-0.374607,-1.112588,-0.648574,0.352539,0.135742,-1.104736,0.006703,-0.042353,0.093776,0.999978,-0.001873,-0.005563,-0.003243,0.954851,-0.154522,-0.050972,0.248564
49759,NaN,1.077940,-3.974094,9.319440,1.051984,-0.267780,0.317825,-0.326226,-1.200736,-0.651319,0.337646,0.140137,-1.108887,0.010090,-0.039622,0.093321,0.999975,-0.001631,-0.006004,-0.003257,0.954995,-0.154825,-0.058525,0.246148
49760,NaN,1.335062,-3.846933,9.385740,1.071355,-0.061880,0.361795,-0.286858,-1.213735,-0.637966,0.317871,0.159424,-1.119385,0.012658,-0.038376,0.093991,0.999975,-0.001434,-0.006069,-0.003190,0.955179,-0.154511,-0.065166,0.243951
49761,NaN,1.509610,-3.828274,9.258442,1.086032,-0.036661,0.260589,-0.269159,-1.217086,-0.618480,0.304932,0.167969,-1.123779,0.014414,-0.038203,0.092725,0.999976,-0.001346,-0.006085,-0.003092,0.955201,-0.154539,-0.072767,0.241690
49762,NaN,1.640248,-3.881815,9.153327,1.114406,-0.090462,0.201832,-0.275700,-1.223998,-0.592684,0.294189,0.172363,-1.123779,0.015727,-0.038739,0.091684,0.999976,-0.001378,-0.006120,-0.002963,0.955236,-0.154157,-0.079403,0.239699
49763,NaN,1.902580,-3.900751,9.239454,1.175220,0.000556,0.327347,-0.275790,-1.261760,-0.584238,0.274414,0.187256,-1.130127,0.018328,-0.038934,0.092565,0.999975,-0.001379,-0.006309,-0.002921,0.955072,-0.154165,-0.087262,0.237604
49764,NaN,2.059318,-4.006796,9.310897,1.201941,-0.041916,0.460567,-0.283523,-1.282645,-0.599251,0.261475,0.197998,-1.140625,0.019875,-0.039996,0.093295,0.999974,-0.001418,-0.006413,-0.002996,0.954981,-0.153729,-0.094184,0.235601
49765,NaN,2.155155,-4.049471,9.322089,1.131541,-0.074287,0.514767,-0.297217,-1.345705,-0.610817,0.239746,0.208740,-1.138672,0.020800,-0.040420,0.093423,0.999972,-0.001486,-0.006728,-0.003054,0.954662,-0.153709,-0.102553,0.233401
49766,NaN,2.240264,-3.977011,9.227601,1.050416,-0.045437,0.428230,-0.321964,-1.406705,-0.636171,0.220215,0.221680,-1.142822,0.021626,-0.039691,0.092494,0.999969,-0.001610,-0.007033,-0.003181,0.954406,-0.153274,-0.110129,0.231274
49767,NaN,2.531672,-4.018464,9.130011,1.164922,-0.013670,0.412520,-0.338747,-1.482512,-0.659404,0.198730,0.232422,-1.142822,0.024506,-0.040111,0.091552,0.999966,-0.001694,-0.007412,-0.003297,0.953887,-0.153244,-0.119267,0.228894
49768,NaN,2.657804,-4.025445,9.046583,1.138478,-0.032393,0.375985,-0.361522,-1.522972,-0.687251,0.185791,0.240967,-1.142822,0.025750,-0.040180,0.090737,0.999963,-0.001808,-0.007615,-0.003436,0.953453,-0.152810,-0.127467,0.226559
49769,NaN,2.731666,-4.022089,9.074432,0.997763,-0.039341,0.433519,-0.359143,-1.555457,-0.707240,0.162109,0.247314,-1.149170,0.026467,-0.040152,0.091025,0.999962,-0.001796,-0.007777,-0.003536,0.952752,-0.152733,-0.137037,0.223958
49770,NaN,2.821219,-4.063882,9.075246,0.920643,-0.088866,0.481792,-0.347160,-1.553176,-0.721551,0.138428,0.258057,-1.145020,0.027359,-0.040581,0.091038,0.999962,-0.001736,-0.007766,-0.003608,0.952194,-0.152147,-0.145371,0.221461
49771,NaN,2.743235,-4.158219,9.003993,0.715747,-0.276420,0.448724,-0.338913,-1.578049,-0.714984,0.123291,0.266602,-1.151367,0.026572,-0.041525,0.090322,0.999961,-0.001695,-0.007890,-0.003575,0.951320,-0.151907,-0.155017,0.218825
49772,NaN,3.115230,-4.096719,9.066000,0.814911,-0.099209,0.579773,-0.288512,-1.635532,-0.729684,0.093506,0.270996,-1.151123,0.030260,-0.040948,0.090969,0.999959,-0.001443,-0.008178,-0.003648,0.950592,-0.150918,-0.163660,0.216364
49773,NaN,3.221836,-4.207325,9.085470,0.733336,-0.206977,0.677490,-0.237620,-1.673846,-0.738445,0.067627,0.281738,-1.146973,0.031301,-0.042082,0.091169,0.999957,-0.001188,-0.008369,-0.003692,0.949556,-0.150044,-0.173616,0.213746
49774,NaN,3.362783,-4.246722,8.984941,0.725789,-0.269902,0.650070,-0.232943,-1.713451,-0.700984,0.048340,0.294434,-1.142822,0.032707,-0.042478,0.090182,0.999956,-0.001165,-0.008567,-0.003505,0.948602,-0.148704,-0.182519,0.211492
49775,NaN,3.702781,-4.173879,9.054330,0.748022,-0.107521,0.795717,-0.232716,-1.744598,-0.705869,0.024658,0.301025,-1.144775,0.036088,-0.041762,0.090909,0.999955,-0.001164,-0.008723,-0.003529,0.947274,-0.147733,-0.192715,0.209066
49776,NaN,4.053591,-4.039493,8.924964,0.864265,0.067457,0.753729,-0.232517,-1.762632,-0.714520,-0.000977,0.309570,-1.149170,0.039603,-0.040433,0.089648,0.999954,-0.001163,-0.008813,-0.003573,0.946107,-0.146297,-0.201826,0.206750
49777,NaN,4.038447,-3.983591,9.159191,0.510826,0.082148,0.948235,-0.265417,-1.786721,-0.748635,-0.029053,0.324463,-1.149170,0.039415,-0.039863,0.092000,0.999952,-0.001327,-0.008933,-0.003743,0.944554,-0.145340,-0.212231,0.204090
49778,NaN,4.125253,-4.128448,8.781257,0.597565,-0.147523,0.712957,-0.466887,-1.928704,-0.809946,-0.063477,0.339600,-1.140625,0.040235,-0.041243,0.088300,0.999943,-0.002334,-0.009643,-0.004050,0.942940,-0.144710,-0.222393,0.201160
49779,NaN,4.094435,-4.101189,8.816889,0.309787,-0.197183,0.731637,-0.360379,-1.890757,-0.821623,-0.084961,0.345947,-1.138428,0.039939,-0.041018,0.088624,0.999945,-0.001802,-0.009454,-0.004108,0.941054,-0.143955,-0.233341,0.198105
49780,NaN,4.228996,-4.043766,8.699648,0.252410,-0.181201,0.666806,-0.371719,-1.884550,-0.827867,-0.108398,0.348145,-1.136230,0.041300,-0.040448,0.087464,0.999945,-0.001859,-0.009423,-0.004139,0.939356,-0.142863,-0.243161,0.195122
49781,NaN,4.353782,-3.878682,8.790792,0.025295,-0.032836,0.735858,-0.406497,-1.894631,-0.823674,-0.127441,0.348145,-1.132080,0.042542,-0.038784,0.088393,0.999945,-0.002032,-0.009473,-0.004118,0.937212,-0.142269,-0.254040,0.191983
49782,NaN,4.539144,-3.753494,8.438082,0.118456,0.031305,0.476872,-0.411620,-1.856009,-0.798574,-0.150879,0.348145,-1.129883,0.044455,-0.037539,0.084874,0.999947,-0.002058,-0.009280,-0.003993,0.935278,-0.141394,-0.263687,0.189028
49783,NaN,4.789623,-3.591647,8.399209,0.071478,0.216878,0.499025,-0.455344,-1.809159,-0.774506,-0.167969,0.354492,-1.121338,0.046994,-0.035908,0.084502,0.999949,-0.002277,-0.009046,-0.003872,0.932960,-0.141100,-0.274029,0.185970
49784,NaN,4.760250,-3.488222,8.366421,-0.157701,0.239010,0.421536,-0.544108,-1.755096,-0.711392,-0.193604,0.363037,-1.119141,0.046741,-0.034821,0.084172,0.999951,-0.002720,-0.008775,-0.003557,0.930787,-0.141025,-0.283212,0.183135
49785,NaN,4.803826,-3.677364,8.146959,-0.160747,0.012447,0.333416,-0.581409,-1.749172,-0.681660,-0.210938,0.369629,-1.114990,0.047198,-0.036698,0.081992,0.999952,-0.002907,-0.008746,-0.003408,0.928199,-0.141414,-0.293179,0.180265
49786,NaN,4.781403,-3.776343,7.975786,-0.245006,-0.155614,0.219670,-0.516050,-1.793698,-0.678939,-0.234375,0.378174,-1.112793,0.046968,-0.037717,0.080279,0.999951,-0.002580,-0.008968,-0.003395,0.925770,-0.141190,-0.302435,0.177617
49787,NaN,5.036261,-3.952356,7.966259,-0.216266,-0.256980,0.401520,-0.423280,-1.852107,-0.637981,-0.258057,0.384521,-1.110596,0.049495,-0.039513,0.080207,0.999950,-0.002116,-0.009260,-0.003190,0.922926,-0.140763,-0.312545,0.175240
49788,NaN,5.016617,-4.082760,7.549850,-0.134137,-0.501289,0.115201,-0.287443,-1.927542,-0.574401,-0.277100,0.382324,-1.106201,0.049318,-0.040861,0.076035,0.999948,-0.001437,-0.009638,-0.002872,0.920167,-0.139496,-0.322081,0.173488
49789,NaN,5.280653,-4.152961,7.370356,-0.017109,-0.545411,0.144882,-0.124954,-2.049818,-0.523054,-0.302490,0.382324,-1.106201,0.051939,-0.041620,0.074265,0.999944,-0.000625,-0.010249,-0.002615,0.916927,-0.137681,-0.332598,0.172244
49790,NaN,6.329873,-4.142306,6.825251,0.896997,-0.256895,0.333034,-0.017273,-2.094277,-0.494119,-0.330322,0.384521,-1.110352,0.062477,-0.041572,0.068913,0.999942,-0.000086,-0.010471,-0.002471,0.913804,-0.135127,-0.342536,0.171382
49791,NaN,6.516036,-3.912215,7.132190,0.556014,-0.008861,0.594956,0.040996,-2.115275,-0.463976,-0.355713,0.384521,-1.101807,0.064310,-0.039287,0.071997,0.999941,0.000205,-0.010576,-0.002320,0.910290,-0.132582,-0.353060,0.170714
49792,NaN,6.317937,-3.924490,7.281162,0.113781,-0.166928,0.593477,0.113120,-2.193524,-0.434842,-0.389648,0.384521,-1.097412,0.062290,-0.039422,0.073476,0.999937,0.000566,-0.010967,-0.002174,0.906806,-0.129419,-0.363215,0.170378
49793,NaN,6.254213,-3.791102,7.370309,-0.243849,-0.151529,0.566239,0.180670,-2.285217,-0.448750,-0.421387,0.382324,-1.091064,0.061609,-0.038117,0.074376,0.999932,0.000903,-0.011426,-0.002244,0.902829,-0.126074,-0.374256,0.170111
49794,NaN,6.499115,-3.367101,7.100443,-0.191962,0.207122,0.380826,0.202682,-2.349550,-0.456942,-0.455566,0.388672,-1.090820,0.064074,-0.033891,0.071726,0.999928,0.001013,-0.011747,-0.002285,0.898883,-0.122297,-0.384951,0.169896
49795,NaN,6.508167,-3.106201,6.973980,-0.375529,0.342406,0.206206,0.176284,-2.364444,-0.439196,-0.493652,0.384521,-1.075928,0.064183,-0.031266,0.070475,0.999927,0.000881,-0.011822,-0.002196,0.894503,-0.118857,-0.396164,0.169679
49796,NaN,6.650077,-2.869523,6.936764,-0.527265,0.518229,0.188560,0.112442,-2.419002,-0.412936,-0.527588,0.388672,-1.067383,0.065596,-0.028871,0.070148,0.999925,0.000562,-0.012095,-0.002065,0.890061,-0.115475,-0.407104,0.169479
49797,NaN,6.911783,-2.500382,6.733951,-0.525039,0.857406,0.104716,0.049552,-2.457543,-0.422513,-0.563965,0.395020,-1.052490,0.068230,-0.025165,0.068175,0.999922,0.000248,-0.012287,-0.002113,0.885163,-0.112459,-0.418629,0.169085
49798,NaN,7.103788,-2.224350,6.368425,-0.411482,1.078579,-0.084850,-0.030227,-2.441948,-0.466038,-0.597900,0.401611,-1.037598,0.070201,-0.022398,0.064548,0.999923,-0.000151,-0.012209,-0.002330,0.880360,-0.109545,-0.429692,0.168319
49799,NaN,6.897048,-1.726142,5.874443,-0.469482,1.352006,-0.701973,-0.222432,-2.437953,-0.561422,-0.625732,0.407959,-1.014160,0.068199,-0.017388,0.059598,0.999921,-0.001112,-0.012189,-0.002807,0.875225,-0.107321,-0.441240,0.166646
49800,NaN,7.474578,-1.502293,5.285948,0.064950,1.685457,-0.690288,-0.467689,-2.339784,-0.680300,-0.657715,0.416260,-0.988770,0.074069,-0.015151,0.053764,0.999923,-0.002338,-0.011699,-0.003401,0.870311,-0.105909,-0.452201,0.163880
49801,NaN,6.113765,-1.630643,5.258448,-0.826432,0.983849,-1.686538,-0.731445,-2.185690,-0.823579,-0.691650,0.420654,-0.969727,0.060490,-0.016362,0.053308,0.999925,-0.003657,-0.010928,-0.004118,0.865441,-0.105379,-0.463040,0.159691
49802,NaN,5.518736,-2.180808,5.414273,-1.349917,0.205652,-1.896928,-0.835690,-2.068879,-0.894263,-0.719482,0.431152,-0.950684,0.054525,-0.021825,0.054800,0.999928,-0.004178,-0.010344,-0.004471,0.860862,-0.105266,-0.473099,0.154965
49803,NaN,5.411800,-2.823099,5.052869,-1.166421,-0.495785,-1.990923,-0.725102,-1.945092,-0.906705,-0.747314,0.437500,-0.927246,0.053494,-0.028290,0.051153,0.999936,-0.003625,-0.009725,-0.004533,0.856428,-0.104628,-0.482709,0.150256
49804,NaN,5.358221,-2.970150,4.772492,-1.087617,-0.716003,-2.156891,-0.557040,-1.829728,-0.892995,-0.766357,0.437500,-0.901855,0.053009,-0.029805,0.048295,0.999944,-0.002785,-0.009148,-0.004465,0.852343,-0.103478,-0.491404,0.146036
49805,NaN,6.024654,-2.965216,4.508423,-0.696430,-0.549198,-1.773664,-0.432500,-1.810966,-0.896427,-0.795898,0.439697,-0.878662,0.059701,-0.029822,0.045691,0.999947,-0.002162,-0.009055,-0.004482,0.848221,-0.101725,-0.500004,0.142017
49806,NaN,6.994490,-3.114968,4.326285,-0.227665,-0.431531,-1.031915,-0.388567,-1.802536,-0.843626,-0.812988,0.443848,-0.857422,0.069419,-0.031358,0.043951,0.999949,-0.001943,-0.009013,-0.004218,0.844072,-0.099979,-0.508329,0.138376
49807,NaN,7.348473,-2.949995,4.062086,-0.024079,-0.240344,-0.916513,-0.281228,-1.852260,-0.853193,-0.831787,0.437256,-0.836182,0.072978,-0.029754,0.041340,0.999947,-0.001406,-0.009261,-0.004266,0.839728,-0.097675,-0.516825,0.134940
49808,NaN,7.697115,-2.482203,3.383082,0.511075,0.219648,-1.063972,-0.181286,-1.852678,-0.862981,-0.857178,0.437256,-0.814941,0.076545,-0.025122,0.034564,0.999947,-0.000906,-0.009263,-0.004315,0.835389,-0.094951,-0.525122,0.131745
49809,NaN,8.294987,-2.313932,2.924808,0.987437,0.480078,-0.784550,-0.188637,-1.844079,-0.814011,-0.875977,0.435059,-0.785156,0.082580,-0.023448,0.030033,0.999949,-0.000943,-0.009220,-0.004070,0.830902,-0.092352,-0.533398,0.128680
49810,NaN,8.198563,-2.222283,2.988345,0.718264,0.461715,-0.848676,-0.203010,-1.797001,-0.766802,-0.892822,0.432861,-0.766113,0.081627,-0.022505,0.030641,0.999952,-0.001015,-0.008985,-0.003834,0.826469,-0.089990,-0.541324,0.125776
49811,NaN,8.115992,-2.196017,3.092784,0.427305,0.388828,-0.872839,-0.174446,-1.765031,-0.734638,-0.905518,0.432861,-0.740723,0.080801,-0.022230,0.031661,0.999954,-0.000872,-0.008825,-0.003673,0.821962,-0.087563,-0.549165,0.122998
49812,NaN,7.870766,-2.016780,3.081630,0.180061,0.416500,-1.134851,-0.077971,-1.667251,-0.700217,-0.917969,0.426270,-0.723633,0.078376,-0.020430,0.031479,0.999959,-0.000390,-0.008336,-0.003501,0.817746,-0.084932,-0.556350,0.120631
49813,NaN,7.081669,-1.702080,2.871441,-0.064731,0.419224,-1.995340,0.061657,-1.535548,-0.660239,-0.930420,0.421875,-0.700195,0.070537,-0.017263,0.029251,0.999965,0.000308,-0.007678,-0.003301,0.813791,-0.081854,-0.562992,0.118680
49814,NaN,6.463482,-1.593927,2.619806,-0.154568,0.286362,-2.666105,0.179074,-1.446031,-0.643322,-0.943115,0.419678,-0.683350,0.064391,-0.016170,0.026650,0.999968,0.000895,-0.007230,-0.003217,0.810149,-0.078454,-0.569016,0.117154
49815,NaN,5.857187,-1.646160,2.396938,-0.228594,0.010601,-3.277506,0.301592,-1.424900,-0.611140,-0.942871,0.413330,-0.664307,0.058349,-0.016677,0.024361,0.999969,0.001508,-0.007124,-0.003056,0.806476,-0.074583,-0.574957,0.116014
49816,NaN,5.640785,-1.675815,2.166263,-0.155181,-0.126501,-3.545414,0.391685,-1.394513,-0.565007,-0.953125,0.402588,-0.649414,0.056207,-0.016960,0.022022,0.999970,0.001958,-0.006972,-0.002825,0.802915,-0.070569,-0.580547,0.115378
49817,NaN,5.628783,-1.792798,1.830098,0.095060,-0.286097,-3.635712,0.474014,-1.435311,-0.523533,-0.963623,0.400391,-0.634521,0.056108,-0.018119,0.018661,0.999968,0.002370,-0.007176,-0.002618,0.799132,-0.066251,-0.586305,0.115086
49818,NaN,6.347280,-2.024841,1.594353,0.470198,-0.363784,-2.988048,0.558919,-1.479575,-0.478783,-0.967285,0.387451,-0.619629,0.063304,-0.020445,0.016355,0.999966,0.002795,-0.007398,-0.002394,0.795227,-0.061761,-0.592035,0.115297
49819,NaN,7.322422,-2.310552,1.231937,1.018909,-0.427503,-2.115146,0.671361,-1.618819,-0.449829,-0.986084,0.376709,-0.604492,0.073069,-0.023312,0.012833,0.999959,0.003357,-0.008094,-0.002249,0.790801,-0.056781,-0.598305,0.115938
49820,NaN,7.945989,-2.292644,0.967924,1.333179,-0.289818,-1.598701,0.676661,-1.392223,-0.383419,-0.998779,0.372314,-0.600342,0.079346,-0.023112,0.010154,0.999968,0.003383,-0.006961,-0.001917,0.787024,-0.052150,-0.603508,0.116837
49821,NaN,7.801184,-2.151332,1.215651,0.961695,-0.248351,-1.690034,0.661763,-1.013933,-0.331064,-0.998535,0.365967,-0.581299,0.077913,-0.021683,0.012480,0.999980,0.003309,-0.005070,-0.001655,0.784209,-0.047939,-0.607332,0.117754
49822,NaN,8.459108,-1.935772,0.978961,1.258903,0.098613,-1.171669,0.509061,-0.773442,-0.262569,-1.002441,0.359375,-0.579102,0.084527,-0.019494,0.010067,0.999988,0.002545,-0.003867,-0.001313,0.782127,-0.044690,-0.610122,0.118454
49823,NaN,9.028992,-2.012508,0.553935,1.758935,0.165929,-0.715535,0.454276,-0.548205,-0.135323,-1.004395,0.353027,-0.574707,0.090261,-0.020199,0.005741,0.999993,0.002271,-0.002741,-0.000677,0.780495,-0.042172,-0.612204,0.119396
49824,NaN,9.682213,-2.225974,0.270287,2.180579,0.123576,-0.117171,0.330425,-0.227905,-0.070451,-1.006348,0.348633,-0.574707,0.096811,-0.022298,0.002776,0.999998,0.001652,-0.001140,-0.000352,0.779906,-0.040531,-0.612911,0.120180
49825,NaN,9.858586,-2.071534,0.224880,2.229269,0.308255,0.009169,0.305589,-0.067417,-0.091186,-1.004150,0.344482,-0.578857,0.098576,-0.020764,0.002250,0.999999,0.001528,-0.000337,-0.000456,0.779626,-0.039024,-0.613257,0.120732
49826,NaN,9.568411,-2.010607,-0.047732,2.423266,0.309872,-0.345320,0.408396,-0.047776,-0.162894,-1.006348,0.346436,-0.568359,0.095668,-0.020183,-0.000496,0.999998,0.002042,-0.000239,-0.000814,0.779655,-0.036904,-0.613228,0.121358
49827,NaN,9.313518,-2.438267,-0.357543,2.724312,-0.154096,-0.573156,0.529077,-0.131565,-0.226109,-1.006104,0.340088,-0.581055,0.093110,-0.024478,-0.003579,0.999996,0.002645,-0.000658,-0.001131,0.779236,-0.034075,-0.613783,0.122070
49828,NaN,9.077339,-2.931898,-0.927813,3.298503,-0.649366,-0.837548,0.553126,-0.175963,-0.226157,-1.003906,0.335938,-0.578857,0.090748,-0.029396,-0.009280,0.999995,0.002766,-0.000880,-0.001131,0.778923,-0.031119,-0.614168,0.122915
49829,NaN,8.867202,-2.917135,-1.220581,3.520889,-0.668796,-1.107356,0.457128,-0.260518,-0.202976,-1.008057,0.329346,-0.576660,0.088658,-0.029234,-0.012157,0.999996,0.002286,-0.001303,-0.001015,0.777994,-0.028596,-0.615344,0.123530
49830,NaN,9.320624,-3.095917,-1.024848,3.446765,-0.773223,-0.591464,0.269025,-0.227497,-0.154439,-1.010010,0.327148,-0.574463,0.093194,-0.031017,-0.010184,0.999998,0.001345,-0.001137,-0.000772,0.777426,-0.026934,-0.616085,0.123789
49831,NaN,9.479405,-3.054214,0.012095,2.457494,-0.821151,-0.196351,0.044353,0.030589,-0.061683,-1.010010,0.325195,-0.576660,0.094785,-0.030571,0.000100,1.000000,0.000222,0.000153,-0.000308,0.777162,-0.026675,-0.616454,0.123664
49832,NaN,8.516167,-2.707243,0.889635,1.366438,-0.799945,-0.973082,-0.082727,0.272332,0.013751,-1.008057,0.331543,-0.578857,0.085176,-0.027063,0.008792,0.999999,-0.000414,0.001362,0.000069,0.777980,-0.027208,-0.615446,0.123425
49833,NaN,7.671803,-2.654544,1.073348,1.006589,-0.954629,-1.742329,-0.131320,0.195208,0.007309,-1.003662,0.329346,-0.574463,0.076729,-0.026536,0.010676,0.999999,-0.000657,0.000976,0.000037,0.778129,-0.027979,-0.615302,0.123026
49834,NaN,7.443396,-2.240474,1.281816,0.701333,-0.624086,-1.990567,-0.101107,0.134860,0.017290,-1.003662,0.329346,-0.580811,0.074445,-0.022392,0.012779,1.000000,-0.000506,0.000674,0.000086,0.778518,-0.028509,-0.614838,0.122763
49835,NaN,7.457877,-1.749126,1.105761,0.789726,-0.124205,-2.114442,-0.018480,-0.025274,-0.022561,-1.001465,0.325195,-0.580811,0.074575,-0.017499,0.011069,1.000000,-0.000092,-0.000126,-0.000113,0.778029,-0.028636,-0.615475,0.122646
49836,NaN,7.520076,-1.245496,0.552276,1.249113,0.432445,-2.285371,0.038421,-0.239792,-0.049121,-1.003662,0.329346,-0.574463,0.075191,-0.012475,0.005611,0.999999,0.000192,-0.001199,-0.000246,0.777325,-0.028189,-0.616392,0.122607
49837,NaN,7.919283,-0.946960,0.233290,1.559408,0.838762,-2.032531,-0.022110,-0.421946,-0.075143,-1.010010,0.329346,-0.568115,0.079184,-0.009499,0.002501,0.999998,-0.000111,-0.002110,-0.000376,0.775643,-0.027915,-0.618576,0.122324
49838,NaN,8.675750,-0.983847,0.624603,1.303504,0.919787,-1.205632,-0.148789,-0.518104,-0.077988,-1.014160,0.329346,-0.561768,0.086737,-0.009868,0.006478,0.999996,-0.000744,-0.002591,-0.000390,0.774063,-0.027934,-0.620687,0.121632
49839,NaN,9.010653,-0.974930,1.218108,0.734043,0.928536,-0.744892,-0.300478,-0.545890,-0.076469,-1.011963,0.327148,-0.563965,0.090069,-0.009765,0.012442,0.999995,-0.001502,-0.002729,-0.000382,0.771936,-0.028627,-0.623524,0.120469
49840,NaN,9.255613,-0.962917,1.632373,0.324683,0.941388,-0.417671,-0.432344,-0.547430,-0.077328,-1.016357,0.329346,-0.549072,0.092507,-0.009629,0.016598,0.999994,-0.002162,-0.002737,-0.000387,0.770208,-0.029725,-0.625906,0.118900
49841,NaN,9.150000,-0.881044,2.052093,-0.181496,0.946954,-0.443593,-0.512458,-0.522600,-0.093226,-1.016357,0.331543,-0.542725,0.091442,-0.008800,0.020782,0.999993,-0.002562,-0.002613,-0.000466,0.768127,-0.031161,-0.628750,0.116977
49842,NaN,9.019793,-0.845439,2.124917,-0.333557,0.938436,-0.560955,-0.507062,-0.516868,-0.133061,-1.020508,0.333496,-0.536377,0.090137,-0.008460,0.021504,0.999993,-0.002535,-0.002584,-0.000665,0.766494,-0.032388,-0.631050,0.114951
49843,NaN,8.670579,-1.008242,2.038758,-0.349514,0.700324,-0.883006,-0.415033,-0.490885,-0.180600,-1.020508,0.329346,-0.532227,0.086646,-0.010118,0.020621,0.999994,-0.002075,-0.002454,-0.000903,0.764591,-0.033157,-0.633672,0.112967
49844,NaN,8.660622,-1.277905,1.694583,-0.026407,0.450367,-0.907224,-0.320096,-0.498654,-0.231256,-1.031006,0.329346,-0.528076,0.086549,-0.012852,0.017182,0.999995,-0.001600,-0.002493,-0.001156,0.763083,-0.033366,-0.635796,0.111150
49845,NaN,8.668226,-1.625786,1.294405,0.354454,0.124636,-0.906768,-0.270293,-0.493951,-0.275932,-1.028809,0.327148,-0.521729,0.086627,-0.016360,0.013180,0.999995,-0.001351,-0.002470,-0.001380,0.761258,-0.033255,-0.638314,0.109248
49846,NaN,9.240136,-2.279327,1.381747,0.393515,-0.429989,-0.213489,-0.221882,-0.526038,-0.315379,-1.030762,0.320557,-0.515137,0.092328,-0.022923,0.014086,0.999995,-0.001109,-0.002630,-0.001577,0.759709,-0.032806,-0.640489,0.107426
49847,NaN,9.376548,-2.633549,1.078302,0.696952,-0.754433,-0.067801,-0.158595,-0.442832,-0.295665,-1.030762,0.320557,-0.510986,0.093702,-0.026465,0.011011,0.999996,-0.000793,-0.002214,-0.001478,0.758073,-0.032236,-0.642722,0.105803
49848,NaN,9.775337,-2.798916,0.719644,1.085047,-0.836973,0.288349,-0.165809,-0.428703,-0.301946,-1.034912,0.318604,-0.510986,0.097695,-0.028131,0.007429,0.999996,-0.000829,-0.002144,-0.001510,0.756824,-0.031668,-0.644483,0.104194
49849,NaN,10.053477,-2.967431,0.640654,1.171628,-0.974370,0.577989,-0.153126,-0.345860,-0.304314,-1.043213,0.314209,-0.500244,0.100478,-0.029822,0.006603,0.999997,-0.000766,-0.001729,-0.001522,0.755492,-0.031121,-0.646331,0.102562
49850,NaN,9.936717,-2.926898,0.807247,0.950715,-1.005702,0.484945,-0.145485,-0.327285,-0.299114,-1.045166,0.309814,-0.498047,0.099310,-0.029412,0.008256,0.999997,-0.000727,-0.001636,-0.001496,0.754561,-0.030537,-0.647689,0.101012
49851,NaN,9.909185,-2.841230,0.831163,0.868573,-0.962622,0.447630,-0.097243,-0.330047,-0.302508,-1.038818,0.309814,-0.496094,0.099035,-0.028558,0.008489,0.999997,-0.000486,-0.001650,-0.001513,0.753274,-0.029817,-0.649439,0.099590
49852,NaN,9.914273,-2.685021,1.080050,0.575268,-0.863960,0.463066,-0.076488,-0.303748,-0.313565,-1.049316,0.305664,-0.493896,0.099084,-0.027001,0.010961,0.999998,-0.000382,-0.001519,-0.001568,0.752428,-0.028936,-0.650669,0.098205
49853,NaN,9.759318,-2.452801,1.375508,0.199142,-0.723560,0.315945,-0.081376,-0.267671,-0.316002,-1.044922,0.301270,-0.493896,0.097536,-0.024677,0.013896,0.999998,-0.000407,-0.001338,-0.001580,0.751348,-0.028162,-0.652160,0.096797
49854,NaN,9.607370,-2.184338,1.345862,0.154382,-0.517819,0.116670,-0.087515,-0.248766,-0.294937,-1.047119,0.305664,-0.487549,0.096025,-0.021979,0.013588,0.999998,-0.000438,-0.001244,-0.001475,0.750664,-0.027409,-0.653180,0.095437
49855,NaN,9.754968,-1.647521,1.451409,-0.018028,-0.000732,0.186308,-0.126786,-0.152394,-0.255047,-1.046875,0.294922,-0.485352,0.097517,-0.016590,0.014599,0.999999,-0.000634,-0.000762,-0.001275,0.749935,-0.027068,-0.654224,0.094108
49856,NaN,9.052214,-1.294544,1.373634,-0.080517,0.204767,-0.568401,-0.205476,-0.110690,-0.245838,-1.049072,0.296875,-0.489502,0.090499,-0.013043,0.013800,0.999999,-0.001027,-0.000553,-0.001229,0.749657,-0.026983,-0.654771,0.092528
49857,NaN,8.782446,-1.096666,0.986078,0.231518,0.364998,-0.917771,-0.238278,-0.033019,-0.217490,-1.046875,0.294922,-0.483154,0.087811,-0.011050,0.009888,0.999999,-0.001191,-0.000165,-0.001087,0.749302,-0.027227,-0.655387,0.090955
49858,NaN,8.566629,-1.168591,0.766913,0.425630,0.257004,-1.147028,-0.230972,0.002734,-0.221106,-1.044678,0.294922,-0.483154,0.085653,-0.011772,0.007682,0.999999,-0.001155,0.000014,-0.001106,0.749377,-0.027370,-0.655514,0.089368
49859,NaN,8.153881,-1.246014,0.592863,0.543494,0.105516,-1.561430,-0.163180,-0.044125,-0.258772,-1.046875,0.292725,-0.479004,0.081521,-0.012561,0.005957,0.999999,-0.000816,-0.000221,-0.001294,0.749022,-0.027180,-0.656128,0.087879
49860,NaN,7.931686,-1.228709,0.335617,0.760993,0.082126,-1.815932,-0.130116,-0.138595,-0.292789,-1.055176,0.288330,-0.483154,0.079296,-0.012401,0.003419,0.999998,-0.000651,-0.000693,-0.001464,0.748675,-0.026647,-0.656746,0.086373
49861,NaN,8.021039,-1.314210,0.559816,0.537309,-0.029730,-1.683239,-0.077436,-0.223234,-0.341364,-1.051025,0.290527,-0.483154,0.080181,-0.013277,0.005693,0.999998,-0.000387,-0.001116,-0.001707,0.747779,-0.025781,-0.657996,0.084878
49862,NaN,8.442278,-1.502267,0.833395,0.316090,-0.198930,-1.205493,0.059763,-0.279908,-0.377998,-1.052734,0.277588,-0.474609,0.084382,-0.015185,0.008448,0.999997,0.000299,-0.001400,-0.001890,0.747021,-0.024195,-0.659067,0.083695
49863,NaN,8.518004,-1.399358,1.042272,0.078920,-0.137767,-1.119268,0.210606,-0.349546,-0.402326,-1.063232,0.273438,-0.472412,0.085133,-0.014176,0.010557,0.999996,0.001053,-0.001748,-0.002012,0.745769,-0.021997,-0.660656,0.082939
49864,NaN,8.732798,-1.426060,1.058144,0.064362,-0.174574,-0.903129,0.342612,-0.402601,-0.433023,-1.062988,0.269043,-0.476562,0.087275,-0.014468,0.010732,0.999994,0.001713,-0.002013,-0.002165,0.744650,-0.019122,-0.662061,0.082498
49865,NaN,9.091531,-1.354027,1.069461,0.049765,-0.097099,-0.559531,0.392140,-0.416604,-0.442272,-1.064941,0.262695,-0.468018,0.090863,-0.013762,0.010857,0.999993,0.001961,-0.002083,-0.002211,0.743208,-0.016086,-0.663796,0.082204
49866,NaN,9.044519,-1.207811,0.919913,0.149466,0.005451,-0.642859,0.425034,-0.409691,-0.440249,-1.066650,0.251953,-0.465820,0.090399,-0.012297,0.009358,0.999993,0.002125,-0.002048,-0.002201,0.742056,-0.012878,-0.665178,0.082010
49867,NaN,9.338039,-1.096144,0.485229,0.560259,0.149350,-0.415907,0.448517,-0.439308,-0.432385,-1.062256,0.243408,-0.463867,0.093345,-0.011174,0.005032,0.999993,0.002243,-0.002197,-0.002162,0.740531,-0.009652,-0.666938,0.081943
49868,NaN,9.848511,-1.029391,-0.263198,1.305318,0.309227,0.001704,0.445434,-0.533790,-0.422195,-1.076904,0.234863,-0.459473,0.098470,-0.010496,-0.002392,0.999992,0.002227,-0.002669,-0.002111,0.738937,-0.006377,-0.668750,0.081889
49869,NaN,11.716138,-1.394266,-0.743685,1.939083,0.193088,1.847811,0.439856,-0.504222,-0.400221,-1.072510,0.234619,-0.450928,0.117151,-0.014161,-0.007172,0.999992,0.002199,-0.002521,-0.002001,0.737155,-0.003259,-0.670733,0.081911
49870,NaN,12.873012,-1.962131,-0.788998,2.117798,-0.261498,3.057173,0.267606,-0.209495,-0.300929,-1.074463,0.226074,-0.450928,0.128709,-0.019805,-0.007782,0.999997,0.001338,-0.001047,-0.001505,0.736575,-0.001179,-0.671402,0.081700
49871,NaN,13.121899,-2.365080,-0.569639,1.944700,-0.685932,3.372528,0.114897,-0.119407,-0.216481,-1.072266,0.226074,-0.453125,0.131197,-0.023790,-0.005632,0.999999,0.000574,-0.000597,-0.001082,0.735971,-0.000033,-0.672113,0.081305
49872,NaN,13.141278,-2.699781,0.125304,1.296547,-1.111992,3.494458,-0.092754,0.049630,-0.117001,-1.072510,0.230469,-0.455078,0.131397,-0.027074,0.001233,1.000000,-0.000464,0.000248,-0.000585,0.736183,-0.000003,-0.671971,0.080560
49873,NaN,11.929328,-2.521783,0.612332,0.689658,-1.143054,2.322427,-0.150440,0.126026,-0.082536,-1.070068,0.226074,-0.453125,0.119287,-0.025262,0.006067,0.999999,-0.000752,0.000630,-0.000413,0.736334,-0.000399,-0.671897,0.079782
49874,NaN,9.779676,-2.020514,0.901669,0.172702,-0.940994,0.168407,0.021026,0.056940,-0.093183,-1.074463,0.226074,-0.457275,0.097790,-0.020252,0.008987,1.000000,0.000105,0.000285,-0.000466,0.736560,-0.000032,-0.671683,0.079508
49875,NaN,8.513514,-1.388402,0.665848,0.220614,-0.448756,-1.175508,0.228508,-0.041019,-0.111493,-1.072021,0.219727,-0.452881,0.085126,-0.013939,0.006660,0.999999,0.001143,-0.000205,-0.000557,0.736170,0.001115,-0.672061,0.079915
49876,NaN,8.254869,-1.149058,0.025830,0.801442,-0.183492,-1.518842,0.337186,-0.120303,-0.116467,-1.072021,0.219727,-0.459229,0.082542,-0.011539,0.000289,0.999998,0.001686,-0.000602,-0.000582,0.735806,0.002795,-0.672371,0.080616
49877,NaN,8.418441,-1.012049,-0.195689,1.004956,-0.012228,-1.391132,0.246066,-0.102719,-0.086154,-1.072021,0.215332,-0.450928,0.084181,-0.010154,-0.001926,0.999999,0.001230,-0.000514,-0.000431,0.735202,0.003944,-0.672958,0.081179
49878,NaN,8.907884,-0.852891,-0.439285,1.254017,0.221718,-0.944257,0.151421,-0.223901,-0.056702,-1.078613,0.221924,-0.452881,0.089081,-0.008551,-0.004300,0.999999,0.000757,-0.001120,-0.000284,0.734465,0.004782,-0.673721,0.081474
49879,NaN,10.033738,-0.125489,-1.495577,2.259577,1.185010,0.006597,0.311171,-0.387402,-0.075930,-1.078369,0.217529,-0.446533,0.100366,-0.001270,-0.014763,0.999997,0.001556,-0.001937,-0.000380,0.732887,0.006255,-0.675327,0.082284
