// Start Time: Unknown
// Update Rate: 100.0Hz
// Filter Profile: human (46.1)
// Firmware Version: 4.4.0
PacketCounter,SampleTimeFine,Acc_X,Acc_Y,Acc_Z,FreeAcc_X,FreeAcc_Y,FreeAcc_Z,Gyr_X,Gyr_Y,Gyr_Z,Mag_X,Mag_Y,Mag_Z,VelInc_X,VelInc_Y,VelInc_Z,OriInc_q0,OriInc_q1,OriInc_q2,OriInc_q3,Quat_q0,Quat_q1,Quat_q2,Quat_q3
39653,NaN,9.911573,-1.421379,-0.235953,-0.000000,0.000000,0.203061,0.072891,0.266274,0.007094,-1.055420,0.234619,-0.429932,0.099113,-0.014209,-0.002497,0.999999,0.000364,0.001331,0.000035,0.697965,-0.121379,-0.705500,-0.019537
39654,NaN,9.796450,-1.374283,-0.377278,-0.000000,-0.000000,0.086876,0.105225,0.263109,-0.014056,-1.059814,0.234619,-0.434082,0.097958,-0.013748,-0.003909,0.999999,0.000526,0.001316,-0.000070,0.692725,-0.120469,-0.710795,-0.019719
39655,NaN,9.792618,-1.310909,-0.388530,0.084953,0.060304,0.074369,0.104244,0.281952,-0.031267,-1.055420,0.232422,-0.438232,0.097919,-0.013122,-0.004030,0.999999,0.000521,0.001410,-0.000156,0.695948,-0.119969,-0.707744,-0.019021
39656,NaN,9.725941,-1.277087,-0.377886,0.109848,0.076475,0.003100,0.093722,0.301299,-0.043359,-1.051270,0.236816,-0.440430,0.097251,-0.012790,-0.003931,0.999999,0.000469,0.001506,-0.000217,0.697066,-0.119460,-0.706730,-0.019021
39657,NaN,9.723173,-1.247883,-0.323515,0.091362,0.104371,-0.005412,0.108745,0.301351,-0.058174,-1.055420,0.232666,-0.446777,0.097223,-0.012505,-0.003388,0.999999,0.000544,0.001507,-0.000291,0.698190,-0.118849,-0.705722,-0.019019
39658,NaN,9.570798,-1.297913,-0.390081,0.175515,0.009809,-0.148013,0.147702,0.302081,-0.067739,-1.057617,0.232666,-0.442627,0.095698,-0.013009,-0.004055,0.999999,0.000739,0.001510,-0.000339,0.699336,-0.118065,-0.704721,-0.018914
39659,NaN,9.491408,-1.294293,-0.472793,0.286350,-0.025907,-0.226093,0.213673,0.305578,-0.076727,-1.051025,0.228271,-0.450928,0.094902,-0.012974,-0.004887,0.999998,0.001068,0.001528,-0.000384,0.700528,-0.117017,-0.703719,-0.018611
39660,NaN,9.413234,-1.435646,-0.479058,0.294859,-0.187963,-0.284981,0.296978,0.293940,-0.084905,-1.051025,0.228271,-0.453125,0.094119,-0.014389,-0.004950,0.999998,0.001485,0.001470,-0.000425,0.701727,-0.115651,-0.702765,-0.018035
39661,NaN,9.384249,-1.471853,-0.433673,0.273356,-0.231210,-0.310568,0.328825,0.296772,-0.081410,-1.055176,0.224121,-0.453125,0.093830,-0.014749,-0.004500,0.999997,0.001644,0.001484,-0.000407,0.702939,-0.114186,-0.701810,-0.017337
39662,NaN,9.279380,-1.392813,-0.602056,0.483971,-0.211698,-0.424922,0.332612,0.324309,-0.074995,-1.048828,0.226074,-0.459473,0.092779,-0.013953,-0.006194,0.999997,0.001663,0.001622,-0.000375,0.704259,-0.112725,-0.700740,-0.016618
39663,NaN,9.256622,-1.474539,-0.633688,0.533292,-0.310565,-0.438258,0.311097,0.342656,-0.053755,-1.055176,0.224121,-0.465820,0.092551,-0.014760,-0.006518,0.999997,0.001555,0.001713,-0.000269,0.705600,-0.111423,-0.699614,-0.015904
39664,NaN,9.040918,-1.559510,-0.500283,0.416915,-0.407745,-0.643153,0.249850,0.342732,-0.043420,-1.046875,0.230469,-0.468018,0.090397,-0.015608,-0.005177,0.999998,0.001249,0.001714,-0.000217,0.706933,-0.110363,-0.698448,-0.015374
39665,NaN,8.968151,-1.573369,-0.336208,0.283421,-0.409841,-0.715003,0.232613,0.340020,-0.035019,-1.046631,0.221924,-0.469971,0.089673,-0.015745,-0.003533,0.999998,0.001163,0.001700,-0.000175,0.708189,-0.109421,-0.697334,-0.014851
39666,NaN,9.124157,-1.663407,-0.089092,0.062643,-0.441494,-0.548447,0.257070,0.340543,-0.010525,-1.055420,0.224121,-0.474121,0.091239,-0.016638,-0.001068,0.999998,0.001285,0.001703,-0.000053,0.709515,-0.108449,-0.696151,-0.014178
39667,NaN,9.262863,-1.792504,-0.269617,0.256216,-0.584430,-0.395730,0.284355,0.334114,0.021885,-1.046631,0.221924,-0.472168,0.092626,-0.017911,-0.002876,0.999998,0.001422,0.001671,0.000109,0.710763,-0.107548,-0.695036,-0.013245
39668,NaN,9.320656,-1.600831,-0.092673,0.157038,-0.362356,-0.363362,0.286055,0.440747,0.055892,-1.053467,0.228516,-0.487061,0.093209,-0.015981,-0.001155,0.999997,0.001430,0.002204,0.000279,0.712449,-0.106696,-0.693456,-0.012289
39669,NaN,9.605602,-1.586392,-0.048363,0.177082,-0.302241,-0.083166,0.261615,0.564676,0.102098,-1.044922,0.226318,-0.491211,0.096062,-0.015814,-0.000776,0.999995,0.001308,0.002823,0.000510,0.714462,-0.106173,-0.691480,-0.011242
39670,NaN,10.038571,-1.639388,0.042691,0.168661,-0.280944,0.353648,0.277267,0.766612,0.160093,-1.040771,0.228516,-0.493408,0.100399,-0.016314,0.000019,0.999991,0.001386,0.003833,0.000800,0.717263,-0.105692,-0.688666,-0.010119
39671,NaN,10.034465,-1.363438,0.282156,0.075184,0.035790,0.317512,0.242433,1.126469,0.264611,-1.036377,0.228516,-0.506104,0.100376,-0.013505,0.002240,0.999983,0.001212,0.005632,0.001323,0.721170,-0.105788,-0.684577,-0.008835
39672,NaN,9.250653,-1.446452,0.319605,0.107153,-0.134488,-0.445848,0.240601,1.467216,0.352255,-1.028076,0.230713,-0.527344,0.092552,-0.014305,0.002500,0.999971,0.001203,0.007336,0.001761,0.726313,-0.106058,-0.679090,-0.007517
39673,NaN,8.704787,-1.548175,0.711995,-0.192384,-0.226535,-0.947767,0.114534,1.664098,0.451796,-1.019775,0.235107,-0.541992,0.087138,-0.015289,0.006386,0.999963,0.000573,0.008320,0.002259,0.731909,-0.107225,-0.672883,-0.006276
39674,NaN,9.086731,-1.792873,0.644010,0.021047,-0.407876,-0.537491,-0.240369,1.572733,0.427523,-1.013916,0.247803,-0.557129,0.090952,-0.017727,0.005746,0.999966,-0.001202,0.007864,0.002138,0.737060,-0.109490,-0.666868,-0.006363
39675,NaN,9.055277,-1.614899,0.302975,0.512292,-0.275447,-0.628021,-0.574538,1.426427,0.381678,-1.007568,0.250000,-0.569824,0.090602,-0.015969,0.002430,0.999969,-0.002873,0.007132,0.001908,0.741393,-0.112977,-0.661450,-0.007535
39676,NaN,9.101194,-1.264400,0.665632,0.342583,0.153011,-0.607717,-0.772482,1.392240,0.347775,-0.999512,0.260742,-0.578369,0.091077,-0.012461,0.006071,0.999967,-0.003862,0.006961,0.001739,0.745549,-0.116935,-0.656042,-0.009587
39677,NaN,8.515194,-1.301037,1.133939,-0.081312,0.145080,-1.126028,-0.916456,1.528473,0.357944,-0.987061,0.269531,-0.591064,0.085259,-0.012808,0.010747,0.999959,-0.004582,0.007642,0.001790,0.749877,-0.121594,-0.650195,-0.012043
39678,NaN,7.734164,-1.906663,1.314510,-0.364262,-0.496392,-1.762819,-0.854079,1.579589,0.349853,-0.985352,0.280273,-0.601807,0.077476,-0.018877,0.012614,0.999958,-0.004270,0.007898,0.001749,0.754483,-0.125833,-0.643982,-0.014468
39679,NaN,8.200696,-1.836653,1.482150,-0.334988,-0.304778,-1.291204,-0.754009,1.157638,0.296251,-0.972900,0.286621,-0.618652,0.082118,-0.018190,0.014415,0.999975,-0.003770,0.005788,0.001481,0.757627,-0.129707,-0.639460,-0.016385
39680,NaN,8.726755,-1.831494,1.920941,-0.567159,-0.107900,-0.709587,-0.609217,1.160487,0.343470,-0.966797,0.295166,-0.625244,0.087408,-0.018107,0.018758,0.999977,-0.003046,0.005802,0.001717,0.760953,-0.133015,-0.634777,-0.017784
39681,NaN,8.745289,-1.491782,2.243551,-0.703656,0.324787,-0.694719,-0.572226,1.206385,0.380998,-0.958740,0.310303,-0.629639,0.087614,-0.014688,0.021950,0.999976,-0.002861,0.006032,0.001905,0.764350,-0.136474,-0.629912,-0.018811
39682,NaN,8.609509,-0.967621,2.394234,-0.658800,0.871798,-0.890969,-0.749077,1.274932,0.357078,-0.952637,0.316650,-0.642334,0.086263,-0.009434,0.023428,0.999971,-0.003745,0.006375,0.001785,0.767866,-0.140337,-0.624708,-0.020675
39683,NaN,8.359663,-1.753875,2.836392,-1.165974,0.215186,-0.890944,-0.447666,1.654317,0.426048,-0.940186,0.321045,-0.659424,0.083865,-0.017298,0.027710,0.999961,-0.002238,0.008271,0.002130,0.772753,-0.143315,-0.617941,-0.021508
39684,NaN,8.516577,-2.274997,2.783803,-1.027119,-0.253643,-0.629263,-0.190198,1.909085,0.547583,-0.929688,0.327637,-0.680664,0.085488,-0.022490,0.027044,0.999950,-0.000951,0.009545,0.002738,0.778535,-0.145530,-0.610122,-0.021347
39685,NaN,8.184453,-1.952342,2.136544,-0.256266,-0.134726,-1.136541,-0.222746,1.907671,0.589032,-0.910889,0.333984,-0.689209,0.082100,-0.019259,0.020605,0.999950,-0.001114,0.009538,0.002945,0.784343,-0.148088,-0.602026,-0.021012
39686,NaN,8.584012,-2.358370,2.202532,-0.120518,-0.429852,-0.653195,-0.245942,1.970576,0.548708,-0.902832,0.342773,-0.708252,0.086116,-0.023321,0.021207,0.999947,-0.001230,0.009853,0.002743,0.790108,-0.150489,-0.593834,-0.021058
39687,NaN,7.837867,-2.691643,2.592179,-0.591990,-0.736115,-1.181257,-0.282924,2.073861,0.513933,-0.881836,0.349121,-0.723145,0.078711,-0.026679,0.025145,0.999942,-0.001415,0.010369,0.002570,0.796185,-0.153040,-0.584991,-0.021291
39688,NaN,7.744904,-2.901587,2.425248,-0.342122,-0.978710,-1.256557,-0.419729,2.020265,0.510092,-0.869629,0.364258,-0.740234,0.077763,-0.028768,0.023529,0.999944,-0.002099,0.010101,0.002550,0.801783,-0.155979,-0.576481,-0.022033
39689,NaN,7.377763,-2.959048,2.696804,-0.562140,-0.983917,-1.495599,-0.683793,2.014990,0.520501,-0.852783,0.370605,-0.753174,0.074122,-0.029307,0.026323,0.999940,-0.003419,0.010075,0.002602,0.807200,-0.160237,-0.567636,-0.023264
39690,NaN,8.946865,-2.412650,3.591390,-0.541135,0.042581,0.110441,-0.890493,1.765214,0.302087,-0.844727,0.383545,-0.765869,0.089818,-0.023833,0.035229,0.999950,-0.004452,0.008826,0.001510,0.811491,-0.164475,-0.560138,-0.025985
39691,NaN,8.579000,-2.683231,5.934638,-2.657017,0.463206,0.615197,-0.536901,2.022957,0.343005,-0.825684,0.385742,-0.782959,0.086431,-0.026527,0.058546,0.999944,-0.002684,0.010115,0.001715,0.816870,-0.167645,-0.551237,-0.027495
39692,NaN,7.839603,-3.337149,6.611652,-3.511345,-0.027486,0.384216,-0.185626,1.685184,0.373656,-0.813232,0.394287,-0.795654,0.079012,-0.033163,0.065483,0.999962,-0.000928,0.008426,0.001868,0.821380,-0.169195,-0.543995,-0.027892
39693,NaN,8.887310,-2.420192,4.655487,-0.970989,0.394084,0.454512,-0.125750,1.362572,0.300348,-0.802734,0.396484,-0.800049,0.089224,-0.024039,0.045963,0.999975,-0.000629,0.006813,0.001502,0.825425,-0.170600,-0.537395,-0.027847
39694,NaN,8.333320,-2.070174,4.265057,-0.636717,0.523645,-0.260772,0.032992,1.529095,0.309471,-0.790283,0.403076,-0.812744,0.083688,-0.020579,0.042008,0.999970,0.000165,0.007645,0.001547,0.829580,-0.171078,-0.530808,-0.027784
39695,NaN,7.939370,-2.371325,4.634798,-1.038463,0.295660,-0.380259,0.230572,1.408047,0.300317,-0.771240,0.400879,-0.827637,0.079753,-0.023647,0.045760,0.999973,0.001153,0.007040,0.001502,0.833996,-0.170902,-0.523947,-0.026868
39696,NaN,7.319406,-2.440112,3.918900,-0.598037,-0.086454,-1.180204,0.184132,1.034945,0.293271,-0.767334,0.409424,-0.836182,0.073431,-0.024329,0.038787,0.999985,0.000921,0.005175,0.001466,0.836892,-0.170761,-0.519398,-0.026046
39697,NaN,6.913102,-2.306519,3.576157,-0.361407,-0.120469,-1.703781,0.000346,0.841041,0.269432,-0.756836,0.411621,-0.846680,0.069312,-0.022972,0.035470,0.999990,0.000002,0.004205,0.001347,0.839593,-0.171506,-0.514806,-0.025383
39698,NaN,6.952540,-2.271207,4.347846,-0.919519,0.171348,-1.355471,-0.254196,0.949141,0.304817,-0.748291,0.416016,-0.853271,0.069765,-0.022551,0.043176,0.999987,-0.001271,0.004746,0.001524,0.841846,-0.173235,-0.510521,-0.025571
39699,NaN,6.829384,-2.334662,5.448392,-1.820624,0.471331,-0.967442,-0.377362,1.092584,0.353239,-0.729492,0.422363,-0.861816,0.068631,-0.023123,0.054153,0.999982,-0.001887,0.005463,0.001766,0.844830,-0.175727,-0.504697,-0.025744
39700,NaN,7.110721,-2.657690,5.766098,-1.923454,0.337343,-0.482137,-0.344738,1.063072,0.309739,-0.721436,0.433105,-0.872559,0.071453,-0.026367,0.057327,0.999983,-0.001724,0.005315,0.001549,0.847235,-0.177825,-0.499882,-0.026239
39701,NaN,7.578789,-1.504039,6.134235,-1.610001,1.620470,-0.215302,-0.249089,1.179498,0.234547,-0.711182,0.441650,-0.889404,0.076165,-0.014875,0.060912,0.999981,-0.001245,0.005897,0.001173,0.850575,-0.179395,-0.493588,-0.026665
39702,NaN,6.409670,-1.715877,5.621007,-1.716285,1.113462,-1.360625,-0.356665,1.259929,0.230175,-0.692139,0.446045,-0.893799,0.064469,-0.016985,0.055835,0.999978,-0.001783,0.006300,0.001151,0.853376,-0.181308,-0.487964,-0.027696
39703,NaN,5.563495,-1.641244,4.946682,-1.468325,0.863983,-2.382164,-0.465699,1.163292,0.238888,-0.686035,0.450439,-0.902344,0.055941,-0.016231,0.049180,0.999980,-0.002328,0.005816,0.001194,0.856504,-0.183620,-0.481519,-0.028690
39704,NaN,5.085928,-1.773557,4.464610,-1.278986,0.538201,-2.955655,-0.492521,1.113135,0.283064,-0.671631,0.469727,-0.913086,0.051132,-0.017554,0.044405,0.999980,-0.002463,0.005566,0.001415,0.858756,-0.186248,-0.476412,-0.029684
39705,NaN,5.348572,-2.119075,4.527161,-1.168368,0.296606,-2.591935,-0.540276,1.036142,0.353408,-0.650391,0.469727,-0.919434,0.053757,-0.020974,0.045050,0.999981,-0.002701,0.005181,0.001767,0.861496,-0.189082,-0.470272,-0.030260
39706,NaN,5.635904,-2.423079,5.100302,-1.455573,0.289887,-1.974046,-0.564078,1.082295,0.423524,-0.638184,0.486816,-0.926025,0.056685,-0.023968,0.050765,0.999979,-0.002820,0.005411,0.002118,0.863554,-0.192340,-0.465115,-0.030785
39707,NaN,5.328539,-2.258152,5.806217,-2.030648,0.696404,-1.900979,-0.504727,1.223873,0.542019,-0.623779,0.495605,-0.945068,0.053700,-0.022290,0.057791,0.999974,-0.002524,0.006119,0.002710,0.866730,-0.195400,-0.457886,-0.030622
39708,NaN,4.796529,-2.359546,3.978236,-0.827038,-0.104384,-3.201741,-0.094848,1.537618,0.651202,-0.600586,0.501953,-0.949463,0.048346,-0.023420,0.039423,0.999965,-0.000474,0.007688,0.003256,0.870227,-0.197060,-0.450556,-0.029518
39709,NaN,3.665462,-3.250249,5.206527,-2.514117,-0.599075,-3.147364,-0.046672,1.678030,0.772280,-0.579346,0.501953,-0.964355,0.037215,-0.032347,0.051762,0.999957,-0.000233,0.008390,0.003861,0.874799,-0.198540,-0.441066,-0.027728
39710,NaN,5.414208,-3.405805,6.030256,-1.973619,-0.188432,-1.248555,-0.049717,1.577049,0.887907,-0.562500,0.501953,-0.975098,0.054766,-0.033801,0.059881,0.999959,-0.000249,0.007885,0.004439,0.878315,-0.200489,-0.433261,-0.025519
39711,NaN,6.160507,-3.118519,6.588644,-1.663730,0.407248,-0.423843,0.037153,1.749061,0.948402,-0.537109,0.506348,-0.994141,0.062325,-0.030903,0.065338,0.999950,0.000186,0.008745,0.004742,0.883006,-0.202006,-0.423055,-0.022758
39712,NaN,6.635559,-2.598446,6.301490,-0.848706,0.862661,-0.377450,0.143978,1.830083,0.923541,-0.514160,0.517090,-1.011230,0.067048,-0.025721,0.062385,0.999947,0.000720,0.009150,0.004618,0.887081,-0.203105,-0.414036,-0.020224
39713,NaN,7.287729,-2.162083,5.917911,0.169441,1.212891,-0.257342,0.211294,1.747814,0.804625,-0.490723,0.510742,-1.021973,0.073477,-0.021388,0.058516,0.999953,0.001056,0.008739,0.004023,0.891724,-0.203436,-0.403891,-0.017744
39714,NaN,6.832834,-1.884757,5.370023,0.477642,1.201263,-1.014737,0.364410,1.596838,0.676146,-0.475830,0.504395,-1.047363,0.068817,-0.018713,0.053118,0.999961,0.001822,0.007984,0.003381,0.895344,-0.203027,-0.396100,-0.015617
39715,NaN,6.151642,-1.875742,5.251413,0.265359,1.062363,-1.582383,0.298316,1.492569,0.610345,-0.452393,0.500000,-1.047363,0.061963,-0.018647,0.052025,0.999966,0.001492,0.007463,0.003052,0.899306,-0.202434,-0.387406,-0.013654
39716,NaN,5.913186,-2.228682,5.542843,-0.027513,0.817809,-1.447008,0.101593,1.591884,0.656771,-0.433350,0.506592,-1.062256,0.059643,-0.022120,0.054944,0.999963,0.000508,0.007959,0.003284,0.902504,-0.203133,-0.379575,-0.012115
39717,NaN,6.446466,-2.594569,6.540467,-0.206983,0.928821,-0.317508,0.019568,1.674921,0.644605,-0.409912,0.500244,-1.068604,0.065093,-0.025743,0.064859,0.999960,0.000098,0.008374,0.003223,0.906320,-0.203732,-0.370082,-0.010770
39718,NaN,6.244494,-2.864085,6.686188,-0.320139,0.719222,-0.258669,0.053431,1.808774,0.591721,-0.380371,0.502197,-1.075195,0.063131,-0.028473,0.066285,0.999955,0.000267,0.009044,0.002959,0.909712,-0.204478,-0.361269,-0.009832
39719,NaN,6.997567,-3.379131,6.105141,0.755369,0.112061,0.039730,0.178729,2.114926,0.619708,-0.358887,0.493652,-1.092041,0.070720,-0.033627,0.060276,0.999939,0.000894,0.010574,0.003098,0.914254,-0.204184,-0.349817,-0.008781
39720,NaN,6.465407,-3.439294,6.093118,0.570335,-0.023895,-0.303408,0.187429,2.231008,0.668916,-0.327148,0.498047,-1.092285,0.065443,-0.034232,0.060172,0.999932,0.000937,0.011155,0.003345,0.918314,-0.204386,-0.338920,-0.007673
39721,NaN,5.614939,-3.482625,6.369392,-0.030950,-0.075803,-0.635800,0.145904,2.073880,0.750827,-0.301514,0.489502,-1.104980,0.056936,-0.034660,0.063081,0.999939,0.000730,0.010369,0.003754,0.922409,-0.204445,-0.327608,-0.006040
39722,NaN,5.516062,-3.479005,6.447372,0.038118,-0.052338,-0.642518,0.188734,1.862507,0.728056,-0.275879,0.485107,-1.107178,0.055884,-0.034648,0.063923,0.999950,0.000944,0.009312,0.003640,0.925629,-0.204701,-0.318262,-0.004276
39723,NaN,5.028352,-3.048633,6.029527,0.146877,0.114657,-1.392676,0.241726,1.854668,0.702510,-0.250244,0.476562,-1.115479,0.050946,-0.030381,0.059788,0.999950,0.001209,0.009273,0.003512,0.929190,-0.204242,-0.308033,-0.002475
39724,NaN,4.580039,-3.179480,6.713126,-0.448418,0.198708,-1.100136,0.204907,1.969707,0.704692,-0.218018,0.468018,-1.115723,0.046570,-0.031700,0.066643,0.999945,0.001025,0.009848,0.003523,0.932391,-0.204340,-0.298147,-0.000897
39725,NaN,4.781093,-3.356177,7.284764,-0.406411,0.269693,-0.488054,0.195783,2.186810,0.723153,-0.188232,0.465820,-1.111572,0.048724,-0.033458,0.072285,0.999933,0.000979,0.010934,0.003616,0.936138,-0.204090,-0.286344,0.000597
39726,NaN,4.861899,-3.359133,7.516053,-0.241047,0.358200,-0.261662,0.267203,2.289540,0.679499,-0.156250,0.457275,-1.122070,0.049589,-0.033524,0.074552,0.999928,0.001336,0.011447,0.003397,0.939619,-0.203805,-0.274912,0.001823
39727,NaN,4.399741,-3.698629,7.715967,-0.531551,0.050361,-0.206205,0.262434,2.225647,0.631471,-0.132324,0.444580,-1.115723,0.044969,-0.036946,0.076614,0.999932,0.001312,0.011128,0.003157,0.943186,-0.203055,-0.262984,0.002947
39728,NaN,4.657386,-3.963444,8.305009,-0.400203,0.051592,0.492934,0.180187,2.219003,0.604934,-0.098145,0.437988,-1.111572,0.047611,-0.039566,0.082490,0.999933,0.000901,0.011095,0.003025,0.946215,-0.203020,-0.251884,0.003784
39729,NaN,4.979804,-4.244655,8.425101,0.053458,-0.139995,0.853641,0.147678,2.210838,0.586346,-0.070557,0.433838,-1.115967,0.050849,-0.042360,0.083661,0.999934,0.000738,0.011054,0.002932,0.949351,-0.202725,-0.240029,0.004576
39730,NaN,4.896158,-4.422149,8.089849,0.357797,-0.448160,0.610352,0.164167,2.262418,0.575624,-0.042480,0.423096,-1.111816,0.049999,-0.044145,0.080301,0.999932,0.000821,0.011312,0.002878,0.952155,-0.202674,-0.228685,0.005211
39731,NaN,4.735809,-4.473744,7.787915,0.594999,-0.642863,0.302742,0.134116,2.313448,0.586791,-0.014648,0.416504,-1.105469,0.048386,-0.044648,0.077293,0.999929,0.000671,0.011567,0.002934,0.955074,-0.202448,-0.216363,0.005893
39732,NaN,4.374092,-4.514318,7.731859,0.522760,-0.743559,0.110148,0.107681,2.338469,0.598387,0.010742,0.414551,-1.105469,0.044776,-0.045052,0.076775,0.999927,0.000538,0.011692,0.002992,0.957626,-0.202635,-0.204571,0.006499
39733,NaN,3.718548,-4.454984,8.259631,-0.032156,-0.556595,0.266019,0.111516,2.365845,0.593496,0.044922,0.414307,-1.101318,0.038291,-0.044483,0.082123,0.999925,0.000558,0.011829,0.002967,0.960229,-0.202556,-0.192041,0.007139
39734,NaN,3.187731,-4.102443,8.774978,-0.449368,-0.084320,0.374452,0.088825,2.381897,0.576469,0.072754,0.405762,-1.093018,0.033037,-0.040969,0.087343,0.999925,0.000444,0.011909,0.002882,0.962514,-0.202752,-0.180003,0.007579
39735,NaN,2.619139,-3.941324,8.902174,-0.762294,0.061858,0.239821,0.050412,2.340028,0.567597,0.100586,0.399414,-1.082520,0.027342,-0.039359,0.088696,0.999927,0.000252,0.011700,0.002838,0.964711,-0.202926,-0.167598,0.008072
39736,NaN,2.533738,-4.013781,9.427844,-0.776009,0.199424,0.711925,0.007440,2.304039,0.552761,0.117676,0.395020,-1.076172,0.026532,-0.040069,0.093976,0.999930,0.000037,0.011520,0.002764,0.966559,-0.203432,-0.155911,0.008406
39737,NaN,2.498333,-4.113631,9.661071,-0.627396,0.204390,0.960404,-0.046765,2.229036,0.570905,0.145508,0.390625,-1.069824,0.026175,-0.041040,0.096333,0.999934,-0.000234,0.011145,0.002854,0.968280,-0.204018,-0.143979,0.008958
39738,NaN,2.494213,-4.611590,9.662291,-0.411937,-0.234706,1.169948,-0.097973,2.121891,0.559147,0.166992,0.388428,-1.052979,0.026094,-0.045997,0.096373,0.999940,-0.000490,0.010609,0.002796,0.969625,-0.204977,-0.133130,0.009429
39739,NaN,2.288614,-4.924255,9.843414,-0.422699,-0.446587,1.412118,-0.125721,2.033174,0.544137,0.186035,0.384277,-1.051025,0.024019,-0.049116,0.098225,0.999944,-0.000629,0.010166,0.002721,0.970872,-0.205882,-0.122150,0.010002
39740,NaN,2.483739,-5.421428,9.940105,-0.040993,-0.824667,1.749329,-0.166444,1.996987,0.539272,0.209717,0.379883,-1.036133,0.025974,-0.054063,0.099191,0.999946,-0.000832,0.009985,0.002696,0.971841,-0.207108,-0.111901,0.010461
39741,NaN,2.470054,-5.511658,9.917586,0.185501,-0.891214,1.763382,-0.189693,1.861171,0.530206,0.224854,0.375488,-1.027832,0.025768,-0.054955,0.098992,0.999953,-0.000948,0.009306,0.002651,0.972686,-0.208327,-0.101778,0.011110
39742,NaN,2.470595,-5.485833,10.066606,0.367783,-0.778657,1.883021,-0.193605,1.735555,0.509032,0.241943,0.373535,-1.019287,0.025718,-0.054696,0.100499,0.999959,-0.000968,0.008678,0.002545,0.973299,-0.209615,-0.092813,0.011679
39743,NaN,2.461050,-5.518769,10.296450,0.526814,-0.687020,2.094356,-0.200524,1.612032,0.475769,0.265381,0.369141,-1.010986,0.025571,-0.055024,0.102816,0.999964,-0.001003,0.008060,0.002379,0.973817,-0.210883,-0.084010,0.012312
39744,NaN,2.200680,-5.602104,10.406395,0.438217,-0.703414,2.180227,-0.215226,1.495411,0.417720,0.278076,0.371094,-0.996338,0.022901,-0.055862,0.103955,0.999969,-0.001076,0.007477,0.002089,0.974163,-0.212192,-0.076297,0.012678
39745,NaN,2.075614,-5.373488,10.363009,0.505166,-0.490906,2.022684,-0.191385,1.391322,0.362955,0.295410,0.364746,-0.983643,0.021574,-0.053597,0.103533,0.999974,-0.000957,0.006957,0.001815,0.974460,-0.213384,-0.068753,0.012984
39746,NaN,2.232662,-5.396084,9.950331,0.875211,-0.651164,1.672942,-0.144444,1.303928,0.331624,0.308105,0.362549,-0.983643,0.023064,-0.053851,0.099393,0.999977,-0.000722,0.006520,0.001658,0.974710,-0.214281,-0.062053,0.013159
39747,NaN,2.122832,-5.600775,9.966090,0.914983,-0.820605,1.749573,-0.055182,1.197617,0.302098,0.314697,0.356201,-0.975098,0.021909,-0.055948,0.099547,0.999981,-0.000276,0.005988,0.001510,0.974984,-0.214795,-0.055585,0.013402
39748,NaN,1.983652,-5.850638,10.256968,0.877588,-0.927281,2.092724,-0.004702,1.085891,0.275154,0.327637,0.351807,-0.970947,0.020473,-0.058476,0.102461,0.999984,-0.000024,0.005429,0.001376,0.975247,-0.214964,-0.049994,0.013575
39749,NaN,1.706815,-5.868300,10.366433,0.721446,-0.908115,2.165072,0.056735,0.998164,0.275412,0.338379,0.351807,-0.960449,0.017666,-0.058688,0.103561,0.999987,0.000284,0.004991,0.001377,0.975506,-0.214953,-0.044604,0.013912
39750,NaN,1.743346,-5.796643,10.508508,0.863668,-0.787085,2.258041,0.073073,0.962617,0.268548,0.353271,0.345459,-0.958252,0.018017,-0.057981,0.104978,0.999987,0.000365,0.004813,0.001343,0.975768,-0.214721,-0.039613,0.014203
39751,NaN,1.917313,-5.853206,10.593473,1.151982,-0.797033,2.360820,0.075404,0.940021,0.279114,0.355469,0.343262,-0.956055,0.019752,-0.058545,0.105821,0.999988,0.000377,0.004700,0.001396,0.975969,-0.214652,-0.034570,0.014607
39752,NaN,1.769878,-5.616973,10.403901,1.129256,-0.674998,2.069743,0.076713,0.897446,0.269442,0.366455,0.336670,-0.954102,0.018241,-0.056185,0.103936,0.999989,0.000384,0.004487,0.001347,0.976176,-0.214387,-0.029894,0.014972
39753,NaN,1.515653,-5.425548,10.370000,0.981051,-0.529030,1.935823,0.099917,0.827919,0.244877,0.379395,0.328125,-0.949707,0.015652,-0.054288,0.103609,0.999991,0.000500,0.004140,0.001224,0.976334,-0.214209,-0.025516,0.015310
39754,NaN,1.206792,-5.219421,10.291209,0.769527,-0.399382,1.756897,0.143702,0.779398,0.212721,0.379395,0.328125,-0.947754,0.012524,-0.052255,0.102826,0.999992,0.000719,0.003897,0.001064,0.976563,-0.213592,-0.021471,0.015532
39755,NaN,0.933078,-4.911681,10.121094,0.587033,-0.211955,1.458587,0.166525,0.749868,0.182894,0.390137,0.321777,-0.945557,0.009755,-0.049192,0.101134,0.999992,0.000833,0.003749,0.000914,0.976751,-0.213082,-0.017595,0.015642
39756,NaN,0.550540,-4.533466,9.760600,0.293759,-0.051120,0.959278,0.205433,0.736415,0.152847,0.407227,0.319580,-0.945557,0.005899,-0.045430,0.097538,0.999992,0.001027,0.003682,0.000764,0.977015,-0.212148,-0.013818,0.015622
39757,NaN,0.520916,-4.385464,9.366385,0.349078,-0.098157,0.536266,0.244753,0.701126,0.122556,0.407471,0.315186,-0.935059,0.005564,-0.043966,0.093591,0.999993,0.001224,0.003506,0.000613,0.977260,-0.211230,-0.010264,0.015486
39758,NaN,0.526511,-4.418419,9.045614,0.432907,-0.286081,0.254740,0.289145,0.666178,0.099007,0.418213,0.308838,-0.932861,0.005588,-0.044312,0.090374,0.999993,0.001446,0.003331,0.000495,0.977585,-0.209873,-0.006881,0.015281
39759,NaN,0.500097,-4.518008,8.862062,0.475545,-0.478854,0.124253,0.336401,0.638674,0.087311,0.424805,0.306641,-0.937012,0.005304,-0.045327,0.088528,0.999993,0.001682,0.003193,0.000437,0.977902,-0.208490,-0.003683,0.015036
39760,NaN,0.304177,-4.459437,8.822713,0.339460,-0.481548,0.060096,0.374270,0.624380,0.085773,0.433350,0.304443,-0.937012,0.003336,-0.044758,0.088133,0.999993,0.001871,0.003122,0.000429,0.978291,-0.206707,-0.000511,0.014811
39761,NaN,0.160035,-4.336080,8.975711,0.250460,-0.342711,0.147733,0.381074,0.635194,0.093396,0.437988,0.291748,-0.939209,0.001906,-0.043531,0.089669,0.999993,0.001905,0.003176,0.000467,0.978626,-0.205111,0.002659,0.014593
39762,NaN,0.202883,-4.116101,9.137230,0.350619,-0.110023,0.204145,0.342460,0.668136,0.094494,0.450684,0.289551,-0.932861,0.002353,-0.041316,0.091294,0.999993,0.001712,0.003341,0.000472,0.978955,-0.203481,0.006052,0.014366
39763,NaN,0.297338,-3.891116,8.915091,0.500987,-0.016860,-0.093822,0.314931,0.691983,0.082394,0.455078,0.289551,-0.930664,0.003298,-0.039050,0.089078,0.999993,0.001575,0.003460,0.000412,0.979197,-0.202203,0.009473,0.014033
39764,NaN,0.275741,-3.802899,8.680421,0.538181,-0.058596,-0.347260,0.312738,0.693546,0.070834,0.469971,0.283203,-0.932861,0.003072,-0.038164,0.086734,0.999993,0.001564,0.003468,0.000354,0.979469,-0.200716,0.012963,0.013663
39765,NaN,0.144682,-3.771372,8.491038,0.463593,-0.132121,-0.533187,0.324049,0.706807,0.053763,0.476562,0.281006,-0.928711,0.001757,-0.037851,0.084843,0.999992,0.001620,0.003534,0.000269,0.979697,-0.199375,0.016406,0.013168
39766,NaN,0.003482,-3.645103,8.133772,0.370645,-0.188203,-0.909213,0.354408,0.721178,0.051571,0.483154,0.272461,-0.926514,0.000337,-0.036595,0.081272,0.999992,0.001772,0.003606,0.000258,0.979980,-0.197681,0.020014,0.012672
39767,NaN,-0.106475,-3.535800,7.714223,0.300592,-0.280256,-1.336062,0.397666,0.726208,0.052367,0.493896,0.268066,-0.926514,-0.000776,-0.035512,0.077075,0.999991,0.001988,0.003631,0.000262,0.980253,-0.195968,0.023540,0.012139
39768,NaN,-0.243801,-3.408297,7.313332,0.199969,-0.352012,-1.750647,0.435432,0.737682,0.056983,0.500244,0.263672,-0.930664,-0.002159,-0.034243,0.073067,0.999991,0.002177,0.003688,0.000285,0.980580,-0.193870,0.027239,0.011644
39769,NaN,-0.345358,-3.192468,7.036055,0.131532,-0.290717,-2.085138,0.474596,0.750338,0.052459,0.517578,0.255127,-0.924316,-0.003181,-0.032092,0.070297,0.999990,0.002373,0.003752,0.000262,0.980890,-0.191776,0.030883,0.011075
39770,NaN,-0.472986,-2.966307,6.661462,0.029346,-0.259583,-2.510005,0.522719,0.761356,0.060733,0.526123,0.253174,-0.924316,-0.004467,-0.029838,0.066554,0.999989,0.002614,0.003807,0.000304,0.981260,-0.189243,0.034705,0.010562
39771,NaN,-0.587649,-2.790889,6.482536,-0.051840,-0.199382,-2.733502,0.582134,0.763249,0.061756,0.532715,0.244385,-0.924316,-0.005621,-0.028099,0.064766,0.999988,0.002911,0.003816,0.000309,0.981631,-0.186611,0.038429,0.010007
39772,NaN,-0.774637,-2.725574,6.381722,-0.195599,-0.217783,-2.836361,0.645818,0.787102,0.073031,0.545654,0.240234,-0.928467,-0.007485,-0.027464,0.063759,0.999987,0.003229,0.003935,0.000365,0.982066,-0.183464,0.042394,0.009507
39773,NaN,-0.872156,-3.020985,6.543705,-0.215811,-0.477949,-2.571721,0.702612,0.841200,0.094868,0.558838,0.227295,-0.928467,-0.008432,-0.030444,0.065366,0.999985,0.003513,0.004206,0.000474,0.982482,-0.180223,0.046549,0.009019
39774,NaN,-1.324491,-3.207755,6.924330,-0.564146,-0.570005,-2.109018,0.770951,0.898341,0.098205,0.565186,0.223145,-0.926514,-0.012918,-0.032351,0.069177,0.999982,0.003855,0.004492,0.000491,0.982946,-0.176451,0.051086,0.008513
39775,NaN,-1.944407,-2.789305,7.298469,-1.089973,-0.102236,-1.835889,0.849812,0.965737,0.093416,0.584717,0.210205,-0.924316,-0.019079,-0.028212,0.072958,0.999979,0.004249,0.004829,0.000467,0.983394,-0.172490,0.055879,0.007872
39776,NaN,-2.018741,-1.954419,7.600262,-1.082384,0.721413,-1.814806,0.902882,1.008459,0.150209,0.600098,0.193115,-0.928467,-0.019789,-0.019902,0.076014,0.999977,0.004514,0.005042,0.000751,0.983862,-0.168044,0.061002,0.007488
39777,NaN,-2.211367,-1.640489,8.357053,-1.110310,1.200243,-1.167047,0.944263,0.988891,0.235574,0.611084,0.180176,-0.930420,-0.021681,-0.016825,0.083600,0.999976,0.004721,0.004944,0.001178,0.984293,-0.163534,0.066081,0.007507
39778,NaN,-2.987982,-1.865215,9.548875,-1.622249,1.291075,0.151636,0.982583,0.993112,0.330462,0.624268,0.167236,-0.924072,-0.029374,-0.019170,0.095542,0.999974,0.004913,0.004966,0.001652,0.984731,-0.158622,0.071275,0.007997
39779,NaN,-3.375343,-1.853347,10.446850,-1.770638,1.483497,1.078880,1.078214,0.992190,0.369720,0.637451,0.152344,-0.926025,-0.033200,-0.019159,0.104532,0.999971,0.005391,0.004961,0.001849,0.985170,-0.153325,0.076536,0.008639
39780,NaN,-4.004005,-2.405682,11.096119,-2.155278,1.037379,1.986433,1.104197,0.957746,0.315423,0.657227,0.128662,-0.928223,-0.039470,-0.024732,0.111016,0.999972,0.005521,0.004789,0.001577,0.985608,-0.147802,0.081542,0.009036
39781,NaN,-4.451083,-2.999969,11.610930,-2.373024,0.493391,2.747106,1.111163,0.817982,0.272747,0.670166,0.120117,-0.930176,-0.043994,-0.030705,0.116121,0.999975,0.005556,0.004090,0.001364,0.986042,-0.142296,0.085943,0.009332
39782,NaN,-4.964051,-3.519688,12.126051,-2.685588,0.008211,3.486065,1.033967,0.420670,0.211545,0.681641,0.096680,-0.932129,-0.049348,-0.035876,0.121180,0.999984,0.005170,0.002103,0.001058,0.986571,-0.137125,0.088216,0.009632
39783,NaN,-5.164259,-3.713484,12.787000,-2.730881,-0.132633,4.204802,0.963885,-0.131661,0.150029,0.687988,0.090088,-0.942871,-0.051698,-0.037789,0.127655,0.999988,0.004819,-0.000658,0.000750,0.987247,-0.132330,0.087929,0.010060
39784,NaN,-5.063771,-3.416108,13.798663,-2.522714,0.281953,5.062420,0.896590,-0.633306,0.063074,0.688477,0.077393,-0.957520,-0.051063,-0.034795,0.137670,0.999985,0.004483,-0.003167,0.000315,0.988100,-0.127842,0.084890,0.010396
39785,NaN,-4.979837,-3.136358,14.602181,-2.431730,0.623851,5.729297,0.788610,-1.020877,-0.023751,0.686523,0.068848,-0.978516,-0.050546,-0.031932,0.145640,0.999979,0.003943,-0.005104,-0.000119,0.988990,-0.123928,0.080175,0.010629
39786,NaN,-4.867791,-2.822729,15.477205,-2.373460,1.028044,6.451160,0.592668,-1.214370,-0.115160,0.680176,0.066895,-0.997559,-0.049633,-0.028657,0.154388,0.999977,0.002963,-0.006072,-0.000576,0.989827,-0.120976,0.074129,0.010574
39787,NaN,-4.122474,-2.688820,15.029112,-1.900005,0.968956,5.857208,0.394555,-1.346707,-0.254461,0.673828,0.060547,-1.029053,-0.042270,-0.027131,0.149955,0.999975,0.001973,-0.006733,-0.001272,0.990528,-0.119036,0.067706,0.010026
39788,NaN,-3.285246,-2.562198,13.539284,-1.483020,0.697152,4.257878,0.188840,-1.435827,-0.394228,0.662598,0.071289,-1.061035,-0.033874,-0.025684,0.135128,0.999972,0.000944,-0.007179,-0.001971,0.991118,-0.118159,0.060369,0.008865
39789,NaN,-2.003850,-2.461583,11.402935,-0.660646,0.283011,2.001786,0.032711,-1.611380,-0.604116,0.641113,0.073486,-1.101074,-0.021031,-0.024572,0.113859,0.999963,0.000164,-0.008057,-0.003021,0.991596,-0.118066,0.052442,0.006863
39790,NaN,-1.409688,-1.783740,9.423229,-0.476277,0.478556,-0.142740,0.024314,-1.665414,-0.708361,0.625977,0.084473,-1.126465,-0.014944,-0.017797,0.094108,0.999959,0.000122,-0.008327,-0.003542,0.992031,-0.118070,0.043767,0.004328
39791,NaN,-0.736472,-2.137254,7.890931,-0.081454,-0.226103,-1.607960,0.053214,-1.610429,-0.781816,0.608887,0.082275,-1.162354,-0.008083,-0.021363,0.078840,0.999960,0.000266,-0.008052,-0.003909,0.992383,-0.117891,0.035727,0.001439
39792,NaN,-0.271205,-2.497387,7.255947,0.207098,-0.735761,-2.172419,0.234430,-1.433184,-0.841410,0.584961,0.097412,-1.185547,-0.003337,-0.025046,0.072508,0.999965,0.001172,-0.007166,-0.004207,0.992748,-0.116864,0.028122,-0.001932
39793,NaN,-0.127510,-1.769399,6.994075,0.234013,-0.108365,-2.601796,0.310561,-1.021721,-0.778570,0.554932,0.104004,-1.208740,-0.001701,-0.017796,0.069905,0.999978,0.001553,-0.005109,-0.003893,0.993038,-0.115415,0.022975,-0.005199
39794,NaN,0.233599,-1.592115,6.674027,0.512426,-0.036730,-2.966678,0.337810,-0.607182,-0.634948,0.528809,0.116943,-1.219238,0.002083,-0.016041,0.066720,0.999989,0.001689,-0.003036,-0.003175,0.993275,-0.113825,0.019587,-0.008040
39795,NaN,0.563118,-1.330346,7.289506,0.838655,0.322983,-2.435964,0.392760,-0.199907,-0.476980,0.518311,0.114746,-1.229980,0.005526,-0.013460,0.072874,0.999995,0.001964,-0.001000,-0.002385,0.993490,-0.111910,0.018653,-0.010295
39796,NaN,0.154457,-1.750518,9.065153,0.474466,0.283999,-0.595352,0.391888,-0.090510,-0.420758,0.500977,0.123291,-1.236328,0.001466,-0.017686,0.090618,0.999996,0.001959,-0.000453,-0.002104,0.993692,-0.110007,0.017950,-0.012370
39797,NaN,-0.338837,-2.392915,10.595255,0.006297,-0.031357,1.054650,0.350401,-0.247017,-0.466124,0.483643,0.134033,-1.240479,-0.003575,-0.024107,0.105906,0.999995,0.001752,-0.001235,-0.002331,0.993871,-0.108296,0.016749,-0.014548
39798,NaN,-0.398638,-2.530335,11.360763,-0.080906,-0.034843,1.832922,0.341420,-0.448058,-0.520889,0.470459,0.149170,-1.242676,-0.004307,-0.025486,0.113555,0.999993,0.001707,-0.002240,-0.002604,0.994048,-0.106675,0.014217,-0.016922
39799,NaN,-0.496433,-2.471801,11.319965,-0.243183,-0.014537,1.782050,0.272989,-0.557232,-0.561613,0.457764,0.153320,-1.238281,-0.005349,-0.024858,0.113151,0.999991,0.001365,-0.002786,-0.002808,0.994177,-0.105382,0.011412,-0.019404
39800,NaN,-0.737478,-2.214457,10.672731,-0.577433,0.089753,1.096604,0.218715,-0.743097,-0.570597,0.442383,0.168457,-1.246826,-0.007835,-0.022239,0.106674,0.999988,0.001094,-0.003715,-0.002853,0.994268,-0.104398,0.007398,-0.021860
39801,NaN,-0.489038,-1.819433,10.064613,-0.411479,0.317597,0.413504,0.294350,-0.809970,-0.559043,0.425537,0.157715,-1.246826,-0.005349,-0.018328,0.100598,0.999987,0.001472,-0.004050,-0.002795,0.994379,-0.103022,0.003331,-0.024198
39802,NaN,-0.149648,-1.415941,9.563759,-0.141043,0.564695,-0.161081,0.379951,-0.651463,-0.485001,0.415039,0.157715,-1.250977,-0.001843,-0.014337,0.095605,0.999990,0.001900,-0.003257,-0.002425,0.994517,-0.101219,-0.000202,-0.026279
39803,NaN,-0.207850,-1.242341,9.740101,-0.247361,0.738058,-0.022391,0.401537,-0.508688,-0.373693,0.404297,0.159912,-1.257324,-0.002350,-0.012615,0.097370,0.999993,0.002008,-0.002543,-0.001868,0.994668,-0.099257,-0.002697,-0.027851
39804,NaN,-0.892522,-1.082508,10.240593,-0.981583,0.997008,0.428417,0.364150,-0.565391,-0.315437,0.397949,0.157715,-1.255127,-0.009232,-0.010997,0.102360,0.999993,0.001821,-0.002827,-0.001577,0.994791,-0.097519,-0.005714,-0.029133
39805,NaN,-0.554531,-1.119296,10.401885,-0.712062,0.941916,0.597151,0.317331,-0.699963,-0.313973,0.383057,0.157715,-1.257080,-0.005927,-0.011349,0.103981,0.999991,0.001587,-0.003500,-0.001570,0.994880,-0.095978,-0.009115,-0.030315
39806,NaN,-0.245016,-1.170726,10.466366,-0.484578,0.861077,0.675336,0.253994,-0.685996,-0.318931,0.374512,0.157715,-1.259277,-0.002828,-0.011836,0.104639,0.999992,0.001270,-0.003430,-0.001595,0.994914,-0.094803,-0.012717,-0.031560
39807,NaN,-0.183885,-1.364736,10.240158,-0.500759,0.602969,0.489854,0.217022,-0.652140,-0.326668,0.362061,0.155518,-1.248535,-0.002195,-0.013755,0.102380,0.999993,0.001085,-0.003261,-0.001633,0.994930,-0.093728,-0.015868,-0.032833
39808,NaN,-0.356978,-1.566026,9.959689,-0.747256,0.348200,0.241928,0.181863,-0.565538,-0.317758,0.355469,0.161865,-1.252930,-0.003876,-0.015745,0.099572,0.999994,0.000909,-0.002828,-0.001589,0.994912,-0.092890,-0.018857,-0.034133
39809,NaN,-0.116098,-1.422814,9.674452,-0.539181,0.406336,-0.056825,0.138438,-0.477427,-0.307529,0.353271,0.164062,-1.246582,-0.001414,-0.014293,0.096731,0.999996,0.000692,-0.002387,-0.001538,0.994890,-0.092169,-0.021114,-0.035399
39810,NaN,-0.022584,-1.342854,9.339581,-0.469079,0.407914,-0.397538,0.101146,-0.282334,-0.279494,0.351074,0.168457,-1.250732,-0.000376,-0.013475,0.093389,0.999998,0.000506,-0.001412,-0.001397,0.994855,-0.091686,-0.022662,-0.036647
39811,NaN,-0.290542,-1.190959,9.374453,-0.747019,0.573884,-0.405470,0.069240,-0.206423,-0.247747,0.342773,0.161865,-1.248535,-0.003017,-0.011938,0.093737,0.999999,0.000346,-0.001032,-0.001239,0.994833,-0.091261,-0.023531,-0.037748
39812,NaN,-0.067830,-1.239817,8.957379,-0.529240,0.428503,-0.795333,0.077774,-0.086247,-0.237887,0.340576,0.164062,-1.244385,-0.000732,-0.012432,0.089569,0.999999,0.000389,-0.000431,-0.001189,0.994813,-0.090862,-0.024081,-0.038882
39813,NaN,-0.017585,-1.053403,8.849005,-0.464114,0.581514,-0.932300,0.036357,-0.061662,-0.229128,0.336182,0.170410,-1.242188,-0.000215,-0.010550,0.088488,0.999999,0.000182,-0.000308,-0.001146,0.994794,-0.090568,-0.024212,-0.039960
39814,NaN,-0.221272,-1.232214,9.009798,-0.691758,0.450904,-0.753884,-0.026601,0.045582,-0.232806,0.335938,0.174805,-1.242432,-0.002207,-0.012308,0.090100,0.999999,-0.000133,0.000228,-0.001164,0.994740,-0.090662,-0.024083,-0.041141
39815,NaN,-0.336396,-1.459263,9.514017,-0.840372,0.331334,-0.223990,-0.052665,0.026587,-0.235612,0.338135,0.177002,-1.238037,-0.003368,-0.014564,0.095144,0.999999,-0.000263,0.000133,-0.001178,0.994688,-0.090785,-0.023760,-0.042300
39816,NaN,-0.309084,-1.526384,9.594878,-0.820977,0.283103,-0.131111,-0.036389,0.063612,-0.223472,0.329590,0.178955,-1.240234,-0.003077,-0.015243,0.095953,0.999999,-0.000182,0.000318,-0.001117,0.994631,-0.090926,-0.023534,-0.043444
39817,NaN,-0.255483,-1.672467,9.318904,-0.761254,0.084069,-0.372464,0.019437,0.082144,-0.224157,0.333740,0.177002,-1.238037,-0.002535,-0.016731,0.093188,0.999999,0.000097,0.000411,-0.001121,0.994618,-0.090679,-0.022938,-0.044562
39818,NaN,-0.172563,-1.653084,9.104231,-0.664363,0.053255,-0.582017,0.060780,0.101738,-0.218749,0.335693,0.181152,-1.238037,-0.001697,-0.016557,0.091038,0.999999,0.000304,0.000509,-0.001094,0.994608,-0.090328,-0.022542,-0.045689
39819,NaN,-0.139328,-1.554301,8.957011,-0.604309,0.111345,-0.741540,0.084831,0.139938,-0.205881,0.333740,0.177002,-1.229736,-0.001347,-0.015580,0.089564,0.999999,0.000424,0.000700,-0.001029,0.994631,-0.089751,-0.021661,-0.046734
39820,NaN,-0.000437,-1.532472,9.055970,-0.459270,0.129689,-0.640376,0.088549,0.126896,-0.197974,0.337891,0.183350,-1.225586,0.000038,-0.015365,0.090553,0.999999,0.000443,0.000634,-0.000990,0.994638,-0.089259,-0.021136,-0.047765
39821,NaN,-0.007318,-1.535237,9.267143,-0.462601,0.153927,-0.431897,0.104511,0.076638,-0.199552,0.333740,0.181152,-1.223389,-0.000053,-0.015401,0.092663,0.999999,0.000523,0.000383,-0.000998,0.994661,-0.088602,-0.020574,-0.048749
39822,NaN,-0.012823,-1.567937,9.368901,-0.475522,0.129470,-0.326276,0.130970,-0.003721,-0.220834,0.331787,0.176758,-1.217041,-0.000147,-0.015741,0.093679,0.999999,0.000655,-0.000019,-0.001104,0.994664,-0.087928,-0.020719,-0.049832
39823,NaN,-0.025009,-1.650653,9.530926,-0.504129,0.062929,-0.153200,0.160950,-0.066484,-0.234208,0.333984,0.176758,-1.221191,-0.000301,-0.016583,0.095296,0.999999,0.000805,-0.000332,-0.001171,0.994684,-0.087026,-0.020901,-0.050920
39824,NaN,0.169966,-1.636341,9.554022,-0.321310,0.045908,-0.123495,0.189169,-0.066404,-0.231548,0.331787,0.178955,-1.221191,0.001649,-0.016456,0.095525,0.999999,0.000946,-0.000332,-0.001158,0.994700,-0.086077,-0.021376,-0.052022
39825,NaN,0.276930,-1.660503,9.353309,-0.215076,-0.042385,-0.311621,0.176040,-0.022733,-0.206481,0.325439,0.174805,-1.212646,0.002741,-0.016690,0.093519,0.999999,0.000880,-0.000114,-0.001032,0.994734,-0.085095,-0.021337,-0.052990
39826,NaN,0.343913,-1.725395,9.360749,-0.157780,-0.126032,-0.290183,0.119180,0.080208,-0.172495,0.335938,0.178955,-1.214844,0.003462,-0.017313,0.093596,0.999999,0.000596,0.000401,-0.000862,0.994747,-0.084462,-0.021039,-0.053869
39827,NaN,0.364064,-1.919812,9.347848,-0.148934,-0.334037,-0.269799,0.094206,0.106578,-0.147782,0.331787,0.174561,-1.204346,0.003676,-0.019245,0.093467,0.999999,0.000471,0.000533,-0.000739,0.994772,-0.083866,-0.020319,-0.054610
39828,NaN,0.262382,-1.889383,9.912874,-0.261047,-0.206977,0.276549,0.071598,0.037090,-0.150541,0.321045,0.176758,-1.212646,0.002628,-0.018931,0.099121,1.000000,0.000358,0.000185,-0.000753,0.994765,-0.083484,-0.020214,-0.055366
