// Start Time: Unknown
// Update Rate: 100.0Hz
// Filter Profile: human (46.1)
// Firmware Version: 4.4.0
PacketCounter,SampleTimeFine,Acc_X,Acc_Y,Acc_Z,FreeAcc_X,FreeAcc_Y,FreeAcc_Z,Gyr_X,Gyr_Y,Gyr_Z,Mag_X,Mag_Y,Mag_Z,VelInc_X,VelInc_Y,VelInc_Z,OriInc_q0,OriInc_q1,OriInc_q2,OriInc_q3,Quat_q0,Quat_q1,Quat_q2,Quat_q3
29662,NaN,11.372061,-8.814114,2.919591,0.000000,0.000000,4.868347,1.207858,-0.550911,-1.151424,-0.896240,0.408691,0.513672,0.113130,-0.088969,0.028972,0.999961,0.006039,-0.002755,-0.005757,0.124190,-0.554362,0.306610,-0.763708
29663,NaN,10.513453,-9.482430,3.563335,0.000000,-0.000000,4.786636,1.169475,-0.714106,-1.581083,-0.895996,0.400146,0.509521,0.104253,-0.095858,0.035448,0.999945,0.005847,-0.003570,-0.007905,0.123670,-0.512665,0.340252,-0.778530
29664,NaN,10.243642,-9.375427,3.674287,0.722816,0.319107,4.529460,1.214855,-0.803293,-2.068265,-0.902100,0.391602,0.513916,0.101311,-0.095028,0.036577,0.999920,0.006074,-0.004016,-0.010341,0.117224,-0.536538,0.319665,-0.772140
29665,NaN,11.591798,-9.026437,3.971770,0.531624,-0.397348,5.391413,1.149044,-0.875837,-2.603490,-0.901367,0.370117,0.516357,0.114554,-0.091990,0.039696,0.999889,0.005745,-0.004379,-0.013017,0.111642,-0.543347,0.307696,-0.773067
29666,NaN,14.861411,-8.183661,3.917416,-0.720442,-2.229810,7.440119,0.985520,-0.922549,-3.193341,-0.911133,0.344482,0.520996,0.147099,-0.084387,0.039443,0.999850,0.004927,-0.004613,-0.015966,0.103670,-0.550931,0.294633,-0.773898
29667,NaN,19.141642,-5.995072,3.980555,-2.323364,-5.467571,9.753615,0.837273,-0.869406,-3.819198,-0.922852,0.305908,0.523682,0.190048,-0.063757,0.040372,0.999799,0.004186,-0.004347,-0.019095,0.092459,-0.559377,0.280364,-0.774561
29668,NaN,23.430323,-0.732727,4.490382,-3.811325,-10.842339,11.103815,0.632965,-0.701636,-4.444980,-0.934570,0.271484,0.521973,0.233902,-0.012673,0.045690,0.999742,0.003165,-0.003508,-0.022223,0.073797,-0.570713,0.258741,-0.775818
29669,NaN,27.046863,6.080305,3.155793,-7.171809,-16.785015,11.285426,0.176484,-0.505704,-4.962495,-0.939209,0.220215,0.518555,0.271785,0.054042,0.032294,0.999689,0.000882,-0.002528,-0.024810,0.055684,-0.578851,0.243630,-0.776193
29670,NaN,28.330312,11.394372,-0.343374,-10.610659,-17.782433,12.626921,-0.189907,-0.325989,-5.302911,-0.956543,0.164551,0.519287,0.286196,0.106377,-0.003072,0.999647,-0.000949,-0.001630,-0.026511,0.007003,-0.602633,0.186184,-0.775964
29671,NaN,25.208818,14.197999,-3.894589,-13.564792,-17.457834,9.245956,-0.549374,-0.014941,-5.596889,-0.963135,0.104492,0.515869,0.255930,0.134746,-0.039304,0.999605,-0.002747,-0.000075,-0.027981,-0.016353,-0.607682,0.171379,-0.775297
29672,NaN,18.854762,12.311336,-4.490951,-9.891026,-10.213146,8.213723,-0.588052,0.295238,-5.813405,-0.971680,0.046631,0.508057,0.191949,0.117433,-0.045542,0.999572,-0.002940,0.001476,-0.029063,-0.100963,-0.647400,0.063913,-0.752725
29673,NaN,23.477386,4.489734,-5.883018,-9.951625,-0.726290,12.687042,-0.162381,0.545027,-5.663674,-0.969727,-0.009033,0.493896,0.235757,0.038182,-0.059505,0.999595,-0.000812,0.002725,-0.028315,-0.122935,-0.646815,0.045892,-0.751273
29674,NaN,33.577090,-23.895294,-11.587477,-6.656053,35.092474,13.778250,0.462306,0.655036,-4.963463,-0.976807,-0.053955,0.485840,0.329326,-0.246909,-0.117525,0.999684,0.002311,0.003275,-0.024815,-0.189418,-0.683815,-0.057498,-0.702290
29675,NaN,18.481604,-40.627869,-23.458757,-16.012113,47.789559,-8.443144,3.441383,0.129147,-4.037560,-0.967529,-0.073486,0.494873,0.176466,-0.405779,-0.241689,0.999648,0.017205,0.000646,-0.020185,-0.191725,-0.685219,-0.083486,-0.697672
29676,NaN,16.590816,-37.541367,-23.091435,-15.270885,43.309858,0.604784,5.121385,-1.082271,-3.001739,-0.958984,-0.071289,0.494873,0.161590,-0.371799,-0.239584,0.999545,0.025603,-0.005411,-0.015006,-0.124798,-0.764282,-0.050641,-0.630662
29677,NaN,7.175448,-0.059951,-7.690747,-6.033056,2.602682,-1.599292,5.270212,-1.211251,-2.112492,-0.937744,-0.069092,0.510010,0.072221,0.000658,-0.076465,0.999579,0.026347,-0.006055,-0.010561,-0.111575,-0.770532,-0.074552,-0.623116
29678,NaN,2.296022,8.279434,3.301428,3.911855,-8.266838,-8.784116,4.958610,-0.772465,-1.311294,-0.936035,-0.052002,0.507568,0.023366,0.081788,0.035140,0.999664,0.024790,-0.003862,-0.006556,0.000192,-0.831468,-0.014199,-0.555391
29679,NaN,1.467260,4.547611,5.893225,6.203588,-4.282714,-10.666321,4.231460,0.001334,-0.810117,-0.938721,-0.039062,0.503174,0.014854,0.044156,0.059876,0.999768,0.021156,0.000007,-0.004050,0.015533,-0.831210,-0.029313,-0.554968
29680,NaN,1.215440,-2.850355,2.899434,2.919827,3.075536,-9.661537,2.977845,0.485419,-0.387860,-0.932373,-0.032715,0.498779,0.012168,-0.028954,0.028536,0.999884,0.014889,0.002427,-0.001939,0.075029,-0.846444,-0.004825,-0.527144
29681,NaN,1.923939,-3.935438,-1.415602,-0.789877,3.547312,-6.986895,1.939791,0.576184,0.076757,-0.930664,-0.019775,0.487793,0.019213,-0.039207,-0.014592,0.999949,0.009699,0.002881,0.000384,0.083451,-0.844156,-0.009396,-0.529479
29682,NaN,1.795402,-1.809091,-1.332369,-0.512305,1.219618,-7.258982,1.261482,0.595187,0.500809,-0.935059,-0.017578,0.481445,0.017959,-0.017961,-0.013491,0.999973,0.006307,0.002976,0.002504,0.127749,-0.847427,0.012562,-0.515161
29683,NaN,0.955074,0.703837,0.398572,0.874035,-0.747776,-9.319428,0.712176,0.569073,0.831538,-0.933350,-0.002686,0.474609,0.009533,0.007064,0.003984,0.999981,0.003561,0.002845,0.004158,0.132870,-0.845438,0.014614,-0.517076
29684,NaN,-0.157007,1.752488,1.409059,1.344576,-1.288146,-11.083157,0.304844,0.541459,1.085284,-0.935791,0.001709,0.470215,-0.001627,0.017495,0.014122,0.999980,0.001524,0.002707,0.005426,0.161554,-0.845454,0.031252,-0.508066
29685,NaN,-0.734289,2.473959,1.421278,1.152462,-1.829961,-11.813362,0.007735,0.517710,1.263654,-0.936035,0.014404,0.463623,-0.007462,0.024692,0.014233,0.999977,0.000039,0.002589,0.006318,0.164712,-0.843915,0.036992,-0.509223
29686,NaN,-0.115353,3.609804,2.670413,2.634914,-2.648796,-12.305896,-0.295883,0.537877,1.382680,-0.936523,0.027344,0.454834,-0.001332,0.036129,0.026654,0.999971,-0.001479,0.002689,0.006913,0.180353,-0.842530,0.049358,-0.505154
29687,NaN,0.503719,3.811431,2.639037,2.892615,-3.019216,-11.877168,-0.756013,0.535092,1.456302,-0.932617,0.038086,0.446289,0.004829,0.038249,0.026233,0.999963,-0.003780,0.002675,0.007281,0.180707,-0.841469,0.057883,-0.505889
29688,NaN,0.773235,3.032457,1.840859,2.228566,-2.570452,-11.080927,-1.044836,0.506735,1.478276,-0.939209,0.040283,0.435547,0.007554,0.030476,0.018230,0.999956,-0.005224,0.002534,0.007391,0.185118,-0.839315,0.067584,-0.506670
29689,NaN,0.546071,2.742812,1.437035,1.699233,-2.357141,-11.013737,-1.228380,0.508638,1.474794,-0.932861,0.046631,0.437500,0.005294,0.027555,0.014188,0.999951,-0.006142,0.002543,0.007374,0.183518,-0.838624,0.077352,-0.506999
29690,NaN,0.159468,2.648881,0.819558,0.934143,-2.304518,-11.049623,-1.408949,0.470680,1.452463,-0.939697,0.055420,0.430908,0.001421,0.026556,0.008005,0.999946,-0.007045,0.002353,0.007262,0.181833,-0.836559,0.085756,-0.509659
29691,NaN,-0.367709,2.579201,0.064035,-0.032231,-2.232155,-11.157232,-1.562720,0.416202,1.397274,-0.935303,0.057373,0.428711,-0.003856,0.025769,0.000447,0.999943,-0.007813,0.002081,0.006986,0.178668,-0.836272,0.095956,-0.509430
29692,NaN,-0.852295,2.252150,-0.687496,-0.973792,-1.907610,-11.110284,-1.724806,0.325499,1.289608,-0.944092,0.061768,0.428711,-0.008679,0.022406,-0.007054,0.999941,-0.008624,0.001627,0.006448,0.172076,-0.835493,0.104485,-0.511297
29693,NaN,-1.271225,1.609620,-1.475267,-1.906747,-1.279507,-10.866366,-1.834789,0.225738,1.137432,-0.935547,0.059570,0.424561,-0.012820,0.015887,-0.014885,0.999941,-0.009174,0.001129,0.005687,0.167191,-0.835851,0.114115,-0.510273
29694,NaN,-1.619702,1.039232,-1.835616,-2.404146,-0.638782,-10.753287,-1.822174,0.145242,0.968090,-0.939697,0.061768,0.424316,-0.016260,0.010146,-0.018438,0.999947,-0.009111,0.000726,0.004840,0.157153,-0.836752,0.123189,-0.509876
29696,NaN,-2.088357,1.794399,-1.885178,-5.471845,-2.194618,-12.939566,-1.893337,0.029970,0.730892,-0.941895,0.059570,0.428711,-0.042036,0.034859,-0.038358,0.999794,-0.018932,0.000300,0.007308,0.144969,-0.838501,0.138979,-0.506541
29697,NaN,-2.442701,1.753532,-2.238819,-3.278180,-0.861374,-11.414297,-2.024407,-0.112579,0.458161,-0.935303,0.057373,0.428711,-0.024454,0.017251,-0.022578,0.999946,-0.010122,-0.000563,0.002291,0.129968,-0.841657,0.149503,-0.502365
29698,NaN,-1.991654,0.685591,-2.433556,-3.136134,-0.015359,-10.535956,-1.828255,-0.152507,0.256420,-0.935303,0.053223,0.430908,-0.019907,0.006607,-0.024412,0.999957,-0.009141,-0.000763,0.001282,0.123026,-0.843000,0.155068,-0.500168
29699,NaN,-1.505142,0.019092,-2.443822,-2.827124,0.494195,-9.845835,-1.527240,-0.174370,0.092655,-0.934814,0.042480,0.437500,-0.015030,-0.000003,-0.024452,0.999970,-0.007636,-0.000872,0.000463,0.108764,-0.846347,0.164457,-0.494794
29700,NaN,-1.164521,0.145330,-2.332343,-2.591251,0.277661,-9.653606,-1.213934,-0.221667,-0.004809,-0.932617,0.038086,0.444092,-0.011619,0.001312,-0.023345,0.999981,-0.006070,-0.001108,-0.000024,0.103795,-0.847543,0.167317,-0.492851
29701,NaN,-1.109333,1.265759,-1.056726,-1.684039,-0.724866,-10.579489,-1.099089,-0.225115,-0.082429,-0.934570,0.031738,0.439941,-0.011076,0.012604,-0.010649,0.999984,-0.005495,-0.001126,-0.000412,0.091851,-0.850697,0.175500,-0.486906
29702,NaN,-0.880688,1.637136,-0.460094,-1.155031,-1.158807,-10.807948,-1.164547,-0.218056,-0.149197,-0.934570,0.029541,0.448486,-0.008790,0.016351,-0.004706,0.999982,-0.005823,-0.001090,-0.000746,0.086725,-0.851878,0.177597,-0.485017
29703,NaN,-0.141166,1.022596,-0.316617,-0.581102,-0.871746,-10.073927,-0.988252,-0.142669,-0.199542,-0.936279,0.023193,0.452881,-0.001399,0.010212,-0.003218,0.999987,-0.004941,-0.000713,-0.000998,0.074931,-0.854318,0.184984,-0.479903
29704,NaN,0.220240,0.917790,0.390181,0.207576,-0.950821,-10.122417,-0.785115,-0.051120,-0.248091,-0.942627,0.018799,0.459229,0.002213,0.009190,0.003866,0.999991,-0.003926,-0.000256,-0.001240,0.071029,-0.854957,0.185787,-0.479047
29705,NaN,0.199352,0.914991,0.412684,0.195716,-0.948855,-10.142267,-0.718566,-0.033980,-0.268492,-0.933838,0.014648,0.450928,0.002005,0.009162,0.004094,0.999993,-0.003593,-0.000170,-0.001342,0.060859,-0.856452,0.191470,-0.475527
29706,NaN,0.324795,0.596783,-0.313126,-0.270210,-0.648350,-9.555169,-0.691859,-0.075973,-0.272301,-0.940430,0.012451,0.457275,0.003257,0.005953,-0.003151,0.999993,-0.003459,-0.000380,-0.001362,0.057321,-0.857098,0.191924,-0.474619
29707,NaN,0.637390,0.165257,-1.813325,-1.248155,-0.216631,-8.357732,-0.536590,-0.139606,-0.253854,-0.935791,0.003662,0.463867,0.006389,0.001596,-0.018133,0.999995,-0.002683,-0.000698,-0.001269,0.048813,-0.858312,0.196505,-0.471490
29708,NaN,0.923254,0.914459,-1.017498,-0.666543,-1.089192,-8.767072,-0.163481,-0.171018,-0.205703,-0.946533,0.003906,0.472412,0.009251,0.009127,-0.010175,0.999999,-0.000817,-0.000855,-0.001029,0.047795,-0.858956,0.195966,-0.470645
29709,NaN,0.490029,2.832385,1.076377,0.254407,-2.908221,-10.760651,-0.342292,-0.154066,-0.158790,-0.944336,0.001709,0.470215,0.004915,0.028338,0.010719,0.999998,-0.001711,-0.000770,-0.000794,0.040647,-0.859876,0.200440,-0.467745
29710,NaN,0.750244,1.827244,-0.852772,-0.900943,-1.858707,-9.210686,-0.613179,-0.257188,-0.017701,-0.946533,-0.000488,0.489502,0.007515,0.018246,-0.008574,0.999994,-0.003066,-0.001286,-0.000089,0.038227,-0.860615,0.201744,-0.466025
29711,NaN,1.363678,0.969326,-0.897595,-0.386449,-1.285493,-8.469909,-0.526394,-0.240820,0.127275,-0.944580,0.005859,0.487305,0.013641,0.009678,-0.008985,0.999996,-0.002632,-0.001204,0.000636,0.030186,-0.861047,0.208185,-0.462974
29712,NaN,2.352240,-0.207825,-0.388833,0.895415,-0.667919,-7.696198,-0.354440,-0.199301,0.281357,-0.953369,0.010254,0.493652,0.023529,-0.002052,-0.003861,0.999997,-0.001772,-0.000997,0.001407,0.029519,-0.861267,0.210186,-0.461703
29713,NaN,2.715567,-2.145983,1.027621,2.884324,0.716468,-7.762593,0.034458,-0.062444,0.435219,-0.948975,0.012207,0.495850,0.027199,-0.021402,0.010281,0.999998,0.000172,-0.000312,0.002176,0.025062,-0.860605,0.216162,-0.460439
29714,NaN,3.407447,-3.926017,-0.124339,2.908129,2.214880,-6.114480,0.467069,0.064529,0.587138,-0.960693,0.033691,0.506104,0.034189,-0.039157,-0.001346,0.999993,0.002335,0.000323,0.002936,0.028354,-0.859758,0.217619,-0.461145
29715,NaN,4.033570,-3.874902,-0.978043,2.492456,2.015341,-5.125811,0.938169,0.221894,0.774326,-0.961182,0.050781,0.505859,0.040474,-0.038546,-0.010006,0.999981,0.004691,0.001109,0.003872,0.031408,-0.857894,0.220413,-0.463086
29716,NaN,7.594899,-5.199581,2.771463,7.621011,1.161778,-4.070877,1.541472,0.341246,0.842393,-0.972656,0.072266,0.509766,0.076214,-0.051886,0.027185,0.999960,0.007707,0.001706,0.004212,0.039593,-0.855900,0.220502,-0.466098
29717,NaN,26.417602,-58.508423,-3.269491,29.490936,41.564232,29.356315,0.889240,-0.399394,2.863757,-0.963135,0.102295,0.522217,0.272584,-0.581070,-0.034746,0.999886,0.004446,-0.001997,0.014318,0.051187,-0.853030,0.229201,-0.466032
29718,NaN,36.749866,-94.980095,-35.231289,23.818286,70.696520,67.921298,-4.356645,-0.902385,6.404235,-0.945557,0.153564,0.542969,0.399331,-0.944702,-0.329940,0.999240,-0.021778,-0.004511,0.032013,0.048524,-0.848261,0.266253,-0.455200
29719,NaN,41.965157,-2.543123,-8.274465,13.455913,-18.520107,26.401491,1.050867,0.000630,5.537747,-0.936768,0.215820,0.531494,0.420133,-0.013367,-0.082837,0.999603,0.005254,0.000003,0.027685,0.103673,-0.846101,0.257186,-0.455216
29720,NaN,6.987968,71.031961,12.098572,-10.401597,-63.719249,-42.537968,4.354281,0.321980,4.065851,-0.925781,0.271484,0.526367,0.055671,0.708691,0.136331,0.999555,0.021768,0.001610,0.020326,0.130884,-0.837507,0.264527,-0.459866
29721,NaN,13.086159,14.244175,-1.377358,-0.059631,-19.161011,-6.840777,-1.362642,-0.461603,4.461024,-0.909912,0.303467,0.545166,0.127676,0.145216,-0.014460,0.999725,-0.006813,-0.002308,0.022303,0.142259,-0.832534,0.279170,-0.456851
29722,NaN,18.591523,0.909052,-12.376009,-2.808610,-11.842110,8.934998,-0.671755,-0.781758,3.942874,-0.893799,0.335693,0.555664,0.186175,0.012345,-0.123070,0.999792,-0.003359,-0.003909,0.019713,0.149530,-0.829122,0.296502,-0.449760
29723,NaN,-0.491166,-9.658002,-4.091781,-0.130935,7.859147,-2.850707,-0.504565,-0.823225,2.888088,-0.873047,0.356934,0.572510,-0.003348,-0.096739,-0.040690,0.999884,-0.002523,-0.004116,0.014440,0.154301,-0.825775,0.307325,-0.447033
29724,NaN,0.847785,2.942243,-4.227560,-4.268768,-2.692978,-8.481089,-1.124926,-1.254578,2.416319,-0.864990,0.372070,0.595947,0.008389,0.029286,-0.042388,0.999892,-0.005624,-0.006273,0.012081,0.156968,-0.825644,0.318814,-0.438213
29725,NaN,44.412811,-3.694118,-0.422412,19.347166,-27.072973,19.834321,-2.078366,-1.138418,2.358884,-0.848145,0.380371,0.610840,0.444536,-0.031724,-0.001347,0.999860,-0.010391,-0.005692,0.011794,0.155006,-0.825216,0.331344,-0.430352
29726,NaN,120.642234,2.847058,10.415833,55.884821,-85.855803,54.805587,-1.491341,0.013898,3.132041,-0.842529,0.404053,0.614746,1.205778,0.048132,0.103764,0.999850,-0.007456,0.000069,0.015659,0.155546,-0.821029,0.347436,-0.425447
29727,NaN,45.916832,20.882078,0.769473,8.073182,-47.258402,5.881696,-1.718770,-0.021255,2.653892,-0.816895,0.406006,0.623535,0.456342,0.214945,0.005914,0.999875,-0.008593,-0.000106,0.013269,0.145122,-0.812994,0.365012,-0.429822
29728,NaN,11.611025,-24.393125,-20.395717,-0.586970,9.816858,22.576648,-0.862906,0.050997,2.747812,-0.822021,0.433838,0.629395,0.119403,-0.243183,-0.202937,0.999896,-0.004314,0.000255,0.013739,0.147412,-0.808411,0.378035,-0.426416
29729,NaN,-12.716888,-15.825369,-5.375350,-0.614290,20.496313,-5.277515,1.056566,0.286156,1.978102,-0.807617,0.453125,0.612061,-0.125675,-0.159215,-0.054412,0.999936,0.005283,0.001431,0.009890,0.145396,-0.798229,0.388643,-0.436631
29730,NaN,-14.638175,-8.503108,-2.177617,-2.160325,16.768731,-12.149298,1.018267,0.264443,1.379586,-0.805908,0.466064,0.609863,-0.145820,-0.085927,-0.022019,0.999962,0.005091,0.001322,0.006898,0.151952,-0.794201,0.392104,-0.438646
29731,NaN,-11.553337,-9.877299,1.437375,2.598628,14.943246,-11.559499,0.399256,0.330102,0.933004,-0.803955,0.472656,0.601074,-0.115047,-0.099339,0.014366,0.999986,0.001996,0.001651,0.004665,0.151771,-0.789289,0.395433,-0.444545
29733,NaN,4.120226,-7.482846,7.942077,22.769469,1.430721,-4.946619,0.079899,0.474238,0.523033,-0.797607,0.474609,0.592529,0.083938,-0.149347,0.158326,0.999975,0.000799,0.004742,0.005230,0.152847,-0.784972,0.399915,-0.447800
29734,NaN,14.080266,-7.650620,0.797593,8.250436,-5.967419,2.586585,-0.572987,0.548698,0.265034,-0.814941,0.479004,0.598877,0.140925,-0.076297,0.007808,0.999991,-0.002865,0.002743,0.001325,0.150653,-0.782848,0.400207,-0.451981
29735,NaN,17.715641,-5.813508,-5.785799,2.821903,-9.088311,7.232991,-0.363060,0.574468,0.195724,-0.810547,0.474854,0.590332,0.177046,-0.058067,-0.058261,0.999994,-0.001815,0.002872,0.000979,0.148523,-0.781427,0.402224,-0.453353
29737,NaN,12.538761,-8.252757,-5.692831,4.973885,-7.042666,21.116147,0.599792,0.413593,-0.011694,-0.817139,0.479004,0.572998,0.250279,-0.164393,-0.115880,0.999973,0.005998,0.004136,-0.000117,0.151113,-0.777567,0.398570,-0.462273
29738,NaN,10.597208,-9.202198,0.389273,7.397824,-2.204165,1.915267,1.191606,0.200267,-0.418655,-0.819580,0.487549,0.572998,0.105783,-0.092264,0.003238,0.999980,0.005958,0.001001,-0.002093,0.154375,-0.777022,0.394331,-0.465734
29739,NaN,13.090785,-8.226504,2.164508,8.937120,-4.782499,2.060895,1.265467,0.086280,-0.756508,-0.823730,0.483398,0.566650,0.130604,-0.082894,0.021066,0.999973,0.006327,0.000431,-0.003783,0.157092,-0.776390,0.386915,-0.472057
29740,NaN,12.905800,-8.207380,-0.157188,6.846585,-4.217546,3.198033,1.310805,-0.061724,-1.112156,-0.836670,0.487793,0.560059,0.128600,-0.082777,-0.002073,0.999963,0.006554,-0.000309,-0.005561,0.159669,-0.777629,0.379441,-0.475210
29741,NaN,11.790211,-9.536853,-0.938849,6.339024,-2.177629,3.822274,1.466449,-0.317149,-1.477961,-0.829834,0.474854,0.551758,0.117209,-0.096165,-0.009905,0.999945,0.007332,-0.001586,-0.007390,0.162018,-0.778905,0.368642,-0.480791
29742,NaN,11.033010,-9.663357,0.745032,7.601446,-1.452496,2.667827,1.683570,-0.570303,-1.902290,-0.840576,0.474854,0.545166,0.109384,-0.097737,0.006943,0.999915,0.008418,-0.002851,-0.009511,0.165039,-0.782352,0.356693,-0.483174
29743,NaN,10.705779,-9.085790,2.919601,9.090485,-1.407741,1.189945,1.801285,-0.766048,-2.338918,-0.844238,0.457764,0.543213,0.105873,-0.092361,0.028776,0.999884,0.009006,-0.003830,-0.011694,0.168084,-0.786160,0.340368,-0.487699
29744,NaN,10.540842,-8.658007,4.885218,10.608533,-1.300565,-0.030848,1.666389,-0.934106,-2.804411,-0.854492,0.447021,0.541260,0.103949,-0.088450,0.048608,0.999856,0.008332,-0.004670,-0.014021,0.169361,-0.791696,0.324447,-0.489150
29745,NaN,12.594021,-8.319847,5.701450,11.839417,-2.395192,0.882978,1.295658,-1.021094,-3.334858,-0.866211,0.412842,0.545898,0.124234,-0.085649,0.057102,0.999827,0.006478,-0.005105,-0.016673,0.168358,-0.797564,0.305088,-0.492412
29746,NaN,16.623521,-6.395680,5.582457,12.584696,-5.819815,2.681964,0.788706,-0.965047,-3.911337,-0.880615,0.389160,0.548340,0.164668,-0.067409,0.056360,0.999789,0.003943,-0.004825,-0.019555,0.163310,-0.805073,0.286673,-0.492956
29747,NaN,21.835652,-3.312502,4.290347,12.489061,-10.636296,5.581471,0.281281,-0.716064,-4.526122,-0.887451,0.337891,0.549072,0.217376,-0.038113,0.043632,0.999737,0.001406,-0.003580,-0.022629,0.153161,-0.811147,0.267262,-0.497145
29748,NaN,24.926826,1.763273,3.475788,11.865665,-15.591001,6.078381,-0.259371,-0.367911,-5.167959,-0.909668,0.294922,0.553955,0.249549,0.011232,0.035199,0.999664,-0.001297,-0.001839,-0.025837,0.139704,-0.818892,0.246577,-0.499097
29749,NaN,28.268495,10.319480,0.658921,8.599417,-23.517113,6.884352,-0.672845,-0.070540,-5.627411,-0.924561,0.235107,0.546143,0.285437,0.095210,0.006360,0.999598,-0.003364,-0.000353,-0.028133,0.119974,-0.823848,0.227091,-0.505282
29750,NaN,28.926122,14.815985,-3.296288,4.785998,-26.505530,8.661850,-1.247985,0.244873,-6.082544,-0.941650,0.164307,0.544922,0.293542,0.139064,-0.034207,0.999517,-0.006239,0.001224,-0.030408,0.099133,-0.830486,0.205228,-0.508279
29751,NaN,27.260123,12.681605,-6.007095,2.175290,-22.373840,11.028497,-1.560960,0.656316,-6.439213,-0.949951,0.095703,0.533203,0.276283,0.117481,-0.061915,0.999446,-0.007803,0.003281,-0.032190,0.068725,-0.832607,0.188657,-0.516188
29752,NaN,25.966647,6.662620,-10.577005,-0.561322,-14.538885,15.058628,-0.637678,0.884189,-6.260268,-0.960693,0.033691,0.516846,0.261103,0.058127,-0.107117,0.999495,-0.003188,0.004420,-0.031296,0.049047,-0.836028,0.164453,-0.521159
29753,NaN,35.783523,-21.763722,-14.218648,6.120084,11.461827,32.460585,0.437198,0.971928,-5.273445,-0.959229,-0.007080,0.508789,0.351240,-0.226643,-0.144393,0.999638,0.002186,0.004859,-0.026364,0.035558,-0.836546,0.137416,-0.529191
29754,NaN,14.887042,-54.721302,-29.429011,-11.249778,51.135489,26.792755,3.842754,-0.009014,-3.819671,-0.956543,-0.017822,0.506836,0.138471,-0.544135,-0.304759,0.999633,0.019211,-0.000045,-0.019096,0.041516,-0.838203,0.111222,-0.532280
29755,NaN,13.232591,-36.404920,-20.077265,-10.436684,32.485980,17.369269,5.833581,-1.507803,-2.241265,-0.939941,-0.004883,0.519775,0.129842,-0.359471,-0.210318,0.999483,0.029163,-0.007538,-0.011204,0.074841,-0.843006,0.062218,-0.529026
29756,NaN,8.137191,-0.222281,-3.363698,0.553193,-1.539428,-1.158233,5.850209,-1.507895,-0.999570,-0.934082,0.012207,0.521729,0.081614,-0.001657,-0.033076,0.999531,0.029246,-0.007538,-0.004997,0.097286,-0.844720,0.041939,-0.524619
29757,NaN,-0.911541,15.596045,10.868353,9.863530,-13.714363,-18.573683,4.511803,-0.425573,-0.331368,-0.925781,0.022949,0.521484,-0.009096,0.153472,0.112145,0.999742,0.022557,-0.002128,-0.001657,0.109625,-0.841958,0.036668,-0.527015
29758,NaN,-0.225495,14.604433,15.951784,15.020372,-11.770653,-19.992918,0.836437,0.440055,0.536862,-0.930420,0.031494,0.508545,-0.002294,0.145369,0.160132,0.999985,0.004182,0.002200,0.002684,0.114478,-0.840228,0.036964,-0.528721
29759,NaN,7.705861,-13.548202,2.010759,4.439763,12.024505,-0.720391,-1.983156,0.735570,1.076707,-0.921631,0.029297,0.506348,0.077862,-0.134858,0.021162,0.999930,-0.009916,0.003678,0.005383,0.109075,-0.838291,0.045080,-0.532295
29760,NaN,4.765973,-10.530626,-5.023786,-2.848079,8.635027,-1.085148,-1.170897,0.709513,1.458903,-0.928223,0.033691,0.495605,0.048250,-0.105248,-0.049792,0.999950,-0.005854,0.003548,0.007294,0.107885,-0.836669,0.054695,-0.534185
29761,NaN,1.394021,0.097674,-1.856546,-1.100585,-0.611421,-7.859623,-1.194748,0.452534,1.758422,-0.922363,0.050781,0.482422,0.013889,0.000988,-0.018603,0.999941,-0.005974,0.002263,0.008792,0.107876,-0.834674,0.064516,-0.536208
29762,NaN,1.113659,2.441022,0.396651,0.817615,-2.578416,-9.614985,-1.388070,0.319630,1.912253,-0.933350,0.055176,0.480225,0.010908,0.024542,0.003779,0.999929,-0.006940,0.001598,0.009561,0.107099,-0.833889,0.076384,-0.536027
29763,NaN,1.320833,3.072864,1.778606,2.095670,-3.134125,-10.180447,-1.606999,0.390939,1.909842,-0.918457,0.059326,0.480225,0.012948,0.030995,0.017512,0.999920,-0.008035,0.001955,0.009549,0.105614,-0.832136,0.088077,-0.537250
29764,NaN,1.211192,1.959470,1.822379,2.068243,-2.074872,-10.023522,-1.585630,0.477273,1.850531,-0.929443,0.065918,0.471436,0.011972,0.019849,0.018038,0.999923,-0.007928,0.002386,0.009252,0.103769,-0.830811,0.100280,-0.537521
29765,NaN,0.700512,1.456912,1.362347,1.434221,-1.514178,-10.158274,-1.259979,0.508383,1.772066,-0.914551,0.074463,0.467285,0.006910,0.014716,0.013513,0.999938,-0.006300,0.002542,0.008860,0.103142,-0.828435,0.110566,-0.539289
29766,NaN,-0.409693,2.609406,1.937814,1.408207,-2.271337,-11.707363,-1.038937,0.554786,1.680076,-0.925537,0.085205,0.451904,-0.004263,0.026159,0.019254,0.999947,-0.005195,0.002774,0.008400,0.103056,-0.826501,0.120606,-0.540120
29767,NaN,-1.332918,3.903281,1.643680,-0.024469,-3.281469,-12.803507,-1.058808,0.587147,1.569754,-0.919434,0.091553,0.449707,-0.013588,0.039013,0.016270,0.999951,-0.005294,0.002936,0.007849,0.047428,-0.806555,0.211913,-0.549830
29768,NaN,-1.953465,4.547385,0.704807,-1.298894,-3.435391,-13.204146,-1.123707,0.600411,1.401343,-0.924072,0.102295,0.453857,-0.019832,0.045374,0.006852,0.999955,-0.005618,0.003002,0.007007,0.046110,-0.803648,0.220785,-0.550706
29770,NaN,-2.632433,3.539056,0.177324,-4.127599,-3.526147,-16.774687,-1.261671,0.548712,1.089778,-0.932617,0.104492,0.436768,-0.053399,0.070242,0.002950,0.999846,-0.012616,0.005487,0.010897,-0.009180,-0.773821,0.306577,-0.554190
29771,NaN,-2.790228,2.497535,-0.291355,-2.015511,-0.610769,-12.922752,-1.362906,0.456142,0.730071,-0.924316,0.111084,0.434570,-0.028000,0.024853,-0.003019,0.999968,-0.006814,0.002281,0.003650,-0.013130,-0.771350,0.313147,-0.553883
29772,NaN,-2.622229,2.244157,-1.165923,-2.590890,0.280639,-12.358292,-1.376003,0.347281,0.515095,-0.923828,0.100342,0.428223,-0.026300,0.022293,-0.011767,0.999972,-0.006880,0.001736,0.002575,-0.061870,-0.741508,0.378287,-0.550670
29773,NaN,-2.694803,2.879316,-1.388319,-3.174714,0.023517,-12.533036,-1.470877,0.232216,0.334425,-0.926025,0.100342,0.430420,-0.027012,0.028645,-0.014063,0.999971,-0.007354,0.001161,0.001672,-0.066841,-0.739758,0.383492,-0.548839
29774,NaN,-2.745905,2.772734,-1.673936,-3.267252,0.764114,-12.414802,-1.834785,0.075917,0.158539,-0.934570,0.098145,0.434570,-0.027487,0.027551,-0.016982,0.999958,-0.009174,0.000380,0.000793,-0.110617,-0.710467,0.437670,-0.539856
29775,NaN,-2.004302,1.926531,-1.810214,-2.709241,1.027792,-11.427946,-1.926604,-0.029768,-0.002142,-0.923584,0.087402,0.439209,-0.020040,0.019090,-0.018290,0.999954,-0.009633,-0.000149,-0.000011,-0.117398,-0.709453,0.442858,-0.535511
29776,NaN,-1.329527,0.996214,-1.587947,-1.698950,1.316578,-10.626174,-1.848755,-0.076058,-0.158309,-0.929443,0.074463,0.435059,-0.013281,0.009825,-0.015976,0.999957,-0.009244,-0.000380,-0.000792,-0.153964,-0.682982,0.485542,-0.523526
29777,NaN,-0.913875,0.463440,-1.539554,-1.227497,1.350549,-10.111654,-1.728256,-0.112744,-0.278270,-0.929199,0.063721,0.439453,-0.009124,0.004514,-0.015440,0.999962,-0.008641,-0.000564,-0.001391,-0.160316,-0.682595,0.489182,-0.518713
29778,NaN,-0.678038,0.573503,-1.664097,-1.248737,1.412307,-9.874709,-1.580630,-0.159345,-0.352311,-0.926758,0.059570,0.443848,-0.006757,0.005615,-0.016691,0.999967,-0.007903,-0.000797,-0.001762,-0.190889,-0.658439,0.523840,-0.505580
29779,NaN,-0.467391,1.168052,-1.280188,-1.596476,0.798379,-10.001066,-1.423743,-0.175199,-0.408736,-0.924072,0.040283,0.448486,-0.004639,0.011598,-0.012889,0.999972,-0.007119,-0.000876,-0.002044,-0.196148,-0.658574,0.526244,-0.500872
29780,NaN,-0.124673,1.161168,-0.923187,-1.411882,0.471313,-9.836236,-1.180111,-0.133352,-0.446322,-0.934570,0.033691,0.454834,-0.001215,0.011560,-0.009301,0.999980,-0.005901,-0.000667,-0.002232,-0.219618,-0.638730,0.551997,-0.488970
29781,NaN,0.137536,0.405890,-0.808940,-0.691820,0.478693,-9.451745,-0.868342,-0.079963,-0.477309,-0.925537,0.023193,0.450684,0.001388,0.004020,-0.008106,0.999988,-0.004342,-0.000400,-0.002387,-0.223336,-0.639280,0.552675,-0.485790
29782,NaN,0.242176,0.163634,-0.615061,-0.377821,0.364609,-9.379056,-0.446608,-0.029797,-0.506851,-0.929932,0.025146,0.457031,0.002427,0.001616,-0.006154,0.999994,-0.002233,-0.000149,-0.002534,-0.240935,-0.623096,0.571405,-0.476654
29783,NaN,0.073368,-0.077724,-0.524666,-0.101356,0.426030,-9.504590,-0.120391,-0.021610,-0.538101,-0.932129,0.022949,0.461426,0.000732,-0.000782,-0.005246,0.999996,-0.000602,-0.000108,-0.002691,-0.242531,-0.624537,0.570037,-0.475595
29784,NaN,0.509865,-0.237030,-0.927283,-0.093938,0.599114,-8.913667,0.174898,-0.057914,-0.573503,-0.940674,0.018799,0.468018,0.005095,-0.002377,-0.009273,0.999995,0.000874,-0.000290,-0.002868,-0.254537,-0.613047,0.582386,-0.469266
29785,NaN,1.019528,-0.176162,-1.039548,-0.242285,0.442182,-8.435406,0.421520,-0.084129,-0.598318,-0.936035,0.012451,0.465820,0.010194,-0.001770,-0.010395,0.999993,0.002108,-0.000421,-0.002992,-0.254404,-0.615518,0.579664,-0.469473
29786,NaN,1.361209,-0.091753,-1.121784,-0.369822,0.347333,-8.120854,0.606400,-0.126429,-0.580246,-0.936035,0.014404,0.465820,0.013617,-0.000923,-0.011212,0.999991,0.003032,-0.000632,-0.002901,-0.262267,-0.607686,0.587743,-0.465286
29787,NaN,1.448948,0.725363,-0.545907,-1.012467,-0.336995,-8.476666,0.676931,-0.141357,-0.540417,-0.934082,0.014404,0.472168,0.014513,0.007233,-0.005424,0.999990,0.003385,-0.000707,-0.002702,-0.261052,-0.610485,0.584704,-0.466135
29788,NaN,1.532620,0.844062,-1.232824,-1.307612,0.225395,-8.133235,0.627883,-0.160518,-0.454099,-0.945068,0.020996,0.478516,0.015355,0.008444,-0.012289,0.999992,0.003139,-0.000803,-0.002270,-0.266633,-0.604568,0.590820,-0.462965
29789,NaN,2.131736,0.601035,-0.851306,-1.055774,-0.356478,-7.717808,0.809027,-0.135567,-0.310282,-0.938477,0.020996,0.476562,0.021332,0.006012,-0.008474,0.999990,0.004045,-0.000678,-0.001551,-0.264505,-0.606870,0.588183,-0.464529
29790,NaN,2.203398,1.753620,0.876682,-1.772954,-2.053250,-8.655321,0.638273,-0.023999,-0.138505,-0.942871,0.025146,0.478516,0.022045,0.017493,0.008825,0.999995,0.003191,-0.000120,-0.000693,-0.268084,-0.601791,0.592874,-0.463119
29791,NaN,2.268542,1.973536,0.957926,-1.966388,-2.195201,-8.684345,0.320599,0.038827,0.029078,-0.951660,0.025146,0.484863,0.022684,0.019723,0.009606,0.999999,0.001603,0.000194,0.000145,-0.267169,-0.602043,0.592164,-0.464226
29792,NaN,2.290662,2.480619,1.496238,-2.372579,-2.714215,-9.010669,0.066491,0.150610,0.221874,-0.949707,0.029541,0.495605,0.022890,0.024827,0.014953,0.999999,0.000332,0.000753,0.001109,-0.271100,-0.596128,0.597470,-0.462780
29793,NaN,2.088001,1.208218,-0.539023,-1.587750,-0.655550,-8.035224,-0.317751,0.114959,0.460757,-0.952148,0.035889,0.499756,0.020849,0.012122,-0.005421,0.999996,-0.001589,0.000575,0.002304,-0.271325,-0.594052,0.599419,-0.462797
29794,NaN,2.785560,-0.709478,-1.208562,-0.002418,-0.130597,-6.697203,-0.493840,0.066775,0.728364,-0.960938,0.042236,0.497559,0.027877,-0.007023,-0.012078,0.999990,-0.002469,0.000334,0.003642,-0.271491,-0.591263,0.602345,-0.462472
29795,NaN,4.781517,-1.863729,2.037429,1.480990,-3.769939,-6.060167,-0.730728,0.087194,0.924219,-0.961426,0.055176,0.503662,0.047909,-0.018341,0.020421,0.999983,-0.003654,0.000436,0.004621,-0.271775,-0.587276,0.606637,-0.461777
29796,NaN,18.777215,-48.170034,-0.432308,42.993473,-3.122002,18.731766,-0.544746,-0.508764,2.511183,-0.960205,0.080811,0.529053,0.193808,-0.479301,-0.002527,0.999914,-0.002724,-0.002544,0.012556,-0.266198,-0.580208,0.615636,-0.462049
29797,NaN,33.328216,-99.866699,-19.250202,85.353418,6.627944,54.357617,-6.678892,-1.241214,6.251906,-0.941895,0.112793,0.545898,0.365442,-0.993217,-0.157064,0.998935,-0.033383,-0.006204,0.031248,-0.267028,-0.554332,0.650185,-0.445726
29798,NaN,32.846558,-25.005481,-15.326852,12.670309,-2.829536,32.260165,-2.413727,-0.249750,5.764187,-0.941650,0.164307,0.544922,0.335712,-0.242271,-0.149897,0.999511,-0.012067,-0.001249,0.028816,-0.259246,-0.530361,0.673069,-0.445518
29799,NaN,11.948307,59.191573,12.318012,-57.484104,-14.834899,-26.328999,4.534285,0.826920,3.344712,-0.930420,0.215820,0.529297,0.110140,0.590821,0.136116,0.999595,0.022668,0.004134,0.016721,-0.242454,-0.522926,0.670492,-0.467124
29800,NaN,-2.698567,36.739192,6.865779,-31.777598,-3.616751,-29.334738,-0.923103,-0.167817,3.883604,-0.922852,0.241455,0.552490,-0.034173,0.367086,0.066936,0.999800,-0.004615,-0.000839,0.019417,-0.235043,-0.507832,0.683379,-0.468887
29801,NaN,19.143227,22.998719,-36.342449,-33.385904,24.383182,12.701280,-4.510785,-1.123978,4.113130,-0.901855,0.258545,0.578125,0.188819,0.225630,-0.367480,0.999518,-0.022550,-0.005619,0.020562,-0.232902,-0.490870,0.705385,-0.455232
29802,NaN,41.363534,-6.261383,-24.272209,-14.422546,0.214035,36.351674,-3.279200,-1.195843,3.174012,-0.897949,0.267090,0.595215,0.416039,-0.059965,-0.239241,0.999722,-0.016394,-0.005979,0.015869,-0.229496,-0.478811,0.721614,-0.444236
29803,NaN,84.018617,-20.789955,-1.070148,-19.433775,-43.069151,62.708164,1.116162,-0.405348,3.078381,-0.882324,0.309814,0.598877,0.843274,-0.194878,-0.010106,0.999864,0.005581,-0.002027,0.015391,-0.218495,-0.469820,0.726870,-0.450766
29804,NaN,95.425795,32.047663,25.103079,-70.625689,-62.731708,33.072808,0.644390,0.015549,3.373527,-0.872314,0.335449,0.600586,0.948700,0.335700,0.252022,0.999853,0.003222,0.000078,0.016867,-0.210078,-0.458979,0.732298,-0.457106
29805,NaN,26.439216,-4.270155,4.553697,-9.242773,-17.308559,8.972786,-1.314886,-0.259789,3.711854,-0.853760,0.356934,0.604736,0.265060,-0.037484,0.046139,0.999805,-0.006574,-0.001299,0.018558,-0.203623,-0.444512,0.743949,-0.455507
29806,NaN,10.746148,-18.969959,-10.003612,9.240523,-0.101929,12.322663,-0.073109,0.023813,3.199638,-0.848389,0.389160,0.602051,0.110466,-0.187985,-0.099980,0.999872,-0.000366,0.000119,0.015998,-0.198332,-0.434644,0.748702,-0.459560
29807,NaN,-7.243002,-11.854607,-13.078156,12.366643,12.286254,-2.058154,1.465441,-0.262692,2.508512,-0.836426,0.412598,0.597656,-0.070771,-0.118478,-0.131744,0.999894,0.007327,-0.001313,0.012542,-0.188382,-0.427264,0.750965,-0.466915
29808,NaN,-15.646935,-8.979891,-5.877800,15.441040,10.653299,-12.656142,1.958062,-0.406030,1.782599,-0.828613,0.436279,0.595215,-0.155543,-0.090605,-0.059979,0.999910,0.009790,-0.002030,0.008913,-0.179754,-0.424968,0.748725,-0.475922
29809,NaN,-19.354656,-11.339539,0.658847,20.402638,6.362180,-16.658648,1.291549,-0.288344,1.201570,-0.812012,0.457520,0.590576,-0.192869,-0.114594,0.005573,0.999960,0.006458,-0.001442,0.006008,-0.173067,-0.422300,0.748432,-0.481207
29810,NaN,-11.043918,-12.014607,7.622434,17.188823,-3.604392,-13.808796,0.949874,0.041762,0.852835,-0.816650,0.464111,0.583984,-0.109909,-0.120976,0.075674,0.999980,0.004749,0.000209,0.004264,-0.169910,-0.420547,0.746848,-0.486302
29811,NaN,0.999401,-8.596195,10.392569,7.833067,-10.991823,-8.963603,0.413318,0.415489,0.464639,-0.818604,0.461914,0.577637,0.010410,-0.086153,0.103726,0.999993,0.002067,0.002077,0.002323,-0.169465,-0.418149,0.746460,-0.489112
29812,NaN,9.808024,-7.458857,5.448487,0.909361,-10.499027,-1.418576,-0.259626,0.503032,0.169606,-0.825195,0.464111,0.575439,0.098280,-0.074435,0.054335,0.999996,-0.001298,0.002515,0.000848,-0.172107,-0.416072,0.746219,-0.490327
29813,NaN,20.098464,-8.149253,-1.893592,-5.788714,-8.815520,9.232557,-0.462664,0.457842,-0.085203,-0.821045,0.468262,0.577637,0.200906,-0.081622,-0.019207,0.999995,-0.002313,0.002289,-0.000426,-0.174989,-0.414867,0.746776,-0.489479
29814,NaN,21.853628,-10.180778,-7.098695,-5.917144,-5.242698,14.043562,0.188027,0.420447,-0.338913,-0.829590,0.466309,0.568848,0.218213,-0.102111,-0.071542,0.999996,0.000940,0.002102,-0.001695,-0.177759,-0.415299,0.744290,-0.491895
29815,NaN,16.636238,-9.048097,-5.305372,-3.392642,-4.195658,9.099318,0.794060,0.244017,-0.674698,-0.829102,0.457764,0.564697,0.165991,-0.090829,-0.053617,0.999986,0.003970,0.001220,-0.003373,-0.178679,-0.417909,0.740707,-0.494752
29816,NaN,16.166303,-10.979589,-0.249552,-0.666791,-8.564684,7.741767,1.201603,0.080002,-1.128829,-0.837646,0.455566,0.549805,0.161039,-0.110688,-0.003223,0.999966,0.006008,0.000400,-0.005644,-0.180072,-0.423165,0.734208,-0.499444
29817,NaN,16.021759,-9.119947,5.107195,-0.969432,-12.837028,4.336978,1.345055,0.007301,-1.570520,-0.839355,0.442627,0.547852,0.159495,-0.092794,0.050446,0.999947,0.006725,0.000037,-0.007852,-0.181169,-0.430100,0.727479,-0.502958
29818,NaN,12.765474,-8.566832,5.208527,0.785004,-11.241686,1.869492,1.263146,-0.118424,-1.969166,-0.856445,0.438477,0.547852,0.126770,-0.087246,0.051613,0.999931,0.006316,-0.000592,-0.009846,-0.183934,-0.438784,0.718931,-0.506730
29819,NaN,8.496217,-9.863444,3.178314,4.146289,-7.519684,0.474509,1.196778,-0.308828,-2.468127,-0.862305,0.419189,0.537354,0.083686,-0.099861,0.031318,0.999905,0.005984,-0.001544,-0.012340,-0.186438,-0.449496,0.710698,-0.508038
29820,NaN,7.142568,-9.804177,1.020262,4.729251,-4.758104,0.344136,1.211929,-0.472747,-3.044759,-0.874512,0.402100,0.535400,0.069898,-0.099174,0.009770,0.999863,0.006059,-0.002364,-0.015223,-0.190884,-0.462369,0.699962,-0.509736
29821,NaN,9.042015,-8.464655,0.298631,2.882236,-4.721961,1.272256,1.174994,-0.592821,-3.642912,-0.879883,0.372070,0.533691,0.088850,-0.086291,0.002747,0.999812,0.005875,-0.002964,-0.018213,-0.195346,-0.477662,0.688979,-0.508907
29822,NaN,14.434101,-6.220648,0.993048,-0.862479,-7.572814,3.967593,0.978499,-0.666862,-4.238841,-0.897949,0.335693,0.531982,0.142945,-0.065295,0.010094,0.999758,0.004892,-0.003334,-0.021192,-0.202548,-0.494444,0.675750,-0.507801
29823,NaN,21.629573,-1.602741,2.937649,-6.700553,-12.625131,6.759804,0.638800,-0.606994,-4.880761,-0.907227,0.292969,0.534668,0.215727,-0.021392,0.029969,0.999693,0.003194,-0.003035,-0.024401,-0.211251,-0.512969,0.662467,-0.503362
29824,NaN,26.967683,5.037054,3.744899,-13.356043,-16.060087,8.357442,0.250009,-0.480134,-5.432262,-0.924805,0.237305,0.533203,0.270820,0.042977,0.038155,0.999627,0.001250,-0.002400,-0.027158,-0.224295,-0.531444,0.647283,-0.498281
29825,NaN,32.488425,15.006846,1.772409,-23.386673,-17.723296,10.740357,-0.415993,-0.249432,-5.874342,-0.933350,0.179443,0.536377,0.329082,0.140480,0.017834,0.999566,-0.002080,-0.001247,-0.029367,-0.239133,-0.550376,0.632708,-0.489471
29826,NaN,34.252117,17.800102,-2.790118,-25.973019,-14.678539,14.830341,-1.617329,0.163344,-6.183765,-0.948242,0.108643,0.532959,0.347776,0.167067,-0.029564,0.999489,-0.008085,0.000817,-0.030914,-0.261946,-0.566142,0.618371,-0.478000
29827,NaN,30.322564,13.004185,-6.096483,-19.573334,-9.408286,15.755027,-1.345750,0.630465,-6.315639,-0.948242,0.046631,0.516846,0.306925,0.119969,-0.062759,0.999474,-0.006728,0.003152,-0.031573,-0.282662,-0.582099,0.602558,-0.467106
29828,NaN,33.612445,-2.080757,-12.519861,-4.919477,-2.796704,25.662925,0.225986,0.980775,-5.884470,-0.963379,-0.011230,0.504639,0.334702,-0.030527,-0.126873,0.999555,0.001130,0.004903,-0.029418,-0.300002,-0.599373,0.579464,-0.463651
29829,NaN,31.338884,-48.816476,-20.750541,40.342420,14.054364,34.572009,2.734759,0.660059,-4.544943,-0.958496,-0.024170,0.500488,0.301532,-0.492199,-0.215226,0.999643,0.013672,0.003300,-0.022722,-0.304152,-0.614897,0.558305,-0.466572
29830,NaN,3.081774,-48.436832,-27.737124,38.452709,35.228574,10.289135,6.636026,-0.756897,-2.931735,-0.947998,-0.019775,0.500488,0.024896,-0.475209,-0.293141,0.999335,0.033173,-0.003784,-0.014655,-0.285758,-0.639818,0.526511,-0.481417
29831,NaN,13.669492,-18.974385,-13.407788,12.906798,12.036011,10.558854,7.749541,-1.379041,-1.226183,-0.936035,0.008057,0.513184,0.136503,-0.185223,-0.140373,0.999207,0.038737,-0.006893,-0.006129,-0.260073,-0.656924,0.505488,-0.495272
29832,NaN,2.437228,17.315412,5.466304,-13.321141,-12.281008,-12.502483,6.848513,-0.569220,-0.626336,-0.934570,0.029297,0.510742,0.024743,0.171069,0.060616,0.999405,0.034236,-0.002846,-0.003131,-0.236511,-0.669968,0.483354,-0.511444
29833,NaN,0.512207,9.274040,10.135462,-3.308427,-12.405443,-14.724236,4.647493,0.266599,0.287642,-0.927002,0.059326,0.497314,0.005128,0.090360,0.103466,0.999728,0.023235,0.001333,0.001438,-0.220793,-0.673903,0.471983,-0.523773
29834,NaN,3.725364,-5.010009,4.552615,6.748143,-2.453680,-6.958844,2.132124,0.786358,0.917895,-0.931641,0.070068,0.488525,0.037662,-0.050408,0.044842,0.999925,0.010660,0.003932,0.004589,-0.202110,-0.682419,0.451899,-0.537814
29835,NaN,5.544448,-1.016473,-1.341407,0.139071,-0.676919,-4.059831,0.008316,0.758417,1.303633,-0.927490,0.076660,0.479980,0.055458,-0.009803,-0.013625,0.999972,0.000042,0.003792,0.006518,-0.200288,-0.677421,0.455541,-0.541727
29836,NaN,3.679172,4.124523,0.743785,-2.960655,-4.182875,-7.613143,-1.462163,0.618570,1.606823,-0.930176,0.087402,0.467041,0.036481,0.041592,0.007021,0.999936,-0.007311,0.003093,0.008034,-0.194959,-0.677337,0.452828,-0.546034
29837,NaN,1.889089,6.248450,3.383473,-3.364888,-6.481823,-10.660599,-2.485746,0.548301,1.826175,-0.925781,0.091553,0.464844,0.018408,0.063068,0.033002,0.999877,-0.012428,0.002741,0.009131,-0.199614,-0.669197,0.465204,-0.543980
29838,NaN,0.947952,4.197157,3.439593,-1.643397,-5.102581,-11.079671,-3.159084,0.526283,1.846371,-0.929932,0.087402,0.454102,0.009177,0.042593,0.033702,0.999829,-0.015795,0.002631,0.009231,-0.200760,-0.665808,0.469958,-0.543631
29839,NaN,0.767543,1.431468,2.221700,-0.092842,-2.723180,-10.198739,-3.186336,0.506746,1.732021,-0.925781,0.087402,0.460449,0.007605,0.014732,0.021965,0.999832,-0.015931,0.002534,0.008660,-0.207821,-0.657049,0.483792,-0.539483
29840,NaN,0.204031,0.471158,0.976525,0.083343,-1.070398,-10.066516,-2.756783,0.488581,1.567586,-0.930176,0.089600,0.445557,0.002026,0.004861,0.009694,0.999871,-0.013783,0.002443,0.007838,-0.210228,-0.653000,0.488902,-0.538860
29841,NaN,-0.554256,1.295155,-0.399338,-1.285474,0.005450,-10.513762,-2.274909,0.425075,1.402670,-0.921631,0.091797,0.443359,-0.005642,0.012866,-0.004128,0.999908,-0.011374,0.002125,0.007013,-0.214901,-0.645973,0.499114,-0.536117
29842,NaN,-1.267019,3.024997,-0.830515,-2.948221,-0.048569,-11.471277,-1.776200,0.421198,1.240883,-0.927734,0.087402,0.443359,-0.012875,0.030095,-0.008546,0.999939,-0.008881,0.002106,0.006204,-0.216035,-0.642684,0.502224,-0.536709
29843,NaN,-2.499352,5.161308,-0.281592,-4.461547,-0.763681,-13.344789,-1.640293,0.425850,1.078133,-0.921631,0.091797,0.437012,-0.025278,0.051452,-0.003185,0.999950,-0.008201,0.002129,0.005391,-0.219476,-0.637028,0.509600,-0.535101
29844,NaN,-3.718035,5.242154,-0.427005,-4.486284,-0.141710,-14.432060,-1.787126,0.352289,0.875641,-0.930176,0.091797,0.443359,-0.037417,0.052218,-0.004671,0.999949,-0.008935,0.001761,0.004378,-0.221641,-0.634680,0.511920,-0.534785
29845,NaN,-3.763450,2.998210,-0.581550,-2.552597,0.928556,-13.826765,-1.638059,0.345081,0.618352,-0.927734,0.087402,0.430420,-0.037737,0.029817,-0.005995,0.999960,-0.008190,0.001725,0.003092,-0.226065,-0.630332,0.517854,-0.532356
29846,NaN,-3.702136,1.323101,-0.876712,-1.197140,1.762477,-13.231095,-1.277964,0.346822,0.340223,-0.925537,0.085205,0.428467,-0.037059,0.013112,-0.008787,0.999977,-0.006390,0.001734,0.001701,-0.227971,-0.630051,0.517095,-0.532614
29847,NaN,-2.478043,1.055391,-1.184753,-1.201027,1.628788,-11.948748,-0.963552,0.319885,0.074212,-0.927490,0.081055,0.426270,-0.024803,0.010488,-0.011859,0.999987,-0.004818,0.001599,0.000371,-0.231639,-0.627898,0.519518,-0.531213
29848,NaN,-2.107479,1.390137,-1.752433,-1.791828,1.825230,-11.516459,-0.882720,0.276055,-0.113090,-0.927246,0.072510,0.428711,-0.021091,0.013836,-0.017556,0.999989,-0.004414,0.001380,-0.000565,-0.233815,-0.628886,0.517122,-0.531430
29849,NaN,-2.293422,1.902490,-2.378357,-2.491184,2.261189,-11.606234,-1.039493,0.180478,-0.264833,-0.927002,0.065918,0.422363,-0.022931,0.018931,-0.023861,0.999985,-0.005197,0.000902,-0.001324,-0.238256,-0.627864,0.518827,-0.528998
29850,NaN,-2.191760,1.571857,-2.841116,-2.414451,2.717814,-11.272249,-1.201697,0.081120,-0.392655,-0.933105,0.057373,0.433105,-0.021898,0.015591,-0.028496,0.999980,-0.006008,0.000406,-0.001963,-0.241329,-0.630031,0.516324,-0.527476
29851,NaN,-1.659985,0.863808,-3.123403,-1.918804,3.015317,-10.507901,-1.285822,-0.030659,-0.490530,-0.930420,0.040283,0.428955,-0.016574,0.008478,-0.031291,0.999976,-0.006429,-0.000153,-0.002453,-0.246594,-0.629809,0.518189,-0.523461
29852,NaN,-0.964110,0.538102,-2.640770,-1.495901,2.436737,-9.944030,-1.243513,-0.124843,-0.550934,-0.932373,0.033936,0.431396,-0.009610,0.005243,-0.026447,0.999977,-0.006218,-0.000624,-0.002755,-0.249173,-0.633352,0.515008,-0.521099
29853,NaN,-0.489588,0.247453,-2.131195,-1.040413,1.927629,-9.601345,-1.163261,-0.209782,-0.575698,-0.929932,0.023193,0.431396,-0.004867,0.002365,-0.021331,0.999978,-0.005816,-0.001049,-0.002878,-0.253817,-0.633916,0.516460,-0.516717
29854,NaN,-0.046955,0.133737,-2.087702,-0.949722,1.753056,-9.177566,-0.937793,-0.269704,-0.594491,-0.933838,0.012451,0.444580,-0.000438,0.001241,-0.020884,0.999984,-0.004689,-0.001349,-0.002972,-0.255745,-0.637711,0.513275,-0.514264
29855,NaN,0.246260,0.400010,-1.439773,-0.943136,0.997456,-9.173030,-0.584709,-0.288603,-0.607506,-0.925049,0.008057,0.438232,0.002495,0.003950,-0.014406,0.999990,-0.002924,-0.001443,-0.003038,-0.258435,-0.639256,0.513200,-0.511066
29856,NaN,0.428298,1.764785,0.190766,-1.558495,-0.951498,-9.818059,-0.408839,-0.246388,-0.638792,-0.933350,0.001709,0.442383,0.004337,0.017638,0.001877,0.999992,-0.002044,-0.001232,-0.003194,-0.258002,-0.644581,0.507436,-0.510351
29857,NaN,0.750373,2.066863,0.508189,-1.722803,-1.451182,-9.673996,-0.491980,-0.221428,-0.653869,-0.928955,-0.006836,0.453369,0.007566,0.020656,0.005039,0.999991,-0.002460,-0.001107,-0.003269,-0.260699,-0.646163,0.506859,-0.507547
29858,NaN,1.220485,0.551805,0.025091,-0.518518,-0.696213,-8.792333,-0.411823,-0.188647,-0.624358,-0.935303,-0.009033,0.459717,0.012222,0.005480,0.000251,0.999993,-0.002059,-0.000943,-0.003122,-0.260339,-0.651359,0.500833,-0.507072
29859,NaN,1.309462,-1.005701,-0.228160,0.814102,0.050633,-8.359124,-0.137108,-0.154948,-0.600076,-0.932861,-0.017578,0.451416,0.013066,-0.010098,-0.002265,0.999995,-0.000686,-0.000775,-0.003000,-0.261924,-0.653070,0.499419,-0.505446
29860,NaN,1.291712,-2.123330,-0.730651,1.633222,0.924785,-8.027121,0.135094,-0.164068,-0.589555,-0.934814,-0.024170,0.462158,0.012860,-0.021266,-0.007310,0.999995,0.000675,-0.000820,-0.002948,-0.259244,-0.659207,0.491397,-0.506722
29861,NaN,1.241099,-2.943806,-1.655605,1.998801,2.045461,-7.629065,0.414948,-0.206500,-0.569837,-0.928223,-0.024170,0.466553,0.012344,-0.029439,-0.016604,0.999993,0.002075,-0.001032,-0.002849,-0.258817,-0.661662,0.488726,-0.506325
29862,NaN,1.082388,-2.633336,-2.404683,1.344472,2.654072,-7.568411,0.817105,-0.322429,-0.517185,-0.937012,-0.024170,0.470703,0.010795,-0.026263,-0.024137,0.999987,0.004086,-0.001612,-0.002586,-0.252742,-0.669142,0.478829,-0.509012
29863,NaN,0.682865,-0.048576,-0.676016,-0.238289,0.314565,-8.935232,0.911747,-0.345500,-0.456330,-0.935059,-0.015625,0.479248,0.006839,-0.000471,-0.006751,0.999986,0.004559,-0.001727,-0.002282,-0.250029,-0.672254,0.475405,-0.509461
29864,NaN,0.656025,0.934741,-1.414771,-1.459182,0.479833,-8.839948,0.560800,-0.416325,-0.323223,-0.939453,-0.017822,0.489990,0.006605,0.009376,-0.014108,0.999993,0.002804,-0.002082,-0.001616,-0.243568,-0.679397,0.466310,-0.511517
29865,NaN,1.739767,-0.441293,-0.812727,0.082322,0.182202,-7.852566,0.534956,-0.388257,-0.144335,-0.935303,-0.013428,0.498291,0.017410,-0.004404,-0.008105,0.999994,0.002675,-0.001941,-0.000722,-0.241219,-0.681372,0.464915,-0.511272
29866,NaN,2.808914,-0.235349,1.746053,1.224030,-2.352098,-7.821843,0.442435,-0.285986,0.004909,-0.943848,-0.011230,0.500488,0.028064,-0.002391,0.017495,0.999997,0.002212,-0.001430,0.000025,-0.233170,-0.688423,0.455100,-0.514383
29867,NaN,3.563833,0.038927,2.502993,1.412174,-3.372580,-7.446497,0.348570,-0.132085,0.138109,-0.937744,-0.004883,0.504639,0.035622,0.000370,0.025054,0.999998,0.001743,-0.000660,0.000691,-0.231320,-0.688851,0.454825,-0.514887
29868,NaN,3.788824,-1.546608,1.462176,2.279911,-1.872227,-6.621777,0.389462,0.038703,0.282486,-0.946777,0.005859,0.506592,0.037913,-0.015441,0.014584,0.999997,0.001947,0.000194,0.001412,-0.229568,-0.688854,0.453781,-0.516586
29870,NaN,3.642880,-2.529751,0.642178,5.358022,-1.407402,-2.767122,0.221887,0.188599,0.634282,-0.953857,0.025146,0.519287,0.073201,-0.050160,0.012594,0.999976,0.002219,0.001886,0.006343,-0.225620,-0.685492,0.456553,-0.520342
29871,NaN,3.677156,-2.690175,0.813535,2.864441,-0.791908,-6.264733,-0.401299,0.235950,1.082041,-0.958496,0.035889,0.523193,0.036926,-0.026686,0.008146,0.999983,-0.002006,0.001180,0.005410,-0.225120,-0.681902,0.460442,-0.521846
29872,NaN,9.953602,-19.003881,6.090132,19.703151,0.231216,0.629143,0.153073,0.319695,1.682513,-0.961670,0.063721,0.531494,0.101227,-0.189238,0.060595,0.999963,0.000765,0.001598,0.008412,-0.220943,-0.677340,0.465396,-0.525169
29873,NaN,32.927104,-78.682152,-1.248700,67.710792,22.653530,36.844702,-3.024946,-0.286953,4.605179,-0.952148,0.100098,0.535156,0.347276,-0.779027,-0.000174,0.999620,-0.015123,-0.001435,0.023023,-0.219103,-0.662840,0.489504,-0.522516
29874,NaN,40.844547,-74.981500,-30.083322,50.609399,35.647712,56.211417,-5.221707,-0.550713,7.315401,-0.951660,0.142822,0.541016,0.436470,-0.741686,-0.280217,0.998987,-0.026100,-0.002753,0.036565,-0.215734,-0.639987,0.527478,-0.515404
29875,NaN,20.216509,62.666280,11.133922,-53.143216,-40.143703,-14.614047,4.798227,1.163839,3.338829,-0.944580,0.192139,0.531738,0.192400,0.627036,0.125242,0.999556,0.023988,0.005818,0.016692,-0.196762,-0.627444,0.530050,-0.535393
29876,NaN,-3.153518,57.843359,3.131313,-48.896414,-20.931890,-32.965459,-2.223848,-0.271517,3.819471,-0.939209,0.218018,0.552734,-0.042613,0.577990,0.024831,0.999755,-0.011118,-0.001357,0.019096,-0.192754,-0.615706,0.548115,-0.532280
29877,NaN,10.830590,-5.446759,-25.257505,-7.819777,17.312744,10.777181,-4.978487,-1.034472,4.025429,-0.920166,0.228516,0.576416,0.110756,-0.058509,-0.250583,0.999474,-0.024888,-0.005171,0.020124,-0.195110,-0.601262,0.574859,-0.519571
29878,NaN,17.377712,-3.679870,-33.227203,-13.416014,19.934716,19.207420,-2.143561,-0.987218,2.980657,-0.912354,0.247803,0.597412,0.175971,-0.037739,-0.331006,0.999819,-0.010717,-0.004936,0.014902,-0.190946,-0.593058,0.590240,-0.513262
29879,NaN,53.981711,-7.414128,-11.218873,-10.318349,-16.627896,42.261276,-0.433666,-0.905294,2.768735,-0.902588,0.277832,0.603516,0.541277,-0.066894,-0.109591,0.999892,-0.002168,-0.004526,0.013843,-0.182427,-0.586675,0.600453,-0.511849
29880,NaN,147.055799,38.299817,28.190092,-61.467315,-107.851208,82.244880,0.987759,0.206817,3.610428,-0.893066,0.312012,0.600830,1.463634,0.408069,0.282359,0.999824,0.004939,0.001034,0.018051,-0.170887,-0.576103,0.608215,-0.518630
29881,NaN,19.364973,-2.263680,15.133128,2.073374,-22.368655,0.404455,-2.060829,-0.488074,3.776578,-0.872314,0.333252,0.609375,0.193641,-0.017416,0.152001,0.999766,-0.010303,-0.002440,0.018881,-0.165514,-0.563990,0.624702,-0.514070
29882,NaN,1.513879,-27.593310,-13.989531,18.346900,15.024167,10.111739,-0.552020,-0.137096,3.261943,-0.866699,0.354736,0.608887,0.019736,-0.276021,-0.139121,0.999863,-0.002760,-0.000685,0.016309,-0.158244,-0.553618,0.635342,-0.514594
