// Start Time: Unknown
// Update Rate: 100.0Hz
// Filter Profile: human (46.1)
// Firmware Version: 4.4.0
PacketCounter,SampleTimeFine,Acc_X,Acc_Y,Acc_Z,FreeAcc_X,FreeAcc_Y,FreeAcc_Z,Gyr_X,Gyr_Y,Gyr_Z,Mag_X,Mag_Y,Mag_Z,VelInc_X,VelInc_Y,VelInc_Z,OriInc_q0,OriInc_q1,OriInc_q2,OriInc_q3,Quat_q0,Quat_q1,Quat_q2,Quat_q3
59266,NaN,11.636273,-1.269097,3.572908,-0.000000,-0.000000,2.425554,1.955408,1.029809,2.088806,-0.862061,-0.113770,0.137451,0.116671,-0.011818,0.035010,0.999884,0.009777,0.005149,0.010444,-0.163321,-0.569699,0.180015,-0.785088
59267,NaN,12.131606,-1.058785,3.075405,-0.000000,0.000000,2.747132,1.997393,1.186764,2.169885,-0.862793,-0.092529,0.130859,0.121603,-0.009571,0.029934,0.999874,0.009987,0.005934,0.010849,-0.153263,-0.594001,0.167324,-0.771801
59268,NaN,12.250542,-0.891385,2.679284,-0.681119,0.094902,2.739953,2.021179,1.373372,2.236914,-0.872070,-0.073486,0.122314,0.122777,-0.007806,0.025868,0.999863,0.010105,0.006867,0.011184,-0.135542,-0.581892,0.160531,-0.785659
59269,NaN,11.976435,-0.677977,2.256455,-1.330460,-0.057315,2.320112,2.035909,1.571916,2.298923,-0.875000,-0.047852,0.105469,0.120006,-0.005624,0.021561,0.999851,0.010179,0.007859,0.011494,-0.121830,-0.575166,0.158133,-0.793307
59270,NaN,11.537955,-0.368135,2.004598,-1.802271,-0.378087,1.757920,2.028655,1.740690,2.359388,-0.877686,-0.028809,0.096924,0.115582,-0.002515,0.019011,0.999841,0.010143,0.008703,0.011796,-0.108147,-0.567856,0.155697,-0.801001
59271,NaN,11.165680,0.050776,1.797544,-2.283756,-0.826984,1.232602,1.972323,1.882176,2.414828,-0.869873,-0.007324,0.070068,0.111804,0.001687,0.016936,0.999834,0.009861,0.009410,0.012073,-0.094324,-0.559411,0.153611,-0.809053
59272,NaN,10.804886,0.434477,1.627458,-2.610711,-1.241446,0.733291,1.866523,1.987346,2.476695,-0.875244,0.020264,0.055176,0.108140,0.005538,0.015248,0.999830,0.009332,0.009936,0.012383,-0.081785,-0.553505,0.150678,-0.815009
59273,NaN,10.655777,0.694208,1.434467,-3.063568,-1.574246,0.395778,1.727500,2.076791,2.545713,-0.877930,0.041504,0.036621,0.106601,0.008181,0.013305,0.999828,0.008637,0.010383,0.012728,-0.068182,-0.543736,0.149808,-0.822958
59274,NaN,10.412008,0.987387,1.341381,-3.144638,-1.875398,0.075149,1.580804,2.154384,2.632245,-0.876465,0.058594,0.017822,0.104116,0.011144,0.012377,0.999824,0.007904,0.010771,0.013160,-0.058964,-0.543045,0.144316,-0.825105
59275,NaN,10.196278,1.434336,1.325950,-3.429156,-2.463524,-0.328885,1.411186,2.190067,2.712727,-0.871094,0.083984,-0.003174,0.101894,0.015637,0.012251,0.999823,0.007056,0.010950,0.013563,-0.045512,-0.532373,0.145189,-0.832723
59276,NaN,10.208450,2.034709,1.381801,-3.352508,-3.023763,-0.332706,1.196797,2.191075,2.791491,-0.869873,0.111816,-0.019775,0.101932,0.021692,0.012828,0.999825,0.005984,0.010955,0.013957,-0.040866,-0.538647,0.135678,-0.830530
59277,NaN,10.463548,2.356336,1.373218,-3.760926,-3.559149,-0.320521,0.918962,2.189442,2.861945,-0.866211,0.128906,-0.048828,0.104427,0.024999,0.012701,0.999827,0.004595,0.010947,0.014309,-0.027985,-0.527709,0.139098,-0.837491
59278,NaN,10.495083,2.378209,1.490898,-3.362724,-3.451459,-0.076480,0.638695,2.183845,2.908331,-0.856445,0.154297,-0.063477,0.104746,0.025261,0.013844,0.999830,0.003193,0.010919,0.014541,-0.028823,-0.539342,0.124938,-0.832268
59279,NaN,10.588804,2.503050,1.624581,-3.538400,-3.847976,-0.133425,0.338147,2.162620,2.943796,-0.846680,0.179688,-0.084473,0.105672,0.026561,0.015146,0.999832,0.001691,0.010812,0.014718,-0.017008,-0.528462,0.131136,-0.838595
59280,NaN,10.790392,2.649574,1.954392,-2.995292,-3.836610,0.364156,0.063391,2.122288,2.978878,-0.841309,0.203125,-0.096924,0.107693,0.028095,0.018409,0.999833,0.000317,0.010611,0.014894,-0.021214,-0.541859,0.115478,-0.832228
59281,NaN,11.261049,2.725488,2.162052,-3.262717,-4.267387,0.677459,-0.274438,2.065480,3.019081,-0.829346,0.228516,-0.115723,0.112397,0.028981,0.020420,0.999832,-0.001372,0.010327,0.015095,-0.010584,-0.531401,0.124561,-0.837846
59282,NaN,11.852371,2.587344,2.240754,-3.069297,-3.908712,1.477928,-0.620495,1.996135,3.081368,-0.821533,0.249756,-0.132568,0.118321,0.027764,0.021142,0.999827,-0.003102,0.009980,0.015406,-0.016878,-0.543644,0.110511,-0.831838
59283,NaN,12.454652,2.190876,2.236218,-3.538409,-3.910565,1.895676,-0.918925,1.933016,3.195438,-0.814209,0.281738,-0.145264,0.124382,0.023996,0.021052,0.999815,-0.004594,0.009664,0.015976,-0.007151,-0.533661,0.122835,-0.836700
59284,NaN,12.791611,2.103314,2.142370,-3.421852,-3.574130,2.358342,-1.143162,1.865716,3.206068,-0.802490,0.307129,-0.156006,0.127747,0.023199,0.020103,0.999812,-0.005715,0.009328,0.016029,-0.013246,-0.544691,0.112037,-0.831014
59285,NaN,13.229832,1.805490,2.378772,-3.636226,-3.753442,2.701839,-1.278785,1.810572,3.204704,-0.788574,0.339111,-0.164551,0.132192,0.020320,0.022466,0.999810,-0.006394,0.009052,0.016023,-0.004425,-0.535186,0.125936,-0.835283
59286,NaN,14.088729,2.055259,2.546566,-3.600322,-3.915177,3.636552,-1.419889,1.802558,3.362990,-0.768311,0.364502,-0.173096,0.140734,0.023094,0.024039,0.999793,-0.007099,0.009012,0.016814,-0.010784,-0.543935,0.120694,-0.830332
59287,NaN,13.583304,2.001097,2.501934,-3.743608,-4.218872,2.951732,-1.431097,1.823081,3.338022,-0.752441,0.392090,-0.183838,0.135692,0.022449,0.023627,0.999794,-0.007155,0.009115,0.016689,-0.001916,-0.534163,0.135589,-0.834435
59288,NaN,13.588173,2.317305,2.336653,-3.713325,-4.490225,2.895338,-1.429684,1.809044,3.069933,-0.746826,0.415283,-0.186035,0.135706,0.025417,0.021962,0.999816,-0.007148,0.009045,0.015349,0.001261,-0.540644,0.129888,-0.831163
59289,NaN,13.876245,3.603223,2.045932,-4.579051,-6.082417,2.505154,-1.555541,1.837334,3.118267,-0.722412,0.442871,-0.192627,0.138355,0.038343,0.018895,0.999806,-0.007777,0.009186,0.015590,0.008821,-0.530889,0.144767,-0.834938
59290,NaN,13.353978,4.784284,1.592639,-4.910340,-6.783662,1.745823,-1.767511,1.876018,3.017302,-0.708496,0.468262,-0.195068,0.132935,0.049982,0.014242,0.999803,-0.008837,0.009379,0.015086,-0.006033,-0.535719,0.146689,-0.831535
59291,NaN,12.367227,5.073382,1.083314,-5.304923,-7.069927,0.272602,-1.953307,1.893591,2.825361,-0.687744,0.487305,-0.201416,0.123030,0.052570,0.009159,0.999808,-0.009766,0.009467,0.014126,-0.000906,-0.525613,0.162292,-0.835100
59292,NaN,11.628664,4.663475,0.906443,-5.013313,-6.515073,-0.315415,-2.112615,1.808663,2.645531,-0.676025,0.512695,-0.201904,0.115728,0.048253,0.007512,0.999816,-0.010562,0.009043,0.013227,-0.001281,-0.527882,0.161300,-0.833859
59293,NaN,11.239642,3.729081,0.561528,-5.249614,-5.670931,-0.822742,-2.179600,1.679580,2.509144,-0.659912,0.533936,-0.200195,0.111956,0.038749,0.004257,0.999827,-0.010897,0.008397,0.012545,0.002073,-0.518751,0.176971,-0.836406
59294,NaN,11.139383,2.627083,0.328423,-5.209607,-4.357963,-0.595689,-2.109435,1.567582,2.287446,-0.645752,0.555176,-0.194336,0.111103,0.027569,0.002126,0.999848,-0.010547,0.007838,0.011437,-0.010550,-0.521749,0.178731,-0.834100
59295,NaN,11.162060,2.864346,0.344945,-5.475574,-4.738784,-0.842266,-2.056838,1.460717,1.966540,-0.629395,0.574219,-0.196533,0.111351,0.029767,0.002333,0.999872,-0.010284,0.007303,0.009832,-0.009019,-0.513724,0.192339,-0.836069
59296,NaN,11.225187,3.183580,0.388624,-5.736484,-4.759727,-0.828179,-2.015168,1.366250,1.690860,-0.621094,0.582520,-0.188477,0.111999,0.032815,0.002793,0.999890,-0.010075,0.006831,0.008454,-0.030280,-0.510607,0.201871,-0.835232
59297,NaN,11.233432,3.088116,0.560842,-5.775573,-4.819437,-0.899166,-1.999203,1.277441,1.379189,-0.611084,0.599609,-0.186768,0.112149,0.031704,0.004578,0.999906,-0.009996,0.006387,0.006896,-0.030911,-0.503529,0.213529,-0.836605
59298,NaN,11.284289,3.099144,0.654030,-5.755835,-4.724134,-0.761942,-2.002619,1.157052,1.036782,-0.601074,0.610107,-0.186768,0.112714,0.031635,0.005573,0.999920,-0.010013,0.005785,0.005184,-0.041952,-0.504890,0.216937,-0.834425
59299,NaN,11.722543,2.878817,0.715691,-6.031879,-4.638505,-0.415078,-2.008924,1.046827,0.676948,-0.594727,0.612061,-0.174561,0.117161,0.029251,0.006251,0.999930,-0.010044,0.005234,0.003385,-0.045332,-0.499332,0.226792,-0.834972
59300,NaN,11.769091,2.714353,0.730522,-5.799921,-4.544302,-0.214734,-2.009909,0.925095,0.271016,-0.597168,0.620605,-0.162354,0.117685,0.027371,0.006487,0.999938,-0.010049,0.004625,0.001355,-0.044151,-0.507371,0.222552,-0.831322
59301,NaN,11.921617,2.110279,0.648821,-5.894253,-3.954253,0.016821,-1.963942,0.823405,-0.034455,-0.597168,0.626953,-0.156494,0.119245,0.021141,0.005790,0.999943,-0.009820,0.004117,-0.000172,-0.050190,-0.503525,0.230434,-0.831170
59302,NaN,11.450778,1.574141,0.668726,-5.499888,-3.068806,-0.097856,-1.843697,0.717687,-0.402972,-0.599365,0.626953,-0.150391,0.114562,0.015569,0.006132,0.999949,-0.009218,0.003588,-0.002015,-0.074512,-0.504137,0.238019,-0.826826
59303,NaN,11.207554,1.570129,0.694675,-5.429604,-2.954714,-0.307691,-1.738457,0.599654,-0.781093,-0.607910,0.624756,-0.144287,0.112156,0.015321,0.006476,0.999950,-0.008692,0.002998,-0.003905,-0.082834,-0.501915,0.243003,-0.825936
59304,NaN,10.558192,1.735490,0.767596,-4.977699,-2.775319,-0.724495,-1.722577,0.518335,-1.049397,-0.616211,0.624756,-0.134033,0.105690,0.016864,0.007255,0.999946,-0.008613,0.002592,-0.005247,-0.101839,-0.508369,0.241865,-0.820177
59305,NaN,9.564643,1.561927,0.846241,-4.411423,-2.460316,-1.498671,-1.717175,0.411839,-1.326378,-0.616211,0.620605,-0.127686,0.095765,0.015055,0.008134,0.999939,-0.008586,0.002059,-0.006632,-0.112135,-0.507379,0.245312,-0.818422
59306,NaN,8.640413,1.329151,0.889101,-3.735543,-1.947091,-2.101202,-1.720782,0.282453,-1.564754,-0.628662,0.614258,-0.119629,0.086517,0.012690,0.008658,0.999931,-0.008604,0.001412,-0.007824,-0.134325,-0.512558,0.245111,-0.811888
59307,NaN,7.798896,1.084452,1.015889,-3.137584,-1.659299,-2.711151,-1.691532,0.154979,-1.762255,-0.640869,0.603760,-0.109131,0.078089,0.010242,0.010010,0.999925,-0.008457,0.000775,-0.008811,-0.145994,-0.512915,0.247340,-0.808967
59308,NaN,7.222629,0.769062,1.244665,-2.416844,-1.329655,-2.979191,-1.598390,-0.010929,-1.936748,-0.659668,0.595215,-0.103027,0.072296,0.007090,0.012392,0.999921,-0.007992,-0.000055,-0.009683,-0.163208,-0.519731,0.244137,-0.802272
59309,NaN,7.041632,0.383797,1.619429,-1.804585,-1.120378,-2.895942,-1.425058,-0.181462,-2.094433,-0.659180,0.580322,-0.098633,0.070437,0.003216,0.016234,0.999919,-0.007125,-0.000907,-0.010472,-0.175078,-0.521812,0.244539,-0.798286
59310,NaN,7.315436,0.077687,1.886441,-1.321473,-0.875792,-2.425855,-1.212677,-0.301269,-2.243131,-0.679932,0.565430,-0.084229,0.073129,0.000071,0.018973,0.999918,-0.006063,-0.001506,-0.011215,-0.184992,-0.532862,0.234690,-0.791680
59311,NaN,7.420206,-0.125746,2.018061,-1.046190,-0.671576,-2.223210,-0.991273,-0.395540,-2.387771,-0.687988,0.552734,-0.083984,0.074141,-0.002042,0.020336,0.999914,-0.004956,-0.001978,-0.011939,-0.196605,-0.536267,0.232599,-0.787186
59312,NaN,7.576596,-0.207432,2.004191,-0.838545,-0.440032,-2.030327,-0.733071,-0.495124,-2.499654,-0.710693,0.538086,-0.069580,0.075683,-0.002947,0.020239,0.999912,-0.003665,-0.002476,-0.012498,-0.204367,-0.546405,0.221030,-0.781551
59313,NaN,7.871995,-0.154258,2.079109,-0.762923,-0.377133,-1.714102,-0.496030,-0.602159,-2.630921,-0.714355,0.523193,-0.063232,0.078628,-0.002525,0.021033,0.999906,-0.002480,-0.003011,-0.013154,-0.215318,-0.551107,0.216377,-0.776595
59314,NaN,8.210609,-0.251642,1.981606,-0.652420,-0.014473,-1.388084,-0.218029,-0.671979,-2.751230,-0.736572,0.493408,-0.056641,0.081994,-0.003623,0.020095,0.999899,-0.001090,-0.003360,-0.013756,-0.226884,-0.559071,0.205480,-0.770546
59315,NaN,8.351947,-0.608116,2.092050,-0.214204,0.381252,-1.192651,0.137591,-0.718419,-2.852925,-0.749023,0.480713,-0.054443,0.083345,-0.007285,0.021215,0.999892,0.000688,-0.003592,-0.014264,-0.236728,-0.564866,0.197770,-0.765358
59316,NaN,8.402174,-0.875925,2.163700,0.254832,0.766189,-1.130093,0.460478,-0.754846,-2.938228,-0.771484,0.457520,-0.047852,0.083798,-0.010042,0.021931,0.999882,0.002302,-0.003774,-0.014691,-0.245543,-0.574399,0.184081,-0.758873
59317,NaN,8.266209,-0.890335,2.258747,0.575200,0.874891,-1.261534,0.779344,-0.782843,-3.003009,-0.774902,0.434082,-0.049561,0.082426,-0.010231,0.022872,0.999872,0.003897,-0.003914,-0.015014,-0.253947,-0.581017,0.173439,-0.753558
59318,NaN,8.069957,-0.976570,2.389061,1.035484,1.061978,-1.471292,1.100173,-0.814217,-3.042868,-0.797119,0.404541,-0.053223,0.080439,-0.011123,0.024160,0.999861,0.005501,-0.004071,-0.015214,-0.262288,-0.590412,0.157511,-0.746866
59319,NaN,7.891091,-1.197108,2.611816,1.579724,1.266795,-1.663039,1.415164,-0.841645,-3.049990,-0.802979,0.387695,-0.044922,0.078604,-0.013357,0.026358,0.999850,0.007075,-0.004208,-0.015249,-0.268798,-0.597725,0.144305,-0.741383
59320,NaN,7.724817,-1.304827,2.833007,2.098904,1.437936,-1.880408,1.704438,-0.863525,-3.039192,-0.825195,0.357910,-0.044434,0.076913,-0.014461,0.028543,0.999839,0.008522,-0.004317,-0.015195,-0.273280,-0.607967,0.125102,-0.734876
59321,NaN,7.357745,-1.360936,2.981376,2.490731,1.508550,-2.303316,1.954904,-0.887011,-3.014478,-0.830566,0.330322,-0.048096,0.073225,-0.015007,0.029997,0.999829,0.009774,-0.004435,-0.015072,-0.277813,-0.615679,0.109950,-0.729157
59322,NaN,7.119294,-1.414713,3.109287,2.878780,1.654087,-2.648675,2.171459,-0.923787,-2.960153,-0.836182,0.304932,-0.043457,0.070826,-0.015536,0.031257,0.999821,0.010857,-0.004619,-0.014800,-0.282256,-0.625425,0.090999,-0.721730
59323,NaN,6.844181,-1.337329,3.191778,3.102914,1.659764,-2.998804,2.345087,-0.975088,-2.922337,-0.843994,0.285889,-0.049316,0.068077,-0.014745,0.032083,0.999813,0.011725,-0.004875,-0.014611,-0.284972,-0.633466,0.074761,-0.715488
59324,NaN,6.408381,-1.082787,3.236862,3.204904,1.511339,-3.475873,2.469863,-1.020038,-2.875650,-0.857666,0.249756,-0.034424,0.063750,-0.012147,0.032550,0.999807,0.012349,-0.005100,-0.014377,-0.285294,-0.642393,0.054959,-0.709167
59325,NaN,6.303464,-0.941525,3.351063,3.401660,1.487456,-3.643432,2.533352,-1.074708,-2.815506,-0.859131,0.232910,-0.042480,0.062709,-0.010726,0.033718,0.999806,0.012666,-0.005373,-0.014077,-0.286790,-0.650467,0.038459,-0.702257
59326,NaN,6.063506,-0.882095,3.429662,3.606478,1.507509,-3.979890,2.582010,-1.112033,-2.773779,-0.868652,0.203125,-0.037842,0.060309,-0.010104,0.034508,0.999805,0.012909,-0.005560,-0.013868,-0.287915,-0.658872,0.020825,-0.694665
59327,NaN,6.056175,-0.880278,3.740243,4.035889,1.550518,-4.090562,2.672558,-1.148909,-2.698336,-0.872070,0.177490,-0.031250,0.060215,-0.010119,0.037620,0.999803,0.013362,-0.005744,-0.013491,-0.288308,-0.666861,0.004307,-0.687136
59328,NaN,6.142540,-0.454337,4.273425,4.512728,1.228385,-3.954476,2.701213,-1.170716,-2.660933,-0.879639,0.154297,-0.026855,0.061101,-0.005938,0.043019,0.999803,0.013505,-0.005853,-0.013304,-0.287465,-0.674883,-0.014218,-0.679481
59329,NaN,6.308377,0.194688,4.561534,4.717888,0.835496,-3.674536,2.609470,-1.236537,-2.675239,-0.883057,0.126709,-0.016113,0.062813,0.000507,0.046017,0.999806,0.013047,-0.006182,-0.013375,-0.287782,-0.682514,-0.030327,-0.671146
59330,NaN,6.473951,0.825989,4.878315,4.993152,0.477273,-3.392040,2.468836,-1.260422,-2.673616,-0.884277,0.101074,-0.003418,0.064527,0.006790,0.049280,0.999815,0.012343,-0.006302,-0.013367,-0.288657,-0.689446,-0.046948,-0.662675
59331,NaN,7.118084,1.389235,4.827397,5.041462,0.510766,-2.726476,2.304113,-1.347465,-2.742510,-0.889893,0.077881,-0.002930,0.071029,0.012357,0.048901,0.999817,0.011520,-0.006737,-0.013712,-0.290065,-0.696466,-0.062079,-0.653409
59332,NaN,7.879898,1.518419,4.470068,4.975336,1.088791,-2.168713,2.178546,-1.364998,-2.803566,-0.893311,0.052246,0.009766,0.078689,0.013589,0.045392,0.999819,0.010892,-0.006825,-0.014017,-0.292783,-0.702376,-0.077160,-0.644199
59333,NaN,8.748520,2.138174,4.385808,5.101001,1.249410,-1.283322,2.093149,-1.420445,-2.912239,-0.890137,0.024658,0.020264,0.087464,0.019643,0.044691,0.999814,0.010465,-0.007102,-0.014560,-0.295307,-0.708762,-0.092033,-0.634019
59334,NaN,9.842045,3.068266,4.229896,5.164298,1.357846,-0.032915,1.880958,-1.477063,-2.877470,-0.891357,-0.000977,0.033203,0.098527,0.028861,0.043304,0.999825,0.009404,-0.007385,-0.014387,-0.299187,-0.713689,-0.106502,-0.624334
59335,NaN,11.091550,2.663179,4.349654,5.897499,2.542819,0.568687,1.506592,-1.537014,-2.749994,-0.890625,-0.026367,0.047852,0.110925,0.024774,0.044540,0.999848,0.007533,-0.007685,-0.013749,-0.303170,-0.719167,-0.118700,-0.613838
59336,NaN,12.714665,1.311894,4.639953,7.045100,4.645137,0.849670,1.092019,-1.612799,-2.609541,-0.889893,-0.047607,0.068604,0.126921,0.011205,0.047488,0.999867,0.005460,-0.008064,-0.013047,-0.309302,-0.722834,-0.128784,-0.604366
59337,NaN,14.161418,0.230307,5.567537,8.745790,6.220704,0.975868,0.675901,-1.611021,-2.452669,-0.891357,-0.062500,0.074951,0.141172,0.000379,0.056817,0.999887,0.003379,-0.008055,-0.012263,-0.315274,-0.727086,-0.137184,-0.594246
59338,NaN,15.510195,-0.884395,6.658959,10.552536,7.664563,0.937736,0.293311,-1.501377,-2.247659,-0.884277,-0.088135,0.089844,0.154483,-0.010681,0.067736,0.999908,0.001467,-0.007507,-0.011238,-0.323739,-0.728893,-0.142202,-0.586248
59339,NaN,16.404507,-2.154445,7.706430,12.238152,8.935625,0.361164,-0.031622,-1.268388,-1.939715,-0.881592,-0.100830,0.098145,0.163333,-0.023119,0.078105,0.999933,-0.000158,-0.006342,-0.009698,-0.330422,-0.731132,-0.147115,-0.578468
59340,NaN,16.694539,-2.854398,8.005143,12.876998,9.552227,-0.124200,-0.291742,-0.995084,-1.577241,-0.881104,-0.115723,0.106689,0.166313,-0.029740,0.080923,0.999955,-0.001459,-0.004975,-0.007886,-0.338226,-0.730653,-0.147905,-0.574347
59341,NaN,16.637344,-2.858831,7.919418,12.928702,9.577389,-0.388820,-0.512952,-0.732380,-1.186988,-0.883057,-0.120117,0.112793,0.165909,-0.029370,0.079877,0.999972,-0.002565,-0.003662,-0.005935,-0.344043,-0.730990,-0.149525,-0.570026
59342,NaN,16.482872,-3.018290,7.304497,12.415096,9.723377,-0.567670,-0.661420,-0.523204,-0.791221,-0.880859,-0.126465,0.117188,0.164516,-0.030591,0.073576,0.999983,-0.003307,-0.002616,-0.003956,-0.350771,-0.728857,-0.145800,-0.569622
59343,NaN,16.249625,-2.054683,6.912291,11.875109,9.006546,-0.121705,-0.704171,-0.356129,-0.414875,-0.874268,-0.130615,0.117188,0.162330,-0.020639,0.069485,0.999990,-0.003521,-0.001781,-0.002074,-0.354776,-0.728326,-0.144680,-0.568104
59344,NaN,16.162948,-1.265346,6.917711,11.702870,8.233306,0.480606,-0.734639,-0.237929,-0.065507,-0.878418,-0.135010,0.121338,0.161543,-0.012452,0.069415,0.999992,-0.003673,-0.001190,-0.000328,-0.359442,-0.725811,-0.137077,-0.570272
59345,NaN,16.291519,-0.802764,6.914141,11.660380,7.918284,0.920386,-0.780647,-0.151091,0.236981,-0.878662,-0.128662,0.123291,0.162872,-0.007564,0.069295,0.999991,-0.003903,-0.000755,0.001185,-0.361701,-0.724994,-0.133718,-0.570680
59346,NaN,16.030817,-0.670434,6.906294,11.481390,7.428760,1.055748,-0.829159,-0.041825,0.553090,-0.880615,-0.132812,0.123291,0.160311,-0.005975,0.069122,0.999988,-0.004146,-0.000209,0.002765,-0.365107,-0.721996,-0.122781,-0.574755
59347,NaN,15.789504,-0.745135,6.807236,11.300306,7.260719,0.947627,-0.838769,0.049226,0.797855,-0.885254,-0.115723,0.110840,0.157939,-0.006536,0.068062,0.999983,-0.004194,0.000246,0.003989,-0.365806,-0.720800,-0.117578,-0.576896
59348,NaN,15.316489,-1.057002,6.498888,10.842780,7.035010,0.717601,-0.788540,0.158802,0.975859,-0.885254,-0.115723,0.118896,0.153265,-0.009566,0.064906,0.999980,-0.003943,0.000794,0.004879,-0.367773,-0.717246,-0.104631,-0.582541
59349,NaN,15.020026,-1.579932,6.155470,10.516826,7.252120,0.325679,-0.676240,0.259832,1.122452,-0.887939,-0.100830,0.108398,0.150365,-0.014748,0.061410,0.999978,-0.003381,0.001299,0.005612,-0.366784,-0.715815,-0.099111,-0.585880
59350,NaN,14.458872,-1.934038,5.709881,9.921359,7.083409,0.025516,-0.520259,0.383672,1.231894,-0.888184,-0.092529,0.112305,0.144813,-0.018301,0.056870,0.999976,-0.002601,0.001918,0.006159,-0.366975,-0.711950,-0.085620,-0.592558
59351,NaN,13.798966,-2.091303,5.339954,9.350157,6.889456,-0.410227,-0.320306,0.499598,1.311456,-0.892822,-0.083984,0.108154,0.138255,-0.019922,0.053087,0.999974,-0.001602,0.002498,0.006557,-0.364005,-0.710423,-0.080917,-0.596868
59352,NaN,13.176719,-2.303816,4.965651,8.756872,6.623812,-0.700622,-0.068315,0.608286,1.400558,-0.901855,-0.066895,0.097656,0.132074,-0.022097,0.049263,0.999971,-0.000342,0.003041,0.007003,-0.361775,-0.706494,-0.068482,-0.604396
59353,NaN,12.662531,-2.226236,4.827312,8.349039,6.289841,-0.906144,0.211933,0.692222,1.479939,-0.897949,-0.054199,0.091309,0.126952,-0.021375,0.047811,0.999966,0.001060,0.003461,0.007400,-0.356303,-0.705266,-0.065145,-0.609429
59354,NaN,12.426233,-2.023397,4.734028,7.958863,5.827600,-0.668935,0.419683,0.794099,1.539656,-0.900635,-0.041260,0.086914,0.124600,-0.019374,0.046805,0.999960,0.002098,0.003970,0.007698,-0.351990,-0.701447,-0.052835,-0.617482
59355,NaN,12.339283,-1.829799,4.452481,7.466081,5.714697,-0.483889,0.548418,0.885817,1.592067,-0.903320,-0.024414,0.080566,0.123729,-0.017435,0.043929,0.999955,0.002742,0.004429,0.007960,-0.344899,-0.700063,-0.050501,-0.623222
59356,NaN,11.940123,-1.988879,4.195025,6.992857,5.543174,-0.620887,0.655228,0.990053,1.677944,-0.901611,-0.009521,0.070068,0.119769,-0.019021,0.041295,0.999947,0.003276,0.004950,0.008390,-0.339041,-0.695728,-0.039222,-0.632041
59357,NaN,11.785729,-2.275502,3.791041,6.527627,5.817911,-0.757842,0.823159,1.058748,1.824403,-0.908447,0.003418,0.067627,0.118257,-0.021832,0.037194,0.999936,0.004116,0.005294,0.009122,-0.330180,-0.694087,-0.037270,-0.638620
59358,NaN,11.484099,-2.256469,3.454582,5.916965,5.623681,-0.742480,0.978267,1.144664,1.907446,-0.907227,0.026855,0.051025,0.115245,-0.021633,0.033780,0.999926,0.004891,0.005723,0.009537,-0.321900,-0.689419,-0.027364,-0.648330
59359,NaN,11.416140,-1.708902,3.050353,5.127447,5.271666,-0.407034,1.131043,1.211502,2.032987,-0.907959,0.048096,0.044434,0.114510,-0.016096,0.029718,0.999914,0.005655,0.006057,0.010165,-0.311215,-0.687528,-0.025970,-0.655573
59360,NaN,11.169603,-1.529546,2.777368,4.508280,4.926829,-0.314846,1.219882,1.288593,2.138286,-0.912842,0.067139,0.027832,0.112028,-0.014265,0.026963,0.999903,0.006099,0.006443,0.010691,-0.301473,-0.682545,-0.015841,-0.665579
59361,NaN,10.587909,-1.145033,2.383841,3.718117,4.441786,-0.564012,1.260736,1.337646,2.207202,-0.909180,0.088379,0.015137,0.106154,-0.010427,0.023061,0.999897,0.006303,0.006688,0.011036,-0.289684,-0.680095,-0.014519,-0.673308
59362,NaN,10.176797,-0.908461,2.052808,3.010989,3.998955,-0.672493,1.258353,1.399637,2.265350,-0.907715,0.105469,-0.001465,0.102003,-0.008056,0.019762,0.999892,0.006292,0.006998,0.011326,-0.279260,-0.674260,-0.004366,-0.683643
59363,NaN,9.581144,-0.563427,1.817509,2.413217,3.466840,-1.005229,1.224002,1.454754,2.301455,-0.902100,0.126709,-0.020264,0.095997,-0.004639,0.017447,0.999889,0.006120,0.007273,0.011507,-0.267199,-0.670967,-0.002822,-0.691664
59364,NaN,9.127625,-0.323276,1.615770,1.849264,2.970195,-1.223044,1.187678,1.489922,2.368974,-0.906982,0.143799,-0.028809,0.091424,-0.002244,0.015462,0.999884,0.005938,0.007449,0.011844,-0.256933,-0.664052,0.007414,-0.702115
59365,NaN,8.585389,-0.027778,1.479891,1.408392,2.459533,-1.574828,1.111047,1.520038,2.432132,-0.897217,0.167236,-0.049561,0.085959,0.000687,0.014148,0.999882,0.005555,0.007600,0.012160,-0.244727,-0.659970,0.009635,-0.710251
59366,NaN,8.065844,0.139599,1.365096,0.991369,1.995545,-1.940483,1.027066,1.541755,2.495740,-0.895752,0.188477,-0.062256,0.080735,0.002335,0.013039,0.999879,0.005135,0.007708,0.012478,-0.233762,-0.652263,0.019334,-0.720788
59367,NaN,7.656041,0.238279,1.260056,0.694980,1.694221,-2.269336,0.936725,1.540757,2.559113,-0.892334,0.211914,-0.083008,0.076616,0.003306,0.012024,0.999877,0.004683,0.007703,0.012795,-0.221600,-0.647472,0.022501,-0.728812
59368,NaN,7.462901,0.298824,1.182585,0.379428,1.426768,-2.396549,0.859384,1.524608,2.642668,-0.886963,0.239502,-0.093750,0.074669,0.003925,0.011272,0.999874,0.004297,0.007623,0.013213,-0.210773,-0.639217,0.033019,-0.738841
59369,NaN,7.452736,0.342421,1.205255,0.214450,1.241847,-2.361458,0.774956,1.518937,2.728674,-0.879150,0.258545,-0.114502,0.074561,0.004396,0.011502,0.999871,0.003875,0.007594,0.013643,-0.198434,-0.633883,0.037271,-0.746610
59370,NaN,7.562451,0.372088,1.105488,-0.136053,1.077981,-2.238646,0.702471,1.516417,2.817102,-0.867188,0.283936,-0.133301,0.075643,0.004749,0.010497,0.999866,0.003512,0.007582,0.014085,-0.187378,-0.625100,0.048392,-0.756173
59371,NaN,7.577224,0.256747,0.962482,-0.408496,1.075423,-2.257661,0.648950,1.518984,2.870596,-0.851318,0.311523,-0.152100,0.075796,0.003625,0.009060,0.999863,0.003245,0.007595,0.014352,-0.174833,-0.619178,0.053481,-0.763670
59372,NaN,7.664319,0.343501,0.829799,-0.812162,0.846669,-2.185971,0.608754,1.514956,2.926461,-0.849854,0.330811,-0.162598,0.076642,0.004532,0.007730,0.999860,0.003044,0.007574,0.014632,-0.163725,-0.609859,0.064884,-0.772694
59373,NaN,7.486988,0.848324,0.798613,-1.145768,0.180727,-2.325220,0.534415,1.495836,2.920012,-0.829346,0.354004,-0.179443,0.074793,0.009555,0.007451,0.999862,0.002672,0.007479,0.014599,-0.151271,-0.603478,0.070489,-0.779719
59374,NaN,7.592127,1.517345,0.467258,-1.913559,-0.544460,-2.316165,0.434791,1.426574,2.946323,-0.821777,0.375244,-0.191895,0.075718,0.016281,0.004167,0.999864,0.002174,0.007133,0.014731,-0.140198,-0.594059,0.081862,-0.787868
59375,NaN,7.802180,1.676460,0.310692,-2.313249,-0.810897,-2.212220,0.346399,1.342147,2.923175,-0.807617,0.398682,-0.212646,0.077784,0.017898,0.002615,0.999869,0.001732,0.006710,0.014615,-0.128179,-0.587733,0.088228,-0.793950
59376,NaN,9.146863,2.068074,0.238655,-3.098224,-1.260710,-1.048923,0.280007,1.232263,2.895468,-0.795654,0.417725,-0.217041,0.091169,0.021999,0.001854,0.999875,0.001400,0.006161,0.014477,-0.117545,-0.578740,0.099601,-0.800826
59377,NaN,9.985299,2.757109,0.185987,-3.771439,-2.072367,-0.388474,0.126865,1.178680,2.823751,-0.770996,0.441162,-0.233643,0.099459,0.028976,0.001291,0.999883,0.000634,0.005893,0.014118,-0.106439,-0.572612,0.106560,-0.805873
59378,NaN,10.981890,3.092885,-0.188142,-4.770981,-2.497406,0.246862,-0.041100,1.105254,2.737496,-0.763184,0.460205,-0.242188,0.109369,0.032427,-0.002493,0.999891,-0.000205,0.005526,0.013687,-0.097082,-0.563997,0.118044,-0.811510
59379,NaN,11.385589,3.695848,-0.144685,-5.212457,-3.328537,0.436859,-0.269661,0.996884,2.669514,-0.744873,0.479248,-0.250732,0.113340,0.038471,-0.002064,0.999898,-0.001348,0.004984,0.013347,-0.087583,-0.558178,0.126170,-0.815382
59380,NaN,12.062712,4.797451,-0.484917,-6.304034,-4.527139,0.604311,-0.624783,0.869367,2.467464,-0.732910,0.500488,-0.250977,0.120000,0.049441,-0.005525,0.999910,-0.003124,0.004347,0.012337,-0.080549,-0.550626,0.138420,-0.819245
59381,NaN,12.406932,5.423078,-1.050986,-7.273642,-5.169276,0.424947,-1.128427,0.802205,2.300919,-0.716553,0.521484,-0.253418,0.123391,0.055591,-0.011317,0.999910,-0.005642,0.004011,0.011504,-0.074772,-0.545234,0.149041,-0.821533
59382,NaN,13.561300,6.751185,-1.237914,-8.512902,-6.588833,0.917033,-1.834772,0.641786,2.015545,-0.706543,0.538574,-0.243408,0.134882,0.068754,-0.013440,0.999902,-0.009174,0.003209,0.010077,-0.072440,-0.538821,0.164095,-0.823102
59383,NaN,13.371189,7.098471,-1.852458,-9.275444,-6.820814,0.189323,-2.498990,0.513669,1.994648,-0.694580,0.557617,-0.231445,0.132947,0.072071,-0.019763,0.999869,-0.012494,0.002568,0.009973,-0.071369,-0.534085,0.179545,-0.823058
59384,NaN,13.411012,7.825503,-1.983972,-9.881520,-7.497891,-0.264977,-2.992019,0.249871,1.371398,-0.690918,0.576660,-0.215332,0.133545,0.078862,-0.021184,0.999864,-0.014959,0.001249,0.006857,-0.074159,-0.529749,0.196819,-0.821662
59385,NaN,13.978114,7.064340,-2.164219,-10.233318,-6.774474,0.155044,-3.366712,0.026447,1.273871,-0.685059,0.593506,-0.197266,0.139326,0.071154,-0.022856,0.999838,-0.016833,0.000132,0.006369,-0.077851,-0.527042,0.213983,-0.818766
59386,NaN,13.539933,5.770596,-1.936573,-9.587580,-5.659999,0.006629,-3.520080,-0.190948,1.162693,-0.679199,0.606201,-0.174805,0.135081,0.058141,-0.020257,0.999828,-0.017599,-0.000955,0.005813,-0.082206,-0.524691,0.232240,-0.814866
59387,NaN,13.880766,5.062708,-1.489399,-9.231695,-5.268838,0.557396,-3.377803,-0.345736,0.702010,-0.677490,0.618896,-0.150635,0.138656,0.050855,-0.015512,0.999850,-0.016888,-0.001729,0.003510,-0.087788,-0.523806,0.247950,-0.810210
59388,NaN,13.944193,3.155567,-0.799366,-8.025664,-3.978914,1.358407,-3.170916,-0.288002,0.658975,-0.675781,0.631592,-0.134277,0.139349,0.031885,-0.008297,0.999868,-0.015854,-0.001440,0.003295,-0.093011,-0.522629,0.262929,-0.805653
59389,NaN,13.020559,2.732948,0.154207,-6.738146,-4.020096,0.932721,-2.893576,-0.375352,0.209472,-0.669189,0.627197,-0.113770,0.130174,0.027487,0.001389,0.999893,-0.014467,-0.001877,0.001047,-0.099220,-0.522453,0.275279,-0.800887
59390,NaN,13.450203,2.039480,0.695009,-6.212973,-3.801608,1.698055,-2.583194,-0.279992,-0.100056,-0.673584,0.633545,-0.095459,0.134503,0.020417,0.006875,0.999915,-0.012916,-0.001400,-0.000500,-0.105891,-0.522521,0.285542,-0.796382
59391,NaN,13.362538,0.796439,1.243009,-5.173628,-3.077451,2.208113,-2.214316,-0.142977,-0.359867,-0.673828,0.635498,-0.085449,0.133631,0.007862,0.012438,0.999937,-0.011071,-0.000715,-0.001799,-0.112893,-0.522388,0.293476,-0.792614
59392,NaN,13.404901,0.463973,1.712038,-4.645604,-3.053303,2.513421,-1.673861,-0.017994,-0.771416,-0.682129,0.631348,-0.079102,0.134064,0.004266,0.017096,0.999958,-0.008369,-0.000090,-0.003857,-0.120198,-0.522857,0.298009,-0.789534
59393,NaN,13.019475,0.471828,2.231417,-4.053882,-3.236236,2.344615,-1.065839,0.079913,-1.165675,-0.690430,0.625000,-0.066895,0.130229,0.004078,0.022239,0.999969,-0.005329,0.000400,-0.005828,-0.127697,-0.523610,0.299112,-0.787437
59394,NaN,13.210372,0.522191,2.326926,-3.202462,-4.027660,2.585706,-0.588613,0.132330,-1.585272,-0.700439,0.612305,-0.070801,0.132155,0.004243,0.023168,0.999964,-0.002943,0.000662,-0.007926,-0.047227,-0.555141,0.236657,-0.795979
59395,NaN,13.280308,1.025687,1.705921,-3.889348,-4.010124,2.398578,-0.189186,0.261642,-1.958962,-0.715088,0.603760,-0.062500,0.132917,0.008971,0.016876,0.999951,-0.000946,0.001308,-0.009795,-0.055850,-0.556334,0.231900,-0.795987
59396,NaN,12.683259,1.067669,1.203697,-3.214498,-4.264581,1.803122,0.214706,0.402487,-2.252264,-0.727051,0.582764,-0.070312,0.126966,0.009235,0.011792,0.999934,0.001074,0.002012,-0.011261,0.021959,-0.578621,0.162746,-0.798893
59397,NaN,11.710901,0.815206,0.704124,-3.328064,-3.406528,0.939858,0.586175,0.419790,-2.553806,-0.739014,0.563721,-0.086426,0.117215,0.006636,0.006816,0.999912,0.002931,0.002099,-0.012769,0.013117,-0.578897,0.153049,-0.800801
59398,NaN,10.936821,0.402411,0.355735,-2.755982,-3.094452,0.322552,0.990417,0.351788,-2.850194,-0.759521,0.542480,-0.088135,0.109417,0.002448,0.003380,0.999885,0.004952,0.001759,-0.014250,0.085418,-0.590987,0.081246,-0.798021
59399,NaN,10.325341,-0.014317,0.340195,-2.656268,-2.236210,-0.083179,1.435036,0.247543,-3.104127,-0.771240,0.514893,-0.097900,0.103238,-0.001769,0.003265,0.999853,0.007175,0.001238,-0.015520,0.077167,-0.590550,0.066444,-0.800550
59400,NaN,9.393322,0.207332,0.844109,-1.537175,-2.262399,-0.784983,1.784148,0.087471,-3.378157,-0.793701,0.487549,-0.105713,0.093953,0.000411,0.008409,0.999817,0.008920,0.000437,-0.016890,0.141321,-0.592719,-0.004665,-0.792900
59401,NaN,8.979002,0.547832,1.283851,-1.012320,-2.096946,-1.029817,1.976773,-0.139184,-3.580593,-0.805420,0.455811,-0.117676,0.089858,0.003742,0.012944,0.999791,0.009883,-0.000696,-0.017902,0.132960,-0.591657,-0.023206,-0.794811
59402,NaN,8.722764,-0.107549,2.034407,-0.309736,-0.985115,-0.915515,2.199158,-0.283978,-3.630469,-0.823242,0.419678,-0.119141,0.087157,-0.002883,0.020443,0.999774,0.010995,-0.001420,-0.018151,0.187626,-0.585625,-0.089807,-0.783437
59403,NaN,8.343184,-0.587854,3.051884,0.367681,0.246035,-0.921120,2.436036,-0.475739,-3.737082,-0.836914,0.390137,-0.124756,0.083225,-0.007808,0.030630,0.999748,0.012179,-0.002378,-0.018684,0.179869,-0.583370,-0.110711,-0.784264
59404,NaN,8.115993,-0.043095,3.969849,1.251790,0.697332,-0.892856,2.561812,-0.687859,-3.785980,-0.852539,0.349854,-0.124023,0.080989,-0.002476,0.039954,0.999733,0.012808,-0.003439,-0.018928,0.224329,-0.571370,-0.171380,-0.770611
59405,NaN,8.345324,1.103510,4.522483,2.099985,0.382056,-0.499100,2.476127,-0.902845,-3.797462,-0.868408,0.318115,-0.129883,0.083430,0.008887,0.045720,0.999733,0.012380,-0.004514,-0.018986,0.215948,-0.568657,-0.192731,-0.769968
59406,NaN,8.239283,0.972793,5.079915,2.195384,1.477067,-0.452114,2.384674,-1.018877,-3.660347,-0.882080,0.281982,-0.127197,0.082284,0.007611,0.051318,0.999748,0.011922,-0.005094,-0.018300,0.250504,-0.553443,-0.245090,-0.755565
59407,NaN,8.414649,1.149621,5.164606,2.138163,1.773653,-0.269754,2.208545,-1.166989,-3.624931,-0.889404,0.248047,-0.120605,0.084026,0.009398,0.052248,0.999758,0.011042,-0.005834,-0.018123,0.241442,-0.550502,-0.264861,-0.753990
59408,NaN,8.314999,1.285357,5.084321,1.825804,2.202527,-0.408316,2.018706,-1.305686,-3.562093,-0.900635,0.207764,-0.111572,0.083020,0.010856,0.051502,0.999769,0.010093,-0.006528,-0.017809,0.267017,-0.534101,-0.309504,-0.740030
59409,NaN,8.168592,1.532959,4.783720,1.672807,2.183956,-0.626895,1.804424,-1.420375,-3.467409,-0.912354,0.180176,-0.101074,0.081587,0.013479,0.048544,0.999784,0.009021,-0.007101,-0.017336,0.256762,-0.531459,-0.327265,-0.737917
59410,NaN,8.595704,1.264098,4.369444,0.736983,2.448350,-0.430481,1.598213,-1.501666,-3.383147,-0.915527,0.145996,-0.092285,0.085819,0.010835,0.044431,0.999797,0.007991,-0.007508,-0.016915,0.273932,-0.515716,-0.364090,-0.725560
59411,NaN,8.515607,1.228587,3.920860,0.306607,2.432577,-0.681682,1.378427,-1.538019,-3.347742,-0.925293,0.120605,-0.079590,0.085038,0.010588,0.039940,0.999807,0.006892,-0.007690,-0.016738,0.262500,-0.513207,-0.379754,-0.723532
59412,NaN,8.439686,0.703257,3.462906,-0.660972,2.631007,-1.075130,1.211606,-1.593869,-3.355343,-0.926025,0.084473,-0.062500,0.084217,0.005406,0.035337,0.999809,0.006058,-0.007969,-0.016776,0.273465,-0.497888,-0.411057,-0.712992
59413,NaN,8.762245,0.443475,3.134002,-1.319514,2.777728,-1.019049,1.060690,-1.619309,-3.313506,-0.929443,0.059082,-0.052002,0.087420,0.002816,0.032066,0.999816,0.005303,-0.008096,-0.016567,0.260927,-0.495303,-0.425220,-0.711182
59414,NaN,8.897578,0.622621,3.372397,-1.447402,3.115469,-0.917957,0.871599,-1.629893,-3.212066,-0.936768,0.022949,-0.032959,0.088780,0.004650,0.034471,0.999828,0.004358,-0.008149,-0.016059,0.266660,-0.481340,-0.451117,-0.702636
59415,NaN,9.115626,0.727819,3.388897,-1.616074,3.371677,-0.806094,0.637123,-1.650316,-3.219496,-0.935791,-0.004883,-0.018066,0.090973,0.005703,0.034660,0.999831,0.003185,-0.008251,-0.016097,0.253128,-0.478941,-0.463224,-0.701403
59416,NaN,9.456275,0.872285,3.568976,-1.885859,3.695087,-0.555275,0.350465,-1.608850,-3.088178,-0.932861,-0.030273,-0.003418,0.094391,0.007201,0.036463,0.999847,0.001752,-0.008044,-0.015440,0.253974,-0.466872,-0.483657,-0.695416
59417,NaN,9.353929,0.697715,3.508418,-2.165788,3.950136,-0.869007,0.060882,-1.532808,-2.930981,-0.931885,-0.057861,0.007324,0.093356,0.005597,0.035802,0.999863,0.000304,-0.007664,-0.014654,0.240196,-0.464967,-0.492588,-0.695319
59418,NaN,9.219887,0.485970,3.623957,-2.517109,4.261727,-1.217900,-0.223400,-1.456716,-2.853147,-0.930908,-0.083496,0.026123,0.091989,0.003587,0.036906,0.999871,-0.001117,-0.007283,-0.014265,0.238600,-0.454160,-0.508292,-0.691699
59419,NaN,9.324653,0.116216,3.511917,-3.026495,4.514543,-1.461086,-0.493089,-1.387999,-2.716228,-0.934326,-0.108887,0.030762,0.093005,-0.000014,0.035764,0.999881,-0.002465,-0.006940,-0.013581,0.224543,-0.452587,-0.514347,-0.692960
59420,NaN,9.188314,-0.334483,3.449002,-3.583491,4.681717,-1.959833,-0.679640,-1.315674,-2.608007,-0.924805,-0.136719,0.047607,0.091601,-0.004422,0.035107,0.999888,-0.003398,-0.006578,-0.013040,0.221341,-0.442976,-0.526060,-0.691405
59421,NaN,9.356352,-0.672576,3.400439,-4.035516,4.958655,-2.152529,-0.750961,-1.248132,-2.450987,-0.924316,-0.155762,0.053955,0.093258,-0.007741,0.034615,0.999898,-0.003755,-0.006240,-0.012255,0.207912,-0.441626,-0.530217,-0.693260
59422,NaN,9.358863,-0.742090,3.588378,-4.216142,5.214113,-2.326129,-0.794454,-1.151342,-2.237215,-0.913086,-0.172852,0.066650,0.093290,-0.008322,0.036453,0.999913,-0.003972,-0.005757,-0.011186,0.204080,-0.433731,-0.538816,-0.692753
59423,NaN,8.843857,-1.072817,3.642391,-4.219021,5.424367,-3.074386,-0.711879,-1.050309,-2.054212,-0.908203,-0.189941,0.071045,0.088130,-0.011504,0.036927,0.999927,-0.003559,-0.005251,-0.010271,0.192589,-0.432525,-0.541834,-0.694440
59424,NaN,8.721863,-1.618366,4.019695,-4.563128,5.960079,-3.607801,-0.614678,-0.971193,-1.826893,-0.909668,-0.211182,0.081543,0.086870,-0.016854,0.040670,0.999942,-0.003073,-0.004856,-0.009134,0.189633,-0.425800,-0.548799,-0.693941
59425,NaN,8.803127,-1.809415,4.459839,-4.600315,6.558768,-3.773117,-0.466546,-0.936543,-1.669908,-0.905029,-0.223877,0.085938,0.087666,-0.018722,0.045053,0.999951,-0.002333,-0.004683,-0.008349,0.180280,-0.424884,-0.551594,-0.694778
59426,NaN,9.016239,-1.265942,4.814855,-4.323159,6.782445,-3.379590,-0.348610,-0.880350,-1.466555,-0.906738,-0.232422,0.096436,0.089854,-0.013235,0.048567,0.999962,-0.001743,-0.004402,-0.007333,0.178118,-0.419430,-0.557631,-0.693830
59427,NaN,9.346227,-1.589940,5.184720,-4.618028,7.393257,-3.427305,-0.287500,-0.765910,-1.253963,-0.897949,-0.243164,0.102783,0.093161,-0.016409,0.052228,0.999972,-0.001437,-0.003830,-0.006270,0.171038,-0.418831,-0.559927,-0.694124
59428,NaN,9.534313,-1.662124,5.448779,-4.790748,7.715928,-3.419973,-0.205135,-0.681388,-1.099971,-0.895508,-0.255859,0.104980,0.095064,-0.017088,0.054829,0.999979,-0.001026,-0.003407,-0.005500,0.169910,-0.414371,-0.564698,-0.693213
59429,NaN,9.953354,-1.641327,5.580603,-4.983762,8.003481,-3.178559,-0.120697,-0.593766,-0.918930,-0.893066,-0.264404,0.111328,0.099291,-0.016836,0.056111,0.999985,-0.000603,-0.002969,-0.004595,0.164810,-0.413927,-0.566676,-0.693095
59430,NaN,10.184859,-1.602138,5.701225,-5.152383,8.157128,-3.051360,-0.051089,-0.494249,-0.763670,-0.896973,-0.270752,0.119629,0.101645,-0.016395,0.057268,0.999990,-0.000255,-0.002471,-0.003818,0.165014,-0.410135,-0.570596,-0.692084
59431,NaN,10.369337,-1.445176,5.698060,-5.164589,8.207305,-2.881154,0.002375,-0.419649,-0.606459,-0.888428,-0.272949,0.115479,0.103529,-0.014767,0.057198,0.999993,0.000012,-0.002098,-0.003032,0.161736,-0.409848,-0.572187,-0.691714
59432,NaN,10.499717,-1.440867,5.770378,-5.297249,8.290911,-2.825766,0.022113,-0.313346,-0.408124,-0.888428,-0.277100,0.119629,0.104877,-0.014629,0.057867,0.999997,0.000111,-0.001567,-0.002041,0.163091,-0.406992,-0.574938,-0.690800
59433,NaN,10.494886,-1.314527,5.778581,-5.205557,8.292552,-2.784300,0.050521,-0.234329,-0.236344,-0.888184,-0.279297,0.117676,0.104865,-0.013284,0.057905,0.999999,0.000253,-0.001172,-0.001182,0.161718,-0.407076,-0.575781,-0.690372
59434,NaN,10.595448,-1.082682,5.748956,-5.195312,8.184245,-2.566100,0.043645,-0.158208,-0.071858,-0.890625,-0.275146,0.119629,0.105905,-0.010877,0.057571,1.000000,0.000218,-0.000791,-0.000359,0.164859,-0.404501,-0.577766,-0.689483
59435,NaN,10.746884,-0.804909,5.673564,-5.115458,8.083473,-2.274633,0.029925,-0.088011,0.090033,-0.888428,-0.277100,0.125732,0.107447,-0.008009,0.056782,1.000000,0.000150,-0.000440,0.000450,0.164990,-0.405035,-0.577757,-0.689146
59436,NaN,10.994902,-0.477798,5.583402,-5.111108,7.922210,-1.849922,-0.004680,-0.030917,0.270379,-0.892578,-0.279297,0.119629,0.109947,-0.004628,0.055851,0.999999,-0.000023,-0.000155,0.001352,0.168649,-0.403888,-0.578211,-0.688552
59437,NaN,11.314133,-0.239311,5.465525,-5.154844,7.811337,-1.425244,-0.058732,0.011343,0.440194,-0.896973,-0.272949,0.121582,0.113149,-0.002128,0.054649,0.999998,-0.000294,0.000057,0.002201,0.170093,-0.405166,-0.577106,-0.688374
59438,NaN,11.735585,0.120779,5.447561,-5.165150,7.731273,-0.814766,-0.099564,0.042447,0.619980,-0.890869,-0.268799,0.123535,0.117363,0.001599,0.054450,0.999995,-0.000498,0.000212,0.003100,0.174563,-0.405236,-0.576197,-0.687975
59439,NaN,12.442402,0.306963,5.591760,-5.353417,7.944065,-0.096347,-0.108491,0.064893,0.768128,-0.897461,-0.258057,0.121338,0.124429,0.003578,0.055875,0.999992,-0.000542,0.000324,0.003841,0.177186,-0.407313,-0.574203,-0.687745
59440,NaN,13.601290,0.475781,5.828847,-5.783713,8.311220,0.988598,-0.088862,0.101936,0.919572,-0.899658,-0.253662,0.115234,0.136019,0.005409,0.058217,0.999989,-0.000444,0.000510,0.004598,0.181573,-0.409176,-0.571897,-0.687415
59441,NaN,14.529528,0.588757,5.875022,-6.146551,8.466936,1.870567,-0.099810,0.163137,1.062391,-0.906494,-0.245117,0.110840,0.145309,0.006689,0.058628,0.999985,-0.000499,0.000816,0.005312,0.185500,-0.411734,-0.569220,-0.687061
59442,NaN,15.224688,0.527110,5.712840,-6.579010,8.358486,2.498071,-0.100228,0.233849,1.197319,-0.904785,-0.232422,0.112793,0.152278,0.006211,0.056947,0.999981,-0.000501,0.001169,0.005987,0.192074,-0.413206,-0.566604,-0.686534
59443,NaN,15.744064,0.319406,5.480010,-6.988627,8.207630,2.907286,-0.070726,0.335576,1.371090,-0.911621,-0.215576,0.108398,0.157505,0.004293,0.054534,0.999975,-0.000354,0.001678,0.006855,0.197595,-0.415991,-0.563188,-0.686095
59444,NaN,15.595703,0.024521,5.300226,-7.054532,7.943643,2.774842,-0.014217,0.460678,1.513141,-0.918213,-0.207031,0.105957,0.156071,0.001429,0.052643,0.999969,-0.000071,0.002303,0.007566,0.205192,-0.418228,-0.559400,-0.685605
59445,NaN,15.215817,-0.092139,5.132177,-6.845618,7.607054,2.562006,0.083503,0.589851,1.676163,-0.921143,-0.187744,0.097656,0.152309,0.000333,0.050873,0.999960,0.000418,0.002949,0.008381,0.212769,-0.420787,-0.555549,-0.684860
59446,NaN,14.731330,-0.308106,4.916067,-6.670202,7.195622,2.228870,0.230419,0.724001,1.888126,-0.925781,-0.172852,0.095215,0.147511,-0.001745,0.048624,0.999948,0.001152,0.003620,0.009440,0.222611,-0.423081,-0.551248,-0.683793
59447,NaN,14.206214,-0.472552,4.612942,-6.464046,6.693297,1.880348,0.368480,0.824099,2.087691,-0.930664,-0.151611,0.080566,0.142290,-0.003325,0.045536,0.999935,0.001842,0.004120,0.010438,0.232801,-0.425575,-0.547134,-0.682154
59448,NaN,14.000551,-0.535625,4.140077,-6.394542,6.017071,1.863707,0.539643,0.913309,2.290092,-0.935547,-0.132568,0.073975,0.140243,-0.003862,0.040749,0.999920,0.002698,0.004566,0.011450,0.245068,-0.427926,-0.542595,-0.680008
59449,NaN,14.009895,-0.577707,3.770586,-6.371742,5.464581,2.034537,0.751962,1.019153,2.512525,-0.936279,-0.115479,0.057373,0.140348,-0.004155,0.036973,0.999901,0.003760,0.005096,0.012562,0.257976,-0.430309,-0.538468,-0.677005
59450,NaN,13.833489,-0.506579,3.353103,-6.157294,4.756571,2.116933,1.014327,1.137058,2.730371,-0.945557,-0.087646,0.052734,0.138576,-0.003342,0.032724,0.999878,0.005071,0.005685,0.013651,0.273823,-0.431858,-0.534405,-0.673001
59451,NaN,13.540381,-0.342197,2.963529,-5.773406,4.055819,2.122390,1.296856,1.262642,2.944859,-0.942383,-0.058105,0.035889,0.135620,-0.001614,0.028765,0.999851,0.006484,0.006313,0.014724,0.289881,-0.433633,-0.530595,-0.668132
59452,NaN,13.286796,-0.059946,2.508896,-5.293059,3.227752,2.203447,1.569480,1.368827,3.136921,-0.945557,-0.030273,0.035400,0.133025,0.001294,0.024184,0.999823,0.007847,0.006844,0.015684,0.308587,-0.434553,-0.526763,-0.662162
59453,NaN,13.150985,0.312405,2.139603,-4.729498,2.494022,2.394681,1.813013,1.469554,3.274628,-0.942139,-0.002686,0.008301,0.131590,0.005090,0.020469,0.999798,0.009064,0.007347,0.016372,0.327191,-0.435422,-0.523269,-0.655396
59454,NaN,13.154775,0.628746,1.786932,-4.213109,1.780385,2.665262,2.023704,1.583813,3.397352,-0.949707,0.029297,-0.000488,0.131554,0.008348,0.016905,0.999773,0.010118,0.007918,0.016985,0.347140,-0.435944,-0.519022,-0.648123
59455,NaN,13.050962,0.937337,1.592245,-3.599243,1.236329,2.806348,2.169939,1.701770,3.511443,-0.937988,0.063232,-0.025391,0.130450,0.011499,0.014929,0.999751,0.010849,0.008508,0.017556,0.367593,-0.435662,-0.515308,-0.639946
59456,NaN,12.640284,1.492830,1.560286,-2.581694,0.804253,2.721659,2.242739,1.829216,3.600421,-0.941162,0.090820,-0.044434,0.126246,0.017034,0.014631,0.999733,0.011213,0.009145,0.018001,0.389428,-0.434654,-0.510685,-0.631365
59457,NaN,12.052402,2.013017,1.633194,-1.529231,0.552335,2.406953,2.190798,1.925778,3.651944,-0.937988,0.125000,-0.065430,0.120283,0.022156,0.015408,0.999727,0.010953,0.009628,0.018258,0.410544,-0.433510,-0.505766,-0.622675
59458,NaN,11.273246,2.337597,1.857983,-0.599527,0.527846,1.821312,2.033461,1.998305,3.660711,-0.930420,0.150391,-0.086182,0.112461,0.025253,0.017706,0.999731,0.010166,0.009991,0.018302,0.432368,-0.431790,-0.499672,-0.613957
59459,NaN,10.424058,2.405298,2.110429,0.041661,0.642845,1.071872,1.798443,1.994403,3.572869,-0.923096,0.182373,-0.113281,0.103996,0.025727,0.020293,0.999750,0.008991,0.009971,0.017863,0.452108,-0.430593,-0.493032,-0.605893
59460,NaN,10.295867,2.747852,2.302958,0.742529,0.607118,1.046785,1.461859,1.998729,3.447698,-0.913330,0.209961,-0.134277,0.102691,0.029086,0.022211,0.999775,0.007309,0.009993,0.017237,0.471529,-0.429175,-0.485147,-0.598416
59461,NaN,10.189024,2.547492,2.336113,0.878944,0.481297,0.899363,1.102979,2.039520,3.354557,-0.901367,0.231201,-0.155029,0.101677,0.027056,0.022470,0.999792,0.005515,0.010197,0.016772,0.488797,-0.428515,-0.476328,-0.592084
59462,NaN,9.821994,2.303893,2.194576,1.002470,0.217084,0.460236,0.772967,2.018297,3.292633,-0.889648,0.258789,-0.169678,0.098039,0.024572,0.021049,0.999806,0.003865,0.010091,0.016462,0.505974,-0.427853,-0.466358,-0.586040
59463,NaN,9.726802,2.444022,2.158267,1.454535,0.005329,0.341903,0.407660,1.965669,3.233390,-0.879883,0.284180,-0.188477,0.097063,0.025968,0.020680,0.999819,0.002038,0.009828,0.016166,0.520827,-0.428519,-0.455566,-0.581008
59464,NaN,9.620654,2.315781,2.074553,1.644865,-0.245436,0.159635,-0.010411,1.878947,3.167427,-0.870361,0.313965,-0.203369,0.096013,0.024681,0.019842,0.999830,-0.000052,0.009394,0.015836,0.534064,-0.430583,-0.442798,-0.577325
59465,NaN,9.758704,1.841116,1.827652,1.463099,-0.680700,0.154627,-0.366188,1.783496,3.142302,-0.858643,0.341553,-0.222168,0.097439,0.019975,0.017372,0.999835,-0.001831,0.008917,0.015711,0.546222,-0.433293,-0.430127,-0.573489
59466,NaN,9.871244,1.515757,1.647524,1.443963,-1.064759,0.148425,-0.644162,1.686647,3.070273,-0.848877,0.364990,-0.234863,0.098598,0.016723,0.015591,0.999841,-0.003221,0.008433,0.015351,0.556902,-0.437142,-0.415909,-0.570778
59467,NaN,10.086652,1.597542,1.519105,1.832700,-1.423365,0.247354,-0.934172,1.577980,3.044739,-0.828857,0.396729,-0.241455,0.100722,0.017578,0.014316,0.999842,-0.004671,0.007889,0.015223,0.566758,-0.441496,-0.402114,-0.567601
59468,NaN,10.027714,1.512346,1.150502,2.039292,-1.935585,-0.001962,-1.150430,1.467575,2.964746,-0.814697,0.417969,-0.245850,0.100118,0.016671,0.010677,0.999847,-0.005752,0.007337,0.014823,0.575378,-0.446710,-0.387194,-0.565217
59469,NaN,10.072825,1.656666,0.820090,2.460277,-2.426148,-0.172674,-1.409649,1.359699,2.891733,-0.805176,0.447510,-0.248291,0.100526,0.018075,0.007393,0.999848,-0.007048,0.006798,0.014458,0.582961,-0.452447,-0.372766,-0.562577
59470,NaN,10.378074,1.976920,0.266070,3.047378,-3.228125,-0.222788,-1.677496,1.257177,2.846654,-0.782715,0.475098,-0.250732,0.103498,0.021261,0.001835,0.999844,-0.008387,0.006286,0.014233,0.589200,-0.459305,-0.356992,-0.560749
59471,NaN,10.401644,1.740422,-0.199408,3.039581,-3.805755,-0.456854,-1.885536,1.080089,2.744914,-0.769043,0.506836,-0.253174,0.103751,0.018806,-0.002728,0.999847,-0.009427,0.005400,0.013724,0.594418,-0.466654,-0.342150,-0.558422
59472,NaN,11.305515,1.540362,-1.139010,3.112694,-5.129736,-0.041635,-1.907964,0.939857,2.653907,-0.752686,0.528076,-0.247559,0.112783,0.016788,-0.012076,0.999855,-0.009539,0.004699,0.013269,0.598702,-0.474376,-0.326971,-0.556430
59473,NaN,13.064828,0.938715,-1.682930,3.003695,-6.345253,1.372563,-1.771602,0.792677,2.541808,-0.742920,0.551514,-0.249756,0.130448,0.010893,-0.017439,0.999872,-0.008858,0.003963,0.012708,0.602805,-0.481562,-0.313583,-0.553526
59474,NaN,14.672892,1.387506,-2.975941,3.814457,-8.299387,2.130303,-1.444689,0.689104,2.504182,-0.724609,0.568359,-0.241943,0.146438,0.015492,-0.030372,0.999890,-0.007223,0.003445,0.012520,0.607097,-0.488045,-0.300732,-0.550277
59475,NaN,16.719497,1.130713,-3.506570,4.205998,-9.660377,3.681414,-0.793384,0.742693,2.275842,-0.712646,0.595947,-0.250488,0.166921,0.013067,-0.035735,0.999920,-0.003967,0.003713,0.011379,0.612505,-0.491787,-0.290701,-0.546330
59476,NaN,18.082653,1.086729,-3.720996,4.753594,-10.532533,4.625570,-0.337011,0.862004,2.219328,-0.698486,0.612793,-0.250732,0.180529,0.012808,-0.038009,0.999928,-0.001685,0.004310,0.011096,0.618824,-0.493779,-0.281119,-0.542412
59477,NaN,18.361128,2.283237,-3.498432,6.315319,-10.690767,4.343301,-0.181085,1.002279,2.093969,-0.681885,0.623291,-0.260986,0.183181,0.024720,-0.035925,0.999932,-0.000905,0.005011,0.010470,0.625436,-0.494524,-0.272320,-0.538625
59478,NaN,17.569610,3.686010,-2.929025,7.808494,-10.122251,3.126021,-0.203684,1.108324,2.001505,-0.672119,0.646729,-0.263428,0.175150,0.038584,-0.030301,0.999934,-0.001018,0.005541,0.010007,0.631722,-0.494962,-0.262996,-0.535512
59479,NaN,16.825220,4.612842,-2.277956,8.829238,-9.442108,2.121867,-0.336589,1.140102,1.925550,-0.653320,0.650879,-0.271729,0.167664,0.047705,-0.023816,0.999936,-0.001683,0.005700,0.009628,0.637517,-0.495466,-0.253694,-0.532659
59480,NaN,16.439479,5.120608,-1.516005,9.546500,-8.785419,1.608507,-0.557829,1.165653,1.857585,-0.638916,0.669922,-0.273926,0.163817,0.052685,-0.016262,0.999936,-0.002789,0.005828,0.009288,0.642459,-0.496552,-0.243712,-0.530366
59481,NaN,15.425103,5.929727,-0.710844,10.314533,-7.830523,0.477279,-0.719498,1.192996,1.684738,-0.620117,0.676270,-0.271973,0.153697,0.060565,-0.008243,0.999940,-0.003597,0.005965,0.008424,0.646568,-0.497716,-0.233756,-0.528760
59482,NaN,13.763770,6.466799,-0.173098,10.497391,-6.794620,-1.156983,-0.860735,1.168837,1.373610,-0.610107,0.688965,-0.278320,0.137175,0.065601,-0.002815,0.999950,-0.004304,0.005844,0.006868,0.649377,-0.499039,-0.224300,-0.528165
59483,NaN,12.277698,6.462178,0.199376,10.146023,-5.933736,-2.438062,-0.979659,1.092967,1.112197,-0.600098,0.708008,-0.276367,0.122422,0.065310,0.001005,0.999958,-0.004898,0.005465,0.005561,0.651081,-0.500553,-0.215361,-0.528357
59484,NaN,11.064791,6.142052,0.586365,9.570250,-5.137435,-3.292556,-1.017738,0.951181,0.772218,-0.589844,0.716553,-0.272461,0.110435,0.061874,0.005024,0.999968,-0.005089,0.004756,0.003861,0.651606,-0.502182,-0.207828,-0.529179
59485,NaN,10.505274,5.151243,0.952916,8.594211,-4.607940,-3.277492,-1.021045,0.785372,0.424817,-0.587891,0.720703,-0.268555,0.104979,0.051782,0.008853,0.999977,-0.005105,0.003927,0.002124,0.650979,-0.503853,-0.201478,-0.530815
59486,NaN,10.393371,4.202126,1.163332,7.757964,-4.402191,-2.923050,-1.076520,0.597523,-0.044040,-0.589844,0.720703,-0.266357,0.103977,0.042059,0.011096,0.999981,-0.005383,0.002988,-0.000220,0.648777,-0.505716,-0.197093,-0.533381
59487,NaN,10.425287,2.957573,1.024792,6.583659,-4.526138,-2.419933,-1.184901,0.458573,-0.518023,-0.589844,0.718506,-0.258301,0.104352,0.029365,0.009834,0.999976,-0.005924,0.002293,-0.002590,0.644848,-0.507806,-0.193732,-0.537375
59488,NaN,10.313932,1.302930,0.940144,4.978934,-4.442241,-1.785571,-1.266964,0.321222,-0.926561,-0.598389,0.720703,-0.252197,0.103213,0.012610,0.009155,0.999968,-0.006335,0.001606,-0.004633,0.639485,-0.510097,-0.192054,-0.542194
59489,NaN,9.886836,-0.201674,1.110139,3.446567,-3.939969,-1.349885,-1.191955,0.166425,-1.443708,-0.602539,0.716553,-0.250000,0.098860,-0.002664,0.011034,0.999956,-0.005960,0.000832,-0.007218,0.632675,-0.512040,-0.191946,-0.548355
59490,NaN,9.183857,-0.762361,1.428316,2.681345,-3.219708,-1.481670,-0.998598,0.008561,-2.043321,-0.625244,0.703857,-0.235596,0.091755,-0.008490,0.014320,0.999935,-0.004993,0.000043,-0.010216,0.624569,-0.513146,-0.194905,-0.555524
59491,NaN,8.418793,-0.573766,1.810005,2.568260,-2.497545,-1.961312,-0.787805,-0.112152,-2.630336,-0.641846,0.688965,-0.233398,0.084093,-0.006773,0.018173,0.999906,-0.003939,-0.000561,-0.013151,0.615085,-0.513298,-0.199780,-0.564166
59492,NaN,7.543915,-0.142956,1.919665,2.550336,-1.984343,-2.729600,-0.607696,-0.222002,-3.134129,-0.664307,0.667725,-0.224854,0.075384,-0.002553,0.019287,0.999872,-0.003038,-0.001110,-0.015670,0.604475,-0.512550,-0.207318,-0.573517
59493,NaN,6.821507,0.366272,1.973019,2.645125,-1.625165,-3.415999,-0.507628,-0.359332,-3.514019,-0.682861,0.650879,-0.218506,0.068230,0.002514,0.019845,0.999841,-0.002538,-0.001797,-0.017569,0.592642,-0.511383,-0.215904,-0.583651
59494,NaN,6.572387,0.965593,2.104488,2.979071,-1.448517,-3.682460,-0.553701,-0.507755,-3.767537,-0.709473,0.623291,-0.209961,0.065837,0.008475,0.021187,0.999816,-0.002768,-0.002539,-0.018837,0.579679,-0.510268,-0.225972,-0.593747
59495,NaN,6.189960,1.174593,2.405278,3.002271,-0.994504,-3.856741,-0.682175,-0.712130,-4.015241,-0.740234,0.593750,-0.199463,0.062034,0.010584,0.024236,0.999786,-0.003411,-0.003560,-0.020075,0.565104,-0.509705,-0.236190,-0.604212
59496,NaN,6.445015,0.761655,2.697544,2.556378,-0.654779,-3.299179,-0.828282,-0.923965,-4.238204,-0.766846,0.566162,-0.186768,0.064468,0.006363,0.027245,0.999756,-0.004141,-0.004619,-0.021189,0.549066,-0.509598,-0.247649,-0.614415
59497,NaN,6.491340,0.669573,2.948216,2.351330,-0.312727,-3.056552,-0.964868,-1.103952,-4.404282,-0.791016,0.532227,-0.174072,0.064878,0.005410,0.029812,0.999731,-0.004824,-0.005519,-0.022019,0.531578,-0.510040,-0.258856,-0.624722
59498,NaN,6.682231,1.024750,3.236037,2.579260,-0.101118,-2.776706,-1.074362,-1.254946,-4.528723,-0.811035,0.502686,-0.151123,0.066830,0.008909,0.032729,0.999710,-0.005371,-0.006274,-0.022641,0.513018,-0.510659,-0.270923,-0.634539
59499,NaN,7.087468,1.062850,3.359721,2.452139,-0.000099,-2.287456,-1.142270,-1.383218,-4.591910,-0.835205,0.464355,-0.136230,0.070862,0.009195,0.034032,0.999696,-0.005711,-0.006915,-0.022957,0.493520,-0.511594,-0.282474,-0.644141
59500,NaN,7.162861,0.858964,3.563749,2.102217,0.414121,-2.057315,-1.122700,-1.478652,-4.694274,-0.861572,0.428467,-0.119385,0.071541,0.007112,0.036124,0.999681,-0.005613,-0.007392,-0.023469,0.473380,-0.512149,-0.295034,-0.653123
59501,NaN,7.675652,0.856123,3.876219,1.961884,0.737225,-1.429891,-1.078863,-1.558566,-4.792469,-0.881348,0.390137,-0.106445,0.076631,0.006935,0.039319,0.999668,-0.005394,-0.007792,-0.023960,0.452527,-0.512545,-0.307360,-0.661851
59502,NaN,8.613984,0.738734,4.074372,1.597538,0.949625,-0.438250,-1.098656,-1.603107,-4.832385,-0.901123,0.349854,-0.081299,0.085958,0.005535,0.041399,0.999661,-0.005493,-0.008015,-0.024159,0.431204,-0.512505,-0.320228,-0.669967
59503,NaN,9.222212,0.384356,3.906452,0.851800,1.093711,0.113027,-1.105433,-1.589410,-4.892938,-0.920898,0.305420,-0.060303,0.091969,0.001810,0.039782,0.999654,-0.005527,-0.007946,-0.024462,0.409304,-0.512193,-0.332366,-0.677983
59504,NaN,9.162531,-0.420787,3.450896,-0.362129,1.394981,-0.120237,-0.988448,-1.550018,-4.968289,-0.929688,0.256592,-0.051270,0.091215,-0.006304,0.035245,0.999649,-0.004942,-0.007749,-0.024839,0.387286,-0.510781,-0.345352,-0.685452
59505,NaN,9.265611,-0.839824,3.014243,-1.243988,1.530669,-0.234938,-0.778793,-1.502209,-5.037919,-0.945557,0.220459,-0.034424,0.092177,-0.010605,0.030874,0.999647,-0.003894,-0.007510,-0.025187,0.365318,-0.508551,-0.358324,-0.692476
59506,NaN,9.451481,-0.858790,2.712836,-1.753956,1.609658,-0.234601,-0.549350,-1.478334,-5.085873,-0.952148,0.169434,-0.015137,0.094053,-0.010908,0.027853,0.999646,-0.002746,-0.007391,-0.025426,0.343623,-0.505097,-0.372445,-0.698631
59507,NaN,10.130791,-0.722312,2.348769,-2.305598,1.529463,0.236805,-0.385467,-1.446172,-5.133420,-0.963379,0.124756,-0.004150,0.100905,-0.009770,0.024236,0.999643,-0.001927,-0.007230,-0.025664,0.321920,-0.501064,-0.386403,-0.704269
59508,NaN,10.576005,-0.724783,2.143447,-2.889437,1.717676,0.465749,-0.210011,-1.389704,-5.101681,-0.968018,0.071777,0.010986,0.105377,-0.009916,0.022177,0.999650,-0.001050,-0.006948,-0.025505,0.300706,-0.495978,-0.401006,-0.709067
59509,NaN,10.917597,-0.740506,2.188694,-3.351359,2.154052,0.610058,-0.062713,-1.328012,-5.066770,-0.964355,0.027100,0.021973,0.108793,-0.010158,0.022613,0.999657,-0.000314,-0.006639,-0.025331,0.279840,-0.490445,-0.415197,-0.713277
59510,NaN,11.434969,-1.056681,2.257420,-4.127104,2.784535,0.777613,0.066653,-1.311084,-5.013873,-0.971191,-0.023926,0.041260,0.113886,-0.013434,0.023318,0.999664,0.000333,-0.006555,-0.025067,0.259374,-0.484177,-0.429820,-0.716626
59511,NaN,11.427348,-1.321497,2.521032,-4.555495,3.547160,0.449974,0.276827,-1.239949,-4.901235,-0.963379,-0.064209,0.044189,0.113744,-0.016042,0.025896,0.999680,0.001384,-0.006199,-0.024504,0.239753,-0.477567,-0.444138,-0.719159
59512,NaN,11.452229,-1.663643,2.995967,-4.938316,4.512361,0.092856,0.548332,-1.172164,-4.781494,-0.961670,-0.113281,0.057129,0.113902,-0.019448,0.030578,0.999693,0.002741,-0.005860,-0.023905,0.221241,-0.470116,-0.459102,-0.720603
59513,NaN,11.723305,-1.939834,3.773303,-5.213851,5.709857,-0.034084,0.855909,-1.066212,-4.535773,-0.954102,-0.149414,0.074219,0.116548,-0.022210,0.038265,0.999719,0.004279,-0.005331,-0.022677,0.204419,-0.462461,-0.473890,-0.720951
59514,NaN,12.263172,-2.336814,4.363515,-5.799108,6.819592,-0.080252,1.119359,-0.942545,-4.265652,-0.946289,-0.191895,0.079102,0.121886,-0.026219,0.044069,0.999746,0.005596,-0.004712,-0.021326,0.189365,-0.454304,-0.488819,-0.720281
59515,NaN,12.618204,-2.677831,4.756023,-6.338918,7.673416,-0.330140,1.327424,-0.769753,-3.903464,-0.940918,-0.223877,0.085693,0.125440,-0.029548,0.047854,0.999780,0.006637,-0.003848,-0.019516,0.176417,-0.446174,-0.503081,-0.718830
59516,NaN,12.404006,-3.124938,4.825278,-6.785008,8.125847,-1.162874,1.438242,-0.588875,-3.512424,-0.929443,-0.253662,0.104736,0.123319,-0.033767,0.048380,0.999816,0.007191,-0.002944,-0.017561,0.165485,-0.437995,-0.516558,-0.716898
59517,NaN,11.834248,-3.176170,4.488154,-6.897951,7.906836,-2.056112,1.467265,-0.459284,-3.097953,-0.924316,-0.279053,0.107178,0.117725,-0.033918,0.044909,0.999850,0.007336,-0.002296,-0.015489,0.156401,-0.430355,-0.528898,-0.714563
59518,NaN,11.596116,-3.134201,4.241608,-7.047750,7.745617,-2.559572,1.442970,-0.305859,-2.546685,-0.912842,-0.304688,0.109863,0.115482,-0.033120,0.042358,0.999892,0.007215,-0.001529,-0.012733,0.149506,-0.423564,-0.539596,-0.712093
59519,NaN,11.229345,-2.657079,3.964011,-6.807503,7.319475,-2.816433,1.390335,-0.190524,-2.072264,-0.908203,-0.313232,0.114014,0.111971,-0.028007,0.039556,0.999922,0.006951,-0.000953,-0.010361,0.144564,-0.417574,-0.549030,-0.709436
59520,NaN,11.010720,-1.914203,3.968762,-6.324415,7.071107,-2.695952,1.302030,-0.117579,-1.617790,-0.903564,-0.330322,0.124512,0.109923,-0.020290,0.039623,0.999946,0.006510,-0.000588,-0.008089,0.141176,-0.412668,-0.556850,-0.706889
59521,NaN,11.069489,-0.488398,4.168864,-5.457814,6.840984,-1.840097,1.082598,-0.065921,-1.172933,-0.896973,-0.332275,0.126709,0.110649,-0.005759,0.041696,0.999968,0.005413,-0.000330,-0.005865,0.139094,-0.408853,-0.563120,-0.704548
59522,NaN,11.036858,0.220265,4.455312,-4.936711,6.909293,-1.470026,0.778153,-0.050920,-0.724787,-0.901123,-0.338623,0.133057,0.110364,0.001629,0.044588,0.999986,0.003891,-0.000255,-0.003624,0.137909,-0.406634,-0.567016,-0.702939
59523,NaN,11.343667,-0.051780,4.515935,-5.335602,7.168747,-1.493119,0.472592,-0.101382,-0.353248,-0.896729,-0.340820,0.137207,0.113412,-0.000825,0.045215,0.999996,0.002363,-0.000507,-0.001766,0.137358,-0.405656,-0.569457,-0.701637
59524,NaN,11.807737,0.563231,4.505398,-5.237615,7.110231,-0.754515,0.169459,-0.094632,-0.015566,-0.900879,-0.343018,0.137207,0.118056,0.005585,0.045115,1.000000,0.000847,-0.000473,-0.000078,0.137236,-0.406134,-0.569662,-0.701218
59525,NaN,11.888711,0.764782,4.493803,-5.143777,7.061074,-0.549682,-0.168406,-0.082554,0.283312,-0.898926,-0.338623,0.124756,0.118858,0.007854,0.044981,0.999999,-0.000842,-0.000413,0.001417,0.137670,-0.407341,-0.568547,-0.701338
59526,NaN,11.961052,0.421077,4.402817,-5.395044,7.089239,-0.687750,-0.477530,-0.084821,0.516271,-0.905273,-0.338623,0.130859,0.119580,0.004625,0.044068,0.999994,-0.002388,-0.000424,0.002581,0.138183,-0.409749,-0.565299,-0.702458
59527,NaN,11.786463,0.112654,4.328346,-5.447114,7.047238,-0.962140,-0.797792,-0.076420,0.712318,-0.901367,-0.332275,0.126709,0.117843,0.001719,0.043322,0.999986,-0.003989,-0.000382,0.003562,0.138851,-0.412571,-0.561077,-0.704058
59528,NaN,11.681517,-0.130403,4.243076,-5.472378,6.984680,-1.109580,-1.094835,-0.093044,0.844139,-0.903809,-0.323975,0.128662,0.116799,-0.000579,0.042490,0.999976,-0.005474,-0.000465,0.004221,0.139151,-0.416440,-0.554819,-0.706676
59529,NaN,11.733677,-0.459034,4.136590,-5.656618,6.975223,-1.190169,-1.312238,-0.107405,0.966758,-0.908203,-0.315430,0.120361,0.117334,-0.003751,0.041455,0.999967,-0.006561,-0.000537,0.004834,0.139551,-0.420394,-0.548220,-0.709400
59530,NaN,12.062917,-0.862461,4.115933,-5.990566,7.143329,-1.078749,-1.405490,-0.102442,1.077856,-0.908447,-0.311035,0.114014,0.120651,-0.007685,0.041277,0.999961,-0.007027,-0.000512,0.005389,0.139918,-0.425198,-0.540167,-0.712635
59531,NaN,12.429129,-1.114358,4.243275,-6.179835,7.395931,-0.821775,-1.395403,-0.090931,1.212322,-0.915039,-0.302490,0.113770,0.124335,-0.010093,0.042562,0.999957,-0.006977,-0.000455,0.006062,0.141039,-0.429748,-0.532652,-0.715336
59532,NaN,13.001285,-1.286842,4.599113,-6.297013,7.864422,-0.308191,-1.282870,-0.085064,1.268703,-0.924072,-0.285400,0.115479,0.130070,-0.011748,0.046124,0.999959,-0.006414,-0.000425,0.006343,0.142343,-0.434905,-0.524389,-0.718062
59533,NaN,13.858518,-1.343090,4.893322,-6.534788,8.289070,0.501856,-1.125163,-0.034468,1.374373,-0.922119,-0.277100,0.109375,0.138663,-0.012203,0.049028,0.999961,-0.005626,-0.000172,0.006872,0.144754,-0.439409,-0.517357,-0.719936
59534,NaN,14.264295,-1.518118,5.105443,-6.591835,8.556021,0.919361,-0.954825,0.050959,1.481677,-0.928955,-0.264160,0.104980,0.142762,-0.013880,0.051086,0.999961,-0.004774,0.000255,0.007408,0.147788,-0.444421,-0.509455,-0.721875
59535,NaN,14.428420,-1.645381,5.094409,-6.615495,8.533665,1.152963,-0.765632,0.129582,1.559542,-0.939941,-0.251465,0.100586,0.144439,-0.015133,0.050910,0.999962,-0.003828,0.000648,0.007798,0.152060,-0.448468,-0.503104,-0.722939
59536,NaN,14.338171,-1.599278,5.035446,-6.383701,8.313735,1.305794,-0.548399,0.226426,1.667604,-0.940674,-0.234375,0.098145,0.143565,-0.014658,0.050233,0.999961,-0.002742,0.001132,0.008338,0.157075,-0.452981,-0.495885,-0.724040
59537,NaN,13.754565,-1.633212,5.019060,-5.960198,8.043109,0.995856,-0.295258,0.364276,1.818656,-0.947754,-0.213135,0.093750,0.137777,-0.015006,0.049963,0.999956,-0.001476,0.001821,0.009093,0.163906,-0.456376,-0.490381,-0.724143
59538,NaN,12.977535,-1.714161,4.919753,-5.499973,7.671137,0.505096,0.004365,0.467592,1.972378,-0.954346,-0.202393,0.091553,0.130051,-0.015861,0.048893,0.999949,0.000022,0.002338,0.009862,0.171812,-0.460278,-0.484031,-0.724112
59539,NaN,12.786749,-1.576648,4.678324,-5.313750,7.192379,0.574854,0.306592,0.563379,2.107237,-0.957031,-0.185547,0.084961,0.128156,-0.014489,0.046400,0.999939,0.001533,0.002817,0.010536,0.181520,-0.463038,-0.479770,-0.722819
59540,NaN,13.170842,-1.339182,4.575824,-5.248053,6.869815,1.208176,0.599314,0.652244,2.206767,-0.968506,-0.162109,0.082520,0.131995,-0.012073,0.045291,0.999929,0.002996,0.003261,0.011034,0.191929,-0.466274,-0.474573,-0.721480
59541,NaN,13.912220,-0.846027,4.730008,-5.064439,6.681439,2.284441,0.825240,0.753774,2.307052,-0.973389,-0.140869,0.069824,0.139386,-0.007047,0.046744,0.999918,0.004126,0.003769,0.011535,0.203968,-0.468190,-0.471399,-0.719012
59542,NaN,14.485498,-0.420220,4.649249,-4.898916,6.246444,3.171722,1.021863,0.871041,2.439788,-0.976318,-0.121582,0.063477,0.145094,-0.002668,0.045845,0.999903,0.005109,0.004355,0.012199,0.216643,-0.470606,-0.466682,-0.716801
59543,NaN,15.164232,-0.332947,4.455368,-5.089799,5.852003,3.962334,1.240060,1.013307,2.599257,-0.983887,-0.085449,0.056641,0.151894,-0.001629,0.043771,0.999883,0.006200,0.005066,0.012996,0.231236,-0.471633,-0.463847,-0.713399
59544,NaN,15.760408,0.063907,4.097935,-5.010157,5.090231,4.821540,1.350581,1.183427,2.744390,-0.986816,-0.062012,0.041992,0.157817,0.002531,0.040059,0.999866,0.006753,0.005917,0.013721,0.246380,-0.473035,-0.458913,-0.710587
59545,NaN,16.013217,0.738733,3.557784,-4.625694,3.973576,5.432730,1.330749,1.350585,2.851342,-0.983643,-0.028076,0.033203,0.160243,0.009439,0.034554,0.999853,0.006653,0.006753,0.014256,0.262741,-0.473061,-0.455153,-0.707118
59546,NaN,15.923611,1.380015,2.931658,-4.077530,2.718065,5.680089,1.205808,1.521899,2.971820,-0.988770,-0.004639,0.018311,0.159227,0.015994,0.028197,0.999842,0.006029,0.007609,0.014858,0.278990,-0.473626,-0.448405,-0.704823
59547,NaN,15.204733,1.756805,2.464191,-3.414621,1.708762,5.212034,1.005535,1.650981,3.061905,-0.993896,0.025146,0.003662,0.151953,0.019775,0.023483,0.999836,0.005027,0.008254,0.015309,0.295839,-0.473183,-0.442307,-0.702098
59548,NaN,14.808569,1.775068,1.808406,-3.209465,0.676442,4.847945,0.830871,1.726134,3.207582,-0.992920,0.054932,-0.013428,0.147926,0.020052,0.016887,0.999826,0.004154,0.008630,0.016037,0.312227,-0.473736,-0.433039,-0.700404
59549,NaN,14.092436,1.653818,1.337398,-2.938250,-0.092498,4.132067,0.694953,1.800410,3.315328,-0.991943,0.088867,-0.034424,0.140738,0.018829,0.012169,0.999816,0.003475,0.009001,0.016576,0.329345,-0.473427,-0.424714,-0.697866
59550,NaN,13.350722,1.337610,0.906041,-2.802781,-0.738853,3.318485,0.649754,1.886889,3.498408,-0.988770,0.125000,-0.061523,0.133324,0.015683,0.007850,0.999797,0.003249,0.009434,0.017491,0.346419,-0.473868,-0.413545,-0.696005
59551,NaN,12.439588,2.168075,1.024749,-1.429221,-1.291427,2.707821,0.612443,1.892251,3.577180,-0.988037,0.163330,-0.078613,0.124072,0.023873,0.009143,0.999791,0.003062,0.009461,0.017885,0.364180,-0.473509,-0.403820,-0.692886
59552,NaN,11.985545,3.153543,1.127199,-0.054686,-1.940976,2.478705,0.356781,1.882296,3.626537,-0.972412,0.199463,-0.095459,0.119357,0.033684,0.010206,0.999790,0.001784,0.009411,0.018131,0.380824,-0.474163,-0.391074,-0.690800
59553,NaN,11.384377,1.870702,0.776784,-0.846045,-1.999244,1.544032,0.186187,1.880264,3.758615,-0.967285,0.239746,-0.116699,0.113532,0.020836,0.006718,0.999779,0.000931,0.009401,0.018792,0.397861,-0.474547,-0.379121,-0.687589
59554,NaN,11.079001,1.818018,0.745810,-0.505024,-2.315469,1.185981,0.085336,1.832360,3.821998,-0.960205,0.275879,-0.137695,0.110478,0.020291,0.006453,0.999775,0.000427,0.009161,0.019109,0.414117,-0.475717,-0.364792,-0.684928
59555,NaN,10.619543,2.335776,0.735923,0.385479,-2.749497,0.725158,-0.068304,1.774184,3.872118,-0.955078,0.316406,-0.152588,0.105776,0.025411,0.006411,0.999773,-0.000341,0.008870,0.019359,0.430378,-0.476726,-0.351571,-0.681105
59556,NaN,10.041142,1.849181,0.967481,0.439982,-2.536961,0.113757,-0.162026,1.739481,3.929066,-0.929199,0.358643,-0.171631,0.100101,0.020468,0.008787,0.999769,-0.000810,0.008697,0.019644,0.445905,-0.478337,-0.336084,-0.677798
59557,NaN,9.875690,1.707800,0.802107,0.588001,-2.866997,-0.194550,-0.230081,1.627113,3.937801,-0.915527,0.396973,-0.184570,0.098456,0.019027,0.007198,0.999772,-0.001150,0.008135,0.019688,0.461353,-0.479832,-0.322160,-0.673147
59558,NaN,9.409868,1.856027,1.115120,1.196813,-2.786943,-0.646420,-0.310410,1.551122,3.975354,-0.893799,0.439453,-0.197510,0.093787,0.020443,0.010392,0.999771,-0.001552,0.007755,0.019875,0.476050,-0.481878,-0.306288,-0.668848
59559,NaN,9.175866,2.444526,1.315649,2.137155,-2.984316,-0.957411,-0.474153,1.438500,3.967071,-0.873535,0.471191,-0.210205,0.091341,0.026290,0.012438,0.999775,-0.002371,0.007192,0.019834,0.490290,-0.484150,-0.291628,-0.663451
59560,NaN,8.804821,2.295485,1.124167,2.239719,-3.200329,-1.518890,-0.639864,1.329474,3.936076,-0.853760,0.507324,-0.218994,0.087645,0.024717,0.010581,0.999779,-0.003199,0.006647,0.019679,0.503350,-0.487098,-0.275112,-0.658550
59561,NaN,8.425379,2.444165,1.274639,2.717488,-3.168685,-1.992898,-0.804067,1.194666,3.885644,-0.827393,0.545410,-0.225586,0.083831,0.026123,0.012142,0.999785,-0.004020,0.005973,0.019427,0.515741,-0.490415,-0.259910,-0.652650
59562,NaN,8.258349,2.558525,1.369123,3.122524,-3.254881,-2.311658,-0.956539,1.068814,3.901062,-0.807617,0.583496,-0.234375,0.082134,0.027254,0.013124,0.999784,-0.004782,0.005344,0.019504,0.527172,-0.494427,-0.242979,-0.646987
59563,NaN,7.639998,2.006525,1.451891,2.873385,-2.890329,-2.892841,-0.980259,0.925704,3.882734,-0.776855,0.617432,-0.234863,0.076056,0.021614,0.014063,0.999789,-0.004901,0.004628,0.019412,0.538342,-0.498615,-0.227691,-0.640100
59564,NaN,8.249571,1.975842,1.622041,3.213328,-3.185040,-2.456713,-0.963036,0.782528,3.831795,-0.754883,0.651123,-0.237305,0.082158,0.021411,0.015798,0.999797,-0.004815,0.003912,0.019158,0.548873,-0.502925,-0.211643,-0.633255
59565,NaN,8.459196,2.038934,1.746871,3.608757,-3.344425,-2.427032,-0.975648,0.739263,3.828209,-0.726074,0.674561,-0.241699,0.084244,0.022088,0.017052,0.999798,-0.004878,0.003696,0.019140,0.559230,-0.507197,-0.196827,-0.625517
59566,NaN,8.588282,2.266633,2.017620,4.208520,-3.409677,-2.490227,-1.083439,0.667922,3.788771,-0.695557,0.712646,-0.236084,0.085498,0.024396,0.019761,0.999800,-0.005417,0.003339,0.018943,0.568839,-0.511655,-0.180826,-0.618007
59567,NaN,8.690106,1.598783,2.000397,3.891939,-3.415581,-2.379553,-1.083027,0.619819,3.767739,-0.666748,0.739990,-0.232422,0.086639,0.017729,0.019642,0.999803,-0.005415,0.003099,0.018837,0.578177,-0.516112,-0.166012,-0.609738
59568,NaN,9.208662,0.934316,1.894271,3.636862,-3.739771,-1.936295,-1.001170,0.562631,3.575643,-0.642334,0.769531,-0.226562,0.091952,0.011082,0.018631,0.999824,-0.005006,0.002813,0.017877,0.586896,-0.520006,-0.151165,-0.601910
59569,NaN,10.383302,0.962270,1.600774,4.072390,-4.755695,-1.322150,-0.889767,0.515603,3.334405,-0.613525,0.790771,-0.232910,0.103693,0.011423,0.015692,0.999848,-0.004449,0.002578,0.016671,0.594934,-0.523492,-0.138250,-0.594051
59570,NaN,11.249237,1.604914,1.275652,4.963776,-5.802548,-1.302247,-0.830703,0.514684,3.214904,-0.588867,0.813965,-0.225098,0.112247,0.017907,0.012396,0.999859,-0.004153,0.002573,0.016074,0.602669,-0.526399,-0.125082,-0.586557
59571,NaN,11.365872,2.026856,0.847786,5.402870,-6.419601,-1.837896,-0.764501,0.479684,2.942951,-0.559814,0.835205,-0.225342,0.113364,0.021970,0.008124,0.999882,-0.003822,0.002398,0.014714,0.609532,-0.529059,-0.113600,-0.579363
59572,NaN,12.171450,2.316134,0.452376,5.919631,-7.373340,-1.794202,-0.723153,0.424910,2.575226,-0.541504,0.854004,-0.223633,0.121412,0.024742,0.004178,0.999908,-0.003616,0.002124,0.012876,0.615424,-0.531254,-0.102863,-0.573098
59573,NaN,12.419504,2.453891,-0.022328,6.073694,-8.004954,-2.112690,-0.681454,0.436265,2.244552,-0.516357,0.862549,-0.219482,0.123908,0.025929,-0.000581,0.999929,-0.003407,0.002181,0.011222,0.620241,-0.533202,-0.093564,-0.567664
59574,NaN,12.327671,2.603305,-0.297158,6.181572,-8.274455,-2.590941,-0.615654,0.434518,1.857226,-0.506104,0.875244,-0.213623,0.123021,0.027166,-0.003322,0.999950,-0.003078,0.002173,0.009286,0.624273,-0.534536,-0.085206,-0.563289
59575,NaN,12.016057,2.805342,-0.440637,6.272458,-8.299914,-3.163302,-0.542226,0.410870,1.488766,-0.489746,0.885742,-0.219727,0.119938,0.028934,-0.004731,0.999967,-0.002711,0.002054,0.007444,0.627186,-0.535672,-0.078379,-0.559955
59576,NaN,11.543390,2.734929,-0.386313,6.151597,-8.006278,-3.572918,-0.451884,0.362164,1.068247,-0.474854,0.885742,-0.211426,0.115278,0.027956,-0.004135,0.999982,-0.002259,0.001811,0.005341,0.629348,-0.536333,-0.072978,-0.557623
59577,NaN,11.082971,2.505192,-0.181291,5.946798,-7.559029,-3.759813,-0.342504,0.282083,0.570950,-0.475098,0.894043,-0.209717,0.110755,0.025365,-0.002012,0.999993,-0.001713,0.001410,0.002855,0.630134,-0.536813,-0.069568,-0.556707
59578,NaN,10.648412,2.159477,0.096735,5.671560,-7.035666,-3.779934,-0.256219,0.207843,0.082128,-0.479248,0.889893,-0.207520,0.106476,0.021640,0.000829,0.999999,-0.001281,0.001039,0.000411,0.630024,-0.536947,-0.067993,-0.556897
59579,NaN,10.264386,1.708503,0.481092,5.354025,-6.432195,-3.610336,-0.186901,0.129863,-0.413484,-0.477295,0.894043,-0.205566,0.102682,0.016877,0.004728,0.999997,-0.000935,0.000649,-0.002067,0.628428,-0.537017,-0.068137,-0.558613
59580,NaN,9.990022,1.251785,1.010671,5.121533,-5.769482,-3.265075,-0.120447,0.026809,-0.925792,-0.491699,0.885742,-0.205322,0.099958,0.012061,0.010086,0.999989,-0.000602,0.000134,-0.004629,0.625709,-0.536935,-0.070258,-0.561473
59581,NaN,9.987812,0.711470,1.480863,4.856060,-5.284889,-2.675289,-0.016426,-0.073695,-1.428754,-0.502197,0.879395,-0.209473,0.099920,0.006402,0.014845,0.999974,-0.000082,-0.000368,-0.007144,0.621627,-0.536662,-0.074240,-0.565740
59582,NaN,10.150769,-0.000323,2.065291,4.532804,-4.748418,-1.799792,0.097637,-0.151886,-1.920567,-0.520752,0.868896,-0.215576,0.101486,-0.000988,0.020730,0.999953,0.000488,-0.000759,-0.009603,0.616537,-0.536009,-0.080249,-0.571084
59583,NaN,10.605722,-0.769741,2.735502,4.244472,-4.276825,-0.634222,0.220344,-0.215755,-2.415006,-0.545654,0.854004,-0.209229,0.105924,-0.009007,0.027460,0.999926,0.001102,-0.001079,-0.012075,0.610115,-0.534921,-0.087974,-0.577823
59584,NaN,11.461354,-1.512929,3.308418,3.975257,-4.070838,0.780365,0.313050,-0.301239,-2.894129,-0.572754,0.839355,-0.211182,0.114328,-0.016837,0.033231,0.999893,0.001565,-0.001506,-0.014470,0.602555,-0.533471,-0.097681,-0.585487
59585,NaN,12.377646,-2.153233,3.613199,3.570215,-4.064605,2.087518,0.287656,-0.352804,-3.307811,-0.599365,0.811768,-0.208740,0.123333,-0.023627,0.036317,0.999861,0.001438,-0.001764,-0.016538,0.593400,-0.531931,-0.108360,-0.594293
59586,NaN,12.866914,-2.694773,3.716781,2.936088,-3.912116,2.942231,0.184497,-0.386181,-3.685273,-0.632568,0.792969,-0.208496,0.128071,-0.029346,0.037389,0.999828,0.000922,-0.001931,-0.018425,0.582766,-0.530418,-0.120009,-0.603853
59587,NaN,12.939493,-3.228037,3.658760,2.060873,-3.584476,3.382661,0.026698,-0.442226,-3.991514,-0.659180,0.767578,-0.202148,0.128635,-0.034858,0.036868,0.999798,0.000133,-0.002211,-0.019956,0.570421,-0.529158,-0.131905,-0.614177
59588,NaN,12.396049,-3.153051,3.305117,1.402219,-3.277460,2.907193,-0.236019,-0.526138,-4.200389,-0.698486,0.738037,-0.197754,0.123175,-0.034084,0.033415,0.999775,-0.001180,-0.002630,-0.021000,0.556558,-0.528532,-0.143959,-0.624638
59589,NaN,11.496953,-2.506486,2.993738,1.227749,-2.943390,1.901943,-0.558338,-0.627593,-4.342408,-0.727051,0.704102,-0.187012,0.114296,-0.027467,0.030371,0.999755,-0.002791,-0.003138,-0.021710,0.540953,-0.528775,-0.155368,-0.635317
59590,NaN,10.852767,-1.977126,3.297516,1.375700,-2.260226,1.392037,-1.021095,-0.749452,-4.381344,-0.762207,0.680908,-0.172363,0.107938,-0.021970,0.033489,0.999740,-0.005105,-0.003747,-0.021905,0.523743,-0.530349,-0.165899,-0.645678
59591,NaN,10.684046,-1.924515,4.120324,1.513143,-1.253786,1.630774,-1.655318,-0.884163,-4.303249,-0.792969,0.653320,-0.149658,0.106214,-0.021191,0.041844,0.999725,-0.008276,-0.004420,-0.021514,0.504606,-0.533806,-0.174202,-0.655803
59592,NaN,10.629556,-1.626554,5.193071,2.081958,-0.213457,1.943549,-2.368096,-1.030500,-4.220556,-0.819336,0.621582,-0.126709,0.105659,-0.017879,0.052682,0.999694,-0.011839,-0.005152,-0.021101,0.483520,-0.539286,-0.180453,-0.665444
59593,NaN,10.340103,-1.010106,5.972210,2.846815,0.517758,1.815954,-3.119706,-1.145864,-4.104846,-0.846191,0.600342,-0.095703,0.102833,-0.011276,0.060482,0.999651,-0.015597,-0.005729,-0.020522,0.460272,-0.546732,-0.183817,-0.674867
59594,NaN,10.152235,-0.902209,6.132852,2.939974,0.929729,1.675588,-3.743764,-1.220333,-3.909446,-0.866211,0.568359,-0.066650,0.100958,-0.009841,0.062125,0.999615,-0.018716,-0.006101,-0.019545,0.435668,-0.555615,-0.184800,-0.683618
59595,NaN,10.253036,-2.044679,5.794402,1.807164,1.540045,1.902087,-4.040254,-1.207619,-3.684261,-0.880127,0.540771,-0.035645,0.101791,-0.021142,0.058983,0.999608,-0.020199,-0.006037,-0.018419,0.410589,-0.564903,-0.183753,-0.691763
59596,NaN,10.734463,-3.625227,5.008493,0.093973,2.066011,2.400739,-3.846155,-1.070634,-3.516435,-0.906738,0.510986,0.007812,0.106424,-0.037149,0.051365,0.999646,-0.019229,-0.005353,-0.017580,0.386560,-0.573010,-0.182688,-0.699182
59597,NaN,11.787818,-5.467041,4.336332,-1.764679,2.804295,3.478336,-3.113765,-0.803317,-3.360905,-0.922607,0.483398,0.020508,0.116767,-0.055950,0.044698,0.999730,-0.015567,-0.004016,-0.016803,0.365075,-0.578593,-0.182907,-0.706042
59598,NaN,12.033910,-7.211479,3.893122,-3.375990,4.009618,3.769887,-2.279699,-0.450229,-3.166180,-0.932129,0.453857,0.033203,0.119093,-0.073555,0.040033,0.999807,-0.011398,-0.002251,-0.015830,0.346923,-0.581279,-0.184933,-0.712432
59599,NaN,11.465524,-7.928966,3.224977,-4.372872,4.602689,3.009449,-1.427747,-0.113614,-2.964305,-0.952637,0.430420,0.043701,0.113447,-0.080744,0.032887,0.999865,-0.007138,-0.000568,-0.014821,0.332085,-0.581322,-0.188607,-0.718479
59600,NaN,10.546527,-7.605699,2.803298,-4.473086,4.647771,1.819750,-0.696479,0.140310,-2.851692,-0.958008,0.402832,0.040039,0.104387,-0.077452,0.028228,0.999892,-0.003482,0.000702,-0.014258,0.320022,-0.579164,-0.194221,-0.724178
59601,NaN,9.506648,-6.613643,2.342862,-4.144458,4.125964,0.453643,-0.117527,0.285812,-2.717374,-0.967773,0.375244,0.036377,0.094190,-0.067406,0.023333,0.999907,-0.000588,0.001429,-0.013586,0.310114,-0.575605,-0.201162,-0.729413
59602,NaN,8.652318,-5.857690,2.118523,-3.831696,3.805623,-0.620710,0.288213,0.355769,-2.555278,-0.981934,0.356201,0.038818,0.085803,-0.059707,0.020947,0.999916,0.001441,0.001779,-0.012776,0.302075,-0.571183,-0.209034,-0.734033
59603,NaN,7.930069,-5.219723,1.950314,-3.559308,3.526893,-1.516741,0.540197,0.352768,-2.418029,-0.980957,0.328613,0.029053,0.078696,-0.053203,0.019221,0.999922,0.002701,0.001764,-0.012090,0.295112,-0.566482,-0.217348,-0.738084
59604,NaN,7.455655,-4.639703,1.904459,-3.259195,3.284419,-2.110278,0.680454,0.305630,-2.230730,-0.990723,0.307373,0.029297,0.074061,-0.047289,0.018771,0.999931,0.003402,0.001528,-0.011153,0.289240,-0.561832,-0.225714,-0.741444
59605,NaN,7.154975,-3.860591,1.936261,-2.778714,2.894985,-2.481798,0.673692,0.268466,-2.076415,-0.994385,0.290527,0.019531,0.071169,-0.039411,0.019135,0.999940,0.003368,0.001342,-0.010382,0.283745,-0.557466,-0.233617,-0.744408
59606,NaN,6.763005,-3.334944,2.131751,-2.316977,2.798298,-2.869816,0.558615,0.259950,-1.955405,-1.002197,0.271484,0.013672,0.067327,-0.034068,0.021135,0.999947,0.002793,0.001300,-0.009777,0.278442,-0.553339,-0.240745,-0.747213
59607,NaN,6.357757,-3.254232,2.297161,-2.153608,2.995421,-3.280009,0.369566,0.235783,-1.826721,-1.005859,0.250244,0.013916,0.063304,-0.033164,0.022836,0.999956,0.001848,0.001179,-0.009133,0.272937,-0.549701,-0.246817,-0.749944
59608,NaN,5.979127,-3.489565,2.323295,-2.284231,3.311087,-3.718223,0.207999,0.198875,-1.699594,-1.011719,0.237549,0.014160,0.059515,-0.035426,0.023137,0.999963,0.001040,0.000994,-0.008498,0.267519,-0.546495,-0.251953,-0.752527
59609,NaN,5.523581,-3.642043,2.306616,-2.344403,3.536921,-4.237033,0.090337,0.162300,-1.601086,-1.011230,0.220459,0.008301,0.054961,-0.036872,0.023005,0.999968,0.000452,0.000811,-0.008005,0.261963,-0.543710,-0.256418,-0.754986
59610,NaN,5.157598,-3.454650,2.263861,-2.197263,3.472715,-4.638511,-0.023189,0.130278,-1.487670,-1.008789,0.212158,0.008545,0.051332,-0.034926,0.022609,0.999972,-0.000116,0.000651,-0.007438,0.256613,-0.541263,-0.260149,-0.757302
59611,NaN,4.883283,-3.388054,2.197096,-2.157483,3.462505,-4.964141,-0.116704,0.091384,-1.381414,-1.014404,0.195068,0.014893,0.048607,-0.034204,0.021969,0.999976,-0.000584,0.000457,-0.006907,0.251206,-0.539238,-0.263298,-0.759468
59612,NaN,4.609632,-3.338863,2.158817,-2.097726,3.474870,-5.275990,-0.199909,0.036075,-1.282517,-1.016113,0.180176,0.012939,0.045885,-0.033662,0.021613,0.999979,-0.001000,0.000180,-0.006413,0.246057,-0.537574,-0.265902,-0.761424
59613,NaN,4.486300,-3.279293,2.083281,-2.090256,3.436856,-5.449290,-0.244776,-0.017131,-1.172632,-1.020020,0.171875,0.004883,0.044668,-0.033030,0.020877,0.999982,-0.001224,-0.000086,-0.005863,0.240935,-0.536352,-0.268115,-0.763145
59614,NaN,4.489037,-3.258646,2.075278,-2.095314,3.456344,-5.483706,-0.270222,-0.057902,-1.064911,-1.023926,0.163330,0.015381,0.044710,-0.032797,0.020810,0.999985,-0.001351,-0.000290,-0.005325,0.236333,-0.535369,-0.269957,-0.764624
59615,NaN,4.546453,-3.172973,2.116095,-2.036745,3.456033,-5.439688,-0.249385,-0.108765,-0.971239,-1.023682,0.156982,0.011475,0.045298,-0.031924,0.021225,0.999987,-0.001247,-0.000544,-0.004856,0.231830,-0.534742,-0.271705,-0.765821
59616,NaN,4.771618,-3.037950,2.140444,-2.012407,3.392865,-5.228207,-0.194714,-0.157149,-0.873851,-1.033936,0.144287,0.017578,0.047566,-0.030567,0.021472,0.999990,-0.000974,-0.000786,-0.004369,0.228124,-0.534244,-0.273460,-0.766657
59617,NaN,5.064865,-3.046012,2.145350,-2.115008,3.423679,-4.981689,-0.109571,-0.203997,-0.796865,-1.025146,0.135742,0.017822,0.050505,-0.030650,0.021522,0.999991,-0.000548,-0.001020,-0.003984,0.224524,-0.534037,-0.275376,-0.767178
59618,NaN,5.532596,-3.047209,2.164535,-2.264603,3.449463,-4.563604,0.023729,-0.239334,-0.723452,-1.026855,0.125000,0.020020,0.055189,-0.030674,0.021708,0.999993,0.000119,-0.001197,-0.003617,0.221814,-0.533815,-0.277612,-0.767315
59619,NaN,6.049691,-3.062833,2.159127,-2.460176,3.475035,-4.110673,0.190167,-0.273372,-0.670768,-1.033447,0.127197,0.020020,0.060364,-0.030851,0.021645,0.999993,0.000951,-0.001367,-0.003354,0.219395,-0.533698,-0.280410,-0.767074
59620,NaN,6.745151,-2.947788,2.245637,-2.575682,3.458796,-3.438386,0.379751,-0.289524,-0.617611,-1.031006,0.118652,0.024170,0.067327,-0.029729,0.022498,0.999992,0.001899,-0.001448,-0.003088,0.217973,-0.533407,-0.283761,-0.766449
59621,NaN,7.457101,-2.798022,2.348887,-2.669014,3.438797,-2.741247,0.564662,-0.295915,-0.585372,-1.028809,0.114502,0.022217,0.074454,-0.028265,0.023520,0.999991,0.002823,-0.001480,-0.002927,0.216844,-0.533070,-0.287783,-0.765504
59622,NaN,8.205553,-2.643091,2.602182,-2.676699,3.520514,-1.968632,0.713986,-0.306719,-0.597729,-1.034912,0.108154,0.030518,0.081936,-0.026769,0.026052,0.999988,0.003570,-0.001534,-0.002989,0.216380,-0.532479,-0.292364,-0.764310
59623,NaN,9.301756,-2.308059,2.915678,-2.650873,3.525673,-0.818641,0.809424,-0.340599,-0.604426,-1.034424,0.095215,0.032959,0.092897,-0.023480,0.029221,0.999986,0.004047,-0.001703,-0.003022,0.215754,-0.531994,-0.297408,-0.762877
59624,NaN,10.908189,-1.922883,3.269136,-2.744985,3.533338,0.834055,0.859537,-0.338212,-0.585310,-1.032227,0.091064,0.034912,0.108969,-0.019689,0.032792,0.999985,0.004298,-0.001691,-0.002927,0.215584,-0.531390,-0.302480,-0.761350
59625,NaN,12.022918,-1.296089,3.474160,-2.620164,3.299788,2.042495,0.747763,-0.314701,-0.640322,-1.036133,0.086914,0.039062,0.120132,-0.013476,0.034881,0.999987,0.003739,-0.001573,-0.003202,0.214685,-0.530787,-0.307339,-0.760077
59626,NaN,12.753127,-0.525586,3.304806,-2.522487,2.713734,2.840851,0.485605,-0.274623,-0.641130,-1.042480,0.082520,0.039062,0.127468,-0.005745,0.033210,0.999991,0.002428,-0.001373,-0.003206,0.213369,-0.530246,-0.311027,-0.759325
59627,NaN,12.610081,-0.125852,3.130139,-2.364712,2.387311,2.738650,0.189957,-0.199088,-0.586770,-1.042236,0.078369,0.037109,0.126065,-0.001658,0.031425,0.999995,0.000950,-0.000995,-0.002934,0.211365,-0.529864,-0.313492,-0.759139
59628,NaN,12.012559,0.255957,2.537882,-2.334460,1.754885,2.115354,-0.130397,-0.200297,-0.589065,-1.043945,0.067627,0.041504,0.120107,0.002222,0.025498,0.999995,-0.000652,-0.001001,-0.002945,0.208776,-0.529743,-0.314627,-0.759470
59629,NaN,11.485270,0.532920,1.811143,-2.478693,1.098645,1.506520,-0.482642,-0.253802,-0.509880,-1.039551,0.061279,0.043701,0.114843,0.005080,0.018245,0.999993,-0.002413,-0.001269,-0.002549,0.205192,-0.530385,-0.314384,-0.760099
59630,NaN,10.358254,0.977260,0.757914,-2.518460,0.073343,0.310285,-0.857668,-0.410026,-0.554020,-1.045898,0.059326,0.049805,0.103593,0.009519,0.007750,0.999985,-0.004288,-0.002050,-0.002770,0.200421,-0.531879,-0.312843,-0.760963
59631,NaN,9.459804,1.622888,-0.188050,-2.448956,-1.004140,-0.584966,-1.200007,-0.649134,-0.648987,-1.043457,0.052734,0.047852,0.094656,0.015911,-0.001669,0.999971,-0.006000,-0.003246,-0.003245,0.193771,-0.534501,-0.310622,-0.761758
59632,NaN,8.979339,2.151014,-0.594660,-2.243047,-1.610548,-0.981876,-1.603186,-0.959594,-0.653048,-1.045410,0.046387,0.062256,0.089891,0.021170,-0.005686,0.999951,-0.008016,-0.004798,-0.003265,0.185819,-0.538583,-0.307043,-0.762315
59633,NaN,8.985746,2.152279,-0.650397,-2.290745,-1.551301,-0.972786,-1.890524,-1.309349,-0.722689,-1.045166,0.035645,0.083008,0.089975,0.021139,-0.006116,0.999927,-0.009452,-0.006547,-0.003613,0.175983,-0.544161,-0.302955,-0.762324
59634,NaN,9.401669,1.863303,-0.272368,-2.316368,-0.948460,-0.556832,-2.050517,-1.583819,-0.693436,-1.044922,0.033691,0.097168,0.094099,0.018283,-0.002167,0.999910,-0.010252,-0.007919,-0.003467,0.165660,-0.550829,-0.298280,-0.761691
59635,NaN,9.816732,1.387239,0.272040,-2.278238,-0.067562,-0.160257,-1.962249,-1.818417,-0.768173,-1.040527,0.025146,0.115723,0.098190,0.013527,0.003479,0.999903,-0.009811,-0.009092,-0.003841,0.154635,-0.558159,-0.294378,-0.760190
59636,NaN,10.392457,0.778985,0.696734,-2.399061,0.877150,0.314855,-1.694718,-1.951341,-0.803935,-1.044189,0.014404,0.138428,0.103881,0.007437,0.007917,0.999908,-0.008473,-0.009756,-0.004020,0.144343,-0.565560,-0.291597,-0.757812
59637,NaN,11.327331,0.275333,1.314124,-2.371806,1.935548,1.175233,-1.234475,-2.043438,-0.860516,-1.041748,0.001465,0.161133,0.113142,0.002352,0.014282,0.999920,-0.006172,-0.010217,-0.004302,0.134634,-0.572872,-0.290782,-0.754412
59638,NaN,12.240704,-0.032841,2.061281,-2.081110,2.943932,2.065059,-0.768179,-2.042953,-0.940067,-1.041260,-0.011230,0.179932,0.122185,-0.000821,0.021864,0.999929,-0.003841,-0.010215,-0.004700,0.126261,-0.579613,-0.291857,-0.750284
59639,NaN,13.286358,-0.122643,2.582593,-1.857878,3.707917,3.071568,-0.373836,-2.066051,-0.965963,-1.034912,-0.013428,0.192139,0.132580,-0.001817,0.027200,0.999933,-0.001869,-0.010330,-0.004830,0.118564,-0.586130,-0.294516,-0.745422
59640,NaN,14.452921,-0.442769,3.175145,-1.703304,4.753902,4.103279,0.046451,-2.062578,-0.998967,-1.038574,-0.030518,0.218994,0.144167,-0.005156,0.033238,0.999934,0.000232,-0.010313,-0.004995,0.112318,-0.592198,-0.298739,-0.739893
59641,NaN,15.976147,-1.079731,4.009258,-1.592890,6.313591,5.355280,0.504584,-1.974637,-0.979689,-1.030029,-0.030518,0.235352,0.159300,-0.011682,0.041638,0.999936,0.002523,-0.009873,-0.004898,0.107264,-0.597698,-0.304574,-0.733816
59642,NaN,17.053411,-1.720865,4.664429,-1.511995,7.710100,6.118237,0.896227,-1.770918,-0.924713,-1.031738,-0.039062,0.253906,0.170030,-0.018209,0.048071,0.999940,0.004481,-0.008854,-0.004623,0.104239,-0.602189,-0.311449,-0.727669
59643,NaN,17.345559,-1.664955,4.810142,-1.308475,8.102122,6.293612,1.193295,-1.482354,-0.820586,-1.027588,-0.043457,0.262207,0.173022,-0.017652,0.049282,0.999946,0.005966,-0.007412,-0.004103,0.102567,-0.605630,-0.318995,-0.721758
59644,NaN,16.391521,-0.611982,4.478995,-0.694842,7.095817,5.623617,1.385497,-1.115930,-0.605996,-1.027100,-0.052002,0.276855,0.163642,-0.006930,0.045657,0.999956,0.006927,-0.005580,-0.003030,0.103222,-0.607858,-0.326245,-0.716532
59645,NaN,14.847145,1.010987,3.778588,0.053510,5.234518,4.621028,1.463504,-0.759755,-0.345765,-1.020996,-0.045654,0.282715,0.148343,0.009574,0.038421,0.999965,0.007317,-0.003799,-0.001729,0.105223,-0.609220,-0.332897,-0.712011
59646,NaN,13.328200,3.133013,2.744692,0.819965,2.732489,3.856622,1.469137,-0.458424,-0.070183,-1.021484,-0.034912,0.282715,0.133229,0.031079,0.027981,0.999970,0.007346,-0.002292,-0.000351,0.109070,-0.609868,-0.338365,-0.708290
59647,NaN,11.332557,5.542908,1.619467,1.832176,-0.188873,2.772217,1.453308,-0.243927,0.131578,-1.021484,-0.030762,0.286621,0.113269,0.055383,0.016735,0.999973,0.007266,-0.001220,0.000658,0.113587,-0.610126,-0.343210,-0.705018
59648,NaN,9.977231,7.788406,0.702073,2.827237,-2.715933,2.242451,1.346857,-0.198846,0.317376,-1.019531,-0.028564,0.288574,0.099641,0.077992,0.007645,0.999976,0.006734,-0.000994,0.001587,0.118954,-0.610460,-0.346937,-0.702014
59649,NaN,9.552957,8.844383,-0.140665,3.022896,-4.092947,2.171051,1.114008,-0.245546,0.611415,-1.024414,-0.011719,0.290283,0.095260,0.088741,-0.000796,0.999979,0.005570,-0.001228,0.003057,0.124108,-0.611688,-0.349096,-0.698976
59650,NaN,9.718840,8.961652,-0.500328,2.929290,-4.373695,2.324256,0.836866,-0.295000,0.878647,-1.022461,-0.003174,0.296387,0.096800,0.090062,-0.004484,0.999981,0.004184,-0.001475,0.004393,0.129686,-0.613584,-0.349372,-0.696158
59651,NaN,9.923872,10.004011,-0.529238,3.642007,-5.119667,2.811356,0.502971,-0.341584,0.872586,-1.020752,0.007568,0.294189,0.098810,0.100484,-0.004871,0.999986,0.002515,-0.001708,0.004363,0.133704,-0.615943,-0.348637,-0.693678
59652,NaN,10.382644,11.109060,-0.273592,4.543144,-5.694734,3.536985,-0.065792,-0.384365,0.848471,-1.019043,0.018066,0.302246,0.103359,0.111529,-0.002574,0.999989,-0.000329,-0.001922,0.004242,0.136247,-0.618637,-0.345960,-0.692124
59653,NaN,11.028527,10.339702,0.119396,4.319485,-4.819332,3.849908,-0.737030,-0.448015,0.909903,-1.021240,0.026611,0.303955,0.109811,0.103901,0.001058,0.999980,-0.003685,-0.002240,0.004549,0.136376,-0.622232,-0.340867,-0.691403
59654,NaN,11.244064,9.216070,0.228306,3.709129,-4.011406,3.661966,-1.382939,-0.380323,0.788860,-1.013184,0.032959,0.305908,0.112072,0.092617,0.001857,0.999967,-0.006915,-0.001902,0.003944,0.134649,-0.625637,-0.333855,-0.692090
59655,NaN,11.387848,9.173408,0.326855,3.703424,-4.031809,3.750797,-1.891766,-0.241073,0.542076,-1.019287,0.028564,0.312256,0.113626,0.092069,0.002536,0.999951,-0.009459,-0.001205,0.002710,0.130235,-0.628599,-0.325732,-0.694118
59656,NaN,10.645673,9.309960,0.589349,4.029439,-4.303536,3.055603,-2.267511,-0.154665,0.266775,-1.012939,0.028564,0.314209,0.106328,0.093301,0.004919,0.999935,-0.011337,-0.000773,0.001334,0.124289,-0.630823,-0.317118,-0.697174
59657,NaN,10.308848,8.890431,0.613930,3.724807,-4.195384,2.605434,-2.586339,-0.156784,0.077065,-1.016846,0.018066,0.312500,0.103050,0.089014,0.005069,0.999916,-0.012931,-0.000784,0.000385,0.116179,-0.633025,-0.307904,-0.700698
59658,NaN,9.941164,7.174940,0.428127,2.537568,-3.179449,1.760500,-2.826060,-0.148972,0.009098,-1.010254,0.011475,0.314453,0.099406,0.071806,0.003341,0.999900,-0.014130,-0.000745,0.000045,0.107487,-0.634979,-0.298055,-0.704565
59659,NaN,9.607349,5.033011,0.375118,1.288768,-1.672689,0.832162,-2.874938,-0.136660,-0.003161,-1.008057,0.007324,0.316650,0.096072,0.050376,0.003093,0.999896,-0.014374,-0.000683,-0.000016,0.098171,-0.636913,-0.287954,-0.708369
59660,NaN,9.198842,3.353594,0.581709,0.599333,-0.359992,-0.029319,-2.738915,-0.103793,-0.001373,-1.011719,-0.007568,0.322998,0.091986,0.033611,0.005405,0.999906,-0.013694,-0.000519,-0.000007,0.089685,-0.638431,-0.278304,-0.711976
59661,NaN,8.802805,2.432573,0.708069,0.278217,0.326339,-0.662609,-2.500233,-0.040672,0.021723,-1.009766,-0.003174,0.316895,0.088024,0.024421,0.006794,0.999922,-0.012501,-0.000203,0.000109,0.081755,-0.639654,-0.269306,-0.715286
59662,NaN,7.966259,2.108734,1.333806,0.779395,0.662184,-1.527711,-2.259650,0.031674,0.045548,-1.009277,-0.013916,0.317139,0.079660,0.021254,0.013086,0.999936,-0.011298,0.000158,0.000228,0.075116,-0.640363,-0.261072,-0.718425
59663,NaN,7.058565,1.887231,1.853751,1.267754,0.837195,-2.429395,-2.052819,0.038209,0.008923,-1.007324,-0.013916,0.319092,0.070588,0.019064,0.018329,0.999947,-0.010264,0.000191,0.000045,0.068658,-0.640950,-0.253616,-0.721213
59664,NaN,6.466740,1.562204,2.278208,1.590945,1.121932,-3.055516,-1.928744,0.026998,-0.013385,-1.011230,-0.024414,0.317139,0.064672,0.015836,0.022621,0.999953,-0.009644,0.000135,-0.000067,0.062862,-0.641346,-0.246714,-0.723779
59665,NaN,5.859273,1.285362,2.454128,1.731145,1.252423,-3.693835,-1.847885,0.002617,-0.027117,-1.007080,-0.018066,0.317139,0.058595,0.013072,0.024420,0.999957,-0.009239,0.000013,-0.000136,0.056876,-0.641831,-0.240078,-0.726072
59666,NaN,5.146678,1.096764,2.419727,1.744079,1.194406,-4.420315,-1.728888,-0.027595,0.014013,-1.010986,-0.026611,0.321289,0.051463,0.011180,0.024108,0.999963,-0.008644,-0.000138,0.000070,0.051765,-0.642290,-0.233793,-0.728096
59667,NaN,4.827479,0.810510,2.224966,1.515643,1.255117,-4.808755,-1.545855,-0.055804,0.058266,-1.010986,-0.028809,0.323486,0.048266,0.008291,0.022200,0.999970,-0.007729,-0.000279,0.000291,0.046983,-0.642916,-0.227961,-0.729716
59668,NaN,4.759147,0.669263,1.780404,1.072292,1.157226,-4.936399,-1.324760,-0.078870,0.071303,-1.004395,-0.032959,0.321533,0.047582,0.006827,0.017778,0.999978,-0.006624,-0.000394,0.000357,0.043329,-0.643455,-0.222962,-0.731010
59669,NaN,5.022677,0.711617,1.227300,0.536756,0.944181,-4.707755,-1.091183,-0.070208,0.094710,-1.010986,-0.031006,0.323486,0.050219,0.007207,0.012251,0.999985,-0.005456,-0.000351,0.000474,0.040123,-0.644017,-0.218657,-0.731998
59670,NaN,5.219426,0.891920,0.798672,0.168497,0.648063,-4.499739,-0.885822,-0.050722,0.084003,-1.010742,-0.032959,0.317383,0.052188,0.008976,0.007960,0.999990,-0.004429,-0.000254,0.000420,0.037975,-0.644336,-0.215208,-0.732854
59671,NaN,5.343419,1.073158,0.425895,-0.138362,0.364319,-4.359862,-0.704281,-0.085296,0.108217,-1.008545,-0.037354,0.319580,0.053427,0.010775,0.004244,0.999994,-0.003521,-0.000426,0.000541,0.036048,-0.644867,-0.212269,-0.733341
59672,NaN,6.003699,0.848866,0.019125,-0.698089,0.555960,-3.815278,-0.503552,-0.101498,0.134546,-1.008789,-0.032959,0.319336,0.060031,0.008530,0.000200,0.999996,-0.002518,-0.000507,0.000673,0.035281,-0.645339,-0.210055,-0.733600
59673,NaN,7.112212,0.423235,-0.089213,-1.112532,1.140964,-2.867825,-0.329873,-0.114040,0.122896,-1.008789,-0.028809,0.319336,0.071120,0.004275,-0.000859,0.999998,-0.001649,-0.000570,0.000614,0.034585,-0.645916,-0.208444,-0.733586
59674,NaN,8.040278,0.470518,-0.490401,-1.615719,1.148909,-1.991089,-0.245604,-0.109428,0.113530,-1.006592,-0.032959,0.313232,0.080403,0.004745,-0.004866,0.999999,-0.001228,-0.000547,0.000568,0.034623,-0.646333,-0.207270,-0.733549
59675,NaN,8.516223,0.522874,-1.010406,-2.152692,1.017562,-1.557335,-0.188896,-0.100187,0.120501,-1.004639,-0.026611,0.321289,0.085164,0.005271,-0.010066,0.999999,-0.000944,-0.000501,0.000603,0.034388,-0.646829,-0.206181,-0.733430
59676,NaN,8.638916,0.538094,-1.426590,-2.548189,0.873076,-1.464033,-0.180339,-0.108851,0.128985,-1.008789,-0.028809,0.325439,0.086393,0.005424,-0.014224,0.999999,-0.000902,-0.000544,0.000645,0.034722,-0.647245,-0.205192,-0.733324
59677,NaN,8.466954,0.850882,-1.624157,-2.596393,0.477519,-1.561511,-0.188293,-0.130418,0.115524,-1.008789,-0.028809,0.321533,0.084675,0.008542,-0.016194,0.999999,-0.000941,-0.000652,0.000578,0.034441,-0.647845,-0.204126,-0.733106
59678,NaN,8.173485,1.266388,-1.609991,-2.395575,0.030262,-1.734200,-0.248324,-0.168500,0.107718,-1.002441,-0.033203,0.331787,0.081742,0.012688,-0.016047,0.999999,-0.001242,-0.000843,0.000539,0.034441,-0.648468,-0.202979,-0.732873
59679,NaN,7.774218,1.438321,-1.565416,-2.226389,-0.196545,-2.069154,-0.347672,-0.221616,0.095864,-1.002686,-0.024658,0.331543,0.077753,0.014393,-0.015593,0.999998,-0.001738,-0.001108,0.000479,0.033479,-0.649406,-0.201408,-0.732520
59680,NaN,7.385719,1.377379,-1.381142,-1.999554,-0.163886,-2.441903,-0.452989,-0.300575,0.102510,-1.004883,-0.024658,0.339844,0.073871,0.013780,-0.013732,0.999996,-0.002265,-0.001503,0.000513,0.032653,-0.650546,-0.199563,-0.732051
59681,NaN,7.291698,1.162531,-1.111077,-1.779866,0.107816,-2.561809,-0.533288,-0.390828,0.128851,-1.002441,-0.028809,0.335693,0.072931,0.011643,-0.010999,0.999994,-0.002666,-0.001954,0.000644,0.031039,-0.652158,-0.197230,-0.731318
59682,NaN,7.555883,0.987015,-0.596156,-1.362827,0.491785,-2.307906,-0.607012,-0.455127,0.151518,-1.004639,-0.026611,0.341797,0.075565,0.009910,-0.005820,0.999993,-0.003035,-0.002276,0.000758,0.029784,-0.653918,-0.194711,-0.730474
59683,NaN,8.125395,1.302459,-0.400778,-1.134735,0.384593,-1.661404,-0.749076,-0.523231,0.175893,-1.000488,-0.028809,0.343994,0.081253,0.013081,-0.003844,0.999989,-0.003745,-0.002616,0.000879,0.027507,-0.656074,-0.191451,-0.729491
59684,NaN,8.205973,1.448009,-0.401191,-1.070692,0.259029,-1.543340,-0.950344,-0.553502,0.195394,-0.991943,-0.026855,0.352051,0.082056,0.014542,-0.003854,0.999984,-0.004752,-0.002767,0.000977,0.025210,-0.658260,-0.187538,-0.728620
59685,NaN,7.967046,1.155405,-0.571045,-1.248953,0.428145,-1.850805,-1.102040,-0.611758,0.190380,-0.998291,-0.028809,0.354248,0.079677,0.011599,-0.005531,0.999980,-0.005510,-0.003059,0.000952,0.021742,-0.660762,-0.182945,-0.727634
59686,NaN,7.941787,1.052812,-0.644735,-1.306591,0.493832,-1.897835,-1.166642,-0.668762,0.185755,-0.994141,-0.029053,0.360352,0.079429,0.010565,-0.006243,0.999977,-0.005833,-0.003344,0.000929,0.018608,-0.663340,-0.178293,-0.726529
59687,NaN,8.057925,0.914791,-0.785281,-1.448637,0.614703,-1.818497,-1.214242,-0.727417,0.162993,-0.989746,-0.029053,0.366455,0.080600,0.009167,-0.007615,0.999975,-0.006071,-0.003637,0.000815,0.014564,-0.666193,-0.173379,-0.725200
59688,NaN,8.199390,0.677930,-0.808303,-1.498294,0.865144,-1.728794,-1.198477,-0.773313,0.145948,-0.989746,-0.033203,0.370605,0.082019,0.006792,-0.007807,0.999974,-0.005992,-0.003867,0.000730,0.011107,-0.669062,-0.168743,-0.723712
59689,NaN,8.388642,0.376441,-0.594376,-1.327155,1.256887,-1.595458,-1.141546,-0.820636,0.135823,-0.983154,-0.037598,0.376953,0.083907,0.003789,-0.005621,0.999975,-0.005708,-0.004103,0.000679,0.007127,-0.672161,-0.164174,-0.721939
59690,NaN,8.563192,0.105102,-0.315298,-1.071962,1.623233,-1.466772,-1.068757,-0.845313,0.132025,-0.987549,-0.035400,0.389160,0.085644,0.001092,-0.002797,0.999977,-0.005344,-0.004227,0.000660,0.003970,-0.675226,-0.160011,-0.720035
59691,NaN,8.600490,-0.135819,-0.070877,-0.819079,1.925371,-1.469219,-0.975835,-0.859048,0.127273,-0.976807,-0.035400,0.395264,0.086008,-0.001306,-0.000333,0.999979,-0.004879,-0.004295,0.000636,0.000487,-0.678393,-0.156056,-0.717934
59692,NaN,8.623184,-0.325507,0.168947,-0.553864,2.163676,-1.475720,-0.883849,-0.868600,0.130033,-0.974609,-0.039795,0.405518,0.086225,-0.003190,0.002078,0.999981,-0.004419,-0.004343,0.000650,-0.002034,-0.681485,-0.152577,-0.715748
59693,NaN,8.676858,-0.487094,0.313394,-0.370659,2.363038,-1.451978,-0.798181,-0.877844,0.138403,-0.974609,-0.037598,0.413818,0.086757,-0.004797,0.003534,0.999982,-0.003991,-0.004389,0.000692,-0.004887,-0.684679,-0.149212,-0.713391
59694,NaN,8.922272,-0.579127,0.443522,-0.197428,2.524574,-1.226303,-0.683015,-0.885887,0.142840,-0.974609,-0.041992,0.417969,0.089206,-0.005711,0.004850,0.999984,-0.003415,-0.004429,0.000714,-0.006702,-0.687810,-0.146383,-0.710947
59695,NaN,9.282356,-0.702779,0.614904,0.012264,2.752795,-0.898907,-0.539542,-0.876975,0.136483,-0.970215,-0.041992,0.426025,0.092800,-0.006947,0.006575,0.999987,-0.002698,-0.004385,0.000682,-0.008673,-0.690966,-0.143939,-0.708359
59696,NaN,9.587800,-0.496636,0.906633,0.404314,2.669499,-0.555027,-0.363459,-0.826268,0.097944,-0.966064,-0.041992,0.434326,0.095842,-0.004902,0.009471,0.999990,-0.001817,-0.004131,0.000490,-0.009526,-0.693842,-0.142341,-0.705855
59697,NaN,9.731335,-0.126571,1.265668,0.897573,2.413928,-0.342542,-0.185697,-0.764833,0.063524,-0.961914,-0.035645,0.436279,0.097264,-0.001223,0.013030,0.999992,-0.000928,-0.003824,0.000318,-0.010449,-0.696539,-0.141402,-0.703370
59698,NaN,9.965714,0.028211,1.684519,1.400165,2.389773,-0.092505,-0.032937,-0.709217,0.045241,-0.961914,-0.037842,0.450684,0.099597,0.000307,0.017198,0.999994,-0.000165,-0.003546,0.000226,-0.010243,-0.698958,-0.141145,-0.701021
59699,NaN,10.276780,0.138380,2.092443,1.880335,2.431951,0.215237,0.079073,-0.628591,-0.001195,-0.959717,-0.037842,0.450684,0.102701,0.001375,0.021248,0.999995,0.000395,-0.003143,-0.000006,-0.010372,-0.701128,-0.141366,-0.698805
59700,NaN,10.573239,0.194561,2.423501,2.267689,2.509576,0.495750,0.166335,-0.559690,-0.069424,-0.951416,-0.037842,0.454834,0.105665,0.001889,0.024532,0.999996,0.000832,-0.002798,-0.000347,-0.009777,-0.702939,-0.142194,-0.696823
59701,NaN,10.950451,0.147320,2.792553,2.668138,2.725437,0.826165,0.249275,-0.474634,-0.127581,-0.951660,-0.031494,0.456787,0.109439,0.001368,0.028187,0.999996,0.001246,-0.002373,-0.000638,-0.009640,-0.704478,-0.143460,-0.695009
59702,NaN,11.558432,0.003997,3.063575,2.941128,3.067438,1.364217,0.329289,-0.377626,-0.176864,-0.951172,-0.040039,0.458984,0.115526,-0.000113,0.030854,0.999996,0.001646,-0.001888,-0.000884,-0.008724,-0.705573,-0.145206,-0.693546
59703,NaN,12.253935,0.066259,3.409692,3.317893,3.263915,2.024859,0.393532,-0.247139,-0.255139,-0.947021,-0.037842,0.454834,0.122498,0.000439,0.034249,0.999996,0.001968,-0.001236,-0.001276,-0.008356,-0.706226,-0.147431,-0.692416
59704,NaN,12.739320,0.555764,3.388667,3.404001,2.940301,2.590914,0.374886,-0.145763,-0.336776,-0.947021,-0.040039,0.460938,0.127378,0.005279,0.033990,0.999997,0.001874,-0.000729,-0.001684,-0.007727,-0.706401,-0.149818,-0.691732
59705,NaN,13.246498,1.366301,3.137597,3.325269,2.289592,3.259458,0.270419,-0.103171,-0.425282,-0.942871,-0.035889,0.460938,0.132477,0.013339,0.031462,0.999997,0.001352,-0.000516,-0.002126,-0.008275,-0.706413,-0.152222,-0.691188
59706,NaN,13.975101,2.370972,2.833143,3.227298,1.492255,4.198343,0.073549,-0.061412,-0.476916,-0.948975,-0.046387,0.454834,0.139798,0.023366,0.028383,0.999997,0.000368,-0.000307,-0.002385,-0.009121,-0.706161,-0.154060,-0.691027
59707,NaN,14.910733,3.274658,2.784837,3.353102,0.910244,5.311343,-0.183010,-0.061950,-0.559997,-0.944580,-0.050781,0.463135,0.149190,0.032354,0.027865,0.999996,-0.000915,-0.000310,-0.002800,-0.011704,-0.705898,-0.155373,-0.690963
59708,NaN,16.274349,4.240135,2.979981,3.714700,0.415956,6.852872,-0.469698,-0.072275,-0.573912,-0.944092,-0.063477,0.463379,0.162854,0.042004,0.029760,0.999993,-0.002348,-0.000361,-0.002870,-0.014847,-0.705573,-0.155624,-0.691178
59709,NaN,17.495151,5.421818,3.232165,4.148644,-0.298839,8.315251,-0.844758,0.015235,-0.521306,-0.939697,-0.065674,0.455322,0.175095,0.053898,0.032080,0.999988,-0.004224,0.000076,-0.002607,-0.019570,-0.705009,-0.154514,-0.691885
59710,NaN,17.773315,7.131064,3.051015,4.195532,-1.870759,9.027367,-1.353785,0.196635,-0.405735,-0.939453,-0.078369,0.455566,0.177907,0.071153,0.029853,0.999975,-0.006769,0.000983,-0.002029,-0.025069,-0.703773,-0.151122,-0.693713
59711,NaN,16.303035,8.609373,2.574359,3.819342,-3.741866,8.018300,-1.883088,0.419550,-0.236038,-0.943359,-0.088867,0.447510,0.163184,0.086136,0.024590,0.999953,-0.009415,0.002098,-0.001180,-0.032148,-0.701834,-0.145439,-0.696594
59712,NaN,13.670849,8.947283,2.158956,3.243342,-4.861853,5.596498,-2.307506,0.603257,0.005214,-0.949219,-0.097412,0.439453,0.136768,0.089714,0.020143,0.999929,-0.011537,0.003016,0.000026,-0.039366,-0.699239,-0.137297,-0.700475
59713,NaN,11.018341,8.838713,1.767711,2.603349,-5.566040,3.028070,-2.561218,0.725958,0.217556,-0.949219,-0.103760,0.435547,0.110147,0.088720,0.016142,0.999911,-0.012806,0.003630,0.001088,-0.047009,-0.696242,-0.127670,-0.704796
59714,NaN,8.234060,9.401848,1.523199,2.196535,-6.929942,0.466280,-2.677668,0.729402,0.384757,-0.953125,-0.107910,0.423340,0.082211,0.094367,0.013670,0.999902,-0.013388,0.003647,0.001924,-0.054185,-0.693151,-0.116897,-0.709183
59715,NaN,6.299799,9.863822,0.669326,1.135508,-8.015257,-1.334058,-2.891781,0.729556,0.529874,-0.955078,-0.114258,0.415039,0.062757,0.098886,0.005035,0.999885,-0.014458,0.003648,0.002649,-0.061849,-0.689972,-0.104965,-0.713510
59716,NaN,5.425341,10.166217,-0.722267,-0.534411,-8.672753,-2.210372,-3.052840,0.697739,0.626814,-0.961182,-0.120605,0.400879,0.053905,0.101704,-0.008963,0.999873,-0.015264,0.003489,0.003134,-0.069517,-0.686712,-0.092015,-0.717724
59717,NaN,5.806763,10.713585,-2.212442,-2.379874,-9.195829,-1.865653,-3.094026,0.613959,0.654488,-0.961182,-0.120605,0.394775,0.057646,0.106964,-0.023957,0.999870,-0.015469,0.003070,0.003272,-0.077454,-0.683604,-0.078842,-0.721436
59718,NaN,7.174654,11.089875,-3.263938,-3.880313,-9.248624,-0.619942,-3.223613,0.509149,0.602749,-0.965332,-0.122559,0.386719,0.071327,0.110567,-0.034605,0.999862,-0.016117,0.002546,0.003014,-0.086006,-0.680602,-0.065298,-0.724652
59719,NaN,8.833612,10.627380,-3.937025,-5.033084,-8.358380,0.735465,-3.605197,0.446292,0.515461,-0.963135,-0.131104,0.380615,0.087972,0.105766,-0.041476,0.999832,-0.018025,0.002231,0.002577,-0.096201,-0.677446,-0.050640,-0.727495
59720,NaN,10.076754,9.442309,-4.063878,-5.564488,-6.809910,1.582841,-4.151026,0.332953,0.318546,-0.962646,-0.145996,0.368652,0.100548,0.093711,-0.042756,0.999782,-0.020754,0.001665,0.001593,-0.108946,-0.674114,-0.034619,-0.729728
59721,NaN,11.006958,8.087620,-4.049593,-5.857250,-5.112104,2.124812,-4.795114,0.232641,0.104550,-0.966309,-0.160645,0.360596,0.109979,0.079930,-0.042548,0.999712,-0.023973,0.001163,0.000523,-0.124611,-0.670433,-0.016868,-0.731237
59722,NaN,11.375413,6.228644,-4.303820,-6.179850,-2.945775,2.012526,-5.311780,0.195722,-0.078692,-0.969971,-0.179688,0.348633,0.113735,0.061068,-0.044782,0.999647,-0.026556,0.000978,-0.000393,-0.142568,-0.666113,0.002089,-0.732095
59723,NaN,11.044952,4.664600,-4.457324,-6.229212,-1.169114,1.297376,-5.705324,0.141339,-0.350822,-0.962891,-0.198975,0.332764,0.110497,0.045154,-0.045954,0.999591,-0.028523,0.000707,-0.001754,-0.162754,-0.661215,0.021719,-0.732006
59724,NaN,10.889945,1.706539,-4.870677,-5.934874,2.040497,0.474695,-5.754936,0.150545,-0.444462,-0.964355,-0.219971,0.320801,0.108898,0.015411,-0.049248,0.999583,-0.028771,0.000753,-0.002222,-0.183272,-0.655713,0.041065,-0.731277
59725,NaN,10.167484,-0.416068,-4.552678,-4.850027,4.073252,-0.639052,-5.477057,0.183193,-0.592583,-0.961426,-0.241211,0.302734,0.101618,-0.005708,-0.045478,0.999620,-0.027382,0.000916,-0.002963,-0.203323,-0.649850,0.058979,-0.729983
59726,NaN,9.499119,-0.597861,-3.883221,-3.999305,4.113298,-1.283299,-5.040427,0.155061,-0.752484,-0.965088,-0.260254,0.292969,0.094935,-0.007313,-0.038733,0.999675,-0.025199,0.000775,-0.003762,-0.222356,-0.644140,0.074667,-0.728057
59727,NaN,8.298534,-0.816088,-2.914806,-2.833590,3.841576,-2.380465,-4.615202,0.129006,-0.597361,-0.958252,-0.273193,0.282959,0.082940,-0.009079,-0.028999,0.999729,-0.023074,0.000645,-0.002987,-0.239345,-0.638540,0.089391,-0.725941
59728,NaN,7.079951,0.093884,-2.270864,-2.518113,2.618141,-3.324675,-4.228418,0.041538,-0.520557,-0.959717,-0.292236,0.264893,0.070796,0.000274,-0.022734,0.999773,-0.021140,0.000208,-0.002603,-0.254646,-0.633392,0.102960,-0.723443
59729,NaN,6.032090,1.480824,-2.107307,-2.965473,1.231933,-4.093704,-3.778289,-0.015683,-0.479041,-0.957275,-0.300537,0.254883,0.060357,0.014262,-0.021341,0.999819,-0.018890,-0.000078,-0.002395,-0.268256,-0.628721,0.115121,-0.720761
59730,NaN,5.510640,2.101594,-1.809933,-3.011505,0.553108,-4.456974,-3.311857,-0.065037,-0.424820,-0.954590,-0.317627,0.246826,0.055156,0.020596,-0.018425,0.999861,-0.016559,-0.000325,-0.002124,-0.280080,-0.624649,0.125761,-0.718020
59731,NaN,5.229524,1.979167,-1.460759,-2.645977,0.491303,-4.698423,-2.864729,-0.096642,-0.414960,-0.946045,-0.319824,0.244873,0.052343,0.019471,-0.014863,0.999895,-0.014323,-0.000483,-0.002075,-0.290395,-0.621130,0.134879,-0.715315
59732,NaN,5.183518,2.048334,-0.971661,-2.295332,0.227264,-4.646636,-2.525418,-0.121651,-0.438312,-0.951904,-0.334473,0.237061,0.051886,0.020245,-0.009942,0.999918,-0.012627,-0.000608,-0.002191,-0.299661,-0.618126,0.142686,-0.712575
59733,NaN,5.179462,1.992798,-0.647243,-2.012609,0.143172,-4.602539,-2.336259,-0.153605,-0.445159,-0.949707,-0.338867,0.226807,0.051844,0.019736,-0.006664,0.999929,-0.011681,-0.000768,-0.002226,-0.308306,-0.615397,0.149860,-0.709772
59734,NaN,5.342408,1.385333,-0.721807,-1.700516,0.742509,-4.564999,-2.223051,-0.215765,-0.454376,-0.947266,-0.349365,0.224854,0.053463,0.013651,-0.007313,0.999935,-0.011115,-0.001079,-0.002272,-0.316540,-0.613024,0.156641,-0.706730
59735,NaN,5.653208,0.658570,-0.741200,-1.246977,1.417521,-4.392597,-2.205109,-0.278902,-0.475277,-0.938721,-0.353760,0.220947,0.056558,0.006370,-0.007404,0.999935,-0.011025,-0.001394,-0.002376,-0.324710,-0.610802,0.163413,-0.703406
59736,NaN,5.960128,0.139352,-0.782343,-0.914149,1.932246,-4.192621,-2.197913,-0.354477,-0.493936,-0.940186,-0.368652,0.213135,0.059618,0.001161,-0.007731,0.999935,-0.010989,-0.001772,-0.002470,-0.332818,-0.608834,0.170175,-0.699710
59737,NaN,6.266445,-0.273766,-0.855340,-0.651347,2.375080,-3.980935,-2.192734,-0.427942,-0.492065,-0.937988,-0.375000,0.215332,0.062675,-0.002984,-0.008387,0.999935,-0.010963,-0.002140,-0.002460,-0.340800,-0.607011,0.177054,-0.695734
59738,NaN,6.510600,-0.642219,-1.006219,-0.449649,2.808414,-3.835813,-2.211328,-0.509882,-0.497688,-0.931396,-0.379150,0.203125,0.065115,-0.006694,-0.009823,0.999933,-0.011056,-0.002549,-0.002488,-0.348747,-0.605406,0.184089,-0.691354
59739,NaN,6.729321,-0.874012,-1.130144,-0.302523,3.112536,-3.685298,-2.189933,-0.590947,-0.512598,-0.933350,-0.387695,0.201172,0.067303,-0.009034,-0.011005,0.999932,-0.010949,-0.002955,-0.002563,-0.356553,-0.604011,0.191128,-0.686666
59740,NaN,6.965023,-0.860160,-1.137808,-0.234789,3.167585,-3.452136,-2.091560,-0.687609,-0.553886,-0.928711,-0.396240,0.201416,0.069664,-0.008911,-0.011046,0.999936,-0.010458,-0.003438,-0.002769,-0.364082,-0.603123,0.197876,-0.681566
59741,NaN,7.324944,-0.974456,-1.038791,0.006021,3.257046,-3.098950,-2.053264,-0.747331,-0.559319,-0.926270,-0.408936,0.201660,0.073259,-0.010054,-0.010012,0.999936,-0.010266,-0.003737,-0.002797,-0.371391,-0.602397,0.204536,-0.676277
59742,NaN,7.507765,-1.416169,-0.866107,0.551387,3.440886,-2.958672,-2.000149,-0.811545,-0.561152,-0.921875,-0.413086,0.203613,0.075071,-0.014456,-0.008213,0.999938,-0.010001,-0.004058,-0.002806,-0.378462,-0.601952,0.211161,-0.670695
59743,NaN,7.811476,-1.494316,-0.626389,0.872892,3.357596,-2.628812,-1.887643,-0.862430,-0.590915,-0.923584,-0.421631,0.203857,0.078096,-0.015230,-0.005784,0.999942,-0.009438,-0.004312,-0.002955,-0.385168,-0.601811,0.217334,-0.665008
59744,NaN,7.916959,-1.491271,-0.238028,1.222785,3.048018,-2.452516,-1.785879,-0.912776,-0.608034,-0.912842,-0.427979,0.199951,0.079133,-0.015172,-0.001884,0.999945,-0.008929,-0.004564,-0.003040,-0.391564,-0.602019,0.223281,-0.659088
59745,NaN,7.929760,-1.503836,0.096433,1.539497,2.753077,-2.382925,-1.690604,-0.969742,-0.606757,-0.908203,-0.436523,0.202148,0.079245,-0.015268,0.001477,0.999948,-0.008453,-0.004849,-0.003034,-0.397526,-0.602501,0.228914,-0.653119
59746,NaN,8.026207,-1.694046,0.445796,2.005064,2.553512,-2.266387,-1.588114,-1.032658,-0.613351,-0.908203,-0.442871,0.206299,0.080185,-0.017148,0.005008,0.999950,-0.007940,-0.005163,-0.003067,-0.403133,-0.603370,0.234415,-0.646899
59747,NaN,8.135670,-1.862113,0.739622,2.417410,2.372767,-2.149238,-1.477295,-1.088236,-0.620723,-0.901367,-0.453613,0.210693,0.081256,-0.018816,0.007977,0.999953,-0.007386,-0.005441,-0.003104,-0.408281,-0.604561,0.239504,-0.640663
59748,NaN,8.228292,-1.888791,1.054101,2.725202,2.077264,-2.025496,-1.356954,-1.141062,-0.629323,-0.894775,-0.458008,0.212646,0.082161,-0.019072,0.011139,0.999956,-0.006785,-0.005705,-0.003147,-0.413041,-0.606148,0.244416,-0.634226
59749,NaN,8.352564,-1.988117,1.423212,3.121024,1.775307,-1.884920,-1.222320,-1.191963,-0.633325,-0.890381,-0.466553,0.218994,0.083375,-0.020056,0.014852,0.999959,-0.006112,-0.005960,-0.003167,-0.417260,-0.608103,0.248824,-0.627846
59750,NaN,8.519327,-2.147156,1.896561,3.625819,1.412807,-1.710714,-1.093248,-1.235855,-0.639200,-0.883789,-0.474854,0.221191,0.085004,-0.021637,0.019609,0.999961,-0.005466,-0.006179,-0.003196,-0.421067,-0.610441,0.253052,-0.621312
59751,NaN,8.933065,-2.335953,2.661994,4.335318,0.862923,-1.280332,-0.955482,-1.282163,-0.625415,-0.885498,-0.481445,0.231689,0.089084,-0.023509,0.027304,0.999963,-0.004777,-0.006411,-0.003127,-0.424269,-0.613133,0.256802,-0.614912
59752,NaN,9.683044,-2.330020,3.555648,4.986846,0.150063,-0.488543,-0.849534,-1.300224,-0.610958,-0.868652,-0.483643,0.237793,0.096525,-0.023442,0.036284,0.999965,-0.004248,-0.006501,-0.003055,-0.427097,-0.616051,0.260477,-0.608458
59753,NaN,10.276915,-2.077338,4.212498,5.287335,-0.533874,0.158883,-0.789160,-1.297081,-0.608974,-0.870605,-0.487793,0.248047,0.102429,-0.020917,0.042872,0.999967,-0.003946,-0.006485,-0.003045,-0.429659,-0.619036,0.263763,-0.602177
59754,NaN,10.376289,-1.672233,4.691204,5.295311,-1.248954,0.329735,-0.772274,-1.265717,-0.590192,-0.864014,-0.496338,0.252441,0.103413,-0.016845,0.047632,0.999968,-0.003861,-0.006329,-0.002951,-0.432169,-0.621896,0.267164,-0.595902
59755,NaN,10.440581,-1.208760,5.330147,5.315765,-2.131232,0.486620,-0.764119,-1.234008,-0.546051,-0.857422,-0.502686,0.256592,0.104041,-0.012167,0.053991,0.999970,-0.003821,-0.006170,-0.002730,-0.434493,-0.624584,0.270401,-0.589910
59756,NaN,10.561490,-0.828103,5.722639,5.271977,-2.755682,0.655839,-0.769236,-1.181391,-0.491912,-0.855225,-0.504883,0.260742,0.105254,-0.008318,0.057881,0.999972,-0.003846,-0.005907,-0.002460,-0.436756,-0.626986,0.273873,-0.584061
59757,NaN,10.817782,-0.601022,5.828345,5.228938,-3.031662,0.902755,-0.753201,-1.142064,-0.439696,-0.848633,-0.511475,0.269043,0.107829,-0.006026,0.058923,0.999974,-0.003766,-0.005710,-0.002198,-0.438810,-0.629214,0.277181,-0.578538
59758,NaN,11.337847,-0.528965,5.816735,5.304848,-3.094612,1.365025,-0.678757,-1.089613,-0.402174,-0.844238,-0.515625,0.273193,0.113049,-0.005318,0.058802,0.999977,-0.003394,-0.005448,-0.002011,-0.440598,-0.631353,0.280420,-0.573264
59759,NaN,11.875638,-0.478659,5.791275,5.401896,-3.129508,1.841620,-0.545556,-1.020984,-0.331574,-0.844238,-0.513428,0.277344,0.118451,-0.004824,0.058531,0.999982,-0.002728,-0.005105,-0.001658,-0.441816,-0.633484,0.283181,-0.568600
59760,NaN,12.467801,-0.560444,5.948925,5.708726,-3.259139,2.350247,-0.370603,-0.905576,-0.230035,-0.842041,-0.517822,0.283447,0.124400,-0.005637,0.060063,0.999987,-0.001853,-0.004528,-0.001150,-0.442357,-0.635483,0.285634,-0.564708
59761,NaN,12.537911,-0.132163,6.152229,5.489170,-3.714943,2.480968,-0.197453,-0.728479,-0.134162,-0.833496,-0.515625,0.289795,0.125153,-0.001345,0.061980,0.999993,-0.000987,-0.003642,-0.000671,-0.442305,-0.637242,0.287375,-0.561875
59762,NaN,12.057131,1.254586,6.010991,4.160478,-4.343939,2.307562,-0.108665,-0.615407,-0.117354,-0.831299,-0.517822,0.289795,0.120393,0.012508,0.060474,0.999995,-0.000543,-0.003077,-0.000587,-0.442088,-0.638814,0.288770,-0.559541
59763,NaN,12.009531,2.055899,5.660672,3.317937,-4.456805,2.419506,-0.143185,-0.530046,0.032749,-0.831543,-0.513672,0.293701,0.119941,0.020619,0.056910,0.999996,-0.000716,-0.002650,0.000164,-0.441673,-0.639884,0.290446,-0.557777
59764,NaN,12.122016,2.802468,5.481113,2.613930,-4.673720,2.683835,-0.260477,-0.476873,0.085970,-0.827393,-0.511475,0.297852,0.121077,0.028148,0.055063,0.999996,-0.001302,-0.002384,0.000430,-0.441557,-0.640425,0.292563,-0.556138
59765,NaN,12.003415,3.371202,5.535147,2.100421,-5.039305,2.688438,-0.506766,-0.390728,0.165193,-0.827148,-0.515869,0.295898,0.119898,0.033952,0.055500,0.999995,-0.002534,-0.001954,0.000826,-0.442133,-0.640100,0.295363,-0.554573
59766,NaN,11.021541,3.493928,5.593586,1.758123,-5.297702,1.755066,-0.834507,-0.278227,0.268835,-0.829590,-0.511475,0.293701,0.110090,0.035321,0.055942,0.999989,-0.004173,-0.001391,0.001344,-0.443619,-0.638537,0.299165,-0.553148
59767,NaN,9.501244,3.599170,5.476326,1.210899,-5.431091,0.299382,-1.134613,-0.183003,0.342502,-0.827393,-0.513672,0.287598,0.094900,0.036465,0.054644,0.999982,-0.005673,-0.000915,0.001713,-0.446000,-0.635955,0.303798,-0.551682
59768,NaN,8.690969,3.457140,5.433349,1.047229,-5.435947,-0.519738,-1.227847,-0.155712,0.368650,-0.829590,-0.509277,0.287598,0.086803,0.035064,0.054187,0.999979,-0.006139,-0.000779,0.001843,-0.448608,-0.632989,0.308661,-0.550276
59769,NaN,9.358987,3.252322,5.898243,1.452847,-5.723812,0.091035,-1.138707,-0.119773,0.402350,-0.838135,-0.509277,0.279297,0.093488,0.033047,0.058851,0.999982,-0.005693,-0.000599,0.002012,-0.450900,-0.630084,0.313330,-0.549097
59770,NaN,10.547692,2.836572,6.633212,2.249357,-6.130901,1.171424,-0.949556,-0.047218,0.502796,-0.835938,-0.507080,0.275146,0.105389,0.028945,0.066220,0.999986,-0.004748,-0.000236,0.002514,-0.452389,-0.627194,0.317533,-0.548766
59771,NaN,12.263601,2.289408,7.215062,3.185693,-6.306341,2.748141,-0.775652,0.100755,0.584556,-0.838379,-0.498779,0.269043,0.122604,0.023532,0.071998,0.999988,-0.003878,0.000504,0.002923,-0.453361,-0.624179,0.321261,-0.549231
59772,NaN,13.636221,1.891730,7.236734,3.673702,-6.047721,4.037313,-0.671303,0.313171,0.691048,-0.840576,-0.496582,0.266846,0.136408,0.019631,0.072089,0.999987,-0.003356,0.001566,0.003455,-0.454002,-0.620599,0.324401,-0.550911
59773,NaN,14.918837,1.816760,6.937726,3.692987,-5.607210,5.317495,-0.632096,0.527464,0.812150,-0.843018,-0.490234,0.258545,0.149295,0.018992,0.068924,0.999983,-0.003160,0.002637,0.004061,-0.454564,-0.616335,0.327458,-0.553421
59774,NaN,16.265427,2.093985,6.177361,3.177970,-4.830480,6.730316,-0.647292,0.715188,0.962867,-0.851807,-0.477295,0.252197,0.162770,0.021922,0.061122,0.999977,-0.003236,0.003576,0.004814,-0.454988,-0.611212,0.330388,-0.557000
59775,NaN,17.818381,2.333282,5.164203,2.569919,-3.751388,8.323545,-0.658932,0.961387,1.130154,-0.858398,-0.470947,0.231445,0.178293,0.024508,0.050706,0.999967,-0.003295,0.004807,0.005651,-0.455417,-0.605099,0.333476,-0.561466
59776,NaN,18.743283,2.462546,4.096340,1.875199,-2.586519,9.264453,-0.618985,1.258105,1.273042,-0.861084,-0.458008,0.223145,0.187523,0.025943,0.039705,0.999955,-0.003095,0.006290,0.006365,-0.455713,-0.597925,0.335957,-0.567401
59777,NaN,18.931761,2.455099,3.340557,1.268562,-1.699412,9.450919,-0.528160,1.546006,1.420101,-0.876221,-0.445312,0.202393,0.189387,0.025981,0.031874,0.999941,-0.002641,0.007730,0.007100,-0.455823,-0.589865,0.338155,-0.574401
59778,NaN,18.750370,2.495875,2.871145,0.641871,-1.093228,9.277215,-0.424345,1.796227,1.548092,-0.891602,-0.432373,0.193848,0.187550,0.026469,0.026972,0.999927,-0.002122,0.008981,0.007740,-0.455541,-0.580993,0.339580,-0.582764
59779,NaN,18.683794,2.829206,2.814600,-0.125330,-0.935562,9.268651,-0.348161,2.048336,1.731896,-0.894287,-0.413086,0.171143,0.186858,0.029957,0.026181,0.999909,-0.001741,0.010241,0.008659,-0.454931,-0.571187,0.340924,-0.592076
59780,NaN,18.377040,3.496174,2.977302,-1.187898,-1.100068,9.059371,-0.331043,2.315603,1.959281,-0.903320,-0.394043,0.146240,0.183744,0.036809,0.027586,0.999884,-0.001655,0.011578,0.009796,-0.453868,-0.560086,0.341946,-0.602810
59781,NaN,17.510663,4.164615,3.178775,-2.291341,-1.388785,8.266658,-0.343908,2.516147,2.192369,-0.912598,-0.376953,0.127441,0.175017,0.043617,0.029512,0.999859,-0.001719,0.012580,0.010961,-0.452449,-0.547842,0.343358,-0.614218
59782,NaN,16.439728,4.533298,3.248714,-3.169158,-1.498022,7.188772,-0.430616,2.678520,2.468510,-0.928223,-0.353271,0.096191,0.164235,0.047427,0.030186,0.999832,-0.002153,0.013392,0.012342,-0.450454,-0.534229,0.345069,-0.626592
59783,NaN,14.719640,4.844442,3.307353,-3.943718,-1.743508,5.433725,-0.574772,2.738374,2.616083,-0.933105,-0.329834,0.071289,0.146978,0.050459,0.030917,0.999817,-0.002874,0.013691,0.013080,-0.448423,-0.519690,0.347619,-0.638749
59784,NaN,12.812795,5.025257,3.264791,-4.521026,-1.939939,3.448263,-0.786642,2.741814,2.642404,-0.938232,-0.304443,0.046387,0.127878,0.052067,0.030691,0.999811,-0.003933,0.013708,0.013211,-0.446576,-0.504405,0.350514,-0.650604
59785,NaN,11.248198,5.059949,3.419582,-4.806634,-2.244663,1.834488,-1.042651,2.653327,2.641389,-0.947754,-0.276611,0.015137,0.112237,0.052255,0.032436,0.999811,-0.005213,0.013266,0.013206,-0.445166,-0.488666,0.354567,-0.661298
59786,NaN,9.937013,4.927148,3.596547,-4.864289,-2.492819,0.486063,-1.343354,2.541894,2.606390,-0.950684,-0.253174,-0.011963,0.099158,0.050799,0.034366,0.999812,-0.006716,0.012709,0.013031,-0.444103,-0.472499,0.359362,-0.671101
59787,NaN,9.004104,4.511421,3.534462,-4.717558,-2.367006,-0.536535,-1.706612,2.395690,2.536764,-0.955566,-0.229736,-0.032715,0.089868,0.046548,0.033874,0.999811,-0.008533,0.011978,0.012683,-0.443830,-0.455967,0.365683,-0.679254
59788,NaN,8.866126,3.027312,3.650877,-3.624441,-1.857612,-0.620245,-2.121457,2.233859,2.552655,-0.956787,-0.197754,-0.066162,0.088660,0.031783,0.035187,0.999800,-0.010607,0.011169,0.012762,-0.443824,-0.438871,0.373367,-0.686301
