// Start Time: Unknown
// Update Rate: 100.0Hz
// Filter Profile: human (46.1)
// Firmware Version: 4.4.0
PacketCounter,SampleTimeFine,Acc_X,Acc_Y,Acc_Z,FreeAcc_X,FreeAcc_Y,FreeAcc_Z,Gyr_X,Gyr_Y,Gyr_Z,Mag_X,Mag_Y,Mag_Z,VelInc_X,VelInc_Y,VelInc_Z,OriInc_q0,OriInc_q1,OriInc_q2,OriInc_q3,Quat_q0,Quat_q1,Quat_q2,Quat_q3
32415,NaN,25.487800,3.376774,8.371504,-0.000000,0.000000,17.225587,-0.274752,-0.599267,2.663307,-0.954834,-0.387695,-0.129639,0.254145,0.037271,0.084428,0.999906,-0.001374,-0.002996,0.013316,-0.415800,-0.541604,0.224808,-0.695152
32416,NaN,25.190823,1.730451,7.557526,0.000000,-0.000000,16.543218,-0.404251,-0.785289,2.967274,-0.955811,-0.355713,-0.123535,0.251314,0.021190,0.076523,0.999880,-0.002021,-0.003926,0.014836,-0.429214,-0.528461,0.274878,-0.678931
32417,NaN,24.882374,1.716723,6.545315,0.098202,1.627592,15.920539,-0.521237,-0.960557,3.205719,-0.973633,-0.325684,-0.125732,0.248186,0.021321,0.066594,0.999857,-0.002606,-0.004803,0.016028,-0.390350,-0.543911,0.237377,-0.703875
32418,NaN,23.312068,1.408849,5.048620,-0.835904,1.780004,13.999085,-0.548233,-1.370911,3.174463,-0.970215,-0.297852,-0.108887,0.232503,0.017923,0.052036,0.999847,-0.002741,-0.006854,0.015872,-0.378982,-0.543815,0.250578,-0.705584
32419,NaN,21.215603,0.201218,4.116784,-0.485149,2.020963,11.698053,-0.460761,-2.264669,3.119297,-1.000732,-0.265869,-0.090088,0.211605,0.005414,0.043556,0.999812,-0.002304,-0.011323,0.015596,-0.368660,-0.545551,0.263521,-0.704997
32420,NaN,19.793739,-1.703535,3.528857,0.673309,2.444322,10.203651,-0.391613,-2.887554,3.300957,-0.994873,-0.242188,-0.062744,0.197645,-0.013699,0.038173,0.999758,-0.001958,-0.014437,0.016503,-0.354199,-0.550525,0.279163,-0.702519
32421,NaN,17.983495,-0.565140,2.437561,-0.785277,1.459478,8.266791,-0.577185,-2.963641,3.184818,-1.012695,-0.214355,-0.039795,0.179506,-0.002716,0.027048,0.999759,-0.002886,-0.014817,0.015923,-0.341517,-0.554854,0.296189,-0.698409
32422,NaN,16.505210,0.306040,2.374199,-1.440096,0.044054,6.801658,-1.120767,-2.890665,2.875603,-1.007080,-0.184570,-0.012451,0.164618,0.005571,0.026097,0.999776,-0.005603,-0.014452,0.014377,-0.330229,-0.558651,0.312949,-0.693485
32423,NaN,14.614830,1.814321,3.517473,-1.855918,-2.551128,4.995225,-1.975083,-2.619680,2.786842,-1.024658,-0.163086,0.000244,0.145398,0.020531,0.036888,0.999768,-0.009875,-0.013097,0.013933,-0.324737,-0.559018,0.332774,-0.686517
32424,NaN,9.173327,4.269164,4.311152,-2.759939,-5.406571,-0.642229,-3.402159,-1.821171,2.703215,-1.019043,-0.139648,0.001953,0.090745,0.044657,0.043192,0.999723,-0.017009,-0.009105,0.013515,-0.321848,-0.555093,0.354871,-0.679965
32425,NaN,-0.186926,6.246793,3.386582,-3.479049,-6.172075,-10.374869,-4.704748,-1.283636,2.148208,-1.036377,-0.124512,-0.002197,-0.002757,0.063215,0.032369,0.999645,-0.023521,-0.006417,0.010740,-0.327108,-0.547909,0.373594,-0.673218
32426,NaN,-12.012342,6.241281,-7.630837,-6.761245,3.236570,-23.424247,-3.565915,-0.382196,0.507004,-1.023926,-0.120361,-0.004395,-0.120131,0.060732,-0.077631,0.999836,-0.017829,-0.001911,0.002535,-0.334403,-0.542327,0.387549,-0.666229
32427,NaN,-3.619333,4.833207,-17.804114,-12.094583,12.931952,-16.130187,2.701011,-0.788802,0.254019,-1.038574,-0.120361,0.012451,-0.035556,0.050686,-0.177508,0.999900,0.013505,-0.003944,0.001270,-0.326109,-0.550770,0.373464,-0.671439
32428,NaN,-1.997924,-3.780625,-9.584638,-1.408351,10.095633,-12.308169,4.228495,-1.218400,0.433212,-1.023682,-0.116211,0.035645,-0.019313,-0.035809,-0.096737,0.999756,0.021141,-0.006092,0.002166,-0.310656,-0.560811,0.362358,-0.676521
32429,NaN,-0.348084,-11.215195,-0.599496,9.242077,6.274861,-8.600963,1.448977,-1.610931,0.713297,-1.034668,-0.109619,0.048340,-0.003028,-0.112116,-0.006833,0.999935,0.007245,-0.008054,0.003566,-0.313201,-0.565282,0.376855,-0.663583
32430,NaN,-2.082626,-11.766080,1.722136,11.184692,4.540206,-9.974323,-2.735699,-2.239929,0.918341,-1.021973,-0.105469,0.065186,-0.020490,-0.117507,0.018599,0.999833,-0.013678,-0.011199,0.004591,-0.313613,-0.566605,0.391971,-0.653425
32431,NaN,0.617227,-12.121002,2.073721,11.568047,3.222391,-7.096395,-3.690137,-1.706454,0.709479,-1.030273,-0.103271,0.071533,0.006411,-0.120777,0.023022,0.999787,-0.018449,-0.008532,0.003547,-0.331682,-0.555680,0.432190,-0.628028
32432,NaN,7.283780,-10.334473,2.526516,9.145549,1.239428,-0.810011,-2.735860,-1.206091,0.630986,-1.017822,-0.099121,0.080078,0.073003,-0.102752,0.027113,0.999883,-0.013679,-0.006030,0.003155,-0.334657,-0.553502,0.444483,-0.619738
32433,NaN,12.812019,-4.013315,7.509396,3.922311,-7.023052,3.299673,-1.313016,-0.517281,0.605499,-1.032715,-0.094727,0.073730,0.128045,-0.039250,0.075685,0.999971,-0.006565,-0.002586,0.003027,-0.344230,-0.540076,0.475305,-0.603248
32434,NaN,13.002844,0.086819,10.516560,0.930476,-11.053954,2.701320,0.733232,3.147879,0.055347,-1.022217,-0.096924,0.033447,0.131662,0.000524,0.103104,0.999869,0.003666,0.015739,0.000277,-0.349519,-0.531642,0.467763,-0.613507
32435,NaN,4.347601,-1.273311,0.066144,0.293242,0.164837,-5.295152,2.340529,5.501269,-0.291820,-1.045654,-0.100830,-0.021484,0.043451,-0.012794,-0.000684,0.999552,0.011701,0.027502,-0.001459,-0.355648,-0.515638,0.453323,-0.634137
32436,NaN,-3.490563,-3.691841,-1.838788,3.523656,2.987613,-12.614683,2.823351,4.817235,-0.502863,-1.031006,-0.100830,-0.063721,-0.035435,-0.036573,-0.018057,0.999607,0.014115,0.024083,-0.002514,-0.360742,-0.506323,0.434332,-0.651811
32437,NaN,-4.520442,-0.890712,-10.224963,-1.604577,9.649762,-15.296485,1.903293,2.887088,-0.747742,-1.039307,-0.113525,-0.078369,-0.046705,-0.007765,-0.101660,0.999844,0.009516,0.014435,-0.003739,-0.364632,-0.497167,0.426777,-0.661612
32438,NaN,-6.367330,2.100415,-10.237439,-4.021595,8.266642,-17.890044,1.756450,0.526707,-1.024091,-1.024170,-0.120117,-0.067871,-0.063831,0.022228,-0.102015,0.999945,0.008782,0.002633,-0.005120,-0.364758,-0.500784,0.417437,-0.664765
32439,NaN,-5.273129,5.052613,-3.125758,-4.446035,0.896364,-16.334401,1.500700,-0.895925,-1.186298,-1.032227,-0.133057,-0.063477,-0.052290,0.051071,-0.031111,0.999944,0.007503,-0.004480,-0.005931,-0.372166,-0.500690,0.431197,-0.651821
32440,NaN,-2.756734,5.179735,0.824007,-3.875727,-2.758856,-13.344710,1.320723,-0.936072,-1.280865,-1.019043,-0.147949,-0.048584,-0.027274,0.051917,0.008455,0.999947,0.006603,-0.004680,-0.006404,-0.370996,-0.508933,0.425405,-0.649907
32441,NaN,-2.479052,4.130269,2.079951,-2.667212,-3.436893,-12.746036,0.953370,-0.340821,-1.173396,-1.024902,-0.163086,-0.048584,-0.024584,0.041348,0.020955,0.999970,0.004767,-0.001704,-0.005867,-0.378504,-0.509212,0.433983,-0.639606
32442,NaN,-2.034819,3.489088,-0.419011,-2.982882,-0.874638,-12.425550,0.507189,-0.378923,-1.030040,-1.014160,-0.169434,-0.040039,-0.020160,0.035006,-0.004140,0.999982,0.002536,-0.001895,-0.005150,-0.379678,-0.513610,0.430447,-0.637781
32443,NaN,-0.242129,3.210157,-1.324394,-3.366545,0.212656,-10.672210,-0.109573,-0.658551,-0.957024,-1.028564,-0.182373,-0.037842,-0.002224,0.032105,-0.013269,0.999983,-0.000548,-0.003293,-0.004785,-0.385622,-0.515341,0.436942,-0.628332
32444,NaN,1.770274,3.296549,-0.011342,-3.384880,-0.979920,-8.554325,-0.572796,-0.716603,-0.935999,-1.015625,-0.190918,-0.035645,0.017857,0.032882,-0.000144,0.999979,-0.002864,-0.003583,-0.004680,-0.388465,-0.518521,0.437703,-0.623416
32445,NaN,2.393667,2.314645,1.371713,-2.148235,-1.938020,-7.668406,-0.518986,-0.522851,-0.986290,-1.019531,-0.199463,-0.031250,0.024015,0.023064,0.013720,0.999981,-0.002595,-0.002614,-0.004931,-0.395315,-0.520577,0.442617,-0.613853
32446,NaN,2.028628,1.423590,1.783496,-1.117357,-2.074548,-7.870903,-0.100827,-0.373027,-0.979826,-1.004150,-0.210205,-0.022949,0.020322,0.014145,0.017866,0.999986,-0.000504,-0.001865,-0.004899,-0.397754,-0.523684,0.441107,-0.610714
32447,NaN,1.353190,0.159291,1.222255,0.029083,-1.185641,-8.418490,0.405338,-0.389565,-0.861978,-1.012695,-0.216553,-0.024902,0.013515,0.001510,0.012252,0.999987,0.002027,-0.001948,-0.004310,-0.400344,-0.528359,0.439265,-0.606307
32448,NaN,1.798326,-0.612356,0.222699,0.435431,0.006417,-7.950191,0.718958,-0.343178,-0.709257,-0.995361,-0.220947,-0.018555,0.017958,-0.006195,0.002236,0.999986,0.003595,-0.001716,-0.003546,-0.399836,-0.532388,0.435892,-0.605551
32449,NaN,2.175986,-1.765293,-0.964570,1.154771,1.495641,-7.529901,0.660613,-0.090872,-0.579842,-1.005859,-0.229492,-0.014160,0.021713,-0.017684,-0.009694,0.999990,0.003303,-0.000454,-0.002899,-0.400773,-0.536123,0.432447,-0.604105
32451,NaN,0.802415,-3.559673,-1.300960,5.783632,4.714729,-7.726889,0.513480,0.173884,-0.426773,-1.009766,-0.240234,-0.018311,0.015699,-0.071126,-0.026412,0.999976,0.005135,0.001739,-0.004268,-0.401340,-0.538964,0.426350,-0.605533
32452,NaN,-0.808202,-5.019577,-1.782071,4.295344,3.216939,-10.288501,0.388196,-0.139153,-0.190756,-0.992920,-0.231689,-0.007812,-0.008117,-0.050153,-0.017924,0.999997,0.001941,-0.000696,-0.000954,-0.402438,-0.539489,0.428658,-0.602700
32453,NaN,-1.105844,-5.109146,-1.820963,4.386577,3.288061,-10.579990,0.103792,-0.474957,-0.008966,-1.005615,-0.231689,-0.001465,-0.011017,-0.051081,-0.018262,0.999997,0.000519,-0.002375,-0.000045,-0.401166,-0.541147,0.429276,-0.601621
32454,NaN,-1.005781,-4.595579,-1.513570,4.025064,2.791428,-10.467362,-0.011204,-0.704193,0.087275,-0.994873,-0.236084,0.009033,-0.009984,-0.045961,-0.015168,0.999994,-0.000056,-0.003521,0.000436,-0.401469,-0.540249,0.437557,-0.596236
32455,NaN,-0.400096,-3.800159,-0.069840,3.629598,1.195021,-9.876402,0.496928,-0.826763,0.138172,-1.007812,-0.231689,0.011230,-0.003972,-0.038002,-0.000809,0.999988,0.002485,-0.004134,0.000691,-0.397902,-0.543402,0.438103,-0.595361
32456,NaN,0.589659,-2.695495,0.571465,2.674828,0.222697,-8.954994,0.829831,-0.643840,0.107258,-0.999268,-0.227539,0.028076,0.005893,-0.026975,0.005622,0.999986,0.004149,-0.003219,0.000536,-0.395443,-0.543113,0.444545,-0.592480
32457,NaN,0.596373,-2.117564,0.446391,2.086430,0.191807,-9.007084,0.968631,-0.530782,0.068778,-1.007812,-0.225342,0.034424,0.005959,-0.021195,0.004377,0.999985,0.004843,-0.002654,0.000344,-0.391423,-0.546439,0.442905,-0.593319
32458,NaN,0.499414,-1.897697,0.216564,1.815482,0.338172,-9.114680,0.994288,-0.503201,0.051234,-0.995117,-0.223389,0.040527,0.004994,-0.018986,0.002084,0.999984,0.004971,-0.002516,0.000256,-0.388048,-0.546363,0.447170,-0.592406
32459,NaN,-0.218796,-1.321319,0.099491,1.303568,0.313655,-9.889932,1.046827,-0.492348,0.067244,-1.008057,-0.218994,0.047119,-0.002186,-0.013219,0.000920,0.999983,0.005234,-0.002462,0.000336,-0.383882,-0.549693,0.445201,-0.593522
32460,NaN,0.571209,-0.622932,0.153566,0.575065,0.020482,-9.174890,0.925779,-0.414122,0.045524,-0.992920,-0.221191,0.055420,0.005710,-0.006235,0.001519,0.999987,0.004629,-0.002071,0.000228,-0.380435,-0.549465,0.448580,-0.593408
32461,NaN,1.717916,0.304458,0.279586,-0.381353,-0.433827,-8.142821,0.848331,-0.286582,-0.036438,-1.001465,-0.218994,0.059570,0.017176,0.003029,0.002833,0.999990,0.004242,-0.001433,-0.000182,-0.377566,-0.552005,0.446504,-0.594448
32462,NaN,1.315435,-0.057189,0.189801,-0.030842,-0.223010,-8.501590,0.932614,0.027844,-0.229214,-0.992920,-0.223389,0.059570,0.013154,-0.000596,0.001893,0.999988,0.004663,0.000139,-0.001146,-0.375641,-0.551679,0.447054,-0.595556
32463,NaN,0.980630,-0.521927,0.419066,0.521180,-0.270994,-8.780901,0.958265,0.241818,-0.393103,-1.003418,-0.225586,0.063965,0.009801,-0.005258,0.004154,0.999986,0.004791,0.001209,-0.001966,-0.374704,-0.553629,0.442655,-0.597618
32464,NaN,0.626600,-0.781208,-0.101859,0.630389,0.325390,-9.098538,0.947105,0.406309,-0.476064,-0.988525,-0.227783,0.068115,0.006245,-0.007822,-0.001068,0.999984,0.004736,0.002032,-0.002380,-0.374121,-0.553203,0.440823,-0.599729
32465,NaN,0.160299,-1.011431,-1.667626,0.363898,1.904212,-9.545941,1.116438,0.749791,-0.515013,-1.001221,-0.227539,0.053467,0.001514,-0.010025,-0.016738,0.999974,0.005582,0.003749,-0.002575,-0.374220,-0.554164,0.434637,-0.603285
32466,NaN,-0.145824,-1.218993,-2.853074,0.172663,3.100856,-9.856175,1.260233,0.973677,-0.563756,-0.994629,-0.234131,0.057617,-0.001631,-0.012005,-0.028599,0.999964,0.006301,0.004868,-0.002819,-0.374434,-0.552885,0.430627,-0.607189
32467,NaN,-0.157424,-1.478702,-3.200433,0.257886,3.518719,-9.889554,1.211073,1.103605,-0.647606,-1.005371,-0.236084,0.047119,-0.001799,-0.014587,-0.032084,0.999961,0.006055,0.005518,-0.003238,-0.375414,-0.553174,0.423078,-0.611611
32468,NaN,-0.329689,-1.781820,-3.016463,0.876925,3.398530,-10.064213,1.164224,1.282783,-0.708966,-0.990479,-0.238281,0.044922,-0.003553,-0.017630,-0.030245,0.999956,0.005821,0.006414,-0.003545,-0.401518,-0.535046,0.439404,-0.599528
32469,NaN,-0.415678,-1.792878,-2.511650,1.010490,2.922008,-10.181565,1.111838,1.415161,-0.741882,-1.000732,-0.246826,0.028076,-0.004401,-0.017773,-0.025185,0.999953,0.005559,0.007076,-0.003709,-0.403857,-0.534641,0.431225,-0.604238
32470,NaN,0.058541,-1.653645,-2.251373,0.951065,2.626314,-9.746596,0.981746,1.437145,-0.742198,-0.988037,-0.251221,0.023926,0.000362,-0.016427,-0.022598,0.999955,0.004909,0.007186,-0.003711,-0.413135,-0.528518,0.431676,-0.603029
32471,NaN,0.343999,-1.860925,-2.136865,1.137219,2.597493,-9.485390,0.613274,1.429357,-0.861685,-1.002686,-0.257568,0.011230,0.003207,-0.018558,-0.021449,0.999960,0.003066,0.007147,-0.004308,-0.417181,-0.527314,0.424580,-0.606326
32472,NaN,0.327220,-0.579946,-1.058886,0.240799,1.195954,-9.536405,0.118087,1.044526,-1.100466,-0.985596,-0.263916,0.009277,0.003185,-0.005811,-0.010609,0.999971,0.000590,0.005223,-0.005502,-0.426250,-0.523618,0.424884,-0.603000
32473,NaN,2.394445,1.653310,1.604712,-1.355415,-1.816936,-7.383006,-0.525271,0.264574,-1.446443,-0.989258,-0.281006,0.005127,0.024085,0.016401,0.015972,0.999970,-0.002626,0.001323,-0.007232,-0.432535,-0.524758,0.422105,-0.599475
32474,NaN,7.013337,-3.299380,4.658075,3.902305,-3.114086,-2.273211,-1.061671,-0.380213,-1.754333,-0.980469,-0.289551,0.011475,0.069753,-0.033358,0.046890,0.999946,-0.005308,-0.001901,-0.008772,-0.440690,-0.526519,0.423679,-0.590819
32475,NaN,10.184960,-3.180826,4.533872,3.666918,-2.869265,0.804559,-0.893710,-0.999838,-0.958607,-0.986572,-0.302490,0.018066,0.101467,-0.032091,0.045990,0.999966,-0.004469,-0.004999,-0.004793,-0.443741,-0.529516,0.425984,-0.584161
32476,NaN,26.990716,6.850852,2.581765,-7.043350,-2.266749,17.156354,2.820537,1.062220,-1.549882,-0.971436,-0.311035,0.020020,0.270561,0.066054,0.025325,0.999856,0.014102,0.005311,-0.007749,-0.441794,-0.536314,0.410702,-0.590347
32477,NaN,34.189514,0.729325,3.117713,-0.847243,-0.305311,24.514390,0.372355,0.324737,-1.192945,-0.979492,-0.321777,0.020264,0.341980,0.005196,0.030633,0.999979,0.001862,0.001624,-0.005965,-0.444974,-0.538617,0.405678,-0.589335
32478,NaN,54.282093,5.364670,-2.045485,-6.939882,4.945372,44.102646,1.754277,-0.870871,-0.234239,-0.968750,-0.322021,0.049805,0.542964,0.053174,-0.017623,0.999951,0.008771,-0.004354,-0.001171,-0.437620,-0.546337,0.400560,-0.591232
32479,NaN,66.466646,28.395308,28.551888,-19.326022,-30.341860,59.071458,2.788987,0.341640,-0.720320,-0.972656,-0.332520,0.035156,0.666165,0.277548,0.288282,0.999895,0.013944,0.001708,-0.003601,-0.432769,-0.552815,0.389559,-0.596113
32480,NaN,46.006855,17.469448,-4.235101,-18.075937,2.970097,36.055665,-0.284657,2.321941,-3.007671,-0.950684,-0.364746,0.018311,0.462091,0.167690,-0.047950,0.999819,-0.001423,0.011609,-0.015037,-0.444295,-0.552896,0.372757,-0.598297
32481,NaN,26.776183,3.257231,5.435100,-0.721916,-2.630487,17.565860,-1.101079,1.196210,-3.763853,-0.949707,-0.398926,0.001709,0.268633,0.027815,0.052584,0.999790,-0.005505,0.005981,-0.018818,-0.460733,-0.553771,0.362911,-0.591066
32482,NaN,17.990184,10.941372,13.502637,-5.118232,-13.185742,10.816312,-1.073729,2.090645,-3.063801,-0.919434,-0.416016,-0.023682,0.182951,0.107343,0.132544,0.999814,-0.005368,0.010453,-0.015318,-0.475365,-0.551614,0.350274,-0.589116
32483,NaN,12.241688,12.282948,11.697579,-7.180058,-12.310276,5.498556,-1.044938,2.197001,-1.783230,-0.929932,-0.430908,-0.046875,0.124779,0.122328,0.114974,0.999886,-0.005224,0.010985,-0.008916,-0.487292,-0.545720,0.343173,-0.589040
32484,NaN,7.063784,8.674251,8.084289,-5.188972,-8.619048,-0.363907,-0.878307,0.781120,-0.528192,-0.915039,-0.428711,-0.051025,0.071181,0.086908,0.080184,0.999979,-0.004392,0.003906,-0.002641,-0.490905,-0.543034,0.338986,-0.590944
32485,NaN,12.378942,5.232438,6.557813,-2.075084,-5.049651,4.109079,-0.457016,-0.646579,0.333058,-0.929932,-0.426758,-0.038330,0.123489,0.052680,0.065858,0.999991,-0.002285,-0.003233,0.001665,-0.490060,-0.543253,0.342825,-0.589226
32486,NaN,18.411409,7.121949,11.433707,-1.896755,-9.026271,11.052484,0.774478,-0.688142,0.956520,-0.921631,-0.418213,-0.027832,0.183377,0.071653,0.115246,0.999975,0.003872,-0.003441,0.004783,-0.481567,-0.546796,0.340686,-0.594172
32488,NaN,27.978938,7.610207,9.212813,-5.235950,-11.882842,49.628498,1.545788,-1.468160,1.572576,-0.939453,-0.381836,0.011963,0.554315,0.157992,0.194833,0.999649,0.015456,-0.014680,0.015724,-0.458601,-0.557413,0.347051,-0.598775
32489,NaN,46.739304,4.555955,12.592398,2.039781,-5.785142,38.418007,2.141479,-1.026806,1.812007,-0.961182,-0.368896,0.020508,0.466307,0.048419,0.128828,0.999888,0.010707,-0.005134,0.009060,-0.442881,-0.563677,0.343025,-0.607008
32490,NaN,48.476495,10.500308,12.977892,-3.746743,-8.642478,40.584507,0.936581,0.116145,1.724391,-0.953125,-0.354004,0.022461,0.483915,0.108569,0.130001,0.999952,0.004683,0.000581,0.008622,-0.435184,-0.562415,0.344769,-0.612731
32491,NaN,33.530776,11.592182,8.200145,-7.331269,-7.047039,25.151351,-0.557183,0.315218,1.836932,-0.972412,-0.345459,0.016113,0.334351,0.119223,0.081145,0.999953,-0.002786,0.001576,0.009185,-0.429245,-0.558456,0.346085,-0.619758
32492,NaN,23.767136,9.057270,7.022544,-5.958126,-6.568400,15.038090,-0.523343,-0.096760,1.904441,-0.968994,-0.319580,0.015869,0.236759,0.093014,0.070099,0.999951,-0.002617,-0.000484,0.009522,-0.424615,-0.554311,0.353216,-0.622640
32493,NaN,18.340369,8.062294,6.923040,-5.214265,-7.065193,9.479156,-0.014799,-0.748508,2.060664,-0.988281,-0.308838,0.018066,0.182299,0.082510,0.069908,0.999940,-0.000074,-0.003742,0.010303,-0.414352,-0.554548,0.355604,-0.627961
32494,NaN,14.978920,7.394131,5.313974,-5.401660,-6.057049,5.724223,-0.493012,-1.000989,2.423106,-0.984863,-0.281250,0.036865,0.148610,0.075879,0.053700,0.999911,-0.002465,-0.005005,0.012115,-0.406293,-0.552312,0.365914,-0.629273
32495,NaN,14.990082,5.481005,3.442231,-4.654606,-3.877487,5.348842,-1.373177,-1.317997,2.646040,-1.002686,-0.257568,0.032471,0.148927,0.057024,0.035019,0.999867,-0.006866,-0.006590,0.013230,-0.396619,-0.550606,0.375181,-0.631479
32496,NaN,17.849923,2.199163,0.679288,-3.314655,-0.178888,7.875453,-2.049496,-1.940703,2.683030,-0.994629,-0.238281,0.053467,0.178107,0.024463,0.008280,0.999810,-0.010247,-0.009703,0.013414,-0.390073,-0.547532,0.392816,-0.627493
32497,NaN,20.097975,-0.434433,0.113500,-1.629478,0.972964,10.199371,-2.229745,-2.521325,2.639239,-1.007812,-0.218994,0.063965,0.200978,-0.001660,0.003697,0.999771,-0.011148,-0.012606,0.013195,-0.380633,-0.547629,0.407538,-0.623806
32498,NaN,22.539623,0.400585,-0.806614,-3.296705,0.837111,12.485672,-2.617187,-2.901467,2.539024,-0.993652,-0.189209,0.091064,0.225408,0.006790,-0.004873,0.999729,-0.013085,-0.014506,0.012694,-0.373863,-0.546376,0.428064,-0.615192
32499,NaN,20.367104,-1.019828,-1.267965,-2.138133,1.111776,10.475712,-2.554139,-2.349975,2.466826,-1.015381,-0.178467,0.095459,0.203907,-0.007825,-0.010175,0.999773,-0.012770,-0.011749,0.012333,-0.366532,-0.545104,0.443518,-0.609760
32500,NaN,13.425632,-2.566847,0.168602,0.502438,0.054621,3.847356,-2.279533,-1.349176,2.203545,-1.003174,-0.159180,0.095215,0.134511,-0.024159,0.002874,0.999852,-0.011397,-0.006746,0.011017,-0.362980,-0.540073,0.458880,-0.604976
32501,NaN,5.610329,-2.789017,-1.129672,1.349472,1.613217,-3.803875,-1.590828,-0.270846,1.889560,-1.022705,-0.146240,0.090820,0.056379,-0.027447,-0.011001,0.999923,-0.007954,-0.001354,0.009448,-0.360459,-0.534642,0.466838,-0.605218
32502,NaN,-2.175946,-0.431980,-3.968725,-0.450484,4.041335,-11.846590,0.073547,0.276433,1.129789,-1.010010,-0.142090,0.094971,-0.021789,-0.004428,-0.039659,0.999983,0.000368,0.001382,0.005649,-0.357482,-0.531293,0.469130,-0.608155
32503,NaN,-8.560349,0.794297,-11.179720,-2.821283,10.854098,-18.363750,2.057045,0.101506,-0.115731,-1.022949,-0.137695,0.099365,-0.085655,0.009141,-0.111664,0.999947,0.010285,0.000508,-0.000579,-0.352667,-0.535467,0.460771,-0.613671
32504,NaN,-1.934934,-8.919952,-12.012701,4.322407,14.452100,-10.000981,3.941212,-1.104608,0.877497,-1.014648,-0.127197,0.120361,-0.018294,-0.086890,-0.121958,0.999781,0.019705,-0.005523,0.004387,-0.336801,-0.543666,0.452875,-0.621206
32505,NaN,0.748960,-19.369912,1.279542,17.979834,5.692604,-5.153970,-0.524251,-2.234464,1.604486,-1.017090,-0.110107,0.132812,0.008896,-0.193597,0.013397,0.999902,-0.002621,-0.011172,0.008022,-0.328745,-0.545986,0.462805,-0.616148
32506,NaN,2.685546,-10.293685,-1.111488,8.497412,4.260017,-4.909377,-2.742967,-1.646788,1.469238,-1.004639,-0.103516,0.145508,0.027694,-0.102873,-0.009478,0.999845,-0.013714,-0.008234,0.007346,-0.327845,-0.543067,0.477900,-0.607625
32507,NaN,3.010246,-6.624938,0.306830,5.602720,1.434499,-5.386051,-1.812510,-0.800918,0.980755,-1.023926,-0.097168,0.132812,0.030413,-0.066069,0.003789,0.999939,-0.009062,-0.004005,0.004904,-0.328418,-0.539736,0.487953,-0.602270
32508,NaN,2.120309,-5.137329,-0.004442,4.310457,1.288491,-6.549641,-1.081477,0.803516,0.339135,-1.000488,-0.103516,0.126465,0.021290,-0.051337,0.000148,0.999976,-0.005407,0.004018,0.001696,-0.332268,-0.534700,0.490793,-0.602342
32509,NaN,0.773075,-3.159003,1.321302,3.175058,-0.431683,-8.379048,-1.153334,1.489813,0.105608,-1.023682,-0.107666,0.105469,0.007846,-0.031509,0.013337,0.999955,-0.005767,0.007449,0.000528,-0.339339,-0.527379,0.492860,-0.603166
32510,NaN,0.505381,-0.707129,0.725313,0.762477,-0.551190,-9.183149,-1.638808,0.996695,0.067626,-1.017334,-0.107666,0.103271,0.005092,-0.007010,0.007285,0.999954,-0.008194,0.004983,0.000338,-0.345896,-0.521402,0.496267,-0.601843
32511,NaN,1.788808,0.154044,-0.518342,-0.675655,0.277793,-8.092642,-0.988252,0.083479,-0.171464,-1.025635,-0.114258,0.092773,0.017887,0.001499,-0.005198,0.999987,-0.004941,0.000417,-0.000857,-0.349762,-0.519250,0.499460,-0.598820
32512,NaN,3.759528,1.016286,1.967665,-1.223772,-2.505995,-6.456992,0.314650,1.141264,-0.618958,-1.012939,-0.114014,0.080078,0.037738,0.010015,0.019477,0.999978,0.001573,0.005706,-0.003095,-0.353641,-0.517918,0.494904,-0.601473
32513,NaN,0.131749,-0.864597,0.936312,1.038010,-0.682959,-9.500256,0.932801,2.971952,-0.929573,-1.027588,-0.126953,0.048584,0.001416,-0.008696,0.009302,0.999868,0.004664,0.014859,-0.004648,-0.361831,-0.512363,0.485002,-0.609374
32514,NaN,-3.176198,0.062175,-1.826732,0.115262,1.878723,-12.956800,0.649987,2.302344,-0.853683,-1.020996,-0.139648,0.033691,-0.031966,0.000816,-0.017898,0.999919,0.003250,0.011511,-0.004268,-0.368321,-0.508553,0.476630,-0.615254
32515,NaN,-2.558659,3.592679,-3.953036,-3.933957,2.860558,-13.192170,1.249987,0.902427,-0.996422,-1.027100,-0.145996,0.029541,-0.025584,0.036300,-0.039189,0.999958,0.006250,0.004512,-0.004982,-0.370862,-0.509948,0.469219,-0.618262
32516,NaN,-2.628434,2.635227,-1.744930,-2.448724,0.944082,-12.976511,1.755001,-0.019868,-1.120422,-1.007812,-0.150391,0.038086,-0.026134,0.026651,-0.017219,0.999946,0.008775,-0.000099,-0.005602,-0.369784,-0.515865,0.460948,-0.620218
32517,NaN,-1.748775,0.957834,-1.375079,-0.984618,1.040546,-11.765654,2.023548,-0.287159,-1.066452,-1.018066,-0.163330,0.038086,-0.017416,0.009810,-0.013677,0.999934,0.010118,-0.001436,-0.005332,-0.367758,-0.522473,0.453169,-0.621622
32518,NaN,-1.178749,-0.610231,-0.379174,0.654504,0.577634,-10.882044,1.885311,-0.318765,-0.817424,-1.005127,-0.167480,0.048828,-0.011806,-0.006018,-0.003868,0.999946,0.009426,-0.001594,-0.004087,-0.364632,-0.528755,0.445735,-0.623524
32519,NaN,-0.542493,-0.983996,0.080309,1.036154,0.247554,-10.178863,0.877768,-0.338467,-0.568424,-1.024170,-0.171875,0.046631,-0.005454,-0.009828,0.000751,0.999985,0.004389,-0.001692,-0.002842,-0.369792,-0.528012,0.447892,-0.619557
32520,NaN,0.621663,0.232344,0.226475,-0.246649,-0.299388,-9.228504,0.089085,-0.284991,-0.405779,-1.002930,-0.176270,0.052979,0.006218,0.002310,0.002275,0.999997,0.000445,-0.001425,-0.002029,-0.370174,-0.529966,0.447070,-0.618252
32521,NaN,1.396977,1.399020,0.569495,-1.364312,-0.993655,-8.636072,-0.036010,-0.356182,-0.335762,-1.013184,-0.180420,0.057373,0.013983,0.013968,0.005717,0.999997,-0.000180,-0.001781,-0.001679,-0.376151,-0.527592,0.452025,-0.613050
32522,NaN,1.473244,2.028957,0.300001,-2.043761,-0.937948,-8.663602,0.229197,-0.342781,-0.373831,-1.000488,-0.178467,0.063477,0.014765,0.020259,0.003049,0.999996,0.001146,-0.001714,-0.001869,-0.375917,-0.529917,0.450979,-0.611958
32523,NaN,1.523662,1.885080,-0.339448,-2.110517,-0.270685,-8.603259,0.692171,-0.233350,-0.420257,-1.008789,-0.187012,0.070068,0.015280,0.018830,-0.003311,0.999991,0.003461,-0.001167,-0.002101,-0.378701,-0.530025,0.451651,-0.609648
32524,NaN,1.508669,2.047230,-0.841085,-2.407829,0.140307,-8.647662,0.921355,-0.106536,-0.418934,-0.998047,-0.187012,0.072021,0.015134,0.020479,-0.008308,0.999987,0.004607,-0.000533,-0.002095,-0.377290,-0.533033,0.447928,-0.610646
32525,NaN,1.204480,2.037326,-1.195381,-2.459062,0.485995,-8.948285,0.917228,0.022589,-0.468466,-1.008545,-0.195557,0.063721,0.012091,0.020400,-0.011862,0.999987,0.004586,0.000113,-0.002342,-0.378896,-0.533885,0.446147,-0.610212
32526,NaN,0.586862,1.679992,-1.227535,-2.047291,0.621159,-9.502265,0.753593,0.074607,-0.535279,-1.002197,-0.195557,0.074219,0.005909,0.016830,-0.012214,0.999989,0.003768,0.000373,-0.002676,-0.378680,-0.536273,0.442272,-0.611071
32527,NaN,0.081026,1.042980,-0.894022,-1.271396,0.519236,-9.899784,0.520958,0.025635,-0.578435,-1.004150,-0.199707,0.074219,0.000839,0.010451,-0.008913,0.999992,0.002605,0.000128,-0.002892,-0.382183,-0.536270,0.441824,-0.609214
32528,NaN,-0.280836,0.164609,-0.535565,-0.287976,0.457276,-10.130119,0.290416,-0.083058,-0.555414,-0.991211,-0.206299,0.078613,-0.002802,0.001662,-0.005354,0.999995,0.001452,-0.000415,-0.002777,-0.382911,-0.538302,0.439606,-0.608569
32529,NaN,-0.791216,-0.833111,-0.315735,0.783088,0.568277,-10.508113,0.137755,-0.104420,-0.518218,-1.003662,-0.212646,0.074463,-0.007932,-0.008308,-0.003167,0.999996,0.000689,-0.000522,-0.002591,-0.385288,-0.539045,0.439290,-0.606636
32530,NaN,-1.203134,-1.373258,-0.132709,1.394179,0.570204,-10.852930,0.178034,-0.197947,-0.437116,-0.995117,-0.212646,0.080811,-0.012060,-0.013705,-0.001351,0.999997,0.000890,-0.000990,-0.002186,-0.385698,-0.540947,0.437952,-0.605650
32531,NaN,-1.084069,-1.689632,0.338027,1.822958,0.220656,-10.691577,0.314988,-0.409786,-0.369140,-0.999268,-0.219238,0.080811,-0.010879,-0.016882,0.003331,0.999995,0.001575,-0.002049,-0.001846,-0.386564,-0.542530,0.438198,-0.603500
32532,NaN,-0.129053,-1.552359,0.386846,1.599004,0.130152,-9.764128,0.421180,-0.478965,-0.355064,-0.990967,-0.214844,0.089111,-0.001327,-0.015529,0.003833,0.999993,0.002106,-0.002395,-0.001775,-0.385441,-0.545564,0.436887,-0.602433
32533,NaN,0.235953,-1.289412,0.210383,1.256499,0.210786,-9.439473,0.695584,-0.380136,-0.367483,-0.997070,-0.221436,0.099854,0.002332,-0.012906,0.002063,0.999990,0.003478,-0.001901,-0.001837,-0.385052,-0.547933,0.435731,-0.601368
32534,NaN,0.242703,-1.232923,-0.545311,0.954488,0.916420,-9.458456,0.987395,-0.153098,-0.376560,-0.982178,-0.221436,0.104004,0.002408,-0.012307,-0.005512,0.999986,0.004937,-0.000765,-0.001883,-0.383140,-0.551107,0.432018,-0.602366
32535,NaN,-0.189398,-1.119190,-1.606026,0.523536,1.892280,-9.926401,0.886530,0.176029,-0.428820,-0.994873,-0.225586,0.102051,-0.001932,-0.011116,-0.016108,0.999987,0.004433,0.000880,-0.002144,-0.382004,-0.553441,0.427632,-0.604076
32536,NaN,-1.079547,-0.839820,-2.149619,0.143848,2.317914,-10.860602,0.691018,0.249275,-0.470000,-0.986328,-0.225586,0.104004,-0.010842,-0.008298,-0.021511,0.999990,0.003455,0.001246,-0.002350,-0.382041,-0.555007,0.423763,-0.605340
32537,NaN,-1.032302,-0.871780,-1.749164,0.290775,1.951400,-10.809024,0.605277,0.080193,-0.447945,-0.994629,-0.229980,0.102051,-0.010349,-0.008642,-0.017514,0.999993,0.003026,0.000401,-0.002240,-0.381616,-0.557017,0.420510,-0.606030
32538,NaN,-0.458961,-0.956981,-1.167578,0.512774,1.435145,-10.221476,0.624017,0.012102,-0.394433,-0.973145,-0.234131,0.112549,-0.004609,-0.009524,-0.011705,0.999993,0.003120,0.000061,-0.001972,-0.381096,-0.558996,0.417494,-0.606620
32539,NaN,0.006936,-1.168908,-1.115750,0.676383,1.465956,-9.743711,0.607946,0.094937,-0.391304,-0.992432,-0.234131,0.114746,0.000041,-0.011655,-0.011193,0.999993,0.003040,0.000475,-0.001957,-0.379972,-0.561208,0.413899,-0.607745
32540,NaN,0.406820,-1.287150,-1.374099,0.650454,1.753427,-9.351392,0.554638,0.249406,-0.466725,-0.979736,-0.232178,0.110352,0.004021,-0.012843,-0.013782,0.999993,0.002773,0.001247,-0.002334,-0.380348,-0.562465,0.410427,-0.608702
32541,NaN,0.713677,-1.450418,-1.769318,0.612288,2.190597,-9.057776,0.427145,0.418457,-0.610623,-0.988037,-0.240723,0.104248,0.007055,-0.014488,-0.017739,0.999991,0.002136,0.002092,-0.003053,-0.380059,-0.564392,0.405330,-0.610512
32542,NaN,0.659459,-1.694679,-2.242000,0.656381,2.727802,-9.133286,0.354793,0.564035,-0.753547,-0.972656,-0.251465,0.104248,0.006467,-0.016931,-0.022468,0.999987,0.001774,0.002820,-0.003768,-0.382497,-0.564864,0.401043,-0.611383
32543,NaN,0.210964,-1.636138,-2.995412,0.330869,3.399343,-9.642907,0.400318,0.662882,-0.902184,-0.985352,-0.255615,0.097900,0.001937,-0.016310,-0.029993,0.999982,0.002002,0.003314,-0.004511,-0.384709,-0.565845,0.395696,-0.612571
32544,NaN,-0.725431,-1.700961,-3.235880,0.339385,3.622220,-10.621767,0.599285,0.619197,-0.965952,-0.972656,-0.253418,0.097900,-0.007436,-0.016877,-0.032387,0.999979,0.002996,0.003096,-0.004830,-0.387188,-0.567001,0.389928,-0.613638
32545,NaN,-1.824299,-1.943175,-2.075299,1.040910,2.618260,-11.676000,0.843592,0.288502,-0.885656,-0.978760,-0.264160,0.100098,-0.018359,-0.019263,-0.020808,0.999980,0.004218,0.001442,-0.004428,-0.386348,-0.570442,0.383280,-0.615165
32546,NaN,-2.037185,-2.271430,-0.610080,1.912997,1.411279,-11.820251,0.954886,-0.178090,-0.892772,-0.968018,-0.264160,0.110596,-0.020467,-0.022594,-0.006227,0.999978,0.004774,-0.000890,-0.004464,-0.386020,-0.574533,0.378133,-0.614749
32547,NaN,0.428039,-1.155768,1.329299,1.595350,-0.691138,-9.299668,0.634021,-0.654805,-1.026670,-0.971680,-0.283447,0.121338,0.004177,-0.011621,0.013270,0.999976,0.003170,-0.003274,-0.005133,-0.382911,-0.581543,0.372180,-0.613734
32548,NaN,6.226990,3.960263,3.877889,-2.033549,-4.983885,-3.447076,0.113792,-1.310957,-1.712711,-0.952393,-0.292236,0.129883,0.062350,0.039047,0.039210,0.999942,0.000569,-0.006555,-0.008563,-0.385373,-0.588937,0.369340,-0.606819
32549,NaN,15.340755,5.468818,13.488053,1.135469,-13.895622,6.085752,1.754150,0.397165,-2.565935,-0.956055,-0.311523,0.132080,0.154350,0.051528,0.135036,0.999877,0.008770,0.001986,-0.012829,-0.385767,-0.597463,0.353210,-0.607836
32550,NaN,16.609068,-1.783899,3.792625,3.640111,-1.562422,6.852015,1.857477,1.473072,-2.304579,-0.938477,-0.326416,0.127930,0.166140,-0.020097,0.036523,0.999863,0.009287,0.007365,-0.011522,-0.389769,-0.600558,0.337792,-0.610989
32551,NaN,13.332079,-4.748716,-0.805579,4.172681,4.027995,3.121770,0.875664,0.730560,-1.894629,-0.942383,-0.341553,0.130127,0.132832,-0.048710,-0.008753,0.999939,0.004378,0.003653,-0.009473,-0.390786,-0.604867,0.324970,-0.613039
32552,NaN,23.873171,4.774026,-1.546378,-3.915982,1.238671,14.233728,0.109611,0.608648,-1.431442,-0.929443,-0.347900,0.123779,0.239017,0.046039,-0.016165,0.999970,0.000548,0.003043,-0.007157,-0.395817,-0.605524,0.319108,-0.612242
32553,NaN,34.027251,6.258926,7.476682,0.121120,-6.100927,25.053743,1.601772,0.067748,-1.218196,-0.941895,-0.354248,0.128174,0.340668,0.059914,0.075138,0.999949,0.008009,0.000339,-0.006091,-0.390291,-0.612590,0.306261,-0.615314
32554,NaN,36.265945,2.596611,9.811477,4.733556,-5.752280,27.102355,1.963447,1.087806,0.597977,-0.936035,-0.339355,0.136475,0.363109,0.026099,0.096396,0.999933,0.009817,0.005439,0.002990,-0.384074,-0.612119,0.299910,-0.622778
32555,NaN,34.936378,21.481453,-0.172690,-16.643633,-7.482281,26.916523,-0.000229,0.548068,0.086184,-0.948486,-0.347900,0.130127,0.349265,0.214965,-0.002684,0.999996,-0.000001,0.002740,0.000431,-0.378928,-0.612914,0.293732,-0.628069
32556,NaN,52.449741,29.375734,-0.571361,-22.440062,-8.856858,45.251716,-0.819269,0.068829,-2.151396,-0.928955,-0.364990,0.121826,0.527614,0.288066,-0.007083,0.999934,-0.004096,0.000344,-0.010757,-0.388267,-0.614266,0.289564,-0.622959
32557,NaN,47.516178,10.097759,20.511912,5.958903,-15.242859,40.308514,0.246973,2.834347,-3.751254,-0.925781,-0.405518,0.088379,0.479785,0.091759,0.198458,0.999723,0.001235,0.014170,-0.018755,-0.398507,-0.613205,0.266810,-0.627681
32558,NaN,24.293565,14.438151,6.532371,-6.445886,-8.345380,17.204979,-0.403734,3.004758,-3.711514,-0.903809,-0.431396,0.073486,0.246502,0.139955,0.061352,0.999713,-0.002018,0.015022,-0.018556,-0.415283,-0.607748,0.250637,-0.628780
32559,NaN,9.303693,10.429942,2.786140,-6.212055,-5.631563,1.710394,-1.469457,1.608952,-2.610548,-0.905518,-0.452637,0.044189,0.094605,0.103269,0.026343,0.999855,-0.007347,0.008044,-0.013052,-0.426407,-0.604077,0.239749,-0.629117
32560,NaN,6.050237,8.609142,4.862806,-3.867590,-6.885947,-1.327899,-1.045271,0.822263,-1.218935,-0.890381,-0.461182,0.035645,0.061225,0.085971,0.047928,0.999959,-0.005226,0.004111,-0.006095,-0.434363,-0.600700,0.237594,-0.627723
32561,NaN,12.609671,11.213426,12.748367,-0.906401,-12.852295,6.958176,-0.153464,0.405940,-0.059235,-0.900879,-0.465576,0.035889,0.126388,0.112195,0.127141,0.999998,-0.000767,0.002030,-0.000296,-0.431124,-0.600670,0.231931,-0.632088
32562,NaN,12.987608,9.012269,8.576761,-1.463160,-8.226055,6.113690,-0.011579,0.030249,0.841800,-0.895020,-0.444092,0.041992,0.129508,0.090673,0.085743,0.999991,-0.000058,0.000151,0.004209,-0.428527,-0.599570,0.234430,-0.633975
32563,NaN,15.451555,4.978305,4.413852,-0.262479,-2.245552,6.857586,0.451208,-1.241292,1.107576,-0.914307,-0.439697,0.058838,0.153959,0.050535,0.045209,0.999963,0.002256,-0.006206,0.005538,-0.416185,-0.605210,0.232084,-0.637690
32564,NaN,30.045699,5.562672,9.394641,3.339552,-3.316797,21.806400,1.539684,-1.316015,1.200026,-0.906250,-0.422607,0.071533,0.299490,0.056690,0.096353,0.999931,0.007698,-0.006580,0.006000,-0.406141,-0.611177,0.233530,-0.637947
32565,NaN,42.590490,11.753909,10.692608,0.198171,-5.386960,35.324278,1.711204,-0.455040,1.424252,-0.927734,-0.414062,0.082031,0.424812,0.119641,0.108911,0.999935,0.008556,-0.002275,0.007121,-0.389500,-0.616484,0.226113,-0.645840
32566,NaN,45.379154,15.617176,7.982151,-4.538591,-5.516775,38.310228,1.043670,-0.022363,1.358627,-0.921875,-0.394775,0.083984,0.452710,0.158830,0.080696,0.999963,0.005218,-0.000112,0.006793,-0.381853,-0.617032,0.226968,-0.649573
32567,NaN,35.298134,15.541813,7.863869,-5.341538,-7.936629,28.368482,-0.239368,0.250502,1.292257,-0.940918,-0.396973,0.077637,0.352065,0.157789,0.078009,0.999978,-0.001197,0.001253,0.006461,-0.373685,-0.615845,0.225279,-0.656006
32568,NaN,28.252589,14.533048,6.643739,-6.157401,-8.062113,21.019273,-1.227436,0.587411,1.591753,-0.926758,-0.375488,0.066895,0.281547,0.147975,0.064707,0.999945,-0.006137,0.002937,0.007959,-0.372882,-0.609800,0.233098,-0.659370
32569,NaN,22.419143,10.539663,5.303024,-4.565522,-5.946558,14.386215,-1.288273,0.402151,2.113895,-0.952637,-0.362549,0.056396,0.223164,0.108096,0.051890,0.999921,-0.006441,0.002011,0.010569,-0.367354,-0.604447,0.238897,-0.665299
32570,NaN,18.038565,8.086339,5.647087,-2.946862,-5.834323,9.678806,-1.106960,-0.170733,2.536386,-0.953369,-0.336914,0.058350,0.179290,0.083453,0.056167,0.999904,-0.005535,-0.000854,0.012682,-0.362020,-0.599896,0.250536,-0.668056
32571,NaN,17.064425,6.186320,5.564819,-1.854466,-5.114454,8.375429,-1.230961,-0.666612,2.768176,-0.970947,-0.317627,0.051758,0.169577,0.064559,0.055823,0.999880,-0.006155,-0.003333,0.013840,-0.352822,-0.597291,0.260114,-0.671640
32572,NaN,19.156936,5.241273,3.463710,-2.879839,-3.013342,9.911651,-1.565459,-1.062846,2.805840,-0.973877,-0.291992,0.062256,0.190620,0.055366,0.035226,0.999857,-0.007827,-0.005314,0.014029,-0.346639,-0.594366,0.275589,-0.671283
32573,NaN,21.303804,3.640437,0.756787,-3.700660,-0.158580,11.492602,-1.846992,-1.870806,2.838648,-0.989258,-0.272705,0.072754,0.212411,0.039502,0.009202,0.999813,-0.009234,-0.009353,0.014192,-0.338724,-0.593872,0.290683,-0.669392
32574,NaN,21.342762,1.577821,-0.611917,-3.112717,1.458510,11.318055,-2.215538,-2.534451,2.943800,-0.977295,-0.247070,0.089355,0.213221,0.018869,-0.003614,0.999750,-0.011077,-0.012671,0.014718,-0.331679,-0.594177,0.311059,-0.663465
32575,NaN,20.495949,1.855929,-1.021293,-3.709839,0.840339,10.437007,-3.345237,-2.795416,3.116177,-0.996826,-0.223389,0.104004,0.204758,0.021608,-0.007694,0.999641,-0.016724,-0.013975,0.015579,-0.326953,-0.592787,0.334533,-0.655586
32576,NaN,18.167507,2.182068,-1.900915,-4.474840,0.617352,8.019668,-4.214237,-2.751195,3.211327,-0.989014,-0.204346,0.114502,0.181541,0.024364,-0.017007,0.999555,-0.021068,-0.013754,0.016054,-0.324168,-0.589282,0.362210,-0.645342
32577,NaN,11.592296,1.610366,-4.297884,-4.743009,2.661380,1.406220,-3.933654,-1.663715,2.796566,-1.004150,-0.191406,0.108154,0.116044,0.016889,-0.042341,0.999674,-0.019666,-0.008318,0.013981,-0.326135,-0.581603,0.386559,-0.637139
32578,NaN,4.894840,1.511670,-6.785478,-5.150298,5.045274,-5.306430,-2.327665,0.156949,2.019626,-0.991943,-0.174316,0.103760,0.048744,0.014818,-0.068067,0.999881,-0.011638,0.000785,0.010098,-0.326732,-0.573336,0.399545,-0.636314
32579,NaN,0.218567,1.377080,-9.221728,-5.394240,7.604371,-10.055917,-0.461945,0.896884,1.127585,-1.013428,-0.167725,0.086914,0.001695,0.013568,-0.092257,0.999971,-0.002310,0.004484,0.005638,-0.332671,-0.563546,0.407138,-0.637169
32580,NaN,-7.960140,-1.024575,-6.797565,-1.020692,6.779049,-17.789049,1.551485,0.604444,0.263779,-1.000732,-0.167725,0.095215,-0.079793,-0.009824,-0.067812,0.999964,0.007757,0.003022,0.001319,-0.328676,-0.563645,0.401919,-0.642447
32581,NaN,-14.606756,-7.615644,-4.428566,6.790440,7.884028,-23.328875,3.685413,-0.555630,0.312722,-1.016113,-0.150635,0.107910,-0.145823,-0.075546,-0.046087,0.999825,0.018426,-0.002778,0.001564,-0.322114,-0.567286,0.396158,-0.646133
32582,NaN,-0.722618,-22.903479,3.330817,21.436224,8.225172,-6.813764,1.466377,-2.922258,2.349209,-1.005859,-0.129395,0.137207,-0.005003,-0.229338,0.031543,0.999797,0.007331,-0.014610,0.011745,-0.304511,-0.574321,0.402710,-0.644402
32583,NaN,5.536740,-10.756581,1.169873,9.008129,3.499988,-2.443724,-3.978191,-2.265610,1.927171,-1.010254,-0.125000,0.145752,0.056245,-0.106757,0.014462,0.999692,-0.019889,-0.011327,0.009635,-0.308354,-0.569381,0.426925,-0.631236
32584,NaN,4.759024,-3.767492,-1.343209,1.935408,2.343832,-4.390020,-2.968451,-0.531621,1.259389,-1.002197,-0.116455,0.139160,0.047862,-0.037567,-0.012747,0.999866,-0.014842,-0.002658,0.006297,-0.311652,-0.563718,0.440641,-0.625243
32585,NaN,1.651353,-4.379004,-0.218518,3.547614,1.754848,-7.305708,-1.718779,0.761388,0.629062,-1.012695,-0.116455,0.126465,0.016644,-0.043755,-0.001872,0.999951,-0.008594,0.003807,0.003145,-0.321988,-0.553151,0.451392,-0.621766
32586,NaN,0.145558,-4.359454,1.270128,4.402386,0.460234,-8.790000,-1.699796,1.013686,0.348890,-1.010742,-0.118408,0.118164,0.001597,-0.043482,0.013063,0.999950,-0.008499,0.005068,0.001744,-0.327875,-0.546449,0.455987,-0.621263
32587,NaN,1.295127,-1.996218,1.157151,1.990657,-0.501063,-8.143141,-1.335736,0.369027,0.233351,-1.016846,-0.122803,0.105469,0.012996,-0.019869,0.011680,0.999975,-0.006679,0.001845,0.001167,-0.337405,-0.538289,0.464993,-0.616591
32588,NaN,2.398604,0.941785,1.464556,-0.819607,-1.885474,-7.677655,-0.476760,0.719405,-0.153522,-1.010498,-0.126953,0.101318,0.024046,0.009434,0.014537,0.999990,-0.002384,0.003597,-0.000768,-0.340830,-0.535619,0.464831,-0.617155
32589,NaN,1.979218,1.839135,1.555502,-1.576054,-2.189665,-8.250460,0.357377,1.524350,-0.594341,-1.020996,-0.131348,0.080322,0.019965,0.018305,0.015436,0.999965,0.001787,0.007622,-0.002972,-0.350796,-0.528767,0.464101,-0.618028
32590,NaN,-0.252090,0.619883,1.931342,0.111076,-2.014198,-10.141866,0.630020,2.131926,-0.884168,-1.008301,-0.135498,0.061279,-0.002287,0.006148,0.019358,0.999928,0.003150,0.010659,-0.004421,-0.356783,-0.525298,0.456044,-0.623531
32591,NaN,-2.404983,1.026110,-0.748959,-0.728956,0.434006,-12.396830,0.970883,1.517819,-0.923573,-1.020752,-0.144043,0.057129,-0.024058,0.010408,-0.007257,0.999949,0.004854,0.007589,-0.004618,-0.365421,-0.520905,0.451671,-0.625395
32592,NaN,-2.021971,2.599195,-2.719970,-2.921952,1.727106,-12.405235,1.387234,0.151335,-0.891618,-1.003662,-0.150391,0.057129,-0.020123,0.026270,-0.027003,0.999966,0.006936,0.000757,-0.004458,-0.364924,-0.524963,0.444719,-0.627272
32593,NaN,-1.408488,3.448406,-1.986978,-3.606677,0.710763,-11.888663,1.463235,-0.459497,-0.901596,-1.015869,-0.161133,0.061279,-0.013883,0.034691,-0.019649,0.999960,0.007316,-0.002297,-0.004508,-0.364945,-0.529638,0.440138,-0.626560
32594,NaN,-1.124030,1.911177,-1.408736,-2.065288,0.655398,-11.297769,1.402284,-0.599524,-0.803482,-1.002930,-0.167725,0.072021,-0.011121,0.019255,-0.013986,0.999963,0.007011,-0.002998,-0.004017,-0.362415,-0.535824,0.434694,-0.626569
32595,NaN,0.259272,0.721122,-0.211137,-0.780484,-0.064148,-9.676529,1.002314,-0.365399,-0.725815,-1.013428,-0.171875,0.076172,0.002623,0.007212,-0.002070,0.999979,0.005012,-0.001827,-0.003629,-0.363253,-0.538983,0.431848,-0.625341
32596,NaN,0.739785,0.912104,0.049238,-0.934265,-0.384038,-9.211606,0.014073,0.138975,-0.691375,-1.000488,-0.182617,0.072021,0.007430,0.009095,0.000488,0.999994,0.000070,0.000695,-0.003457,-0.365674,-0.540065,0.429685,-0.624487
32597,NaN,0.205819,0.801367,0.189935,-0.704007,-0.463269,-9.710826,-0.599129,0.174025,-0.665433,-1.010742,-0.189209,0.067871,0.002086,0.008012,0.001874,0.999990,-0.002996,0.000870,-0.003327,-0.371556,-0.538640,0.430822,-0.621454
32598,NaN,0.050560,1.134159,0.735528,-0.804322,-1.085754,-9.876452,-0.629232,0.141404,-0.676745,-0.998047,-0.193359,0.061523,0.000549,0.011363,0.007319,0.999989,-0.003146,0.000707,-0.003384,-0.375653,-0.538484,0.430687,-0.619216
32599,NaN,0.377594,1.708779,-0.199830,-1.710342,-0.393090,-9.662244,0.059353,0.155117,-0.712764,-1.006104,-0.208252,0.065918,0.003835,0.017075,-0.001996,0.999993,0.000297,0.000776,-0.003564,-0.380173,-0.538208,0.429936,-0.617216
32600,NaN,0.598179,1.983800,-1.319076,-2.374650,0.555948,-9.520901,1.037244,0.104703,-0.792738,-0.995361,-0.208496,0.074463,0.006054,0.019882,-0.013091,0.999979,0.005186,0.000524,-0.003964,-0.380045,-0.541550,0.424393,-0.618207
32601,NaN,0.857860,1.755338,-2.287410,-2.541148,1.518067,-9.276761,1.890579,0.126296,-0.883430,-0.997314,-0.214844,0.074463,0.008642,0.017731,-0.022712,0.999945,0.009453,0.000631,-0.004417,-0.378569,-0.546211,0.416266,-0.620533
32602,NaN,0.608650,1.472826,-2.053336,-2.192045,1.354737,-9.473251,2.409672,0.177782,-0.867479,-0.988525,-0.221191,0.076660,0.006133,0.014948,-0.020360,0.999918,0.012048,0.000889,-0.004337,-0.375018,-0.551982,0.406049,-0.624341
32603,NaN,-0.007869,0.180971,-1.364152,-0.702796,1.178123,-9.921051,2.286378,-0.010743,-0.746692,-0.999268,-0.223389,0.083008,-0.000071,0.001966,-0.013620,0.999928,0.011432,-0.000054,-0.003733,-0.371221,-0.557694,0.396888,-0.627417
32604,NaN,-0.320000,-0.860746,-0.715654,0.515735,1.001597,-10.106337,1.641701,-0.239094,-0.583705,-0.984131,-0.225586,0.093506,-0.003216,-0.008539,-0.007231,0.999961,0.008208,-0.001195,-0.002918,-0.367984,-0.562629,0.390538,-0.628901
32605,NaN,-0.216211,-1.433283,0.122200,1.362220,0.500112,-9.913730,0.720242,-0.581086,-0.433157,-0.992432,-0.229980,0.095703,-0.002197,-0.014332,0.001164,0.999987,0.003601,-0.002905,-0.002166,-0.365595,-0.567038,0.387495,-0.628216
32606,NaN,0.325695,-1.401152,0.588120,1.484049,0.080238,-9.358439,-0.125792,-0.753782,-0.362471,-0.979736,-0.227783,0.106201,0.003209,-0.014014,0.005902,0.999991,-0.000629,-0.003769,-0.001812,-0.365626,-0.569874,0.388236,-0.625167
32607,NaN,0.738773,-0.893361,1.160728,1.241064,-0.655108,-8.963133,-0.715337,-0.591749,-0.318545,-0.990234,-0.232178,0.112549,0.007339,-0.008904,0.011661,0.999988,-0.003577,-0.002959,-0.001593,-0.366995,-0.571389,0.390110,-0.621806
32608,NaN,0.600261,-0.496220,1.344416,0.968510,-1.003092,-9.127280,-0.860649,-0.309950,-0.289283,-0.979492,-0.236328,0.110352,0.005975,-0.004913,0.013475,0.999988,-0.004303,-0.001550,-0.001446,-0.369744,-0.571331,0.392523,-0.618704
32609,NaN,0.318385,-0.058166,0.977252,0.436987,-0.860438,-9.454275,-0.678791,-0.138013,-0.304149,-0.987793,-0.244873,0.110596,0.003176,-0.000553,0.009777,0.999993,-0.003394,-0.000690,-0.001521,-0.371366,-0.571760,0.393023,-0.617018
32610,NaN,0.333552,-0.091909,0.321275,0.193073,-0.251522,-9.462858,-0.367097,-0.153592,-0.361155,-0.974854,-0.251465,0.112793,0.003331,-0.000919,0.003217,0.999996,-0.001835,-0.000768,-0.001806,-0.373226,-0.572260,0.393406,-0.615185
32611,NaN,0.047613,-0.783103,-0.240864,0.609899,0.543023,-9.730945,-0.042902,-0.117693,-0.439409,-0.985596,-0.249268,0.110596,0.000460,-0.007833,-0.002407,0.999997,-0.000215,-0.000588,-0.002197,-0.374194,-0.573647,0.392088,-0.614146
32612,NaN,-0.294763,-1.164571,-0.389759,0.916169,0.832799,-10.061887,0.112736,-0.037462,-0.431629,-0.968506,-0.249268,0.112549,-0.002972,-0.011637,-0.003905,0.999997,0.000564,-0.000187,-0.002158,-0.375120,-0.574819,0.390572,-0.613450
32613,NaN,-0.536956,-1.127229,-0.603225,0.804447,1.010439,-10.317388,0.081465,-0.015520,-0.367157,-0.981201,-0.253418,0.114746,-0.005390,-0.011260,-0.006037,0.999998,0.000407,-0.000078,-0.001836,-0.375510,-0.576038,0.388816,-0.613184
32614,NaN,-0.462693,-0.950913,-0.613649,0.634046,0.947435,-10.254542,-0.010381,-0.131248,-0.300060,-0.970459,-0.253662,0.118896,-0.004637,-0.009502,-0.006139,0.999999,-0.000052,-0.000656,-0.001500,-0.376204,-0.577004,0.388229,-0.612222
32615,NaN,-0.286685,-0.866030,-0.381990,0.640205,0.706166,-10.076467,-0.037475,-0.253298,-0.279380,-0.981201,-0.253662,0.121094,-0.002874,-0.008657,-0.003822,0.999998,-0.000187,-0.001266,-0.001397,-0.375478,-0.579011,0.386915,-0.611604
32616,NaN,0.567903,-0.977646,-0.242130,0.760335,0.634951,-9.216316,-0.068334,-0.258912,-0.318688,-0.966064,-0.257812,0.125488,0.005667,-0.009786,-0.002411,0.999998,-0.000342,-0.001295,-0.001593,-0.376148,-0.580291,0.386686,-0.610122
32617,NaN,1.448864,-0.865279,-0.888351,0.349572,1.186178,-8.360842,-0.210488,0.061132,-0.410715,-0.976562,-0.264160,0.119141,0.014468,-0.008692,-0.008879,0.999997,-0.001052,0.000306,-0.002054,-0.376541,-0.581491,0.384609,-0.610050
32618,NaN,1.481675,-1.103030,-1.972804,0.117866,2.276349,-8.360689,-0.271388,0.509331,-0.553415,-0.965820,-0.270752,0.114990,0.014736,-0.011098,-0.019751,0.999992,-0.001357,0.002547,-0.002767,-0.379993,-0.580487,0.382865,-0.609962
32619,NaN,1.413253,-0.918037,-2.674903,-0.326771,2.846374,-8.476095,-0.294631,0.639193,-0.714119,-0.980469,-0.272705,0.110840,0.014014,-0.009270,-0.026780,0.999987,-0.001473,0.003196,-0.003571,-0.384290,-0.579312,0.380620,-0.609793
32620,NaN,1.617056,-1.084873,-3.192891,-0.379367,3.407018,-8.317850,-0.279801,0.723701,-0.928191,-0.965576,-0.281250,0.104492,0.016004,-0.010968,-0.031972,0.999982,-0.001399,0.003618,-0.004641,-0.389300,-0.578324,0.377386,-0.609562
32621,NaN,1.191812,-1.618073,-3.319215,0.085666,3.739837,-8.782242,-0.145581,0.908984,-1.114046,-0.971680,-0.291992,0.087646,0.011677,-0.016270,-0.033234,0.999974,-0.000728,0.004545,-0.005570,-0.394880,-0.577303,0.373193,-0.609523
32622,NaN,0.526086,-2.476405,-3.654091,0.753935,4.371532,-9.525260,0.071352,1.099371,-1.175378,-0.960693,-0.298584,0.091797,0.004914,-0.024781,-0.036577,0.999968,0.000357,0.005497,-0.005877,-0.400293,-0.576268,0.367400,-0.610489
32623,NaN,-0.939283,-3.260844,-2.528033,1.952824,3.564166,-10.991260,0.179847,1.261251,-1.266989,-0.970947,-0.313477,0.077148,-0.009758,-0.032525,-0.025249,0.999960,0.000899,0.006306,-0.006335,-0.406108,-0.574957,0.361291,-0.611530
32624,NaN,0.189877,-3.227645,-0.300802,2.819334,1.609825,-9.750389,0.082543,1.020534,-1.290802,-0.953857,-0.319824,0.074951,0.001675,-0.032286,-0.003030,0.999966,0.000413,0.005103,-0.006454,-0.411646,-0.574318,0.355244,-0.611971
32625,NaN,1.490895,-1.008345,3.972753,2.549979,-3.046036,-8.012271,-0.133141,0.849137,-1.560656,-0.961914,-0.339111,0.064697,0.014998,-0.010174,0.039671,0.999960,-0.000666,0.004246,-0.007803,-0.418379,-0.574145,0.350077,-0.610543
32626,NaN,6.396773,-2.379708,8.741978,5.817406,-6.278494,-2.759885,-1.058146,0.179687,-1.943497,-0.936035,-0.349854,0.066650,0.063814,-0.023955,0.087489,0.999938,-0.005291,0.000898,-0.009717,-0.427635,-0.574751,0.347331,-0.605104
32627,NaN,9.274188,-5.108824,5.272313,7.075026,-1.772135,-0.500934,-1.362061,-0.766266,-1.249267,-0.948486,-0.360596,0.069092,0.092218,-0.051303,0.053426,0.999950,-0.006810,-0.003831,-0.006246,-0.433784,-0.576403,0.349733,-0.597727
32628,NaN,15.659376,-4.809168,1.967409,5.834586,1.767877,5.518524,-0.495444,-0.524770,0.165550,-0.944580,-0.349854,0.064697,0.156581,-0.047912,0.020204,0.999993,-0.002477,-0.002624,0.000828,-0.433793,-0.576605,0.352828,-0.595703
32629,NaN,25.639174,-2.961692,-2.332572,2.670250,6.144834,15.220697,-3.167955,1.690740,1.676458,-0.970215,-0.345459,0.035156,0.256423,-0.027855,-0.025043,0.999804,-0.015839,0.008453,0.008382,-0.440621,-0.561626,0.363837,-0.598374
32630,NaN,45.133880,2.310302,3.756982,-0.383208,1.274647,35.515863,-1.285663,1.458640,1.244490,-0.956055,-0.326172,0.032715,0.451440,0.026139,0.034116,0.999933,-0.006428,0.007293,0.006222,-0.443128,-0.552131,0.367943,-0.602833
32631,NaN,65.834275,6.350588,12.892801,-1.675985,-5.237517,57.346391,2.169664,2.026185,0.449174,-0.973145,-0.326172,0.007568,0.659466,0.063631,0.122940,0.999887,0.010848,0.010131,0.002246,-0.439327,-0.549941,0.358671,-0.613116
32632,NaN,36.211182,10.966534,-0.878891,-11.043812,2.680484,26.284690,0.446292,3.375172,-0.291977,-0.960205,-0.330322,-0.009521,0.362057,0.109165,-0.014655,0.999854,0.002231,0.016875,-0.001460,-0.444977,-0.541021,0.349037,-0.622467
32633,NaN,42.786814,25.255097,-0.257050,-24.081659,-0.680946,33.638515,-1.748880,1.089555,-2.526157,-0.961426,-0.364502,-0.026123,0.430982,0.247071,-0.007089,0.999867,-0.008744,0.005448,-0.012630,-0.459252,-0.538169,0.345454,-0.616542
32634,NaN,31.508951,7.565929,9.879872,-3.207693,-4.934901,23.546540,0.508643,2.485474,-3.644356,-0.930908,-0.390137,-0.042969,0.317592,0.069642,0.095044,0.999754,0.002543,0.012426,-0.018220,-0.473289,-0.537840,0.328292,-0.615589
32635,NaN,23.657452,10.112753,15.994041,-2.673447,-12.335387,17.724911,1.663320,0.749853,-3.602325,-0.930176,-0.420166,-0.040527,0.238928,0.095508,0.159857,0.999796,0.008316,0.003749,-0.018010,-0.480820,-0.545475,0.311505,-0.611746
32636,NaN,21.920850,12.268063,12.839667,-5.094008,-10.290307,15.955651,1.244791,0.324354,-2.080109,-0.908447,-0.437500,-0.031982,0.220672,0.119590,0.128790,0.999925,0.006224,0.001622,-0.010400,-0.484250,-0.550678,0.301225,-0.609524
32637,NaN,16.814085,13.603986,8.660202,-7.880166,-8.186273,10.526071,-0.359632,-0.514684,-1.214149,-0.916748,-0.441650,-0.034180,0.168740,0.135173,0.086792,0.999977,-0.001798,-0.002573,-0.006071,-0.487720,-0.553422,0.299670,-0.605021
32638,NaN,18.730550,11.166599,10.873423,-4.497955,-8.867827,12.433357,-0.192537,-0.709473,-0.341418,-0.899658,-0.441650,-0.031982,0.187109,0.111452,0.109291,0.999992,-0.000963,-0.003547,-0.001707,-0.488212,-0.555610,0.301039,-0.601932
32639,NaN,17.224863,9.676569,9.505893,-3.750694,-7.678148,10.378037,0.098503,-1.030433,0.802880,-0.923096,-0.437500,-0.019287,0.171365,0.097408,0.095991,0.999979,0.000493,-0.005152,0.004014,-0.483388,-0.558023,0.304638,-0.601782
32640,NaN,16.198447,8.100185,6.143051,-3.728361,-4.674686,8.352373,0.431688,-1.859396,1.388792,-0.910889,-0.420410,0.008057,0.160836,0.081986,0.063106,0.999930,0.002158,-0.009297,0.006944,-0.475132,-0.562510,0.311691,-0.600566
32641,NaN,20.935910,5.812877,7.966500,-0.616937,-4.918320,12.792079,1.059788,-1.421133,1.734079,-0.934570,-0.407471,0.016357,0.208273,0.059509,0.081460,0.999923,0.005299,-0.007105,0.008670,-0.463955,-0.566949,0.315679,-0.603044
32642,NaN,31.174403,6.100567,10.180117,0.462452,-5.480893,23.087172,1.155335,-0.817406,2.219969,-0.930908,-0.379639,0.033203,0.310625,0.063863,0.103436,0.999913,0.005777,-0.004087,0.011100,-0.452649,-0.568544,0.320361,-0.607647
32643,NaN,39.584980,5.439931,8.856089,0.504053,-3.027225,30.997986,0.533077,-0.674416,2.164250,-0.954834,-0.362549,0.031006,0.394930,0.058438,0.090046,0.999932,0.002665,-0.003372,0.010821,-0.442623,-0.568745,0.325281,-0.612214
32645,NaN,37.520326,7.083888,8.870466,-4.261199,-9.379951,67.901678,-0.855840,-0.133248,1.953121,-0.964111,-0.336914,0.022461,0.747193,0.157810,0.177102,0.999772,-0.008558,-0.001332,0.019530,-0.434992,-0.559294,0.342147,-0.617177
32646,NaN,24.899495,6.609306,6.502167,-3.710120,-4.725525,16.068092,-1.689357,-0.137617,2.097977,-0.960693,-0.315430,0.022217,0.248235,0.069247,0.064617,0.999909,-0.008447,-0.000688,0.010490,-0.432073,-0.552937,0.352329,-0.619224
32647,NaN,18.088813,3.358448,7.505659,-0.740117,-5.665319,9.217555,-1.483352,-0.965247,2.248609,-0.980225,-0.298340,0.020020,0.180127,0.036172,0.075665,0.999898,-0.007417,-0.004826,0.011243,-0.427459,-0.548707,0.365191,-0.618737
32648,NaN,14.043959,0.553160,6.035874,1.100942,-4.116662,4.877201,-1.359517,-1.394036,2.435739,-0.974365,-0.276855,0.036865,0.139930,0.007652,0.061288,0.999878,-0.006797,-0.006970,0.012178,-0.420147,-0.546191,0.377728,-0.618444
32649,NaN,13.492195,-1.070540,1.683687,0.784818,0.080940,3.802714,-1.410473,-1.813881,2.740233,-0.998535,-0.249023,0.040771,0.134890,-0.008732,0.018127,0.999840,-0.007052,-0.009069,0.013700,-0.412025,-0.543578,0.393326,-0.616484
32650,NaN,15.457365,-1.055727,-1.369957,-0.700398,2.629911,5.500169,-1.599908,-2.633371,2.938276,-0.986328,-0.227783,0.065918,0.154869,-0.008382,-0.011589,0.999773,-0.007999,-0.013166,0.014690,-0.401200,-0.543114,0.410365,-0.612916
32651,NaN,16.070905,0.783288,-2.025334,-2.966655,2.084652,5.992648,-2.194785,-2.960076,3.039972,-0.999756,-0.201904,0.076416,0.160845,0.010072,-0.017976,0.999715,-0.010973,-0.014799,0.015198,-0.391648,-0.541394,0.431168,-0.606298
32652,NaN,13.587921,4.746409,-1.027825,-6.384824,-0.553711,3.115283,-3.941364,-2.157078,2.781887,-0.998047,-0.189209,0.084717,0.135311,0.049153,-0.009774,0.999651,-0.019705,-0.010784,0.013908,-0.388487,-0.534579,0.453713,-0.597869
32653,NaN,7.826813,7.778457,-3.634336,-9.453296,1.217174,-3.170528,-4.820669,-1.465282,2.440339,-1.009277,-0.169922,0.082520,0.077591,0.077837,-0.037649,0.999608,-0.024100,-0.007325,0.012200,-0.390592,-0.523854,0.477315,-0.587524
32654,NaN,0.571707,7.343775,-6.836837,-8.753877,4.907255,-10.347637,-1.771493,-1.000312,1.605797,-1.000977,-0.159180,0.090820,0.005474,0.072873,-0.068988,0.999916,-0.008857,-0.005001,0.008029,-0.387766,-0.519892,0.487750,-0.584337
32655,NaN,-4.680192,3.032561,-8.712999,-4.230808,8.033412,-14.770502,1.647088,-0.839441,0.407015,-1.009521,-0.156982,0.105713,-0.046499,0.030948,-0.087072,0.999955,0.008235,-0.004197,0.002035,-0.380222,-0.524525,0.485605,-0.586935
32656,NaN,-6.694108,-4.383902,-9.318176,2.766085,10.550155,-15.459690,3.322479,-0.712993,-0.311254,-0.992432,-0.155029,0.118408,-0.066673,-0.042177,-0.094130,0.999854,0.016612,-0.003565,-0.001556,-0.370467,-0.533909,0.475721,-0.592777
32657,NaN,-1.484707,-16.223836,-6.380091,13.690135,10.788865,-8.299684,1.934931,-1.478776,0.721558,-1.005615,-0.144287,0.131104,-0.013783,-0.161661,-0.065471,0.999919,0.009674,-0.007394,0.003608,-0.359608,-0.540120,0.474616,-0.594721
