// Start Time: Unknown
// Update Rate: 100.0Hz
// Filter Profile: human (46.1)
// Firmware Version: 4.4.0
PacketCounter,SampleTimeFine,Acc_X,Acc_Y,Acc_Z,FreeAcc_X,FreeAcc_Y,FreeAcc_Z,Gyr_X,Gyr_Y,Gyr_Z,Mag_X,Mag_Y,Mag_Z,VelInc_X,VelInc_Y,VelInc_Z,OriInc_q0,OriInc_q1,OriInc_q2,OriInc_q3,Quat_q0,Quat_q1,Quat_q2,Quat_q3
18062,NaN,8.400419,2.458891,0.089681,0.000000,-0.000000,-1.059335,-0.795444,-0.052058,-0.223366,-0.899170,-0.292725,-0.354492,0.084031,0.024498,0.000821,0.999991,-0.003977,-0.000260,-0.001117,0.706175,0.122088,-0.693112,-0.077508
18063,NaN,8.131522,2.740651,0.216528,0.000000,0.000000,-1.229000,-0.884929,-0.155989,-0.107280,-0.899414,-0.290527,-0.360840,0.081328,0.027372,0.002108,0.999990,-0.004425,-0.000780,-0.000536,0.702951,0.094252,-0.691983,-0.134669
18064,NaN,8.413553,2.909319,0.194077,-0.053902,0.266848,-0.912375,-0.884107,-0.293985,-0.010885,-0.895264,-0.286377,-0.361084,0.084134,0.029097,0.001936,0.999989,-0.004421,-0.001470,-0.000054,0.704330,0.104850,-0.693647,-0.108531
18065,NaN,8.508414,2.895014,0.309155,-0.167060,0.228066,-0.824369,-0.897039,-0.301405,0.021417,-0.901611,-0.284180,-0.361084,0.085076,0.028973,0.003090,0.999989,-0.004485,-0.001507,0.000107,0.703759,0.101452,-0.694226,-0.111723
18066,NaN,8.573433,3.011048,0.194162,-0.038292,0.317957,-0.729444,-0.904193,-0.241080,-0.017508,-0.904053,-0.275635,-0.361084,0.085735,0.030112,0.001909,0.999989,-0.004521,-0.001205,-0.000088,0.703645,0.098249,-0.694237,-0.115179
18067,NaN,8.278979,2.753029,0.343318,-0.187847,0.162247,-1.084749,-0.841396,-0.141827,-0.046025,-0.903809,-0.279785,-0.365234,0.082794,0.027526,0.003376,0.999991,-0.004207,-0.000709,-0.000230,0.703533,0.095366,-0.694222,-0.118330
18068,NaN,8.080763,2.464224,0.362232,-0.204912,-0.048782,-1.359406,-0.872659,-0.111185,-0.041123,-0.899902,-0.273438,-0.369629,0.080811,0.024641,0.003560,0.999990,-0.004363,-0.000556,-0.000206,0.703575,0.091882,-0.694087,-0.121588
18069,NaN,8.051864,2.419787,0.284149,-0.114412,-0.085703,-1.401495,-0.924963,-0.070563,-0.014898,-0.899902,-0.275635,-0.369385,0.080519,0.024205,0.002758,0.999989,-0.004625,-0.000353,-0.000074,0.703738,0.088636,-0.693758,-0.124881
18070,NaN,8.176271,2.583748,0.080855,0.120068,0.016889,-1.238368,-0.955941,-0.022188,-0.011283,-0.904297,-0.269287,-0.371582,0.081764,0.025836,0.000694,0.999989,-0.004780,-0.000111,-0.000056,0.704136,0.085568,-0.693083,-0.128475
18071,NaN,8.274179,2.639469,-0.030293,0.261430,0.031712,-1.131655,-0.934800,0.064722,-0.017029,-0.904297,-0.264893,-0.375977,0.082744,0.026386,-0.000453,0.999989,-0.004674,0.000324,-0.000085,0.704742,0.082377,-0.692240,-0.131746
18072,NaN,8.380535,2.582682,-0.050541,0.309061,-0.058990,-1.048722,-0.908092,0.108846,0.009476,-0.900146,-0.264893,-0.377930,0.083804,0.025828,-0.000668,0.999990,-0.004540,0.000544,0.000047,0.705454,0.079143,-0.691278,-0.134933
18073,NaN,8.535041,2.503104,-0.017109,0.304280,-0.179472,-0.925176,-0.964156,0.126784,0.032109,-0.902588,-0.256348,-0.388672,0.085346,0.025043,-0.000346,0.999988,-0.004821,0.000634,0.000161,0.706287,0.075716,-0.690184,-0.138100
18074,NaN,8.733562,2.520148,0.158910,0.165392,-0.206813,-0.725265,-1.063587,0.124078,0.051167,-0.900391,-0.254150,-0.386475,0.087330,0.025232,0.001401,0.999986,-0.005318,0.000620,0.000256,0.707032,0.072028,-0.689145,-0.141409
18075,NaN,8.874414,2.635153,0.226057,0.150796,-0.130275,-0.554690,-1.172015,0.100353,0.054836,-0.898438,-0.249756,-0.395020,0.088738,0.026388,0.002061,0.999983,-0.005860,0.000502,0.000274,0.707826,0.067766,-0.687970,-0.145215
18076,NaN,9.205334,2.817481,0.326733,0.112091,-0.039377,-0.181028,-1.221459,0.086691,0.036451,-0.902832,-0.247559,-0.397217,0.092050,0.028211,0.003055,0.999981,-0.006107,0.000433,0.000182,0.708487,0.063703,-0.686931,-0.148710
18077,NaN,9.514285,2.984033,0.694015,-0.181779,0.071133,0.180781,-1.208099,0.135102,0.014606,-0.905273,-0.239014,-0.401367,0.095145,0.029888,0.006695,0.999982,-0.006040,0.000676,0.000073,0.709333,0.059473,-0.685546,-0.152762
18078,NaN,9.772188,3.001256,0.975073,-0.406250,0.049752,0.448220,-1.049522,0.219024,-0.017472,-0.898926,-0.236816,-0.409912,0.097735,0.030054,0.009486,0.999986,-0.005248,0.001095,-0.000087,0.710340,0.056237,-0.684065,-0.155918
18079,NaN,9.715307,3.074259,0.868919,-0.237706,0.118840,0.410933,-0.885964,0.277442,-0.049452,-0.898926,-0.236816,-0.414307,0.097172,0.030756,0.008418,0.999989,-0.004430,0.001387,-0.000247,0.711492,0.053475,-0.682367,-0.159045
18080,NaN,9.806387,3.213596,0.865481,-0.159099,0.211234,0.539672,-0.651733,0.302050,-0.097803,-0.899170,-0.232666,-0.414307,0.098092,0.032116,0.008402,0.999993,-0.003259,0.001510,-0.000489,0.712698,0.052081,-0.680686,-0.161296
18081,NaN,9.788358,3.302572,1.071616,-0.302824,0.315817,0.564002,-0.471829,0.293120,-0.136474,-0.895020,-0.232666,-0.420654,0.097922,0.032984,0.010495,0.999996,-0.002359,0.001466,-0.000682,0.713706,0.051100,-0.679222,-0.163311
18082,NaN,9.622729,3.242434,1.294609,-0.494375,0.318263,0.406924,-0.402198,0.265765,-0.165795,-0.892822,-0.230469,-0.418457,0.096271,0.032370,0.012753,0.999997,-0.002011,0.001329,-0.000829,0.714578,0.050427,-0.677777,-0.165693
18083,NaN,9.351833,3.060760,1.477157,-0.676203,0.240170,0.111624,-0.434713,0.252809,-0.166932,-0.896973,-0.232666,-0.428955,0.093562,0.030561,0.014587,0.999996,-0.002174,0.001264,-0.000835,0.715403,0.049649,-0.676469,-0.167698
18084,NaN,9.251628,3.079844,1.748417,-0.897924,0.307251,0.048053,-0.514951,0.265577,-0.138984,-0.888672,-0.230469,-0.427002,0.092561,0.030779,0.017282,0.999996,-0.002575,0.001328,-0.000695,0.716371,0.048205,-0.674744,-0.170910
18085,NaN,9.209477,3.360626,1.683581,-0.741611,0.562093,0.090675,-0.577137,0.307192,-0.087969,-0.890625,-0.234619,-0.437500,0.092135,0.033614,0.016597,0.999995,-0.002886,0.001536,-0.000440,0.717467,0.046697,-0.673125,-0.173097
18086,NaN,9.192469,3.742076,1.589377,-0.510569,0.883695,0.186756,-0.603813,0.358841,-0.036354,-0.888672,-0.230469,-0.437500,0.091960,0.037451,0.015616,0.999994,-0.003019,0.001794,-0.000182,0.718911,0.044449,-0.670711,-0.177026
18087,NaN,9.010085,3.921052,1.551968,-0.386945,1.097038,0.067158,-0.663709,0.387203,-0.001386,-0.888916,-0.226074,-0.443848,0.090131,0.039261,0.015215,0.999993,-0.003319,0.001936,-0.000007,0.720351,0.042410,-0.668726,-0.179169
18088,NaN,8.870638,3.950659,1.580375,-0.329659,1.141282,-0.046318,-0.772809,0.349003,0.028811,-0.886963,-0.221680,-0.448242,0.088728,0.039580,0.015496,0.999991,-0.003864,0.001745,0.000144,0.721510,0.038707,-0.666058,-0.185182
18089,NaN,8.713441,4.023248,1.331551,-0.015031,1.212603,-0.199538,-0.852630,0.307380,0.047546,-0.878662,-0.215332,-0.454590,0.087145,0.040309,0.013010,0.999990,-0.004263,0.001537,0.000238,0.722735,0.035757,-0.664162,-0.187789
18090,NaN,8.600326,4.174161,1.049750,0.371595,1.293120,-0.290048,-0.861984,0.234889,0.072516,-0.887207,-0.210938,-0.454590,0.086000,0.041817,0.010216,0.999990,-0.004310,0.001174,0.000363,0.723171,0.030944,-0.661836,-0.195034
18091,NaN,8.595998,4.161025,1.003145,0.469374,1.275993,-0.306747,-0.867531,0.179709,0.089883,-0.885010,-0.213135,-0.458740,0.085950,0.041692,0.009773,0.999990,-0.004338,0.000899,0.000449,0.723981,0.027684,-0.660348,-0.197551
18092,NaN,8.386636,3.930867,1.013101,0.462148,1.077740,-0.569394,-0.882889,0.111444,0.094938,-0.885498,-0.202393,-0.463135,0.083853,0.039393,0.009911,0.999990,-0.004414,0.000557,0.000475,0.723536,0.022538,-0.658326,-0.206385
18093,NaN,8.233141,3.664025,1.121716,0.321939,0.917765,-0.783742,-0.890587,0.048290,0.103218,-0.881104,-0.200195,-0.467285,0.082315,0.036732,0.011034,0.999990,-0.004453,0.000241,0.000516,0.723895,0.019026,-0.657237,-0.208935
18094,NaN,8.079152,3.415601,1.235250,0.189732,0.729671,-0.986798,-0.899708,0.021097,0.115942,-0.879150,-0.196045,-0.467529,0.080773,0.034258,0.012190,0.999990,-0.004499,0.000105,0.000580,0.722927,0.013087,-0.655525,-0.217927
18095,NaN,7.941403,3.128814,1.488096,-0.107581,0.596854,-1.169664,-0.916062,-0.002960,0.133077,-0.883545,-0.191650,-0.467529,0.079393,0.031409,0.014738,0.999989,-0.004580,-0.000015,0.000665,0.723115,0.009336,-0.654539,-0.220446
18096,NaN,8.013155,2.993375,1.642426,-0.239596,0.461051,-1.117954,-0.926894,0.021772,0.162533,-0.883789,-0.183105,-0.473877,0.080109,0.030075,0.016276,0.999989,-0.004634,0.000109,0.000813,0.722209,0.002970,-0.652332,-0.229930
18097,NaN,8.087598,2.900254,1.642964,-0.226756,0.370491,-1.075916,-0.928413,0.122720,0.183159,-0.884033,-0.176758,-0.469727,0.080859,0.029152,0.016245,0.999989,-0.004642,0.000614,0.000916,0.722826,-0.000838,-0.650817,-0.232292
18098,NaN,8.033964,2.613214,1.752997,-0.376699,0.146664,-1.193941,-0.966975,0.253065,0.189939,-0.884033,-0.176758,-0.484375,0.080337,0.026292,0.017301,0.999987,-0.004835,0.001265,0.000950,0.722761,-0.006272,-0.648132,-0.239796
18099,NaN,7.948843,2.274471,1.935033,-0.613887,-0.051576,-1.343813,-1.035812,0.334762,0.197093,-0.882324,-0.166016,-0.484619,0.079498,0.022922,0.019099,0.999985,-0.005179,0.001674,0.000985,0.724039,-0.010253,-0.645664,-0.242447
18100,NaN,8.008938,2.061240,2.107008,-0.765266,-0.212185,-1.315614,-1.109956,0.360635,0.237543,-0.882568,-0.157471,-0.488770,0.080102,0.020824,0.020810,0.999982,-0.005550,0.001803,0.001188,0.724975,-0.017058,-0.641388,-0.250483
18101,NaN,8.081433,1.991865,2.111083,-0.726474,-0.274352,-1.261062,-1.154785,0.353774,0.316227,-0.878662,-0.150879,-0.495361,0.080820,0.020167,0.020852,0.999981,-0.005774,0.001769,0.001581,0.726393,-0.021815,-0.638620,-0.253066
18102,NaN,8.515524,2.190701,2.170891,-0.595046,-0.218718,-0.778109,-1.169932,0.345272,0.402405,-0.878906,-0.140137,-0.499512,0.085148,0.022204,0.021433,0.999979,-0.005850,0.001726,0.002012,0.727496,-0.028354,-0.634818,-0.258749
18103,NaN,9.316265,2.555784,2.226796,-0.365723,-0.121222,0.093586,-1.164350,0.390175,0.460072,-0.877197,-0.129395,-0.508057,0.093146,0.025900,0.021936,0.999979,-0.005822,0.001951,0.002300,0.729149,-0.033544,-0.631814,-0.260821
18104,NaN,9.966484,2.610072,2.480854,-0.417665,-0.176950,0.774625,-1.168233,0.477281,0.453923,-0.879395,-0.125244,-0.512451,0.099664,0.026470,0.024417,0.999978,-0.005841,0.002386,0.002270,0.730697,-0.040411,-0.627496,-0.265891
18105,NaN,10.208724,2.140254,2.945189,-0.917210,-0.446832,0.977627,-1.150785,0.570864,0.416090,-0.875488,-0.116455,-0.518799,0.102125,0.021783,0.029036,0.999977,-0.005754,0.002854,0.002080,0.732792,-0.045160,-0.623781,-0.268091
18106,NaN,10.206092,1.400293,3.641254,-1.727670,-0.788130,0.947273,-1.071816,0.659679,0.403470,-0.871582,-0.105713,-0.529541,0.102151,0.014403,0.035999,0.999978,-0.005359,0.003298,0.002017,0.735447,-0.050734,-0.618046,-0.273064
18107,NaN,9.970629,1.027222,4.027042,-2.147044,-0.838527,0.740583,-0.937204,0.775671,0.449166,-0.871826,-0.099365,-0.535889,0.099838,0.010684,0.039834,0.999979,-0.004686,0.003878,0.002246,0.738204,-0.054508,-0.613787,-0.274500
18108,NaN,10.025898,1.359867,4.195211,-1.967114,-0.487087,0.951117,-0.788351,0.806229,0.537689,-0.865723,-0.090820,-0.540283,0.100390,0.014033,0.041493,0.999980,-0.003942,0.004031,0.002688,0.741578,-0.060099,-0.607448,-0.278313
18109,NaN,9.959260,1.710379,4.187216,-1.676545,-0.146993,0.995245,-0.632919,0.730039,0.599178,-0.863770,-0.084229,-0.548584,0.099692,0.017534,0.041453,0.999984,-0.003165,0.003650,0.002996,0.744427,-0.063247,-0.603670,-0.278229
18110,NaN,9.949985,1.858463,4.070994,-1.348167,-0.054506,1.013557,-0.402733,0.596877,0.685467,-0.864258,-0.071533,-0.555176,0.099556,0.019007,0.040375,0.999988,-0.002014,0.002984,0.003427,0.747921,-0.066916,-0.598580,-0.278995
18111,NaN,10.248869,1.973513,3.736023,-0.869247,-0.163646,1.237593,-0.153480,0.525622,0.766165,-0.860107,-0.069336,-0.552979,0.102510,0.020156,0.037075,0.999989,-0.000767,0.002628,0.003831,0.750503,-0.069047,-0.596137,-0.276763
18112,NaN,10.342181,1.978360,3.328344,-0.374375,-0.334962,1.219055,0.057190,0.529390,0.805322,-0.860107,-0.067139,-0.561523,0.103429,0.020191,0.033015,0.999988,0.000286,0.002647,0.004027,0.754717,-0.069805,-0.592520,-0.272856
18113,NaN,10.855594,1.715407,2.683315,0.205728,-0.957262,1.457956,0.293002,0.467783,0.766926,-0.854004,-0.058594,-0.565918,0.108552,0.017531,0.026605,0.999989,0.001465,0.002339,0.003835,0.757243,-0.070330,-0.590880,-0.269255
18114,NaN,12.165301,1.518314,1.936034,1.059185,-1.856555,2.413471,0.646590,0.248979,0.683493,-0.858154,-0.058594,-0.563721,0.121624,0.015536,0.019259,0.999988,0.003233,0.001245,0.003417,0.759702,-0.070729,-0.588424,-0.267596
18115,NaN,13.158961,1.947542,2.273786,1.158432,-1.609642,3.536016,0.994644,-0.244386,0.570235,-0.858398,-0.054199,-0.555176,0.131506,0.019737,0.022996,0.999983,0.004973,-0.001222,0.002851,0.760084,-0.068952,-0.590472,-0.262413
18116,NaN,12.386317,2.433915,2.845858,0.742717,-0.631314,3.090505,1.084091,-0.687598,0.416921,-0.864502,-0.064941,-0.555176,0.123713,0.024441,0.029016,0.999977,0.005420,-0.003438,0.002085,0.760621,-0.064512,-0.594037,-0.253799
18117,NaN,10.770430,2.511628,0.291112,2.621720,-1.003912,0.888318,1.294326,-1.255821,0.261355,-0.866455,-0.069336,-0.540283,0.107650,0.025235,0.003750,0.999958,0.006472,-0.006279,0.001307,0.757607,-0.061954,-0.600348,-0.248546
18118,NaN,11.167460,1.755556,-2.019816,4.210527,-2.615696,0.545774,1.394908,-2.049852,0.174018,-0.885010,-0.080078,-0.514893,0.111858,0.017788,-0.018929,0.999923,0.006974,-0.010249,0.000870,0.751994,-0.060746,-0.608793,-0.245329
18119,NaN,14.428453,0.327332,0.119320,1.879562,-3.846295,3.970058,1.138904,-2.467455,0.130951,-0.893555,-0.078125,-0.497803,0.144253,0.003354,0.002992,0.999907,0.005694,-0.012337,0.000655,0.744919,-0.059880,-0.619373,-0.240599
18120,NaN,14.910871,-0.735554,2.816268,-1.198759,-3.753841,4.859489,0.219033,-1.674456,-0.134148,-0.901855,-0.078125,-0.489502,0.148861,-0.007487,0.029402,0.999964,0.001095,-0.008372,-0.000671,0.739987,-0.059714,-0.625959,-0.238807
18121,NaN,10.473131,0.136864,1.855775,-0.615144,-2.059473,0.604945,-0.320044,-1.502233,-0.369708,-0.907959,-0.084473,-0.470215,0.104590,0.001206,0.019342,0.999969,-0.001600,-0.007511,-0.001849,0.734722,-0.061528,-0.631229,-0.240722
18122,NaN,7.863378,0.449141,-0.336224,1.112745,-1.865250,-2.234585,0.052519,-2.178519,-0.284035,-0.910156,-0.084717,-0.451172,0.078670,0.004380,-0.002504,0.999940,0.000263,-0.010892,-0.001420,0.728104,-0.062714,-0.639470,-0.238767
18123,NaN,6.135507,-1.128084,1.611401,-1.574442,-1.963890,-3.881708,0.182000,-2.065278,0.027749,-0.922852,-0.084717,-0.434326,0.061186,-0.011287,0.016736,0.999946,0.000910,-0.010326,0.000139,0.721548,-0.064597,-0.647167,-0.237425
18124,NaN,5.717040,-3.365733,5.417163,-6.058118,-2.237114,-4.186646,-0.299783,-0.888377,0.428317,-0.933594,-0.076172,-0.436523,0.057001,-0.033454,0.054475,0.999987,-0.001499,-0.004442,0.002142,0.719254,-0.068129,-0.650420,-0.234489
18125,NaN,6.732236,-2.970742,6.502566,-6.826042,-1.663604,-2.952006,0.134309,0.304530,0.674934,-0.925293,-0.073975,-0.436523,0.067521,-0.029523,0.064903,0.999993,0.000672,0.001523,0.003375,0.721073,-0.069477,-0.649252,-0.231729
18126,NaN,8.874514,-1.263041,3.418791,-3.136856,-1.892771,-0.946017,1.709583,0.089542,0.831396,-0.927246,-0.078125,-0.436523,0.088813,-0.012553,0.034041,0.999955,0.008548,0.000448,0.004157,0.724195,-0.065942,-0.650167,-0.220172
18127,NaN,11.252694,0.191045,-1.235259,1.890073,-2.868527,0.975414,2.233703,0.247967,0.935813,-0.922852,-0.078125,-0.432129,0.112501,0.002576,-0.012466,0.999926,0.011168,0.001240,0.004679,0.726711,-0.060612,-0.651375,-0.209590
18128,NaN,11.612950,0.628829,-2.769333,3.602143,-2.949999,1.198447,1.965154,0.481606,0.880018,-0.923096,-0.069580,-0.434326,0.116032,0.007073,-0.027906,0.999939,0.009826,0.002408,0.004400,0.730339,-0.056716,-0.651073,-0.198727
18129,NaN,11.157950,0.322639,-3.208757,3.942785,-3.152619,0.647421,1.575509,0.126337,0.800301,-0.927246,-0.071777,-0.430176,0.111544,0.003926,-0.032129,0.999961,0.007877,0.000632,0.004001,0.731961,-0.053432,-0.651927,-0.190707
18130,NaN,10.348196,-0.719257,-3.893087,4.241756,-3.954192,-0.371849,0.945871,-0.319916,0.691686,-0.925293,-0.067627,-0.427979,0.103568,-0.006651,-0.038798,0.999982,0.004729,-0.001600,0.003458,0.732870,-0.050664,-0.654413,-0.179106
18131,NaN,9.321377,-1.926281,-3.328805,3.235978,-4.612406,-1.450084,0.618816,-0.487084,0.571023,-0.931641,-0.067627,-0.423828,0.093349,-0.018894,-0.033120,0.999988,0.003094,-0.002435,0.002855,0.731933,-0.050692,-0.656602,-0.174865
18132,NaN,8.197026,-2.200608,-1.985472,1.831352,-4.120724,-2.353368,0.146162,-0.400047,0.621764,-0.927734,-0.059082,-0.417480,0.082078,-0.021737,-0.019707,0.999993,0.000731,-0.002000,0.003109,0.731884,-0.050764,-0.658951,-0.165990
18133,NaN,7.291272,-2.505955,-0.518314,0.270271,-3.761791,-3.068310,-0.275361,-0.243540,0.809390,-0.932129,-0.050537,-0.417725,0.073020,-0.024771,-0.005060,0.999990,-0.001377,-0.001218,0.004047,0.731674,-0.054632,-0.659404,-0.163875
18134,NaN,7.997197,-1.623979,0.886517,-0.706267,-2.525113,-2.034341,-0.450832,-0.318722,1.003557,-0.934814,-0.037598,-0.419922,0.080038,-0.015818,0.009029,0.999984,-0.002254,-0.001594,0.005018,0.731951,-0.057595,-0.661054,-0.154720
18135,NaN,8.398253,0.442091,0.182002,0.624077,-0.744931,-1.457206,-0.599821,-0.212122,1.109817,-0.935059,-0.024658,-0.413574,0.083954,0.004892,0.001895,0.999980,-0.002999,-0.001061,0.005549,0.731918,-0.063612,-0.661036,-0.152580
18136,NaN,8.700357,0.861522,-0.893711,1.819109,-0.538799,-1.231497,-0.529216,-0.207812,1.206351,-0.941650,-0.013916,-0.409424,0.086959,0.009116,-0.008870,0.999978,-0.002646,-0.001039,0.006032,0.732671,-0.067513,-0.661894,-0.143288
18137,NaN,9.336774,1.061639,-1.517518,2.539383,-0.505360,-0.652962,-0.360101,-0.218918,1.124818,-0.942139,-0.001221,-0.413818,0.093323,0.011114,-0.015093,0.999982,-0.001800,-0.001095,0.005624,0.732615,-0.072702,-0.662049,-0.140285
18138,NaN,9.422584,0.671861,-1.114578,2.066135,-0.602084,-0.547341,-0.218288,-0.062792,1.006982,-0.942383,0.005371,-0.405273,0.094194,0.007181,-0.011124,0.999987,-0.001091,-0.000314,0.005035,0.733327,-0.075432,-0.662691,-0.131842
18139,NaN,9.629363,-0.530899,-1.316286,1.938550,-1.743571,-0.435023,-0.258209,-0.142281,0.816673,-0.940430,0.009521,-0.409668,0.096324,-0.004933,-0.013088,0.999991,-0.001291,-0.000711,0.004083,0.733288,-0.079168,-0.662731,-0.129651
18140,NaN,9.209258,-0.963426,-0.909560,1.389224,-1.882835,-0.807655,-0.357358,-0.168400,0.665390,-0.940674,0.024658,-0.409668,0.092132,-0.009344,-0.009001,0.999993,-0.001787,-0.000842,0.003327,0.732698,-0.081976,-0.664093,-0.124157
18141,NaN,9.062197,-0.671067,-0.811814,1.361984,-1.507844,-0.918649,-0.620581,-0.262922,0.591332,-0.942871,0.026611,-0.403320,0.090652,-0.006468,-0.007979,0.999990,-0.003103,-0.001315,0.002957,0.731928,-0.086366,-0.664425,-0.123946
18142,NaN,9.277384,-0.673127,-0.686675,1.237865,-1.385077,-0.672478,-0.767317,-0.427247,0.491483,-0.945312,0.037354,-0.399170,0.092804,-0.006529,-0.006643,0.999987,-0.003837,-0.002136,0.002457,0.730281,-0.089736,-0.666503,-0.120047
18143,NaN,9.277794,-1.077972,-0.002605,0.436308,-1.519316,-0.607229,-0.579203,-0.442726,0.477253,-0.947754,0.043701,-0.392822,0.092803,-0.010558,0.000210,0.999991,-0.002896,-0.002214,0.002386,0.728823,-0.093695,-0.667554,-0.120038
18144,NaN,9.339027,-0.097509,-0.176354,0.852503,-0.535151,-0.525897,-0.525548,-0.624793,0.408179,-0.945801,0.052246,-0.386719,0.093397,-0.000789,-0.001470,0.999990,-0.002628,-0.003124,0.002041,0.726460,-0.096175,-0.670555,-0.115591
18145,NaN,9.309520,0.178895,0.504261,0.236777,-0.019098,-0.490852,-0.300110,-0.673403,0.319876,-0.951904,0.048096,-0.382324,0.093074,0.001946,0.005353,0.999992,-0.001501,-0.003367,0.001599,0.724235,-0.098714,-0.672672,-0.115114
18146,NaN,9.054942,0.021913,0.475248,0.140158,-0.087064,-0.746772,-0.223406,-0.544509,0.295406,-0.949951,0.056641,-0.375977,0.090536,0.000358,0.004999,0.999995,-0.001117,-0.002723,0.001477,0.722113,-0.099424,-0.675638,-0.110368
18147,NaN,9.113099,-0.168150,0.500674,0.025890,-0.223531,-0.687083,-0.163120,-0.500749,0.269691,-0.945801,0.056641,-0.371826,0.091120,-0.001554,0.005236,0.999996,-0.000816,-0.002504,0.001348,0.720483,-0.101187,-0.677223,-0.109699
18148,NaN,9.123884,-0.619832,0.138936,0.196496,-0.693277,-0.695159,-0.234018,-0.408443,0.293738,-0.947998,0.056641,-0.375977,0.091245,-0.006063,0.001583,0.999996,-0.001170,-0.002042,0.001469,0.718892,-0.101147,-0.679678,-0.104888
18149,NaN,9.267364,-1.094786,0.091301,0.085712,-1.125105,-0.548913,-0.347406,-0.345869,0.336773,-0.958740,0.062988,-0.365479,0.092690,-0.010790,0.001092,0.999996,-0.001737,-0.001729,0.001684,0.717712,-0.103708,-0.680569,-0.104686
18150,NaN,9.345105,-1.147477,-0.507539,0.615831,-1.278844,-0.491185,-0.399469,-0.310240,0.373642,-0.957031,0.073730,-0.371826,0.093480,-0.011310,-0.004908,0.999995,-0.001997,-0.001551,0.001868,0.716279,-0.104259,-0.682640,-0.100391
18151,NaN,9.063413,-0.901936,-1.047336,1.166153,-1.156698,-0.792831,-0.356160,-0.348073,0.404732,-0.954590,0.067139,-0.357178,0.090670,-0.008854,-0.010300,0.999995,-0.001781,-0.001740,0.002024,0.715103,-0.107075,-0.683496,-0.099979
18152,NaN,8.914469,-0.594900,-1.183755,1.342931,-0.821085,-0.938849,-0.352267,-0.486964,0.457940,-0.957031,0.082275,-0.359375,0.089186,-0.005765,-0.011610,0.999993,-0.001761,-0.002435,0.002290,0.713187,-0.107659,-0.686113,-0.094985
18153,NaN,9.182244,-0.898811,-1.098244,1.150220,-1.032172,-0.650875,-0.271460,-0.553629,0.515475,-0.959229,0.077881,-0.357178,0.091875,-0.008766,-0.010716,0.999992,-0.001357,-0.002768,0.002577,0.711380,-0.110641,-0.687678,-0.093784
18154,NaN,9.383289,-0.914204,-0.492960,0.528327,-0.781413,-0.419354,-0.128276,-0.550716,0.538923,-0.959229,0.086426,-0.346680,0.093870,-0.008892,-0.004665,0.999992,-0.000641,-0.002754,0.002695,0.709412,-0.110007,-0.690666,-0.087255
18155,NaN,9.502852,-0.376705,0.261162,-0.079832,0.011777,-0.299154,-0.060246,-0.540572,0.582834,-0.959473,0.090820,-0.342529,0.095031,-0.003489,0.002870,0.999992,-0.000301,-0.002703,0.002914,0.707762,-0.112451,-0.692232,-0.085103
18156,NaN,9.442703,-0.348065,0.721406,-0.569653,0.249676,-0.356532,-0.085761,-0.518066,0.617121,-0.963623,0.093018,-0.336182,0.094418,-0.003186,0.007460,0.999992,-0.000429,-0.002590,0.003086,0.705827,-0.111870,-0.695117,-0.078138
18157,NaN,9.525484,-0.224462,0.984297,-0.817493,0.512055,-0.282572,-0.055174,-0.460411,0.632138,-0.966064,0.103516,-0.332031,0.095238,-0.001941,0.010063,0.999992,-0.000276,-0.002302,0.003161,0.704439,-0.114421,-0.696363,-0.075846
18158,NaN,9.712396,-0.290324,0.976803,-0.873995,0.539676,-0.101173,-0.011765,-0.410812,0.625746,-0.962158,0.110107,-0.327881,0.097112,-0.002599,0.009968,0.999993,-0.000059,-0.002054,0.003129,0.702753,-0.113941,-0.698838,-0.069141
18159,NaN,9.686672,-0.118870,0.475120,-0.368912,0.643255,-0.142054,0.098122,-0.421099,0.634806,-0.964355,0.118652,-0.323730,0.096860,-0.000884,0.004955,0.999993,0.000491,-0.002105,0.003174,0.701554,-0.115938,-0.699985,-0.066333
18160,NaN,9.531068,-0.156835,-0.194075,0.226990,0.515914,-0.295054,0.160167,-0.460755,0.652635,-0.968750,0.122803,-0.323730,0.095319,-0.001256,-0.001722,0.999992,0.000801,-0.002304,0.003263,0.700059,-0.115151,-0.702241,-0.059294
18161,NaN,9.367402,-0.235778,-0.640153,0.610619,0.389694,-0.448481,0.234478,-0.506951,0.665699,-0.964844,0.131348,-0.311035,0.093697,-0.002039,-0.006167,0.999991,0.001172,-0.002535,0.003328,0.698607,-0.116795,-0.703695,-0.055854
18162,NaN,9.449938,-0.189684,-0.326487,0.272682,0.610025,-0.378874,0.268278,-0.552440,0.673394,-0.968994,0.133545,-0.311035,0.094514,-0.001574,-0.003006,0.999990,0.001341,-0.002762,0.003367,0.696776,-0.116339,-0.706088,-0.049079
18163,NaN,9.321825,-0.084994,0.040869,-0.095530,0.857398,-0.530419,0.238813,-0.558207,0.672757,-0.971191,0.133545,-0.300537,0.093219,-0.000537,0.000668,0.999990,0.001194,-0.002791,0.003364,0.695106,-0.117995,-0.707692,-0.045574
18164,NaN,9.241413,0.103693,0.010742,-0.095712,1.109032,-0.637997,0.166218,-0.546741,0.662123,-0.967041,0.142090,-0.302734,0.092409,0.001343,0.000361,0.999990,0.000831,-0.002734,0.003311,0.693272,-0.112279,-0.711066,-0.033959
18165,NaN,9.291890,0.293423,-0.055607,-0.028214,1.353357,-0.615103,0.171627,-0.512362,0.627044,-0.967041,0.142090,-0.294189,0.092910,0.003226,-0.000315,0.999991,0.000858,-0.002562,0.003135,0.691651,-0.113976,-0.712513,-0.030894
18166,NaN,9.690366,0.576094,-0.079328,-0.039458,1.746522,-0.263394,0.159922,-0.501738,0.571739,-0.967529,0.155029,-0.292236,0.096888,0.006038,-0.000545,0.999992,0.000800,-0.002509,0.002859,0.689877,-0.107784,-0.715582,-0.019865
18167,NaN,10.076754,0.827202,-0.316614,0.191362,2.057463,0.089601,0.171975,-0.463643,0.480957,-0.973633,0.150635,-0.287842,0.100754,0.008517,-0.002925,0.999994,0.000860,-0.002318,0.002405,0.688359,-0.108932,-0.716934,-0.017348
18168,NaN,10.451302,1.083247,-0.681767,0.497747,2.362407,0.436161,0.246389,-0.433734,0.379918,-0.965332,0.156982,-0.283691,0.104507,0.011039,-0.006578,0.999995,0.001232,-0.002169,0.001900,0.686709,-0.103658,-0.719449,-0.008851
18169,NaN,10.544651,2.097283,-0.793531,0.730350,3.391469,0.394284,0.241960,-0.339692,0.275363,-0.973877,0.156982,-0.283691,0.105431,0.021127,-0.007731,0.999997,0.001210,-0.001698,0.001377,0.685628,-0.103807,-0.720480,-0.006867
18170,NaN,10.887005,3.184086,-1.800800,1.782949,4.409774,0.641166,0.046803,-0.239120,0.184522,-0.973877,0.159180,-0.275391,0.108862,0.031945,-0.017870,0.999999,0.000234,-0.001196,0.000923,0.684533,-0.099231,-0.722196,-0.000902
18171,NaN,11.096672,3.593185,-2.239163,2.249695,4.793708,0.818408,-0.297479,-0.182622,0.076395,-0.969727,0.159180,-0.277344,0.110973,0.035941,-0.022344,0.999998,-0.001487,-0.000913,0.000382,0.683732,-0.100500,-0.722778,-0.001632
18172,NaN,11.104675,3.126229,-1.694079,1.583500,4.422357,0.859346,-0.567145,-0.200329,-0.015778,-0.971924,0.161377,-0.275391,0.111066,0.031206,-0.016918,0.999995,-0.002836,-0.001002,-0.000079,0.682366,-0.099064,-0.724266,-0.000707
18173,NaN,11.614134,2.394394,-0.834998,0.596911,3.882278,1.407387,-0.651643,-0.177661,-0.082522,-0.965576,0.161377,-0.269043,0.116159,0.023869,-0.008325,0.999994,-0.003258,-0.000888,-0.000413,0.681402,-0.100962,-0.724905,-0.003269
18174,NaN,12.015383,1.481872,-0.240649,-0.183665,3.106449,1.889428,-0.520079,-0.094837,-0.132117,-0.969727,0.159180,-0.270996,0.120165,0.014733,-0.002388,0.999996,-0.002600,-0.000474,-0.000661,0.680563,-0.099711,-0.725864,-0.003658
18175,NaN,12.166342,0.845828,0.210966,-0.739471,2.547867,2.092828,-0.205436,-0.041445,-0.200719,-0.967529,0.159180,-0.270996,0.121671,0.008338,0.002126,0.999999,-0.001027,-0.000207,-0.001004,0.680312,-0.099655,-0.726099,-0.005074
18176,NaN,12.512938,0.175581,0.352539,-1.028996,1.914480,2.516326,0.145038,-0.079672,-0.269007,-0.967285,0.154785,-0.266846,0.125130,0.001585,0.003576,0.999999,0.000725,-0.000398,-0.001345,0.679934,-0.095794,-0.726979,-0.003837
18177,NaN,13.444054,-1.047203,0.287500,-1.213448,0.794701,3.596925,0.454825,-0.166378,-0.288560,-0.967285,0.150635,-0.264648,0.134423,-0.010673,0.002963,0.999996,0.002274,-0.000832,-0.001443,0.679546,-0.093174,-0.727686,-0.003094
18178,NaN,12.764376,-0.780038,0.238518,-1.115541,0.907446,2.896624,0.694869,-0.125045,-0.316798,-0.964844,0.142090,-0.264648,0.127630,-0.008011,0.002437,0.999993,0.003474,-0.000625,-0.001584,0.679262,-0.088522,-0.728536,-0.001220
18179,NaN,11.586540,1.045555,-0.737123,0.146856,2.394407,1.594746,0.941020,0.026256,-0.423190,-0.964844,0.137695,-0.262451,0.115886,0.010245,-0.007338,0.999987,0.004705,0.000131,-0.002116,0.679769,-0.083754,-0.728628,0.000750
18180,NaN,10.645928,2.536688,-1.421201,1.032737,3.621813,0.560648,1.219928,0.090048,-0.582491,-0.966553,0.126953,-0.268799,0.106526,0.025143,-0.014106,0.999977,0.006100,0.000450,-0.002912,0.680472,-0.076493,-0.728763,0.003334
18181,NaN,10.227563,3.177327,-0.643500,0.326734,4.231529,0.041219,1.296459,0.183121,-0.748416,-0.968506,0.120605,-0.272949,0.102388,0.031431,-0.006324,0.999972,0.006482,0.000916,-0.003742,0.681634,-0.069328,-0.728381,0.005433
18182,NaN,10.520114,2.597443,0.535743,-0.943484,3.693420,0.344771,1.448717,0.305987,-0.966544,-0.969971,0.101318,-0.272705,0.105333,0.025427,0.005382,0.999961,0.007243,0.001530,-0.004833,0.683144,-0.060557,-0.727738,0.006651
18183,NaN,10.490985,1.903711,0.722929,-1.202285,2.899853,0.402568,1.585856,0.174364,-1.119098,-0.965332,0.088379,-0.274658,0.105020,0.018392,0.007285,0.999953,0.007929,0.000872,-0.005595,0.684269,-0.051043,-0.727391,0.008537
18184,NaN,11.682652,1.794727,0.563525,-1.154256,2.728924,1.643382,1.337782,-0.061601,-1.259844,-0.967285,0.077637,-0.276855,0.116935,0.017173,0.005788,0.999958,0.006689,-0.000308,-0.006299,0.684301,-0.041568,-0.727967,0.008272
18185,NaN,12.825813,1.637386,-0.055785,-0.635982,2.458150,2.865471,0.623973,0.119858,-1.457126,-0.964600,0.060547,-0.278809,0.128373,0.015441,-0.000586,0.999968,0.003120,0.000599,-0.007286,0.684911,-0.034105,-0.727807,0.005524
18186,NaN,13.799266,0.328116,-0.491915,-0.279658,0.963725,3.962569,0.197870,0.585581,-1.628506,-0.961914,0.043457,-0.282959,0.137998,0.002163,-0.005321,0.999962,0.000989,0.002928,-0.008142,0.687023,-0.028771,-0.726063,-0.001777
18187,NaN,13.669983,-2.094120,0.152633,-0.927128,-1.662904,3.885725,0.193621,0.918308,-1.656066,-0.957275,0.026367,-0.293457,0.136525,-0.022073,0.000878,0.999955,0.000968,0.004591,-0.008280,0.690344,-0.022056,-0.723112,-0.006904
18188,NaN,13.165660,-4.435988,0.413563,-1.143505,-4.245347,3.372414,0.762803,0.927090,-1.592807,-0.957031,0.013428,-0.299561,0.131314,-0.045420,0.003355,0.999950,0.003814,0.004635,-0.007964,0.693617,-0.014408,-0.720107,-0.011564
18189,NaN,13.127109,-6.413066,0.813383,-1.426079,-6.428163,3.254298,1.534308,0.998386,-1.543605,-0.952148,-0.003662,-0.307861,0.130807,-0.065198,0.006983,0.999928,0.007671,0.004992,-0.007718,0.697187,-0.003442,-0.716789,-0.011473
18190,NaN,13.177599,-8.298603,0.726183,-1.162734,-8.542153,3.176148,2.003162,1.073765,-1.547338,-0.945312,-0.022949,-0.314209,0.131162,-0.084065,0.005718,0.999906,0.010015,0.005369,-0.007736,0.700834,0.007471,-0.713184,-0.012015
18191,NaN,13.627474,-9.982951,-0.728733,0.633050,-10.461156,3.455381,2.276383,1.327598,-1.675003,-0.937988,-0.052979,-0.320312,0.135375,-0.100867,-0.009332,0.999878,0.011381,0.006638,-0.008375,0.705300,0.021527,-0.708515,-0.009725
18192,NaN,14.254536,-7.121025,-0.113306,0.331909,-7.848010,4.050807,2.820527,1.069925,-1.599530,-0.935547,-0.070068,-0.322266,0.141958,-0.072315,-0.002908,0.999854,0.014102,0.005349,-0.007997,0.708562,0.036366,-0.704684,-0.006162
18193,NaN,14.775376,-2.577626,1.435344,-1.197798,-3.638020,4.759235,2.012653,-0.069524,-1.459582,-0.926270,-0.089355,-0.320068,0.147555,-0.026997,0.014137,0.999923,0.010063,-0.000348,-0.007298,0.707854,0.048663,-0.704667,-0.004263
18194,NaN,14.359607,-0.181571,-0.328316,0.482978,-1.346370,4.480228,1.703797,0.571961,-1.755048,-0.926025,-0.104248,-0.320068,0.143563,-0.003045,-0.003716,0.999921,0.008519,0.002860,-0.008775,0.709336,0.059741,-0.702315,-0.005225
18195,NaN,12.691876,0.080706,-1.113917,1.318807,-1.105597,2.811278,1.691985,0.550384,-1.990263,-0.920898,-0.130127,-0.323975,0.126888,-0.000360,-0.011488,0.999911,0.008460,0.002752,-0.009951,0.710651,0.072768,-0.699744,-0.006187
18196,NaN,11.071902,-1.002096,0.236759,0.098919,-2.352677,1.054567,2.057390,0.085734,-2.180441,-0.913818,-0.153564,-0.317627,0.110602,-0.011250,0.002209,0.999888,0.010287,0.000429,-0.010902,0.710024,0.085603,-0.698903,-0.008511
18197,NaN,11.270404,0.094011,1.704661,-1.490827,-1.726106,1.355418,2.419198,-1.072313,-2.177369,-0.919434,-0.179443,-0.302490,0.112610,-0.000497,0.017650,0.999853,0.012095,-0.005361,-0.010886,0.705047,0.101769,-0.701772,-0.008253
18198,NaN,12.884953,0.898017,1.296821,-1.268413,-1.428733,3.026720,2.569241,-0.931746,-2.137267,-0.910156,-0.202881,-0.293945,0.128872,0.007430,0.013671,0.999850,0.012846,-0.004658,-0.010686,0.700291,0.116186,-0.704282,-0.008918
18199,NaN,12.783348,0.493768,1.292325,-1.229268,-2.109716,2.811046,2.442937,0.084795,-2.061093,-0.894287,-0.232910,-0.285156,0.127880,0.003462,0.012917,0.999872,0.012214,0.000424,-0.010305,0.698991,0.132014,-0.702800,-0.007491
18200,NaN,10.474575,-0.069262,0.097342,0.074847,-2.232356,0.421460,1.709025,0.396721,-2.089531,-0.894043,-0.243652,-0.289307,0.104732,-0.001794,0.000753,0.999907,0.008545,0.001984,-0.010447,0.699183,0.143630,-0.700298,-0.009769
18201,NaN,9.102453,-0.196990,-1.493649,1.720566,-1.945443,-0.959649,1.138199,0.573759,-2.193810,-0.880615,-0.267334,-0.287109,0.090953,-0.002882,-0.015212,0.999920,0.005691,0.002869,-0.010969,0.700213,0.155334,-0.696708,-0.013048
18202,NaN,8.339464,-0.850128,-1.614480,2.015209,-2.524868,-1.910965,0.822176,0.635281,-2.157210,-0.873779,-0.284424,-0.291260,0.083245,-0.009333,-0.016447,0.999928,0.004111,0.003176,-0.010786,0.701601,0.162520,-0.693501,-0.019983
18203,NaN,8.788855,0.072947,-1.877541,2.196031,-1.862062,-1.299073,-0.019444,0.590923,-2.070071,-0.862549,-0.301514,-0.295410,0.087834,-0.000182,-0.019035,0.999942,-0.000097,0.002955,-0.010350,0.703419,0.169707,-0.689696,-0.026839
18204,NaN,7.346107,-0.122111,-2.965100,3.312339,-1.603268,-2.796492,-0.645065,0.986545,-2.077445,-0.860107,-0.314453,-0.305908,0.073295,-0.002079,-0.030007,0.999929,-0.003225,0.004933,-0.010387,0.706948,0.171666,-0.685058,-0.038075
18205,NaN,6.757452,0.158263,-1.566355,1.954320,-1.558172,-3.340252,-0.727449,1.153915,-1.780742,-0.844971,-0.327148,-0.316406,0.067493,0.000924,-0.016057,0.999937,-0.003637,0.005769,-0.008904,0.711142,0.175430,-0.679262,-0.045876
18206,NaN,5.793656,0.251133,-0.932018,1.311344,-1.391387,-4.259148,-0.840320,0.732970,-1.366089,-0.833984,-0.335693,-0.322754,0.057917,0.002076,-0.009542,0.999961,-0.004202,0.003665,-0.006830,0.713817,0.174115,-0.676061,-0.055593
18207,NaN,3.900045,-0.654478,-0.170875,0.597258,-1.824676,-6.351255,-0.774096,0.816627,-1.036010,-0.825439,-0.337891,-0.333252,0.038958,-0.006754,-0.001842,0.999971,-0.003870,0.004083,-0.005180,0.716943,0.175104,-0.672001,-0.061203
18208,NaN,3.533578,-1.028928,1.007951,-0.537922,-2.269300,-6.792466,-0.754886,0.230722,-0.576999,-0.829834,-0.335693,-0.335449,0.035318,-0.010353,0.010078,0.999988,-0.003774,0.001154,-0.002885,0.718016,0.172181,-0.671027,-0.067297
18209,NaN,4.654929,-0.494664,0.885675,-0.396298,-2.124646,-5.566951,-1.170977,-0.275755,-0.148493,-0.825684,-0.331543,-0.341797,0.046533,-0.004929,0.008950,0.999982,-0.005855,-0.001379,-0.000742,0.718036,0.168407,-0.671476,-0.072003
18210,NaN,6.030543,0.420571,0.477669,-0.007537,-1.653348,-3.978403,-1.340555,-0.008824,0.049167,-0.828125,-0.327148,-0.343994,0.060304,0.004252,0.004751,0.999978,-0.006703,-0.000044,0.000246,0.718822,0.160120,-0.671860,-0.079120
18211,NaN,6.787366,1.308966,0.208384,0.257068,-1.025623,-2.978436,-1.266193,0.410558,0.098682,-0.823730,-0.329346,-0.354492,0.067871,0.013135,0.001861,0.999978,-0.006331,0.002053,0.000493,0.721238,0.155424,-0.669940,-0.082697
18212,NaN,6.420260,1.387470,-0.479392,0.948255,-0.739607,-3.337497,-1.230003,0.710914,0.096147,-0.822021,-0.316406,-0.365234,0.064178,0.013875,-0.005107,0.999975,-0.006150,0.003555,0.000481,0.724444,0.149188,-0.667340,-0.087073
18213,NaN,5.769978,1.077208,-0.507364,0.996474,-0.808909,-4.062655,-1.165361,0.772815,0.127235,-0.817871,-0.316406,-0.371582,0.057673,0.010778,-0.005359,0.999975,-0.005827,0.003864,0.000636,0.727929,0.144903,-0.664105,-0.089930
18214,NaN,5.325502,0.881845,-0.172280,0.676289,-0.866076,-4.524902,-1.151648,0.639343,0.196824,-0.816162,-0.307617,-0.382324,0.053240,0.008860,-0.001944,0.999978,-0.005758,0.003197,0.000984,0.730813,0.138869,-0.661737,-0.093446
18215,NaN,5.011617,0.569033,0.327357,0.199374,-1.084449,-4.880004,-1.054707,0.555130,0.297677,-0.818359,-0.303467,-0.386475,0.050116,0.005782,0.003104,0.999981,-0.005274,0.002776,0.001488,0.733507,0.134314,-0.659404,-0.095470
18216,NaN,4.576228,0.201556,0.891503,-0.372514,-1.304707,-5.347698,-0.980711,0.419596,0.453135,-0.814453,-0.290527,-0.393066,0.045776,0.002163,0.008809,0.999983,-0.004904,0.002098,0.002266,0.735672,0.128494,-0.657919,-0.097043
18217,NaN,4.537985,0.293382,0.784279,-0.256380,-1.168392,-5.355841,-0.880994,0.235686,0.609739,-0.816895,-0.284180,-0.395020,0.045380,0.003107,0.007776,0.999985,-0.004405,0.001178,0.003049,0.737299,0.123387,-0.657001,-0.097554
18218,NaN,4.268665,0.138582,0.969948,-0.464610,-1.201508,-5.626772,-0.789939,0.097178,0.769652,-0.814941,-0.277588,-0.399414,0.042686,0.001588,0.009673,0.999985,-0.003950,0.000486,0.003848,0.738361,0.116841,-0.656970,-0.097780
18219,NaN,4.184117,0.526718,1.064259,-0.569316,-0.767675,-5.569660,-0.755849,-0.070208,0.940065,-0.821533,-0.267090,-0.395264,0.041812,0.005504,0.010637,0.999982,-0.003779,-0.000351,0.004700,0.739018,0.110954,-0.657391,-0.096841
18220,NaN,4.203624,1.065011,1.239454,-0.744281,-0.209223,-5.369383,-0.716539,-0.217228,1.103602,-0.823975,-0.256348,-0.397461,0.041963,0.010926,0.012401,0.999978,-0.003583,-0.001086,0.005518,0.739296,0.104626,-0.658468,-0.094417
18221,NaN,4.232906,1.547532,1.337917,-0.842924,0.304480,-5.197628,-0.693781,-0.361171,1.252630,-0.834961,-0.243408,-0.395264,0.042207,0.015786,0.013401,0.999973,-0.003469,-0.001806,0.006263,0.739041,0.097791,-0.660107,-0.092266
18222,NaN,4.747055,2.019843,1.224267,-0.681532,0.703892,-4.601873,-0.776628,-0.571996,1.395335,-0.833252,-0.226318,-0.386963,0.047293,0.020576,0.012299,0.999964,-0.003883,-0.002860,0.006977,0.738245,0.090260,-0.662515,-0.089002
18223,NaN,6.036713,2.868815,1.195206,-0.522444,1.298284,-3.168823,-0.985486,-0.727908,1.481674,-0.844238,-0.213379,-0.382812,0.060108,0.029193,0.012028,0.999954,-0.004927,-0.003639,0.007408,0.736905,0.081414,-0.665396,-0.087131
18224,NaN,8.879587,3.359738,0.539855,0.398764,1.243731,-0.393635,-1.182425,-0.672772,1.515623,-0.849121,-0.198486,-0.383057,0.088519,0.034301,0.005495,0.999948,-0.005912,-0.003364,0.007578,0.735855,0.071953,-0.667937,-0.084861
18225,NaN,12.780246,4.220856,-0.267605,1.574331,1.392239,3.483987,-1.217755,-0.500858,1.555285,-0.858154,-0.181152,-0.387207,0.127476,0.043185,-0.002617,0.999948,-0.006089,-0.002504,0.007776,0.735243,0.062089,-0.669782,-0.083391
18226,NaN,15.093992,4.387364,0.619793,0.915345,1.321748,5.835723,-1.368559,-0.106022,1.324478,-0.854248,-0.168457,-0.383057,0.150642,0.044913,0.005973,0.999955,-0.006843,-0.000530,0.006622,0.735970,0.053523,-0.669949,-0.081558
18227,NaN,14.933022,3.060963,2.259275,-0.736665,0.294582,5.576810,-1.637402,0.069169,0.914620,-0.858887,-0.155518,-0.381104,0.149195,0.031475,0.022286,0.999956,-0.008187,0.000346,0.004573,0.736982,0.044486,-0.669238,-0.083664
18228,NaN,17.331155,3.129632,5.514070,-3.690084,0.257801,8.267165,-2.142792,-0.114971,0.585309,-0.854980,-0.138428,-0.385498,0.173186,0.032392,0.054897,0.999938,-0.010714,-0.000575,0.002926,0.737535,0.036501,-0.668801,-0.086110
18229,NaN,21.604721,4.007560,9.011635,-6.574856,0.794337,12.994485,-2.323075,0.412123,0.089904,-0.853271,-0.134033,-0.398193,0.216213,0.041212,0.089197,0.999930,-0.011615,0.002061,0.000450,0.739326,0.027835,-0.666247,-0.093475
18230,NaN,19.261944,4.759330,8.762375,-6.240781,1.986230,10.864674,-1.465106,1.031336,-0.586744,-0.846924,-0.134033,-0.404541,0.193206,0.047662,0.086279,0.999956,-0.007325,0.005157,-0.002934,0.742988,0.026503,-0.661550,-0.098077
18231,NaN,14.564070,3.854532,6.132389,-4.010566,1.595807,5.869732,-0.272403,1.176720,-1.248496,-0.837891,-0.148926,-0.415039,0.146235,0.037716,0.060413,0.999962,-0.001362,0.005884,-0.006242,0.746277,0.030223,-0.656850,-0.103465
18232,NaN,10.888980,3.116953,4.192212,-2.461444,1.178876,1.951891,0.762888,1.504293,-1.579578,-0.829102,-0.161865,-0.425537,0.109442,0.030148,0.041217,0.999933,0.003814,0.007521,-0.007898,0.750820,0.041748,-0.651072,-0.103109
18233,NaN,7.569668,2.549085,3.043003,-1.704894,1.028949,-1.500742,1.426203,1.827672,-1.536045,-0.822266,-0.176758,-0.431885,0.076163,0.024693,0.029913,0.999903,0.007131,0.009138,-0.007680,0.755608,0.053067,-0.644558,-0.103850
18234,NaN,6.101196,2.967907,2.193637,-0.977930,1.562894,-2.924700,2.025416,1.828013,-1.136435,-0.806885,-0.200439,-0.440186,0.061377,0.029111,0.021673,0.999891,0.010127,0.009140,-0.005682,0.760705,0.066929,-0.638021,-0.098876
18235,NaN,5.717128,4.523200,-1.177973,2.381883,3.009966,-3.504040,2.048009,0.791335,-0.619332,-0.806396,-0.211182,-0.437988,0.057265,0.045174,-0.011543,0.999935,0.010240,0.003957,-0.003097,0.762190,0.077107,-0.635770,-0.094436
18237,NaN,8.934450,5.059770,-1.863158,7.032899,5.495313,9.053025,1.090679,-0.430197,-0.364445,-0.806152,-0.219727,-0.418945,0.179212,0.100936,-0.035391,0.999925,0.010907,-0.004302,-0.003644,0.758595,0.089085,-0.639376,-0.088294
18238,NaN,9.847544,1.591813,0.812680,0.817487,-0.919240,0.119790,0.012587,-1.133827,-0.036278,-0.812500,-0.213379,-0.410400,0.098430,0.015900,0.008686,0.999984,0.000063,-0.005669,-0.000181,0.754938,0.088773,-0.643649,-0.088904
18239,NaN,10.732403,-2.007198,2.323181,-0.765757,-4.630811,0.315338,-0.442582,-1.565718,0.267514,-0.816895,-0.208984,-0.397705,0.107164,-0.019876,0.024115,0.999966,-0.002213,-0.007829,0.001338,0.750113,0.084525,-0.649533,-0.091060
18240,NaN,12.657146,-4.669415,3.862152,-2.322330,-7.621427,1.738759,-0.903439,-1.898064,0.544532,-0.825684,-0.198486,-0.387207,0.126322,-0.046171,0.040031,0.999941,-0.004517,-0.009490,0.002723,0.744536,0.078526,-0.656426,-0.092758
18241,NaN,16.487952,-4.722467,6.479173,-4.770032,-8.389911,5.775125,-1.689727,-1.194432,0.605331,-0.828125,-0.187744,-0.381104,0.164628,-0.046171,0.066168,0.999942,-0.008448,-0.005972,0.003027,0.741376,0.067978,-0.660390,-0.098111
18242,NaN,17.359455,-3.130572,2.860242,-1.196682,-6.975149,6.595974,-1.271785,-0.598888,0.567198,-0.834717,-0.183350,-0.378906,0.173595,-0.030628,0.029318,0.999971,-0.006359,-0.002994,0.002836,0.740089,0.061122,-0.662154,-0.100417
18243,NaN,16.098155,-1.941118,-1.793901,3.262254,-5.642771,5.142337,-0.585076,-0.472357,0.168458,-0.832764,-0.172852,-0.370605,0.161040,-0.019327,-0.017502,0.999993,-0.002925,-0.002362,0.000842,0.738860,0.057500,-0.663600,-0.102053
18244,NaN,11.265719,-0.698791,-3.659288,4.633840,-3.440640,0.554735,0.164037,-0.989233,-0.356396,-0.841064,-0.177002,-0.364014,0.112824,-0.007159,-0.036041,0.999986,0.000820,-0.004946,-0.001782,0.735340,0.058810,-0.667221,-0.103117
18245,NaN,8.370426,-2.001703,-3.380453,3.895428,-4.062557,-2.476560,1.022597,-1.328983,-0.697569,-0.842773,-0.189941,-0.347168,0.083857,-0.020138,-0.033350,0.999959,0.005113,-0.006645,-0.003488,0.730148,0.062843,-0.672476,-0.103489
18246,NaN,7.396724,-4.805349,2.414979,-2.194930,-6.319907,-3.577680,0.917470,-1.030648,-0.659143,-0.844727,-0.192139,-0.340820,0.073683,-0.048408,0.024308,0.999971,0.004587,-0.005153,-0.003296,0.726034,0.067900,-0.676481,-0.103139
18247,NaN,6.289124,-6.250660,5.966917,-5.899604,-7.346246,-4.767405,0.595063,0.046730,-0.294824,-0.844727,-0.196533,-0.336426,0.062813,-0.062776,0.059468,0.999994,0.002975,0.000234,-0.001474,0.725853,0.070205,-0.676559,-0.102356
18248,NaN,5.602644,-4.458776,1.282617,-1.112772,-5.646103,-5.363206,1.907512,0.193537,0.308492,-0.846680,-0.198486,-0.334229,0.056107,-0.044621,0.012346,0.999953,0.009537,0.000968,0.001542,0.725963,0.076206,-0.676904,-0.094718
18249,NaN,7.751047,-3.128532,-3.447363,3.880276,-4.892412,-3.273915,2.525202,0.329150,0.901581,-0.848877,-0.196533,-0.332275,0.077592,-0.030496,-0.034990,0.999909,0.012626,0.001646,0.004508,0.726496,0.080922,-0.677261,-0.083502
18250,NaN,10.058642,-1.731667,-4.693710,5.394233,-3.874521,-0.752265,2.221274,0.430513,1.248404,-0.842773,-0.187988,-0.330322,0.100588,-0.016165,-0.047337,0.999917,0.011106,0.002153,0.006242,0.727517,0.084963,-0.677067,-0.071271
18251,NaN,11.824841,-0.743646,-5.843363,6.724078,-2.986102,1.159496,1.697078,0.160247,1.402436,-0.851318,-0.183594,-0.328125,0.118247,-0.006111,-0.058584,0.999939,0.008485,0.000801,0.007012,0.728003,0.087084,-0.677484,-0.058676
18252,NaN,12.526875,-0.627870,-5.100411,6.051560,-2.808857,1.969313,1.228978,0.108737,1.327058,-0.851562,-0.172852,-0.326172,0.125278,-0.005134,-0.051106,0.999959,0.006145,0.000544,0.006635,0.728199,0.087117,-0.677992,-0.049640
18253,NaN,11.934167,-0.931630,-3.047483,3.999377,-2.894496,1.510035,0.699597,0.156552,1.188368,-0.856201,-0.164307,-0.321777,0.119370,-0.008500,-0.030599,0.999976,0.003498,0.000783,0.005942,0.728808,0.086287,-0.678009,-0.041199
18254,NaN,10.757793,-0.509716,-2.141771,2.994495,-2.199496,0.520330,0.091596,0.109332,1.037152,-0.860596,-0.157959,-0.322021,0.107591,-0.004529,-0.021479,0.999986,0.000458,0.000547,0.005186,0.729346,0.083152,-0.678061,-0.037068
18255,NaN,9.575968,-0.795622,-2.013780,2.750715,-2.207254,-0.650359,-0.020485,-0.439926,0.926847,-0.862793,-0.151367,-0.317627,0.095839,-0.007514,-0.019926,0.999987,-0.000102,-0.002200,0.004634,0.727860,0.076328,-0.680478,-0.036659
18256,NaN,9.907722,-0.975973,-0.994436,1.701403,-2.416802,-0.254062,0.389893,-0.894375,0.907180,-0.863281,-0.138672,-0.309326,0.099163,-0.009291,-0.009519,0.999978,0.001949,-0.004472,0.004536,0.724821,0.074521,-0.684129,-0.032377
18257,NaN,10.561574,-0.732399,-0.820844,1.484878,-2.175527,0.474106,0.670425,-0.591010,0.913722,-0.869629,-0.138672,-0.309326,0.105671,-0.006814,-0.007920,0.999980,0.003352,-0.002955,0.004569,0.722703,0.074340,-0.686683,-0.025314
18258,NaN,9.930053,-0.587844,-0.547039,1.138573,-1.873593,-0.094489,1.008033,0.049378,0.847774,-0.869873,-0.132324,-0.307373,0.099323,-0.005430,-0.005523,0.999978,0.005040,0.000247,0.004239,0.722593,0.075102,-0.686926,-0.018777
18259,NaN,8.612540,-1.843280,-0.916629,1.538904,-2.820838,-1.561170,1.260337,0.385233,0.831576,-0.872070,-0.125732,-0.305176,0.086183,-0.018016,-0.009447,0.999970,0.006302,0.001926,0.004158,0.723431,0.074485,-0.686249,-0.012714
18260,NaN,7.843855,-2.202300,-1.317147,1.962290,-2.958679,-2.362462,1.289547,0.085217,0.949036,-0.874512,-0.119385,-0.303223,0.078536,-0.021565,-0.013345,0.999968,0.006448,0.000426,0.004745,0.723284,0.075922,-0.686347,-0.004830
18261,NaN,8.240584,-2.043714,-1.766953,2.392775,-2.707712,-1.929294,1.004481,-0.529667,1.120601,-0.876709,-0.110840,-0.296875,0.082565,-0.019886,-0.017552,0.999968,0.005022,-0.002648,0.005603,0.721048,0.072704,-0.689060,0.000429
18262,NaN,8.670449,-1.437854,-1.820168,2.359316,-2.040580,-1.396908,0.766062,-0.726057,1.185903,-0.881348,-0.100098,-0.290527,0.086853,-0.013795,-0.017940,0.999968,0.003830,-0.003630,0.005929,0.718247,0.071404,-0.692079,0.007075
18263,NaN,9.100639,-0.808331,-1.118741,1.522529,-1.428516,-0.847964,0.643501,-0.901804,1.163857,-0.885742,-0.093750,-0.275879,0.091101,-0.007518,-0.010802,0.999968,0.003217,-0.004509,0.005819,0.714812,0.066467,-0.696066,0.010916
18264,NaN,8.948812,-0.258658,-0.991789,1.239367,-0.790308,-0.926201,0.415978,-0.998181,1.091597,-0.887939,-0.087402,-0.271484,0.089548,-0.002078,-0.009476,0.999970,0.002080,-0.004991,0.005458,0.711123,0.064231,-0.699946,0.015929
18265,NaN,8.790729,-0.108350,-0.540162,0.670437,-0.580617,-1.049559,0.557991,-1.015375,1.044401,-0.892334,-0.078857,-0.259033,0.087937,-0.000610,-0.004957,0.999970,0.002790,-0.005077,0.005222,0.707180,0.063050,-0.703849,0.022737
18266,NaN,8.615478,0.507080,-0.790436,0.749976,0.150613,-1.180071,0.684535,-0.849972,0.984139,-0.900879,-0.076660,-0.256836,0.086161,0.005521,-0.007520,0.999973,0.003423,-0.004250,0.004921,0.703847,0.062126,-0.707061,0.028353
18267,NaN,8.238238,0.497202,-1.116972,0.993603,0.292314,-1.548921,0.697370,-0.674051,0.923079,-0.899170,-0.063721,-0.246338,0.082395,0.005391,-0.010874,0.999978,0.003487,-0.003370,0.004615,0.700974,0.061877,-0.709619,0.035319
18268,NaN,8.496169,0.418744,-1.393973,1.207938,0.317022,-1.283740,0.621874,-0.629103,0.876315,-0.905762,-0.057373,-0.239990,0.084985,0.004603,-0.013659,0.999981,0.003109,-0.003145,0.004382,0.698386,0.061081,-0.711965,0.040398
18269,NaN,9.166191,0.332538,-1.071263,0.817075,0.253970,-0.617892,0.520107,-0.613176,0.857461,-0.899658,-0.044678,-0.238037,0.091679,0.003746,-0.010422,0.999983,0.002601,-0.003066,0.004287,0.695713,0.060343,-0.714277,0.046375
18270,NaN,9.569193,0.253910,-1.029210,0.708927,0.234482,-0.213999,0.396605,-0.569647,0.815429,-0.908203,-0.040283,-0.233887,0.095709,0.002949,-0.010014,0.999986,0.001983,-0.002848,0.004077,0.693365,0.058965,-0.716396,0.050452
18271,NaN,9.555579,0.109742,-0.836840,0.467256,0.145124,-0.232435,0.490655,-0.642850,0.758680,-0.908447,-0.036133,-0.225342,0.095577,0.001480,-0.008058,0.999985,0.002453,-0.003214,0.003793,0.690559,0.058356,-0.718755,0.055797
18272,NaN,9.400053,-0.293016,-0.684447,0.318326,-0.211937,-0.390990,0.482744,-0.598063,0.737125,-0.910645,-0.027588,-0.214844,0.094030,-0.002568,-0.006570,0.999986,0.002414,-0.002990,0.003686,0.688059,0.057563,-0.720883,0.059899
18273,NaN,9.840327,0.099850,-0.484788,-0.035481,0.216791,0.037594,0.496287,-0.578151,0.718344,-0.910889,-0.025391,-0.214844,0.098412,0.001364,-0.004560,0.999986,0.002481,-0.002891,0.003592,0.685441,0.057152,-0.722953,0.065141
18274,NaN,9.499832,0.273386,0.018248,-0.605945,0.358127,-0.335036,0.516295,-0.500619,0.705748,-0.913086,-0.020996,-0.210693,0.094987,0.003068,0.000428,0.999987,0.002581,-0.002503,0.003529,0.683251,0.056555,-0.724686,0.069280
18275,NaN,8.833352,0.158055,0.221681,-0.805997,0.263997,-1.015959,0.566108,-0.486589,0.721297,-0.915527,-0.010254,-0.208740,0.088321,0.001892,0.002437,0.999987,0.002831,-0.002433,0.003606,0.680899,0.056377,-0.726364,0.074786
18276,NaN,8.475127,-0.564538,-0.006387,-0.478096,-0.356761,-1.339777,0.685033,-0.510248,0.752134,-0.915771,-0.001709,-0.200195,0.084772,-0.005327,0.000134,0.999984,0.003425,-0.002551,0.003761,0.678566,0.056190,-0.728039,0.079688
18277,NaN,8.627646,-0.387763,0.526575,-1.098989,-0.219227,-1.233200,0.787366,-0.518490,0.784921,-0.924072,-0.001953,-0.193848,0.086277,-0.003560,0.005475,0.999981,0.003937,-0.002592,0.003925,0.675972,0.056431,-0.729706,0.086065
18279,NaN,9.187982,-0.015910,1.176587,-3.867983,0.224548,8.303460,0.785470,-0.476233,0.793847,-0.918213,0.013184,-0.185547,0.183641,0.000951,0.024411,0.999926,0.007855,-0.004762,0.007938,0.671326,0.056376,-0.732636,0.096886
18280,NaN,8.997786,0.045978,0.705371,-1.556544,0.354109,-0.929498,0.703446,-0.455387,0.814020,-0.918457,0.023926,-0.183594,0.089959,0.000801,0.007261,0.999983,0.003517,-0.002277,0.004070,0.668898,0.056296,-0.734013,0.103105
18281,NaN,8.911510,0.027034,0.282004,-1.187014,0.485536,-0.989425,0.750685,-0.435261,0.831401,-0.922852,0.028076,-0.175049,0.089107,0.000630,0.003016,0.999982,0.003753,-0.002176,0.004157,0.666655,0.056001,-0.735295,0.108516
18282,NaN,9.013409,0.282373,-0.030613,-1.010645,0.883500,-0.895310,0.793520,-0.405653,0.851993,-0.918945,0.036621,-0.173096,0.090121,0.003208,-0.000111,0.999981,0.003968,-0.002028,0.004260,0.664326,0.055980,-0.736404,0.115092
18283,NaN,9.296611,0.664356,-0.435526,-0.795096,1.439769,-0.628340,0.728974,-0.326326,0.863398,-0.923340,0.041016,-0.175293,0.092943,0.007060,-0.004178,0.999983,0.003645,-0.001632,0.004317,0.662419,0.055431,-0.737290,0.120550
18284,NaN,9.367799,0.905542,-0.503755,-0.849739,1.774666,-0.595459,0.578590,-0.235615,0.852289,-0.925781,0.055908,-0.175293,0.093644,0.009469,-0.004900,0.999986,0.002893,-0.001178,0.004261,0.660731,0.054588,-0.737902,0.126313
18285,NaN,9.316037,0.962360,-0.580866,-0.823997,1.914863,-0.663595,0.375700,-0.155899,0.800873,-0.927979,0.060303,-0.166748,0.093125,0.010007,-0.005718,0.999990,0.001878,-0.000779,0.004004,0.659548,0.052994,-0.738384,0.130301
18286,NaN,9.582157,1.398865,-1.121487,-0.481352,2.575654,-0.423003,0.188003,-0.044194,0.723045,-0.928223,0.064453,-0.164795,0.095773,0.014345,-0.011180,0.999993,0.000940,-0.000221,0.003615,0.658740,0.051134,-0.738553,0.134111
18287,NaN,9.886593,1.965298,-1.685830,-0.137596,3.361597,-0.162323,0.042115,0.057967,0.618722,-0.924072,0.068848,-0.166992,0.098800,0.019962,-0.016883,0.999995,0.000211,0.000290,0.003094,0.658532,0.048969,-0.738481,0.136318
18288,NaN,10.136151,2.216095,-1.691499,-0.235139,3.691352,0.027648,-0.118263,0.136050,0.492657,-0.926514,0.079590,-0.171143,0.101295,0.022400,-0.016997,0.999997,-0.000591,0.000680,0.002463,0.658606,0.046873,-0.738195,0.138236
18289,NaN,10.469956,2.073241,-0.354642,-1.529141,3.277627,0.235339,-0.239889,-0.110719,0.364667,-0.926514,0.081543,-0.166992,0.104663,0.020919,-0.003513,0.999997,-0.001199,-0.000554,0.001823,0.658007,0.044834,-0.738802,0.138525
18290,NaN,11.066859,3.055146,0.448783,-2.645986,4.108075,0.586017,-0.311245,-0.244453,0.265726,-0.924561,0.083740,-0.169189,0.110622,0.030706,0.004575,0.999997,-0.001556,-0.001222,0.001329,0.656893,0.043120,-0.739854,0.138737
18291,NaN,10.922019,3.824397,0.894520,-3.251542,4.734230,0.273499,-0.523953,-0.067850,0.157039,-0.924561,0.088135,-0.166992,0.109187,0.038353,0.008882,0.999996,-0.002620,-0.000339,0.000785,0.656651,0.040886,-0.740464,0.137300
18292,NaN,10.215091,2.966975,0.840485,-2.887780,3.864258,-0.295039,-0.811781,-0.010125,0.051786,-0.926758,0.090332,-0.169189,0.102143,0.029730,0.008289,0.999992,-0.004059,-0.000051,0.000259,0.656681,0.038131,-0.741028,0.134881
18293,NaN,9.785364,2.326845,-0.591031,-1.284931,3.558786,-0.474549,-0.556946,-0.012395,-0.103244,-0.924561,0.085938,-0.160645,0.097866,0.023201,-0.005969,0.999996,-0.002785,-0.000062,-0.000516,0.656815,0.036713,-0.741415,0.132476
18294,NaN,11.028149,2.502643,-0.515344,-1.565890,3.843161,0.719496,0.168095,-0.109858,-0.226824,-0.928955,0.088135,-0.166992,0.110313,0.024906,-0.005072,0.999999,0.000840,-0.000549,-0.001134,0.656496,0.038259,-0.741587,0.132659
18295,NaN,12.493970,1.011612,2.267503,-4.116978,1.864900,2.096836,-0.203023,-0.242734,-0.230941,-0.922363,0.085938,-0.169189,0.124924,0.009995,0.022816,0.999998,-0.001015,-0.001214,-0.001155,0.655794,0.038630,-0.742465,0.131102
18296,NaN,13.561976,1.480313,1.183789,-3.338027,2.674632,3.195914,-0.369790,-0.109716,-0.279889,-0.933105,0.085938,-0.162842,0.135634,0.014635,0.011885,0.999997,-0.001849,-0.000549,-0.001399,0.655643,0.038563,-0.742967,0.129017
18297,NaN,13.303831,1.988359,0.074088,-2.337203,3.365121,2.999971,-0.096717,0.079545,-0.366670,-0.928711,0.085938,-0.166992,0.133075,0.019640,0.000678,0.999998,-0.000484,0.000398,-0.001833,0.656199,0.039577,-0.742689,0.127472
18298,NaN,12.615109,2.353827,-0.221112,-2.007931,3.669680,2.321216,0.279960,0.309957,-0.491850,-0.930664,0.079590,-0.169189,0.126205,0.023231,-0.002374,0.999995,0.001400,0.001550,-0.002459,0.657640,0.042126,-0.741337,0.127097
18299,NaN,10.823980,2.783056,-1.185226,-0.892987,4.079803,0.621199,0.410135,0.476915,-0.646959,-0.924316,0.075195,-0.169189,0.108301,0.027505,-0.012054,0.999990,0.002051,0.002385,-0.003235,0.659733,0.045589,-0.739357,0.126590
18300,NaN,10.366334,1.534257,-1.280537,-0.406874,2.797013,0.359102,0.477083,0.238290,-0.762155,-0.928467,0.071045,-0.175293,0.103706,0.014978,-0.012893,0.999989,0.002385,0.001191,-0.003811,0.661036,0.049787,-0.738036,0.125922
18301,NaN,11.122802,0.242022,-0.204149,-1.190979,1.271899,1.177307,0.674610,0.115980,-0.916765,-0.932373,0.060303,-0.173096,0.111236,0.001917,-0.002099,0.999984,0.003373,0.000580,-0.004584,0.661869,0.055346,-0.736980,0.125408
18302,NaN,11.677210,0.574357,0.121405,-1.604087,1.446927,1.677899,0.760859,0.240313,-1.152048,-0.929932,0.049561,-0.183594,0.116804,0.005066,0.001094,0.999975,0.003804,0.001202,-0.005760,0.663317,0.061873,-0.735324,0.124419
18303,NaN,12.490387,1.498518,0.369589,-2.108165,2.186903,2.400515,0.863205,0.305640,-1.391306,-0.931641,0.034668,-0.183594,0.125010,0.014100,0.003567,0.999965,0.004316,0.001528,-0.006956,0.665023,0.069679,-0.733310,0.123069
18304,NaN,13.966400,1.534526,1.060706,-2.820208,1.947411,3.854380,0.416247,0.783404,-1.631226,-0.924805,0.021729,-0.194092,0.139823,0.014184,0.010090,0.999957,0.002081,0.003917,-0.008156,0.668809,0.076453,-0.729800,0.119340
18305,NaN,13.662795,-0.377924,1.065920,-2.086684,-0.088093,3.736562,0.006706,1.238633,-1.685664,-0.924316,0.000244,-0.204590,0.136652,-0.004931,0.009813,0.999945,0.000034,0.006193,-0.008428,0.674301,0.081902,-0.724962,0.114196
18306,NaN,12.899291,-2.448331,0.554414,-0.746409,-2.127888,3.133437,0.203044,1.280298,-1.630763,-0.924072,-0.008301,-0.219238,0.128819,-0.025539,0.004694,0.999946,0.001015,0.006401,-0.008154,0.679852,0.087657,-0.719760,0.109832
18307,NaN,12.824537,-4.281880,-0.686882,1.184030,-3.689584,3.158582,0.710050,1.223239,-1.495289,-0.921631,-0.020996,-0.227539,0.127875,-0.043749,-0.007806,0.999947,0.003550,0.006116,-0.007476,0.684733,0.094795,-0.714511,0.107836
18308,NaN,13.311270,-7.085971,-1.788551,3.270238,-6.163337,3.674741,1.547674,0.980215,-1.375272,-0.923340,-0.033936,-0.231689,0.132530,-0.071628,-0.019088,0.999934,0.007738,0.004901,-0.006876,0.688292,0.104358,-0.709560,0.109032
18309,NaN,14.209569,-9.028743,-2.501444,4.820676,-7.859503,4.493405,2.381338,0.781746,-1.407635,-0.912354,-0.048828,-0.242188,0.141355,-0.090973,-0.026648,0.999897,0.011906,0.003909,-0.007038,0.690525,0.117129,-0.704755,0.113033
18310,NaN,14.582496,-9.348991,-2.419268,5.231766,-8.217835,4.712597,2.664440,0.983900,-1.585088,-0.916016,-0.065918,-0.246338,0.144954,-0.094301,-0.026160,0.999868,0.013322,0.004919,-0.007925,0.693302,0.131218,-0.698783,0.117539
18311,NaN,15.581745,-5.486230,-1.142866,3.069269,-5.123808,5.631118,2.329927,0.875519,-1.594390,-0.913330,-0.087402,-0.250244,0.155320,-0.055958,-0.012757,0.999891,0.011649,0.004377,-0.007972,0.695699,0.144356,-0.693248,0.120715
18312,NaN,14.327140,-1.287253,2.208110,-1.364435,-2.559846,4.448465,1.311390,0.343505,-1.393603,-0.906738,-0.093750,-0.254639,0.143214,-0.014014,0.021746,0.999953,0.006557,0.001717,-0.006968,0.696747,0.153736,-0.690106,0.121088
18313,NaN,14.127533,2.557930,1.387524,-1.952859,1.101829,4.435903,1.183837,0.193887,-1.657993,-0.904053,-0.115234,-0.256592,0.141494,0.024325,0.013885,0.999948,0.005919,0.000969,-0.008290,0.697478,0.163474,-0.687394,0.119540
18314,NaN,14.050651,4.203365,-0.481018,-0.786959,3.110166,4.505888,1.060487,0.215813,-1.925557,-0.903320,-0.136719,-0.250000,0.140898,0.040704,-0.004744,0.999939,0.005302,0.001079,-0.009628,0.698471,0.173862,-0.684252,0.117083
18315,NaN,13.036433,1.731536,-0.061676,-0.093231,0.523469,3.327402,1.181479,0.497403,-2.009710,-0.896729,-0.151611,-0.262695,0.130528,0.016009,-0.000844,0.999929,0.005907,0.002487,-0.010048,0.700277,0.184579,-0.680018,0.114531
18316,NaN,12.481086,0.990162,-1.112073,1.311628,0.137994,2.687283,0.543764,0.812278,-2.047556,-0.889648,-0.170898,-0.270996,0.124857,0.008655,-0.011603,0.999936,0.002719,0.004061,-0.010238,0.703684,0.193149,-0.674795,0.110336
18317,NaN,11.619275,1.032258,-1.235815,1.534327,0.134003,1.815847,0.450381,0.750418,-2.119287,-0.885010,-0.190186,-0.277100,0.116246,0.009119,-0.012773,0.999934,0.002252,0.003752,-0.010596,0.706908,0.201476,-0.669805,0.105118
18318,NaN,11.371205,0.524999,-0.505143,1.227235,-0.784738,1.488123,0.885957,0.469235,-2.116434,-0.878174,-0.205078,-0.283447,0.113747,0.004070,-0.005299,0.999931,0.004430,0.002346,-0.010582,0.708666,0.211595,-0.665381,0.101430
18319,NaN,10.497645,0.587284,0.365174,0.475579,-1.173365,0.631045,0.744673,0.454962,-2.095055,-0.873291,-0.226562,-0.281250,0.105038,0.004760,0.003432,0.999936,0.003723,0.002275,-0.010475,0.710412,0.220978,-0.661122,0.096960
18320,NaN,9.988433,-1.016187,-0.826759,2.310937,-2.152125,-0.246653,0.459981,0.350649,-2.148639,-0.866211,-0.245850,-0.287354,0.099753,-0.011215,-0.008468,0.999938,0.002300,0.001753,-0.010743,0.712077,0.229686,-0.657115,0.091598
18321,NaN,8.888397,-1.537191,-1.726500,3.323406,-2.172943,-1.531538,0.397548,0.280955,-2.214351,-0.861572,-0.265137,-0.289307,0.088682,-0.016320,-0.017421,0.999936,0.001988,0.001405,-0.011072,0.713515,0.238252,-0.653337,0.085338
18322,NaN,8.631295,-1.205909,-1.651851,3.176455,-2.008755,-1.778115,-0.036221,0.157799,-2.072470,-0.850586,-0.275879,-0.287109,0.086169,-0.012956,-0.016584,0.999946,-0.000181,0.000789,-0.010362,0.714928,0.244963,-0.650172,0.078407
18323,NaN,8.442896,-0.666067,-1.890688,3.216512,-1.541413,-1.902185,-0.745842,0.199764,-2.022102,-0.845947,-0.290771,-0.293457,0.084336,-0.007584,-0.018964,0.999941,-0.003729,0.000999,-0.010110,0.717244,0.248796,-0.647225,0.068996
18324,NaN,7.435990,0.051934,-2.105533,3.042309,-0.737005,-2.746669,-1.223613,0.328324,-1.947185,-0.839111,-0.303711,-0.303955,0.074325,-0.000334,-0.021177,0.999933,-0.006118,0.001642,-0.009736,0.720452,0.250718,-0.643912,0.058873
18325,NaN,5.973696,0.517875,-1.501321,2.148350,-0.365651,-4.028496,-0.914966,0.202015,-1.773160,-0.836670,-0.314453,-0.308105,0.059764,0.004580,-0.015095,0.999950,-0.004575,0.001010,-0.008866,0.722737,0.253078,-0.641189,0.049791
18326,NaN,5.828337,0.670803,-0.470784,1.192759,-0.720560,-4.094423,-0.529307,0.284036,-1.482749,-0.823730,-0.322998,-0.316650,0.058324,0.006263,-0.004808,0.999968,-0.002647,0.001420,-0.007414,0.724656,0.255963,-0.638330,0.043500
18327,NaN,4.808334,0.481646,0.463414,0.289551,-1.068138,-5.085984,-0.906641,0.488835,-1.236443,-0.823486,-0.333496,-0.327148,0.048123,0.004540,0.004496,0.999968,-0.004533,0.002444,-0.006182,0.727624,0.256528,-0.635143,0.036752
18328,NaN,3.994569,0.614694,0.942888,-0.307799,-0.953052,-5.785243,-1.336067,0.560300,-0.743859,-0.817383,-0.329346,-0.339844,0.039994,0.006061,0.009276,0.999967,-0.006680,0.002801,-0.003719,0.731223,0.254037,-0.632314,0.030931
18329,NaN,3.104153,0.920005,-0.234257,0.512021,0.040447,-6.607518,-1.994732,0.654699,-0.299680,-0.819580,-0.327148,-0.350342,0.031047,0.009129,-0.002535,0.999944,-0.009973,0.003273,-0.001498,0.735834,0.247594,-0.629803,0.024360
18330,NaN,3.273043,1.403213,-0.720418,0.864927,0.616517,-6.338144,-2.098116,0.464989,0.085345,-0.817871,-0.316406,-0.363037,0.032707,0.013969,-0.007427,0.999942,-0.010490,0.002325,0.000427,0.739839,0.239650,-0.628366,0.019050
18331,NaN,4.321711,1.754733,-0.653423,0.949847,0.628525,-5.242588,-2.206824,0.157870,0.316652,-0.818359,-0.303467,-0.373779,0.043184,0.017542,-0.006762,0.999938,-0.011034,0.000789,0.001583,0.742904,0.230480,-0.628323,0.013477
18332,NaN,5.048318,1.803410,-0.107658,0.622037,0.310580,-4.496136,-2.242108,0.268597,0.441689,-0.814453,-0.290527,-0.384521,0.050442,0.018131,-0.001347,0.999934,-0.011210,0.001343,0.002208,0.746243,0.220832,-0.627916,0.008760
18333,NaN,5.532267,1.770214,0.047967,0.631233,0.143157,-4.040110,-2.199900,0.315019,0.520877,-0.816895,-0.279785,-0.388916,0.055277,0.017849,0.000197,0.999935,-0.010999,0.001575,0.002604,0.749591,0.210979,-0.627362,0.004145
18334,NaN,5.043197,1.144075,-0.093078,0.866815,-0.207840,-4.717926,-2.181343,0.414149,0.619556,-0.819336,-0.269043,-0.401611,0.050394,0.011585,-0.001161,0.999934,-0.010906,0.002071,0.003098,0.753114,0.200929,-0.626456,0.000417
18335,NaN,4.706749,0.553352,-0.187719,1.057654,-0.598052,-5.228094,-2.157495,0.285098,0.730464,-0.830566,-0.254150,-0.412109,0.047044,0.005684,-0.002005,0.999934,-0.010787,0.001425,0.003652,0.756125,0.190522,-0.626071,-0.003303
18336,NaN,4.724995,0.013474,-0.128764,1.140049,-1.080339,-5.354508,-2.148476,0.207775,0.868591,-0.824707,-0.239014,-0.416504,0.047247,0.000326,-0.001340,0.999932,-0.010742,0.001039,0.004343,0.758765,0.179757,-0.626039,-0.006197
18337,NaN,4.572468,-0.315750,0.101079,0.954947,-1.372596,-5.544052,-2.144985,0.134447,0.982942,-0.829346,-0.223877,-0.429443,0.045740,-0.002922,0.001012,0.999930,-0.010725,0.000672,0.004915,0.761093,0.168553,-0.626295,-0.009060
18338,NaN,4.553635,-0.220515,0.222782,0.803825,-1.260268,-5.500008,-2.109585,-0.004600,1.076180,-0.833984,-0.208984,-0.435791,0.045547,-0.001936,0.002250,0.999930,-0.010548,-0.000023,0.005381,0.762826,0.157228,-0.627096,-0.011215
18339,NaN,3.825332,-0.546158,0.196218,0.711433,-1.362535,-6.262044,-2.190805,-0.261804,1.183223,-0.834717,-0.187500,-0.436035,0.038282,-0.005213,0.002070,0.999922,-0.010954,-0.001309,0.005916,0.763736,0.145154,-0.628846,-0.013776
18340,NaN,5.292138,-0.251033,1.161414,0.005989,-1.511629,-4.603771,-1.792568,-0.369094,1.341282,-0.837402,-0.170410,-0.434082,0.052915,-0.002051,0.011732,0.999936,-0.008963,-0.001845,0.006706,0.763890,0.134145,-0.631091,-0.014186
18341,NaN,6.440517,0.464233,1.141400,0.120315,-0.944804,-3.324971,-1.524591,-0.282094,1.386846,-0.844238,-0.153320,-0.440430,0.064354,0.005176,0.011467,0.999946,-0.007623,-0.001410,0.006934,0.764082,0.123937,-0.632950,-0.013888
18342,NaN,7.841315,0.085048,1.264958,0.300029,-1.465377,-2.011741,-1.431959,-0.184238,1.449203,-0.844971,-0.127441,-0.442627,0.078392,0.001509,0.012713,0.999948,-0.007160,-0.000921,0.007246,0.764414,0.113953,-0.634450,-0.012612
18343,NaN,10.599660,-0.152236,1.597656,0.515225,-2.046422,0.697889,-1.392601,-0.005648,1.569998,-0.851807,-0.112549,-0.447021,0.106003,-0.000579,0.015986,0.999945,-0.006963,-0.000028,0.007850,0.765250,0.103662,-0.635237,-0.011031
18344,NaN,11.598272,0.289943,2.282344,-0.021857,-1.659165,1.894402,-1.494004,0.199792,1.538773,-0.856445,-0.099609,-0.447021,0.115978,0.003962,0.022681,0.999942,-0.007470,0.000999,0.007694,0.766663,0.093159,-0.635186,-0.009377
18345,NaN,12.716256,0.361801,3.371251,-0.880481,-1.659888,3.212846,-1.581619,0.039953,1.385752,-0.857422,-0.073975,-0.451660,0.127139,0.004765,0.033652,0.999945,-0.007908,0.000200,0.006929,0.767552,0.082711,-0.635563,-0.009068
18346,NaN,15.476132,2.248343,6.391946,-3.499936,-0.197246,6.713819,-2.023173,-0.276918,1.246119,-0.859863,-0.063232,-0.453613,0.154526,0.024093,0.063895,0.999928,-0.010116,-0.001385,0.006230,0.767475,0.071072,-0.637042,-0.010398
18347,NaN,18.513036,5.374545,10.389704,-7.006952,2.579559,10.773543,-2.718874,0.328332,0.856642,-0.858154,-0.046143,-0.460205,0.185063,0.055941,0.102843,0.999897,-0.013594,0.001642,0.004283,0.769456,0.057939,-0.635874,-0.015652
18348,NaN,18.062933,5.322764,11.250442,-7.670210,2.932882,10.527328,-2.803886,1.170522,0.330031,-0.848145,-0.031006,-0.468750,0.181191,0.055087,0.110681,0.999883,-0.014019,0.005852,0.001650,0.773920,0.046300,-0.631187,-0.022534
18349,NaN,17.196293,3.146934,7.519654,-3.733832,1.254217,8.805255,-2.141123,2.094511,-0.307013,-0.843994,-0.026611,-0.494141,0.172784,0.031994,0.073049,0.999887,-0.010705,0.010472,-0.001535,0.780906,0.039233,-0.622693,-0.029991
18350,NaN,13.816357,1.641306,2.717887,0.638689,0.205934,4.347331,-0.676102,2.952522,-0.796876,-0.829102,-0.032959,-0.521729,0.138608,0.015949,0.025080,0.999877,-0.003380,0.014762,-0.003984,0.790043,0.039622,-0.610812,-0.034225
18351,NaN,8.838496,1.089833,-0.260426,2.568263,0.145524,-1.283081,0.732441,2.126722,-0.929560,-0.820312,-0.045898,-0.536377,0.088400,0.010499,-0.003505,0.999926,0.003662,0.010633,-0.004648,0.796178,0.045733,-0.602302,-0.035235
18352,NaN,7.729816,1.837741,1.287260,0.880053,0.887224,-1.861459,1.253319,0.617326,-0.883261,-0.822266,-0.054443,-0.532227,0.077418,0.017956,0.012747,0.999966,0.006267,0.003087,-0.004416,0.797587,0.053583,-0.599830,-0.034460
18353,NaN,7.862941,3.182251,3.177407,-0.908551,2.029451,-1.031831,1.054181,-0.022798,-0.773897,-0.819580,-0.067139,-0.531982,0.078748,0.031350,0.031949,0.999979,0.005271,-0.000114,-0.003869,0.797089,0.060122,-0.599877,-0.034390
18354,NaN,9.053001,4.500261,4.105466,-1.504227,3.040301,0.558288,0.670570,0.249327,-0.649632,-0.812988,-0.073730,-0.534180,0.090726,0.044570,0.041092,0.999988,0.003353,0.001247,-0.003248,0.797532,0.064869,-0.598783,-0.034559
18355,NaN,10.193571,5.576811,3.675324,-0.776165,3.890556,1.710248,0.696247,0.554417,-0.564753,-0.808594,-0.082275,-0.536133,0.102194,0.055352,0.036663,0.999986,0.003481,0.002772,-0.002824,0.798860,0.069449,-0.596495,-0.034546
18356,NaN,11.065957,6.328963,0.733676,2.269208,4.631092,1.868588,1.167339,0.225013,-0.685739,-0.808350,-0.093018,-0.542480,0.110884,0.062866,0.007580,0.999976,0.005837,0.001125,-0.003429,0.799008,0.076264,-0.595525,-0.033466
18357,NaN,10.818737,4.282892,0.696430,2.245635,2.547660,1.337995,1.324826,-0.549232,-0.853063,-0.812012,-0.110107,-0.529785,0.108348,0.042318,0.007543,0.999965,0.006624,-0.002746,-0.004265,0.796699,0.084020,-0.597589,-0.033136
18358,NaN,10.339111,1.156034,1.031041,1.818885,-0.595482,0.465013,1.066506,-1.334445,-0.808560,-0.822266,-0.116455,-0.523193,0.103364,0.011085,0.011060,0.999955,0.005332,-0.006672,-0.004043,0.792097,0.090505,-0.602714,-0.033564
18359,NaN,12.201314,-1.737729,1.371633,1.960835,-3.876407,1.801763,0.683964,-2.218025,-0.589930,-0.832764,-0.120850,-0.500000,0.121799,-0.017787,0.015008,0.999928,0.003420,-0.011090,-0.002950,0.784950,0.094631,-0.611297,-0.034839
18360,NaN,16.236929,-4.144595,2.802156,1.396956,-7.156089,5.533031,0.204453,-2.639238,-0.224766,-0.843262,-0.121094,-0.476562,0.161934,-0.041658,0.030118,0.999912,0.001022,-0.013196,-0.001124,0.776675,0.095703,-0.621538,-0.036148
18361,NaN,19.715023,-5.036169,5.022819,-0.295883,-8.904607,9.157969,-0.671129,-1.398651,-0.081450,-0.847412,-0.123047,-0.482910,0.196771,-0.050270,0.051774,0.999970,-0.003356,-0.006993,-0.000407,0.772614,0.093113,-0.626785,-0.039217
18362,NaN,14.510790,-3.974866,2.381296,0.883442,-6.702127,3.837652,-1.261904,-0.795715,-0.350220,-0.849854,-0.116699,-0.474609,0.144941,-0.039849,0.024641,0.999971,-0.006309,-0.003979,-0.001751,0.770625,0.089263,-0.629432,-0.044553
18363,NaN,7.906469,-1.427909,-3.374585,4.905382,-2.606253,-3.098449,-0.860113,-1.767373,-0.662584,-0.855957,-0.121094,-0.457520,0.079310,-0.014685,-0.032983,0.999946,-0.004300,-0.008837,-0.003313,0.765260,0.087654,-0.635715,-0.050597
18364,NaN,5.542252,-2.043379,-4.036990,5.006995,-2.803947,-5.540152,-0.472494,-2.402078,-0.765585,-0.866455,-0.125488,-0.442627,0.055823,-0.020741,-0.039652,0.999918,-0.002362,-0.012010,-0.003828,0.757578,0.087766,-0.644416,-0.055675
18365,NaN,5.593996,-4.945646,2.767666,-1.729923,-6.112695,-5.011300,-1.175133,-0.830399,-0.670265,-0.864014,-0.129639,-0.444824,0.055658,-0.049479,0.028199,0.999969,-0.005876,-0.004152,-0.003351,0.755210,0.085259,-0.646915,-0.062360
18366,NaN,5.137977,-6.373192,8.849881,-7.821396,-7.706440,-4.835446,-0.492798,0.986525,-0.420092,-0.860107,-0.125244,-0.455322,0.051682,-0.063622,0.088401,0.999983,-0.002464,0.004933,-0.002100,0.758472,0.085175,-0.642873,-0.064654
18367,NaN,4.860460,-5.490111,4.966825,-3.955595,-6.650443,-5.504922,2.032043,0.764052,0.067494,-0.853027,-0.142578,-0.446777,0.048811,-0.055384,0.048921,0.999941,0.010160,0.003820,0.000337,0.760042,0.092924,-0.640618,-0.057534
18368,NaN,7.463241,-2.275953,-4.755214,6.072626,-3.325169,-3.849962,3.620088,-0.286946,0.625114,-0.859375,-0.144775,-0.442627,0.074770,-0.021662,-0.047844,0.999830,0.018099,-0.001435,0.003125,0.757537,0.104742,-0.642893,-0.043073
18369,NaN,9.655375,-1.677506,-6.167530,7.821319,-2.784147,-1.741343,3.050293,-0.263335,1.148981,-0.867920,-0.146729,-0.442383,0.096726,-0.015278,-0.061789,0.999866,0.015251,-0.001317,0.005745,0.755241,0.112549,-0.645058,-0.029045
18370,NaN,12.131305,-1.575731,-6.291349,8.293773,-2.830355,0.790355,2.500273,-1.040601,1.440913,-0.872314,-0.140381,-0.423584,0.121744,-0.014098,-0.062464,0.999882,0.012501,-0.005203,0.007204,0.750598,0.117325,-0.650074,-0.015506
18371,NaN,15.183382,-0.893920,-2.876273,5.186365,-2.979451,4.464001,1.858621,-1.123387,1.363622,-0.876465,-0.136230,-0.415039,0.152048,-0.007641,-0.027984,0.999918,0.009293,-0.005617,0.006818,0.745903,0.119788,-0.655175,-0.005001
18372,NaN,14.729649,0.042860,-0.020108,2.070324,-2.292011,4.589505,1.147852,-0.179163,1.059848,-0.880859,-0.131836,-0.410889,0.147292,0.001210,-0.000064,0.999969,0.005739,-0.000896,0.005299,0.744590,0.120716,-0.656508,0.003222
18373,NaN,11.876435,0.838919,-1.036258,2.538467,-0.758251,1.840942,0.720771,0.651540,0.880114,-0.878662,-0.134033,-0.419189,0.118691,0.008950,-0.010718,0.999979,0.003604,0.003258,0.004401,0.746266,0.120514,-0.654582,0.009262
18374,NaN,9.080423,1.196989,-3.382298,4.421282,0.572300,-1.126500,0.258334,1.096556,0.928800,-0.877197,-0.116943,-0.425781,0.090560,0.012435,-0.034304,0.999973,0.001292,0.005483,0.004644,0.749579,0.118496,-0.651053,0.014850
18375,NaN,8.251367,1.808527,-3.280574,4.120774,1.358127,-1.857058,0.187223,0.200483,0.962494,-0.879395,-0.116943,-0.425781,0.082392,0.018513,-0.032871,0.999987,0.000936,0.001002,0.004812,0.750042,0.116065,-0.650844,0.019190
18376,NaN,9.883513,1.086926,-2.350221,3.543785,0.368981,-0.237049,0.418146,-0.682503,0.971659,-0.885986,-0.106201,-0.421631,0.098860,0.011398,-0.023141,0.999980,0.002091,-0.003412,0.004858,0.747385,0.114617,-0.653976,0.024359
18378,NaN,10.657838,0.706923,-0.285735,3.183290,-0.765171,11.304754,0.494499,-0.585013,0.899342,-0.890381,-0.097656,-0.411133,0.213046,0.016079,-0.004392,0.999930,0.004945,-0.005850,0.008993,0.742724,0.112582,-0.659207,0.033647
18379,NaN,9.865590,-0.598238,0.648463,0.733156,-1.641291,-0.072251,0.766028,-0.315484,1.000607,-0.894775,-0.089111,-0.406982,0.098674,-0.005514,0.006619,0.999979,0.003830,-0.001577,0.005003,0.740961,0.112244,-0.660878,0.040240
18380,NaN,9.850795,-0.390068,0.524367,0.771497,-1.317283,-0.059027,0.930837,-0.116442,1.133807,-0.895020,-0.082520,-0.408936,0.098525,-0.003367,0.005285,0.999973,0.004654,-0.000582,0.005669,0.739808,0.111982,-0.661735,0.047456
18381,NaN,9.846966,0.275282,-0.326846,1.420455,-0.362587,-0.066145,1.010737,0.064822,1.138489,-0.897217,-0.078369,-0.402832,0.098451,0.003330,-0.003285,0.999971,0.005054,0.000324,0.005692,0.739049,0.111996,-0.661947,0.055582
18382,NaN,9.600935,1.182946,-1.287089,2.085645,0.877149,-0.319879,1.094675,0.174474,1.085038,-0.895264,-0.080566,-0.411133,0.095932,0.012421,-0.012888,0.999970,0.005473,0.000872,0.005425,0.738692,0.112413,-0.661581,0.063317
18383,NaN,9.244483,1.891624,-1.808235,2.339982,1.831746,-0.676139,1.144427,0.211018,0.988803,-0.899902,-0.065430,-0.409180,0.092330,0.019476,-0.018069,0.999971,0.005722,0.001055,0.004944,0.738284,0.113343,-0.661056,0.071380
18384,NaN,7.849780,1.207497,-2.028790,2.528934,1.390138,-2.140378,0.983830,-0.024610,0.949988,-0.897705,-0.063232,-0.406982,0.078441,0.012547,-0.020217,0.999977,0.004919,-0.000123,0.004750,0.737291,0.113855,-0.661313,0.078129
18385,NaN,7.332877,0.111846,-1.384587,2.093777,0.265457,-2.654086,0.442997,-0.478358,1.092314,-0.906494,-0.056885,-0.400635,0.073354,0.001549,-0.013667,0.999980,0.002215,-0.002392,0.005462,0.734875,0.112080,-0.663607,0.083802
18386,NaN,7.701625,0.244611,-0.834905,1.493364,0.300747,-2.213334,-0.243614,-1.014545,1.191195,-0.906738,-0.044189,-0.394531,0.077041,0.002895,-0.007962,0.999969,-0.001218,-0.005073,0.005956,0.731125,0.107669,-0.668078,0.086806
18387,NaN,8.170768,0.672381,-0.151856,0.658984,0.588836,-1.660740,-0.479397,-1.089906,1.177995,-0.913574,-0.031250,-0.384033,0.081673,0.007202,-0.001090,0.999965,-0.002397,-0.005449,0.005890,0.727053,0.102460,-0.672988,0.089349
18388,NaN,8.240859,0.839409,0.272803,0.107984,0.702945,-1.555340,-0.349482,-0.971781,1.100298,-0.915771,-0.024902,-0.377686,0.082346,0.008852,0.003113,0.999972,-0.001747,-0.004859,0.005501,0.723452,0.097932,-0.677216,0.091679
18389,NaN,8.142902,0.882772,0.168523,0.094648,0.840946,-1.664222,-0.213534,-0.810273,0.990734,-0.922363,-0.014160,-0.369385,0.081376,0.009233,0.002005,0.999979,-0.001068,-0.004051,0.004954,0.720188,0.094178,-0.680824,0.094543
18390,NaN,8.261142,0.560095,0.062755,0.204181,0.618481,-1.558051,-0.251033,-0.815477,0.953324,-0.920654,-0.003418,-0.365234,0.082580,0.005996,0.000957,0.999980,-0.001255,-0.004077,0.004767,0.717067,0.090426,-0.684309,0.096743
18391,NaN,8.669757,0.131885,0.485875,-0.164456,0.164217,-1.131492,-0.362118,-0.828559,0.928416,-0.925049,0.007324,-0.354736,0.086669,0.001730,0.005215,0.999979,-0.001811,-0.004143,0.004642,0.713774,0.086349,-0.687970,0.098832
18392,NaN,9.018718,-0.397655,0.463275,-0.084657,-0.273675,-0.777923,-0.371359,-0.806436,0.877796,-0.929443,0.013672,-0.350342,0.090184,-0.003572,0.005003,0.999981,-0.001857,-0.004032,0.004389,0.710715,0.082415,-0.691392,0.100346
18393,NaN,9.070454,-1.043909,0.801814,-0.331056,-0.917719,-0.699335,-0.202740,-0.579082,0.869701,-0.929688,0.022217,-0.348389,0.090725,-0.010036,0.008291,0.999986,-0.001014,-0.002895,0.004348,0.708192,0.078976,-0.694007,0.102861
18394,NaN,8.761443,-1.328185,0.387376,0.075010,-1.029281,-1.002960,-0.215571,-0.325932,0.949411,-0.929932,0.030762,-0.342041,0.087670,-0.012861,0.004031,0.999987,-0.001078,-0.001630,0.004747,0.706650,0.075098,-0.695634,0.105354
18395,NaN,8.456109,-1.006713,-0.187679,0.489809,-0.508759,-1.324165,-0.175367,-0.399025,1.011770,-0.930420,0.039307,-0.348633,0.084614,-0.009641,-0.001699,0.999985,-0.000877,-0.001995,0.005059,0.704626,0.071169,-0.697608,0.108537
18396,NaN,8.249973,-0.913299,-0.099844,0.321813,-0.377663,-1.526605,-0.128640,-0.487691,1.054425,-0.930664,0.050049,-0.338135,0.082548,-0.008698,-0.000792,0.999983,-0.000643,-0.002438,0.005272,0.702388,0.067314,-0.699755,0.111636
18397,NaN,8.116493,-0.800400,0.267999,-0.126822,-0.289678,-1.658601,-0.017676,-0.488886,1.108590,-0.932861,0.056396,-0.333740,0.081201,-0.007554,0.002879,0.999982,-0.000088,-0.002444,0.005543,0.699890,0.063644,-0.701944,0.115664
18398,NaN,8.314129,-0.632071,0.873188,-0.821229,-0.186073,-1.471419,0.101926,-0.541605,1.152725,-0.937500,0.069336,-0.329590,0.083152,-0.005846,0.008954,0.999980,0.000510,-0.002708,0.005764,0.697277,0.060279,-0.704129,0.119890
18399,NaN,8.394187,-0.462287,1.510664,-1.551559,-0.093046,-1.413802,0.145556,-0.508954,1.164758,-0.944092,0.080078,-0.321289,0.083928,-0.004145,0.015317,0.999980,0.000728,-0.002545,0.005824,0.694568,0.056989,-0.706249,0.124664
18400,NaN,8.561780,-0.249787,2.078790,-2.224462,0.063188,-1.284224,0.097158,-0.496256,1.152015,-0.937988,0.086426,-0.321289,0.085578,-0.002015,0.020999,0.999980,0.000486,-0.002481,0.005760,0.692057,0.053579,-0.708222,0.128874
18401,NaN,8.914030,0.057503,2.068774,-2.373670,0.480982,-0.987922,0.105629,-0.460221,1.103528,-0.940430,0.094971,-0.317139,0.089087,0.001056,0.020893,0.999982,0.000528,-0.002301,0.005518,0.689521,0.050339,-0.710112,0.133296
18402,NaN,9.491533,1.009842,1.651887,-2.302265,1.647632,-0.548689,0.158444,-0.396203,1.040522,-0.940674,0.105713,-0.315186,0.094828,0.010579,0.016715,0.999984,0.000792,-0.001981,0.005203,0.687371,0.047466,-0.711619,0.137354
18403,NaN,9.727940,1.598038,0.436337,-1.353985,2.639052,-0.401086,0.221279,-0.295364,0.963599,-0.942871,0.112061,-0.315186,0.097194,0.016444,0.004525,0.999987,0.001106,-0.001477,0.004818,0.685454,0.045012,-0.712771,0.141720
18404,NaN,9.754487,2.099496,-1.120076,-0.036430,3.609017,-0.443302,0.309639,-0.234011,0.880260,-0.943115,0.118652,-0.317383,0.097464,0.021441,-0.011054,0.999988,0.001548,-0.001170,0.004401,0.683919,0.043113,-0.713540,0.145797
18405,NaN,9.563585,2.423448,-2.209406,0.881852,4.258533,-0.685626,0.402799,-0.281711,0.792081,-0.941162,0.122803,-0.315186,0.095570,0.024657,-0.021910,0.999989,0.002014,-0.001409,0.003960,0.682107,0.041869,-0.714442,0.150168
18406,NaN,9.628414,2.271573,-1.864018,0.528968,4.091299,-0.629993,0.318627,-0.336600,0.665891,-0.943359,0.125000,-0.306885,0.096239,0.023066,-0.018442,0.999992,0.001593,-0.001683,0.003329,0.680333,0.040841,-0.715480,0.153516
18407,NaN,9.555633,1.995900,-1.222221,-0.064842,3.692427,-0.694081,0.069788,-0.351363,0.560216,-0.943604,0.131348,-0.304688,0.095521,0.020231,-0.012047,0.999994,0.000349,-0.001757,0.002801,0.678497,0.039319,-0.716810,0.155817
18408,NaN,9.543860,2.212711,-0.413243,-0.947819,3.707334,-0.784446,-0.318353,-0.498186,0.473108,-0.937256,0.137695,-0.302734,0.095396,0.022346,-0.003930,0.999993,-0.001592,-0.002491,0.002366,0.676402,0.036942,-0.718832,0.156193
18409,NaN,10.044754,3.281021,-0.405703,-1.319512,4.826722,-0.496663,-0.851440,-0.448634,0.358090,-0.941895,0.146240,-0.298584,0.100398,0.032973,-0.003972,0.999987,-0.004257,-0.002243,0.001790,0.674536,0.033089,-0.721152,0.154422
18410,NaN,10.622554,5.001207,-1.485230,-0.777939,6.862381,-0.202321,-0.819242,-0.249982,0.239242,-0.946045,0.144287,-0.298584,0.106184,0.050078,-0.014925,0.999990,-0.004096,-0.001250,0.001196,0.673579,0.029666,-0.722657,0.152243
18411,NaN,11.284524,5.128066,0.319243,-2.606074,6.635955,0.331864,-0.756331,-0.295231,0.075671,-0.943848,0.148438,-0.296387,0.112821,0.051335,0.003165,0.999992,-0.003782,-0.001476,0.000378,0.672455,0.027015,-0.724316,0.149803
18412,NaN,12.303579,3.963086,1.929859,-3.980654,5.293645,1.454085,-0.776782,-0.299546,-0.001966,-0.944092,0.150635,-0.290039,0.123007,0.039705,0.019329,0.999991,-0.003884,-0.001498,-0.000010,0.671472,0.024645,-0.725895,0.146952
18413,NaN,12.501846,3.302055,1.677735,-3.603163,4.768399,1.775845,-0.908255,-0.132395,-0.058590,-0.941895,0.148438,-0.285889,0.125017,0.033060,0.016710,0.999989,-0.004541,-0.000662,-0.000293,0.671057,0.021845,-0.727067,0.143455
18414,NaN,12.096775,3.125644,0.458721,-2.329431,4.821805,1.484920,-0.750326,-0.109778,-0.191724,-0.944092,0.150635,-0.290039,0.120995,0.031158,0.004537,0.999992,-0.003752,-0.000549,-0.000959,0.670873,0.020114,-0.727944,0.140083
18415,NaN,12.487600,2.390769,0.649425,-2.391225,4.107568,1.997794,-0.510499,-0.202831,-0.332167,-0.950195,0.146240,-0.287842,0.124909,0.023717,0.006560,0.999995,-0.002552,-0.001014,-0.001661,0.670353,0.019691,-0.729010,0.137051
18416,NaN,12.746240,1.495729,0.894473,-2.470277,3.183752,2.404721,-0.327105,-0.167812,-0.462639,-0.947998,0.142090,-0.285889,0.127489,0.014677,0.009028,0.999996,-0.001636,-0.000839,-0.002313,0.670088,0.020406,-0.729745,0.134303
18417,NaN,11.876694,2.643647,0.296840,-2.037678,4.232229,1.415338,-0.230680,-0.029736,-0.579437,-0.945557,0.135498,-0.287842,0.118842,0.026096,0.002956,0.999995,-0.001153,-0.000149,-0.002897,0.670343,0.021706,-0.729995,0.131441
18418,NaN,10.606348,4.484601,-0.633698,-1.362192,5.964730,-0.036512,0.043993,0.234514,-0.755467,-0.947510,0.125000,-0.291992,0.106224,0.044446,-0.006452,0.999992,0.000220,0.001173,-0.003777,0.671686,0.024467,-0.729089,0.129106
18419,NaN,9.873078,3.346638,-0.857769,-0.797278,4.742181,-0.523514,0.349938,0.357061,-0.921028,-0.945068,0.118408,-0.294189,0.098868,0.033026,-0.008696,0.999986,0.001750,0.001785,-0.004605,0.673509,0.028636,-0.727600,0.127140
18420,NaN,9.736594,1.685635,-1.205226,-0.059793,3.118501,-0.359334,0.429152,0.180832,-0.970676,-0.940674,0.105713,-0.298340,0.097435,0.016410,-0.012105,0.999986,0.002146,0.000904,-0.004853,0.674712,0.033508,-0.726566,0.125468
18421,NaN,9.908950,0.749500,-0.903660,-0.144611,2.074146,-0.053497,0.305542,-0.086656,-1.041922,-0.944336,0.092773,-0.298096,0.099131,0.006992,-0.008983,0.999985,0.001528,-0.000433,-0.005210,0.674974,0.038236,-0.726544,0.122810
18422,NaN,11.467182,0.606535,-0.358198,-0.758248,1.866958,1.497946,0.058601,-0.028386,-1.189714,-0.939941,0.082031,-0.304443,0.114706,0.005384,-0.003564,0.999982,0.000293,-0.000142,-0.005949,0.675578,0.042783,-0.726361,0.119011
18423,NaN,12.939375,0.319321,0.105089,-1.216324,1.472082,2.989299,-0.088738,0.275981,-1.466618,-0.941650,0.069336,-0.304199,0.129414,0.002245,0.000871,0.999972,-0.000444,0.001380,-0.007333,0.677437,0.047502,-0.725212,0.113535
18424,NaN,14.053208,-1.228048,0.757578,-1.471381,-0.273960,4.234692,-0.290061,0.837304,-1.710026,-0.939209,0.056396,-0.310547,0.140450,-0.013471,0.007007,0.999954,-0.001450,0.004186,-0.008550,0.681481,0.052254,-0.722098,0.106896
18425,NaN,13.754082,-2.929005,0.440139,-0.584313,-2.085158,4.088793,-0.278251,1.166008,-1.786707,-0.934326,0.034912,-0.325195,0.137295,-0.030512,0.003642,0.999942,-0.001391,0.005830,-0.008933,0.686665,0.056999,-0.717825,0.099848
18426,NaN,13.643900,-5.188201,-1.107141,1.636053,-4.151414,4.129347,0.088904,1.192140,-1.754640,-0.927734,0.024414,-0.339844,0.135908,-0.053071,-0.011906,0.999944,0.000445,0.005961,-0.008773,0.691755,0.063015,-0.713145,0.094488
18427,NaN,14.457268,-6.679338,-1.952304,2.989115,-5.582965,4.929225,0.533566,1.098075,-1.710526,-0.925049,0.000732,-0.354492,0.143884,-0.067972,-0.020495,0.999945,0.002668,0.005490,-0.008552,0.696252,0.070319,-0.708576,0.090602
18428,NaN,15.846101,-6.694755,-2.206641,3.471044,-5.692509,6.197458,0.885783,1.020319,-1.643786,-0.918213,-0.016357,-0.363037,0.157788,-0.068145,-0.023173,0.999943,0.004429,0.005101,-0.008219,0.700259,0.078772,-0.704003,0.088383
18429,NaN,16.651611,-6.428709,-2.063119,3.553285,-5.642303,6.872250,1.063200,1.177245,-1.625174,-0.913330,-0.033447,-0.369141,0.165860,-0.065522,-0.021955,0.999936,0.005316,0.005886,-0.008126,0.704619,0.087578,-0.698797,0.086741
18430,NaN,16.939527,-5.923205,-1.587312,3.300230,-5.447172,7.038857,1.300466,1.249400,-1.655246,-0.910645,-0.052734,-0.385986,0.168793,-0.060521,-0.017320,0.999925,0.006502,0.006247,-0.008276,0.709079,0.097406,-0.693053,0.086005
18431,NaN,15.824592,-4.455014,-1.255280,2.894449,-4.276661,5.844953,1.469432,1.170887,-1.707867,-0.899414,-0.076172,-0.392090,0.157780,-0.045800,-0.013811,0.999919,0.007347,0.005854,-0.008539,0.713045,0.107913,-0.687466,0.085512
18432,NaN,15.048773,-2.143114,-0.824706,2.092267,-2.320666,5.085919,1.770438,0.919314,-1.620992,-0.896729,-0.097656,-0.396240,0.150267,-0.022571,-0.009135,0.999917,0.008852,0.004596,-0.008105,0.715882,0.119406,-0.682498,0.086318
18433,NaN,14.515817,-0.496992,2.399317,-1.308322,-1.848077,4.733099,0.933002,0.477097,-1.570551,-0.892090,-0.108398,-0.398193,0.145169,-0.006221,0.023620,0.999955,0.004665,0.002385,-0.007853,0.717537,0.127784,-0.679514,0.084102
18434,NaN,14.699611,0.397251,2.088651,-1.138718,-1.140017,4.952031,0.752610,0.229327,-1.644842,-0.885498,-0.121338,-0.398193,0.147046,0.002685,0.020730,0.999958,0.003763,0.001147,-0.008224,0.718495,0.135982,-0.677294,0.080911
18435,NaN,14.082985,1.527900,0.791414,-0.193914,0.129456,4.372908,1.098651,0.147336,-1.801550,-0.878418,-0.140625,-0.391846,0.140965,0.013966,0.007889,0.999944,0.005493,0.000737,-0.009008,0.718873,0.145922,-0.675130,0.078283
18436,NaN,14.130557,1.715067,-0.157634,0.723840,0.341609,4.399698,1.479829,-0.040905,-1.950482,-0.875732,-0.164062,-0.395752,0.141464,0.015782,-0.001427,0.999925,0.007399,-0.000205,-0.009752,0.718362,0.157842,-0.673223,0.076242
18437,NaN,12.884796,-1.522401,-0.407266,1.995217,-2.728310,2.720118,2.025082,0.217004,-2.037919,-0.864258,-0.189697,-0.397705,0.128680,-0.016493,-0.004375,0.999896,0.010125,0.001085,-0.010189,0.718135,0.171834,-0.670067,0.075928
18438,NaN,11.116432,-2.933664,-0.050439,2.156608,-4.129765,0.697858,2.107510,0.830292,-2.036276,-0.854980,-0.213379,-0.401855,0.110854,-0.030456,-0.001282,0.999884,0.010537,0.004151,-0.010181,0.719792,0.185900,-0.664458,0.076392
18439,NaN,10.357613,-0.861466,1.018842,0.521490,-2.677337,0.267767,1.500812,0.515752,-2.044114,-0.848145,-0.234863,-0.403809,0.103506,-0.009748,0.009851,0.999916,0.007504,0.002579,-0.010220,0.720765,0.197836,-0.660151,0.074555
18440,NaN,10.268631,-0.734036,-0.423558,1.895360,-2.179619,0.077526,0.499168,-0.188447,-2.017720,-0.843262,-0.249756,-0.403809,0.102609,-0.008365,-0.004159,0.999946,0.002496,-0.000942,-0.010088,0.720359,0.206366,-0.658612,0.068751
18441,NaN,8.625468,-0.942705,-3.235593,4.429445,-1.169739,-1.765021,-0.354185,0.244979,-2.124888,-0.834473,-0.260498,-0.412109,0.086108,-0.010400,-0.032444,0.999941,-0.001771,0.001225,-0.010624,0.722152,0.211950,-0.655699,0.060267
18442,NaN,7.886849,-0.216075,-3.590054,4.486122,-0.400017,-2.406694,-1.024105,0.479734,-2.088041,-0.821289,-0.281982,-0.414062,0.078753,-0.003168,-0.036075,0.999930,-0.005120,0.002399,-0.010440,0.725384,0.214950,-0.652017,0.049884
18443,NaN,8.044486,0.331884,-2.341525,3.262728,-0.563005,-2.109356,-1.302816,0.519325,-1.896372,-0.812744,-0.283936,-0.431152,0.080409,0.002403,-0.023642,0.999930,-0.006514,0.002597,-0.009482,0.728818,0.216206,-0.648481,0.039393
18444,NaN,7.337908,0.248174,-0.956155,1.986230,-1.118971,-2.768415,-1.556047,0.409881,-1.702089,-0.808105,-0.294678,-0.437256,0.073376,0.001782,-0.009728,0.999931,-0.007780,0.002049,-0.008510,0.732110,0.215971,-0.645410,0.028596
18445,NaN,5.448764,-0.439740,-0.887042,1.891640,-1.414610,-4.803800,-1.958669,0.551257,-1.495669,-0.804199,-0.290283,-0.454346,0.054428,-0.004892,-0.008974,0.999920,-0.009793,0.002756,-0.007478,0.736068,0.213471,-0.642128,0.017472
18446,NaN,3.338905,-0.269767,-0.617886,1.258300,-0.883224,-6.773076,-1.912408,0.695369,-1.005085,-0.795654,-0.292480,-0.467041,0.033353,-0.002925,-0.006268,0.999936,-0.009562,0.003477,-0.005025,0.740378,0.209597,-0.638623,0.008385
18447,NaN,1.559015,-0.597245,-0.551268,0.974108,-0.773458,-8.570120,-1.755297,0.512134,-0.547449,-0.791748,-0.283936,-0.473389,0.015560,-0.006063,-0.005500,0.999954,-0.008776,0.002561,-0.002737,0.743747,0.204754,-0.636329,0.001372
18448,NaN,1.599037,-0.863424,-0.377036,0.881140,-1.094534,-8.600193,-1.737524,-0.021005,-0.042021,-0.785645,-0.277344,-0.479980,0.015989,-0.008670,-0.003693,0.999962,-0.008688,-0.000105,-0.000210,0.745426,0.198430,-0.636354,-0.004323
18449,NaN,2.350552,-0.697344,-0.500122,1.083843,-1.110149,-7.849445,-2.098738,-0.251859,0.345654,-0.785889,-0.264648,-0.484131,0.023524,-0.006985,-0.004898,0.999943,-0.010493,-0.001259,0.001728,0.746574,0.189429,-0.637688,-0.009876
18450,NaN,3.503736,0.241939,-0.094110,0.682930,-0.640947,-6.426492,-2.378947,-0.380679,0.561125,-0.794922,-0.251709,-0.492676,0.035032,0.002507,-0.000904,0.999924,-0.011894,-0.001903,0.002806,0.747580,0.178738,-0.639476,-0.015716
18451,NaN,4.933968,1.270210,-0.021306,0.660207,-0.032571,-4.760867,-2.385290,-0.223732,0.590455,-0.789062,-0.232422,-0.499268,0.049302,0.012844,-0.000311,0.999924,-0.011926,-0.001119,0.002952,0.748884,0.167840,-0.640742,-0.021246
18452,NaN,5.489276,2.012826,0.180912,0.452818,0.524655,-4.004440,-2.056645,0.133056,0.560490,-0.795898,-0.221680,-0.507812,0.054837,0.020299,0.001564,0.999943,-0.010283,0.000665,0.002802,0.751049,0.158360,-0.640462,-0.025613
18454,NaN,3.567597,0.398095,0.191713,0.793517,-0.996943,-2.736857,-1.415250,0.327830,0.508087,-0.792236,-0.200195,-0.518555,0.071322,0.008375,0.003484,0.999882,-0.014152,0.003278,0.005081,0.755326,0.144479,-0.638508,-0.030262
18455,NaN,2.946390,-0.915484,0.822282,-0.143652,-1.688927,-7.106719,-1.275488,-0.115959,0.677903,-0.796875,-0.191650,-0.520752,0.029490,-0.009002,0.008298,0.999974,-0.006377,-0.000580,0.003389,0.755956,0.137488,-0.639229,-0.031846
18456,NaN,3.612852,-0.397277,0.866163,-0.152839,-1.315983,-6.319060,-1.325621,-0.312456,0.832852,-0.794922,-0.180908,-0.518555,0.036131,-0.003765,0.008743,0.999968,-0.006628,-0.001562,0.004164,0.755873,0.129699,-0.640891,-0.033061
18457,NaN,3.663442,-0.091727,0.613655,0.046421,-0.955770,-6.222426,-1.187631,-0.411666,0.940610,-0.801758,-0.163818,-0.518799,0.036625,-0.000708,0.006217,0.999969,-0.005938,-0.002058,0.004703,0.755452,0.122136,-0.642844,-0.033567
18458,NaN,3.842121,0.104212,0.612198,0.033879,-0.761299,-5.996065,-1.026971,-0.520265,1.053117,-0.800049,-0.155029,-0.520996,0.038399,0.001276,0.006216,0.999970,-0.005135,-0.002601,0.005266,0.754457,0.114720,-0.645397,-0.033110
18459,NaN,4.794502,0.460101,0.404286,0.333094,-0.526929,-5.019626,-0.846767,-0.561191,1.173205,-0.808838,-0.144531,-0.516846,0.047905,0.004900,0.004157,0.999970,-0.004234,-0.002806,0.005866,0.753299,0.107655,-0.648031,-0.031727
18460,NaN,6.792783,0.763667,0.818374,0.177951,-0.581177,-2.955239,-0.643301,-0.484671,1.277589,-0.811279,-0.133789,-0.510498,0.067857,0.008097,0.008323,0.999971,-0.003216,-0.002423,0.006388,0.752152,0.100951,-0.650558,-0.029160
18461,NaN,9.460516,0.518691,1.226018,0.164334,-1.225723,-0.339431,-0.587456,-0.316949,1.325830,-0.815918,-0.120850,-0.508545,0.094548,0.005850,0.012394,0.999972,-0.002937,-0.001585,0.006629,0.751586,0.094391,-0.652320,-0.026232
18462,NaN,11.921005,-0.349358,1.932830,-0.137736,-2.404294,2.026494,-0.611673,-0.163538,1.322974,-0.818359,-0.107910,-0.514893,0.119214,-0.002646,0.019435,0.999973,-0.003058,-0.000818,0.006615,0.751390,0.087692,-0.653593,-0.023227
18463,NaN,13.251835,-1.245157,2.931559,-0.900608,-3.413372,3.351290,-0.769239,-0.195453,1.250977,-0.827148,-0.099365,-0.512695,0.132564,-0.011509,0.029491,0.999973,-0.003846,-0.000977,0.006255,0.751209,0.080700,-0.654773,-0.021114
18464,NaN,15.795796,-0.926622,4.862793,-2.574500,-3.411287,6.179204,-1.306614,-0.742240,1.236306,-0.821289,-0.078125,-0.506592,0.157828,-0.007970,0.049269,0.999953,-0.006533,-0.003711,0.006181,0.749298,0.071547,-0.658023,-0.020978
18465,NaN,18.391883,2.982424,8.889222,-6.572924,0.120956,9.756266,-1.977491,-0.602889,1.087534,-0.830078,-0.067383,-0.506592,0.183481,0.031703,0.089138,0.999932,-0.009887,-0.003014,0.005438,0.748081,0.060503,-0.660422,-0.023612
18466,NaN,20.199816,6.395564,11.892885,-9.401534,3.548076,12.309155,-2.768192,0.380965,0.640470,-0.826660,-0.045898,-0.515381,0.202013,0.066237,0.117638,0.999897,-0.013840,0.001905,0.003202,0.750090,0.047975,-0.658904,-0.030141
18467,NaN,19.249190,6.306223,10.113781,-7.372187,3.975469,11.220718,-2.610231,1.832654,-0.041596,-0.814209,-0.037109,-0.540771,0.193416,0.064319,0.098534,0.999873,-0.013051,0.009163,-0.000208,0.756649,0.038604,-0.651548,-0.038440
18468,NaN,16.029034,4.575129,4.603375,-1.810334,2.736301,7.165216,-1.815685,3.538306,-0.872728,-0.799316,-0.041504,-0.572510,0.161265,0.045447,0.042773,0.999793,-0.009078,0.017690,-0.004363,0.768157,0.035232,-0.637575,-0.046813
18469,NaN,9.951868,3.403041,-1.334849,3.415890,2.153880,-0.010645,0.278348,4.151029,-1.168773,-0.769287,-0.054199,-0.597900,0.099410,0.033470,-0.015366,0.999767,0.001392,0.020754,-0.005843,0.780884,0.041000,-0.621348,-0.049659
18470,NaN,4.735753,2.471655,-3.141646,4.213337,1.856368,-5.664514,1.821666,2.571155,-1.148636,-0.758301,-0.073486,-0.608398,0.047092,0.024734,-0.031798,0.999859,0.009108,0.012855,-0.005743,0.788059,0.052288,-0.611508,-0.047831
18471,NaN,5.627553,5.185770,0.989385,0.461720,4.281127,-3.409731,2.247179,0.629322,-1.016443,-0.749023,-0.092773,-0.606201,0.056570,0.051457,0.010296,0.999919,0.011236,0.003147,-0.005082,0.789085,0.064407,-0.609255,-0.044784
18472,NaN,7.293440,7.793306,2.775766,-0.942680,6.424647,-0.898233,1.688085,0.016491,-0.744217,-0.757324,-0.103516,-0.604004,0.073225,0.077423,0.028407,0.999957,0.008440,0.000082,-0.003721,0.788289,0.072764,-0.609464,-0.043124
18473,NaN,9.117402,9.072759,3.365089,-1.148206,7.246925,1.274595,1.162156,0.532123,-0.686391,-0.750732,-0.114258,-0.608154,0.091574,0.090217,0.033933,0.999974,0.005811,0.002661,-0.003432,0.789315,0.079559,-0.607356,-0.042081
18474,NaN,9.453881,9.502019,0.197303,1.935543,7.747660,0.954341,1.241983,0.090405,-0.676703,-0.752441,-0.125000,-0.605957,0.094861,0.094685,0.002519,0.999975,0.006210,0.000452,-0.003383,0.788834,0.085978,-0.607143,-0.041548
18475,NaN,12.175530,8.135538,-1.622605,4.292898,6.005682,2.937202,1.375508,-1.213526,-0.721886,-0.751953,-0.142090,-0.595215,0.122141,0.081021,-0.014928,0.999951,0.006877,-0.006068,-0.003609,0.784366,0.093349,-0.611880,-0.040726
18476,NaN,12.980392,4.229088,-0.623766,3.463692,1.831343,3.279496,0.982286,-2.078866,-0.579703,-0.755615,-0.152832,-0.573975,0.129980,0.041940,-0.004681,0.999930,0.004911,-0.010394,-0.002898,0.777257,0.097990,-0.620111,-0.041615
18477,NaN,11.551899,-0.168337,0.303968,2.198235,-2.380237,1.280641,0.281595,-2.558487,-0.345649,-0.774658,-0.150635,-0.554932,0.115464,-0.001889,0.004514,0.999916,0.001408,-0.012792,-0.001728,0.769044,0.099625,-0.629896,-0.043323
18478,NaN,11.120587,-3.999550,2.554033,-0.200426,-6.295755,0.507173,-0.597729,-2.935674,-0.017082,-0.796143,-0.146484,-0.537842,0.110810,-0.039925,0.027288,0.999888,-0.002989,-0.014678,-0.000085,0.759871,0.096149,-0.641177,-0.047376
18479,NaN,14.432797,-6.067599,4.734414,-2.057144,-9.097123,3.623475,-1.361265,-2.287725,0.436982,-0.802734,-0.133789,-0.531738,0.143902,-0.060030,0.049402,0.999909,-0.006806,-0.011438,0.002185,0.753221,0.089035,-0.649703,-0.051162
18480,NaN,16.453414,-6.384436,5.738270,-3.111038,-9.711337,5.692242,-1.965392,-1.158330,0.603273,-0.805420,-0.118652,-0.527588,0.164386,-0.062774,0.058955,0.999930,-0.009827,-0.005792,0.003016,0.750359,0.079334,-0.653878,-0.055773
18481,NaN,14.337571,-3.904788,2.938992,-0.944685,-6.611181,3.783148,-2.334294,-0.764497,0.169880,-0.807617,-0.114502,-0.519043,0.143294,-0.038575,0.030390,0.999924,-0.011671,-0.003822,0.000849,0.748771,0.069811,-0.656119,-0.063053
18482,NaN,10.975401,-0.497338,-2.336924,3.660982,-2.515754,0.503937,-1.595107,-1.638254,-0.281571,-0.816162,-0.105957,-0.512695,0.109933,-0.005309,-0.022428,0.999934,-0.007975,-0.008191,-0.001408,0.743756,0.064217,-0.661687,-0.069805
18483,NaN,10.800674,0.591507,-3.018254,4.166743,-1.505225,0.506395,-1.034288,-1.576746,-0.680098,-0.824707,-0.108154,-0.502197,0.108259,0.005394,-0.029358,0.999950,-0.005171,-0.007884,-0.003400,0.738593,0.062076,-0.666944,-0.076245
18484,NaN,9.240055,-1.873734,3.268182,-2.408267,-3.635727,-0.837617,-0.880659,-0.044212,-0.946361,-0.826660,-0.116699,-0.514648,0.092304,-0.019030,0.032786,0.999979,-0.004403,-0.000221,-0.004732,0.738268,0.061929,-0.666563,-0.082581
18485,NaN,6.647313,-4.222984,7.322353,-6.752380,-5.391351,-3.411540,0.199518,1.199283,-0.661617,-0.813721,-0.118652,-0.516846,0.066770,-0.042523,0.072781,0.999976,0.000998,0.005996,-0.003308,0.741908,0.065372,-0.662003,-0.083971
18486,NaN,4.261955,-4.124728,1.530393,-1.157885,-4.924202,-6.358665,1.773568,0.763339,-0.025856,-0.815430,-0.131592,-0.518799,0.042671,-0.041385,0.014775,0.999953,0.008868,0.003817,-0.000129,0.743763,0.072333,-0.659951,-0.077776
18487,NaN,5.519205,-1.802327,-4.302995,4.906096,-2.835327,-5.327718,2.822688,-0.056859,0.442503,-0.811035,-0.140137,-0.508301,0.055243,-0.017292,-0.043262,0.999898,0.014113,-0.000284,0.002212,0.742645,0.081349,-0.661359,-0.066815
18488,NaN,6.990746,-1.358081,-6.354761,7.139285,-2.453443,-3.972789,2.933012,-0.448032,0.692802,-0.817139,-0.148682,-0.506104,0.070094,-0.012406,-0.063578,0.999884,0.014664,-0.002240,0.003464,0.740065,0.089763,-0.664284,-0.054521
18489,NaN,9.891139,-1.523784,-7.680109,8.760869,-2.874650,-1.203585,2.481592,-0.893068,0.949603,-0.818848,-0.155273,-0.491211,0.099321,-0.013816,-0.076535,0.999902,0.012408,-0.004465,0.004748,0.736166,0.095547,-0.668632,-0.043147
18490,NaN,13.660296,-1.765510,-4.948573,6.370366,-3.819081,2.798286,1.667453,-0.842629,1.111353,-0.821289,-0.150879,-0.484863,0.136904,-0.016485,-0.049050,0.999941,0.008337,-0.004213,0.005557,0.732663,0.097733,-0.672694,-0.033684
18491,NaN,14.414269,-1.192120,-1.847423,3.235420,-3.524835,3.960867,0.569248,-0.417361,0.948767,-0.832031,-0.142334,-0.478516,0.144235,-0.011185,-0.018206,0.999983,0.002846,-0.002087,0.004744,0.731123,0.096563,-0.674777,-0.028482
18492,NaN,12.842111,0.330421,-1.351014,2.422327,-1.701787,2.760694,0.069106,-0.120260,0.626590,-0.834229,-0.140381,-0.478516,0.128418,0.003711,-0.013432,0.999995,0.000346,-0.000601,0.003133,0.730666,0.094622,-0.675654,-0.025802
18493,NaN,10.664868,1.666404,-2.115378,2.868707,0.114440,0.805613,-0.094828,0.161837,0.500007,-0.834473,-0.133789,-0.478760,0.106589,0.016921,-0.021248,0.999996,-0.000474,0.000809,0.002500,0.731313,0.092614,-0.675291,-0.024203
18494,NaN,10.088471,0.816822,-2.189817,2.969496,-0.560352,0.092240,-0.001937,0.015053,0.550826,-0.836670,-0.129639,-0.480713,0.100860,0.008446,-0.021906,0.999996,-0.000010,0.000075,0.002754,0.731315,0.090678,-0.675628,-0.021978
18495,NaN,10.745744,-0.689734,-1.578615,2.514386,-2.153731,0.554439,0.072211,-0.703721,0.531002,-0.838623,-0.131592,-0.472412,0.107530,-0.006606,-0.015410,0.999990,0.000361,-0.003519,0.002655,0.728950,0.089077,-0.678449,-0.020096
18496,NaN,11.071669,-1.002471,-1.043903,1.953273,-2.508475,0.890953,0.263564,-0.724427,0.590080,-0.841064,-0.121094,-0.466064,0.110782,-0.009685,-0.010051,0.999988,0.001318,-0.003622,0.002950,0.726300,0.087884,-0.681520,-0.017162
18497,NaN,10.995419,-2.081585,-0.100436,1.065539,-3.595105,0.731587,0.480288,-0.155599,0.646439,-0.845459,-0.121094,-0.463867,0.110021,-0.020458,-0.000968,0.999992,0.002401,-0.000778,0.003232,0.725602,0.087418,-0.682411,-0.013230
18498,NaN,10.137442,-2.824145,0.608861,0.377327,-4.213882,-0.157916,0.778167,0.037808,0.696182,-0.845459,-0.118896,-0.463867,0.101473,-0.027912,0.005960,0.999986,0.003891,0.000189,0.003481,0.725297,0.087783,-0.682772,-0.007800
18499,NaN,9.223465,-1.472942,0.234626,0.556289,-2.648943,-0.870092,1.068463,0.052268,0.865782,-0.841309,-0.112549,-0.464111,0.092298,-0.014342,0.002245,0.999976,0.005342,0.000261,0.004329,0.725017,0.088709,-0.682994,-0.000973
18500,NaN,9.023984,-1.497592,-1.035606,1.821348,-2.390660,-1.111313,0.970989,0.295249,1.049644,-0.849854,-0.114502,-0.470215,0.090301,-0.014451,-0.010560,0.999973,0.004855,0.001476,0.005248,0.725451,0.088556,-0.682522,0.006539
18501,NaN,8.486549,-0.858418,-1.850905,2.523991,-1.477846,-1.589031,0.733798,0.155714,1.206986,-0.845703,-0.105957,-0.461914,0.084900,-0.008004,-0.018605,0.999975,0.003669,0.000779,0.006035,0.725592,0.087098,-0.682457,0.013506
18502,NaN,8.479836,-0.486160,-2.072700,2.674012,-0.957551,-1.543979,0.394282,-0.199817,1.340604,-0.856689,-0.093262,-0.459961,0.084849,-0.004252,-0.020651,0.999975,0.001971,-0.000999,0.006703,0.724492,0.083868,-0.683873,0.019894
18503,NaN,8.596046,0.504302,-2.119831,2.546748,0.129363,-1.319388,-0.034041,-0.350004,1.372186,-0.852783,-0.084717,-0.457764,0.085960,0.005629,-0.021049,0.999975,-0.000170,-0.001750,0.006861,0.723147,0.079092,-0.685709,0.024618
18504,NaN,8.524424,0.688825,-1.778489,2.124138,0.373974,-1.348027,-0.081103,-0.478422,1.228165,-0.861572,-0.075928,-0.457764,0.085242,0.007405,-0.017584,0.999978,-0.000406,-0.002392,0.006141,0.721220,0.074539,-0.688079,0.028848
18505,NaN,7.998572,0.365210,-0.665922,0.982830,0.012320,-1.838547,0.138471,-0.684131,1.140004,-0.863770,-0.067383,-0.447266,0.079985,0.004113,-0.006383,0.999978,0.000692,-0.003421,0.005700,0.718627,0.071220,-0.690942,0.033197
18506,NaN,7.870697,-0.118835,-0.209752,0.521436,-0.440277,-1.967996,0.066675,-0.802888,1.187140,-0.868408,-0.058838,-0.441162,0.078720,-0.000720,-0.001782,0.999974,0.000333,-0.004014,0.005936,0.715454,0.067378,-0.694383,0.037652
18507,NaN,8.660475,0.471931,-0.519059,0.684845,0.245504,-1.154433,-0.063093,-0.829050,1.197491,-0.875000,-0.046143,-0.436768,0.086595,0.005236,-0.004833,0.999973,-0.000315,-0.004145,0.005987,0.712344,0.063155,-0.697752,0.041454
18508,NaN,9.426418,1.014530,-0.722354,0.736260,0.888259,-0.374676,-0.190536,-0.697526,1.149485,-0.873047,-0.037598,-0.426270,0.094228,0.010680,-0.006905,0.999977,-0.000953,-0.003488,0.005747,0.709552,0.058496,-0.700784,0.044902
18509,NaN,9.756599,1.160797,-0.619065,0.541204,1.107251,-0.045302,-0.327110,-0.637700,1.079718,-0.879883,-0.024658,-0.424316,0.097521,0.012125,-0.005899,0.999979,-0.001636,-0.003188,0.005399,0.707148,0.053700,-0.703428,0.047418
18510,NaN,9.593939,0.339794,-0.166697,0.126939,0.325367,-0.217701,-0.300070,-0.740033,1.006134,-0.884277,-0.018311,-0.417969,0.095926,0.003878,-0.001318,0.999979,-0.001500,-0.003700,0.005031,0.704203,0.049159,-0.706531,0.049944
18511,NaN,9.321903,-0.270485,0.126232,-0.160992,-0.236672,-0.490462,-0.106574,-0.777712,0.989053,-0.890869,-0.009766,-0.411621,0.093225,-0.002243,0.001626,0.999980,-0.000533,-0.003889,0.004945,0.701213,0.045488,-0.709532,0.052877
18512,NaN,9.065083,-0.277829,-0.094933,-0.019728,-0.130221,-0.743861,-0.083402,-0.638504,1.000242,-0.889160,0.000977,-0.413818,0.090666,-0.002325,-0.000659,0.999982,-0.000417,-0.003193,0.005001,0.698520,0.041701,-0.712164,0.056160
18513,NaN,8.867638,-0.371106,-0.541939,0.373593,-0.083484,-0.929050,-0.018995,-0.565608,0.990244,-0.887207,0.007324,-0.403320,0.088708,-0.003272,-0.005168,0.999984,-0.000095,-0.002828,0.004951,0.696211,0.038271,-0.714346,0.059452
18514,NaN,8.430252,-0.421442,-0.382166,0.170816,-0.085606,-1.365466,0.063655,-0.546065,0.989491,-0.895752,0.013916,-0.399170,0.084332,-0.003796,-0.003593,0.999984,0.000318,-0.002730,0.004947,0.693772,0.035005,-0.716559,0.063234
18515,NaN,8.131308,-0.649069,-0.018271,-0.203525,-0.295689,-1.663442,0.095894,-0.538213,1.029102,-0.895996,0.022217,-0.388672,0.081345,-0.006072,0.000033,0.999983,0.000479,-0.002691,0.005145,0.691480,0.031824,-0.718570,0.067072
18516,NaN,8.037576,-0.857651,0.291928,-0.534206,-0.467545,-1.755474,0.067257,-0.491686,1.083899,-0.900635,0.032959,-0.386719,0.080413,-0.008142,0.003114,0.999982,0.000336,-0.002458,0.005419,0.689155,0.028211,-0.720556,0.071194
18517,NaN,8.068178,-0.751344,0.825811,-1.130087,-0.353798,-1.754220,0.017535,-0.491560,1.119149,-0.902832,0.039551,-0.388916,0.080702,-0.007063,0.008456,0.999981,0.000088,-0.002458,0.005596,0.686961,0.024417,-0.722395,0.075064
18518,NaN,8.131445,-0.427667,1.085239,-1.489049,0.021824,-1.734169,0.013072,-0.450209,1.146787,-0.903076,0.050293,-0.380371,0.081312,-0.003811,0.011035,0.999981,0.000065,-0.002251,0.005734,0.684720,0.020375,-0.724203,0.079207
18519,NaN,8.101787,-0.046759,1.189996,-1.689669,0.467480,-1.813756,-0.034365,-0.382800,1.146651,-0.903564,0.060791,-0.376221,0.080996,-0.000001,0.012055,0.999982,-0.000172,-0.001914,0.005733,0.682861,0.016260,-0.725637,0.082989
18520,NaN,7.850723,0.065618,0.972122,-1.516707,0.674194,-2.077860,-0.008946,-0.331726,1.104300,-0.910156,0.071533,-0.372070,0.078486,0.001090,0.009851,0.999983,-0.000045,-0.001659,0.005521,0.681025,0.012253,-0.726981,0.086911
18521,NaN,7.905204,-0.024015,0.118136,-0.699963,0.792368,-1.977612,0.114038,-0.281584,1.018399,-0.906006,0.073730,-0.370117,0.079050,0.000162,0.001293,0.999986,0.000570,-0.001408,0.005092,0.679532,0.009064,-0.727950,0.090796
18522,NaN,8.290499,0.051201,-0.844593,0.173171,1.126620,-1.557477,0.312079,-0.302020,0.927728,-0.906250,0.086670,-0.367920,0.082914,0.000910,-0.008320,0.999987,0.001560,-0.001510,0.004639,0.677829,0.006780,-0.728989,0.095274
18523,NaN,8.953912,0.601927,-1.206231,0.357477,1.875275,-0.961432,0.546354,-0.376548,0.849230,-0.908447,0.088623,-0.361572,0.089535,0.006432,-0.011877,0.999985,0.002732,-0.001883,0.004246,0.676013,0.005718,-0.730030,0.100151
18524,NaN,9.034609,1.156548,-1.431969,0.442952,2.539130,-0.960098,0.587625,-0.306039,0.747160,-0.908691,0.095215,-0.365967,0.090324,0.011945,-0.014147,0.999988,0.002938,-0.001530,0.003736,0.674338,0.005023,-0.730902,0.105000
18525,NaN,8.894321,0.854781,-2.879756,1.881734,2.526039,-0.969033,0.631835,-0.304228,0.642822,-0.908691,0.097168,-0.359619,0.088959,0.008924,-0.028634,0.999989,0.003159,-0.001521,0.003214,0.672854,0.004967,-0.731611,0.109490
18526,NaN,9.708817,1.152455,-1.734583,0.574470,2.806836,-0.305371,0.640620,-0.477410,0.602317,-0.912842,0.093018,-0.357422,0.097094,0.011872,-0.017076,0.999987,0.003203,-0.002387,0.003012,0.670593,0.005068,-0.732995,0.114007
18527,NaN,10.308778,2.034734,-1.111284,-0.302265,3.699102,0.080277,0.330951,-0.448906,0.552475,-0.915283,0.103760,-0.353271,0.103056,0.020650,-0.010847,0.999992,0.001655,-0.002245,0.002762,0.668607,0.004411,-0.734327,0.117083
18528,NaN,10.506621,3.206275,-1.478614,-0.205864,4.981972,0.086448,0.009634,-0.259551,0.475418,-0.911133,0.110107,-0.349121,0.105009,0.032313,-0.014648,0.999996,0.000048,-0.001298,0.002377,0.667215,0.002736,-0.735320,0.118832
18529,NaN,11.091544,3.869951,-1.092274,-0.784238,5.687645,0.493981,-0.213485,-0.210728,0.398604,-0.915527,0.116455,-0.342773,0.110849,0.038909,-0.010847,0.999997,-0.001067,-0.001054,0.001993,0.666193,0.000685,-0.736160,0.119397
18530,NaN,11.415966,3.067596,0.058893,-1.845255,4.794338,0.833771,-0.362799,-0.223782,0.355280,-0.913330,0.114258,-0.344971,0.114104,0.030880,0.000661,0.999996,-0.001814,-0.001119,0.001776,0.665004,-0.001809,-0.737243,0.119329
18531,NaN,11.671763,2.324345,0.733303,-2.438863,4.032896,1.139842,-0.504563,-0.199336,0.324616,-0.913574,0.118652,-0.344971,0.116672,0.023451,0.007390,0.999995,-0.002523,-0.000997,0.001623,0.664055,-0.004562,-0.738207,0.118573
18532,NaN,11.468891,1.928183,0.654514,-2.300233,3.662256,1.002970,-0.482632,-0.224365,0.252539,-0.911621,0.122803,-0.338623,0.114657,0.019443,0.006627,0.999996,-0.002413,-0.001122,0.001263,0.662924,-0.007067,-0.739345,0.117688
18533,NaN,11.611062,1.567584,0.536295,-2.176460,3.375458,1.206880,-0.330788,-0.324424,0.156157,-0.917725,0.120850,-0.334473,0.116089,0.015776,0.005525,0.999997,-0.001654,-0.001622,0.000781,0.661607,-0.008548,-0.740615,0.117018
18535,NaN,13.163849,0.745733,0.314070,-4.193717,5.761025,15.583922,-0.091294,-0.316096,0.047736,-0.922119,0.127197,-0.325928,0.263248,0.015047,0.007100,0.999994,-0.000913,-0.003161,0.000477,0.659071,-0.009230,-0.742911,0.116715
18536,NaN,13.698470,0.651364,0.735702,-2.621463,2.800542,3.374368,0.016959,-0.202675,-0.109380,-0.922119,0.120850,-0.328125,0.136981,0.006438,0.007496,0.999999,0.000085,-0.001013,-0.000547,0.658370,-0.008648,-0.743581,0.116451
18537,NaN,12.861958,1.873668,-0.059319,-1.920751,3.953968,2.419273,0.228520,-0.044539,-0.263471,-0.917725,0.118652,-0.325928,0.128644,0.018568,-0.000543,0.999998,0.001143,-0.000223,-0.001317,0.658257,-0.006972,-0.743700,0.116441
18538,NaN,11.789418,2.872623,-0.480110,-1.508396,4.778670,1.249034,0.385853,0.092985,-0.452572,-0.919678,0.114258,-0.330078,0.117957,0.028469,-0.004801,0.999995,0.001929,0.000465,-0.002263,0.658864,-0.004072,-0.743190,0.116406
18539,NaN,10.555112,3.472748,-0.717070,-1.195773,5.153989,-0.015201,0.513214,0.210522,-0.617683,-0.919189,0.099365,-0.325684,0.105650,0.034420,-0.007193,0.999991,0.002566,0.001053,-0.003088,0.659912,-0.000282,-0.742295,0.116249
18540,NaN,10.349892,3.148806,-0.882055,-0.940803,4.775052,-0.110805,0.518240,0.313173,-0.756159,-0.919189,0.092773,-0.329834,0.103603,0.031119,-0.008902,0.999988,0.002591,0.001566,-0.003781,0.661494,0.004053,-0.740961,0.115700
18541,NaN,9.914265,1.655937,-0.991926,-0.516696,3.207461,-0.249041,0.526008,0.265066,-0.872441,-0.914551,0.084229,-0.327881,0.099200,0.016153,-0.010008,0.999986,0.002630,0.001325,-0.004362,0.662870,0.008803,-0.739843,0.114708
18542,NaN,11.088407,0.803225,-0.456153,-1.008301,2.351453,1.015923,0.540230,0.235316,-1.088935,-0.920654,0.071533,-0.329834,0.110920,0.007441,-0.004671,0.999981,0.002701,0.001177,-0.005445,0.664315,0.014488,-0.738699,0.113130
18543,NaN,11.628364,1.028406,0.516174,-2.003185,2.333256,1.460453,0.475639,0.525857,-1.337103,-0.914062,0.064941,-0.338135,0.116362,0.009494,0.004879,0.999971,0.002378,0.002629,-0.006685,0.666875,0.020646,-0.736656,0.110404
18544,NaN,11.790258,0.171427,0.215723,-1.466308,1.419713,1.802666,0.465657,0.898819,-1.630044,-0.911377,0.047852,-0.348633,0.117919,0.000749,0.001630,0.999954,0.002328,0.004494,-0.008150,0.670993,0.027707,-0.733209,0.106795
18545,NaN,11.729079,-1.917204,0.311171,-1.009893,-0.818063,2.004630,0.594774,1.168045,-1.795820,-0.904541,0.030762,-0.354980,0.117128,-0.020232,0.002368,0.999938,0.002974,0.005840,-0.008979,0.676032,0.035607,-0.728766,0.103022
18546,NaN,11.062867,-3.654938,0.276927,-0.393902,-2.741946,1.507335,0.639798,1.247026,-1.823107,-0.906250,0.009521,-0.365234,0.110303,-0.037563,0.001962,0.999934,0.003199,0.006235,-0.009115,0.681343,0.043769,-0.723858,0.099430
18547,NaN,11.335030,-5.942538,-0.366060,0.899182,-4.990161,1.943676,0.991909,1.404145,-1.796575,-0.899170,-0.009766,-0.377930,0.112780,-0.060418,-0.004752,0.999923,0.004959,0.007021,-0.008983,0.686973,0.052901,-0.718217,0.097134
18548,NaN,13.187199,-7.701367,-0.587373,1.689858,-6.711146,3.812664,1.511720,1.334087,-1.757243,-0.885986,-0.031250,-0.390381,0.131143,-0.078116,-0.007338,0.999911,0.007558,0.006670,-0.008786,0.692141,0.063754,-0.712382,0.096894
18549,NaN,14.740519,-8.189834,-0.783787,2.299162,-7.234101,5.264977,1.932864,1.231662,-1.726563,-0.883057,-0.052734,-0.390381,0.146636,-0.083080,-0.009542,0.999897,0.009664,0.006158,-0.008633,0.696598,0.075937,-0.706646,0.098166
18550,NaN,15.776004,-7.630012,-1.330884,3.088834,-6.679191,6.146590,2.147996,1.414065,-1.765262,-0.880371,-0.076172,-0.400635,0.156976,-0.077531,-0.015249,0.999878,0.010740,0.007070,-0.008826,0.701545,0.088954,-0.699922,0.100155
18551,NaN,15.979496,-4.274957,-0.354174,1.626168,-3.860128,6.193209,2.222460,0.994100,-1.647117,-0.873535,-0.093262,-0.406982,0.159414,-0.044015,-0.004819,0.999892,0.011112,0.004970,-0.008235,0.704737,0.101626,-0.694654,0.102337
18552,NaN,14.822976,-1.844862,0.617140,0.236573,-2.002881,5.000511,1.949146,0.570163,-1.631808,-0.866699,-0.110596,-0.408936,0.148089,-0.019713,0.005561,0.999915,0.009745,0.002851,-0.008159,0.706487,0.113864,-0.690771,0.103660
18553,NaN,14.643993,1.602848,1.372586,-1.388302,0.822094,4.894096,1.935779,0.354092,-1.774074,-0.865967,-0.134033,-0.413086,0.146598,0.014596,0.013612,0.999912,0.009679,0.001770,-0.008870,0.707437,0.126121,-0.687623,0.103925
18554,NaN,14.231539,3.631370,1.986955,-2.537986,2.275268,4.611083,1.604274,0.263075,-1.906136,-0.863037,-0.157715,-0.410645,0.142678,0.034795,0.019965,0.999922,0.008021,0.001315,-0.009530,0.708249,0.138205,-0.684615,0.102878
18555,NaN,14.409855,2.864454,1.034487,-1.284110,1.576152,4.774212,1.688728,0.325910,-2.031442,-0.856201,-0.178955,-0.402100,0.144396,0.027092,0.010343,0.999911,0.008443,0.001630,-0.010157,0.709164,0.150428,-0.681319,0.101300
18556,NaN,13.373868,1.677113,-0.123102,0.297598,0.668447,3.646344,1.411682,0.699117,-2.147031,-0.842773,-0.200439,-0.406250,0.133903,0.015345,-0.001587,0.999911,0.007058,0.003495,-0.010735,0.711493,0.162383,-0.676463,0.099035
18557,NaN,12.049043,0.527620,-1.016199,1.617846,-0.188517,2.180311,1.252857,0.689798,-2.142578,-0.837891,-0.221924,-0.412354,0.120502,0.004051,-0.010550,0.999917,0.006264,0.003449,-0.010713,0.713793,0.173217,-0.671799,0.095822
18558,NaN,11.429246,-0.073089,-0.353695,1.361507,-1.119722,1.485288,1.293966,1.096944,-2.193764,-0.824463,-0.243408,-0.414551,0.114254,-0.001959,-0.004174,0.999904,0.006470,0.005485,-0.010968,0.717323,0.184664,-0.665313,0.093301
18559,NaN,10.245458,0.311246,1.316389,-0.255599,-1.461109,0.414437,0.967889,0.813438,-2.109687,-0.819824,-0.260498,-0.422852,0.102532,0.001969,0.012758,0.999924,0.004839,0.004067,-0.010548,0.720054,0.194180,-0.660190,0.089251
18560,NaN,9.878864,-0.015867,-0.222127,1.382073,-1.273066,-0.111814,0.411693,0.500567,-2.102429,-0.808594,-0.275391,-0.424805,0.098774,-0.001192,-0.002470,0.999939,0.002058,0.002503,-0.010512,0.722185,0.202370,-0.656137,0.083542
18561,NaN,9.398826,0.175442,-1.560891,2.586903,-0.658806,-0.665249,0.014699,0.443124,-2.097972,-0.803711,-0.296875,-0.426758,0.093965,0.000770,-0.015817,0.999943,0.000073,0.002216,-0.010490,0.724449,0.208443,-0.652656,0.075935
18563,NaN,9.393049,0.150005,-2.112081,6.520650,-1.396091,8.251973,-0.382266,0.373290,-1.963620,-0.786377,-0.316162,-0.435059,0.187710,-0.000850,-0.042944,0.999793,-0.003822,0.003733,-0.019635,0.729007,0.218165,-0.646029,0.059998
18564,NaN,8.302651,-0.403804,-2.159933,3.484885,-1.197152,-2.054984,-0.946447,0.546501,-1.902182,-0.773438,-0.324707,-0.447754,0.082923,-0.004930,-0.021804,0.999940,-0.004732,0.002732,-0.009511,0.732292,0.219938,-0.642555,0.049993
18565,NaN,6.116999,-0.835414,-1.498564,2.738670,-1.497913,-4.279511,-0.843392,0.478769,-1.685460,-0.766602,-0.335449,-0.445557,0.061060,-0.008933,-0.015095,0.999953,-0.004217,0.002394,-0.008427,0.735128,0.222136,-0.639145,0.041657
18567,NaN,5.584189,-0.578765,0.530752,1.469764,-4.034552,0.615932,-0.969750,0.244833,-1.218456,-0.756104,-0.337402,-0.464600,0.111558,-0.012833,0.010462,0.999876,-0.009697,0.002448,-0.012184,0.739197,0.221892,-0.635339,0.026396
18568,NaN,2.957007,-0.752201,0.179354,0.639680,-1.468436,-7.209547,-1.531254,0.153981,-0.654396,-0.753906,-0.337402,-0.462646,0.029547,-0.007605,0.001829,0.999965,-0.007656,0.000770,-0.003272,0.741430,0.218284,-0.634240,0.019303
18569,NaN,2.907983,-0.786003,0.258498,0.555056,-1.525653,-7.262146,-1.491869,-0.057357,-0.179554,-0.758301,-0.333252,-0.468994,0.029072,-0.007867,0.002652,0.999972,-0.007459,-0.000287,-0.000898,0.742792,0.212518,-0.634761,0.013185
18570,NaN,3.633983,-0.450178,0.115454,0.714456,-1.357039,-6.485561,-1.802907,-0.406937,0.168217,-0.762939,-0.322510,-0.475342,0.036341,-0.004460,0.001269,0.999957,-0.009014,-0.002035,0.000841,0.743358,0.205307,-0.636560,0.007676
18571,NaN,4.991515,0.614548,0.558149,0.242139,-0.849022,-4.830228,-1.908768,-0.343625,0.277858,-0.757080,-0.309570,-0.481934,0.049897,0.006268,0.005608,0.999952,-0.009544,-0.001718,0.001389,0.744082,0.196634,-0.638493,0.001740
18572,NaN,5.980309,1.575347,0.928201,-0.167835,-0.286236,-3.567921,-1.800134,-0.001341,0.279512,-0.763672,-0.298828,-0.483887,0.059781,0.015920,0.009140,0.999959,-0.009001,-0.000007,0.001398,0.745800,0.189037,-0.638780,-0.002946
18573,NaN,5.271952,1.252751,0.833872,-0.110990,-0.345050,-4.342162,-1.489975,0.352018,0.301737,-0.759521,-0.292480,-0.488281,0.052715,0.012668,0.008152,0.999970,-0.007450,0.001760,0.001509,0.748213,0.181852,-0.638014,-0.006760
18574,NaN,4.344757,0.804634,0.411927,0.241093,-0.397625,-5.399328,-1.493908,0.158050,0.304285,-0.768555,-0.279541,-0.492676,0.043438,0.008143,0.004024,0.999971,-0.007469,0.000790,0.001521,0.750049,0.175292,-0.637648,-0.010221
18575,NaN,3.990445,0.536542,0.645314,0.009514,-0.597544,-5.778985,-1.437618,-0.128600,0.395910,-0.766602,-0.270996,-0.503174,0.039890,0.005491,0.006440,0.999972,-0.007188,-0.000643,0.001980,0.750791,0.168049,-0.638655,-0.013858
18576,NaN,3.912852,0.370096,1.466845,-0.773642,-0.896821,-5.788255,-1.337045,-0.297864,0.561670,-0.769043,-0.266602,-0.499023,0.039096,0.003909,0.014701,0.999973,-0.006685,-0.001489,0.002808,0.750967,0.161210,-0.640153,-0.016247
18577,NaN,3.650950,0.585891,1.417554,-0.830766,-0.577541,-5.984077,-1.264318,-0.409710,0.735984,-0.775879,-0.247314,-0.503418,0.036458,0.006083,0.014212,0.999971,-0.006322,-0.002049,0.003680,0.750607,0.153542,-0.642403,-0.018230
18578,NaN,3.494254,1.016304,0.906859,-0.451051,0.016656,-6.089626,-1.212308,-0.463649,0.919997,-0.782715,-0.236572,-0.501221,0.034874,0.010379,0.009087,0.999968,-0.006061,-0.002318,0.004600,0.750094,0.145989,-0.644736,-0.019003
18579,NaN,3.528866,1.217257,0.316351,0.081695,0.360554,-6.084707,-1.102910,-0.575226,1.120668,-0.787109,-0.225830,-0.499268,0.035210,0.012388,0.003197,0.999965,-0.005514,-0.002876,0.005603,0.749019,0.137649,-0.647810,-0.019143
18580,NaN,4.788564,1.687180,0.258644,0.246360,0.616797,-4.772623,-0.952978,-0.673896,1.336485,-0.791748,-0.213135,-0.497314,0.047763,0.017204,0.002666,0.999961,-0.004765,-0.003369,0.006682,0.747576,0.129679,-0.651154,-0.017664
18581,NaN,6.991149,2.058014,0.396943,0.359280,0.609913,-2.548598,-0.963207,-0.461448,1.488544,-0.802979,-0.193848,-0.497314,0.069746,0.021119,0.004030,0.999958,-0.004816,-0.002307,0.007443,0.746694,0.120737,-0.653927,-0.015828
18582,NaN,9.357750,1.646852,1.093065,0.055073,-0.195282,-0.250726,-1.186282,0.008542,1.536928,-0.803467,-0.178711,-0.493164,0.093447,0.017251,0.010826,0.999953,-0.005931,0.000043,0.007685,0.747510,0.111275,-0.654715,-0.013938
18583,NaN,10.806237,0.708122,1.487685,-0.019564,-1.233791,1.048428,-1.508659,0.058740,1.524295,-0.806152,-0.157227,-0.501953,0.108008,0.008016,0.014787,0.999942,-0.007543,0.000294,0.007621,0.748498,0.100203,-0.655385,-0.013433
18584,NaN,11.976349,-0.350480,2.023938,-0.296610,-2.326151,2.109959,-1.987396,-0.234195,1.386366,-0.811035,-0.140137,-0.501953,0.119759,-0.002472,0.020408,0.999926,-0.009937,-0.001171,0.006932,0.748750,0.088197,-0.656791,-0.014848
18585,NaN,14.796556,1.178000,3.901833,-1.976384,-1.167569,5.362053,-2.674339,-0.511459,1.350912,-0.815918,-0.116699,-0.504150,0.147779,0.013302,0.039225,0.999885,-0.013371,-0.002557,0.006754,0.748158,0.073275,-0.659187,-0.019060
18586,NaN,18.125996,5.138328,8.201582,-6.072752,2.379146,9.672136,-3.669046,-0.483771,1.140289,-0.816650,-0.088867,-0.504395,0.180760,0.053913,0.081480,0.999813,-0.018344,-0.002419,0.005701,0.747863,0.055729,-0.660958,-0.027034
18587,NaN,21.380394,6.220098,10.127453,-7.388206,3.519091,13.238812,-3.675471,0.792932,0.639373,-0.812988,-0.075928,-0.521484,0.213996,0.064721,0.099252,0.999818,-0.018376,0.003964,0.003197,0.751365,0.039617,-0.657669,-0.036776
18588,NaN,19.424160,6.209106,7.498694,-4.534481,4.071958,11.041674,-2.813137,2.184263,-0.283050,-0.802734,-0.064941,-0.544922,0.195127,0.062842,0.071979,0.999840,-0.014065,0.010921,-0.001415,0.758920,0.030371,-0.648802,-0.046625
18589,NaN,15.152672,4.089554,2.448832,0.328908,2.358587,5.891580,-1.607324,3.326746,-1.059003,-0.781738,-0.060791,-0.568115,0.152117,0.040273,0.021636,0.999815,-0.008036,0.016633,-0.005295,0.769526,0.028279,-0.635571,-0.055490
18590,NaN,9.835114,1.877638,-0.739032,2.790805,0.577179,-0.186145,-0.211126,3.014627,-1.383781,-0.766602,-0.075684,-0.584961,0.098351,0.018087,-0.008892,0.999862,-0.001056,0.015072,-0.006919,0.778634,0.032693,-0.623648,-0.061024
18591,NaN,6.028007,1.081000,-0.438920,1.823299,0.203573,-3.953413,0.979317,1.690097,-1.263022,-0.759766,-0.090576,-0.589111,0.060307,0.010452,-0.004847,0.999932,0.004896,0.008450,-0.006315,0.783237,0.040781,-0.617204,-0.062737
18592,NaN,7.200952,3.734480,1.693663,0.186300,2.593433,-1.944592,1.524185,0.565663,-1.004549,-0.752930,-0.105713,-0.595459,0.072243,0.036853,0.017015,0.999954,0.007621,0.002828,-0.005023,0.784309,0.050023,-0.615252,-0.061822
