// Start Time: Unknown
// Update Rate: 100.0Hz
// Filter Profile: human (46.1)
// Firmware Version: 4.4.0
PacketCounter,SampleTimeFine,Acc_X,Acc_Y,Acc_Z,FreeAcc_X,FreeAcc_Y,FreeAcc_Z,Gyr_X,Gyr_Y,Gyr_Z,Mag_X,Mag_Y,Mag_Z,VelInc_X,VelInc_Y,VelInc_Z,OriInc_q0,OriInc_q1,OriInc_q2,OriInc_q3,Quat_q0,Quat_q1,Quat_q2,Quat_q3
05261,NaN,9.741387,-0.207741,0.785522,0.000000,-0.000000,-0.037972,-1.273125,-0.654959,-3.547864,-0.944092,0.310547,0.390625,0.097331,-0.003753,0.008194,0.999817,-0.006365,-0.003275,-0.017738,0.198891,-0.658210,-0.157617,-0.708773
05262,NaN,10.365271,-1.768277,1.242931,0.000000,-0.000000,0.774940,-0.801341,-0.466131,-3.743847,-0.949219,0.269775,0.391357,0.103269,-0.019568,0.012746,0.999814,-0.004006,-0.002331,-0.018718,0.126671,-0.663081,0.011408,-0.737664
05263,NaN,10.992197,-2.647315,1.740543,0.173135,1.471432,1.529931,-0.362492,-0.340339,-3.904968,-0.954346,0.233398,0.389648,0.109348,-0.028580,0.017642,0.999806,-0.001812,-0.001702,-0.019524,0.129187,-0.667115,-0.053540,-0.731711
05264,NaN,11.407263,-3.955290,1.357413,-0.629044,3.031481,1.934970,-0.094022,-0.337811,-3.991742,-0.963623,0.188232,0.403076,0.113230,-0.041812,0.013785,0.999799,-0.000470,-0.001689,-0.019957,0.114154,-0.667209,-0.066718,-0.733041
05265,NaN,11.816015,-5.074104,0.626106,-1.710359,4.360150,2.178920,-0.092195,-0.412242,-3.958837,-0.955566,0.147461,0.397217,0.117112,-0.053063,0.006527,0.999802,-0.000461,-0.002061,-0.019793,0.099092,-0.667231,-0.079306,-0.733958
05266,NaN,12.387093,-6.020650,0.837216,-1.820478,5.784347,2.580581,-0.478703,-0.557744,-3.785431,-0.952148,0.108887,0.402100,0.122678,-0.062515,0.008863,0.999814,-0.002393,-0.002789,-0.018926,0.083365,-0.667890,-0.090438,-0.734026
05267,NaN,13.518662,-6.569488,1.239014,-1.534489,6.812629,3.553589,-1.195636,-0.677203,-3.422581,-0.950684,0.063965,0.415771,0.133993,-0.067917,0.013247,0.999830,-0.005978,-0.003386,-0.017112,0.065211,-0.670241,-0.091791,-0.733552
05268,NaN,15.063907,-8.146133,1.652040,-1.488883,8.939556,4.811043,-1.831579,-0.666085,-2.900780,-0.945068,0.029541,0.420654,0.149380,-0.083475,0.017778,0.999847,-0.009157,-0.003330,-0.014503,0.048119,-0.671848,-0.094998,-0.732994
05269,NaN,15.637410,-10.650093,2.209206,-0.806059,11.627746,5.252421,-2.184843,-0.517598,-2.318111,-0.939697,-0.002441,0.416748,0.155068,-0.108051,0.023669,0.999870,-0.010924,-0.002588,-0.011590,0.026732,-0.675309,-0.074577,-0.733267
05270,NaN,14.221476,-12.165284,1.755922,-1.037647,13.261110,3.468011,-2.357144,-0.358782,-1.747152,-0.930176,-0.030518,0.425781,0.141113,-0.122669,0.019255,0.999891,-0.011785,-0.001794,-0.008735,0.012232,-0.676215,-0.071874,-0.733088
05271,NaN,13.223036,-13.619156,1.063652,-0.203009,14.119917,2.916597,-2.256113,-0.219190,-1.241217,-0.925293,-0.047607,0.417480,0.131369,-0.136876,0.012322,0.999917,-0.011280,-0.001096,-0.006206,-0.012554,-0.679691,-0.018354,-0.733162
05272,NaN,12.687775,-14.302761,0.731388,-0.165299,14.884784,2.207701,-2.081586,-0.113510,-0.765975,-0.925049,-0.056152,0.419922,0.126324,-0.143425,0.008877,0.999938,-0.010408,-0.000568,-0.003830,-0.022445,-0.679864,-0.013318,-0.732874
05273,NaN,11.983475,-13.912147,0.462058,2.003105,13.261662,2.736177,-1.962847,-0.082855,-0.286846,-0.919922,-0.073242,0.420166,0.119633,-0.139239,0.006036,0.999951,-0.009814,-0.000414,-0.001434,-0.052787,-0.680050,0.077007,-0.727197
05274,NaN,11.110036,-13.157809,-0.087547,1.660197,12.597913,1.810507,-1.984765,-0.086295,0.195469,-0.922119,-0.077637,0.417969,0.111229,-0.131469,0.000478,0.999950,-0.009924,-0.000431,0.000977,-0.058789,-0.679731,0.084907,-0.726155
05275,NaN,10.421784,-11.970058,-0.489894,3.404984,9.660709,2.320219,-1.888643,-0.068121,0.618347,-0.917480,-0.081787,0.416016,0.104589,-0.119417,-0.003735,0.999951,-0.009443,-0.000341,0.003092,-0.095265,-0.669153,0.201375,-0.708948
05276,NaN,9.309420,-10.092599,-0.576711,2.810463,8.002052,1.000425,-1.622654,-0.029040,0.923230,-0.921875,-0.081787,0.416016,0.093560,-0.100537,-0.004937,0.999956,-0.008113,-0.000145,0.004616,-0.097388,-0.667524,0.210221,-0.707626
05277,NaN,8.180025,-3.383845,-4.125270,-2.320991,3.141080,-0.861310,-1.619327,-0.172006,0.933675,-0.917480,-0.081787,0.409424,0.081993,-0.033788,-0.040909,0.999956,-0.008097,-0.000860,0.004668,-0.133965,-0.643886,0.328044,-0.678123
05278,NaN,5.302404,1.453441,-5.184760,-5.660807,0.854181,-4.879611,-1.520124,-0.128993,0.848605,-0.915527,-0.077637,0.416016,0.052996,0.014365,-0.051923,0.999962,-0.007601,-0.000645,0.004243,-0.135765,-0.641889,0.336004,-0.675757
05279,NaN,4.569077,13.064759,-7.646259,-15.436648,-3.352936,-9.109611,-1.356154,-0.213120,0.470496,-0.915527,-0.079834,0.416016,0.045466,0.130232,-0.077298,0.999974,-0.006781,-0.001066,0.002352,-0.165756,-0.615684,0.427337,-0.640969
05280,NaN,12.337653,11.086766,-2.385089,-12.070956,-8.468667,-1.850550,-1.047239,-0.187141,0.263417,-0.913330,-0.077637,0.409424,0.123253,0.110904,-0.024316,0.999985,-0.005236,-0.000936,0.001317,-0.167733,-0.614843,0.431653,-0.638364
05281,NaN,30.259764,-8.199726,11.933117,6.687240,-16.315183,18.724470,-0.476728,0.367189,1.093367,-0.915771,-0.071045,0.407227,0.303257,-0.080057,0.118967,0.999981,-0.002384,0.001836,0.005467,-0.182925,-0.596276,0.481675,-0.615616
05282,NaN,34.197971,-15.743476,2.452823,6.075386,-6.842844,26.787618,-0.892341,-0.055315,2.111453,-0.911865,-0.056152,0.406982,0.343609,-0.153701,0.025314,0.999934,-0.004462,-0.000277,0.010557,-0.178941,-0.590506,0.490735,-0.615192
05283,NaN,18.476196,-1.782451,-0.445869,-3.392840,-5.561351,7.573939,0.705593,0.103846,1.929288,-0.912842,-0.032471,0.406738,0.184920,-0.016025,-0.004613,0.999947,0.003528,0.000519,0.009646,-0.174763,-0.584372,0.498506,-0.616002
05284,NaN,1.185380,8.799229,0.418900,-7.076757,-4.657116,-12.502696,0.324406,-0.110452,1.560539,-0.913330,-0.017578,0.415039,0.011164,0.088074,0.004338,0.999968,0.001622,-0.000552,0.007803,-0.168728,-0.581087,0.502147,-0.617832
05285,NaN,-0.374422,-4.369994,-5.025500,0.747246,6.176547,-7.407739,-0.756136,-0.423856,1.385359,-0.913574,-0.011230,0.410645,-0.003334,-0.043914,-0.050097,0.999967,-0.003781,-0.002119,0.006927,-0.165387,-0.582476,0.501518,-0.617938
05286,NaN,7.588701,-8.113439,-3.706003,2.294075,3.645426,1.077519,-0.535677,-0.412008,1.315298,-0.907471,0.001709,0.412598,0.076495,-0.080731,-0.036686,0.999973,-0.002678,-0.002060,0.006576,-0.161846,-0.579992,0.507331,-0.616466
05287,NaN,9.878494,-0.432403,-2.123322,-3.555241,-1.970372,-0.552176,-0.263372,-0.444466,1.013500,-0.903564,0.008057,0.418945,0.098852,-0.003851,-0.021008,0.999984,-0.001317,-0.002222,0.005067,-0.161650,-0.577227,0.515827,-0.612047
05288,NaN,10.780303,-1.045237,-2.913206,-3.802259,-1.514648,0.629625,-0.154918,-0.477790,0.904219,-0.903809,0.014648,0.423096,0.107918,-0.009987,-0.028866,0.999987,-0.000775,-0.002389,0.004521,-0.158095,-0.576224,0.519290,-0.610991
05289,NaN,12.050089,-2.906803,-3.493793,-3.016329,-0.868051,2.677617,0.392834,-0.252574,0.857883,-0.901855,0.025146,0.425049,0.120668,-0.028482,-0.034842,0.999988,0.001964,-0.001263,0.004289,-0.155832,-0.575880,0.521240,-0.610236
05290,NaN,11.008682,-1.218862,-1.716996,-3.180097,-2.635141,0.606860,1.163449,-0.025997,0.721595,-0.902100,0.031738,0.429443,0.110132,-0.011691,-0.017225,0.999977,0.005817,-0.000130,0.003608,-0.150209,-0.574972,0.519776,-0.613741
05291,NaN,9.846923,-1.331367,-1.948392,-2.898305,-1.932887,-0.305117,1.182268,-0.028306,0.566785,-0.895996,0.042480,0.422852,0.098509,-0.012919,-0.019547,0.999979,0.005911,-0.000142,0.002834,-0.146389,-0.576712,0.515704,-0.616460
05292,NaN,9.630599,-0.188550,-1.113640,-3.307013,-3.029574,-1.215636,0.883776,-0.117725,0.442443,-0.900879,0.055176,0.426758,0.096316,-0.001623,-0.011087,0.999988,0.004419,-0.000589,0.002212,-0.142172,-0.576574,0.514336,-0.618715
05293,NaN,10.085707,-0.032994,-0.728808,-3.283498,-3.604756,-0.953910,0.455826,-0.236414,0.355675,-0.898682,0.057373,0.422607,0.100866,-0.000134,-0.007169,0.999995,0.002279,-0.001182,0.001778,-0.139686,-0.580428,0.509279,-0.619859
05294,NaN,10.633957,-0.304245,-1.476897,-3.680076,-3.159434,-0.229907,0.250011,-0.280917,0.306314,-0.894531,0.061768,0.426758,0.106365,-0.002861,-0.014623,0.999997,0.001250,-0.001405,0.001532,-0.137296,-0.580692,0.509588,-0.619892
05295,NaN,10.150888,-0.972367,-2.264147,-3.405956,-2.036666,-0.150197,0.260349,-0.265323,0.224464,-0.894775,0.063721,0.433105,0.101550,-0.009580,-0.022519,0.999998,0.001302,-0.001327,0.001122,-0.134912,-0.586293,0.501908,-0.621408
05296,NaN,9.872459,-1.137543,-2.061546,-3.091936,-2.035101,-0.362415,0.322428,-0.257136,0.164921,-0.896973,0.065918,0.433105,0.098760,-0.011261,-0.020507,0.999998,0.001612,-0.001286,0.000825,-0.132808,-0.586894,0.501562,-0.621573
05297,NaN,9.903164,-0.314666,-2.100802,-3.647432,-2.398420,-0.673279,0.361103,-0.238873,0.119305,-0.892578,0.065918,0.433105,0.099058,-0.003050,-0.020895,0.999997,0.001806,-0.001194,0.000597,-0.130433,-0.593012,0.492916,-0.623184
05298,NaN,9.881666,-0.414782,-2.993728,-4.115561,-1.681818,-0.484485,0.354342,-0.197608,0.083138,-0.895020,0.072266,0.435303,0.098848,-0.004054,-0.029847,0.999998,0.001772,-0.000988,0.000416,-0.128636,-0.593652,0.492186,-0.623524
05299,NaN,9.939393,-1.303173,-3.361007,-3.613634,-0.979796,0.075072,0.487498,-0.105325,0.038824,-0.895264,0.076660,0.430908,0.099414,-0.012931,-0.033589,0.999997,0.002437,-0.000527,0.000194,-0.126582,-0.599759,0.482724,-0.625495
05300,NaN,9.789901,-1.061805,-3.373921,-3.778983,-1.038869,-0.169403,0.674983,-0.011547,-0.016203,-0.886719,0.083008,0.432861,0.097900,-0.010512,-0.033769,0.999994,0.003375,-0.000058,-0.000081,-0.124580,-0.600258,0.480569,-0.627076
05301,NaN,9.536268,-0.127405,-3.057233,-4.124836,-1.632451,-0.833594,0.764359,0.052502,-0.058845,-0.888916,0.080811,0.437256,0.095354,-0.001185,-0.030602,0.999993,0.003822,0.000263,-0.000294,-0.122668,-0.605945,0.470754,-0.629423
05302,NaN,9.483184,0.675846,-2.312627,-4.224760,-2.588006,-1.375306,0.647805,0.083592,-0.071833,-0.886719,0.080811,0.435059,0.094825,0.006799,-0.023144,0.999995,0.003239,0.000418,-0.000359,-0.121128,-0.606245,0.468444,-0.631154
05303,NaN,9.482837,0.735501,-1.786678,-3.818201,-2.994260,-1.439329,0.469110,0.074231,-0.052057,-0.895508,0.085205,0.430664,0.094824,0.007372,-0.017885,0.999997,0.002346,0.000371,-0.000260,-0.119983,-0.611881,0.459295,-0.632656
05304,NaN,9.531969,0.537745,-1.980054,-3.822072,-2.762934,-1.278862,0.288646,0.083245,-0.017191,-0.895508,0.083008,0.430664,0.095312,0.005398,-0.019832,0.999999,0.001443,0.000416,-0.000086,-0.119346,-0.611830,0.458279,-0.633562
05305,NaN,9.426072,0.992617,-1.568971,-3.732690,-3.249485,-1.578268,0.042464,0.070822,-0.012386,-0.895264,0.078857,0.430908,0.094256,0.009924,-0.015721,1.000000,0.000212,0.000354,-0.000062,-0.119240,-0.617367,0.449912,-0.634208
05306,NaN,9.344215,1.053762,-1.873510,-3.969545,-3.030023,-1.627550,-0.017156,0.034692,0.067819,-0.895264,0.083008,0.426514,0.093435,0.010568,-0.018752,1.000000,-0.000086,0.000173,0.000339,-0.119156,-0.617094,0.450155,-0.634317
05307,NaN,9.442790,1.426790,-1.977152,-4.207507,-3.201900,-1.617820,-0.096808,0.009510,0.171455,-0.897705,0.087402,0.432861,0.094415,0.014339,-0.019783,1.000000,-0.000484,0.000048,0.000857,-0.118586,-0.622556,0.442210,-0.634674
05308,NaN,9.629040,1.481037,-1.924288,-4.260869,-3.355279,-1.493926,-0.083506,-0.009740,0.304660,-0.891357,0.089600,0.432861,0.096269,0.014949,-0.019244,0.999999,-0.000418,-0.000049,0.001523,-0.117858,-0.621863,0.443428,-0.634639
05309,NaN,9.763094,1.297258,-1.968438,-4.073824,-3.281915,-1.238978,-0.103595,-0.004617,0.432096,-0.895752,0.091553,0.437012,0.097603,0.013173,-0.019689,0.999998,-0.000518,-0.000023,0.002160,-0.115890,-0.627267,0.435554,-0.635136
05310,NaN,9.563399,1.089821,-2.313123,-4.165044,-2.863592,-1.300999,-0.067678,-0.001634,0.593060,-0.887207,0.095947,0.432617,0.095601,0.011174,-0.023134,0.999996,-0.000338,-0.000008,0.002965,-0.114215,-0.625939,0.437628,-0.635325
05311,NaN,9.538640,1.107386,-2.426563,-4.161671,-2.813603,-1.276655,0.034929,0.022687,0.757370,-0.889648,0.104492,0.432617,0.095341,0.011439,-0.024274,0.999993,0.000175,0.000113,0.003787,-0.110891,-0.630795,0.430168,-0.636204
05312,NaN,9.465196,1.436342,-2.054699,-4.166405,-3.282708,-1.582319,0.159247,0.050445,0.942819,-0.890137,0.117432,0.430176,0.094578,0.014826,-0.020559,0.999989,0.000796,0.000252,0.004714,-0.107498,-0.628688,0.432602,-0.637221
05313,NaN,9.286084,1.755847,-1.843725,-4.123004,-3.598800,-1.890433,0.215869,0.078339,1.130000,-0.883789,0.123779,0.426025,0.092752,0.018103,-0.018454,0.999983,0.001079,0.000392,0.005650,-0.102592,-0.632794,0.425710,-0.638605
05314,NaN,9.237983,1.339457,-2.019419,-4.040232,-3.264682,-1.798352,0.192834,0.092546,1.309127,-0.882324,0.140869,0.427734,0.092280,0.014018,-0.020224,0.999978,0.000964,0.000463,0.006546,-0.097997,-0.629798,0.429179,-0.639966
05315,NaN,9.172799,0.744152,-2.147154,-3.676042,-2.844736,-1.584878,0.167394,0.099975,1.473692,-0.880615,0.153809,0.423340,0.091659,0.008135,-0.021511,0.999972,0.000837,0.000500,0.007368,-0.092159,-0.633264,0.423399,-0.641262
05316,NaN,9.304576,0.083410,-1.998332,-3.258874,-2.667995,-1.278347,0.216255,0.097432,1.614874,-0.879150,0.170898,0.427490,0.093025,0.001607,-0.020027,0.999967,0.001081,0.000487,0.008074,-0.086500,-0.629612,0.427760,-0.642750
05317,NaN,9.573756,-0.392030,-1.576503,-2.661757,-2.824951,-0.911673,0.356482,0.090427,1.742574,-0.881836,0.187988,0.429199,0.095760,-0.003058,-0.015814,0.999960,0.001782,0.000452,0.008713,-0.079245,-0.632585,0.422565,-0.644201
05318,NaN,9.687600,-0.366977,-1.630381,-2.862694,-2.965877,-0.888117,0.505360,0.070021,1.877119,-0.869385,0.205322,0.418457,0.096899,-0.002719,-0.016345,0.999953,0.002527,0.000350,0.009385,-0.071745,-0.628564,0.426827,-0.646203
05319,NaN,9.617404,0.803289,-2.347391,-4.105628,-3.322282,-1.401234,0.577567,0.007670,2.039580,-0.863770,0.226562,0.417969,0.096084,0.009081,-0.023452,0.999944,0.002888,0.000038,0.010198,-0.062623,-0.631187,0.422156,-0.647662
05320,NaN,9.586423,4.048334,-1.935968,-5.886771,-5.752240,-3.157662,0.398816,-0.136625,2.224659,-0.855957,0.248047,0.419922,0.095419,0.041585,-0.019212,0.999936,0.001994,-0.000683,0.011123,-0.053868,-0.627019,0.427900,-0.648727
05321,NaN,10.997238,1.500011,-3.467593,-5.751585,-4.014113,-0.538317,0.128708,-0.174438,2.319044,-0.850098,0.265137,0.419678,0.109819,0.016296,-0.034570,0.999932,0.000644,-0.000872,0.011595,-0.044758,-0.629888,0.425205,-0.648413
05322,NaN,11.913093,-0.616738,-2.754633,-4.269728,-3.728434,1.038637,-0.018865,-0.206271,2.441640,-0.837891,0.288818,0.421631,0.119223,-0.004715,-0.027423,0.999925,-0.000094,-0.001031,0.012208,-0.036461,-0.625315,0.432969,-0.648220
05323,NaN,11.756637,-1.222273,-3.707017,-4.609743,-2.884589,1.317282,0.110896,-0.174607,2.518401,-0.834473,0.308105,0.427734,0.117740,-0.010720,-0.036974,0.999920,0.000554,-0.000873,0.012592,-0.026848,-0.627939,0.430980,-0.647478
05324,NaN,11.525554,-0.936399,-4.714490,-5.691573,-2.569416,1.001081,0.257347,-0.146716,2.591992,-0.822510,0.335938,0.420898,0.115398,-0.007808,-0.047071,0.999915,0.001287,-0.000734,0.012960,-0.017332,-0.622811,0.438267,-0.647864
05325,NaN,11.179585,-0.875908,-6.016101,-6.704948,-1.896624,0.835391,0.435318,-0.118446,2.644943,-0.808105,0.361572,0.416260,0.111933,-0.007148,-0.060111,0.999910,0.002177,-0.000592,0.013224,-0.006665,-0.624964,0.436131,-0.647430
05326,NaN,11.164180,-1.181485,-6.109700,-6.791400,-1.871991,0.851562,0.622463,-0.112033,2.673748,-0.800537,0.385010,0.418213,0.111819,-0.010131,-0.061068,0.999906,0.003112,-0.000560,0.013368,0.004179,-0.619459,0.442432,-0.648465
05327,NaN,12.194911,-2.843154,-5.267792,-5.484932,-2.138917,2.429744,0.893135,-0.051161,2.708715,-0.783936,0.408691,0.415771,0.122331,-0.026541,-0.052768,0.999898,0.004466,-0.000256,0.013543,0.015938,-0.621145,0.439774,-0.648478
05328,NaN,13.593263,-0.431284,-3.719759,-6.033180,-5.521090,1.672232,1.164617,0.050057,2.731424,-0.770020,0.436523,0.404785,0.135963,-0.002239,-0.037249,0.999890,0.005823,0.000250,0.013657,0.028298,-0.614816,0.444435,-0.650905
05329,NaN,13.872301,0.638900,-4.686876,-7.434634,-6.083533,1.256002,1.175609,0.076618,2.824584,-0.755859,0.464355,0.400146,0.138594,0.008623,-0.046876,0.999883,0.005878,0.000383,0.014122,0.041038,-0.615911,0.441268,-0.651347
05330,NaN,14.668484,-2.419825,-5.216815,-6.824836,-4.712500,3.582385,1.225703,0.080038,2.953585,-0.735352,0.492188,0.397705,0.146997,-0.021708,-0.052365,0.999872,0.006128,0.000400,0.014767,0.054248,-0.608804,0.446331,-0.653608
05331,NaN,17.258799,-3.688517,-3.449172,-5.392461,-6.752937,5.956235,1.485241,0.098481,3.000711,-0.721191,0.520020,0.384521,0.173096,-0.034033,-0.034837,0.999860,0.007426,0.000492,0.015003,0.068580,-0.609722,0.442340,-0.654119
05332,NaN,21.276502,-0.853167,-2.680156,-7.354108,-11.751434,6.569621,1.926981,0.166608,3.065763,-0.698486,0.547852,0.366943,0.212837,-0.005010,-0.027038,0.999836,0.009634,0.000833,0.015328,0.084100,-0.601638,0.445367,-0.657729
05333,NaN,23.221462,4.705863,-1.267214,-8.770359,-17.401882,3.722045,2.106852,0.267500,3.268287,-0.680176,0.584229,0.362305,0.231386,0.050976,-0.012459,0.999810,0.010534,0.001337,0.016340,0.101446,-0.601915,0.438933,-0.659352
05334,NaN,22.485093,5.371420,-0.718622,-8.593828,-17.930540,1.999811,1.910631,0.281056,3.440313,-0.651367,0.620850,0.344727,0.223872,0.057638,-0.006963,0.999805,0.009553,0.001405,0.017200,0.117899,-0.592354,0.443044,-0.662517
05335,NaN,21.462423,1.875193,0.520621,-5.537147,-16.098827,3.398867,1.763372,0.263109,3.474985,-0.626709,0.652832,0.329346,0.214263,0.022432,0.005111,0.999809,0.008816,0.001315,0.017374,0.136213,-0.594275,0.435341,-0.662391
05336,NaN,21.072912,1.128484,2.198974,-3.925165,-16.448936,2.999987,1.768466,0.350145,3.355836,-0.601562,0.678467,0.320557,0.210541,0.014626,0.021740,0.999819,0.008842,0.001751,0.016778,0.151792,-0.584501,0.439613,-0.664874
05337,NaN,18.784053,3.122277,3.765298,-2.033565,-16.782539,-0.275703,1.630690,0.472066,3.124264,-0.576416,0.697754,0.309570,0.187414,0.033847,0.037479,0.999842,0.008153,0.002360,0.015620,0.169197,-0.587758,0.429504,-0.664409
05338,NaN,14.432769,6.555205,5.262624,-0.619938,-16.288830,-6.172692,1.142508,0.501466,2.691228,-0.555664,0.719238,0.292236,0.143563,0.067187,0.052646,0.999890,0.005712,0.002507,0.013456,0.180396,-0.579283,0.433993,-0.665986
05339,NaN,9.074581,7.974377,5.092715,0.703278,-13.065431,-10.631172,0.188365,0.318640,2.061340,-0.538574,0.723389,0.296631,0.089999,0.080626,0.050859,0.999945,0.000942,0.001593,0.010307,0.191390,-0.587408,0.423866,-0.662314
05340,NaN,2.911539,3.747130,3.390038,1.570863,-5.448981,-11.173131,-0.407166,0.260533,1.628589,-0.517578,0.738525,0.298584,0.028853,0.037776,0.033786,0.999964,-0.002036,0.001303,0.008143,0.195026,-0.583464,0.430230,-0.660633
05341,NaN,-3.217877,2.982925,0.307952,0.284872,0.647427,-14.153973,-0.016404,0.360176,1.433637,-0.506836,0.740479,0.294434,-0.032386,0.029598,0.003135,0.999973,-0.000082,0.001801,0.007168,0.203311,-0.592546,0.419154,-0.657163
05342,NaN,-8.500753,4.859022,-2.013597,-1.168567,4.407502,-18.708471,0.239766,0.216768,1.022099,-0.503174,0.753418,0.287842,-0.085276,0.048179,-0.019986,0.999986,0.001199,0.001084,0.005110,0.206919,-0.589442,0.421607,-0.657259
05343,NaN,-13.711224,8.461864,-3.360245,-2.418580,6.557416,-24.713780,0.588165,0.025439,0.216881,-0.494141,0.747070,0.287842,-0.137208,0.084568,-0.033336,0.999995,0.002941,0.000127,0.001084,0.212784,-0.599781,0.407010,-0.655231
05344,NaN,-13.292396,6.654573,-6.879295,-5.484487,8.191831,-22.893510,0.802527,-0.336047,-0.694437,-0.502930,0.751221,0.283447,-0.132576,0.067282,-0.068747,0.999985,0.004013,-0.001680,-0.003472,0.213593,-0.601435,0.401933,-0.656585
05345,NaN,-9.853157,12.395954,-4.401970,-5.099241,0.971476,-25.406473,1.195909,-0.404487,-1.721817,-0.511230,0.740723,0.270752,-0.097370,0.125062,-0.043472,0.999943,0.005979,-0.002022,-0.008609,0.214660,-0.614350,0.381778,-0.656308
05346,NaN,-8.770644,14.654510,-0.536079,-1.914791,-2.566990,-26.596295,1.115709,-0.385652,-2.803663,-0.532471,0.732178,0.262207,-0.085631,0.147783,-0.004705,0.999884,0.005578,-0.001928,-0.014018,0.209595,-0.619701,0.369044,-0.660187
05347,NaN,-7.309394,13.384217,0.389347,-1.045176,-3.749649,-24.561847,1.187381,-0.455127,-3.602392,-0.551025,0.710693,0.260254,-0.070678,0.135104,0.004530,0.999818,0.005937,-0.002275,-0.018011,0.204254,-0.634807,0.343577,-0.661253
05348,NaN,-6.548229,10.398037,0.050155,-0.936754,-2.723027,-21.757745,1.540255,-0.481521,-4.264699,-0.582520,0.689453,0.247559,-0.063248,0.105338,0.001155,0.999740,0.007701,-0.002407,-0.021322,0.195813,-0.641989,0.324366,-0.666554
05349,NaN,-4.700281,9.744788,1.343973,0.303544,-4.351258,-19.803212,1.740520,-0.532736,-4.889408,-0.616211,0.672363,0.234863,-0.044641,0.098437,0.014173,0.999660,0.008702,-0.002663,-0.024444,0.188076,-0.657007,0.292579,-0.668854
05350,NaN,-2.303233,8.272227,1.871410,0.940382,-5.250356,-16.796214,1.553105,-0.687684,-5.255111,-0.647217,0.638184,0.215820,-0.020917,0.083142,0.019284,0.999619,0.007765,-0.003438,-0.026272,0.176535,-0.665285,0.269364,-0.673553
05351,NaN,0.224702,6.978661,3.391996,2.644011,-6.174367,-13.702723,1.316741,-0.744713,-5.529955,-0.678711,0.610352,0.211914,0.004043,0.069466,0.034391,0.999589,0.006583,-0.003723,-0.027646,0.165597,-0.679963,0.236003,-0.674189
05352,NaN,3.666643,2.557263,4.066425,3.756403,-4.434966,-8.159292,0.879941,-0.713249,-5.772569,-0.715820,0.569824,0.208008,0.037235,0.024324,0.040905,0.999567,0.004399,-0.003566,-0.028859,0.149897,-0.688157,0.212718,-0.677290
05353,NaN,7.163710,-2.840989,4.977052,5.270753,-1.081846,-2.383712,0.173465,-0.580856,-6.107638,-0.739990,0.522705,0.208496,0.070580,-0.030620,0.049951,0.999529,0.000867,-0.002904,-0.030533,0.132901,-0.701139,0.180690,-0.676826
05354,NaN,9.561897,-4.802026,4.531171,5.098365,0.238210,0.624467,-0.385744,-0.485586,-6.211408,-0.779297,0.477783,0.213379,0.093958,-0.050868,0.045637,0.999513,-0.001928,-0.002428,-0.031052,0.110901,-0.708309,0.159809,-0.678572
05355,NaN,12.024121,-6.988569,2.595224,3.566838,2.363791,3.670114,-0.794415,-0.413313,-6.090227,-0.807861,0.428467,0.211670,0.117987,-0.073397,0.026485,0.999526,-0.003971,-0.002066,-0.030446,0.090085,-0.718302,0.131477,-0.677230
05356,NaN,13.457315,-12.770620,-0.789615,0.817704,8.468716,6.689385,-1.044537,-0.411123,-5.955308,-0.836182,0.379150,0.214600,0.130706,-0.131675,-0.006944,0.999541,-0.005222,-0.002055,-0.029772,0.066395,-0.723751,0.113379,-0.677438
05357,NaN,13.578594,-16.151637,-2.439292,-0.467075,12.903593,7.050023,-0.805368,-0.407832,-5.872078,-0.862549,0.330078,0.215088,0.131014,-0.165506,-0.023461,0.999559,-0.004026,-0.002039,-0.029356,0.045737,-0.730959,0.087056,-0.675299
05358,NaN,14.687853,-15.932421,-1.541134,0.705905,13.408848,7.261391,-1.214093,-0.488417,-5.611114,-0.879883,0.274414,0.211426,0.142366,-0.163449,-0.014076,0.999585,-0.006070,-0.002442,-0.028052,0.022545,-0.735025,0.070498,-0.673988
05359,NaN,19.463674,-17.989895,-1.116422,2.019048,15.924427,11.302875,-2.291212,-0.747070,-5.186488,-0.891113,0.225098,0.218750,0.189918,-0.184972,-0.008349,0.999591,-0.011454,-0.003735,-0.025929,-0.001822,-0.741153,0.053823,-0.669173
05360,NaN,25.034247,-21.716877,-2.572077,2.133980,20.448420,16.302360,-2.887089,-0.924755,-4.582606,-0.904297,0.173584,0.229980,0.245380,-0.223159,-0.021386,0.999623,-0.014434,-0.004623,-0.022910,-0.027607,-0.745175,0.046486,-0.664674
05361,NaN,24.587415,-20.975437,-4.139501,1.276258,21.029211,15.038841,-2.548533,-0.844700,-3.885663,-0.909424,0.132812,0.232666,0.241895,-0.214976,-0.037650,0.999721,-0.012741,-0.004223,-0.019427,-0.049238,-0.749664,0.038147,-0.658881
05362,NaN,22.681026,-20.197510,-4.639554,1.084242,21.149003,12.443364,-1.793208,-0.661566,-3.163184,-0.912842,0.102783,0.239746,0.223722,-0.205930,-0.043817,0.999829,-0.008966,-0.003308,-0.015815,-0.066251,-0.751878,0.032350,-0.655167
05363,NaN,20.352997,-22.847382,-5.368740,-3.268080,24.159836,9.439161,-0.992352,-0.511499,-2.472463,-0.922607,0.074951,0.244385,0.200817,-0.231229,-0.052029,0.999908,-0.004962,-0.002557,-0.012362,-0.021865,-0.754213,-0.038045,-0.655162
05364,NaN,16.420916,-20.274109,-3.665349,-1.917882,21.682127,5.030127,-0.119601,-0.416069,-1.815730,-0.924316,0.062256,0.238037,0.162435,-0.204243,-0.036192,0.999956,-0.000598,-0.002080,-0.009079,-0.028348,-0.755185,-0.044457,-0.653387
05365,NaN,14.622062,-18.177248,-3.589969,-1.874690,19.584166,3.227488,0.241719,-0.492161,-1.098841,-0.930176,0.049316,0.233887,0.145307,-0.182529,-0.035762,0.999981,0.001209,-0.002461,-0.005494,-0.031665,-0.757876,-0.046520,-0.649967
05366,NaN,14.542962,-17.677247,-1.684472,-0.038077,19.184623,2.787631,0.926326,-0.540727,-0.387964,-0.938477,0.040771,0.238281,0.145133,-0.176975,-0.017271,0.999984,0.004632,-0.002704,-0.001940,-0.029548,-0.759678,-0.050918,-0.647629
05367,NaN,13.948174,-15.633417,0.439114,2.127025,17.055108,2.176716,1.178728,-0.515210,0.309359,-0.945068,0.045166,0.231689,0.139713,-0.156142,0.003830,0.999978,0.005894,-0.002576,0.001547,-0.024933,-0.762922,-0.048834,-0.644161
05368,NaN,13.799605,-15.887085,-5.892941,-4.266895,16.999486,3.239306,1.610156,-0.498519,1.134898,-0.945312,0.053711,0.233887,0.139041,-0.157604,-0.059856,0.999948,0.008051,-0.002493,0.005674,-0.015263,-0.764967,-0.049631,-0.641973
05369,NaN,14.364909,4.472962,-22.999761,-19.722026,-4.092917,8.885124,0.638536,-1.778016,1.687443,-0.949707,0.053711,0.242432,0.145297,0.046682,-0.228564,0.999920,0.003193,-0.008890,0.008437,-0.008607,-0.772332,-0.039119,-0.633955
05370,NaN,23.948000,10.683986,9.283796,14.173085,-8.892931,12.410080,-1.324875,0.024853,1.831373,-0.954346,0.064453,0.233643,0.238496,0.109638,0.092088,0.999936,-0.006624,0.000124,0.009157,-0.007919,-0.772506,-0.027850,-0.634347
05371,NaN,13.676078,11.978937,-6.053006,-3.126892,-11.541887,5.159070,-2.366453,0.403424,2.606766,-0.963379,0.077148,0.231201,0.135066,0.120828,-0.062229,0.999843,-0.011832,0.002017,0.013033,-0.009212,-0.772481,-0.005703,-0.634946
05372,NaN,17.227380,8.330040,-11.989588,-8.494098,-8.061784,9.494496,-0.312529,0.121927,2.188329,-0.961670,0.090088,0.230957,0.171277,0.084991,-0.120132,0.999939,-0.001563,0.000610,0.010941,-0.003474,-0.772096,0.003732,-0.635486
05373,NaN,17.691164,4.095662,0.973561,4.347688,-4.428561,7.280248,0.619636,0.135766,2.489812,-0.968750,0.105225,0.224365,0.176390,0.043125,0.009747,0.999917,0.003098,0.000679,0.012449,0.006675,-0.772718,0.014381,-0.634551
05374,NaN,19.832703,6.264881,14.558462,18.003276,-7.176499,6.585497,0.786868,0.598174,2.515762,-0.969238,0.124512,0.213379,0.197958,0.064569,0.145244,0.999909,0.003934,0.002991,0.012578,0.017647,-0.770545,0.021619,-0.636775
05375,NaN,25.400578,27.608735,9.297327,13.422925,-29.349563,11.453510,0.218021,0.830720,2.188289,-0.961426,0.145996,0.208740,0.251350,0.278746,0.092228,0.999931,0.001090,0.004154,0.010941,0.025243,-0.768243,0.031831,-0.638868
05376,NaN,40.159778,26.022506,-0.423662,6.147466,-29.734399,27.174578,-1.761870,-0.047223,2.894262,-0.956299,0.184326,0.218994,0.397778,0.265950,-0.006469,0.999856,-0.008809,-0.000236,0.014471,0.027718,-0.768047,0.048562,-0.637947
05377,NaN,23.254762,8.810822,10.466688,14.084677,-11.955960,9.848438,-2.069944,-0.342955,3.124698,-0.948730,0.212158,0.229248,0.230943,0.092804,0.104119,0.999823,-0.010349,-0.001715,0.015623,0.029918,-0.768937,0.066917,-0.635108
05378,NaN,7.378623,-13.047861,0.387001,2.760781,11.704188,-0.856892,-1.878262,-0.732919,2.994258,-0.939209,0.242188,0.243896,0.075710,-0.129309,0.005363,0.999837,-0.009391,-0.003664,0.014970,0.032439,-0.770421,0.084268,-0.631108
05379,NaN,-2.073932,-16.611602,-3.370165,-2.100535,16.881837,-8.336931,-0.905388,-0.788715,2.473220,-0.916260,0.265625,0.245850,-0.018551,-0.166505,-0.033024,0.999906,-0.004527,-0.003943,0.012366,0.037100,-0.772031,0.096519,-0.627117
05380,NaN,-1.222301,-6.864710,-6.174679,-5.526174,7.357772,-8.375110,-0.452505,-0.623581,2.013871,-0.916748,0.280762,0.258301,-0.011338,-0.068904,-0.061627,0.999942,-0.002262,-0.003118,0.010069,0.041961,-0.773056,0.105587,-0.624080
05381,NaN,4.784778,-3.525695,-8.960512,-7.349460,2.978712,-2.551334,-0.526077,-0.398655,1.568647,-0.910645,0.291504,0.258301,0.048302,-0.035115,-0.089417,0.999964,-0.002630,-0.001993,0.007843,0.045033,-0.773653,0.114045,-0.621632
05382,NaN,12.343758,-4.408779,-7.975368,-4.732894,1.908549,4.656849,-0.182191,-0.077395,1.216827,-0.906982,0.308594,0.260254,0.123734,-0.043408,-0.079666,0.999981,-0.000911,-0.000387,0.006084,0.048148,-0.773229,0.119295,-0.620941
05383,NaN,13.258243,-4.142564,-4.648457,-1.337944,1.032189,4.736993,-0.067094,0.143842,0.923679,-0.909180,0.310791,0.258057,0.132738,-0.040828,-0.046566,0.999989,-0.000335,0.000719,0.004618,0.050752,-0.772511,0.123886,-0.620728
05384,NaN,10.978140,-3.746588,-2.207236,0.504291,0.946456,1.946466,-0.141530,0.248988,0.733008,-0.909424,0.317139,0.249268,0.109890,-0.037079,-0.022183,0.999992,-0.000708,0.001245,0.003665,0.052320,-0.771317,0.127216,-0.621409
05385,NaN,9.461438,-2.403724,-2.248473,-0.016912,-0.017708,0.204876,-0.611579,0.253351,0.579162,-0.909912,0.327881,0.261963,0.094655,-0.023832,-0.022532,0.999990,-0.003058,0.001267,0.002896,0.051706,-0.770578,0.132158,-0.621346
05386,NaN,9.934875,-2.355725,-1.836041,0.457488,-0.261736,0.548024,-0.798772,0.246393,0.469005,-0.903320,0.325684,0.261963,0.099381,-0.023398,-0.018389,0.999989,-0.003994,0.001232,0.002345,0.049917,-0.769703,0.136506,-0.621636
05387,NaN,10.794797,-2.451775,0.267716,2.678377,-0.651193,0.911704,-0.799699,0.227861,0.388897,-0.905518,0.327881,0.266357,0.107998,-0.024297,0.002652,0.999989,-0.003998,0.001139,0.001944,0.048017,-0.769169,0.141192,-0.621400
05388,NaN,10.452613,-2.972614,0.352984,2.778580,-0.105161,0.698569,-0.987071,0.159298,0.244114,-0.901367,0.327881,0.266357,0.104565,-0.029581,0.003593,0.999987,-0.004935,0.000796,0.001221,0.044861,-0.768732,0.145231,-0.621246
05389,NaN,9.465441,-3.035157,-0.357864,1.936497,0.274055,-0.060270,-0.878981,0.108494,0.176890,-0.905518,0.323486,0.268555,0.094679,-0.030283,-0.003497,0.999990,-0.004395,0.000542,0.000884,0.042062,-0.768610,0.149280,-0.620633
05390,NaN,9.346411,-2.764657,-0.886880,1.368156,0.099051,-0.122300,-0.710103,0.071034,0.188539,-0.905518,0.327881,0.277100,0.093487,-0.027590,-0.008804,0.999993,-0.003551,0.000355,0.000943,0.039860,-0.768396,0.152219,-0.620329
05391,NaN,9.660771,-2.255299,-1.228715,1.015488,-0.456636,0.121439,-0.500363,0.038598,0.228400,-0.901123,0.323486,0.274902,0.096631,-0.022473,-0.012250,0.999996,-0.002502,0.000193,0.001142,0.038721,-0.768296,0.155256,-0.619772
05392,NaN,10.015507,-1.533829,-1.292134,0.884751,-1.255934,0.285452,-0.314531,0.003709,0.293283,-0.899170,0.329834,0.277100,0.100177,-0.015212,-0.012899,0.999998,-0.001573,0.000019,0.001466,0.038414,-0.768119,0.157355,-0.619481
05393,NaN,10.221375,-0.806220,-1.309328,0.765424,-2.042812,0.290865,-0.183949,-0.001741,0.385749,-0.903564,0.334229,0.276855,0.102229,-0.007877,-0.013085,0.999998,-0.000920,-0.000009,0.001929,0.039006,-0.767926,0.159920,-0.619026
05394,NaN,9.877391,-0.333061,-1.348739,0.564328,-2.425660,-0.153993,-0.111027,-0.001075,0.520687,-0.893066,0.338379,0.279053,0.098782,-0.003081,-0.013485,0.999996,-0.000555,-0.000005,0.002603,0.040187,-0.767536,0.162259,-0.618826
05395,NaN,9.185606,-0.039768,-1.680950,0.052429,-2.509312,-0.818089,-0.060623,-0.012360,0.699451,-0.895264,0.342773,0.279053,0.091858,-0.000082,-0.016804,0.999994,-0.000303,-0.000062,0.003497,0.042222,-0.767081,0.165489,-0.618400
05396,NaN,8.934062,-0.047800,-2.610312,-0.898152,-2.361760,-0.854541,-0.036003,-0.030863,0.886033,-0.893799,0.359863,0.270264,0.089346,-0.000087,-0.026089,0.999990,-0.000180,-0.000154,0.004430,0.044844,-0.766446,0.168988,-0.618055
05397,NaN,9.211543,0.337276,-2.463609,-0.798360,-2.919786,-0.764359,0.097214,-0.030025,1.085114,-0.887695,0.366455,0.278809,0.092099,0.003884,-0.024620,0.999985,0.000486,-0.000150,0.005426,0.048686,-0.765684,0.173029,-0.617591
05398,NaN,9.199533,0.637173,-2.223967,-0.650935,-3.334019,-0.955896,0.199072,-0.046999,1.289811,-0.881592,0.381348,0.278564,0.091957,0.006987,-0.022211,0.999979,0.000995,-0.000235,0.006449,0.053466,-0.764652,0.177334,-0.617253
05399,NaN,9.400936,0.318547,-2.284611,-0.626149,-3.223615,-0.707032,0.288036,-0.081691,1.492897,-0.875977,0.400635,0.278320,0.093991,0.003920,-0.022802,0.999971,0.001440,-0.000408,0.007464,0.059329,-0.763618,0.182130,-0.616601
05400,NaN,9.353364,-0.320009,-1.908185,-0.163066,-2.812343,-0.686306,0.421877,-0.128222,1.680921,-0.867920,0.417725,0.284424,0.093568,-0.002374,-0.019027,0.999962,0.002109,-0.000641,0.008404,0.066232,-0.762332,0.187199,-0.615970
05401,NaN,9.483091,-1.697538,-1.898107,0.131804,-1.762272,-0.154140,0.541677,-0.192496,1.837965,-0.857666,0.432617,0.280029,0.094999,-0.016052,-0.018934,0.999954,0.002708,-0.000962,0.009190,0.074202,-0.761156,0.192321,-0.614938
05402,NaN,9.754396,-1.357523,-2.102879,-0.110561,-2.345134,-0.019951,0.652230,-0.236339,1.973274,-0.843262,0.449707,0.281982,0.097696,-0.012543,-0.020955,0.999945,0.003261,-0.001182,0.009866,0.082969,-0.759705,0.197724,-0.613897
05403,NaN,10.124233,0.877297,-2.201127,-0.598979,-4.713579,-0.564244,0.600792,-0.287640,2.107777,-0.839844,0.475586,0.279541,0.101173,0.009905,-0.021837,0.999939,0.003004,-0.001438,0.010539,0.092048,-0.758385,0.203535,-0.612335
05404,NaN,11.678097,-0.004310,-4.109682,-2.026986,-4.597047,1.501875,0.468840,-0.291273,2.229882,-0.821289,0.501221,0.281250,0.116831,0.001355,-0.040925,0.999934,0.002344,-0.001456,0.011149,0.100938,-0.756745,0.210404,-0.610638
05405,NaN,12.300961,-1.172378,-4.593933,-2.180216,-4.056289,2.539522,0.575341,-0.259503,2.344683,-0.813477,0.520508,0.287598,0.123194,-0.010148,-0.045810,0.999926,0.002877,-0.001297,0.011723,0.110560,-0.754975,0.216955,-0.608868
05406,NaN,12.006620,-1.902998,-4.940802,-2.460768,-3.552000,2.577237,0.836875,-0.211787,2.432079,-0.795166,0.550537,0.289307,0.120336,-0.017361,-0.049356,0.999917,0.004184,-0.001059,0.012160,0.121339,-0.752460,0.223450,-0.607579
05407,NaN,12.468501,-2.382492,-4.835489,-1.513303,-4.045016,3.065904,1.082887,-0.141170,2.497559,-0.782715,0.567627,0.289062,0.125002,-0.022003,-0.048389,0.999907,0.005414,-0.000706,0.012487,0.189046,-0.767771,0.158073,-0.591441
05408,NaN,13.587178,-2.278680,-4.849303,-1.251583,-5.029046,3.841894,1.302995,-0.095055,2.532670,-0.770996,0.597656,0.286621,0.136166,-0.020747,-0.048568,0.999898,0.006515,-0.000475,0.012663,0.201588,-0.764745,0.163833,-0.589649
05409,NaN,17.678104,-1.643417,-3.843015,1.971568,-7.656563,6.541283,1.481996,-0.012593,2.609478,-0.754395,0.616699,0.280029,0.176975,-0.013841,-0.038528,0.999887,0.007410,-0.000063,0.013047,0.260400,-0.772330,0.108341,-0.569175
05410,NaN,20.460739,1.504429,-1.637298,5.414548,-11.440961,6.415234,1.503677,0.128966,2.682165,-0.733887,0.648926,0.275146,0.204369,0.017909,-0.016377,0.999882,0.007518,0.000645,0.013410,0.273734,-0.768465,0.114570,-0.566926
05411,NaN,21.988715,3.125420,-3.636142,6.209435,-13.850509,6.802469,1.565561,0.151266,2.712220,-0.710938,0.668213,0.264404,0.219406,0.034516,-0.036266,0.999877,0.007827,0.000756,0.013561,0.323214,-0.770753,0.069785,-0.544613
05412,NaN,22.630382,2.354482,-4.143216,5.963138,-14.244184,7.402058,1.799440,0.222957,2.742203,-0.694580,0.693848,0.264160,0.225903,0.027017,-0.041451,0.999865,0.008997,0.001115,0.013710,0.337488,-0.766181,0.075799,-0.541594
05413,NaN,21.454426,0.957031,-1.369398,8.884466,-10.990723,6.414532,2.038151,0.325463,2.707660,-0.671387,0.710938,0.250977,0.214365,0.012614,-0.013925,0.999855,0.010190,0.001627,0.013538,0.379179,-0.764154,0.040777,-0.520221
05414,NaN,18.561083,2.274354,1.702542,10.662861,-9.326260,2.511821,2.182244,0.434686,2.531988,-0.650879,0.738770,0.238037,0.185341,0.024906,0.016886,0.999858,0.010911,0.002173,0.012659,0.393954,-0.758265,0.045588,-0.517452
05415,NaN,13.543377,3.277525,2.670844,10.082451,-6.535529,-2.267870,2.150322,0.461371,2.249451,-0.627441,0.747559,0.220703,0.135118,0.034009,0.026758,0.999876,0.010751,0.002307,0.011247,0.426085,-0.753742,0.019904,-0.499928
05416,NaN,9.208766,4.271935,0.933874,7.039125,-6.353739,-6.070921,1.893311,0.391087,1.927399,-0.606689,0.766602,0.209961,0.091689,0.043514,0.009569,0.999907,0.009466,0.001955,0.009637,0.437953,-0.748473,0.023261,-0.497438
05417,NaN,4.011677,5.488785,-0.930548,3.866973,-5.619204,-10.558179,1.505032,0.243041,1.537795,-0.591553,0.770996,0.203369,0.039682,0.055262,-0.008939,0.999941,0.007525,0.001215,0.007689,0.460613,-0.744898,0.002989,-0.482654
05418,NaN,0.405013,6.161629,-1.278792,2.006796,-4.580766,-13.653781,0.607146,-0.008310,0.892543,-0.584961,0.766602,0.214355,0.003776,0.061672,-0.012601,0.999985,0.003036,-0.000042,0.004463,0.465015,-0.743499,0.004823,-0.480570
05419,NaN,-2.509662,1.049453,-0.174836,-1.025186,0.387398,-12.308530,0.008211,-0.029592,0.330458,-0.578857,0.770996,0.209961,-0.025114,0.010453,-0.001752,0.999999,0.000041,-0.000148,0.001652,0.472456,-0.743661,-0.007122,-0.472973
05420,NaN,-5.874332,-2.065935,-1.524255,-5.254759,2.616748,-12.389376,0.732089,0.019977,-0.040893,-0.574463,0.770996,0.207764,-0.058749,-0.020591,-0.015312,0.999993,0.003660,0.000100,-0.000204,0.475072,-0.741881,-0.008965,-0.473116
05421,NaN,-8.645174,-1.515524,-3.590754,-7.983463,1.794243,-14.605695,1.918433,0.065796,-0.693772,-0.580566,0.764648,0.188721,-0.086515,-0.014510,-0.036020,0.999948,0.009592,0.000329,-0.003469,0.485352,-0.736981,-0.025961,-0.469701
05422,NaN,-7.495165,-2.566517,-2.474106,-7.086855,2.589977,-13.269739,2.609398,-0.053568,-1.442321,-0.593018,0.753906,0.173584,-0.075126,-0.024798,-0.025088,0.999889,0.013047,-0.000268,-0.007211,0.491512,-0.730508,-0.037537,-0.472615
05423,NaN,-6.043016,3.906286,-5.463313,-4.683222,-3.805522,-16.536114,2.150041,-0.430440,-2.001381,-0.610352,0.753906,0.160645,-0.059914,0.040249,-0.054334,0.999890,0.010750,-0.002152,-0.010007,0.497779,-0.725512,-0.058196,-0.471659
05424,NaN,-2.595125,11.293145,-1.610734,3.990734,-5.887666,-19.100437,1.642917,-0.433632,-2.698622,-0.631348,0.741211,0.158691,-0.024390,0.113395,-0.015231,0.999873,0.008214,-0.002168,-0.013493,0.497178,-0.721571,-0.072939,-0.476266
05425,NaN,-0.123376,10.861794,1.609641,7.377989,-4.025452,-16.879218,0.617443,-0.520341,-3.189947,-0.649658,0.711182,0.161133,0.000456,0.108569,0.016431,0.999865,0.003087,-0.002602,-0.015949,0.493547,-0.719712,-0.092461,-0.479456
05426,NaN,1.595973,8.537884,2.309593,7.455244,-2.959274,-13.866290,0.008655,-0.612228,-3.532512,-0.676758,0.683350,0.167969,0.017393,0.085079,0.023151,0.999839,0.000043,-0.003061,-0.017662,0.484740,-0.719412,-0.106696,-0.485891
05427,NaN,2.518737,5.453067,2.598375,6.247876,-1.494963,-11.060428,-0.292897,-0.644133,-3.864446,-0.699463,0.653320,0.172607,0.026151,0.054070,0.025988,0.999807,-0.001464,-0.003220,-0.019321,0.472875,-0.719623,-0.122384,-0.493513
05428,NaN,2.908237,3.449518,2.241546,4.951191,-0.835295,-9.403967,-0.219160,-0.653908,-4.137564,-0.711182,0.625488,0.179199,0.029715,0.033909,0.022475,0.999780,-0.001096,-0.003269,-0.020686,0.461365,-0.719066,-0.138256,-0.500970
05429,NaN,3.016286,1.635320,1.175518,3.139571,-0.685298,-8.131668,-0.202667,-0.748352,-4.351249,-0.742432,0.593506,0.188232,0.030465,0.015705,0.011853,0.999756,-0.001013,-0.003741,-0.021754,0.448514,-0.718123,-0.156639,-0.508526
05430,NaN,3.485651,1.427467,1.361790,3.252875,-0.448139,-7.519744,-0.290085,-0.819427,-4.552207,-0.756104,0.554932,0.192871,0.035114,0.013497,0.013741,0.999732,-0.001450,-0.004097,-0.022759,0.435128,-0.717101,-0.174048,-0.515886
05431,NaN,5.002712,-0.251082,0.829551,2.268357,-0.087973,-5.271712,-0.455230,-0.875345,-4.713558,-0.770020,0.520508,0.199951,0.049913,-0.003669,0.008522,0.999710,-0.002276,-0.004376,-0.023566,0.420233,-0.715685,-0.193663,-0.523158
05432,NaN,6.417835,-1.301883,1.767194,2.419473,1.238755,-3.599014,-0.463228,-0.810478,-4.836051,-0.792236,0.477783,0.206787,0.063767,-0.014523,0.017963,0.999697,-0.002316,-0.004052,-0.024178,0.405005,-0.713879,-0.211407,-0.530711
05433,NaN,8.685447,-2.383459,2.711522,2.669703,2.649383,-1.192482,-0.606968,-0.642438,-4.879601,-0.810547,0.443604,0.213623,0.086152,-0.025859,0.027469,0.999693,-0.003035,-0.003212,-0.024396,0.390531,-0.710242,-0.232569,-0.537543
05434,NaN,11.008751,-5.293558,3.482143,1.296103,5.114287,1.740460,-0.525631,-0.386710,-4.849734,-0.817627,0.402832,0.212158,0.108695,-0.055491,0.035176,0.999701,-0.002628,-0.001933,-0.024246,0.375055,-0.706457,-0.249071,-0.546092
05435,NaN,10.937277,-7.488799,4.098839,-0.612999,7.306542,1.964877,-0.324188,-0.308297,-4.846215,-0.840088,0.366455,0.221191,0.107453,-0.077441,0.041279,0.999704,-0.001621,-0.001541,-0.024229,0.363392,-0.699400,-0.271837,-0.552169
05436,NaN,9.988703,-8.265950,3.927738,-1.984507,7.995904,0.940104,-0.538157,-0.358478,-4.789612,-0.849854,0.336426,0.225830,0.097801,-0.084912,0.039680,0.999708,-0.002691,-0.001792,-0.023946,0.347684,-0.694653,-0.287679,-0.560191
05437,NaN,11.431286,-9.634345,3.035543,-3.832490,8.438674,2.302152,-1.283968,-0.443275,-4.674195,-0.861328,0.295654,0.230713,0.111955,-0.098780,0.031234,0.999704,-0.006419,-0.002216,-0.023369,0.333181,-0.688419,-0.307169,-0.566319
05438,NaN,14.989047,-12.765978,1.016560,-7.294571,9.333612,5.944112,-2.010046,-0.482553,-4.453599,-0.872803,0.257080,0.239746,0.146973,-0.130841,0.011827,0.999699,-0.010049,-0.002413,-0.022266,0.312800,-0.686085,-0.317526,-0.574996
05439,NaN,18.607227,-15.540923,-1.614241,-11.195143,9.695407,9.446615,-2.483639,-0.497997,-4.008666,-0.880371,0.222900,0.250977,0.182942,-0.159278,-0.013722,0.999719,-0.012417,-0.002490,-0.020041,0.297067,-0.681245,-0.332001,-0.580889
05440,NaN,21.010867,-15.192883,-2.868639,-11.802070,9.569860,11.389680,-2.682773,-0.591311,-3.432776,-0.876953,0.188477,0.262207,0.207535,-0.155867,-0.025997,0.999758,-0.013413,-0.002956,-0.017162,0.276895,-0.681082,-0.336708,-0.588289
05441,NaN,20.713779,-15.406285,-4.049366,-13.220150,9.314540,10.710500,-2.579964,-0.635395,-2.838018,-0.886963,0.160645,0.264648,0.205042,-0.157482,-0.037823,0.999811,-0.012899,-0.003177,-0.014189,0.264073,-0.678032,-0.346384,-0.592078
05442,NaN,18.174132,-17.048723,-3.174074,-14.271943,11.294038,7.500384,-2.175521,-0.619096,-2.130256,-0.886230,0.139160,0.275635,0.180003,-0.172738,-0.029311,0.999879,-0.010877,-0.003095,-0.010651,0.249275,-0.678964,-0.347949,-0.596491
05443,NaN,16.309104,-15.826669,-1.951668,-12.927917,11.323119,5.184462,-1.681840,-0.595522,-1.435628,-0.885742,0.130615,0.282227,0.162003,-0.159586,-0.017695,0.999934,-0.008409,-0.002978,-0.007178,0.244957,-0.676177,-0.356200,-0.596575
05444,NaN,14.770360,-12.894651,-0.515927,-9.776243,10.610482,3.474016,-1.369741,-0.485341,-0.926904,-0.889648,0.115479,0.286621,0.147114,-0.129659,-0.003915,0.999963,-0.006849,-0.002427,-0.004634,0.236676,-0.677624,-0.355837,-0.598490
05445,NaN,13.628310,-10.382218,-0.386254,-7.752019,9.092655,2.471333,-1.122580,-0.381147,-0.550571,-0.885254,0.111328,0.289062,0.136003,-0.104215,-0.003019,0.999979,-0.005613,-0.001906,-0.002753,0.230574,-0.679174,-0.354406,-0.599962
05446,NaN,12.800784,-8.466154,-0.246848,-6.186722,7.925440,1.785052,-0.872921,-0.257076,-0.236019,-0.883057,0.109131,0.291016,0.127911,-0.084822,-0.001934,0.999989,-0.004365,-0.001285,-0.001180,0.226432,-0.680523,-0.352889,-0.600904
05447,NaN,12.091227,-7.820947,-1.069499,-6.205966,6.825210,1.296357,-0.700626,-0.142193,0.094061,-0.882812,0.106934,0.291260,0.120956,-0.078189,-0.010335,0.999994,-0.003503,-0.000711,0.000470,0.224240,-0.682049,-0.350083,-0.601637
05448,NaN,11.497845,-7.173458,-2.376200,-6.555783,5.353688,1.034648,-0.272132,-0.080163,0.441843,-0.876709,0.115479,0.286865,0.115146,-0.071513,-0.023618,0.999997,-0.001361,-0.000401,0.002209,0.224488,-0.683364,-0.347854,-0.601345
05449,NaN,11.616489,-5.701448,-1.860314,-5.041572,4.744708,1.276923,0.204474,-0.000008,0.785284,-0.885742,0.124023,0.284424,0.116388,-0.056539,-0.018661,0.999992,0.001022,-0.000000,0.003926,0.227830,-0.684683,-0.345169,-0.600134
05450,NaN,11.473339,-4.726566,-0.902912,-3.614073,4.688854,1.130100,0.453266,0.124780,1.091903,-0.881836,0.136963,0.280029,0.114983,-0.046618,-0.009207,0.999982,0.002266,0.000624,0.005459,0.232858,-0.685663,-0.342651,-0.598527
05451,NaN,11.845442,-7.495746,-5.291366,-8.468433,3.219631,2.121020,1.017082,0.170203,1.392855,-0.875977,0.154053,0.273438,0.118926,-0.073860,-0.053392,0.999962,0.005085,0.000851,0.006964,0.241158,-0.686533,-0.340043,-0.595722
05452,NaN,14.546754,-10.072766,-20.518096,-19.942328,-5.998797,7.517778,0.686369,-1.088075,2.149380,-0.870117,0.171387,0.277344,0.147648,-0.098446,-0.204722,0.999922,0.003432,-0.005440,0.010747,0.248036,-0.692545,-0.336002,-0.588185
05453,NaN,14.846857,6.306045,11.961107,13.872950,7.119748,2.840340,-0.812025,0.425976,2.026372,-0.864258,0.188477,0.270752,0.148070,0.065046,0.119034,0.999938,-0.004060,0.002130,0.010132,0.252541,-0.695899,-0.325658,-0.588128
05454,NaN,14.069639,0.577765,-1.356844,1.019900,0.670233,4.280851,-0.499899,0.399444,2.749190,-0.862793,0.209961,0.268311,0.140572,0.007676,-0.013867,0.999900,-0.002499,0.001997,0.013745,0.259500,-0.699761,-0.314093,-0.586805
05455,NaN,10.159775,19.075689,-9.591000,9.161561,-18.482885,1.742299,0.637527,0.082539,2.103903,-0.856934,0.227051,0.270264,0.099542,0.192116,-0.095340,0.999940,0.003188,0.000413,0.010519,0.268494,-0.702138,-0.307895,-0.583192
05456,NaN,12.024244,18.505091,-5.761168,11.656678,-15.227822,2.533715,-0.000778,-0.037357,1.836344,-0.857178,0.235596,0.268066,0.118547,0.186144,-0.057590,0.999958,-0.000004,-0.000187,0.009182,0.273766,-0.705044,-0.301491,-0.580575
05457,NaN,13.514586,-1.422756,-8.797159,-4.755531,-4.152433,5.093548,-0.447674,-0.094812,2.015201,-0.844971,0.257080,0.269775,0.135323,-0.013061,-0.087877,0.999947,-0.002238,-0.000474,0.010076,0.278151,-0.709021,-0.292998,-0.577991
05458,NaN,21.727457,2.110989,-1.293377,4.355436,-0.469333,11.611711,0.040883,-0.129625,2.034963,-0.843506,0.276367,0.267334,0.217053,0.023322,-0.012788,0.999948,0.000204,-0.000648,0.010175,0.283963,-0.712282,-0.286074,-0.574614
05459,NaN,33.219675,12.837092,15.283248,25.502566,4.989763,18.937952,0.232017,0.258464,2.009178,-0.835449,0.291260,0.271484,0.331083,0.131524,0.152555,0.999948,0.001160,0.001292,0.010046,0.291185,-0.714124,-0.279082,-0.572146
05460,NaN,31.868292,13.714944,5.704650,20.051659,-3.262740,18.883236,-0.790335,-0.225575,2.314402,-0.831787,0.310547,0.271240,0.317002,0.141049,0.056852,0.999925,-0.003952,-0.001128,0.011572,0.294637,-0.719095,-0.268872,-0.569034
05461,NaN,22.031798,2.654271,3.583463,9.074816,1.758967,10.676661,-1.012319,-0.537013,2.351888,-0.817627,0.331787,0.285889,0.219887,0.029313,0.036282,0.999914,-0.005061,-0.002685,0.011759,0.296762,-0.725175,-0.257841,-0.565307
05462,NaN,11.725178,-6.570536,0.297850,-1.635761,5.165533,2.490685,-0.651372,-0.792683,2.228745,-0.809570,0.351074,0.294434,0.117961,-0.064382,0.003656,0.999925,-0.003257,-0.003963,0.011143,0.299646,-0.731200,-0.249083,-0.559926
05463,NaN,3.537177,-5.856091,-3.071612,-5.221283,1.975473,-4.805304,-0.190927,-0.830905,1.926687,-0.799316,0.366211,0.294189,0.036061,-0.058245,-0.030512,0.999945,-0.000955,-0.004154,0.009633,0.303057,-0.736109,-0.242136,-0.554681
05464,NaN,2.895615,-5.522241,-4.950116,-6.325613,0.372379,-4.992962,0.004688,-0.720275,1.666110,-0.793457,0.381104,0.302490,0.029593,-0.054976,-0.049397,0.999959,0.000023,-0.003601,0.008330,0.306801,-0.740085,-0.237105,-0.549480
05465,NaN,5.462292,-5.189101,-7.490619,-6.972348,-1.670340,-1.972582,0.185916,-0.557585,1.421111,-0.782959,0.387451,0.308838,0.055198,-0.051431,-0.074801,0.999970,0.000930,-0.002788,0.007105,0.310612,-0.742957,-0.232683,-0.545339
05466,NaN,8.809622,-4.639510,-7.174883,-5.275082,-1.871273,1.109000,0.473324,-0.385113,1.133880,-0.776855,0.398193,0.306641,0.088495,-0.045724,-0.071687,0.999979,0.002367,-0.001926,0.005669,0.314998,-0.744575,-0.230362,-0.541588
05467,NaN,9.286268,-4.894375,-3.606123,-2.839231,0.786456,0.888384,0.552707,-0.203043,0.916379,-0.772949,0.406738,0.306641,0.093122,-0.048418,-0.036101,0.999985,0.002764,-0.001015,0.004582,0.319304,-0.745287,-0.228402,-0.538910
05468,NaN,7.552641,-6.621744,-0.642996,-2.559147,4.061317,-0.966257,0.362753,-0.030990,0.699840,-0.775391,0.417480,0.310547,0.075758,-0.065941,-0.006538,0.999992,0.001814,-0.000155,0.003499,0.322495,-0.745585,-0.226826,-0.537262
05469,NaN,6.500251,-6.704030,0.806608,-1.969572,5.130980,-2.220485,0.125366,0.109921,0.480711,-0.771240,0.419678,0.304199,0.065168,-0.066889,0.007988,0.999997,0.000627,0.000550,0.002404,0.324433,-0.745626,-0.224826,-0.536878
05470,NaN,6.314124,-6.151914,0.633970,-1.748920,4.602720,-2.472912,-0.065431,0.206677,0.266288,-0.773438,0.419678,0.308594,0.063230,-0.061433,0.006294,0.999999,-0.000327,0.001033,0.001331,0.325127,-0.745475,-0.223329,-0.537292
05471,NaN,6.869890,-4.861389,-0.216355,-1.237564,3.070498,-2.072160,-0.267210,0.282200,0.082994,-0.775391,0.419678,0.304199,0.068716,-0.048588,-0.002196,0.999998,-0.001336,0.001411,0.000415,0.324760,-0.745241,-0.221395,-0.538638
05472,NaN,8.429625,-3.375718,-1.482258,-0.568449,1.092668,-0.694900,-0.395290,0.316192,-0.040078,-0.775391,0.415283,0.302002,0.084266,-0.033803,-0.014889,0.999997,-0.001976,0.001581,-0.000200,0.323519,-0.744984,-0.219973,-0.540320
05473,NaN,10.423514,-2.015891,-2.036107,0.597874,-0.305261,0.976587,-0.376980,0.332417,-0.124510,-0.770752,0.408936,0.300049,0.104189,-0.020262,-0.020496,0.999997,-0.001885,0.001662,-0.000623,0.322248,-0.744555,-0.218413,-0.542300
05474,NaN,12.275722,-0.436329,-2.206123,2.094334,-1.578874,2.388601,-0.357255,0.335489,-0.176068,-0.772949,0.411133,0.297852,0.122716,-0.004511,-0.022259,0.999997,-0.001786,0.001677,-0.000880,0.320798,-0.744026,-0.217566,-0.544223
05475,NaN,12.466060,0.354224,-1.898405,2.846257,-1.938760,2.322877,-0.363078,0.325343,-0.098176,-0.772949,0.406738,0.297852,0.124631,0.003446,-0.019193,0.999997,-0.001815,0.001627,-0.000491,0.319609,-0.743609,-0.215977,-0.546123
05476,NaN,11.667790,0.086375,-1.668056,2.541109,-1.584921,1.587220,-0.333332,0.288296,0.060388,-0.779297,0.408936,0.295654,0.116653,0.000871,-0.016850,0.999998,-0.001667,0.001441,0.000302,0.318837,-0.743417,-0.214388,-0.547460
05477,NaN,10.599581,-0.171448,-1.600738,2.068853,-1.359219,0.618763,-0.308867,0.257827,0.225373,-0.779541,0.413330,0.297852,0.105977,-0.001620,-0.016141,0.999997,-0.001544,0.001289,0.001127,0.318606,-0.743427,-0.211869,-0.548560
05478,NaN,9.523729,-0.163284,-1.660476,1.702371,-1.405667,-0.399338,-0.241079,0.223526,0.410084,-0.775146,0.413330,0.291504,0.095222,-0.001458,-0.016709,0.999997,-0.001205,0.001118,0.002050,0.319062,-0.743630,-0.209334,-0.548993
05479,NaN,9.015579,0.652611,-1.020024,2.534886,-1.564374,-1.217699,-0.192234,0.194956,0.611618,-0.775146,0.411133,0.300049,0.090125,0.006792,-0.010295,0.999994,-0.000961,0.000975,0.003058,0.320218,-0.744013,-0.205817,-0.549130
05480,NaN,9.530632,1.263071,-0.669487,3.365240,-1.834283,-0.970373,-0.165706,0.170181,0.834720,-0.771240,0.423828,0.295654,0.095247,0.013023,-0.006787,0.999991,-0.000829,0.000851,0.004174,0.322058,-0.744663,-0.201989,-0.548595
05481,NaN,9.853488,1.779582,-0.264656,4.123974,-2.020530,-0.911146,-0.213799,0.150173,1.110896,-0.760742,0.428223,0.293457,0.098432,0.018340,-0.002740,0.999984,-0.001069,0.000751,0.005554,0.324394,-0.745667,-0.196629,-0.547801
05482,NaN,9.876747,1.532328,-0.599729,3.801724,-2.177706,-0.809316,-0.328928,0.089479,1.409403,-0.761230,0.445312,0.299561,0.098654,0.016009,-0.006067,0.999974,-0.001645,0.000447,0.007047,0.327099,-0.747321,-0.190329,-0.546161
05483,NaN,9.819288,0.364159,-1.322167,2.613513,-1.960675,-0.452009,-0.374584,0.026198,1.685524,-0.750732,0.451660,0.299561,0.098156,0.004444,-0.013242,0.999963,-0.001873,0.000131,0.008428,0.330189,-0.749382,-0.182567,-0.544124
05484,NaN,9.695728,-0.426514,-1.563766,2.012328,-1.673854,-0.337436,-0.316354,-0.046514,1.926852,-0.742676,0.468750,0.301514,0.096996,-0.003355,-0.015609,0.999952,-0.001582,-0.000233,0.009634,0.334180,-0.751754,-0.174561,-0.541034
05485,NaN,9.503662,-0.623578,-1.739422,1.823811,-1.771156,-0.470985,-0.228801,-0.114418,2.140334,-0.726318,0.488037,0.303467,0.095106,-0.005238,-0.017333,0.999942,-0.001144,-0.000572,0.010701,0.338833,-0.754202,-0.165707,-0.537506
05486,NaN,9.977599,0.886020,-2.209296,2.739303,-3.370340,-0.520156,-0.317186,-0.238012,2.352138,-0.720459,0.505127,0.316162,0.099689,0.009998,-0.021990,0.999929,-0.001586,-0.001190,0.011760,0.343730,-0.757274,-0.156383,-0.532852
05487,NaN,11.792224,0.620788,-5.701492,0.989450,-5.977251,1.816421,-0.401047,-0.323672,2.491003,-0.703857,0.526611,0.315918,0.117926,0.007563,-0.056838,0.999919,-0.002005,-0.001618,0.012455,0.348382,-0.760634,-0.146089,-0.527943
05488,NaN,13.131715,-0.548165,-6.506790,0.486966,-6.074106,3.526711,-0.331346,-0.397325,2.657685,-0.687500,0.545898,0.317871,0.131504,-0.003842,-0.064800,0.999908,-0.001657,-0.001987,0.013288,0.353808,-0.764131,-0.135792,-0.522000
05489,NaN,13.375383,-1.462819,-6.202086,0.527570,-5.478889,3.942223,0.056869,-0.378735,2.800291,-0.670898,0.567139,0.323975,0.134058,-0.012735,-0.061771,0.999900,0.000284,-0.001894,0.014001,0.360851,-0.766778,-0.125694,-0.515791
05490,NaN,13.046210,-4.220015,-6.839095,-1.326850,-4.175997,4.869618,0.530376,-0.334092,2.864485,-0.652344,0.586426,0.321533,0.131161,-0.040144,-0.068281,0.999893,0.002652,-0.001670,0.014322,0.370015,-0.768400,-0.116676,-0.508957
05491,NaN,15.301912,-3.465539,-6.139235,0.921004,-5.003052,6.248048,1.089197,-0.283385,2.885571,-0.633789,0.614258,0.321289,0.153582,-0.032108,-0.061354,0.999880,0.005446,-0.001417,0.014427,0.381151,-0.768651,-0.108786,-0.502060
05492,NaN,16.818920,-0.853811,-4.990741,4.205782,-6.697312,5.869884,1.499859,-0.205690,2.926744,-0.617188,0.631348,0.312500,0.168338,-0.005702,-0.049784,0.999864,0.007499,-0.001028,0.014633,0.394091,-0.767797,-0.101687,-0.494813
05493,NaN,18.877267,-0.472077,-6.096479,5.036571,-8.620326,7.334444,1.889496,-0.210028,3.049907,-0.598877,0.659424,0.301514,0.188873,-0.001266,-0.060789,0.999839,0.009447,-0.001050,0.015249,0.408500,-0.765989,-0.095055,-0.487189
05494,NaN,21.952997,-0.577771,-4.954794,7.746884,-8.982465,9.320080,2.166140,-0.184694,3.248369,-0.571777,0.689209,0.292725,0.219625,-0.001676,-0.049378,0.999809,0.010830,-0.000923,0.016241,0.424535,-0.763413,-0.088257,-0.478729
05495,NaN,25.198578,-0.120436,-2.713651,11.653045,-9.035831,10.798837,2.471504,-0.076309,3.425633,-0.544922,0.719238,0.275146,0.251964,0.003446,-0.027017,0.999777,0.012357,-0.000382,0.017127,0.441726,-0.759677,-0.081333,-0.470270
05496,NaN,25.979697,1.948362,-0.399549,15.177479,-9.284170,9.220958,2.673466,0.038344,3.450236,-0.528564,0.745117,0.259766,0.259408,0.024012,-0.003744,0.999762,0.013366,0.000192,0.017250,0.459896,-0.754905,-0.074417,-0.461602
05497,NaN,25.162056,4.141332,1.424811,17.456992,-9.293546,6.347012,2.719213,0.175667,3.393226,-0.501709,0.777100,0.238037,0.250885,0.045477,0.014627,0.999763,0.013595,0.000878,0.016965,0.477459,-0.749307,-0.067557,-0.453881
05498,NaN,21.687072,5.479019,4.092117,18.136087,-7.058534,1.948298,2.587623,0.333088,3.261429,-0.478516,0.794189,0.222900,0.216013,0.057785,0.041296,0.999782,0.012937,0.001665,0.016306,0.494555,-0.743313,-0.060409,-0.446376
05499,NaN,16.162569,5.793851,5.371941,15.978570,-4.413595,-2.823555,2.238614,0.380251,2.924730,-0.459717,0.813477,0.207764,0.160864,0.059691,0.054075,0.999829,0.011192,0.001901,0.014623,0.508739,-0.737626,-0.053612,-0.440702
05500,NaN,10.171327,6.579685,5.452703,12.900430,-2.520004,-7.887918,1.788015,0.388764,2.403586,-0.438965,0.832764,0.192627,0.101023,0.066524,0.054923,0.999886,0.008940,0.001944,0.012017,0.520668,-0.732782,-0.047700,-0.435499
05501,NaN,3.399846,8.871768,3.409446,8.732463,-2.553015,-14.184823,0.970179,0.354786,1.730695,-0.426270,0.841309,0.196777,0.033291,0.088841,0.034466,0.999949,0.004851,0.001774,0.008653,0.527214,-0.729749,-0.042468,-0.433253
05502,NaN,-2.658402,6.256036,3.163795,3.425714,0.853352,-16.427112,-0.388777,0.254447,1.087084,-0.415771,0.847900,0.205322,-0.026884,0.062476,0.031551,0.999983,-0.001944,0.001272,0.005435,0.528188,-0.730442,-0.036996,-0.431398
05503,NaN,-8.374351,1.888188,-1.114127,-4.941917,1.670227,-16.720897,-0.011688,0.044539,1.092067,-0.405273,0.854248,0.198975,-0.083847,0.018424,-0.011124,0.999985,-0.000058,0.000223,0.005460,0.529627,-0.730426,-0.032721,-0.430003
05504,NaN,-13.912498,4.916413,-3.816852,-8.555057,0.485254,-22.417135,0.066390,-0.016589,0.543453,-0.403320,0.858398,0.198730,-0.139255,0.048799,-0.038164,0.999996,0.000332,-0.000083,0.002717,0.531025,-0.730373,-0.030932,-0.428499
05505,NaN,-13.645499,-0.151127,-3.110093,-10.496290,3.158304,-18.516011,0.698984,-0.099666,-0.273298,-0.411865,0.858398,0.196533,-0.136441,-0.001216,-0.031174,0.999993,0.003495,-0.000498,-0.001366,0.532200,-0.728581,-0.033610,-0.429888
05506,NaN,-9.699167,-2.884755,-5.424154,-10.744261,0.798248,-13.779970,0.460000,-0.404469,-0.978804,-0.424561,0.856445,0.196533,-0.097021,-0.028248,-0.054503,0.999983,0.002300,-0.002022,-0.004894,0.531686,-0.728050,-0.039250,-0.430944
05507,NaN,-7.042480,4.651161,-3.461407,-3.964176,-2.035514,-17.772001,0.279353,-0.377687,-1.857606,-0.439209,0.843506,0.198975,-0.069923,0.047211,-0.034681,0.999954,0.001397,-0.001888,-0.009288,0.527958,-0.727677,-0.047622,-0.435290
05508,NaN,-4.255632,7.680257,-0.264498,1.365632,-1.991043,-18.258585,-0.146513,-0.426134,-2.564282,-0.462646,0.834961,0.205322,-0.041561,0.077338,-0.002791,0.999915,-0.000733,-0.002131,-0.012821,0.521689,-0.728320,-0.057763,-0.440516
05509,NaN,-1.540384,7.649023,0.742784,3.731670,-2.337283,-16.296444,-0.547384,-0.473047,-3.012871,-0.488037,0.824463,0.207520,-0.014266,0.076731,0.007183,0.999880,-0.002737,-0.002365,-0.015064,0.512221,-0.729807,-0.068799,-0.447524
05510,NaN,-0.715213,5.026795,0.663864,2.820585,-1.601257,-13.774829,-0.728561,-0.504347,-3.450045,-0.515625,0.809326,0.216064,-0.006300,0.050405,0.006439,0.999841,-0.003643,-0.002522,-0.017249,0.501578,-0.731499,-0.081049,-0.454708
05511,NaN,0.135435,2.046962,-0.409563,1.031666,-1.385287,-10.992613,-0.628231,-0.549380,-3.837727,-0.544922,0.788086,0.229248,0.001758,0.020425,-0.004155,0.999807,-0.003141,-0.002747,-0.019187,0.489539,-0.732597,-0.095038,-0.463271
05512,NaN,0.845459,1.310394,-0.529597,0.938952,-1.349949,-9.902233,-0.272008,-0.549698,-4.199990,-0.580811,0.766602,0.233643,0.008742,0.012915,-0.005290,0.999775,-0.001360,-0.002748,-0.020998,0.478433,-0.732375,-0.111126,-0.471572
05513,NaN,1.483643,1.316142,0.167260,1.688037,-0.963453,-9.384881,0.064547,-0.519159,-4.535325,-0.616455,0.740967,0.227295,0.015125,0.012820,0.001716,0.999739,0.000323,-0.002596,-0.022675,0.466835,-0.730710,-0.129117,-0.481100
05514,NaN,2.469186,0.071121,1.188724,1.945625,0.315829,-7.907810,0.069495,-0.532299,-4.878669,-0.652100,0.713135,0.236084,0.024668,0.000105,0.011953,0.999699,0.000347,-0.002661,-0.024391,0.454858,-0.728457,-0.148321,-0.490362
05515,NaN,4.452023,-1.744950,-0.212507,0.739080,-0.165959,-5.087046,0.205081,-0.561610,-5.147410,-0.694092,0.683350,0.240723,0.044057,-0.018585,-0.002020,0.999664,0.001025,-0.002808,-0.025734,0.441644,-0.725283,-0.168789,-0.500425
05516,NaN,6.715911,-0.352924,1.706988,3.582108,0.366010,-3.882705,0.764269,-0.318385,-5.358814,-0.735840,0.648926,0.232422,0.067004,-0.005392,0.017158,0.999632,0.003821,-0.001592,-0.026791,0.430565,-0.719601,-0.190784,-0.510284
05517,NaN,8.350890,-1.272817,2.298942,3.607624,1.349520,-1.952191,0.546936,-0.305086,-5.489897,-0.766846,0.608398,0.232910,0.083081,-0.015076,0.023077,0.999618,0.002734,-0.001525,-0.027446,0.417247,-0.713673,-0.212471,-0.520992
05518,NaN,9.818857,-2.118379,0.959531,2.363638,0.851231,-0.041258,0.193766,-0.248681,-5.530605,-0.804199,0.567627,0.235352,0.097541,-0.023897,0.009695,0.999616,0.000969,-0.001243,-0.027649,0.403096,-0.707764,-0.233157,-0.531245
05519,NaN,11.259679,-4.821289,-0.072283,-0.303536,1.768047,2.302369,0.125544,-0.196650,-5.493249,-0.843506,0.524902,0.233643,0.111217,-0.051280,-0.000645,0.999622,0.000628,-0.000983,-0.027463,0.387678,-0.701346,-0.253130,-0.541982
05520,NaN,12.048940,-7.792309,0.584173,-2.598844,4.347670,3.623478,0.200220,-0.193960,-5.468214,-0.872070,0.479980,0.240723,0.118294,-0.081184,0.005877,0.999625,0.001001,-0.000970,-0.027338,0.373159,-0.694296,-0.273138,-0.551454
05521,NaN,12.322820,-9.834918,1.529601,-4.247403,6.718046,3.887061,-0.145288,-0.308675,-5.430539,-0.894043,0.428711,0.239258,0.120474,-0.101634,0.015556,0.999630,-0.000726,-0.001543,-0.027149,0.356244,-0.687737,-0.291920,-0.561152
05522,NaN,14.365881,-11.136769,1.038091,-5.774614,7.578006,5.699587,-1.030646,-0.530209,-5.341800,-0.917969,0.375000,0.248291,0.140588,-0.115094,0.011343,0.999627,-0.005153,-0.002651,-0.026706,0.336793,-0.683001,-0.308242,-0.570147
05523,NaN,18.486898,-14.369909,-0.010702,-8.943862,9.494340,9.629394,-1.874575,-0.675853,-5.064054,-0.944336,0.327881,0.261719,0.181148,-0.148306,0.001885,0.999630,-0.009372,-0.003379,-0.025317,0.313992,-0.680021,-0.321006,-0.579600
05524,NaN,23.135720,-17.564396,-2.601439,-13.069222,10.619929,13.994218,-2.380261,-0.786609,-4.500229,-0.948975,0.274414,0.279785,0.227418,-0.181077,-0.022981,0.999668,-0.011900,-0.003933,-0.022499,0.291478,-0.678581,-0.330549,-0.587627
05525,NaN,24.828202,-17.738110,-4.339557,-14.671550,10.626237,15.118828,-2.318238,-0.764149,-3.880125,-0.962646,0.231445,0.291016,0.244931,-0.182634,-0.040359,0.999737,-0.011590,-0.003820,-0.019399,0.270274,-0.677610,-0.337691,-0.594778
05526,NaN,22.066911,-17.469875,-2.989933,-14.188548,12.063494,11.497914,-2.269642,-0.795538,-3.182438,-0.969971,0.197021,0.300049,0.217960,-0.178499,-0.027017,0.999801,-0.011347,-0.003977,-0.015911,0.251709,-0.677527,-0.342744,-0.600105
05527,NaN,18.563292,-17.888458,-2.405855,-14.430398,12.958169,7.338815,-2.262172,-0.770066,-2.267828,-0.966797,0.165039,0.309082,0.183672,-0.181226,-0.021308,0.999864,-0.011310,-0.003850,-0.011339,0.235558,-0.678710,-0.344335,-0.604399
05528,NaN,15.149018,-17.249465,-1.790887,-13.630127,12.891668,3.538238,-1.695925,-0.603288,-1.382792,-0.968506,0.152100,0.322266,0.150342,-0.173678,-0.015985,0.999936,-0.008479,-0.003016,-0.006914,0.224555,-0.680098,-0.344603,-0.606869
05529,NaN,12.731031,-16.851780,-1.408547,-13.065892,12.737300,0.914979,-1.024942,-0.433859,-0.733360,-0.974609,0.145752,0.322266,0.126720,-0.169051,-0.012945,0.999978,-0.005125,-0.002169,-0.003667,0.218025,-0.681306,-0.344232,-0.608105
05530,NaN,10.726547,-15.938020,-0.347544,-11.653841,12.628131,-1.215175,-0.468698,-0.370426,-0.136386,-0.969971,0.135010,0.326660,0.107162,-0.159461,-0.002903,0.999995,-0.002343,-0.001852,-0.000682,0.215360,-0.682697,-0.343686,-0.607803
05531,NaN,10.243152,-15.516621,0.773304,-10.509896,13.102344,-1.802995,-0.248424,-0.379133,0.496862,-0.967773,0.135010,0.324707,0.102801,-0.154901,0.008120,0.999994,-0.001242,-0.001896,0.002484,0.215527,-0.685002,-0.341385,-0.606446
05532,NaN,10.199510,-15.046393,1.190247,-9.776908,13.081802,-1.743271,-0.054451,-0.322766,1.149593,-0.972900,0.152100,0.330811,0.102838,-0.149871,0.012109,0.999982,-0.000272,-0.001614,0.005748,0.218256,-0.687981,-0.337637,-0.604191
05533,NaN,11.020518,-14.331335,0.483493,-9.569420,12.201262,-0.505712,0.263139,-0.203503,1.756298,-0.962402,0.160645,0.328613,0.111453,-0.142345,0.004760,0.999960,0.001316,-0.001018,0.008781,0.224448,-0.691293,-0.332286,-0.601101
05534,NaN,10.471997,-10.625933,-23.132587,-22.784798,-7.182677,3.859181,-0.247739,-1.305713,2.449943,-0.963135,0.182129,0.343262,0.107520,-0.105240,-0.230499,0.999903,-0.001239,-0.006528,0.012249,0.228750,-0.699491,-0.324519,-0.594200
05535,NaN,23.047569,9.864530,8.361889,14.964434,3.045274,11.755212,-2.315004,-0.294722,1.870462,-0.967285,0.179932,0.349609,0.229411,0.101756,0.082792,0.999888,-0.011575,-0.001474,0.009352,0.226322,-0.706014,-0.311299,-0.594487
05536,NaN,10.935113,0.790154,6.384431,6.243733,5.503113,-0.238115,-2.226259,0.786598,3.200131,-0.963623,0.199219,0.347168,0.109448,0.010359,0.063308,0.999802,-0.011131,0.003933,0.016000,0.229141,-0.711029,-0.292447,-0.596998
05537,NaN,12.911153,12.916206,-13.684552,0.660056,-16.922140,5.483725,-0.589089,0.227168,2.668565,-0.968506,0.214111,0.344727,0.127221,0.130464,-0.137374,0.999906,-0.002945,0.001136,0.013342,0.235729,-0.714908,-0.280589,-0.595491
05538,NaN,11.237350,12.877818,-7.977398,4.629979,-13.520229,2.496223,0.070930,-0.289347,2.334979,-0.960449,0.229248,0.353271,0.110975,0.130108,-0.079567,0.999931,0.000355,-0.001447,0.011675,0.242499,-0.718905,-0.272787,-0.591571
05539,NaN,11.552866,8.816984,1.493389,8.886708,-4.368471,0.928403,-0.230920,-0.055253,2.358246,-0.958740,0.244141,0.353027,0.114474,0.089541,0.014863,0.999930,-0.001155,-0.000276,0.011791,0.248903,-0.722541,-0.263568,-0.588654
05540,NaN,12.434484,8.526870,-8.854871,1.543396,-11.237673,3.493536,-0.026458,-0.022497,2.283672,-0.948486,0.256836,0.361328,0.123370,0.086669,-0.088546,0.999935,-0.000132,-0.000112,0.011418,0.255469,-0.725597,-0.255262,-0.585735
05541,NaN,27.058623,8.605686,4.738001,14.332270,-1.541124,15.104084,-0.960241,-0.108194,2.307017,-0.942871,0.278320,0.363281,0.269542,0.089397,0.047102,0.999922,-0.004801,-0.000541,0.011535,0.258837,-0.730045,-0.244143,-0.583466
05542,NaN,43.969149,12.997361,19.647381,31.902670,5.145319,28.185167,-0.918984,0.292174,2.478819,-0.935059,0.299805,0.367188,0.438314,0.136311,0.195216,0.999912,-0.004595,0.001461,0.012394,0.263035,-0.733338,-0.232026,-0.582402
05543,NaN,37.657275,14.662736,6.005780,22.170436,-6.349563,23.909319,-1.576666,-0.168085,2.670447,-0.920654,0.321045,0.377686,0.374516,0.152106,0.059188,0.999879,-0.007883,-0.000840,0.013352,0.264679,-0.738887,-0.217414,-0.580278
05544,NaN,16.183198,-5.707570,1.084081,1.190659,5.187339,6.536672,-1.725646,-0.511068,2.542441,-0.902100,0.344727,0.379639,0.162510,-0.054914,0.011736,0.999879,-0.008628,-0.002555,0.012712,0.265080,-0.745322,-0.203676,-0.576839
05545,NaN,3.743385,-13.540881,-1.498091,-8.317402,9.581064,-3.597634,-0.764098,-0.564888,2.238285,-0.892090,0.365967,0.385742,0.038988,-0.135034,-0.014356,0.999926,-0.003820,-0.002824,0.011191,0.267801,-0.750130,-0.193287,-0.572912
05546,NaN,-8.039682,-10.163318,-5.448077,-12.370979,4.742164,-14.511162,-0.278803,-0.572118,1.832478,-0.884033,0.381104,0.396240,-0.079305,-0.102439,-0.054566,0.999953,-0.001394,-0.002861,0.009162,0.271426,-0.753873,-0.186384,-0.568563
05547,NaN,-2.078823,-6.264446,-7.690194,-10.092717,0.218554,-8.922922,-0.308911,-0.463323,1.389915,-0.880371,0.395996,0.391846,-0.020174,-0.062905,-0.076852,0.999972,-0.001545,-0.002317,0.006950,0.273658,-0.756838,-0.180369,-0.565486
05548,NaN,7.988205,-7.032352,-5.102472,-5.557688,2.056819,0.394233,-0.113443,-0.280071,0.922671,-0.878418,0.402588,0.393799,0.080277,-0.069983,-0.050873,0.999988,-0.000567,-0.001400,0.004613,0.275570,-0.758603,-0.176950,-0.563268
05549,NaN,13.596064,-7.174977,-1.557262,-1.182574,4.069031,5.046728,0.112713,-0.118116,0.525914,-0.867676,0.404541,0.389648,0.136158,-0.071383,-0.015533,0.999996,0.000564,-0.000591,0.002630,0.277379,-0.759213,-0.175026,-0.562159
05550,NaN,12.148556,-5.171898,-1.553125,-0.423829,2.527812,3.232564,-0.004262,-0.029600,0.261216,-0.876221,0.402588,0.394043,0.121555,-0.051561,-0.015512,0.999999,-0.000021,-0.000148,0.001306,0.278059,-0.759525,-0.174076,-0.561696
05551,NaN,9.980260,-3.362306,-3.372037,-1.412629,0.069130,1.154583,-0.230365,0.100561,0.098398,-0.876221,0.400391,0.400391,0.099802,-0.033613,-0.033732,0.999999,-0.001152,0.000503,0.000492,0.277569,-0.759616,-0.172480,-0.562307
05552,NaN,10.695241,-2.124173,-4.349576,-1.235174,-1.537819,1.760061,-0.413323,0.181138,-0.038072,-0.874268,0.406738,0.398193,0.106909,-0.021352,-0.043549,0.999997,-0.002067,0.000906,-0.000190,0.276036,-0.759641,-0.171222,-0.563411
05553,NaN,12.417864,-2.120555,-2.948204,0.331680,-0.768971,3.098183,-0.355578,0.253710,-0.124320,-0.876221,0.398193,0.396240,0.124128,-0.021335,-0.029602,0.999997,-0.001778,0.001269,-0.000622,0.274591,-0.759282,-0.169950,-0.564985
05554,NaN,12.390444,-2.785063,-1.723202,0.841833,0.508871,2.965470,-0.195333,0.312304,-0.192196,-0.869629,0.393799,0.389893,0.123851,-0.027987,-0.017398,0.999998,-0.000977,0.001562,-0.000961,0.273560,-0.758498,-0.169710,-0.566608
05555,NaN,10.722165,-2.150671,-1.403804,0.900420,0.285076,1.172242,-0.174913,0.338692,-0.274049,-0.880127,0.391846,0.396240,0.107168,-0.021666,-0.014201,0.999997,-0.000875,0.001693,-0.001370,0.272435,-0.757515,-0.169402,-0.568553
05556,NaN,9.457103,-1.508892,-1.420115,0.830627,-0.156289,-0.168221,-0.378280,0.342467,-0.353759,-0.882080,0.385254,0.394043,0.094520,-0.015283,-0.014334,0.999995,-0.001891,0.001712,-0.001769,0.270274,-0.756749,-0.169210,-0.570659
05557,NaN,8.878501,-1.283340,-1.550841,0.643276,-0.372591,-0.739263,-0.591764,0.346735,-0.350514,-0.890625,0.381104,0.392090,0.088735,-0.013035,-0.015624,0.999993,-0.002959,0.001734,-0.001753,0.267341,-0.756228,-0.167988,-0.573086
05558,NaN,8.948571,-0.953413,-1.638189,0.737540,-0.676744,-0.720522,-0.631746,0.358489,-0.265940,-0.888184,0.374512,0.394287,0.089443,-0.009705,-0.016512,0.999993,-0.003159,0.001792,-0.001330,0.264478,-0.755811,-0.166713,-0.575332
05559,NaN,9.683696,-0.534303,-1.814490,0.997651,-1.154191,-0.064651,-0.641623,0.357483,-0.159661,-0.894531,0.370361,0.387939,0.096800,-0.005479,-0.018301,0.999993,-0.003208,0.001787,-0.000798,0.261893,-0.755464,-0.164615,-0.577571
05560,NaN,10.110897,-0.163499,-2.102803,1.053764,-1.648950,0.328770,-0.598918,0.379182,-0.009121,-0.890137,0.370361,0.390137,0.101069,-0.001703,-0.021215,0.999994,-0.002995,0.001896,-0.000046,0.259904,-0.755135,-0.162433,-0.579513
05561,NaN,9.727092,-0.359609,-2.371231,0.593479,-1.646468,0.051652,-0.489476,0.382434,0.173688,-0.894531,0.370361,0.394287,0.097228,-0.003570,-0.023889,0.999995,-0.002447,0.001912,0.000868,0.258856,-0.754769,-0.159495,-0.581273
05562,NaN,9.164642,-0.835445,-2.409003,0.132289,-1.278985,-0.387271,-0.256194,0.367229,0.379104,-0.892578,0.374756,0.394287,0.091618,-0.008212,-0.024248,0.999996,-0.001281,0.001836,0.001896,0.259272,-0.754328,-0.156854,-0.582379
05563,NaN,9.213779,-0.710076,-1.620113,0.837626,-0.988890,-0.520603,0.072034,0.338071,0.599317,-0.888428,0.381104,0.389893,0.092131,-0.006819,-0.016359,0.999994,0.000360,0.001690,0.002997,0.261534,-0.753683,-0.154025,-0.582957
05564,NaN,9.568959,0.315585,-0.700589,2.233123,-1.397443,-0.581487,0.340556,0.284199,0.859732,-0.888916,0.395996,0.378906,0.095665,0.003579,-0.007136,0.999988,0.001703,0.001421,0.004299,0.265529,-0.753057,-0.151415,-0.582643
05565,NaN,9.560989,1.899270,-0.150915,3.552577,-2.463376,-1.074703,0.484025,0.208493,1.179863,-0.885010,0.408936,0.385254,0.095494,0.019560,-0.001562,0.999979,0.002420,0.001042,0.005899,0.270902,-0.752646,-0.147770,-0.581637
05566,NaN,8.998329,3.250165,0.162462,4.425720,-3.422822,-2.050253,0.456633,0.103059,1.541400,-0.874756,0.421875,0.378662,0.089730,0.033190,0.001654,0.999968,0.002283,0.000515,0.007707,0.277160,-0.752837,-0.143163,-0.579590
05567,NaN,8.911054,2.953463,-0.214666,4.011621,-3.515386,-2.084680,0.262178,-0.003814,1.931808,-0.865234,0.453857,0.382568,0.088820,0.030396,-0.002105,0.999952,0.001311,-0.000019,0.009659,0.283638,-0.753779,-0.136316,-0.576875
05568,NaN,9.273442,1.560015,-1.175683,2.712721,-3.147014,-1.295285,0.138365,-0.115082,2.280489,-0.846436,0.473145,0.380127,0.092555,0.016664,-0.011692,0.999935,0.000692,-0.000575,0.011402,0.290630,-0.755415,-0.128285,-0.573085
05569,NaN,10.092540,1.943427,-1.831941,2.771682,-4.127014,-0.632708,0.043588,-0.258707,2.548240,-0.836426,0.494629,0.377686,0.100690,0.020722,-0.018185,0.999918,0.000218,-0.001293,0.012741,0.297777,-0.757601,-0.118830,-0.568551
05570,NaN,12.113784,0.542626,-3.474035,1.575610,-4.506987,1.862176,0.052100,-0.339588,2.708399,-0.813721,0.524414,0.388184,0.121108,0.007075,-0.034533,0.999907,0.000260,-0.001698,0.013542,0.305434,-0.760022,-0.109224,-0.563158
05571,NaN,13.439394,-0.292923,-3.919534,1.470623,-4.605677,3.328005,0.164217,-0.430902,2.861123,-0.802002,0.552246,0.392090,0.134501,-0.000974,-0.038907,0.999895,0.000821,-0.002154,0.014305,0.313696,-0.762397,-0.099182,-0.557232
05572,NaN,13.473428,0.163291,-4.358862,1.622516,-5.519093,3.127601,0.527446,-0.420661,3.011125,-0.777100,0.582275,0.389648,0.134779,0.003776,-0.043297,0.999881,0.002637,-0.002103,0.015055,0.323840,-0.764140,-0.089832,-0.550589
05573,NaN,12.539429,-1.953208,-4.928527,0.039696,-4.331562,3.093216,0.820655,-0.418024,3.137761,-0.756836,0.616455,0.391357,0.125781,-0.017359,-0.049097,0.999866,0.004103,-0.002090,0.015688,0.335218,-0.765201,-0.080549,-0.543698
05574,NaN,13.736797,-3.931814,-4.229436,0.380362,-3.054811,4.766372,1.195304,-0.435453,3.168509,-0.732178,0.648682,0.382324,0.138057,-0.036882,-0.042220,0.999854,0.005976,-0.002177,0.015842,0.348171,-0.765542,-0.072405,-0.536172
05575,NaN,13.716777,-1.585296,-3.182978,2.601105,-4.531677,3.358266,1.404373,-0.444330,3.078690,-0.709229,0.672119,0.380127,0.137458,-0.013516,-0.031625,0.999854,0.007022,-0.002222,0.015393,0.361427,-0.765231,-0.064987,-0.528742
05576,NaN,15.417955,-1.355035,-6.520893,1.218529,-7.627190,5.099870,1.669736,-0.491203,3.027080,-0.688965,0.706543,0.379639,0.154515,-0.010670,-0.064927,0.999848,0.008348,-0.002456,0.015135,0.375594,-0.764375,-0.058707,-0.520781
05577,NaN,19.713559,-3.044465,-6.606149,2.662690,-8.248008,9.328020,1.995555,-0.461918,3.130760,-0.651123,0.736572,0.353760,0.197725,-0.026694,-0.065884,0.999825,0.009977,-0.002309,0.015653,0.390990,-0.762568,-0.052700,-0.512679
05578,NaN,25.622318,-2.246068,-4.605264,7.777811,-9.977089,13.048798,2.420682,-0.368523,3.179542,-0.635010,0.768555,0.348877,0.256616,-0.017827,-0.045814,0.999799,0.012103,-0.001842,0.015897,0.408184,-0.759461,-0.047502,-0.504330
05579,NaN,29.620827,1.349011,-2.210422,13.711766,-12.724951,13.297416,2.837348,-0.129680,3.193663,-0.604004,0.804932,0.320801,0.295953,0.018527,-0.021673,0.999772,0.014186,-0.000648,0.015967,0.426647,-0.754550,-0.042753,-0.496789
05580,NaN,27.689459,5.364573,0.429622,17.063366,-13.237275,8.331735,3.075127,0.104519,3.149750,-0.574463,0.828613,0.294922,0.276007,0.057924,0.005021,0.999758,0.015374,0.000523,0.015747,0.445980,-0.748218,-0.038285,-0.489700
05581,NaN,23.043802,6.329986,2.574233,16.981071,-10.828239,3.304856,2.997545,0.254021,2.963407,-0.552002,0.858643,0.277344,0.229504,0.066313,0.026429,0.999777,0.014987,0.001270,0.014816,0.463998,-0.741275,-0.033942,-0.483803
05582,NaN,15.502871,6.434225,3.514075,13.907794,-7.306974,-2.938271,2.740752,0.373614,2.578081,-0.532715,0.869385,0.255859,0.154253,0.065847,0.035748,0.999821,0.013703,0.001868,0.012890,0.480363,-0.734315,-0.030154,-0.478669
05583,NaN,7.652588,8.645536,2.642260,10.299580,-5.823713,-10.348721,2.149848,0.316062,1.833324,-0.516357,0.888672,0.240723,0.075773,0.086862,0.027235,0.999899,0.010749,0.001580,0.009166,0.492099,-0.728543,-0.027756,-0.475703
05584,NaN,-0.309932,9.555131,3.067856,6.734099,-2.438701,-16.849135,0.973417,0.191573,0.909464,-0.514160,0.888672,0.232178,-0.003504,0.095385,0.031146,0.999977,0.004867,0.000958,0.004547,0.497813,-0.725799,-0.026297,-0.474031
05585,NaN,-6.560670,3.653833,1.420753,-0.792938,2.108842,-17.115755,1.074775,0.250915,0.766302,-0.501465,0.895020,0.219238,-0.065728,0.036209,0.014485,0.999977,0.005374,0.001255,0.003831,0.502939,-0.722547,-0.025369,-0.473640
05586,NaN,-10.955710,5.969185,0.855528,-2.396887,2.577166,-21.812797,1.062280,0.250558,0.567731,-0.497314,0.901611,0.214844,-0.109715,0.059334,0.009008,0.999981,0.005311,0.001253,0.002839,0.508132,-0.719338,-0.025213,-0.472989
05587,NaN,-15.602086,3.040440,-3.778223,-9.469957,2.614661,-22.867481,0.845244,-0.068481,-0.058280,-0.499268,0.901611,0.206299,-0.155999,0.030609,-0.037707,0.999991,0.004226,-0.000342,-0.000291,0.510442,-0.717274,-0.027525,-0.473507
05588,NaN,-10.123935,-2.654826,-4.474312,-9.862201,2.317528,-15.001743,0.870729,-0.408145,-0.722565,-0.510010,0.899414,0.206299,-0.101242,-0.025987,-0.045064,0.999982,0.004354,-0.002041,-0.003613,0.511778,-0.715902,-0.033230,-0.473775
05589,NaN,-7.248978,3.325390,-3.949051,-4.684751,-1.471808,-17.234639,1.016396,-0.352541,-1.604262,-0.531250,0.888672,0.199951,-0.072149,0.034034,-0.039446,0.999953,0.005082,-0.001763,-0.008021,0.511053,-0.713808,-0.042276,-0.476986
05590,NaN,-4.931078,8.805745,0.299971,2.455292,-1.891360,-19.421825,0.812034,-0.365872,-2.493809,-0.552246,0.878174,0.202148,-0.048214,0.088650,0.003270,0.999912,0.004060,-0.001829,-0.012469,0.507870,-0.712012,-0.054055,-0.481856
05591,NaN,-3.036391,9.271525,0.912784,4.323242,-2.559230,-18.224995,0.225443,-0.518246,-3.031075,-0.583984,0.858887,0.202148,-0.028978,0.093151,0.009156,0.999881,0.001127,-0.002591,-0.015155,0.500693,-0.711771,-0.066725,-0.488094
05592,NaN,-2.060084,7.130055,0.895832,3.742770,-2.054707,-15.948533,-0.046841,-0.623270,-3.488987,-0.613281,0.837402,0.213135,-0.019381,0.071648,0.008880,0.999843,-0.000234,-0.003116,-0.017444,0.491713,-0.712129,-0.080588,-0.494566
05593,NaN,-0.365675,3.871112,0.228102,2.327907,-1.671447,-12.450204,-0.039858,-0.730450,-3.897334,-0.646973,0.811768,0.208984,-0.002910,0.038773,0.002262,0.999803,-0.000199,-0.003652,-0.019485,0.481017,-0.712308,-0.096160,-0.501990
05594,NaN,1.063283,2.982379,0.007661,2.381965,-1.911862,-10.646197,0.284115,-0.765386,-4.206555,-0.682617,0.783936,0.222168,0.011256,0.029591,0.000161,0.999770,0.001420,-0.003827,-0.021031,0.470980,-0.711354,-0.113684,-0.509146
05595,NaN,1.584674,1.824384,-0.699374,1.461204,-2.009994,-9.422254,0.295804,-0.857930,-4.474825,-0.715820,0.749756,0.230957,0.016279,0.017893,-0.006898,0.999739,0.001479,-0.004289,-0.022372,0.459467,-0.710100,-0.132356,-0.516845
05596,NaN,3.061502,2.268598,0.533850,3.132058,-1.650290,-8.306575,0.272176,-0.839425,-4.692004,-0.744873,0.717529,0.231201,0.031113,0.021953,0.005499,0.999715,0.001361,-0.004197,-0.023458,0.447610,-0.708331,-0.151620,-0.524333
05597,NaN,4.260649,1.653886,0.493094,3.103584,-1.546999,-6.795732,-0.116874,-0.914407,-4.860986,-0.784424,0.681152,0.246582,0.042969,0.015500,0.005118,0.999694,-0.000584,-0.004572,-0.024302,0.433022,-0.707078,-0.170538,-0.532399
05598,NaN,5.995127,0.972550,0.099213,2.908359,-1.690099,-4.755581,-0.350417,-0.893914,-5.019853,-0.817139,0.629883,0.260010,0.060165,0.008219,0.001245,0.999674,-0.001752,-0.004469,-0.025097,0.417504,-0.705698,-0.189243,-0.540248
05599,NaN,8.176322,-0.941613,1.452871,2.874945,0.352260,-1.973989,-0.455745,-0.845148,-5.159171,-0.848145,0.591309,0.264893,0.081422,-0.011486,0.014898,0.999656,-0.002278,-0.004225,-0.025793,0.400370,-0.703797,-0.207911,-0.548769
05600,NaN,10.915823,-3.680293,2.444180,1.978991,2.736012,1.467437,-0.447911,-0.788406,-5.198072,-0.876709,0.546387,0.282471,0.108056,-0.039566,0.024956,0.999652,-0.002239,-0.003942,-0.025987,0.383560,-0.701199,-0.226491,-0.556690
05601,NaN,13.573671,-6.496361,3.468138,0.751245,5.455920,4.612663,-0.236917,-0.714967,-5.226747,-0.905029,0.497070,0.285156,0.133853,-0.068437,0.035242,0.999651,-0.001184,-0.003574,-0.026131,0.366554,-0.697466,-0.245401,-0.564764
05602,NaN,13.758173,-9.226123,2.023824,-2.729014,6.523405,5.301392,-0.060011,-0.692745,-5.328409,-0.927002,0.445557,0.302979,0.134988,-0.095875,0.020737,0.999639,-0.000300,-0.003463,-0.026639,0.350302,-0.692732,-0.265006,-0.571999
05603,NaN,13.799888,-10.718274,0.401255,-5.467899,6.735211,5.357741,-0.220798,-0.736625,-5.428092,-0.946777,0.392090,0.314453,0.135007,-0.110869,0.004635,0.999624,-0.001104,-0.003683,-0.027137,0.332230,-0.687759,-0.284258,-0.579489
05604,NaN,16.314961,-12.537468,0.677497,-6.904546,8.726849,7.504709,-0.874425,-0.823157,-5.256194,-0.962158,0.340576,0.336670,0.159750,-0.129570,0.007998,0.999637,-0.004372,-0.004115,-0.026278,0.312690,-0.683864,-0.301076,-0.586437
05605,NaN,20.993106,-16.083231,-0.396253,-10.307653,11.165993,11.831155,-1.769925,-1.003375,-4.790156,-0.973389,0.291260,0.350098,0.206011,-0.165818,-0.001470,0.999661,-0.008849,-0.005016,-0.023948,0.290380,-0.682117,-0.313589,-0.593345
05606,NaN,23.491710,-17.364222,-3.565352,-13.537500,10.784898,13.985409,-2.264938,-1.116321,-4.046118,-0.982422,0.239746,0.376465,0.231522,-0.178728,-0.032350,0.999716,-0.011324,-0.005581,-0.020229,0.268804,-0.682166,-0.322216,-0.598809
05607,NaN,22.856258,-17.490520,-4.409687,-14.553179,11.209050,12.775325,-2.284121,-1.208971,-3.176019,-0.976807,0.198975,0.394287,0.225995,-0.178986,-0.040697,0.999790,-0.011420,-0.006044,-0.015879,0.249066,-0.683581,-0.327608,-0.602791
05608,NaN,20.864482,-20.639072,-2.956516,-16.159207,14.944258,9.821735,-2.160760,-1.090194,-2.263261,-0.984375,0.171143,0.414062,0.206438,-0.209030,-0.026187,0.999863,-0.010803,-0.005451,-0.011316,0.233023,-0.685742,-0.330160,-0.605353
05609,NaN,17.199459,-19.706687,0.640186,-13.128287,16.903791,5.235990,-1.809985,-0.774850,-1.460467,-0.979492,0.154053,0.422852,0.170519,-0.198243,0.008855,0.999925,-0.009050,-0.003874,-0.007302,0.220879,-0.687724,-0.330410,-0.607517
05610,NaN,14.375748,-17.642875,1.492282,-11.027777,15.924040,2.227353,-1.381362,-0.464394,-0.796690,-0.976807,0.134766,0.440186,0.143016,-0.176889,0.016476,0.999966,-0.006907,-0.002322,-0.003983,0.212917,-0.689306,-0.329472,-0.609075
05611,NaN,13.261299,-18.323059,1.469212,-11.435446,16.354548,0.934938,-0.848413,-0.239284,-0.146646,-0.974609,0.134766,0.444580,0.132460,-0.183263,0.015628,0.999990,-0.004242,-0.001196,-0.000733,0.209097,-0.690693,-0.327426,-0.609929
05612,NaN,11.977027,-18.056728,1.178915,-11.385071,15.796472,-0.234885,-0.385990,-0.177116,0.529207,-0.979004,0.136719,0.448730,0.120237,-0.180226,0.012244,0.999994,-0.001930,-0.000886,0.002646,0.209070,-0.692485,-0.324621,-0.609406
05613,NaN,11.016623,-17.990331,0.960467,-11.404195,15.415636,-0.967518,-0.163880,-0.119361,1.252052,-0.977295,0.149658,0.452881,0.111284,-0.179201,0.009818,0.999980,-0.000819,-0.000597,0.006260,0.212222,-0.695054,-0.319624,-0.608031
05614,NaN,11.698505,-15.452467,1.255331,-9.213854,13.892532,0.152298,-0.058988,-0.022209,1.885313,-0.973633,0.168945,0.457031,0.118433,-0.153409,0.012612,0.999956,-0.000295,-0.000111,0.009426,0.217688,-0.698152,-0.312918,-0.606034
05615,NaN,10.378814,-7.911647,-20.289384,-19.111081,-6.414555,3.437844,-0.751484,-0.949599,2.612350,-0.965576,0.181641,0.476074,0.105777,-0.078504,-0.202099,0.999896,-0.003757,-0.004748,0.013061,0.221713,-0.705885,-0.302186,-0.601044
05616,NaN,21.105892,12.277794,3.788341,13.288489,-3.189852,10.772758,-2.887331,-0.389007,1.975253,-0.959229,0.179443,0.486816,0.209757,0.125387,0.036495,0.999845,-0.014436,-0.001945,0.009876,0.216821,-0.713116,-0.286939,-0.601764
05617,NaN,11.010291,1.432103,1.929484,3.701157,1.633965,0.704742,-3.215615,0.507152,3.242718,-0.966553,0.205322,0.486328,0.109896,0.016409,0.018763,0.999736,-0.016077,0.002536,0.016212,0.216051,-0.719562,-0.264829,-0.604499
05618,NaN,14.512377,6.461037,-13.535165,-4.156536,-11.914239,6.810068,-0.842100,0.263451,2.920897,-0.954102,0.222412,0.494873,0.143986,0.066148,-0.135818,0.999884,-0.004210,0.001317,0.014604,0.222157,-0.723447,-0.251477,-0.603350
05619,NaN,13.438235,11.814129,-6.957365,4.249132,-12.369264,4.240428,0.205364,-0.229021,2.776535,-0.948486,0.243652,0.496582,0.132804,0.120064,-0.069298,0.999902,0.001027,-0.001145,0.013882,0.231226,-0.727346,-0.242098,-0.599076
05620,NaN,15.126857,5.960247,4.995166,10.151252,-0.534317,3.823573,-0.029246,0.122653,2.782435,-0.943115,0.271484,0.504883,0.150450,0.061707,0.049850,0.999903,-0.000146,0.000613,0.013912,0.239565,-0.730298,-0.231742,-0.596296
05621,NaN,16.323150,6.340913,-6.295070,2.263379,-8.201228,6.736561,-0.014113,-0.005049,2.776839,-0.930664,0.288818,0.513184,0.162332,0.065663,-0.062951,0.999904,-0.000071,-0.000025,0.013884,0.247928,-0.733478,-0.221363,-0.592908
05622,NaN,21.885575,6.883973,3.642309,11.544741,-2.671316,10.166795,-0.947612,-0.151312,2.758944,-0.916260,0.303711,0.523682,0.217849,0.072022,0.036252,0.999893,-0.004738,-0.000757,0.013794,0.252423,-0.738066,-0.208616,-0.589933
05623,NaN,28.900993,2.833657,11.040367,16.691049,4.522202,15.995791,-0.945324,0.004348,2.745147,-0.910645,0.325195,0.521240,0.288582,0.032821,0.110249,0.999895,-0.004726,0.000022,0.013725,0.257090,-0.742019,-0.195486,-0.587450
05624,NaN,27.347993,5.455564,9.565271,17.173276,0.836879,14.134932,-1.169253,0.206747,2.631628,-0.900391,0.342285,0.533936,0.272824,0.058705,0.095035,0.999896,-0.005846,0.001034,0.013158,0.260642,-0.745399,-0.182018,-0.585931
05625,NaN,19.173580,2.643300,0.780815,6.997335,-2.501050,8.075419,-1.358580,-0.189101,2.511285,-0.888184,0.361328,0.538086,0.191376,0.028891,0.007799,0.999898,-0.006793,-0.000945,0.012556,0.262642,-0.749876,-0.168534,-0.583354
05626,NaN,12.147717,-3.093833,-4.381037,-1.879622,-0.823690,3.306581,-1.167482,-0.306501,2.356427,-0.880127,0.378418,0.546387,0.121899,-0.029758,-0.043448,0.999912,-0.005837,-0.001532,0.011782,0.264841,-0.754213,-0.156697,-0.580058
05627,NaN,5.955768,-6.182591,-6.567307,-6.836032,0.760855,-1.475308,-0.847127,-0.390682,2.147215,-0.867676,0.389160,0.552734,0.060347,-0.061458,-0.065295,0.999931,-0.004236,-0.001953,0.010736,0.267436,-0.758030,-0.146279,-0.576603
05628,NaN,4.587613,-7.152481,-6.855903,-7.852275,1.471376,-2.370782,-0.379024,-0.362066,1.831038,-0.859375,0.399902,0.563232,0.046653,-0.071230,-0.068340,0.999955,-0.001895,-0.001810,0.009155,0.270987,-0.760876,-0.138740,-0.573049
05629,NaN,6.573375,-7.440085,-5.304830,-6.054083,2.338578,-0.615813,-0.076771,-0.241567,1.454865,-0.847168,0.414795,0.558838,0.066337,-0.073940,-0.052940,0.999973,-0.000384,-0.001208,0.007274,0.274657,-0.762606,-0.133005,-0.570356
05630,NaN,8.413398,-7.616769,-3.742608,-4.231549,3.091888,0.926977,0.105518,-0.166535,1.068107,-0.849609,0.423340,0.565186,0.084570,-0.075697,-0.037396,0.999985,0.000528,-0.000833,0.005341,0.277976,-0.763625,-0.129476,-0.568192
05631,NaN,9.061628,-7.229890,-1.688544,-2.126516,3.795607,1.064179,0.230415,-0.060954,0.731817,-0.838867,0.427734,0.567383,0.090885,-0.071947,-0.016941,0.999993,0.001152,-0.000305,0.003659,0.280918,-0.763900,-0.127143,-0.566900
05632,NaN,8.823804,-5.895086,-0.543473,-0.577172,3.344299,0.256535,0.119069,0.050944,0.462532,-0.834717,0.434082,0.560791,0.088373,-0.058743,-0.005492,0.999997,0.000595,0.000255,0.002313,0.282701,-0.763871,-0.125658,-0.566384
05633,NaN,8.769113,-5.378441,-0.890129,-0.590956,2.694375,0.137606,-0.059652,0.175369,0.280373,-0.839355,0.438477,0.558594,0.087759,-0.053664,-0.008962,0.999999,-0.000298,0.000877,0.001402,0.283420,-0.763586,-0.123874,-0.566802
05634,NaN,8.687090,-5.171224,-1.632283,-1.100516,2.088805,0.152108,-0.119231,0.229141,0.173194,-0.839111,0.436279,0.558594,0.086897,-0.051647,-0.016392,0.999999,-0.000596,0.001146,0.000866,0.283584,-0.763203,-0.122566,-0.567521
05635,NaN,8.231699,-4.900874,-1.540159,-1.043268,1.962607,-0.367516,-0.034174,0.226195,0.094957,-0.837158,0.436279,0.562988,0.082323,-0.048972,-0.015486,0.999999,-0.000171,0.001131,0.000475,0.283915,-0.762618,-0.121479,-0.568374
05636,NaN,7.798507,-4.035499,-0.694577,-0.079461,1.790921,-1.188844,0.014948,0.189077,0.055465,-0.843506,0.436279,0.558594,0.077990,-0.040333,-0.007023,1.000000,0.000075,0.000945,0.000277,0.284231,-0.762083,-0.121056,-0.569023
05637,NaN,8.588718,-2.802611,0.330471,1.610194,1.250173,-1.005064,0.001814,0.216656,0.051389,-0.841309,0.436279,0.550049,0.085898,-0.028004,0.003211,0.999999,0.000009,0.001083,0.000257,0.284576,-0.761445,-0.120243,-0.569877
05638,NaN,9.192249,-1.749451,0.117409,2.154787,0.173295,-0.707820,-0.097116,0.287306,0.100072,-0.837158,0.442627,0.552002,0.091933,-0.017448,0.001051,0.999999,-0.000486,0.001437,0.000500,0.284651,-0.760814,-0.119191,-0.570902
05639,NaN,9.275738,-1.153261,-0.833203,1.709604,-0.892844,-0.628812,-0.203443,0.269449,0.216964,-0.839355,0.440674,0.552246,0.092758,-0.011441,-0.008445,0.999998,-0.001017,0.001347,0.001085,0.284701,-0.760405,-0.117069,-0.571860
05640,NaN,9.393306,-0.993092,-1.673587,1.149593,-1.546980,-0.415533,-0.246233,0.191725,0.371441,-0.832764,0.438477,0.547852,0.093935,-0.009777,-0.016814,0.999997,-0.001231,0.000959,0.001857,0.284925,-0.760413,-0.114694,-0.572219
05641,NaN,9.479086,-1.158756,-2.068461,0.785737,-1.692412,-0.221416,-0.179502,0.103152,0.546102,-0.843750,0.444824,0.554199,0.094811,-0.011347,-0.020723,0.999996,-0.000898,0.000516,0.002731,0.285892,-0.760624,-0.111633,-0.572062
05642,NaN,9.596609,-1.286357,-2.204711,0.677602,-1.736698,-0.058988,-0.004778,0.028932,0.758228,-0.835449,0.449219,0.552002,0.096011,-0.012500,-0.022061,0.999993,-0.000024,0.000145,0.003791,0.288044,-0.760956,-0.108708,-0.571104
05643,NaN,9.800886,-0.921517,-2.479825,0.746266,-2.297244,0.047383,0.159724,-0.040038,0.989434,-0.824951,0.461914,0.549805,0.098058,-0.008710,-0.024786,0.999987,0.000799,-0.000200,0.004947,0.291473,-0.761306,-0.105151,-0.569560
05644,NaN,10.460296,1.098780,-2.956183,1.638309,-4.404051,0.050514,0.279368,-0.091965,1.258909,-0.816895,0.472656,0.553955,0.104544,0.011687,-0.029498,0.999979,0.001397,-0.000460,0.006294,0.296055,-0.761798,-0.101300,-0.567234
05645,NaN,11.633713,4.262310,-2.638002,3.919169,-7.098072,-0.080066,0.150385,-0.201606,1.545977,-0.810791,0.487793,0.555908,0.116029,0.043541,-0.026230,0.999969,0.000752,-0.001008,0.007730,0.300910,-0.762843,-0.095861,-0.564211
05646,NaN,14.334513,2.083493,-4.717403,2.239821,-7.201895,3.423007,0.044207,-0.255805,1.734130,-0.791992,0.498291,0.562256,0.143217,0.022087,-0.046986,0.999962,0.000221,-0.001279,0.008671,0.305824,-0.764291,-0.089766,-0.560601
05647,NaN,15.994870,-1.314758,-6.083518,0.279743,-5.820032,6.330836,0.204223,-0.393426,1.949490,-0.777344,0.515381,0.562012,0.160186,-0.011525,-0.060533,0.999950,0.001021,-0.001967,0.009747,0.311850,-0.765855,-0.083268,-0.556131
05648,NaN,18.124201,-0.702615,-4.980492,2.480729,-6.418108,7.692253,0.866749,-0.384153,2.189475,-0.765381,0.543213,0.563721,0.181398,-0.004826,-0.049481,0.999929,0.004334,-0.001921,0.010947,0.321063,-0.766419,-0.077901,-0.550864
05649,NaN,18.837284,2.714329,-5.867300,3.955936,-10.105394,6.885878,1.442143,-0.357725,2.426644,-0.740479,0.569092,0.552979,0.188126,0.029847,-0.058128,0.999899,0.007210,-0.001789,0.012133,0.333056,-0.765899,-0.072980,-0.545111
05650,NaN,20.207383,5.707994,-8.345326,4.351642,-14.572387,6.897426,1.853598,-0.458104,2.682940,-0.719971,0.598877,0.541748,0.201467,0.060553,-0.082441,0.999864,0.009268,-0.002290,0.013414,0.347243,-0.764927,-0.068524,-0.538157
05651,NaN,23.687534,3.450037,-5.256298,7.555761,-12.386480,9.937134,2.306645,-0.340577,3.013261,-0.697754,0.639648,0.526367,0.236402,0.038664,-0.051730,0.999819,0.011533,-0.001703,0.015065,0.363896,-0.762688,-0.063721,-0.530873
05652,NaN,24.107834,3.207106,-2.961519,9.848066,-11.397938,9.507867,2.602858,-0.188282,3.211661,-0.666748,0.676025,0.504395,0.240545,0.036316,-0.028934,0.999786,0.013013,-0.000941,0.016057,0.382196,-0.759304,-0.058724,-0.523388
05653,NaN,23.357648,5.271174,-0.944847,12.476999,-11.760415,6.927004,2.823505,-0.044806,3.298093,-0.637451,0.706055,0.484863,0.232666,0.056679,-0.008615,0.999764,0.014116,-0.000224,0.016489,0.401263,-0.754776,-0.053658,-0.516160
05654,NaN,20.754846,6.076194,1.251527,13.682058,-10.297720,3.452598,2.958564,0.061610,3.295995,-0.610840,0.744629,0.450195,0.206516,0.063977,0.013382,0.999755,0.014792,0.000308,0.016479,0.420840,-0.749373,-0.048731,-0.508880
05655,NaN,16.008015,7.458268,2.268818,13.129263,-8.956245,-1.786728,2.563068,0.008656,2.994506,-0.583740,0.770508,0.428467,0.158944,0.076669,0.023655,0.999806,0.012815,0.000043,0.014972,0.437699,-0.744499,-0.044025,-0.502198
05656,NaN,10.414852,8.912315,3.859402,12.408238,-6.633378,-7.617452,1.468649,-0.226409,2.264506,-0.562744,0.787598,0.424072,0.103088,0.090007,0.039370,0.999908,0.007343,-0.001132,0.011322,0.448750,-0.742276,-0.039786,-0.496051
05657,NaN,6.164039,3.089325,4.065713,7.531795,-1.342605,-7.459411,0.848725,-0.301181,1.666823,-0.541748,0.804688,0.408936,0.061320,0.031232,0.040882,0.999955,0.004244,-0.001506,0.008334,0.455581,-0.741362,-0.036398,-0.491430
05658,NaN,-0.558814,1.176375,2.632771,2.120101,1.439431,-11.248091,2.136651,-0.183222,1.502631,-0.535889,0.823975,0.391602,-0.005699,0.011439,0.026446,0.999914,0.010683,-0.000916,0.007513,0.467109,-0.737148,-0.036504,-0.486919
05659,NaN,-4.715279,2.366075,1.973415,0.083543,2.049735,-15.058331,2.953976,0.033561,0.962182,-0.530029,0.841309,0.356934,-0.047262,0.023139,0.020086,0.999879,0.014769,0.000168,0.004811,0.479896,-0.730194,-0.040072,-0.484677
05660,NaN,-9.788208,-1.271033,-1.532880,-6.862600,3.503981,-16.168853,3.333753,-0.111375,0.406701,-0.523682,0.847656,0.322754,-0.097848,-0.012651,-0.015595,0.999859,0.016668,-0.000557,0.002033,0.492950,-0.722435,-0.046939,-0.482581
05661,NaN,-9.603982,-3.101816,-5.217615,-10.154802,1.437259,-14.700421,3.711198,-0.409130,-0.142214,-0.526123,0.858398,0.292480,-0.095954,-0.029972,-0.052935,0.999825,0.018555,-0.002046,-0.000711,0.505473,-0.714071,-0.057424,-0.480939
05662,NaN,-6.658764,3.126799,-5.004605,-4.799414,-2.746201,-16.782678,3.653439,-0.662688,-0.796921,-0.532715,0.867188,0.266602,-0.066295,0.032442,-0.049681,0.999820,0.018266,-0.003313,-0.003984,0.516306,-0.706066,-0.070730,-0.479476
05663,NaN,-3.293769,7.975836,-0.921430,2.570527,-3.030717,-17.527144,3.192104,-0.754533,-1.483858,-0.545654,0.869385,0.242920,-0.032312,0.080134,-0.008060,0.999838,0.015960,-0.003772,-0.007419,0.523360,-0.698985,-0.085626,-0.479773
05664,NaN,-0.121357,8.139597,2.773284,6.683307,-1.182115,-15.093718,2.597116,-0.818034,-1.930255,-0.553955,0.860840,0.230225,-0.000547,0.081034,0.028784,0.999861,0.012985,-0.004090,-0.009651,0.527371,-0.693219,-0.100742,-0.480811
05665,NaN,1.115622,6.954313,5.638660,8.262271,1.376020,-13.165112,1.932749,-0.876660,-2.311942,-0.575195,0.856689,0.217285,0.011706,0.068860,0.057105,0.999877,0.009663,-0.004383,-0.011559,0.527663,-0.688973,-0.115773,-0.483202
05666,NaN,0.907107,4.865660,6.421055,7.208349,3.078362,-11.883783,1.091090,-1.013844,-2.642708,-0.593994,0.837402,0.219482,0.009383,0.048183,0.064521,0.999885,0.005455,-0.005069,-0.013213,0.524377,-0.686925,-0.130184,-0.486019
05667,NaN,0.191419,2.557041,5.213069,4.625633,3.290688,-11.048012,0.304014,-1.219988,-2.899396,-0.619141,0.820312,0.226074,0.001966,0.025463,0.052181,0.999875,0.001520,-0.006100,-0.014496,0.517122,-0.687093,-0.144085,-0.489621
05668,NaN,0.091554,1.002368,4.146968,2.918482,3.080801,-10.261618,-0.248517,-1.355197,-3.090135,-0.642090,0.796631,0.239258,0.000790,0.010062,0.041463,0.999857,-0.001243,-0.006776,-0.015450,0.507641,-0.688717,-0.157587,-0.493089
05669,NaN,0.742598,-0.798029,3.246619,1.446629,2.927037,-8.779185,-0.693463,-1.355042,-3.290767,-0.671631,0.775391,0.252197,0.007074,-0.007986,0.032543,0.999836,-0.003467,-0.006775,-0.016453,0.495568,-0.691072,-0.170596,-0.497723
05670,NaN,2.107576,-2.091180,2.558499,0.711729,2.629833,-6.995430,-0.801711,-1.211585,-3.523400,-0.696533,0.751709,0.260986,0.020548,-0.021174,0.025795,0.999818,-0.004008,-0.006058,-0.017616,0.482894,-0.692930,-0.183758,-0.502885
05671,NaN,3.649522,-3.546670,1.642565,-0.279173,2.287700,-4.987665,-0.676957,-1.060379,-3.762197,-0.723389,0.719727,0.278564,0.035732,-0.036087,0.016738,0.999803,-0.003385,-0.005302,-0.018810,0.469591,-0.693592,-0.197555,-0.509300
05672,NaN,4.962965,-4.463637,0.961609,-0.950469,2.042000,-3.456555,-0.294914,-0.904417,-3.931438,-0.752441,0.685303,0.274658,0.048695,-0.045585,0.009904,0.999795,-0.001474,-0.004522,-0.019656,0.457555,-0.692549,-0.212534,-0.515605
05673,NaN,5.403265,-4.747054,1.314157,-1.026611,2.582748,-3.050679,0.048738,-0.753281,-4.046506,-0.774902,0.651123,0.287842,0.053008,-0.048553,0.013331,0.999788,0.000244,-0.003766,-0.020231,0.445967,-0.689887,-0.228275,-0.522551
05674,NaN,5.176585,-4.837023,0.851693,-1.637264,2.434957,-3.308669,0.159765,-0.760012,-4.078738,-0.801758,0.621094,0.292480,0.050732,-0.049419,0.008672,0.999785,0.000799,-0.003800,-0.020392,0.434885,-0.686697,-0.244420,-0.528754
05675,NaN,5.890523,-4.935331,0.512055,-1.886864,2.282204,-2.703476,-0.001929,-0.875725,-4.028649,-0.824219,0.586914,0.290771,0.057872,-0.050526,0.005376,0.999788,-0.000010,-0.004378,-0.020142,0.422646,-0.683904,-0.260012,-0.534826
05676,NaN,7.542995,-6.179615,0.674092,-2.572838,3.111345,-0.911821,-0.340716,-0.900842,-3.993013,-0.840332,0.548340,0.303955,0.074145,-0.063273,0.007184,0.999789,-0.001703,-0.004504,-0.019964,0.409530,-0.681681,-0.274617,-0.540538
05677,NaN,9.713182,-8.673816,0.249141,-4.555410,4.185473,1.648062,-0.692479,-0.935975,-3.981366,-0.869141,0.516357,0.315186,0.095366,-0.088638,0.003245,0.999785,-0.003462,-0.004680,-0.019905,0.394635,-0.679974,-0.288072,-0.546730
05678,NaN,11.815810,-10.963383,-0.394217,-6.626735,5.143723,3.955225,-0.922235,-0.934781,-3.956057,-0.876221,0.467041,0.324463,0.115974,-0.111957,-0.002884,0.999783,-0.004611,-0.004674,-0.019779,0.379240,-0.678485,-0.300796,-0.552591
05679,NaN,13.675503,-12.579392,-0.152386,-7.843134,6.661298,5.658183,-1.006149,-0.909274,-3.864364,-0.900879,0.430420,0.339844,0.134294,-0.128408,-0.000268,0.999790,-0.005030,-0.004546,-0.019320,0.363353,-0.676911,-0.312672,-0.558572
05680,NaN,15.537574,-13.540140,0.745701,-8.224278,8.479958,7.090160,-1.116792,-0.890038,-3.613014,-0.903809,0.391846,0.355469,0.152859,-0.138131,0.008907,0.999811,-0.005584,-0.004450,-0.018064,0.348009,-0.675630,-0.323354,-0.563787
05681,NaN,16.983591,-14.649620,1.540077,-8.864400,10.350912,8.066180,-1.203085,-0.797603,-3.286444,-0.911133,0.353271,0.364502,0.167334,-0.149161,0.016963,0.999839,-0.006015,-0.003988,-0.016431,0.333063,-0.674513,-0.332260,-0.568951
05682,NaN,17.503143,-15.495826,0.755146,-10.252780,10.717584,8.270991,-1.184743,-0.640723,-2.905634,-0.916748,0.329834,0.369141,0.172729,-0.157428,0.009035,0.999872,-0.005923,-0.003203,-0.014528,0.319682,-0.673374,-0.339729,-0.573546
05683,NaN,17.007438,-14.709429,-0.261942,-10.495191,9.837363,7.471335,-1.116220,-0.449104,-2.372930,-0.928711,0.303955,0.380127,0.168317,-0.149108,-0.001412,0.999912,-0.005581,-0.002245,-0.011864,0.308154,-0.672323,-0.345025,-0.577911
05684,NaN,15.388756,-12.904538,-1.632938,-10.131121,7.872346,5.723665,-1.289299,-0.313392,-1.813853,-0.921631,0.282471,0.382568,0.152733,-0.130535,-0.015251,0.999937,-0.006446,-0.001567,-0.009069,0.298005,-0.672022,-0.347874,-0.581862
05685,NaN,14.133071,-12.871462,-2.796113,-10.970144,7.076168,4.428436,-1.571099,-0.266746,-1.232367,-0.925293,0.265381,0.387207,0.140569,-0.129796,-0.026757,0.999949,-0.007855,-0.001334,-0.006162,0.288591,-0.672934,-0.347624,-0.585690
05686,NaN,13.001281,-13.552555,-2.366122,-11.345681,7.960640,3.079161,-1.664723,-0.304632,-0.623069,-0.926758,0.248291,0.400146,0.129624,-0.136119,-0.022332,0.999959,-0.008324,-0.001523,-0.003115,0.280611,-0.675096,-0.345287,-0.588455
05687,NaN,12.242337,-12.500605,0.084605,-8.983938,9.377438,1.913117,-1.693599,-0.295460,-0.034754,-0.924561,0.241699,0.404541,0.122399,-0.125013,0.002085,0.999963,-0.008468,-0.001477,-0.000174,0.274310,-0.678238,-0.340619,-0.590530
05688,NaN,12.814933,-15.330387,-2.248973,-12.427769,9.585199,2.755894,-1.320641,-0.413915,0.579433,-0.922607,0.250244,0.423828,0.128638,-0.153075,-0.021213,0.999972,-0.006603,-0.002070,0.002897,0.270816,-0.682218,-0.335329,-0.590586
05689,NaN,14.594533,-29.993732,-16.615895,-32.349397,8.335854,6.700481,-0.964202,-1.219310,1.604819,-0.910156,0.263184,0.427979,0.149353,-0.299542,-0.163811,0.999938,-0.004821,-0.006096,0.008024,0.270350,-0.689762,-0.328413,-0.585904
05690,NaN,21.843889,-24.691252,-6.654022,-20.807760,13.523045,12.884937,0.492617,-0.383619,2.686147,-0.902344,0.286621,0.427734,0.221855,-0.243784,-0.066720,0.999905,0.002463,-0.001918,0.013430,0.279249,-0.694544,-0.321097,-0.580107
05691,NaN,20.561778,0.767275,3.690575,5.599052,4.590418,9.797104,1.225868,0.468983,3.134110,-0.895020,0.321045,0.416504,0.205552,0.010670,0.036483,0.999856,0.006129,0.002345,0.015670,0.293686,-0.696409,-0.312888,-0.575207
05692,NaN,14.885411,28.709759,-3.900357,22.188972,-19.677260,3.656117,1.937397,0.613038,2.589512,-0.887207,0.346680,0.411865,0.145003,0.289354,-0.036656,0.999865,0.009687,0.003065,0.012947,0.308786,-0.695738,-0.308517,-0.570453
05693,NaN,9.224818,25.985517,-0.670534,21.392435,-15.998632,-2.944545,-0.040754,0.335220,2.165997,-0.877197,0.368164,0.415771,0.089415,0.260832,-0.006910,0.999940,-0.000204,0.001676,0.010830,0.315565,-0.698132,-0.300144,-0.568281
05694,NaN,10.513964,3.831144,-2.105597,3.608041,-3.488755,0.407835,-1.272982,0.020370,2.616270,-0.864746,0.380859,0.419922,0.104626,0.039547,-0.021316,0.999894,-0.006365,0.000102,0.013081,0.318541,-0.703916,-0.287346,-0.566097
05695,NaN,9.409105,4.403121,-4.939742,2.213221,-6.285226,-0.436540,-1.337637,-0.067755,2.933007,-0.858887,0.398193,0.424072,0.093452,0.045073,-0.049665,0.999870,-0.006688,-0.000339,0.014664,0.322123,-0.710337,-0.273146,-0.563072
05696,NaN,10.960278,8.910518,2.617797,10.752918,-3.649596,-1.014287,-2.357673,-0.220786,2.950058,-0.840088,0.413086,0.443359,0.108241,0.091010,0.025233,0.999821,-0.011788,-0.001104,0.014749,0.321684,-0.718639,-0.256354,-0.560679
05697,NaN,18.947828,-7.006760,-0.733110,-0.725140,4.136632,9.960534,-2.514847,-0.408504,3.005634,-0.830078,0.427979,0.447266,0.190517,-0.067291,-0.006085,0.999806,-0.012573,-0.002042,0.015027,0.320557,-0.727511,-0.238962,-0.557555
05698,NaN,18.746302,-8.653226,2.679003,0.887530,7.512217,9.583804,-1.423949,0.003770,2.878789,-0.815430,0.440674,0.462158,0.188681,-0.083629,0.027389,0.999871,-0.007119,0.000019,0.014393,0.323354,-0.733111,-0.224501,-0.554608
05699,NaN,20.834129,1.192681,6.992157,11.620518,3.412370,8.562907,-1.307066,-0.233909,2.452516,-0.801025,0.457764,0.464111,0.208089,0.014937,0.070074,0.999903,-0.006535,-0.001170,0.012262,0.325151,-0.738516,-0.212049,-0.551278
05700,NaN,26.211622,2.834538,-0.046003,10.007362,-3.386318,14.341829,-1.288938,-0.385082,2.292223,-0.790527,0.466309,0.477051,0.261769,0.031345,-0.000151,0.999912,-0.006444,-0.001925,0.011461,0.326260,-0.744021,-0.200655,-0.547471
05701,NaN,23.672414,1.645902,-2.433874,7.198207,-4.422322,12.494715,-1.081027,-0.603591,2.343242,-0.773682,0.479248,0.489746,0.236583,0.019102,-0.023723,0.999912,-0.005405,-0.003018,0.011716,0.328031,-0.749659,-0.189705,-0.542604
05702,NaN,15.287922,-6.240521,-2.901043,-0.625936,1.255979,6.893545,-0.766944,-0.637294,2.322014,-0.761475,0.496338,0.493896,0.153682,-0.060733,-0.028287,0.999920,-0.003835,-0.003186,0.011610,0.330814,-0.754772,-0.179967,-0.537115
05703,NaN,8.118902,-7.654928,-5.595749,-5.655701,0.888450,1.279884,-0.313824,-0.593247,2.088376,-0.749023,0.509033,0.493652,0.082148,-0.075782,-0.055595,0.999940,-0.001569,-0.002966,0.010442,0.334678,-0.758646,-0.171976,-0.531856
05704,NaN,4.755589,-6.618911,-7.345266,-7.318139,-0.819376,-1.679470,0.174345,-0.496271,1.779209,-0.732422,0.526123,0.495605,0.048324,-0.065697,-0.073391,0.999957,0.000872,-0.002481,0.008896,0.339618,-0.761156,-0.166530,-0.526848
05705,NaN,6.053013,-6.433056,-5.341355,-5.200198,0.212028,-0.898427,0.474407,-0.419814,1.455337,-0.724365,0.539062,0.493408,0.061108,-0.063761,-0.053437,0.999969,0.002372,-0.002099,0.007277,0.344935,-0.762584,-0.162747,-0.522493
05706,NaN,7.716573,-7.543740,-2.196046,-2.959010,2.906681,0.388786,0.572239,-0.291664,1.122392,-0.720215,0.545410,0.489014,0.077619,-0.074940,-0.022062,0.999979,0.002861,-0.001458,0.005612,0.349793,-0.763241,-0.160478,-0.518994
05707,NaN,7.653582,-8.102606,-0.784223,-2.298550,4.207683,0.279675,0.479453,-0.107635,0.822479,-0.711914,0.554199,0.486816,0.076872,-0.080691,-0.007995,0.999989,0.002397,-0.000538,0.004112,0.353733,-0.763278,-0.158579,-0.516849
05708,NaN,7.231933,-7.664167,-1.609086,-2.730281,3.306379,-0.053460,0.279812,0.099535,0.546960,-0.707764,0.558350,0.489014,0.072520,-0.076421,-0.016234,0.999995,0.001399,0.000498,0.002735,0.356281,-0.762941,-0.157053,-0.516062
05709,NaN,7.381337,-7.034513,-3.159528,-3.320103,1.701497,0.188952,0.169626,0.267454,0.297589,-0.714600,0.569092,0.490967,0.073876,-0.070208,-0.031754,0.999998,0.000848,0.001337,0.001488,0.357994,-0.762124,-0.155674,-0.516501
05710,NaN,7.297744,-6.616103,-3.523680,-3.358007,1.124859,0.031323,0.192434,0.362249,0.095573,-0.712158,0.564697,0.484375,0.072945,-0.066092,-0.035433,0.999998,0.000962,0.001811,0.000478,0.359245,-0.760901,-0.155172,-0.517584
05711,NaN,7.223395,-6.637477,-2.702835,-2.876428,1.692112,-0.200115,0.283655,0.418459,-0.089647,-0.716553,0.564941,0.482422,0.072147,-0.066369,-0.027273,0.999997,0.001418,0.002092,-0.000448,0.360525,-0.759185,-0.155296,-0.519174
05712,NaN,7.593555,-6.047507,-1.866905,-1.845919,1.793917,-0.268376,0.370393,0.449700,-0.235808,-0.720703,0.564941,0.473633,0.075822,-0.060530,-0.018952,0.999995,0.001852,0.002248,-0.001179,0.361656,-0.757148,-0.156356,-0.521041
05713,NaN,8.398283,-5.125075,-1.329240,-0.646651,1.396255,-0.004714,0.428670,0.461801,-0.342850,-0.723145,0.569092,0.469482,0.083864,-0.051366,-0.013596,0.999994,0.002143,0.002309,-0.001714,0.362869,-0.754848,-0.157734,-0.523115
05714,NaN,9.041935,-4.165459,-0.958914,0.387997,0.889021,0.141499,0.434182,0.467642,-0.399694,-0.731689,0.567139,0.460693,0.090313,-0.041814,-0.009891,0.999993,0.002171,0.002338,-0.001998,0.363819,-0.752501,-0.159543,-0.525285
05715,NaN,9.391581,-3.273919,-0.785001,1.132316,0.333188,0.094029,0.396564,0.449670,-0.407592,-0.735840,0.564941,0.456543,0.093831,-0.032915,-0.008126,0.999993,0.001983,0.002248,-0.002038,0.364722,-0.750219,-0.161093,-0.527445
05716,NaN,9.527127,-2.544405,-0.771099,1.590371,-0.185861,-0.052019,0.373819,0.394277,-0.352380,-0.738037,0.567139,0.454346,0.095211,-0.025597,-0.007946,0.999995,0.001869,0.001971,-0.001762,0.365501,-0.748194,-0.162694,-0.529288
05717,NaN,9.655041,-2.110770,-0.881119,1.790382,-0.594380,-0.071403,0.347596,0.319927,-0.254906,-0.738037,0.567139,0.447998,0.096509,-0.021215,-0.009002,0.999996,0.001738,0.001600,-0.001275,0.366501,-0.746449,-0.163774,-0.530725
05718,NaN,9.515234,-1.754685,-0.909303,1.908034,-0.848682,-0.321402,0.348297,0.241589,-0.129757,-0.733643,0.564941,0.445801,0.095130,-0.017593,-0.009239,0.999998,0.001741,0.001208,-0.000649,0.367644,-0.745046,-0.164752,-0.531603
05719,NaN,9.292812,-1.520055,-0.941645,1.932662,-1.017880,-0.604955,0.335906,0.140769,0.018760,-0.740234,0.569336,0.439209,0.092923,-0.015176,-0.009507,0.999998,0.001680,0.000704,0.000094,0.369162,-0.744012,-0.165110,-0.531887
05720,NaN,9.219824,-1.511614,-0.841316,1.975360,-0.958272,-0.692513,0.329868,0.052027,0.174999,-0.740234,0.571289,0.441406,0.092209,-0.015022,-0.008462,0.999998,0.001649,0.000260,0.000875,0.370887,-0.743392,-0.165252,-0.531510
05721,NaN,9.180210,-1.484048,-0.684496,2.096407,-0.884127,-0.769984,0.346005,-0.021658,0.345933,-0.733887,0.575684,0.441406,0.091828,-0.014670,-0.006860,0.999997,0.001730,-0.000108,0.001730,0.373161,-0.743032,-0.164724,-0.530584
05722,NaN,9.256880,-1.459752,-0.533598,2.270454,-0.831618,-0.743032,0.348065,-0.074821,0.527930,-0.732178,0.584229,0.439209,0.092609,-0.014344,-0.005326,0.999995,0.001740,-0.000374,0.002640,0.375782,-0.742996,-0.163837,-0.529057
05723,NaN,9.159668,-1.109958,-0.308486,2.649598,-0.925793,-1.017869,0.333599,-0.110832,0.725692,-0.730225,0.588623,0.437012,0.091638,-0.010762,-0.003052,0.999992,0.001668,-0.000554,0.003628,0.378921,-0.743188,-0.162033,-0.527102
05724,NaN,8.671213,-0.725633,-0.258173,2.793644,-1.110254,-1.642900,0.240986,-0.132355,0.954387,-0.721680,0.594971,0.438965,0.086747,-0.006839,-0.002533,0.999988,0.001205,-0.000662,0.004772,0.382211,-0.743828,-0.159382,-0.524626
05725,NaN,8.147825,-0.767557,-0.571510,2.419454,-1.284165,-2.079696,0.073910,-0.156554,1.201597,-0.715820,0.609863,0.427979,0.081527,-0.007184,-0.005654,0.999982,0.000370,-0.000783,0.006008,0.385563,-0.744971,-0.155209,-0.521794
05726,NaN,8.067489,-1.128883,-1.175797,1.843216,-1.540877,-1.940691,-0.114817,-0.195154,1.457162,-0.703125,0.618408,0.438721,0.080766,-0.010707,-0.011673,0.999973,-0.000574,-0.000976,0.007286,0.388767,-0.746797,-0.149865,-0.518358
05727,NaN,8.541751,-1.336620,-2.068787,1.424905,-2.224098,-1.324504,-0.271944,-0.218702,1.699778,-0.684326,0.631348,0.440674,0.085550,-0.012668,-0.020577,0.999962,-0.001360,-0.001093,0.008499,0.392024,-0.749064,-0.143048,-0.514547
05728,NaN,9.703215,-1.406111,-3.365238,1.152925,-3.440313,-0.102554,-0.395797,-0.229681,1.928862,-0.671631,0.639893,0.442871,0.097201,-0.013191,-0.033514,0.999951,-0.001979,-0.001148,0.009644,0.395312,-0.751758,-0.135260,-0.510190
05729,NaN,10.653743,-2.353081,-4.424347,0.453992,-3.906922,1.284153,-0.336708,-0.200740,2.119125,-0.656982,0.650391,0.449219,0.106824,-0.022474,-0.044098,0.999942,-0.001684,-0.001004,0.010595,0.399327,-0.754251,-0.126661,-0.505569
05730,NaN,11.535206,-3.545729,-5.648061,-0.472846,-4.360951,2.768497,-0.167060,-0.166990,2.281829,-0.640137,0.663330,0.449219,0.115794,-0.034185,-0.056355,0.999934,-0.000835,-0.000835,0.011409,0.404325,-0.756387,-0.117969,-0.500482
05731,NaN,12.276931,-4.334534,-6.412357,-0.871258,-4.772419,3.865240,0.140150,-0.095827,2.413105,-0.621582,0.684814,0.453125,0.123311,-0.041815,-0.064094,0.999927,0.000701,-0.000479,0.012065,0.410832,-0.757645,-0.109250,-0.495232
05732,NaN,13.302682,-3.944231,-7.281899,-0.481123,-6.149846,4.591469,0.488872,-0.045632,2.544591,-0.607178,0.701904,0.437988,0.133529,-0.037567,-0.072882,0.999916,0.002444,-0.000228,0.012723,0.418918,-0.758066,-0.100916,-0.489551
05733,NaN,15.315154,-2.817804,-8.480899,0.644866,-8.566310,5.698646,0.892871,-0.008962,2.709653,-0.579834,0.723145,0.433594,0.153515,-0.025721,-0.084921,0.999898,0.004464,-0.000045,0.013548,0.428901,-0.757453,-0.092755,-0.483430
05734,NaN,17.836526,-1.841597,-10.072639,1.778632,-11.421439,7.197396,1.314778,0.023661,2.900588,-0.556885,0.744629,0.422607,0.178589,-0.015164,-0.100854,0.999873,0.006574,0.000118,0.014502,0.440840,-0.755812,-0.084895,-0.476656
05735,NaN,19.752396,-1.228239,-10.025015,3.555062,-12.788192,7.961877,1.864124,0.147167,3.164984,-0.538574,0.776855,0.411621,0.197602,-0.008220,-0.100485,0.999831,0.009320,0.000736,0.015824,0.455396,-0.752536,-0.077022,-0.469437
05736,NaN,19.876365,0.678087,-8.859033,5.828610,-13.558062,6.192006,2.339628,0.290189,3.497699,-0.498779,0.808838,0.381348,0.198464,0.011291,-0.088764,0.999778,0.011697,0.001451,0.017487,0.472411,-0.747694,-0.068685,-0.461588
05737,NaN,20.490059,0.954409,-8.115770,7.237180,-13.867023,5.739339,2.665874,0.332978,3.786322,-0.469727,0.836914,0.357422,0.204522,0.014502,-0.081327,0.999731,0.013328,0.001665,0.018930,0.491028,-0.741724,-0.059940,-0.452928
05738,NaN,25.140782,-0.579950,-6.883423,10.409086,-14.383857,9.276762,3.111628,0.343958,4.007765,-0.434326,0.875488,0.331299,0.251323,0.000313,-0.069293,0.999677,0.015556,0.001720,0.020037,0.511579,-0.734255,-0.051269,-0.443315
05739,NaN,27.707174,1.390225,-5.478832,14.430082,-15.816571,8.656066,3.613585,0.448618,4.140473,-0.394287,0.905518,0.288086,0.276568,0.020625,-0.055077,0.999620,0.018066,0.002243,0.020700,0.533802,-0.724826,-0.043051,-0.433393
05740,NaN,27.284564,4.992156,-3.173469,17.977550,-15.826406,4.527218,4.066235,0.635933,4.194948,-0.356201,0.928955,0.245117,0.271609,0.056270,-0.031499,0.999568,0.020328,0.003179,0.020972,0.557524,-0.713175,-0.034952,-0.423470
05741,NaN,23.913768,9.455403,-1.632309,19.479330,-15.019788,-2.144760,4.192530,0.881904,3.972919,-0.320557,0.954834,0.202148,0.237123,0.099606,-0.015319,0.999573,0.020960,0.004409,0.019862,0.580575,-0.700066,-0.027411,-0.414837
05742,NaN,19.312495,10.689018,-0.185138,18.212766,-12.105162,-6.818527,4.015840,0.999299,3.559382,-0.280029,0.971924,0.159180,0.191177,0.110325,-0.000617,0.999628,0.020077,0.004996,0.017795,0.601924,-0.686553,-0.020377,-0.407329
05743,NaN,14.994541,11.846619,2.463007,17.513683,-7.978745,-10.724421,3.510219,1.105605,2.943013,-0.257080,0.995605,0.126709,0.148326,0.120210,0.025907,0.999722,0.017549,0.005528,0.014714,0.619613,-0.673920,-0.014388,-0.402125
05744,NaN,10.417454,19.045225,4.315458,19.148068,-5.594455,-19.399512,1.748446,1.107849,1.906322,-0.242188,0.997803,0.109619,0.102598,0.191052,0.044252,0.999901,0.008742,0.005539,0.009531,0.629346,-0.666336,-0.008051,-0.399819
05745,NaN,5.412492,15.345885,6.958320,15.173792,-0.042324,-18.920956,-0.641061,1.019503,0.931182,-0.229248,0.999756,0.116211,0.053761,0.153931,0.068816,0.999971,-0.003205,0.005097,0.004656,0.628742,-0.666388,-0.000793,-0.400762
05746,NaN,0.228774,-1.357964,1.980774,0.533576,1.821040,-8.323088,0.277421,0.561487,1.350379,-0.214600,1.012695,0.109619,0.002435,-0.013591,0.019782,0.999972,0.001387,0.002807,0.006752,0.632347,-0.664367,0.004911,-0.398408
05747,NaN,2.136737,-10.169147,1.354896,-2.841973,2.029477,0.067355,0.579576,0.474258,1.332564,-0.201904,1.014893,0.103271,0.022076,-0.101585,0.013203,0.999971,0.002898,0.002371,0.006663,0.635949,-0.661592,0.010251,-0.397189
05748,NaN,2.432485,-14.978305,-7.479088,-9.663883,-4.605870,3.286777,-0.812846,-0.352695,0.595701,-0.199707,1.012695,0.116211,0.024903,-0.150012,-0.074138,0.999986,-0.004064,-0.001763,0.002978,0.634442,-0.664827,0.012709,-0.394115
05749,NaN,2.552782,-2.222314,-7.338813,-3.295559,-6.982568,-7.426053,-0.758159,-0.566820,-0.566156,-0.206543,1.021240,0.133057,0.025672,-0.022573,-0.073230,0.999985,-0.003791,-0.002834,-0.002831,0.630090,-0.668445,0.010820,-0.395033
05750,NaN,4.076807,7.472921,-1.492309,5.613726,-4.915928,-14.172701,-1.127416,-0.673006,-1.440522,-0.217041,1.019043,0.141602,0.041355,0.074348,-0.015204,0.999953,-0.005637,-0.003365,-0.007202,0.623471,-0.673363,0.006105,-0.397276
05751,NaN,5.314924,8.612256,1.553468,8.674686,-3.400360,-14.057267,-1.793810,-0.842640,-1.978066,-0.238770,1.019043,0.165039,0.053935,0.085728,0.014991,0.999902,-0.008969,-0.004213,-0.009890,0.612573,-0.680723,0.000858,-0.401708
05752,NaN,6.886416,8.483767,2.743343,10.334124,-3.308677,-12.841959,-2.242136,-1.008892,-2.481768,-0.266357,1.003906,0.190918,0.069776,0.084279,0.026837,0.999847,-0.011210,-0.005044,-0.012408,0.599856,-0.689514,-0.006183,-0.405839
05753,NaN,6.891816,4.954033,1.766695,8.033297,-3.259213,-9.781826,-2.641786,-1.190955,-2.930199,-0.296387,0.999756,0.218750,0.069532,0.048756,0.017432,0.999788,-0.013208,-0.005954,-0.014650,0.583841,-0.699698,-0.014231,-0.411521
05754,NaN,6.370490,2.344879,-0.751950,4.942693,-4.272080,-7.822476,-2.485266,-1.395384,-3.343738,-0.328369,0.989014,0.246582,0.064136,0.022287,-0.007355,0.999759,-0.012425,-0.006976,-0.016717,0.568014,-0.709406,-0.024894,-0.416513
05755,NaN,6.916324,-0.026208,-2.853372,2.839001,-5.290601,-5.349619,-1.698235,-1.317766,-3.719659,-0.364502,0.976074,0.265869,0.069325,-0.001790,-0.028066,0.999769,-0.008491,-0.006588,-0.018597,0.553390,-0.716395,-0.038460,-0.423153
05756,NaN,5.977717,-0.680420,-2.758811,1.857900,-4.402194,-5.233455,-0.947780,-1.141088,-4.115324,-0.406982,0.961182,0.276611,0.059774,-0.008164,-0.027211,0.999761,-0.004739,-0.005705,-0.020575,0.540923,-0.720457,-0.054355,-0.430568
05757,NaN,5.142127,-0.938753,-1.488815,1.800628,-2.751633,-5.485985,-0.603689,-1.172812,-4.484133,-0.449463,0.946289,0.291504,0.051279,-0.010583,-0.014556,0.999727,-0.003018,-0.005864,-0.022419,0.528412,-0.723178,-0.073123,-0.438688
05758,NaN,5.880336,-0.435448,-0.389915,3.024553,-2.142515,-5.211108,-0.506289,-1.302020,-4.767497,-0.493896,0.922607,0.300293,0.058701,-0.005764,-0.003503,0.999692,-0.002531,-0.006509,-0.023835,0.515472,-0.725392,-0.092680,-0.446660
05759,NaN,8.054312,0.811639,1.132147,5.719881,-1.909994,-4.296111,-0.319415,-1.328875,-5.089465,-0.549072,0.896973,0.313232,0.080638,0.006084,0.011846,0.999653,-0.001597,-0.006644,-0.025444,0.501916,-0.726514,-0.114587,-0.455114
05760,NaN,9.503037,1.609556,1.823493,7.206130,-1.834239,-3.416754,-0.193467,-1.291880,-5.354454,-0.591309,0.877930,0.326172,0.095296,0.013564,0.018836,0.999620,-0.000967,-0.006459,-0.026769,0.488085,-0.726580,-0.136808,-0.463830
05761,NaN,10.252592,1.913679,1.359441,7.301480,-2.200897,-2.571081,-0.088601,-1.280127,-5.604790,-0.643799,0.839355,0.334961,0.102919,0.016262,0.014245,0.999587,-0.000443,-0.006400,-0.028020,0.473422,-0.725517,-0.160804,-0.472905
05762,NaN,11.191906,1.954230,0.420704,7.003345,-2.807626,-1.310529,0.214573,-1.299428,-5.832405,-0.691895,0.794434,0.348389,0.112395,0.016264,0.004955,0.999553,0.001073,-0.006496,-0.029158,0.459140,-0.723050,-0.185487,-0.481646
05763,NaN,11.191545,2.082866,0.587125,6.833136,-2.267274,-0.977567,0.343590,-1.389904,-6.072598,-0.744385,0.755859,0.352783,0.112434,0.017409,0.006683,0.999513,0.001718,-0.006948,-0.030358,0.443947,-0.719453,-0.212148,-0.490196
05764,NaN,11.461378,2.251671,0.918319,6.865364,-1.617947,-0.459720,0.216204,-1.519331,-6.288541,-0.785645,0.708740,0.364014,0.115172,0.018890,0.010079,0.999476,0.001081,-0.007595,-0.031437,0.427455,-0.715629,-0.238575,-0.498236
05765,NaN,12.227222,2.404919,1.222102,6.990345,-0.944132,0.529882,0.076666,-1.638886,-6.462114,-0.839844,0.653076,0.384033,0.122858,0.020080,0.013235,0.999444,0.000383,-0.008193,-0.032305,0.409102,-0.711209,-0.266032,-0.506009
05766,NaN,13.198495,2.432252,1.348590,6.908959,-0.272896,1.765659,-0.049636,-1.736888,-6.574630,-0.872070,0.593262,0.401855,0.132566,0.019974,0.014630,0.999422,-0.000248,-0.008683,-0.032867,0.389733,-0.706525,-0.292700,-0.513086
05767,NaN,15.335066,1.997493,1.497018,6.645990,0.842627,4.202328,-0.153470,-1.828509,-6.718477,-0.910645,0.522461,0.424072,0.153761,0.014826,0.016362,0.999394,-0.000767,-0.009141,-0.033586,0.368667,-0.700956,-0.320176,-0.519839
05768,NaN,18.681499,0.738272,0.678933,5.255537,1.900098,8.037399,-0.062100,-1.867909,-6.880048,-0.931885,0.449707,0.444336,0.186847,0.000957,0.008534,0.999365,-0.000310,-0.009338,-0.034393,0.347331,-0.694441,-0.347383,-0.525775
05769,NaN,19.898038,0.675362,1.801656,5.014470,4.040806,9.107909,0.159803,-1.783083,-6.981262,-0.961914,0.383301,0.464600,0.198883,-0.000206,0.019792,0.999351,0.000799,-0.008913,-0.034899,0.325794,-0.685918,-0.375615,-0.531307
05770,NaN,20.495209,0.795421,3.304572,4.890461,6.375025,9.341018,-0.069642,-1.785076,-7.049384,-0.967773,0.305908,0.476318,0.204757,0.000746,0.034873,0.999339,-0.000348,-0.008923,-0.035239,0.303250,-0.677052,-0.402283,-0.536477
05771,NaN,22.400025,-1.288269,2.259153,1.588696,8.004695,11.204010,-0.388592,-1.713977,-7.124203,-0.980469,0.233154,0.494385,0.223149,-0.020796,0.024542,0.999327,-0.001943,-0.008568,-0.035613,0.278721,-0.667053,-0.428299,-0.542140
05772,NaN,24.601418,-3.646060,0.581740,-2.464990,9.376957,13.091208,-0.397486,-1.430277,-7.091819,-0.986328,0.156006,0.508545,0.244466,-0.045135,0.007654,0.999344,-0.001987,-0.007150,-0.035451,0.254916,-0.655827,-0.452605,-0.547775
05773,NaN,24.641033,-5.613798,-3.641903,-7.616223,7.792091,13.273464,-0.549968,-1.213925,-6.890249,-0.979492,0.080811,0.524658,0.244494,-0.064681,-0.034761,0.999384,-0.002749,-0.006068,-0.034444,0.230870,-0.643439,-0.475458,-0.553738
05774,NaN,25.022564,-9.839839,-8.283714,-14.859356,6.845115,13.070761,-0.726104,-1.182332,-6.373094,-0.981445,0.014404,0.538574,0.247398,-0.106609,-0.080992,0.999468,-0.003630,-0.005911,-0.031860,0.207944,-0.632022,-0.495084,-0.558748
05775,NaN,25.248316,-17.518922,-8.859756,-22.847817,10.409531,9.992853,-0.280357,-1.365736,-5.574758,-0.964600,-0.041260,0.550049,0.248064,-0.182268,-0.086641,0.999587,-0.001402,-0.006828,-0.027870,0.187585,-0.621668,-0.513539,-0.560908
05776,NaN,23.909991,-22.573687,-4.578832,-25.545610,15.695987,4.438523,0.634943,-1.529025,-4.696402,-0.952393,-0.080078,0.567871,0.234059,-0.231130,-0.044714,0.999690,0.003174,-0.007644,-0.023480,0.172390,-0.613070,-0.531217,-0.558781
05777,NaN,21.125589,-20.829831,1.184745,-21.256012,18.442510,-0.351267,1.362551,-1.370342,-3.853707,-0.938477,-0.110107,0.574951,0.207108,-0.212397,0.011838,0.999768,0.006812,-0.006851,-0.019267,0.161779,-0.605029,-0.548183,-0.554313
05778,NaN,18.040323,-19.115840,2.459966,-18.992053,17.235854,-3.560665,1.541736,-0.949491,-3.015219,-0.929443,-0.123047,0.577148,0.177378,-0.194034,0.023958,0.999845,0.007708,-0.004747,-0.015075,0.155445,-0.598013,-0.562286,-0.549592
05779,NaN,15.539194,-21.573541,-1.071827,-22.528769,13.647629,-6.044341,1.611885,-0.434617,-2.020819,-0.920654,-0.131592,0.581787,0.153228,-0.217197,-0.012130,0.999914,0.008059,-0.002173,-0.010104,0.153214,-0.592008,-0.573193,-0.545437
05780,NaN,13.335516,-24.749562,-1.663688,-25.187103,12.588309,-9.294290,1.763254,-0.141350,-0.983501,-0.914307,-0.129395,0.585938,0.132149,-0.247988,-0.018728,0.999949,0.008816,-0.000707,-0.004917,0.155326,-0.588150,-0.581018,-0.540715
05781,NaN,13.510936,-24.497605,1.167004,-23.960869,14.486200,-10.021453,2.046737,0.169847,0.163575,-0.914795,-0.114502,0.579346,0.135318,-0.244967,0.009048,0.999947,0.010234,0.000849,0.000818,0.162116,-0.586427,-0.585960,-0.535232
