// Start Time: Unknown
// Update Rate: 100.0Hz
// Filter Profile: human (46.1)
// Firmware Version: 4.4.0
PacketCounter,SampleTimeFine,Acc_X,Acc_Y,Acc_Z,FreeAcc_X,FreeAcc_Y,FreeAcc_Z,Gyr_X,Gyr_Y,Gyr_Z,Mag_X,Mag_Y,Mag_Z,VelInc_X,VelInc_Y,VelInc_Z,OriInc_q0,OriInc_q1,OriInc_q2,OriInc_q3,Quat_q0,Quat_q1,Quat_q2,Quat_q3
57987,NaN,-0.444422,-2.268097,10.325453,0.000000,0.000000,0.768098,-0.286595,1.887507,0.653217,0.404053,0.033203,-1.233154,-0.003396,-0.022545,0.103322,0.999949,-0.001433,0.009437,0.003266,0.957163,-0.107546,-0.013405,0.268502
57988,NaN,-1.226478,-3.107496,9.916435,-0.000000,0.000000,0.651295,-0.371580,1.137240,0.537924,0.414307,0.046143,-1.229004,-0.011617,-0.030922,0.099289,0.999978,-0.001858,0.005686,0.002690,0.899025,-0.159545,-0.010600,0.407660
57989,NaN,-0.775373,-3.913726,12.873365,0.378181,-0.312863,3.655775,-0.602916,0.709267,0.551912,0.418213,0.054688,-1.208008,-0.007190,-0.038769,0.128877,0.999985,-0.003015,0.003546,0.002760,0.936372,-0.134952,-0.009411,0.323894
57990,NaN,-0.286615,-3.666757,13.948903,0.543702,0.577298,4.591070,-0.659836,0.758063,0.524740,0.426758,0.058838,-1.197266,-0.002242,-0.036214,0.139618,0.999984,-0.003299,0.003790,0.002624,0.935097,-0.139292,-0.006576,0.325803
57991,NaN,-0.341250,-2.884413,13.465136,0.090978,1.157161,3.913111,-0.591611,0.638216,0.409895,0.428711,0.065186,-1.180420,-0.002924,-0.028452,0.134746,0.999988,-0.002958,0.003191,0.002049,0.934017,-0.143820,-0.004714,0.326963
57992,NaN,-0.184007,-2.550618,12.898284,0.092230,1.450780,3.256033,-0.369475,0.429176,0.227836,0.426270,0.078125,-1.174316,-0.001534,-0.025270,0.129033,0.999995,-0.001847,0.002146,0.001139,0.933385,-0.146252,-0.003149,0.327708
57993,NaN,-0.270287,-2.321735,12.995163,-0.120407,1.594112,3.293873,-0.238871,0.201652,0.022885,0.428223,0.084473,-1.163818,-0.002569,-0.023062,0.129982,0.999999,-0.001194,0.001008,0.000114,0.933593,-0.145699,-0.003481,0.327358
57994,NaN,-0.241566,-1.607321,12.650773,-0.507914,2.089116,2.759558,-0.329433,0.084511,-0.165127,0.421387,0.097412,-1.153320,-0.002375,-0.015863,0.126535,0.999998,-0.001647,0.000423,-0.000826,0.933623,-0.147372,-0.003746,0.326519
57995,NaN,-0.397328,-1.469856,12.061933,-0.671097,1.810436,2.190652,-0.521417,-0.085116,-0.386022,0.423340,0.110107,-1.149170,-0.004053,-0.014376,0.120655,0.999995,-0.002607,-0.000426,-0.001930,0.935165,-0.143020,-0.006799,0.323984
57996,NaN,-0.333913,-2.301462,12.433302,-0.230965,1.363320,2.760394,-0.687106,-0.303180,-0.546827,0.414307,0.125244,-1.140869,-0.003590,-0.022578,0.124406,0.999989,-0.003436,-0.001516,-0.002734,0.935539,-0.145721,-0.009721,0.321617
57997,NaN,-0.600356,-3.073210,12.615557,-0.058780,0.429554,3.178385,-0.734331,-0.518643,-0.606377,0.396729,0.142334,-1.142822,-0.006423,-0.030250,0.126251,0.999985,-0.003672,-0.002593,-0.003032,0.937920,-0.137773,-0.015134,0.317955
57998,NaN,-0.618817,-3.435628,12.340496,0.035396,0.090854,3.011624,-0.709074,-0.754801,-0.662841,0.383545,0.159424,-1.143066,-0.006767,-0.033897,0.123501,0.999981,-0.003545,-0.003774,-0.003314,0.938410,-0.139846,-0.020257,0.315307
57999,NaN,-0.790943,-3.952331,12.330688,0.080881,-0.627504,3.144544,-0.641576,-0.906037,-0.697590,0.368164,0.176514,-1.130371,-0.008605,-0.039098,0.123395,0.999979,-0.003208,-0.004530,-0.003488,0.940467,-0.133157,-0.027120,0.311537
58000,NaN,-0.831074,-4.262796,12.270893,0.071828,-0.927222,3.170750,-0.529313,-0.991280,-0.718289,0.352783,0.197998,-1.145264,-0.009071,-0.042271,0.122777,0.999978,-0.002647,-0.004956,-0.003591,0.941078,-0.134001,-0.033084,0.308741
58001,NaN,-0.349495,-4.075648,11.663620,0.297172,-0.747581,2.521156,-0.403562,-1.056936,-0.759885,0.339844,0.204590,-1.141113,-0.004266,-0.040506,0.116697,0.999977,-0.002018,-0.005285,-0.003799,0.942288,-0.131369,-0.039350,0.305429
58002,NaN,0.273982,-4.085706,11.071196,0.745456,-0.577319,1.953713,-0.354255,-1.149395,-0.794406,0.318115,0.221680,-1.141113,0.001941,-0.040670,0.110797,0.999974,-0.001771,-0.005747,-0.003972,0.943018,-0.131123,-0.045827,0.302363
58003,NaN,0.747970,-4.670031,10.794281,1.316885,-0.878099,1.865376,-0.355244,-1.278399,-0.826977,0.304932,0.234375,-1.141113,0.006597,-0.046537,0.108070,0.999969,-0.001776,-0.006392,-0.004135,0.943598,-0.131304,-0.053912,0.299124
58004,NaN,1.305320,-4.760087,10.586767,1.684127,-0.746241,1.721846,-0.401995,-1.444109,-0.849077,0.278809,0.249512,-1.149658,0.012086,-0.047441,0.106053,0.999963,-0.002010,-0.007220,-0.004245,0.944180,-0.130807,-0.061882,0.295946
58005,NaN,1.841159,-4.441001,10.233540,1.729401,-0.287317,1.356946,-0.421344,-1.591799,-0.849875,0.255127,0.262451,-1.151855,0.017408,-0.044269,0.102570,0.999957,-0.002107,-0.007959,-0.004249,0.943876,-0.133714,-0.074290,0.292746
58006,NaN,2.187305,-3.871954,9.733952,1.630802,0.173131,0.762429,-0.412618,-1.707192,-0.854679,0.231201,0.281738,-1.151855,0.020876,-0.038609,0.097600,0.999952,-0.002063,-0.008536,-0.004273,0.944172,-0.132838,-0.083518,0.289686
58007,NaN,2.630840,-3.407426,9.325393,1.526521,0.658150,0.322788,-0.383519,-1.793319,-0.869597,0.207520,0.290283,-1.153809,0.025322,-0.034007,0.093549,0.999949,-0.001918,-0.008966,-0.004348,0.943433,-0.135018,-0.098977,0.286197
58008,NaN,2.801574,-3.324837,8.978279,1.533275,0.662778,0.021902,-0.383427,-1.837266,-0.878890,0.183838,0.303223,-1.164551,0.027043,-0.033196,0.090098,0.999946,-0.001917,-0.009186,-0.004394,0.943471,-0.133756,-0.108781,0.283086
58009,NaN,3.048547,-3.419480,9.124814,1.412958,0.656395,0.277785,-0.401062,-1.863854,-0.891825,0.156006,0.307373,-1.164551,0.029481,-0.034144,0.091595,0.999945,-0.002005,-0.009319,-0.004459,0.942536,-0.134149,-0.125560,0.279043
58010,NaN,3.119775,-3.682596,9.380507,1.326040,0.437000,0.643646,-0.420293,-1.889518,-0.898739,0.132324,0.322510,-1.160156,0.030144,-0.036765,0.094170,0.999943,-0.002101,-0.009447,-0.004494,0.942268,-0.132921,-0.135646,0.275795
58011,NaN,3.168312,-3.874673,9.500572,1.067169,0.207753,0.870269,-0.439803,-1.953600,-0.908807,0.104492,0.328857,-1.164307,0.030577,-0.038678,0.095393,0.999940,-0.002199,-0.009768,-0.004544,0.940968,-0.132425,-0.152799,0.271468
58012,NaN,3.255863,-4.040854,9.509052,0.994388,0.020236,0.974195,-0.444692,-2.061997,-0.925975,0.072266,0.343994,-1.164307,0.031388,-0.040344,0.095508,0.999934,-0.002223,-0.010310,-0.004630,0.940293,-0.131002,-0.163707,0.268119
58013,NaN,3.516454,-4.038259,9.492279,0.848981,0.034494,1.052332,-0.439781,-2.185755,-0.926770,0.040283,0.345947,-1.164307,0.033937,-0.040332,0.095387,0.999927,-0.002199,-0.010929,-0.004634,0.938439,-0.130065,-0.180986,0.263932
58014,NaN,3.637630,-3.967088,9.288330,0.757112,0.016604,0.895428,-0.441153,-2.280814,-0.910136,0.003662,0.361084,-1.164307,0.035133,-0.039627,0.093376,0.999922,-0.002206,-0.011404,-0.004551,0.937216,-0.128291,-0.192848,0.260725
58015,NaN,3.808761,-3.937732,9.113578,0.604210,-0.019367,0.803245,-0.429352,-2.378980,-0.890883,-0.022217,0.371826,-1.159912,0.036824,-0.039347,0.091663,0.999917,-0.002147,-0.011895,-0.004454,0.934762,-0.126994,-0.209922,0.256952
58016,NaN,4.028203,-3.902737,8.798418,0.657308,-0.029879,0.600322,-0.419245,-2.436612,-0.864645,-0.062988,0.386719,-1.162109,0.039037,-0.039013,0.088547,0.999914,-0.002096,-0.012183,-0.004323,0.932970,-0.124904,-0.222380,0.253996
58017,NaN,4.276406,-4.023983,8.542563,0.691958,-0.155933,0.528791,-0.386150,-2.457846,-0.847874,-0.097168,0.397461,-1.159912,0.041539,-0.040252,0.086019,0.999914,-0.001931,-0.012289,-0.004239,0.930056,-0.123256,-0.238743,0.250610
58018,NaN,4.636100,-4.000004,8.478041,0.744233,-0.075026,0.618270,-0.305624,-2.461865,-0.841638,-0.133301,0.401855,-1.155518,0.045144,-0.040062,0.085402,0.999914,-0.001528,-0.012309,-0.004208,0.927904,-0.120577,-0.251072,0.247827
58019,NaN,4.806366,-3.933581,8.233921,0.660957,-0.081422,0.479163,-0.280294,-2.455629,-0.823078,-0.163330,0.410400,-1.149170,0.046885,-0.039414,0.082975,0.999915,-0.001401,-0.012278,-0.004115,0.924644,-0.118471,-0.266608,0.244783
58020,NaN,5.185128,-3.788241,8.034303,0.757346,0.095183,0.443907,-0.218993,-2.476703,-0.794698,-0.199463,0.412354,-1.146973,0.050700,-0.037997,0.081017,0.999915,-0.001095,-0.012383,-0.003973,0.922106,-0.115383,-0.278774,0.242264
58021,NaN,5.187952,-3.517873,8.176087,0.276586,0.206205,0.483604,-0.113984,-2.504727,-0.770517,-0.225342,0.423096,-1.140625,0.050714,-0.035329,0.082421,0.999914,-0.000570,-0.012523,-0.003852,0.918471,-0.112388,-0.293789,0.239726
58022,NaN,5.418815,-3.391293,7.467840,0.586787,0.251630,-0.003516,-0.038849,-2.535433,-0.758160,-0.259277,0.425293,-1.138428,0.053107,-0.034101,0.075363,0.999912,-0.000194,-0.012677,-0.003791,0.915553,-0.108404,-0.305879,0.237591
58023,NaN,5.694928,-3.180643,7.279901,0.546128,0.428015,-0.062875,-0.094621,-2.506534,-0.713302,-0.293457,0.427490,-1.129883,0.055917,-0.031972,0.073519,0.999915,-0.000473,-0.012532,-0.003566,0.911627,-0.105102,-0.320250,0.235224
58024,NaN,6.266574,-3.263201,7.224622,0.779057,0.515735,0.248884,-0.165143,-2.446629,-0.682943,-0.325195,0.431641,-1.119141,0.061664,-0.032784,0.073032,0.999919,-0.000826,-0.012233,-0.003415,0.908352,-0.101875,-0.331929,0.233114
58025,NaN,6.478395,-3.474103,7.115034,0.794592,0.305944,0.382038,-0.226027,-2.371323,-0.655350,-0.356934,0.429443,-1.112793,0.063820,-0.034870,0.071950,0.999924,-0.001130,-0.011856,-0.003277,0.904251,-0.099123,-0.345517,0.230484
58026,NaN,6.427190,-3.605175,6.986090,0.670406,0.055192,0.319144,-0.266077,-2.333846,-0.611761,-0.386963,0.437988,-1.097900,0.063340,-0.036153,0.070652,0.999926,-0.001330,-0.011669,-0.003059,0.900726,-0.096572,-0.356653,0.228399
58027,NaN,6.493193,-3.587053,6.982154,0.442630,-0.008782,0.364644,-0.339990,-2.294375,-0.572594,-0.421143,0.442383,-1.089355,0.064022,-0.035935,0.070621,0.999929,-0.001700,-0.011472,-0.002863,0.896308,-0.094524,-0.369718,0.225843
58028,NaN,6.175598,-3.348937,6.925119,-0.012166,-0.039641,0.051625,-0.460867,-2.188738,-0.546354,-0.446533,0.446533,-1.072266,0.060901,-0.033496,0.069998,0.999934,-0.002304,-0.010943,-0.002732,0.892602,-0.093102,-0.380281,0.223562
58029,NaN,5.849479,-3.498078,6.622698,-0.183271,-0.407801,-0.320085,-0.501890,-2.094808,-0.535146,-0.472168,0.455078,-1.063721,0.057703,-0.034969,0.066922,0.999938,-0.002509,-0.010474,-0.002676,0.888272,-0.092061,-0.392086,0.220829
58030,NaN,5.537048,-3.721486,6.325924,-0.270735,-0.819711,-0.659702,-0.450035,-2.070635,-0.511542,-0.508545,0.459473,-1.051025,0.054616,-0.037212,0.063911,0.999941,-0.002250,-0.010353,-0.002558,0.884518,-0.090766,-0.401992,0.218615
58031,NaN,5.597254,-3.854714,5.963468,-0.128379,-0.976807,-0.825077,-0.380570,-2.114036,-0.514121,-0.527588,0.463623,-1.036133,0.055238,-0.038575,0.060295,0.999939,-0.001903,-0.010570,-0.002571,0.880050,-0.089343,-0.413075,0.216563
58032,NaN,6.170062,-3.617856,5.747464,0.105900,-0.579336,-0.656174,-0.259148,-2.118578,-0.524590,-0.557373,0.469971,-1.019287,0.060992,-0.036264,0.058170,0.999940,-0.001296,-0.010593,-0.002623,0.876073,-0.087101,-0.422887,0.214653
58033,NaN,6.659652,-3.470468,5.693270,0.172769,-0.304634,-0.395559,-0.180194,-2.111881,-0.542911,-0.578613,0.465576,-1.004395,0.065896,-0.034832,0.057662,0.999940,-0.000901,-0.010559,-0.002715,0.871520,-0.084857,-0.433334,0.213246
58034,NaN,6.765888,-3.277358,5.478766,0.158928,-0.170032,-0.513361,-0.130899,-2.159229,-0.591323,-0.608154,0.467773,-0.983154,0.066965,-0.032936,0.055535,0.999937,-0.000654,-0.010796,-0.002957,0.867362,-0.081839,-0.443106,0.211288
58035,NaN,6.792482,-3.089836,5.359560,0.014772,-0.074638,-0.625721,-0.147776,-2.196223,-0.634401,-0.631348,0.465576,-0.968262,0.067232,-0.031072,0.054359,0.999934,-0.000739,-0.010981,-0.003172,0.862547,-0.079088,-0.453679,0.209603
58036,NaN,6.848484,-2.997077,5.169442,-0.012252,-0.057414,-0.724220,-0.150398,-2.201618,-0.688459,-0.656738,0.465576,-0.947021,0.067806,-0.030166,0.052466,0.999933,-0.000752,-0.011008,-0.003442,0.858157,-0.075862,-0.463573,0.207150
58037,NaN,6.681163,-2.813233,5.234367,-0.392618,-0.065854,-0.880239,-0.113771,-2.238486,-0.749719,-0.686523,0.463379,-0.927734,0.066114,-0.028351,0.053102,0.999930,-0.000569,-0.011192,-0.003749,0.853221,-0.072540,-0.474064,0.204975
58038,NaN,6.527240,-2.658443,5.123415,-0.593931,-0.093325,-1.120370,-0.078311,-2.287681,-0.816620,-0.711426,0.454590,-0.902344,0.064571,-0.026829,0.051986,0.999926,-0.000392,-0.011438,-0.004083,0.848544,-0.068589,-0.484165,0.202120
58039,NaN,6.644190,-2.491055,4.811734,-0.505680,0.021248,-1.254445,-0.037050,-2.318725,-0.856352,-0.737061,0.456787,-0.887451,0.065771,-0.025184,0.048887,0.999924,-0.000185,-0.011593,-0.004282,0.843456,-0.064486,-0.494549,0.199613
58040,NaN,6.773449,-2.388292,4.553621,-0.431440,0.073144,-1.320111,-0.037283,-2.324117,-0.852575,-0.760254,0.452393,-0.861816,0.067097,-0.024161,0.046323,0.999923,-0.000186,-0.011620,-0.004263,0.838483,-0.060211,-0.504625,0.196659
58041,NaN,6.982994,-2.410699,4.365125,-0.353036,0.040847,-1.239593,-0.008083,-2.338694,-0.822133,-0.781006,0.445801,-0.842773,0.069213,-0.024391,0.044464,0.999923,-0.000040,-0.011693,-0.004111,0.833193,-0.055952,-0.514719,0.194223
58042,NaN,7.093350,-2.734218,4.399646,-0.433590,-0.334699,-1.046589,-0.021973,-2.365532,-0.802419,-0.808350,0.439453,-0.823486,0.070296,-0.027620,0.044833,0.999922,-0.000110,-0.011827,-0.004012,0.827814,-0.051677,-0.524779,0.191470
58043,NaN,7.042278,-2.751661,4.531369,-0.747235,-0.498833,-1.044138,-0.023538,-2.367519,-0.793050,-0.829346,0.432861,-0.795898,0.069770,-0.027789,0.046145,0.999922,-0.000118,-0.011837,-0.003965,0.822237,-0.047473,-0.534717,0.189076
58044,NaN,7.094307,-2.715877,4.469469,-0.862732,-0.559763,-1.059418,0.051747,-2.358137,-0.822970,-0.852539,0.430664,-0.776855,0.070297,-0.027461,0.045519,0.999922,0.000259,-0.011790,-0.004115,0.816659,-0.042827,-0.544516,0.186376
58045,NaN,7.078514,-2.646817,4.444200,-1.037235,-0.617654,-1.129344,0.100909,-2.422856,-0.833766,-0.873535,0.422119,-0.751221,0.070129,-0.026784,0.045281,0.999918,0.000505,-0.012114,-0.004169,0.810842,-0.037907,-0.554203,0.184274
58046,NaN,7.129457,-2.581091,4.259986,-1.047203,-0.639117,-1.202832,0.191460,-2.420619,-0.777374,-0.892334,0.413574,-0.736328,0.070671,-0.026128,0.043433,0.999919,0.000957,-0.012103,-0.003887,0.804822,-0.032743,-0.563942,0.182096
58047,NaN,7.018903,-2.356278,3.796556,-0.867764,-0.507200,-1.553296,0.360486,-2.281023,-0.641289,-0.904541,0.406982,-0.710938,0.069674,-0.023856,0.038719,0.999928,0.001802,-0.011405,-0.003206,0.799137,-0.027386,-0.572410,0.181593
58048,NaN,7.194858,-2.087396,3.384561,-0.650718,-0.237349,-1.621448,0.539546,-2.038097,-0.492552,-0.923340,0.396240,-0.695801,0.071547,-0.021143,0.034519,0.999941,0.002698,-0.010190,-0.002463,0.793779,-0.021968,-0.580098,0.181438
58049,NaN,7.222737,-1.793804,3.192847,-0.657255,-0.005115,-1.741367,0.595580,-1.803867,-0.365684,-0.936035,0.391846,-0.680908,0.071903,-0.018166,0.032524,0.999953,0.002978,-0.009019,-0.001828,0.789134,-0.016843,-0.586195,0.182646
58050,NaN,6.563332,-1.551871,2.929080,-0.747129,-0.012809,-2.497947,0.704402,-1.778507,-0.298984,-0.948486,0.387451,-0.666260,0.065346,-0.015721,0.029818,0.999953,0.003522,-0.008892,-0.001495,0.784216,-0.011562,-0.592567,0.183672
58051,NaN,5.604208,-0.912614,2.011642,-0.379142,0.409237,-3.814830,0.829634,-2.016010,-0.350834,-0.960449,0.368164,-0.648926,0.055820,-0.009309,0.020641,0.999939,0.004148,-0.010080,-0.001754,0.778860,-0.005318,-0.599120,0.185485
58052,NaN,5.683585,-0.360353,1.284263,0.055250,1.031571,-4.066945,0.941513,-2.316484,-0.461986,-0.977295,0.359619,-0.632080,0.056674,-0.003797,0.013482,0.999919,0.004707,-0.011582,-0.002310,0.772311,0.001881,-0.607231,0.186553
58053,NaN,6.331838,-0.284028,1.009855,0.294604,1.274516,-3.529440,0.939983,-2.519190,-0.520137,-0.985352,0.348877,-0.604492,0.063177,-0.003055,0.010881,0.999906,0.004700,-0.012596,-0.002601,0.765389,0.009528,-0.615543,0.187608
58054,NaN,7.227200,-0.896697,1.128609,0.374956,0.833158,-2.500175,0.890425,-2.460553,-0.498888,-0.999756,0.337891,-0.583008,0.072103,-0.009200,0.012133,0.999911,0.004452,-0.012302,-0.002494,0.758174,0.016779,-0.624045,0.188306
58055,NaN,7.879764,-1.072625,1.276483,0.242544,0.704141,-1.793143,0.871015,-2.341304,-0.499271,-1.014404,0.331543,-0.566162,0.078614,-0.010981,0.013638,0.999919,0.004355,-0.011706,-0.002496,0.751501,0.023870,-0.631706,0.188747
58056,NaN,8.808078,-0.823870,1.331715,0.077998,1.043344,-0.928066,0.851463,-2.181541,-0.608982,-1.026611,0.320801,-0.540527,0.087903,-0.008566,0.014241,0.999927,0.004257,-0.010907,-0.003045,0.745028,0.031049,-0.638980,0.188874
58057,NaN,9.593915,-0.788874,1.448262,-0.092617,1.101744,-0.141201,0.965839,-1.807676,-0.702594,-1.034668,0.303467,-0.527832,0.095775,-0.008298,0.015309,0.999941,0.004829,-0.009038,-0.003513,0.740006,0.038561,-0.644468,0.188588
58058,NaN,8.604654,-1.120808,0.976587,0.255582,0.594098,-1.104624,1.010519,-1.381136,-0.646741,-1.044922,0.297119,-0.519287,0.085940,-0.011537,0.010302,0.999958,0.005053,-0.006906,-0.003234,0.735939,0.045685,-0.648474,0.189177
58059,NaN,7.029432,-2.226208,0.577234,0.804961,-0.736310,-2.497535,1.038969,-1.240977,-0.554837,-1.048828,0.284180,-0.510742,0.070195,-0.022488,0.006092,0.999963,0.005195,-0.006205,-0.002774,0.732452,0.052379,-0.651808,0.189518
58060,NaN,5.528480,-0.922606,-1.318247,1.958550,0.717720,-4.445970,0.689149,-1.264351,-0.405712,-1.057129,0.277832,-0.500000,0.055348,-0.009294,-0.012865,0.999972,0.003446,-0.006322,-0.002029,0.728515,0.057421,-0.655661,0.189942
58061,NaN,5.663177,-1.034998,-1.684609,2.296667,0.727844,-4.319427,0.510785,-1.198894,-0.365384,-1.061035,0.269043,-0.485107,0.056713,-0.010411,-0.016533,0.999977,0.002554,-0.005994,-0.001827,0.724851,0.061489,-0.659508,0.189364
58062,NaN,6.594831,-1.404137,-1.536888,2.288831,0.484802,-3.304907,0.287751,-1.122066,-0.333724,-1.071289,0.262695,-0.478760,0.066010,-0.014130,-0.015019,0.999982,0.001439,-0.005610,-0.001669,0.721366,0.064694,-0.663188,0.188755
58063,NaN,6.601059,-1.168512,-1.218185,1.851968,0.549533,-3.278829,0.168176,-0.880829,-0.327305,-1.069092,0.258301,-0.470215,0.066044,-0.011783,-0.011901,0.999989,0.000841,-0.004404,-0.001637,0.718544,0.067003,-0.666453,0.187203
58064,NaN,6.672852,-0.535197,-0.846494,1.236239,0.977798,-3.251801,0.243307,-0.893899,-0.409393,-1.075195,0.256104,-0.457520,0.066754,-0.005479,-0.008173,0.999987,0.001217,-0.004469,-0.002047,0.715858,0.070078,-0.669291,0.186241
58065,NaN,6.745740,-0.948425,-1.733189,2.162036,0.867875,-3.180910,0.273511,-0.954454,-0.461771,-1.077148,0.247559,-0.451172,0.067517,-0.009617,-0.017023,0.999985,0.001368,-0.004772,-0.002309,0.712731,0.073202,-0.672793,0.184403
58066,NaN,7.610048,-1.455568,-2.057211,2.627071,0.614813,-2.263923,0.259592,-0.730562,-0.403758,-1.081055,0.236816,-0.438232,0.076145,-0.014683,-0.020313,0.999990,0.001298,-0.003653,-0.002019,0.710544,0.076158,-0.675003,0.183568
58067,NaN,8.285756,-1.509356,-2.379277,2.910502,0.732692,-1.591696,0.056444,-0.640087,-0.352025,-1.085205,0.236816,-0.438232,0.082906,-0.015233,-0.023532,0.999993,0.000282,-0.003200,-0.001760,0.708251,0.077769,-0.677803,0.181424
58068,NaN,8.984238,-1.715520,-1.903664,2.518357,0.437745,-0.826614,-0.080097,-0.465720,-0.287254,-1.078857,0.236816,-0.436279,0.089862,-0.017292,-0.018820,0.999996,-0.000400,-0.002329,-0.001436,0.706962,0.078881,-0.679411,0.179954
58069,NaN,9.227859,-2.124365,-1.188571,1.955061,-0.207131,-0.473859,-0.128963,-0.345277,-0.220789,-1.085205,0.234619,-0.431885,0.092275,-0.021353,-0.011713,0.999998,-0.000645,-0.001726,-0.001104,0.705429,0.079065,-0.681560,0.177747
58070,NaN,9.324709,-2.282558,-0.827870,1.654039,-0.494632,-0.332969,-0.040119,-0.268177,-0.148222,-1.085205,0.232422,-0.429688,0.093241,-0.022896,-0.008149,0.999999,-0.000201,-0.001341,-0.000741,0.704662,0.079667,-0.682482,0.176981
58071,NaN,9.850375,-2.391627,-0.778779,1.611681,-0.565138,0.209256,0.073190,-0.154503,-0.067262,-1.089355,0.230469,-0.425537,0.098502,-0.023947,-0.007720,1.000000,0.000366,-0.000773,-0.000336,0.703458,0.079919,-0.683867,0.176309
58072,NaN,10.145226,-2.394135,-0.810816,1.636608,-0.519849,0.500711,0.104690,-0.046878,0.011581,-1.084961,0.232422,-0.425537,0.101456,-0.023931,-0.008097,1.000000,0.000523,-0.000234,0.000058,0.703246,0.080289,-0.683944,0.176689
58073,NaN,10.174861,-2.523840,-0.505396,1.375406,-0.742982,0.565617,0.170488,0.091398,0.090055,-1.087158,0.226074,-0.431885,0.101758,-0.025188,-0.005122,0.999999,0.000852,0.000457,0.000450,0.702632,0.080199,-0.684441,0.177252
58074,NaN,9.898377,-2.420294,-0.099933,0.973601,-0.810474,0.298733,0.298171,0.190750,0.157089,-1.083008,0.230469,-0.440430,0.099002,-0.024124,-0.001130,0.999998,0.001491,0.000954,0.000785,0.703024,0.080539,-0.683568,0.178900
58075,NaN,9.977263,-1.948765,-0.090182,0.791336,-0.344830,0.316792,0.398154,0.253647,0.161210,-1.083008,0.230469,-0.438232,0.099787,-0.019405,-0.001067,0.999997,0.001991,0.001268,0.000806,0.702775,0.080952,-0.683268,0.180829
58076,NaN,9.766690,-1.787493,-0.182344,0.844863,-0.166235,0.080495,0.512787,0.278236,0.134825,-1.084961,0.228271,-0.438232,0.097676,-0.017804,-0.002005,0.999996,0.002564,0.001391,0.000674,0.703392,0.082042,-0.681878,0.183166
58077,NaN,9.760072,-1.405552,-0.421215,0.932238,0.294564,0.008516,0.669176,0.282650,0.091041,-1.080811,0.230469,-0.442383,0.097601,-0.013997,-0.004397,0.999993,0.003346,0.001413,0.000455,0.703203,0.083658,-0.681140,0.185887
58078,NaN,9.890989,-1.259070,-0.764387,1.225648,0.598840,0.093890,0.705386,0.277795,0.045272,-1.082764,0.223877,-0.444580,0.098902,-0.012541,-0.007826,0.999993,0.003527,0.001389,0.000226,0.703807,0.085726,-0.679522,0.188563
58079,NaN,9.876256,-0.889779,-0.271942,0.629487,0.760204,0.058073,0.533176,0.117540,-0.011206,-1.076416,0.221924,-0.450928,0.098760,-0.008896,-0.002801,0.999996,0.002666,0.000588,-0.000056,0.703220,0.087333,-0.679438,0.190313
58080,NaN,10.150444,-0.814009,0.060546,0.304386,0.743353,0.338793,0.419639,-0.018476,-0.072762,-1.080566,0.217529,-0.450928,0.101501,-0.008178,0.000598,0.999998,0.002098,-0.000092,-0.000364,0.703042,0.089073,-0.679070,0.191474
58081,NaN,10.002082,-0.613128,0.533390,-0.229509,0.706529,0.194819,0.348802,-0.102070,-0.131420,-1.078369,0.215332,-0.450684,0.100014,-0.006206,0.005374,0.999998,0.001744,-0.000510,-0.000657,0.701976,0.090592,-0.679846,0.191917
58082,NaN,9.899492,-0.452495,0.572024,-0.333231,0.801434,0.075614,0.331591,-0.193464,-0.184883,-1.080566,0.217529,-0.446533,0.098985,-0.004626,0.005808,0.999998,0.001658,-0.000967,-0.000924,0.701343,0.092570,-0.680122,0.192307
58083,NaN,9.695788,-0.578113,0.426119,-0.176449,0.683429,-0.115996,0.298284,-0.232562,-0.210493,-1.082520,0.211182,-0.446533,0.096947,-0.005890,0.004365,0.999998,0.001491,-0.001163,-0.001052,0.700047,0.094250,-0.681292,0.192076
58084,NaN,9.628323,-0.645968,0.275724,-0.023089,0.644096,-0.180324,0.287005,-0.253061,-0.191714,-1.080078,0.204834,-0.446533,0.096273,-0.006556,0.002870,0.999998,0.001435,-0.001265,-0.000959,0.699232,0.096151,-0.681810,0.192263
58085,NaN,9.600725,-0.758613,-0.029342,0.270257,0.626628,-0.206206,0.269955,-0.320063,-0.170609,-1.084229,0.202637,-0.442139,0.096001,-0.007668,-0.000150,0.999997,0.001350,-0.001600,-0.000853,0.697695,0.097631,-0.683273,0.191907
58086,NaN,9.471398,-0.887705,-0.196947,0.453823,0.534170,-0.323599,0.221816,-0.367369,-0.120665,-1.084229,0.202637,-0.435791,0.094712,-0.008932,-0.001805,0.999998,0.001109,-0.001837,-0.000603,0.696445,0.099169,-0.684281,0.192064
58087,NaN,9.460575,-1.091352,-0.079789,0.387152,0.273226,-0.300839,0.119986,-0.380284,-0.066827,-1.084229,0.198242,-0.435791,0.094603,-0.010945,-0.000625,0.999998,0.000600,-0.001901,-0.000334,0.694717,0.099786,-0.686120,0.191441
58088,NaN,9.416428,-1.301691,0.366492,0.033370,-0.119704,-0.300469,0.100569,-0.392855,-0.003503,-1.086426,0.202637,-0.429443,0.094157,-0.013020,0.003843,0.999998,0.000503,-0.001964,-0.000018,0.693321,0.100523,-0.687386,0.191577
58089,NaN,9.476112,-1.395438,0.056706,0.306226,-0.090918,-0.239548,0.109233,-0.393668,0.050356,-1.086182,0.198242,-0.427490,0.094763,-0.013931,0.000746,0.999998,0.000546,-0.001968,0.000252,0.691467,0.100726,-0.689284,0.191354
58090,NaN,9.407866,-1.389167,-0.243981,0.544124,0.019392,-0.315283,0.087026,-0.405806,0.099931,-1.088135,0.196045,-0.423096,0.094090,-0.013844,-0.002255,0.999998,0.000435,-0.002029,0.000500,0.689927,0.101070,-0.690653,0.191794
58091,NaN,9.415870,-1.451270,-0.326790,0.593286,-0.011932,-0.298523,0.028290,-0.394335,0.146103,-1.086182,0.200439,-0.416748,0.094175,-0.014443,-0.003084,0.999998,0.000141,-0.001972,0.000731,0.688024,0.100690,-0.692633,0.191687
58092,NaN,9.637213,-1.392225,-0.317881,0.511361,0.063123,-0.083887,-0.052410,-0.441847,0.164116,-1.098877,0.202393,-0.412598,0.096390,-0.013844,-0.002962,0.999997,-0.000262,-0.002209,0.000821,0.686360,0.100364,-0.694285,0.191846
58093,NaN,9.519614,-1.397351,-0.140565,0.296435,-0.035159,-0.194678,-0.146718,-0.440551,0.178651,-1.096924,0.202393,-0.408447,0.095211,-0.013889,-0.001186,0.999997,-0.000734,-0.002203,0.000893,0.684351,0.099333,-0.696573,0.191268
58094,NaN,9.691785,-1.378464,0.253470,-0.125951,-0.156645,-0.022155,-0.172415,-0.412940,0.181741,-1.096924,0.204590,-0.402100,0.096925,-0.013694,0.002747,0.999997,-0.000862,-0.002065,0.000909,0.682822,0.098504,-0.698239,0.191083
58095,NaN,9.607727,-1.297777,0.268293,-0.223929,-0.103222,-0.117138,-0.161007,-0.382359,0.185404,-1.099121,0.206787,-0.397705,0.096084,-0.012886,0.002877,0.999997,-0.000805,-0.001912,0.000927,0.681033,0.097376,-0.700284,0.190565
58096,NaN,9.840475,-1.081035,0.256613,-0.352619,0.128236,0.083197,-0.156608,-0.344553,0.167706,-1.096924,0.210938,-0.391602,0.098409,-0.010726,0.002744,0.999998,-0.000783,-0.001723,0.000839,0.679741,0.096584,-0.701687,0.190419
58097,NaN,9.844410,-0.937436,0.076458,-0.293329,0.326737,0.066792,-0.149501,-0.355522,0.127890,-1.101318,0.210938,-0.385254,0.098448,-0.009311,0.000947,0.999998,-0.000748,-0.001778,0.000639,0.678136,0.095685,-0.703535,0.189776
58098,NaN,9.906755,-0.869060,-0.007994,-0.284889,0.425358,0.118925,-0.115884,-0.371915,0.091416,-1.094971,0.215332,-0.387207,0.099071,-0.008645,0.000109,0.999998,-0.000579,-0.001860,0.000457,0.676794,0.095323,-0.704949,0.189499
58099,NaN,9.909707,-0.823448,-0.153417,-0.216210,0.512778,0.116768,-0.123891,-0.380871,0.061116,-1.101318,0.213135,-0.383057,0.099102,-0.008205,-0.001340,0.999998,-0.000619,-0.001904,0.000306,0.675203,0.094732,-0.706783,0.188639
58100,NaN,9.967495,-0.906584,0.004957,-0.370373,0.370526,0.182226,-0.138527,-0.366093,0.029320,-1.097168,0.217285,-0.383057,0.099676,-0.009051,0.000238,0.999998,-0.000693,-0.001830,0.000147,0.673946,0.094506,-0.708162,0.188074
58101,NaN,9.960455,-1.042822,0.033075,-0.386204,0.216741,0.192461,-0.104838,-0.374456,-0.004495,-1.101318,0.213135,-0.372559,0.099603,-0.010430,0.000523,0.999998,-0.000524,-0.001872,-0.000022,0.672480,0.094156,-0.709889,0.186983
58102,NaN,9.754687,-1.210839,-0.316089,-0.017414,0.160773,0.020609,-0.024021,-0.349132,-0.020047,-1.105469,0.213135,-0.370361,0.097551,-0.012119,-0.002989,0.999998,-0.000120,-0.001746,-0.000100,0.671269,0.094473,-0.711076,0.186665
58103,NaN,9.742954,-1.400719,-0.680304,0.354065,0.109388,0.046955,-0.008110,-0.342848,-0.020770,-1.101318,0.215088,-0.366211,0.097440,-0.014018,-0.006635,0.999999,-0.000041,-0.001714,-0.000104,0.669916,0.094464,-0.712561,0.185864
58104,NaN,9.742098,-1.716890,-0.603829,0.375837,-0.222989,0.088309,-0.024809,-0.312929,-0.005464,-1.105469,0.215088,-0.364014,0.097430,-0.017172,-0.005884,0.999999,-0.000124,-0.001565,-0.000027,0.668816,0.094691,-0.713630,0.185609
58105,NaN,9.654350,-1.965513,-0.536645,0.381943,-0.502028,0.034125,0.013818,-0.303257,0.004911,-1.103271,0.210938,-0.355469,0.096552,-0.019652,-0.005221,0.999999,0.000069,-0.001516,0.000025,0.667559,0.094659,-0.714955,0.185051
58106,NaN,9.798003,-2.144054,-0.604420,0.475080,-0.630938,0.204265,0.079753,-0.245394,0.022950,-1.109863,0.215088,-0.359863,0.097990,-0.021427,-0.005933,0.999999,0.000399,-0.001227,0.000115,0.666622,0.095070,-0.715711,0.185296
58107,NaN,9.891831,-2.213179,-0.767798,0.615188,-0.627135,0.314712,0.120472,-0.211575,0.038600,-1.107422,0.210938,-0.357666,0.098931,-0.022108,-0.007587,0.999999,0.000602,-0.001058,0.000193,0.665576,0.095298,-0.716614,0.185449
58108,NaN,9.886511,-2.113027,-0.642453,0.445425,-0.587116,0.290659,0.122207,-0.164044,0.041716,-1.107666,0.215088,-0.357666,0.098875,-0.021106,-0.006356,0.999999,0.000611,-0.000820,0.000209,0.664891,0.095707,-0.717066,0.185947
58109,NaN,10.017771,-2.141142,-0.608161,0.392503,-0.613136,0.423527,0.151335,-0.112516,0.044192,-1.107422,0.212891,-0.353516,0.100186,-0.021385,-0.006041,1.000000,0.000757,-0.000563,0.000221,0.664142,0.096039,-0.717584,0.186453
58110,NaN,10.029164,-2.061315,-0.727593,0.462918,-0.489594,0.429800,0.204502,-0.075498,0.028091,-1.109619,0.215088,-0.351318,0.100297,-0.020592,-0.007259,0.999999,0.001023,-0.000377,0.000140,0.663746,0.096688,-0.717658,0.187243
58111,NaN,10.017115,-1.857699,-0.749780,0.395264,-0.294789,0.390875,0.218418,-0.044836,0.014257,-1.107422,0.212891,-0.351318,0.100174,-0.018562,-0.007496,0.999999,0.001092,-0.000224,0.000071,0.663206,0.097389,-0.717845,0.188072
58112,NaN,9.973880,-1.691903,-0.655826,0.248960,-0.183680,0.320190,0.228000,-0.016670,-0.000525,-1.109619,0.212891,-0.351318,0.099739,-0.016912,-0.006569,0.999999,0.001140,-0.000083,-0.000003,0.663035,0.098162,-0.717686,0.188879
58113,NaN,9.870079,-1.524777,-0.671873,0.203963,-0.035371,0.194908,0.270795,-0.013248,-0.015932,-1.111816,0.212891,-0.353516,0.098700,-0.015247,-0.006733,0.999999,0.001354,-0.000066,-0.000080,0.662602,0.099164,-0.717685,0.189879
58114,NaN,9.797728,-1.369768,-0.693754,0.173608,0.107260,0.102522,0.279672,0.002112,-0.031868,-1.111816,0.210938,-0.349121,0.097975,-0.013704,-0.006958,0.999999,0.001398,0.000011,-0.000159,0.662500,0.100202,-0.717396,0.190777
58115,NaN,9.717664,-1.240448,-0.506958,-0.041518,0.139493,-0.004143,0.262002,0.015564,-0.037858,-1.107178,0.204346,-0.353271,0.097174,-0.012416,-0.005093,0.999999,0.001310,0.000078,-0.000189,0.662204,0.101226,-0.717283,0.191685
58116,NaN,9.777972,-1.182574,-0.320093,-0.234493,0.121731,0.038194,0.284953,0.037190,-0.044989,-1.107422,0.206543,-0.355469,0.097776,-0.011843,-0.003236,0.999999,0.001425,0.000186,-0.000225,0.662235,0.102296,-0.716864,0.192576
58117,NaN,9.744289,-1.089222,-0.391339,-0.201088,0.231202,-0.004690,0.316758,0.049787,-0.046757,-1.107178,0.200195,-0.355469,0.097439,-0.010909,-0.003955,0.999999,0.001584,0.000249,-0.000234,0.662069,0.103479,-0.716563,0.193634
58118,NaN,9.776721,-1.048804,-0.497796,-0.115496,0.315836,0.026975,0.343859,0.041100,-0.045521,-1.109619,0.210938,-0.353271,0.097764,-0.010502,-0.005016,0.999998,0.001719,0.000205,-0.000228,0.662081,0.104740,-0.716070,0.194736
58119,NaN,9.752537,-0.979542,-0.569848,-0.073835,0.405617,-0.003190,0.331468,0.029355,-0.038748,-1.107178,0.202393,-0.357666,0.097523,-0.009805,-0.005729,0.999999,0.001657,0.000147,-0.000194,0.661858,0.105919,-0.715813,0.195798
58120,NaN,9.757457,-0.920073,-0.471690,-0.181879,0.419281,-0.011253,0.289592,0.025970,-0.028250,-1.109375,0.200195,-0.353271,0.097573,-0.009208,-0.004743,0.999999,0.001448,0.000130,-0.000141,0.661824,0.106953,-0.715429,0.196754
58121,NaN,9.767850,-0.882064,-0.295773,-0.356575,0.380044,-0.014482,0.233413,0.043082,-0.022942,-1.111328,0.197998,-0.355469,0.097677,-0.008828,-0.002989,0.999999,0.001167,0.000215,-0.000115,0.661722,0.107673,-0.715228,0.197434
58122,NaN,9.776222,-0.848066,-0.219630,-0.433799,0.380570,-0.014272,0.214821,0.052028,-0.019278,-1.107178,0.195801,-0.359619,0.097761,-0.008488,-0.002231,0.999999,0.001074,0.000260,-0.000096,0.661810,0.108401,-0.714833,0.198166
58123,NaN,9.773133,-0.795886,-0.244352,-0.429469,0.437759,-0.023347,0.201336,0.059974,-0.025707,-1.104980,0.200195,-0.359619,0.097730,-0.007969,-0.002481,0.999999,0.001007,0.000300,-0.000129,0.661833,0.108945,-0.714597,0.198642
58124,NaN,9.832977,-0.745891,-0.335624,-0.366913,0.529304,0.033208,0.189038,0.051191,-0.025218,-1.104980,0.197998,-0.363770,0.098328,-0.007468,-0.003388,1.000000,0.000945,0.000256,-0.000126,0.661937,0.109610,-0.714227,0.199262
58125,NaN,9.809960,-0.697650,-0.254149,-0.454831,0.534444,0.000269,0.165668,0.051233,-0.023627,-1.102783,0.193604,-0.357422,0.098098,-0.006986,-0.002572,1.000000,0.000828,0.000256,-0.000118,0.661993,0.109961,-0.714053,0.199507
58126,NaN,9.751470,-0.694780,-0.259099,-0.439533,0.533640,-0.057532,0.140744,0.049256,-0.024861,-1.104980,0.195801,-0.365967,0.097513,-0.006958,-0.002620,1.000000,0.000704,0.000246,-0.000124,0.662115,0.110467,-0.713737,0.199954
58127,NaN,9.761806,-0.690862,-0.307228,-0.395131,0.557557,-0.045521,0.125842,0.044609,-0.025755,-1.102539,0.189453,-0.365967,0.097616,-0.006919,-0.003098,1.000000,0.000629,0.000223,-0.000129,0.662219,0.110617,-0.713622,0.199933
58128,NaN,9.847929,-0.700989,-0.220106,-0.472565,0.520037,0.037581,0.089473,0.037190,-0.026711,-1.106934,0.191650,-0.361816,0.098478,-0.007022,-0.002223,1.000000,0.000447,0.000186,-0.000134,0.662328,0.110972,-0.713395,0.200184
58129,NaN,9.785148,-0.695747,-0.149547,-0.528577,0.485143,-0.027965,0.043753,0.045204,-0.027176,-1.113281,0.191650,-0.363770,0.097850,-0.006970,-0.001519,1.000000,0.000219,0.000226,-0.000136,0.662527,0.110774,-0.713361,0.199758
58130,NaN,9.780606,-0.800657,-0.127388,-0.498801,0.380509,-0.018611,0.023344,0.036273,-0.028652,-1.106934,0.191650,-0.363770,0.097805,-0.008020,-0.001293,1.000000,0.000117,0.000181,-0.000143,0.662672,0.110918,-0.713202,0.199766
58131,NaN,9.785209,-0.799980,-0.201241,-0.429967,0.410193,-0.010767,0.006773,0.026765,-0.025903,-1.106934,0.191650,-0.359619,0.097851,-0.008012,-0.002026,1.000000,0.000034,0.000134,-0.000130,0.662864,0.110549,-0.713261,0.199120
58132,NaN,9.744142,-0.870909,-0.253319,-0.345662,0.363181,-0.039276,-0.019024,0.025944,-0.031787,-1.106934,0.191650,-0.368164,0.097440,-0.008725,-0.002545,1.000000,-0.000095,0.000130,-0.000159,0.662998,0.110574,-0.713177,0.198960
58133,NaN,9.739732,-0.975742,-0.232930,-0.316796,0.255939,-0.029904,-0.034369,0.029545,-0.023599,-1.106934,0.187256,-0.367920,0.097396,-0.009769,-0.002342,1.000000,-0.000172,0.000148,-0.000118,0.663251,0.110009,-0.713266,0.198112
58134,NaN,9.701936,-1.011885,-0.138793,-0.379698,0.178096,-0.066157,-0.050330,0.031045,-0.023085,-1.106934,0.189453,-0.370117,0.097018,-0.010130,-0.001400,1.000000,-0.000252,0.000155,-0.000115,0.663411,0.109893,-0.713201,0.197872
58135,NaN,9.730674,-1.101065,-0.078221,-0.397248,0.071897,-0.027929,-0.051754,0.032494,-0.019826,-1.109131,0.191650,-0.365967,0.097306,-0.011020,-0.000795,1.000000,-0.000259,0.000162,-0.000099,0.663699,0.109233,-0.713289,0.196951
58136,NaN,9.746823,-1.093927,-0.105953,-0.373791,0.091261,-0.011646,-0.039067,0.027456,-0.014997,-1.106934,0.191650,-0.368164,0.097467,-0.010947,-0.001071,1.000000,-0.000195,0.000137,-0.000075,0.663832,0.109130,-0.713230,0.196776
58137,NaN,9.790338,-1.074594,-0.116619,-0.373655,0.115416,0.029372,-0.045145,0.037484,-0.009974,-1.104736,0.191650,-0.368164,0.097903,-0.010751,-0.001182,1.000000,-0.000226,0.000187,-0.000050,0.664136,0.108453,-0.713287,0.195917
58138,NaN,9.761478,-1.006342,-0.116530,-0.395874,0.174150,-0.008315,-0.050716,0.041014,-0.010979,-1.106934,0.189453,-0.370117,0.097614,-0.010069,-0.001183,1.000000,-0.000254,0.000205,-0.000055,0.664320,0.108283,-0.713195,0.195721
58139,NaN,9.768513,-0.952996,-0.199328,-0.340127,0.255734,-0.005002,-0.053978,0.032368,-0.013250,-1.104980,0.195801,-0.368164,0.097684,-0.009537,-0.002007,1.000000,-0.000270,0.000162,-0.000066,0.664627,0.107583,-0.713265,0.194806
58140,NaN,9.796025,-1.048201,-0.239161,-0.264148,0.189408,0.036798,-0.050331,0.036139,-0.015508,-1.102783,0.193848,-0.370117,0.097959,-0.010490,-0.002407,1.000000,-0.000252,0.000181,-0.000078,0.664797,0.107436,-0.713187,0.194594
58141,NaN,9.785385,-1.072611,-0.128384,-0.350191,0.116832,0.025221,-0.053775,0.027380,-0.019326,-1.104980,0.191650,-0.372314,0.097853,-0.010736,-0.001294,1.000000,-0.000269,0.000137,-0.000097,0.665105,0.106745,-0.713264,0.193634
58142,NaN,9.794720,-1.117139,-0.070807,-0.382432,0.052337,0.038229,-0.050420,0.023095,-0.024282,-1.100586,0.193848,-0.363770,0.097946,-0.011183,-0.000717,1.000000,-0.000252,0.000115,-0.000121,0.665237,0.106641,-0.713225,0.193385
58143,NaN,9.789988,-1.203232,-0.206786,-0.220398,0.027052,0.050632,-0.036070,0.022938,-0.023052,-1.104980,0.191650,-0.372314,0.097898,-0.012044,-0.002077,1.000000,-0.000180,0.000115,-0.000115,0.665532,0.106027,-0.713287,0.192477
58144,NaN,9.723611,-1.257720,-0.231402,-0.167501,-0.020359,-0.006794,-0.037606,0.016437,-0.020953,-1.111084,0.189453,-0.367920,0.097235,-0.012588,-0.002320,1.000000,-0.000188,0.000082,-0.000105,0.665630,0.105961,-0.713258,0.192282
58145,NaN,9.683190,-1.239457,-0.070876,-0.315289,-0.078292,-0.055643,-0.050469,0.012408,-0.017465,-1.102783,0.193848,-0.372314,0.096831,-0.012403,-0.000712,1.000000,-0.000252,0.000062,-0.000087,0.665887,0.105307,-0.713362,0.191361
58146,NaN,9.699769,-1.251711,0.054980,-0.424942,-0.140795,-0.042584,-0.044791,0.016819,-0.015299,-1.107178,0.195801,-0.365967,0.096997,-0.012524,0.000544,1.000000,-0.000224,0.000084,-0.000076,0.665984,0.105197,-0.713342,0.191159
