// Start Time: Unknown
// Update Rate: 100.0Hz
// Filter Profile: human (46.1)
// Firmware Version: 4.4.0
PacketCounter,SampleTimeFine,Acc_X,Acc_Y,Acc_Z,FreeAcc_X,FreeAcc_Y,FreeAcc_Z,Gyr_X,Gyr_Y,Gyr_Z,Mag_X,Mag_Y,Mag_Z,VelInc_X,VelInc_Y,VelInc_Z,OriInc_q0,OriInc_q1,OriInc_q2,OriInc_q3,Quat_q0,Quat_q1,Quat_q2,Quat_q3
51757,NaN,18.636245,-8.041249,1.930907,-0.000000,0.000000,10.575935,0.899566,0.323989,-0.756047,-0.726074,0.625977,0.050537,0.186087,-0.081201,0.018643,0.999981,0.004498,0.001620,-0.003780,0.509084,-0.633407,-0.230380,-0.535307
51758,NaN,24.015370,-8.442328,2.001550,0.000000,0.000000,15.721738,1.138610,0.506994,-1.005146,-0.736084,0.608887,0.031494,0.239774,-0.085739,0.018922,0.999968,0.005693,0.002535,-0.005026,0.526257,-0.610380,-0.300641,-0.510005
51759,NaN,29.024287,-9.664355,2.381273,1.324161,-0.753992,20.832461,1.639995,0.908804,-1.398020,-0.738037,0.604492,0.010254,0.289659,-0.098853,0.021691,0.999932,0.008200,0.004544,-0.006990,0.526036,-0.612534,-0.279995,-0.519317
51760,NaN,29.863210,-6.626845,2.373717,3.619981,-2.026443,20.586342,2.373954,0.870280,-1.941822,-0.752441,0.587402,-0.015381,0.298065,-0.069429,0.021628,0.999873,0.011869,0.004351,-0.009709,0.529416,-0.601235,-0.289781,-0.523700
51761,NaN,28.726656,0.726348,1.222205,8.772142,-5.121412,17.094775,2.980662,0.571701,-2.556428,-0.773438,0.576904,-0.036621,0.287360,0.003416,0.011471,0.999803,0.014902,0.002858,-0.012781,0.535212,-0.584707,-0.303255,-0.528869
51762,NaN,26.586300,9.465196,-0.868670,14.955152,-8.642031,12.520515,2.573249,0.607698,-3.140528,-0.787109,0.538330,-0.062012,0.267281,0.090571,-0.008315,0.999789,0.012865,0.003038,-0.015702,0.535239,-0.571330,-0.317550,-0.535036
51763,NaN,16.453287,12.487602,2.977734,15.853639,-2.966561,3.427801,4.137957,0.097637,-3.173447,-0.812012,0.514893,-0.083252,0.166495,0.121594,0.032235,0.999660,0.020687,0.000488,-0.015865,0.537808,-0.550172,-0.344787,-0.537768
51764,NaN,15.614136,9.864559,0.461320,12.255862,-4.243448,3.342742,4.493860,-0.084134,-3.038863,-0.821533,0.480713,-0.119141,0.157612,0.096121,0.006858,0.999632,0.022467,-0.000421,-0.015192,0.541656,-0.532875,-0.365327,-0.537763
51765,NaN,15.019431,4.952236,-1.828177,6.482067,-5.101114,3.803341,4.196480,-0.099270,-2.777796,-0.840332,0.461426,-0.135986,0.150875,0.047798,-0.017192,0.999683,0.020980,-0.000496,-0.013888,0.544552,-0.508598,-0.395788,-0.536790
51766,NaN,18.160898,3.651745,-3.609393,5.007859,-7.108583,6.937076,3.901114,0.052685,-2.997836,-0.851807,0.423096,-0.161377,0.182127,0.034486,-0.035456,0.999697,0.019504,0.000263,-0.014988,0.546366,-0.491750,-0.413617,-0.537203
51767,NaN,18.014921,-2.166611,-2.400264,-1.213589,-5.365093,7.643336,3.198533,0.609212,-3.135044,-0.870117,0.393066,-0.169434,0.179709,-0.024092,-0.024923,0.999745,0.015991,0.003046,-0.015674,0.550930,-0.464976,-0.445581,-0.530783
51768,NaN,15.944194,-16.526649,-0.099818,-16.123298,-3.023230,6.256180,1.689581,0.516959,-2.918551,-0.862549,0.363037,-0.192627,0.157002,-0.167551,-0.002815,0.999855,0.008447,0.002585,-0.014592,0.548185,-0.452380,-0.455361,-0.536183
51769,NaN,11.027763,-22.185204,0.386804,-22.089314,-3.089588,0.977264,1.493050,0.573772,-2.212207,-0.885498,0.348145,-0.198975,0.107822,-0.223073,0.001894,0.999907,0.007465,0.002869,-0.011061,0.556286,-0.433261,-0.482299,-0.519825
51770,NaN,0.755607,-33.428409,-7.647939,-32.613201,-10.528134,-11.235821,0.737894,-0.067462,-1.731776,-0.884521,0.318115,-0.209229,0.004689,-0.334048,-0.077710,0.999956,0.003689,-0.000337,-0.008659,0.553196,-0.427189,-0.488135,-0.522693
51771,NaN,0.224616,-20.756722,-9.521830,-18.661373,-13.078929,-11.309018,0.100520,-0.313008,-2.042432,-0.896973,0.305420,-0.206787,0.000276,-0.207529,-0.095321,0.999947,0.000503,-0.001565,-0.010212,0.566631,-0.413884,-0.518793,-0.488347
51772,NaN,-1.120759,-12.337677,-6.293815,-10.938158,-8.217552,-12.243989,0.031248,-0.471750,-1.956484,-0.900391,0.281738,-0.212891,-0.012265,-0.123250,-0.062986,0.999949,0.000156,-0.002359,-0.009782,0.560666,-0.409852,-0.524229,-0.492808
51773,NaN,-2.301285,-6.495011,-2.514904,-5.327307,-4.300008,-12.446096,0.273044,-0.717400,-1.451746,-0.910889,0.270996,-0.206543,-0.023393,-0.064747,-0.025321,0.999966,0.001365,-0.003587,-0.007259,0.583189,-0.389702,-0.565675,-0.433630
51774,NaN,-2.409225,-3.735246,-1.654173,-2.941434,-2.619223,-12.454665,0.691716,-0.873321,-0.912114,-0.897217,0.251709,-0.199707,-0.024189,-0.037185,-0.016776,0.999974,0.003459,-0.004367,-0.004561,0.580074,-0.386988,-0.571484,-0.432620
51775,NaN,-2.070718,-1.345234,-0.723490,-0.848992,-1.251207,-11.894652,0.768740,-0.786339,-0.562951,-0.912109,0.247559,-0.195312,-0.020716,-0.013366,-0.007368,0.999981,0.003844,-0.003932,-0.002815,0.601800,-0.363833,-0.607576,-0.369207
51776,NaN,-1.306179,-0.614429,-0.169642,-0.446348,-0.435937,-11.125364,0.584599,-0.698282,-0.378548,-0.907715,0.239014,-0.193115,-0.013067,-0.006114,-0.001760,0.999988,0.002923,-0.003491,-0.001893,0.600036,-0.362209,-0.611438,-0.367296
51777,NaN,-1.339292,0.344372,0.245004,0.151253,0.327061,-11.170064,0.329671,-0.538390,-0.230445,-0.909668,0.236816,-0.190918,-0.013395,0.003455,0.002420,0.999994,0.001648,-0.002692,-0.001152,0.614837,-0.344154,-0.636812,-0.313054
51778,NaN,-1.588135,0.291299,0.475377,-0.017466,0.468458,-11.429243,0.169009,-0.399583,0.004066,-0.905029,0.226074,-0.186523,-0.015891,0.002909,0.004724,0.999998,0.000845,-0.001998,0.000020,0.613861,-0.344272,-0.638297,-0.311815
51779,NaN,-0.798567,1.543678,2.211623,-0.222658,2.599609,-10.863581,-0.139302,-0.278739,0.218388,-0.909424,0.230225,-0.182373,-0.008033,0.015443,0.022094,0.999998,-0.000697,-0.001394,0.001092,0.624683,-0.331981,-0.653381,-0.269541
51780,NaN,-0.244280,2.105769,2.581257,-0.016841,3.290678,-10.385358,-0.369554,-0.150880,0.412409,-0.901123,0.236816,-0.188721,-0.002506,0.021100,0.025772,0.999996,-0.001848,-0.000754,0.002062,0.624130,-0.334685,-0.652667,-0.269209
51781,NaN,-0.144421,1.038174,2.867045,-1.165216,2.779896,-10.295432,-0.485072,-0.050009,0.603789,-0.907715,0.240967,-0.182373,-0.001483,0.010447,0.028645,0.999992,-0.002425,-0.000250,0.003019,0.631738,-0.330144,-0.658171,-0.242330
51782,NaN,-0.437126,-0.051351,2.207280,-1.524752,1.537202,-10.427456,-0.493786,0.005515,0.766640,-0.896973,0.240967,-0.184570,-0.004369,-0.000476,0.022074,0.999990,-0.002469,0.000028,0.003833,0.631863,-0.334216,-0.656283,-0.241540
51783,NaN,-0.485495,-0.897020,1.238059,-1.519734,0.207087,-10.282429,-0.492361,0.028461,0.888002,-0.899414,0.247559,-0.180420,-0.004813,-0.008961,0.012403,0.999987,-0.002462,0.000142,0.004440,0.638113,-0.334374,-0.656570,-0.223432
51784,NaN,-0.305853,-1.197065,1.026252,-1.586225,-0.114031,-10.037579,-0.505375,0.022354,0.982726,-0.893066,0.256104,-0.182617,-0.002999,-0.011960,0.010293,0.999985,-0.002527,0.000112,0.004914,0.638430,-0.339182,-0.654281,-0.221989
51785,NaN,0.489646,-0.802766,1.188694,-1.375733,0.376915,-9.300383,-0.554286,0.016679,1.005283,-0.893799,0.270996,-0.178467,0.004938,-0.007970,0.011909,0.999984,-0.002771,0.000083,0.005026,0.643913,-0.341015,-0.652971,-0.206672
51786,NaN,1.195892,0.224401,1.410570,-0.745275,1.374007,-8.799351,-0.701117,0.049225,0.991560,-0.883057,0.277344,-0.178467,0.011951,0.002353,0.014095,0.999982,-0.003506,0.000246,0.004958,0.643891,-0.346453,-0.650385,-0.205849
51787,NaN,1.559214,1.342084,1.031316,0.347935,1.948333,-8.638458,-0.965783,0.100050,0.933747,-0.883789,0.292480,-0.174561,0.015534,0.013543,0.010240,0.999977,-0.004829,0.000500,0.004669,0.648050,-0.350700,-0.646973,-0.196128
51788,NaN,1.492479,1.943754,0.631622,1.076251,2.058044,-8.807372,-1.109170,0.140872,0.861311,-0.875244,0.296631,-0.172363,0.014845,0.019536,0.006198,0.999975,-0.005546,0.000704,0.004307,0.647390,-0.356933,-0.643902,-0.197168
51789,NaN,1.212391,2.296744,1.101102,0.999311,2.572602,-9.229321,-1.120268,0.138063,0.817175,-0.880127,0.311768,-0.172607,0.012037,0.023078,0.010874,0.999976,-0.005601,0.000690,0.004086,0.650164,-0.363042,-0.638752,-0.193606
51790,NaN,0.758901,2.727684,1.468973,1.039027,3.015681,-9.815760,-1.144281,0.139726,0.745080,-0.876221,0.322266,-0.168457,0.007497,0.027388,0.014528,0.999976,-0.005721,0.000699,0.003725,0.649239,-0.368997,-0.635822,-0.195087
51791,NaN,0.418350,2.892661,1.546065,1.110505,3.088356,-10.214585,-1.045503,0.155689,0.693625,-0.874512,0.333008,-0.160156,0.004095,0.029021,0.015306,0.999980,-0.005227,0.000778,0.003468,0.651064,-0.376104,-0.629261,-0.196702
51792,NaN,0.251137,3.151961,1.702254,1.204954,3.318404,-10.469763,-0.964174,0.204043,0.648988,-0.872314,0.337402,-0.162354,0.002426,0.031609,0.016868,0.999983,-0.004821,0.001020,0.003245,0.650520,-0.381078,-0.626417,-0.198003
51793,NaN,0.242968,2.463146,1.312063,1.014449,2.567704,-10.287384,-0.989538,0.250954,0.630915,-0.872803,0.350098,-0.156006,0.002368,0.024703,0.012996,0.999982,-0.004948,0.001255,0.003155,0.651788,-0.388961,-0.618307,-0.203906
51794,NaN,0.619261,1.497714,0.474854,0.913386,1.409120,-9.633275,-1.004158,0.290633,0.612994,-0.864502,0.354492,-0.153809,0.006153,0.015020,0.004664,0.999982,-0.005021,0.001453,0.003065,0.651347,-0.393825,-0.615133,-0.205574
51795,NaN,0.649156,1.122417,0.332434,0.758867,1.058001,-9.502091,-0.954909,0.336832,0.590669,-0.864990,0.371582,-0.156250,0.006464,0.011259,0.003260,0.999983,-0.004775,0.001684,0.002953,0.652308,-0.401547,-0.606531,-0.213012
51796,NaN,0.318210,0.300296,0.161629,0.187119,0.368495,-9.596460,-0.950085,0.368515,0.572602,-0.858643,0.373779,-0.147705,0.003176,0.003020,0.001596,0.999983,-0.004750,0.001843,0.002863,0.652117,-0.405983,-0.603157,-0.214762
51797,NaN,0.274500,-0.941003,-0.278353,-0.513419,-0.699182,-9.278031,-0.792878,0.372665,0.618588,-0.863525,0.390869,-0.141602,0.002769,-0.009412,-0.002751,0.999986,-0.003964,0.001863,0.003093,0.653252,-0.412698,-0.595034,-0.221083
51798,NaN,0.015644,-0.525357,0.030311,-0.425071,-0.266091,-9.652465,-0.499526,0.373651,0.667594,-0.855225,0.399414,-0.150146,0.000175,-0.005252,0.000316,0.999990,-0.002498,0.001868,0.003338,0.654064,-0.415898,-0.591877,-0.221157
51799,NaN,-0.237098,0.037449,0.310101,-0.201044,0.225541,-10.062672,-0.239248,0.325760,0.689038,-0.857910,0.412354,-0.141846,-0.002367,0.000370,0.003104,0.999992,-0.001196,0.001629,0.003445,0.656350,-0.420166,-0.585384,-0.223585
51800,NaN,-0.709564,-2.085305,0.076314,-1.834478,-1.219737,-9.881305,0.156509,0.262952,0.768426,-0.849609,0.420898,-0.137695,-0.007014,-0.020881,0.000756,0.999991,0.000783,0.001315,0.003842,0.658302,-0.421604,-0.583077,-0.221155
51801,NaN,-1.429497,-4.819807,-0.275801,-3.938459,-3.134765,-9.704794,0.620445,0.178627,0.859027,-0.849854,0.431641,-0.142090,-0.014090,-0.048250,-0.002895,0.999986,0.003102,0.000893,0.004295,0.662320,-0.422968,-0.578497,-0.218566
51802,NaN,-0.458126,-10.022569,-0.190502,-7.769546,-5.748125,-7.112707,0.793164,0.065988,1.011664,-0.837402,0.440186,-0.137939,-0.004075,-0.100239,-0.002301,0.999979,0.003966,0.000330,0.005058,0.665281,-0.423187,-0.576993,-0.213057
51803,NaN,3.427765,-56.506486,1.951138,-43.345891,-29.082455,12.182211,0.459613,0.215882,1.953147,-0.838379,0.472168,-0.134033,0.039814,-0.564737,0.018172,0.999949,0.002298,0.001079,0.009766,0.671327,-0.426392,-0.571715,-0.201624
51804,NaN,-9.348222,-97.852884,1.299144,-77.910171,-53.958269,16.291037,-2.620107,1.053780,3.100145,-0.811035,0.489258,-0.127686,-0.078188,-0.979534,0.026259,0.999780,-0.013100,0.005269,0.015500,0.671731,-0.442891,-0.558803,-0.200910
51805,NaN,22.514474,-35.554747,4.170406,-20.587834,-10.551727,25.586289,-2.175331,-0.909786,2.106741,-0.816162,0.508545,-0.108887,0.228665,-0.352662,0.046585,0.999875,-0.010876,-0.004549,0.010533,0.678288,-0.444719,-0.565813,-0.148345
51806,NaN,50.781457,52.130505,-28.371662,70.652125,22.747988,14.519546,-0.515547,-1.051449,-0.507925,-0.805176,0.500000,-0.102295,0.510622,0.519282,-0.282377,0.999980,-0.002578,-0.005257,-0.002540,0.673777,-0.445802,-0.570114,-0.149185
51807,NaN,14.789337,52.174124,-5.331390,43.420031,31.170237,-20.413200,-0.403747,-0.571126,1.215078,-0.812500,0.525635,-0.074707,0.144874,0.522519,-0.053952,0.999975,-0.002019,-0.002856,0.006075,0.675837,-0.446535,-0.573859,-0.120568
51808,NaN,19.820443,22.211151,-0.208984,21.433865,19.436608,-2.811197,-2.470607,-1.883154,1.352897,-0.793457,0.529785,-0.049072,0.196721,0.223412,-0.002987,0.999856,-0.012352,-0.009415,0.006764,0.665636,-0.459837,-0.575630,-0.118863
51809,NaN,15.154082,-0.823708,-4.168444,6.819716,2.303932,4.183026,-2.668807,-1.248228,0.725113,-0.800293,0.538330,-0.017090,0.151826,-0.008234,-0.040628,0.999885,-0.013344,-0.006241,0.003625,0.657953,-0.467541,-0.579346,-0.113406
51810,NaN,15.427308,-3.711718,-6.290237,6.150103,-0.647163,6.096434,-1.708527,-0.164518,-0.392827,-0.799805,0.527588,-0.016846,0.154251,-0.037955,-0.062454,0.999961,-0.008543,-0.000823,-0.001964,0.653235,-0.472100,-0.579814,-0.119258
51811,NaN,24.376899,2.808168,5.484904,5.754983,15.143137,9.416671,-1.747449,0.121070,-0.320688,-0.804199,0.529785,-0.001953,0.243847,0.028168,0.054456,0.999960,-0.008737,0.000605,-0.001603,0.648867,-0.476970,-0.579296,-0.126046
51812,NaN,62.382547,-9.597053,13.449319,3.245996,30.084724,47.186022,-0.243888,-1.004331,1.244535,-0.787354,0.538330,0.015137,0.623720,-0.091922,0.137739,0.999967,-0.001219,-0.005022,0.006223,0.646140,-0.481983,-0.579413,-0.120315
51813,NaN,95.941461,26.138384,11.242163,41.765993,59.871012,58.633571,-2.332084,-1.309795,2.178447,-0.781738,0.561768,0.034180,0.955732,0.273143,0.115550,0.999851,-0.011660,-0.006549,0.010892,0.638162,-0.499076,-0.572645,-0.125502
51814,NaN,16.128642,3.149690,-9.148998,13.028618,0.975261,3.716880,-0.480635,0.690627,2.383204,-0.764893,0.572510,0.023438,0.160580,0.033192,-0.092124,0.999920,-0.002403,0.003453,0.011916,0.640384,-0.506960,-0.564147,-0.120987
51815,NaN,-11.875486,-14.874985,-5.860228,-11.982498,-15.814038,-11.529734,-2.134211,0.128923,1.634124,-0.752686,0.589600,0.044678,-0.117568,-0.150327,-0.056928,0.999909,-0.010671,0.000645,0.008170,0.635338,-0.522543,-0.551189,-0.139591
51816,NaN,-0.986091,-18.779950,0.231633,-14.669226,-7.874098,-1.065182,-1.332683,-1.558058,0.722654,-0.754639,0.585205,0.059570,-0.009206,-0.187813,0.003494,0.999941,-0.006663,-0.007790,0.003613,0.628029,-0.529825,-0.553287,-0.136889
51817,NaN,-3.450990,-7.406291,-7.994752,-2.635181,-10.893965,-7.564319,-0.832509,-0.648217,-0.008568,-0.754883,0.587402,0.070312,-0.034254,-0.074394,-0.079750,0.999986,-0.004163,-0.003241,-0.000043,0.623862,-0.534858,-0.551037,-0.145194
51818,NaN,-2.532512,-11.289220,-4.647987,-7.124102,-9.223707,-5.381636,-0.387942,-0.693172,-0.215349,-0.748047,0.578613,0.072754,-0.025286,-0.112955,-0.046348,0.999992,-0.001940,-0.003466,-0.001077,0.620753,-0.535974,-0.553489,-0.145079
51819,NaN,1.236220,-7.789540,-3.383196,-3.840081,-5.272469,-4.235419,0.006970,-0.276884,-0.591558,-0.763184,0.578857,0.081055,0.012179,-0.077930,-0.033818,0.999995,0.000035,-0.001384,-0.002958,0.619594,-0.535060,-0.554741,-0.148584
51820,NaN,4.937953,-5.270945,-1.426954,-1.694088,-1.190839,-2.747700,-0.059925,-0.247707,-0.907115,-0.758545,0.568115,0.074951,0.049157,-0.052937,-0.014193,0.999989,-0.000300,-0.001239,-0.004536,0.618066,-0.532908,-0.557884,-0.150896
51821,NaN,9.884573,-6.103332,1.189401,-2.168063,2.626247,1.357416,-0.275952,-0.031418,-1.061628,-0.773438,0.565918,0.081299,0.098518,-0.061540,0.011994,0.999985,-0.001380,-0.000157,-0.005308,0.616496,-0.531023,-0.560056,-0.155836
51822,NaN,12.581280,-4.859023,0.721324,-0.190202,3.742221,3.163315,-0.314475,0.127366,-1.159061,-0.775146,0.555176,0.081543,0.125533,-0.049307,0.007210,0.999982,-0.001572,0.000637,-0.005795,0.615103,-0.528637,-0.562485,-0.160625
51823,NaN,13.891641,-3.601452,0.219435,1.369482,4.224798,3.835384,-0.179091,0.302052,-1.070563,-0.788086,0.548828,0.087891,0.138724,-0.036756,0.002017,0.999984,-0.000895,0.001510,-0.005353,0.614751,-0.526143,-0.563577,-0.166239
51824,NaN,12.837472,-2.000705,-0.911917,2.804495,3.403105,2.442406,-0.132336,0.278868,-0.979633,-0.782959,0.531738,0.077393,0.128262,-0.020642,-0.009285,0.999987,-0.000662,0.001394,-0.004898,0.614367,-0.523551,-0.565179,-0.170354
51825,NaN,13.035686,-3.473938,-2.164813,2.239822,1.737344,3.553209,0.090885,0.219442,-0.942054,-0.800293,0.533936,0.077393,0.130167,-0.035343,-0.021807,0.999988,0.000454,0.001097,-0.004710,0.614455,-0.520749,-0.566255,-0.174989
51826,NaN,10.911367,-4.389167,-2.182548,0.802673,0.471537,2.112852,0.336796,0.315244,-0.918963,-0.795654,0.520996,0.066895,0.108876,-0.044355,-0.022072,0.999987,0.001684,0.001576,-0.004595,0.615412,-0.516830,-0.567966,-0.177677
51827,NaN,8.872432,-3.849195,-1.633282,0.301047,0.292130,-0.013345,0.552463,0.342873,-0.967011,-0.803955,0.518799,0.064697,0.088509,-0.038875,-0.016592,0.999983,0.002762,0.001714,-0.004835,0.616959,-0.512245,-0.569366,-0.181079
51828,NaN,8.222558,-3.968816,-1.505063,-0.091185,0.022424,-0.559719,0.667808,0.433027,-1.004104,-0.805664,0.501709,0.050049,0.081992,-0.040049,-0.015362,0.999979,0.003339,0.002165,-0.005020,0.618980,-0.506924,-0.571194,-0.183380
51829,NaN,8.681324,-3.715400,-1.823799,0.348988,-0.087460,-0.202014,0.325313,0.433197,-1.256388,-0.822998,0.503906,0.054199,0.086538,-0.037668,-0.018487,0.999977,0.001627,0.002166,-0.006282,0.619881,-0.502039,-0.572948,-0.188239
51830,NaN,7.251958,-4.492269,-1.144622,-1.095029,-0.440093,-1.286993,0.295943,0.446228,-1.368595,-0.822266,0.484619,0.041504,0.072184,-0.045400,-0.011674,0.999973,0.001480,0.002231,-0.006843,0.620598,-0.496768,-0.575263,-0.192748
51831,NaN,7.695533,-3.356246,-0.854452,-0.284540,0.336406,-1.385333,0.237480,0.424879,-1.392807,-0.834717,0.473877,0.037354,0.076701,-0.034087,-0.008748,0.999973,0.001187,0.002124,-0.006964,0.621065,-0.491648,-0.577359,-0.198033
51832,NaN,8.507291,-2.319813,-1.349661,0.945875,0.539106,-0.958849,0.327181,0.407109,-1.386505,-0.838623,0.461182,0.033203,0.084882,-0.023765,-0.013708,0.999973,0.001636,0.002036,-0.006932,0.621655,-0.486213,-0.579811,-0.202389
51833,NaN,9.288323,-1.831748,-1.621314,1.596319,0.665565,-0.364711,0.364270,0.407792,-1.351497,-0.848877,0.452637,0.029053,0.092723,-0.018915,-0.016436,0.999973,0.001821,0.002039,-0.006757,0.622349,-0.480785,-0.581948,-0.207037
51834,NaN,9.869290,-0.732316,-1.570254,2.524203,1.281474,-0.200734,0.309911,0.424164,-1.295395,-0.844238,0.437500,0.020752,0.098609,-0.007937,-0.015924,0.999976,0.001550,0.002121,-0.006477,0.622972,-0.475601,-0.584048,-0.211181
51835,NaN,10.046592,-0.320148,-1.667507,2.872347,1.337071,-0.128801,0.204258,0.404823,-1.201962,-0.859131,0.433350,0.016357,0.100410,-0.003788,-0.016882,0.999979,0.001021,0.002024,-0.006010,0.623284,-0.471092,-0.585655,-0.215866
51836,NaN,9.596317,-0.545991,-1.605475,2.481972,1.069347,-0.449984,0.139050,0.387812,-1.116958,-0.860840,0.424805,0.012207,0.095899,-0.005984,-0.016245,0.999982,0.000695,0.001939,-0.005585,0.623531,-0.466961,-0.587217,-0.219849
51837,NaN,9.223960,-0.305808,-1.831150,2.648868,0.802249,-0.820074,0.032933,0.377841,-1.038081,-0.864746,0.414062,0.008057,0.092187,-0.003534,-0.018486,0.999985,0.000165,0.001889,-0.005190,0.623473,-0.463317,-0.588455,-0.224366
51838,NaN,8.985292,-0.294259,-2.009428,2.643489,0.520198,-1.003573,-0.041805,0.368193,-0.957039,-0.870850,0.403320,0.006104,0.089800,-0.003377,-0.020259,0.999987,-0.000209,0.001841,-0.004785,0.623378,-0.460212,-0.589469,-0.228323
51839,NaN,8.663134,-0.805405,-2.052074,2.118190,0.083696,-1.128493,-0.088277,0.371010,-0.887188,-0.881836,0.407715,0.003906,0.086556,-0.008447,-0.020678,0.999988,-0.000441,0.001855,-0.004436,0.623083,-0.457406,-0.590223,-0.232775
51840,NaN,9.039081,-0.865777,-1.803032,1.961970,0.292935,-0.770023,-0.141314,0.372116,-0.785542,-0.876953,0.394775,-0.000244,0.090322,-0.009025,-0.018192,0.999990,-0.000707,0.001861,-0.003928,0.622938,-0.455090,-0.590689,-0.236488
51841,NaN,9.214783,-0.657475,-1.721230,2.073396,0.435477,-0.657467,-0.196411,0.343074,-0.699491,-0.881104,0.390625,-0.000244,0.092094,-0.006914,-0.017364,0.999992,-0.000982,0.001715,-0.003497,0.622496,-0.453037,-0.591134,-0.240452
51842,NaN,9.838481,-1.016935,-1.372279,1.667428,0.650000,0.011252,-0.172381,0.314501,-0.606469,-0.880859,0.382080,-0.008545,0.098332,-0.010479,-0.013869,0.999994,-0.000862,0.001573,-0.003032,0.622303,-0.451400,-0.591317,-0.243560
51843,NaN,10.040285,-0.354498,-0.616195,1.826320,1.595517,-0.043794,-0.169171,0.288996,-0.507352,-0.889404,0.379883,0.000000,0.100384,-0.003805,-0.006304,0.999995,-0.000846,0.001445,-0.002537,0.621989,-0.449871,-0.591535,-0.246641
51844,NaN,10.064201,0.319088,-0.225306,2.168664,2.208882,-0.228414,-0.137811,0.215364,-0.403190,-0.880371,0.371338,-0.006348,0.100646,0.002986,-0.002364,0.999997,-0.000689,0.001077,-0.002016,0.621818,-0.448840,-0.591600,-0.248786
51845,NaN,9.984880,0.243643,-0.313022,2.109225,2.037885,-0.260030,-0.063256,0.125806,-0.321624,-0.889160,0.375488,-0.006348,0.099851,0.002275,-0.003194,0.999998,-0.000316,0.000629,-0.001608,0.621224,-0.448235,-0.591599,-0.251349
51846,NaN,9.959443,-0.179154,-0.308997,1.728171,1.815566,-0.167213,0.021750,0.055830,-0.224223,-0.882568,0.366943,-0.012695,0.099591,-0.001903,-0.003118,0.999999,0.000109,0.000279,-0.001121,0.621157,-0.447434,-0.591954,-0.252106
51847,NaN,9.871545,-0.426755,-0.179194,1.418210,1.772835,-0.194613,0.106185,0.004011,-0.110292,-0.886963,0.373535,-0.004395,0.098713,-0.004321,-0.001796,1.000000,0.000531,0.000020,-0.000551,0.621053,-0.446657,-0.592381,-0.252736
51848,NaN,9.926434,-0.744415,-0.384090,1.256386,1.458030,-0.038670,0.122404,-0.074329,-0.049848,-0.886963,0.369141,-0.012695,0.099264,-0.007467,-0.003809,1.000000,0.000612,-0.000372,-0.000249,0.621044,-0.446223,-0.592876,-0.252362
51849,NaN,9.930189,-0.759132,-0.462133,1.272899,1.381679,-0.021406,0.116549,-0.075931,0.024657,-0.891113,0.366943,-0.004150,0.099305,-0.007576,-0.004588,1.000000,0.000583,-0.000380,0.000123,0.620781,-0.446134,-0.593087,-0.252674
51850,NaN,9.975007,0.017514,-0.912488,2.164881,1.383967,-0.131178,-0.046250,-0.089036,0.058016,-0.882324,0.364990,-0.008301,0.099754,0.000202,-0.009081,1.000000,-0.000231,-0.000445,0.000290,0.620488,-0.446562,-0.593174,-0.252432
51851,NaN,9.562335,-0.613189,-1.259699,1.734720,0.700120,-0.331039,-0.102850,-0.107914,0.125911,-0.884766,0.373535,0.000000,0.095634,-0.006078,-0.012542,1.000000,-0.000514,-0.000540,0.000630,0.619727,-0.447617,-0.592829,-0.253242
51852,NaN,9.634631,-1.064013,-1.272650,1.379079,0.509078,-0.147450,-0.137411,-0.105503,0.191409,-0.882568,0.371338,-0.008545,0.096363,-0.010557,-0.012668,0.999999,-0.000687,-0.000528,0.000957,0.619349,-0.448743,-0.592552,-0.252819
51853,NaN,9.768068,-1.222290,-1.022922,1.143835,0.688703,-0.005914,-0.147901,-0.110692,0.239638,-0.885010,0.379883,-0.002197,0.097701,-0.012113,-0.010166,0.999999,-0.000740,-0.000553,0.001198,0.618564,-0.450374,-0.591896,-0.253380
51854,NaN,9.778264,-1.328289,-0.693380,0.904244,0.947839,-0.007411,-0.118825,-0.131011,0.280760,-0.878662,0.377686,0.000000,0.097806,-0.013150,-0.006862,0.999999,-0.000594,-0.000655,0.001404,0.618264,-0.451738,-0.591516,-0.252567
51855,NaN,9.871895,-0.828810,-0.516478,1.265937,1.370861,-0.069690,-0.145771,-0.151261,0.341878,-0.887451,0.384033,0.004150,0.098737,-0.008123,-0.005084,0.999998,-0.000729,-0.000756,0.001709,0.617434,-0.453813,-0.590698,-0.252793
51856,NaN,9.503007,-0.124021,-0.356476,1.740967,1.781461,-0.634186,-0.217054,-0.188991,0.395572,-0.874512,0.384033,0.006348,0.095036,-0.001056,-0.003474,0.999997,-0.001085,-0.000945,0.001978,0.616882,-0.455889,-0.590107,-0.251783
51857,NaN,9.041026,-0.549428,-0.865805,1.567523,1.067246,-0.913513,-0.290773,-0.254532,0.472597,-0.879150,0.392578,0.012695,0.090434,-0.005293,-0.008535,0.999995,-0.001454,-0.001273,0.002363,0.615420,-0.459171,-0.588875,-0.252282
51858,NaN,9.165590,-0.785578,-1.396499,1.673265,0.575252,-0.677896,-0.407249,-0.289649,0.519558,-0.866211,0.392578,0.010498,0.091696,-0.007646,-0.013816,0.999994,-0.002036,-0.001448,0.002598,0.614285,-0.462317,-0.588055,-0.251215
51859,NaN,9.632572,-1.465611,-1.357760,1.168788,0.469476,-0.056089,-0.444786,-0.273500,0.556502,-0.877197,0.401123,0.020996,0.096384,-0.014418,-0.013414,0.999993,-0.002224,-0.001367,0.002783,0.614213,-0.462386,-0.589614,-0.247582
51860,NaN,9.543967,-1.705418,-1.405834,0.998762,0.352486,-0.073588,-0.502590,-0.275283,0.572192,-0.864502,0.403320,0.020996,0.095507,-0.016816,-0.013884,0.999992,-0.002513,-0.001376,0.002861,0.612944,-0.465954,-0.588508,-0.246667
51861,NaN,9.795124,-2.554717,-1.730434,0.496593,-0.188116,0.443192,-0.470845,-0.298041,0.597896,-0.871338,0.411865,0.033691,0.098053,-0.025295,-0.017099,0.999992,-0.002354,-0.001490,0.002989,0.612382,-0.467012,-0.589426,-0.243853
51862,NaN,10.342899,-2.472463,-1.335320,0.504479,0.389489,0.886147,-0.389605,-0.269646,0.633047,-0.862793,0.416260,0.027344,0.103524,-0.024423,-0.013166,0.999992,-0.001948,-0.001348,0.003165,0.611446,-0.470397,-0.588293,-0.242431
51863,NaN,10.740353,-0.923683,-0.391063,1.453574,2.044534,0.678632,-0.299044,-0.243272,0.693971,-0.865234,0.420410,0.042236,0.107439,-0.008870,-0.003767,0.999992,-0.001495,-0.001216,0.003470,0.611063,-0.472192,-0.588229,-0.240049
51864,NaN,9.588583,2.416939,-0.477805,4.160480,3.184842,-1.412837,-0.372444,-0.273628,0.794905,-0.852295,0.424805,0.035889,0.095795,0.024541,-0.004692,0.999989,-0.001862,-0.001368,0.003975,0.610327,-0.475993,-0.586733,-0.238066
51865,NaN,8.263515,1.151305,-2.708138,3.948158,0.407271,-1.990219,-0.473127,-0.393758,0.884492,-0.856934,0.433350,0.044189,0.082636,0.011815,-0.026946,0.999985,-0.002366,-0.001969,0.004422,0.609163,-0.479452,-0.586009,-0.235881
51866,NaN,8.582708,-2.395767,-3.158814,1.255234,-1.352868,-0.540456,-0.603747,-0.376731,0.888764,-0.844238,0.437500,0.044189,0.085992,-0.023671,-0.031355,0.999984,-0.003019,-0.001884,0.004444,0.607651,-0.484333,-0.584303,-0.234035
51867,NaN,9.135602,-4.759586,-2.380516,-0.976677,-1.458623,0.613122,-0.518950,-0.297478,0.841934,-0.844482,0.448242,0.052734,0.091591,-0.047272,-0.023546,0.999987,-0.002595,-0.001487,0.004210,0.607447,-0.485744,-0.584968,-0.229940
51868,NaN,10.145102,-4.528372,-1.363566,-1.013988,-0.115145,1.333897,-0.334022,-0.184028,0.850321,-0.833984,0.454590,0.056885,0.101655,-0.044874,-0.013467,0.999989,-0.001670,-0.000920,0.004252,0.607069,-0.489453,-0.583070,-0.227884
51869,NaN,10.420030,-2.143247,-0.570661,0.730704,1.706059,0.677833,-0.307285,-0.163698,0.784752,-0.843018,0.461182,0.063232,0.104288,-0.021032,-0.005589,0.999991,-0.001536,-0.000818,0.003924,0.606808,-0.492048,-0.581992,-0.225740
51870,NaN,8.976815,0.299629,-0.967037,2.726776,1.998803,-1.435505,-0.341396,-0.267408,0.816833,-0.836670,0.469727,0.065186,0.089768,0.003347,-0.009556,0.999989,-0.001707,-0.001337,0.004084,0.606106,-0.495759,-0.580401,-0.223594
51871,NaN,8.734632,-0.962702,-1.701845,1.989668,0.823743,-1.124819,-0.443384,-0.342942,0.844622,-0.834961,0.478271,0.075928,0.087415,-0.009295,-0.016848,0.999987,-0.002217,-0.001715,0.004223,0.604794,-0.499375,-0.579264,-0.222038
51872,NaN,8.533982,-2.013946,-2.012426,1.242343,0.135483,-0.903569,-0.523391,-0.368786,0.853184,-0.824219,0.478027,0.075928,0.085462,-0.019827,-0.019915,0.999986,-0.002617,-0.001844,0.004266,0.603358,-0.503833,-0.577659,-0.220049
51873,NaN,9.134681,-3.577661,-1.840614,0.000728,-0.077957,0.168449,-0.546635,-0.375256,0.860291,-0.822754,0.495361,0.086426,0.091534,-0.035433,-0.018137,0.999985,-0.002733,-0.001876,0.004301,0.601188,-0.509079,-0.575325,-0.220032
51874,NaN,10.286288,-4.587068,-1.114100,-0.872792,0.621393,1.454135,-0.514747,-0.323391,0.833530,-0.809814,0.495117,0.088623,0.103071,-0.045470,-0.010857,0.999987,-0.002574,-0.001617,0.004168,0.599856,-0.513374,-0.573600,-0.218179
51875,NaN,9.217874,-2.853622,-0.771420,0.226336,1.296245,-0.222308,-0.465753,-0.307457,0.792862,-0.816406,0.501709,0.096924,0.092303,-0.028188,-0.007506,0.999988,-0.002329,-0.001537,0.003964,0.597350,-0.519740,-0.569852,-0.219799
51876,NaN,7.915258,-2.120136,-1.873526,1.062242,0.239318,-1.477802,-0.409604,-0.403250,0.795909,-0.810303,0.508057,0.096924,0.079274,-0.020924,-0.018532,0.999988,-0.002048,-0.002016,0.003980,0.596004,-0.523670,-0.568530,-0.217537
51877,NaN,8.885352,-3.383373,-2.332470,0.462499,-0.226483,-0.036629,-0.364232,-0.405361,0.758876,-0.806152,0.512207,0.105469,0.089028,-0.033538,-0.023083,0.999989,-0.001821,-0.002027,0.003794,0.594371,-0.527434,-0.567178,-0.216436
51878,NaN,9.001634,-3.542566,-2.226111,0.347922,-0.077572,0.107351,-0.311153,-0.359776,0.718003,-0.799805,0.516602,0.103271,0.090183,-0.035137,-0.022044,0.999991,-0.001556,-0.001799,0.003590,0.593302,-0.530782,-0.566011,-0.214232
51879,NaN,9.658789,-3.697284,-1.997526,0.322060,0.358255,0.709650,-0.275579,-0.312431,0.720739,-0.795654,0.520752,0.124756,0.096751,-0.036652,-0.019774,0.999991,-0.001378,-0.001562,0.003604,0.592578,-0.533163,-0.565383,-0.211970
51880,NaN,9.670533,-2.364020,-1.228872,1.171003,1.551672,0.027967,-0.279344,-0.262958,0.754739,-0.791260,0.518799,0.122559,0.096810,-0.023292,-0.012129,0.999991,-0.001397,-0.001315,0.003774,0.591884,-0.536400,-0.563849,-0.209819
51881,NaN,8.951221,-1.401024,-1.352792,1.905782,1.529344,-0.983991,-0.251763,-0.304228,0.796907,-0.787598,0.533691,0.122314,0.089588,-0.013670,-0.013374,0.999990,-0.001259,-0.001521,0.003985,0.589734,-0.542878,-0.558997,-0.212177
51882,NaN,9.309882,-2.911268,-1.386440,0.780987,1.204858,-0.065415,-0.254281,-0.329432,0.849567,-0.776855,0.535889,0.122559,0.093244,-0.028734,-0.013674,0.999989,-0.001271,-0.001647,0.004248,0.589017,-0.546347,-0.557387,-0.209484
51883,NaN,9.140167,-2.505396,-1.240984,1.069440,1.455822,-0.426746,-0.304144,-0.315443,0.900119,-0.777344,0.548584,0.135010,0.091533,-0.024661,-0.012228,0.999987,-0.001521,-0.001577,0.004501,0.588004,-0.550318,-0.555132,-0.207918
51884,NaN,9.131795,-2.865203,-1.598072,0.972471,1.097751,-0.220955,-0.262382,-0.352279,0.958183,-0.764404,0.550781,0.135254,0.091482,-0.028235,-0.015782,0.999986,-0.001312,-0.001761,0.004791,0.587291,-0.554109,-0.553250,-0.204856
51885,NaN,10.018759,-3.428616,-1.588464,0.827719,1.321870,0.780738,-0.245015,-0.294297,1.015465,-0.762695,0.561523,0.141357,0.100383,-0.033796,-0.015695,0.999985,-0.001225,-0.001471,0.005077,0.585707,-0.560273,-0.548507,-0.205381
51886,NaN,9.164805,-3.592384,-1.794934,0.587579,0.843350,0.140364,-0.059857,-0.229626,1.053238,-0.756592,0.567871,0.139160,0.091856,-0.035446,-0.017833,0.999985,-0.000299,-0.001148,0.005266,0.585982,-0.563567,-0.546159,-0.201813
51887,NaN,7.989135,-4.022607,-2.012791,0.007755,0.136328,-0.645387,0.156317,-0.295289,1.097817,-0.750488,0.576416,0.151855,0.080140,-0.039771,-0.020041,0.999984,0.000782,-0.001476,0.005489,0.586069,-0.567607,-0.542643,-0.199712
51888,NaN,9.121456,-4.195507,-1.926120,0.295503,0.657716,0.384963,0.330442,-0.291236,1.108163,-0.739746,0.582764,0.145508,0.091473,-0.041417,-0.019197,0.999982,0.001652,-0.001456,0.005541,0.587311,-0.569928,-0.540671,-0.194736
51889,NaN,10.167869,-3.740586,-2.996516,1.572912,0.269803,1.314237,0.380799,-0.206604,1.065225,-0.733887,0.597900,0.141113,0.101907,-0.036806,-0.029930,0.999983,0.001904,-0.001033,0.005326,0.587531,-0.574956,-0.535096,-0.194694
51891,NaN,10.804813,-3.918523,-2.910118,3.539984,1.270245,13.598981,0.293329,-0.270563,0.937610,-0.729980,0.610596,0.145020,0.216974,-0.076169,-0.057842,0.999948,0.002933,-0.002706,0.009376,0.589563,-0.578748,-0.531838,-0.186049
51892,NaN,10.382451,-4.082284,-2.845193,1.595371,0.553091,1.576038,0.440788,-0.211210,0.989607,-0.710938,0.614990,0.140869,0.104055,-0.040246,-0.028431,0.999985,0.002204,-0.001056,0.004948,0.590668,-0.581045,-0.529059,-0.183286
51893,NaN,9.471311,-4.104947,-3.186588,1.487613,-0.066364,0.887410,0.496784,-0.220934,0.993772,-0.711426,0.629883,0.145020,0.094950,-0.040499,-0.031862,0.999984,0.002484,-0.001105,0.004969,0.592427,-0.582403,-0.527271,-0.178390
51894,NaN,8.531415,-4.636443,-3.491413,0.900739,-0.818912,0.433709,0.507279,-0.279502,0.931778,-0.698486,0.634277,0.140625,0.085577,-0.045878,-0.034911,0.999985,0.002536,-0.001398,0.004659,0.593042,-0.585633,-0.523515,-0.176825
51895,NaN,8.442991,-5.326308,-3.396061,0.359095,-0.899812,0.687184,0.535689,-0.292103,0.875008,-0.698975,0.645020,0.142578,0.084711,-0.052802,-0.033979,0.999986,0.002678,-0.001461,0.004375,0.594610,-0.586587,-0.522285,-0.171969
51896,NaN,8.463653,-4.830526,-3.293859,0.801095,-0.651287,0.422067,0.520637,-0.251329,0.792696,-0.690186,0.642822,0.138428,0.084868,-0.047883,-0.032957,0.999988,0.002603,-0.001257,0.003963,0.595093,-0.589581,-0.518631,-0.171113
51897,NaN,7.255946,-4.866430,-2.534931,0.050230,-0.455726,-0.727201,0.501645,-0.194958,0.714742,-0.686279,0.651367,0.136230,0.072757,-0.048341,-0.025400,0.999990,0.002508,-0.000975,0.003574,0.596670,-0.590105,-0.517529,-0.167107
51898,NaN,6.541854,-5.545818,-2.610813,-0.705734,-0.969254,-0.928409,0.477570,-0.133269,0.618014,-0.677734,0.653564,0.134033,0.065607,-0.055193,-0.026196,0.999992,0.002388,-0.000666,0.003090,0.597783,-0.591161,-0.515577,-0.165424
51899,NaN,6.617863,-5.851720,-2.199861,-1.033643,-0.644519,-0.790822,0.444124,-0.062185,0.484938,-0.675781,0.657715,0.136230,0.066327,-0.058307,-0.022108,0.999995,0.002221,-0.000311,0.002425,0.599331,-0.591135,-0.514694,-0.162643
51900,NaN,6.478400,-5.946665,-2.203617,-1.132293,-0.726934,-0.847325,0.411087,0.024989,0.346639,-0.675781,0.662109,0.121094,0.064884,-0.059309,-0.022166,0.999996,0.002055,0.000125,0.001733,0.600135,-0.592508,-0.511919,-0.163435
51901,NaN,5.581829,-6.109711,-2.345629,-1.544229,-1.271239,-1.446891,0.385329,0.086899,0.181827,-0.682373,0.664307,0.125244,0.055864,-0.061001,-0.023598,0.999998,0.001927,0.000434,0.000909,0.601644,-0.591747,-0.511433,-0.162159
51902,NaN,5.127524,-6.124213,-2.507732,-1.653649,-1.635527,-1.770510,0.390238,0.148001,-0.020010,-0.673340,0.655518,0.116943,0.051250,-0.061198,-0.025235,0.999998,0.001951,0.000740,-0.000100,0.603430,-0.589068,-0.512923,-0.160564
51903,NaN,5.512378,-5.856349,-2.262735,-1.372514,-1.226178,-1.663105,0.371034,0.162949,-0.239512,-0.682373,0.662109,0.121094,0.055035,-0.058587,-0.022781,0.999997,0.001855,0.000815,-0.001198,0.604745,-0.587204,-0.513434,-0.160813
51904,NaN,7.690766,-5.851410,-1.372437,-0.850094,0.401000,-0.097400,0.320566,0.169672,-0.393072,-0.684082,0.655762,0.114746,0.076781,-0.058643,-0.013883,0.999996,0.001603,0.000848,-0.001965,0.605781,-0.584770,-0.514712,-0.161696
51905,NaN,9.588714,-5.726260,-0.483044,-0.369866,1.935377,1.191131,0.249407,0.167396,-0.487044,-0.690674,0.657715,0.116699,0.095743,-0.057490,-0.004982,0.999996,0.001247,0.000837,-0.002435,0.606542,-0.582626,-0.515829,-0.163017
51906,NaN,11.518986,-5.593121,-0.663074,0.569856,2.534685,2.743583,0.243651,0.111829,-0.524782,-0.690430,0.647217,0.112549,0.115039,-0.056225,-0.006763,0.999996,0.001218,0.000559,-0.002624,0.606856,-0.580811,-0.516778,-0.165302
51907,NaN,12.687596,-6.456160,-1.761133,0.792819,1.750303,4.402308,0.421862,0.086193,-0.487645,-0.696777,0.647217,0.108398,0.126710,-0.064833,-0.017803,0.999995,0.002109,0.000431,-0.002438,0.607896,-0.578199,-0.518279,-0.165940
51908,NaN,12.970778,-5.824794,-2.062671,1.502685,1.695685,4.374983,0.628715,0.096080,-0.504312,-0.696777,0.647217,0.097656,0.129550,-0.058509,-0.020873,0.999992,0.003144,0.000480,-0.002522,0.609355,-0.575192,-0.519526,-0.167134
51909,NaN,13.323533,-5.630518,-0.696377,1.162005,3.007362,4.304995,0.702111,0.157580,-0.542730,-0.703369,0.649414,0.099609,0.133076,-0.056641,-0.007267,0.999990,0.003511,0.000788,-0.002714,0.611321,-0.571508,-0.521189,-0.167414
51910,NaN,13.084976,-7.004069,0.438688,-0.586962,3.391600,4.630892,0.725827,0.328715,-0.656879,-0.705078,0.638672,0.086914,0.130625,-0.070485,0.003917,0.999987,0.003629,0.001644,-0.003284,0.613495,-0.567586,-0.522218,-0.169585
51911,NaN,13.700747,-7.620997,-0.412292,-0.506780,2.565580,5.650784,0.850907,0.302934,-0.759913,-0.711426,0.638672,0.076172,0.136710,-0.076711,-0.004656,0.999983,0.004255,0.001515,-0.003800,0.616043,-0.562727,-0.524159,-0.170550
51912,NaN,16.037591,-7.651346,-1.379984,0.756070,2.409522,7.830176,1.241176,0.382408,-0.874072,-0.711182,0.632324,0.061279,0.160012,-0.077124,-0.014583,0.999969,0.006206,0.001912,-0.004370,0.619979,-0.555620,-0.526902,-0.171134
51913,NaN,19.426141,-7.947542,-0.372127,1.280585,4.220499,10.710888,1.335800,0.439322,-1.080106,-0.725830,0.621582,0.050781,0.193819,-0.080494,-0.004683,0.999961,0.006679,0.002197,-0.005400,0.623897,-0.548238,-0.529664,-0.172176
51914,NaN,26.742930,-10.026579,1.527093,1.282201,7.425840,17.777774,1.091349,0.885870,-1.584012,-0.736084,0.608887,0.025146,0.266686,-0.102457,0.013533,0.999944,0.005457,0.004429,-0.007920,0.628446,-0.538113,-0.533545,-0.175554
51915,NaN,30.107153,-8.797776,2.770516,2.629258,9.479262,20.098524,1.162832,1.586596,-2.124079,-0.757080,0.598145,0.012207,0.300318,-0.091320,0.024796,0.999895,0.005814,0.007933,-0.010620,0.633875,-0.527346,-0.535240,-0.183375
51916,NaN,31.878771,-2.180048,2.611029,8.021971,11.656581,18.953568,1.200145,1.647204,-2.886311,-0.764893,0.574707,-0.019531,0.318627,-0.026545,0.023336,0.999844,0.006000,0.008236,-0.014431,0.640433,-0.509502,-0.542461,-0.189707
51917,NaN,27.798671,4.733471,4.218536,10.813842,13.856707,12.635629,2.179615,1.527296,-3.214822,-0.793945,0.549072,-0.044922,0.279009,0.042407,0.040537,0.999782,0.010897,0.007636,-0.016073,0.646938,-0.492246,-0.547709,-0.197939
51918,NaN,25.081792,12.587029,2.453631,16.107139,14.896663,7.853395,3.496106,0.841869,-3.685265,-0.816650,0.519287,-0.072510,0.253181,0.120778,0.025615,0.999669,0.017479,0.004209,-0.018424,0.656228,-0.462998,-0.562248,-0.197169
51919,NaN,24.409316,15.718356,0.544842,18.623602,14.577301,7.031079,3.637918,0.846360,-4.041406,-0.834473,0.480713,-0.099854,0.247229,0.152088,0.007204,0.999621,0.018187,0.004231,-0.020204,0.662796,-0.438692,-0.572199,-0.202086
51920,NaN,22.455726,11.698101,-1.518097,15.193183,10.449658,7.603190,3.719438,0.582883,-3.597132,-0.846191,0.444336,-0.129395,0.226574,0.113182,-0.013711,0.999661,0.018595,0.002914,-0.017984,0.670618,-0.407158,-0.586868,-0.200198
51921,NaN,27.738463,4.024024,-5.745841,12.750904,3.462940,15.564607,4.244440,0.754634,-3.507331,-0.864258,0.414551,-0.159180,0.277830,0.036593,-0.057704,0.999614,0.021219,0.003773,-0.017534,0.677704,-0.381723,-0.595498,-0.200963
51922,NaN,32.117263,-2.471786,-7.931922,9.827106,-1.972252,21.810254,3.247851,1.048276,-3.325003,-0.876221,0.386719,-0.186523,0.320294,-0.028737,-0.081445,0.999716,0.016238,0.005241,-0.016623,0.685926,-0.346845,-0.609006,-0.195744
51923,NaN,21.826894,-29.307621,-4.477644,-13.267669,-20.273069,17.904875,0.392074,1.605140,-2.704850,-0.885986,0.358887,-0.198975,0.213908,-0.295898,-0.047083,0.999874,0.001960,0.008025,-0.013524,0.688763,-0.335646,-0.608498,-0.206586
51924,NaN,-0.296950,-47.661091,-5.948894,-28.306482,-37.800751,-1.048173,-0.873388,0.898349,-1.837749,-0.885254,0.337402,-0.205078,-0.007611,-0.476809,-0.057380,0.999938,-0.004367,0.004492,-0.009189,0.689609,-0.322375,-0.613139,-0.211125
51925,NaN,-11.578156,-50.486395,-8.613327,-30.241735,-42.831015,-12.636328,0.644156,-0.224091,-1.871506,-0.895264,0.318115,-0.211426,-0.120399,-0.503471,-0.087890,0.999950,0.003221,-0.001120,-0.009357,0.687955,-0.314631,-0.617576,-0.215233
51926,NaN,-7.113840,-27.609474,-6.941244,-14.568178,-25.304899,-12.719846,2.003205,-0.833680,-1.623122,-0.892090,0.290283,-0.221680,-0.073074,-0.274791,-0.072471,0.999908,0.010016,-0.004168,-0.008115,0.686589,-0.302045,-0.626517,-0.211758
51927,NaN,-6.291213,-7.945144,-3.676316,-3.258390,-8.874675,-14.992864,2.606420,-1.217560,-0.947911,-0.900146,0.277588,-0.221436,-0.063057,-0.078661,-0.038175,0.999885,0.013032,-0.006088,-0.004739,0.685632,-0.291376,-0.634814,-0.204985
51928,NaN,-3.188673,3.808418,-1.916909,3.545901,1.382511,-13.535702,2.673855,-1.313265,-0.148018,-0.897705,0.264648,-0.219238,-0.031734,0.038361,-0.018866,0.999889,0.013369,-0.006566,-0.000740,0.686228,-0.278786,-0.644616,-0.189314
51929,NaN,-1.371707,6.815144,-1.889131,5.522292,3.994138,-12.146468,1.896084,-0.971902,0.394019,-0.897461,0.258301,-0.216797,-0.013762,0.068300,-0.018311,0.999941,0.009480,-0.004859,0.001970,0.686075,-0.274448,-0.649157,-0.180486
51930,NaN,1.301119,5.477199,-2.547166,5.376175,3.008478,-9.337128,0.731305,-0.611468,0.798553,-0.891113,0.260498,-0.218994,0.012870,0.054916,-0.025232,0.999981,0.003657,-0.003057,0.003993,0.687015,-0.269300,-0.653750,-0.167629
51931,NaN,0.842402,5.714207,-2.322997,5.282655,3.293722,-9.866326,-0.188282,-0.172959,0.911145,-0.891113,0.262451,-0.217041,0.008184,0.057158,-0.023277,0.999989,-0.000941,-0.000865,0.004556,0.686956,-0.273061,-0.652950,-0.164880
51932,NaN,0.288065,5.649217,0.129540,3.117794,4.676824,-10.460560,-0.582450,0.043988,1.004371,-0.882568,0.262451,-0.223389,0.002597,0.056509,0.001130,0.999983,-0.002912,0.000220,0.005022,0.688528,-0.270717,-0.654687,-0.155007
51933,NaN,0.209651,2.477997,2.916903,-0.937354,3.709052,-10.051113,-1.113574,0.236334,1.107776,-0.883057,0.277588,-0.219238,0.001993,0.024953,0.029028,0.999968,-0.005568,0.001182,0.005539,0.688635,-0.277980,-0.651488,-0.155154
51934,NaN,-0.208622,1.708176,3.294357,-1.781576,3.217136,-10.351198,-1.362374,0.247509,1.199763,-0.874512,0.279541,-0.221436,-0.002149,0.017293,0.032829,0.999958,-0.006812,0.001238,0.005999,0.690181,-0.277058,-0.652385,-0.145886
51935,NaN,-0.328946,0.895107,2.274490,-1.383757,1.976522,-10.323793,-1.331037,0.197375,1.190095,-0.875000,0.294678,-0.217285,-0.003321,0.009082,0.022688,0.999960,-0.006655,0.000987,0.005950,0.689825,-0.285373,-0.649056,-0.146390
51936,NaN,-0.365049,0.772636,1.134902,-0.550935,1.199035,-10.338994,-1.055636,0.094413,1.157594,-0.868896,0.301025,-0.219482,-0.003690,0.007765,0.011310,0.999969,-0.005278,0.000472,0.005788,0.691173,-0.283179,-0.650858,-0.135919
51937,NaN,0.381046,1.523833,0.329983,0.626419,1.477351,-9.778831,-0.791494,-0.063923,1.090250,-0.864746,0.309570,-0.217529,0.003726,0.015272,0.003241,0.999977,-0.003957,-0.000320,0.005451,0.690573,-0.289494,-0.648981,-0.134634
51938,NaN,1.090066,2.388054,-0.533128,1.861973,1.854407,-9.293612,-0.541457,-0.180635,1.034740,-0.854248,0.313965,-0.208984,0.010782,0.023922,-0.005386,0.999983,-0.002707,-0.000903,0.005174,0.691427,-0.285374,-0.652259,-0.122673
51939,NaN,0.800099,2.572794,-0.427620,1.848361,1.999367,-9.644381,-0.339405,-0.220100,0.920147,-0.856934,0.328857,-0.217773,0.007887,0.025757,-0.004311,0.999987,-0.001697,-0.001100,0.004601,0.690784,-0.289674,-0.651489,-0.120284
51940,NaN,0.528311,2.077480,-0.022540,1.169469,1.796625,-9.813018,-0.229037,-0.216672,0.817670,-0.858887,0.324707,-0.211182,0.005198,0.020796,-0.000244,0.999990,-0.001145,-0.001083,0.004088,0.691345,-0.284941,-0.654890,-0.109405
51941,NaN,0.440313,1.987925,0.486860,0.686306,1.975751,-9.902811,-0.261619,-0.195023,0.742603,-0.854980,0.335205,-0.211426,0.004325,0.019902,0.004847,0.999992,-0.001308,-0.000975,0.003713,0.690738,-0.288375,-0.654356,-0.107417
51942,NaN,0.426883,2.217522,0.783643,0.500906,2.330027,-9.996453,-0.449149,-0.088663,0.656630,-0.844482,0.345947,-0.205078,0.004192,0.022207,0.007788,0.999992,-0.002246,-0.000443,0.003283,0.691212,-0.283234,-0.657631,-0.097603
51943,NaN,0.324520,2.740897,1.371870,0.268469,3.036982,-10.264849,-0.766754,0.056598,0.601570,-0.848877,0.348145,-0.205078,0.003166,0.027471,0.013613,0.999988,-0.003834,0.000283,0.003008,0.690601,-0.287826,-0.656199,-0.098126
51944,NaN,0.388749,2.825230,1.516279,0.175223,3.196114,-10.244146,-1.219332,0.227320,0.509822,-0.842773,0.356689,-0.200928,0.003832,0.028354,0.014986,0.999978,-0.006097,0.001137,0.002549,0.690392,-0.287941,-0.656785,-0.095309
51945,NaN,0.186390,1.306845,1.607177,-0.665055,1.957636,-10.038234,-1.573651,0.382256,0.421049,-0.843018,0.363037,-0.192383,0.001867,0.013198,0.015965,0.999965,-0.007868,0.001911,0.002105,0.689562,-0.294558,-0.654084,-0.099571
51946,NaN,-0.008172,-0.550148,1.404861,-1.474247,0.303959,-9.710186,-1.738346,0.477134,0.344729,-0.834717,0.369385,-0.192627,-0.000039,-0.005379,0.014096,0.999958,-0.008692,0.002386,0.001724,0.689129,-0.297297,-0.653069,-0.101081
51947,NaN,-0.100760,-1.507259,1.129566,-1.762207,-0.606894,-9.522676,-1.732901,0.496733,0.299540,-0.845947,0.380127,-0.184082,-0.000957,-0.014975,0.011428,0.999958,-0.008664,0.002484,0.001498,0.688302,-0.303977,-0.650007,-0.106443
51948,NaN,-0.175230,-2.267000,0.560677,-1.719865,-1.524278,-9.362281,-1.607144,0.450438,0.274101,-0.839355,0.382324,-0.186279,-0.001708,-0.022626,0.005793,0.999964,-0.008036,0.002252,0.001370,0.687661,-0.307859,-0.648342,-0.109540
51949,NaN,-0.201050,-1.954320,0.370640,-1.417239,-1.366554,-9.464761,-1.424956,0.351964,0.273886,-0.837891,0.399414,-0.182373,-0.001977,-0.019519,0.003849,0.999972,-0.007125,0.001760,0.001369,0.686743,-0.313439,-0.645910,-0.113757
51950,NaN,-0.024173,-0.498069,0.372530,-0.587554,-0.175604,-9.706042,-1.221311,0.278241,0.296894,-0.829346,0.401611,-0.177979,-0.000229,-0.004958,0.003756,0.999979,-0.006107,0.001391,0.001484,0.685890,-0.317609,-0.644266,-0.116623
51951,NaN,0.028410,0.766468,0.004831,0.439503,0.598335,-10.005381,-1.022613,0.228578,0.300488,-0.832031,0.412354,-0.171631,0.000273,0.007665,0.000009,0.999985,-0.005113,0.001143,0.001502,0.685171,-0.321940,-0.642397,-0.119249
51952,NaN,0.126280,1.405886,-0.992076,1.632420,0.498143,-10.065102,-0.826390,0.223019,0.286014,-0.830078,0.418701,-0.167480,0.001232,0.014019,-0.009980,0.999990,-0.004132,0.001115,0.001430,0.684189,-0.327622,-0.639722,-0.123713
51953,NaN,0.177110,1.108656,-1.934465,2.214548,-0.300513,-9.902623,-0.664350,0.266287,0.265544,-0.828125,0.425049,-0.163330,0.001731,0.011025,-0.019384,0.999993,-0.003322,0.001331,0.001328,0.684115,-0.330571,-0.637959,-0.125366
51954,NaN,0.117158,0.115782,-1.895591,1.566392,-1.071129,-9.673096,-0.549768,0.275447,0.273794,-0.823975,0.431641,-0.161133,0.001144,0.001107,-0.018961,0.999994,-0.002749,0.001377,0.001369,0.683173,-0.337568,-0.634066,-0.131468
51955,NaN,0.368646,-0.323812,-0.949667,0.600076,-0.744668,-9.335194,-0.393024,0.257501,0.276195,-0.831055,0.444336,-0.157227,0.003679,-0.003252,-0.009495,0.999996,-0.001965,0.001288,0.001381,0.683508,-0.339610,-0.632458,-0.132207
51956,NaN,0.470940,-1.189687,-0.184865,-0.522601,-0.861687,-9.002935,-0.160566,0.206774,0.290443,-0.824463,0.444336,-0.159424,0.004725,-0.011892,-0.001844,0.999998,-0.000803,0.001034,0.001452,0.682508,-0.347260,-0.627940,-0.138872
51957,NaN,0.516788,-1.705574,0.071082,-1.029349,-1.054997,-8.808435,0.211306,0.101264,0.332132,-0.827148,0.457275,-0.146729,0.005197,-0.017048,0.000690,0.999998,0.001057,0.000506,0.001661,0.683425,-0.347505,-0.627162,-0.137253
51958,NaN,0.339055,-1.135209,-0.103768,-0.584590,-0.788409,-9.141060,0.665606,-0.014132,0.378742,-0.820801,0.459473,-0.153076,0.003412,-0.011342,-0.001075,0.999993,0.003328,-0.000071,0.001894,0.682921,-0.353985,-0.623031,-0.141936
51959,NaN,0.075400,1.018538,-0.795234,1.255817,0.221672,-10.034660,0.994850,-0.144943,0.408051,-0.829590,0.465820,-0.144531,0.000739,0.010226,-0.007901,0.999985,0.004974,-0.000725,0.002040,0.684514,-0.351951,-0.623500,-0.137186
51960,NaN,0.376460,1.888171,-1.421893,2.329186,0.513811,-10.011416,1.309759,-0.175436,0.460211,-0.816895,0.472168,-0.148926,0.003733,0.018983,-0.014092,0.999976,0.006549,-0.000877,0.002301,0.685860,-0.351348,-0.623150,-0.133546
51961,NaN,1.133114,-0.125717,-1.138192,1.008038,-0.530513,-8.673564,1.483218,-0.216850,0.586150,-0.823730,0.485107,-0.142822,0.011347,-0.001140,-0.011378,0.999968,0.007416,-0.001084,0.002931,0.688162,-0.348216,-0.623833,-0.126531
51962,NaN,8.225711,-49.293773,3.164686,-30.601530,-31.614805,14.094012,0.999396,0.077765,1.600823,-0.802734,0.495850,-0.151367,0.086212,-0.492408,0.029152,0.999955,0.004997,0.000389,0.008004,0.690968,-0.349723,-0.621506,-0.118269
51963,NaN,-17.420267,-125.272627,0.172879,-78.811761,-94.910875,18.036814,-0.922984,1.480397,3.460117,-0.782959,0.547119,-0.132812,-0.152450,-1.255460,0.008701,0.999812,-0.004615,0.007402,0.017300,0.695875,-0.362716,-0.609678,-0.111752
51964,NaN,24.890170,-74.680994,7.521280,-45.082498,-39.321928,41.884693,-5.321508,-1.096235,3.230861,-0.776855,0.551270,-0.104980,0.260407,-0.740288,0.096377,0.999501,-0.026603,-0.005480,0.016152,0.684715,-0.389832,-0.606035,-0.109168
51965,NaN,69.116602,81.684488,-32.206423,90.646138,56.899999,22.306797,2.404053,-1.089502,-0.937882,-0.777100,0.560059,-0.115723,0.696703,0.817349,-0.308456,0.999902,0.012020,-0.005447,-0.004689,0.685524,-0.379311,-0.612845,-0.102962
51966,NaN,17.217083,63.281384,6.353252,36.879197,53.626566,-20.073199,0.081333,-0.466738,2.084498,-0.764648,0.574951,-0.094482,0.165414,0.634535,0.064182,0.999943,0.000407,-0.002334,0.010422,0.685251,-0.384289,-0.611994,-0.090641
51967,NaN,17.833958,32.229651,11.847204,14.812610,35.701781,-8.112679,-4.690606,-2.419075,1.964185,-0.756836,0.593994,-0.045410,0.173756,0.326711,0.112964,0.999604,-0.023450,-0.012094,0.009820,0.669460,-0.407307,-0.614139,-0.093581
51968,NaN,27.921909,0.764048,-5.362204,10.853165,7.736236,15.312961,-3.786768,-1.459374,2.439238,-0.746826,0.608887,-0.020020,0.279488,0.010056,-0.051758,0.999720,-0.018932,-0.007296,0.012195,0.658106,-0.427863,-0.612414,-0.093697
51969,NaN,10.712798,-23.615936,-10.946329,-5.009200,-17.612607,11.564702,-1.591714,0.571155,0.354743,-0.746826,0.611084,-0.007080,0.107238,-0.236832,-0.107886,0.999963,-0.007958,0.002856,0.001774,0.656595,-0.433899,-0.609007,-0.098623
51970,NaN,17.077165,0.269059,-5.809079,8.318354,3.022624,5.907162,-1.485933,-0.809205,-0.042011,-0.742188,0.602539,0.016602,0.171005,0.002226,-0.057417,0.999964,-0.007430,-0.004046,-0.000210,0.650676,-0.438691,-0.611563,-0.100801
51971,NaN,42.088555,-1.509326,-0.445295,8.922808,16.197376,28.027794,-0.931411,-1.619595,0.783994,-0.745117,0.619629,0.029297,0.420958,-0.013453,-0.000979,0.999949,-0.004657,-0.008098,0.003920,0.644046,-0.444908,-0.614611,-0.097542
51972,NaN,50.908081,-9.939803,-4.084959,7.673959,12.963341,39.988640,-0.003121,-0.331623,0.546381,-0.736572,0.619629,0.033447,0.509417,-0.098007,-0.040004,0.999995,-0.000016,-0.001658,0.002732,0.643052,-0.446645,-0.614784,-0.095039
51973,NaN,32.862360,-0.420393,3.992037,4.423655,16.626495,18.472152,-0.429321,0.015545,0.802845,-0.730225,0.623779,0.027100,0.328640,-0.002799,0.039902,0.999990,-0.002147,0.000078,0.004014,0.642520,-0.450477,-0.612731,-0.093812
51974,NaN,17.576310,-1.563506,5.216577,-0.514798,10.357010,5.387436,-0.910729,0.509662,1.354250,-0.719727,0.632324,0.037842,0.175995,-0.014207,0.051784,0.999963,-0.004554,0.002548,0.006771,0.642460,-0.457573,-0.607414,-0.094449
51975,NaN,8.308838,-8.878240,-2.353597,-2.361306,-2.970507,1.977039,-1.092361,-0.236903,0.939067,-0.717773,0.638672,0.048340,0.083532,-0.088517,-0.022953,0.999973,-0.005462,-0.001185,0.004695,0.639671,-0.464029,-0.605494,-0.094207
51976,NaN,4.605290,-8.060401,-5.997501,-0.283277,-6.650519,-0.990060,-0.712983,0.003591,0.215279,-0.717773,0.638672,0.054688,0.046139,-0.080768,-0.059688,0.999993,-0.003565,0.000018,0.001076,0.638005,-0.467306,-0.604309,-0.096875
51977,NaN,4.972459,-6.656665,-2.275247,-1.802780,-3.041659,-1.957024,-0.209834,-0.499526,-0.104153,-0.717773,0.636475,0.052734,0.049746,-0.066616,-0.022558,0.999996,-0.001049,-0.002498,-0.000521,0.635956,-0.467896,-0.606042,-0.096675
51978,NaN,5.853878,-7.910799,1.102474,-4.789905,-0.907465,-1.193101,-0.156711,-0.367733,-0.210335,-0.715576,0.636475,0.056885,0.058435,-0.079161,0.011194,0.999997,-0.000784,-0.001839,-0.001052,0.634230,-0.468134,-0.607495,-0.097735
51979,NaN,5.069117,-7.135722,2.281871,-5.287259,0.007257,-2.473346,-0.320982,-0.302070,-0.531240,-0.721924,0.634521,0.065430,0.050467,-0.071455,0.023010,0.999994,-0.001605,-0.001510,-0.002656,0.632301,-0.467679,-0.609536,-0.099688
51980,NaN,3.851351,-7.614207,2.438055,-6.071379,-0.687331,-3.376961,-0.417263,-0.100680,-0.843795,-0.726074,0.625977,0.061279,0.038180,-0.076253,0.024559,0.999989,-0.002086,-0.000503,-0.004219,0.630515,-0.466668,-0.611429,-0.104053
51981,NaN,3.777523,-7.503891,0.458649,-4.738720,-2.100042,-3.185318,-0.467073,0.011372,-1.061963,-0.736328,0.610840,0.070068,0.037376,-0.075227,0.004760,0.999983,-0.002335,0.000057,-0.005310,0.628900,-0.464875,-0.613617,-0.108855
51982,NaN,6.317811,-6.423942,-1.779302,-1.990944,-2.067052,-1.088585,-0.411967,0.048197,-1.215760,-0.740479,0.606689,0.072266,0.062782,-0.064658,-0.017675,0.999979,-0.002060,0.000241,-0.006079,0.627401,-0.462572,-0.615852,-0.114546
51983,NaN,9.437183,-5.165623,-2.591882,0.017875,-0.716880,1.230224,-0.299177,0.095846,-1.290270,-0.748779,0.600098,0.068115,0.094023,-0.052302,-0.025886,0.999978,-0.001496,0.000479,-0.006451,0.626255,-0.459468,-0.618351,-0.119736
51984,NaN,12.288502,-4.709145,-1.688693,0.228166,1.263195,3.392806,-0.038528,0.256119,-1.205925,-0.754639,0.585205,0.068359,0.122576,-0.047834,-0.017035,0.999981,-0.000193,0.001281,-0.006030,0.626208,-0.455830,-0.620128,-0.124598
51985,NaN,13.009870,-2.964068,-1.423587,1.362764,2.585128,3.284137,0.031728,0.352830,-1.160431,-0.767334,0.578857,0.059814,0.129898,-0.030392,-0.014470,0.999982,0.000159,0.001764,-0.005802,0.626643,-0.451899,-0.621676,-0.128937
51986,NaN,11.884730,-3.089396,-1.850883,1.261775,1.614991,2.435367,0.143326,0.445185,-1.120040,-0.767090,0.570312,0.057617,0.118630,-0.031545,-0.018796,0.999982,0.000717,0.002226,-0.005600,0.627595,-0.447844,-0.622688,-0.133493
51987,NaN,10.467617,-3.496595,-1.972398,0.715729,0.616622,1.358411,0.245255,0.399333,-1.183657,-0.781982,0.565918,0.059814,0.104427,-0.035560,-0.019976,0.999980,0.001226,0.001997,-0.005918,0.628588,-0.443109,-0.624236,-0.137337
51988,NaN,9.050107,-4.694209,-1.347940,-0.895066,-0.276443,0.428297,0.131166,0.389290,-1.310799,-0.790039,0.551025,0.044922,0.090164,-0.047525,-0.013686,0.999976,0.000656,0.001946,-0.006554,0.629140,-0.438518,-0.625775,-0.142447
51989,NaN,7.988922,-4.240252,-1.101153,-0.982450,-0.343804,-0.761148,0.185888,0.344392,-1.366299,-0.798584,0.548828,0.047119,0.079578,-0.042937,-0.011188,0.999975,0.000929,0.001722,-0.006831,0.629640,-0.433397,-0.627803,-0.146917
51990,NaN,7.759870,-3.662043,-0.993785,-0.736120,-0.122231,-1.207126,0.216793,0.332826,-1.379219,-0.802246,0.531738,0.042969,0.077327,-0.037143,-0.010107,0.999974,0.001084,0.001664,-0.006896,0.630094,-0.428302,-0.629682,-0.151784
51991,NaN,8.069975,-3.474554,-1.083104,-0.556427,-0.075508,-0.977900,0.151894,0.317460,-1.412730,-0.808350,0.523193,0.036865,0.080434,-0.035306,-0.010986,0.999974,0.000759,0.001587,-0.007064,0.630333,-0.423118,-0.631806,-0.156434
51992,NaN,7.884344,-3.281828,-0.864705,-0.660238,0.028024,-1.254476,0.140988,0.287406,-1.434585,-0.818848,0.510498,0.030518,0.078593,-0.033376,-0.008784,0.999973,0.000705,0.001437,-0.007173,0.630371,-0.418076,-0.633830,-0.161568
51993,NaN,7.698199,-3.089676,-0.751183,-0.691979,0.065443,-1.512787,0.122515,0.257322,-1.409635,-0.827148,0.506104,0.032715,0.076752,-0.031434,-0.007630,0.999974,0.000613,0.001287,-0.007048,0.630291,-0.412999,-0.636048,-0.166159
51994,NaN,8.180933,-2.566629,-0.911837,-0.206869,0.316212,-1.198589,0.096426,0.251702,-1.389744,-0.830566,0.482666,0.024414,0.081617,-0.026229,-0.009234,0.999975,0.000482,0.001258,-0.006949,0.630097,-0.408218,-0.637995,-0.171168
51995,NaN,8.951200,-1.701574,-1.611273,0.919515,0.468999,-0.617642,0.085790,0.224652,-1.310094,-0.845459,0.478271,0.024414,0.089380,-0.017595,-0.016221,0.999978,0.000429,0.001123,-0.006550,0.629856,-0.403562,-0.640020,-0.175478
51996,NaN,9.743709,-1.045033,-2.092409,1.741922,0.650995,0.033668,0.022809,0.242111,-1.272618,-0.847168,0.463379,0.022461,0.097343,-0.011068,-0.021043,0.999979,0.000114,0.001211,-0.006363,0.629519,-0.399351,-0.641648,-0.180311
51997,NaN,10.265711,-0.789868,-2.117580,1.928561,0.840069,0.486169,0.023538,0.238681,-1.205982,-0.853516,0.458984,0.022461,0.102582,-0.008515,-0.021299,0.999981,0.000118,0.001193,-0.006030,0.629236,-0.395180,-0.643314,-0.184507
51998,NaN,10.332237,-0.670081,-2.142333,1.969995,0.814893,0.543362,0.063691,0.250479,-1.051572,-0.853027,0.446289,0.011963,0.103258,-0.007237,-0.021555,0.999985,0.000318,0.001252,-0.005258,0.629130,-0.391518,-0.644487,-0.188537
51999,NaN,9.564112,-0.518245,-2.261779,2.028269,0.534266,-0.197260,0.103276,0.218570,-0.958443,-0.855225,0.444092,0.020508,0.095590,-0.005629,-0.022725,0.999988,0.000516,0.001093,-0.004792,0.629128,-0.387888,-0.645765,-0.191646
52000,NaN,9.679426,-1.245616,-2.278501,1.459647,0.019327,0.102094,0.116967,0.229559,-0.842663,-0.858887,0.431152,0.007812,0.096714,-0.012850,-0.022903,0.999990,0.000585,0.001148,-0.004213,0.629200,-0.384735,-0.646634,-0.194809
52001,NaN,9.722899,-0.544540,-1.727943,1.578807,0.806518,-0.082657,0.069012,0.281110,-0.747624,-0.865234,0.427002,0.010010,0.097183,-0.005803,-0.017418,0.999992,0.000345,0.001406,-0.003738,0.629511,-0.381818,-0.647250,-0.197478
52002,NaN,9.371460,0.827470,-1.668071,2.495638,1.561605,-0.722899,0.008290,0.263831,-0.653638,-0.867188,0.422607,0.005859,0.093719,0.007969,-0.016804,0.999994,0.000041,0.001319,-0.003268,0.629635,-0.379554,-0.647547,-0.200454
52003,NaN,9.460356,0.760984,-1.816776,2.524987,1.377530,-0.587468,-0.108563,0.230375,-0.547222,-0.867188,0.420410,0.005859,0.094603,0.007341,-0.018281,0.999995,-0.000543,0.001152,-0.002736,0.629627,-0.377885,-0.647748,-0.202966
52004,NaN,9.561934,-0.402165,-1.605207,1.499956,0.768848,-0.256130,-0.234179,0.219479,-0.458396,-0.869141,0.418457,0.005859,0.095592,-0.004260,-0.016152,0.999996,-0.001171,0.001097,-0.002292,0.629297,-0.377073,-0.647560,-0.206078
52005,NaN,9.793844,-1.275289,-1.053961,0.480013,0.636818,0.087841,-0.286314,0.213054,-0.384894,-0.873291,0.414062,0.005859,0.097902,-0.012956,-0.010625,0.999997,-0.001432,0.001065,-0.001924,0.629051,-0.376501,-0.647318,-0.208618
52006,NaN,9.925786,-1.068925,-0.692702,0.386900,1.024314,0.134405,-0.272373,0.173683,-0.317791,-0.875244,0.407715,0.001709,0.099235,-0.010856,-0.006998,0.999997,-0.001362,0.000868,-0.001589,0.628621,-0.376316,-0.646959,-0.211344
52007,NaN,9.891712,-1.052026,-0.506245,0.260091,1.138371,0.078997,-0.161598,0.106235,-0.253027,-0.875244,0.407715,0.003906,0.098901,-0.010650,-0.005106,0.999999,-0.000808,0.000531,-0.001265,0.628396,-0.375887,-0.646929,-0.212863
52008,NaN,10.005584,-1.163669,-0.594840,0.226599,1.002877,0.225366,-0.036372,0.043177,-0.189042,-0.877441,0.403320,0.003906,0.100043,-0.011732,-0.005968,1.000000,-0.000182,0.000216,-0.000945,0.628128,-0.375499,-0.646977,-0.214188
52009,NaN,10.044475,-1.263717,-0.644509,0.176136,0.899937,0.289933,0.093749,-0.008286,-0.114157,-0.879639,0.407715,0.001709,0.100438,-0.012691,-0.006447,1.000000,0.000469,-0.000041,-0.000571,0.628158,-0.374839,-0.647317,-0.214230
52010,NaN,10.085202,-1.054177,-0.457607,0.207621,1.171427,0.267821,0.178471,-0.036827,-0.026897,-0.879395,0.403320,-0.004639,0.100851,-0.010551,-0.004567,1.000000,0.000892,-0.000184,-0.000134,0.628203,-0.374405,-0.647523,-0.214233
52011,NaN,9.937860,-0.510009,-0.470273,0.615504,1.476172,0.020135,0.216338,-0.067308,0.061257,-0.879639,0.409912,0.001709,0.099382,-0.005065,-0.004675,0.999999,0.001082,-0.000337,0.000306,0.628458,-0.373990,-0.647851,-0.213216
52012,NaN,9.631107,-0.291916,-0.980705,1.094530,1.172349,-0.261101,0.186297,-0.095113,0.136957,-0.873047,0.403320,-0.000244,0.096318,-0.002844,-0.009764,0.999999,0.000931,-0.000476,0.000685,0.628509,-0.374137,-0.647919,-0.212600
52013,NaN,9.339237,-1.041500,-1.507374,0.864565,0.262917,-0.338427,0.167997,-0.107550,0.222321,-0.873291,0.414062,-0.004883,0.093412,-0.010299,-0.015032,0.999999,0.000840,-0.000538,0.001112,0.628714,-0.374437,-0.648019,-0.211157
52014,NaN,9.419633,-2.162968,-1.398356,-0.032206,-0.328328,-0.052850,0.120098,-0.079430,0.264418,-0.868896,0.411865,0.001709,0.094230,-0.021497,-0.013959,0.999999,0.000600,-0.000397,0.001322,0.628819,-0.375196,-0.647726,-0.210394
52015,NaN,9.409158,-2.218647,-1.023710,-0.302493,-0.065217,-0.096371,0.116578,-0.062024,0.284561,-0.875488,0.416260,-0.000488,0.094126,-0.022047,-0.010221,0.999999,0.000583,-0.000310,0.001423,0.629139,-0.375809,-0.647509,-0.209007
52016,NaN,9.373178,-2.173728,-0.794511,-0.405656,0.144442,-0.167621,0.167957,-0.093844,0.310517,-0.871338,0.414062,0.001709,0.093769,-0.021585,-0.007919,0.999998,0.000840,-0.000469,0.001553,0.629332,-0.376581,-0.647229,-0.207903
52017,NaN,9.809433,-1.815950,-0.641240,-0.188331,0.609247,0.163639,0.051622,-0.140386,0.298808,-0.864990,0.418457,0.001709,0.098126,-0.018011,-0.006348,0.999999,0.000258,-0.000702,0.001494,0.629287,-0.377524,-0.647161,-0.206533
52018,NaN,9.851199,-0.571391,-0.682274,0.783245,1.395030,-0.051619,-0.233050,-0.147349,0.266041,-0.869385,0.422607,0.005859,0.098524,-0.005591,-0.006744,0.999998,-0.001165,-0.000737,0.001330,0.628514,-0.379454,-0.646714,-0.206750
52019,NaN,9.615669,-0.268401,-0.496953,0.879455,1.697943,-0.372161,-0.328954,-0.180296,0.307606,-0.869385,0.422607,0.016602,0.096165,-0.002544,-0.004879,0.999997,-0.001645,-0.000901,0.001538,0.627626,-0.381662,-0.646355,-0.206507
52020,NaN,9.178441,0.266231,-0.858884,1.492462,1.683270,-0.868896,-0.496013,-0.204526,0.356340,-0.869629,0.429199,0.010010,0.091788,0.002805,-0.008502,0.999995,-0.002480,-0.001023,0.001782,0.626232,-0.384803,-0.645605,-0.207256
52021,NaN,8.673037,-1.589505,-1.697556,0.598850,-0.172305,-0.854938,-0.456010,-0.316996,0.457701,-0.865479,0.433350,0.020752,0.086793,-0.015735,-0.016802,0.999994,-0.002280,-0.001585,0.002288,0.624804,-0.388028,-0.645240,-0.206686
52022,NaN,9.480871,-2.874903,-1.564569,-0.394689,-0.614155,0.190640,-0.392023,-0.305719,0.534295,-0.865723,0.437744,0.024902,0.094909,-0.028526,-0.015445,0.999993,-0.001960,-0.001529,0.002671,0.623464,-0.391498,-0.644556,-0.206324
52023,NaN,9.768713,-2.522206,-0.852632,-0.543383,0.274051,0.294016,-0.191826,-0.342267,0.614237,-0.861572,0.444092,0.024902,0.097778,-0.024930,-0.008335,0.999993,-0.000959,-0.001711,0.003071,0.622618,-0.394420,-0.644218,-0.204358
52024,NaN,10.648346,-1.858175,-0.218326,-0.341561,1.448248,0.895861,-0.003937,-0.390354,0.731130,-0.857666,0.452637,0.035400,0.106554,-0.018192,-0.001975,0.999991,-0.000020,-0.001952,0.003656,0.621965,-0.397385,-0.643791,-0.201934
52025,NaN,11.091316,1.028438,0.651683,1.384021,4.046783,0.492973,0.078859,-0.403533,0.929836,-0.847168,0.463379,0.037354,0.110850,0.010797,0.006745,0.999987,0.000394,-0.002018,0.004649,0.621757,-0.400529,-0.643270,-0.197987
52026,NaN,9.442864,1.969722,-1.522176,3.386214,2.620304,-1.035967,-0.021493,-0.625030,1.131474,-0.847168,0.461182,0.041748,0.094362,0.020230,-0.014929,0.999979,-0.000107,-0.003125,0.005657,0.620669,-0.405138,-0.642639,-0.194031
52027,NaN,9.596551,-0.766548,-3.594579,2.692464,-0.415753,0.095831,-0.224197,-0.585093,1.270018,-0.837158,0.480469,0.052246,0.096116,-0.007096,-0.035657,0.999975,-0.001121,-0.002925,0.006350,0.619555,-0.410465,-0.641649,-0.189623
52028,NaN,8.932508,-2.000759,-3.465024,1.650404,-1.133706,-0.232048,-0.264002,-0.458775,1.343033,-0.828857,0.486816,0.054443,0.089536,-0.019452,-0.034419,0.999974,-0.001320,-0.002294,0.006715,0.618655,-0.416249,-0.639820,-0.186099
52029,NaN,9.179432,-4.167377,-2.470370,-0.543897,-1.457574,0.449363,-0.207758,-0.404969,1.347830,-0.826904,0.497559,0.060547,0.092122,-0.041079,-0.024475,0.999975,-0.001039,-0.002025,0.006739,0.618169,-0.421563,-0.638058,-0.181750
52030,NaN,9.691144,-4.313923,-0.817440,-1.575706,-0.016584,0.709264,-0.132066,-0.372849,1.335570,-0.812500,0.512451,0.058350,0.097212,-0.042496,-0.007965,0.999976,-0.000660,-0.001864,0.006678,0.617765,-0.426759,-0.636074,-0.177910
52031,NaN,9.107542,-3.257664,0.225440,-1.431277,1.302802,-0.333065,0.052450,-0.452907,1.293668,-0.810791,0.523193,0.068848,0.091278,-0.031987,0.002453,0.999976,0.000262,-0.002265,0.006468,0.617576,-0.431098,-0.634745,-0.172780
52032,NaN,7.746021,-3.650472,-0.575613,-1.342573,0.123319,-1.336879,0.200581,-0.523367,1.244265,-0.802246,0.529541,0.068848,0.077700,-0.036016,-0.005589,0.999977,0.001003,-0.002617,0.006221,0.617303,-0.435095,-0.633610,-0.167833
52033,NaN,7.414580,-4.004674,-1.888761,-0.762266,-1.079127,-1.278395,0.175588,-0.503608,1.230616,-0.791992,0.544434,0.072998,0.074438,-0.039573,-0.018735,0.999978,0.000878,-0.002518,0.006153,0.617111,-0.438858,-0.632621,-0.162382
52034,NaN,8.553338,-2.616694,-2.812107,1.106718,-0.490326,-0.514944,0.219870,-0.436495,1.272723,-0.794189,0.544434,0.072998,0.085759,-0.025591,-0.027962,0.999977,0.001099,-0.002182,0.006364,0.617150,-0.442752,-0.631126,-0.157406
52035,NaN,10.776084,-2.175848,-2.091341,1.405250,1.215418,1.222619,0.295106,-0.352217,1.329306,-0.779785,0.561523,0.081299,0.107939,-0.021011,-0.020755,0.999975,0.001476,-0.001761,0.006646,0.617726,-0.446296,-0.629488,-0.151592
52036,NaN,11.326648,-1.538529,-1.254994,1.533454,2.506678,1.304776,0.233942,-0.269663,1.345689,-0.769531,0.574463,0.076904,0.113383,-0.014608,-0.012415,0.999976,0.001170,-0.001348,0.006728,0.618323,-0.450174,-0.627297,-0.146694
52037,NaN,9.074786,-2.631083,-1.346717,0.485942,1.079462,-0.342458,0.035642,-0.280066,1.314067,-0.763428,0.583008,0.076904,0.090937,-0.025711,-0.013345,0.999977,0.000178,-0.001400,0.006570,0.618478,-0.454374,-0.625217,-0.141889
52038,NaN,6.956970,-4.684955,-1.910974,-0.993456,-1.202794,-1.353048,-0.223671,-0.247240,1.193611,-0.759277,0.589355,0.083252,0.069871,-0.046454,-0.018971,0.999981,-0.001118,-0.001236,0.005968,0.617955,-0.459184,-0.622865,-0.138999
52039,NaN,6.774573,-5.382780,-2.766623,-0.951546,-2.201772,-1.050873,-0.260118,-0.246826,1.033985,-0.753174,0.597900,0.091553,0.068057,-0.053512,-0.027513,0.999985,-0.001301,-0.001234,0.005170,0.617302,-0.463366,-0.621065,-0.136049
52040,NaN,8.258355,-4.731151,-2.629831,-0.232430,-1.071091,0.000479,-0.133496,-0.264574,0.931150,-0.746826,0.602295,0.091553,0.082837,-0.046944,-0.026157,0.999988,-0.000667,-0.001323,0.004656,0.616728,-0.467016,-0.619442,-0.133546
52041,NaN,9.668665,-4.143686,-2.331399,0.341379,0.126567,0.955564,-0.027617,-0.284064,0.892359,-0.742920,0.613037,0.100098,0.096903,-0.041008,-0.023171,0.999989,-0.000138,-0.001420,0.004462,0.616376,-0.470043,-0.618210,-0.130219
52042,NaN,9.488433,-3.598120,-2.423751,0.821480,0.344730,0.582356,0.091132,-0.278268,0.897211,-0.734375,0.617188,0.093506,0.095078,-0.035544,-0.024122,0.999989,0.000456,-0.001391,0.004486,0.616241,-0.472877,-0.616840,-0.127059
52043,NaN,9.772287,-4.173462,-2.448354,0.531281,0.229731,1.076475,0.167111,-0.295502,0.912848,-0.726074,0.625732,0.093506,0.097948,-0.041268,-0.024374,0.999988,0.000836,-0.001478,0.004564,0.616301,-0.475353,-0.615691,-0.123034
52044,NaN,10.092384,-4.128274,-2.108720,0.474941,0.720605,1.259793,0.152081,-0.285200,0.885202,-0.719971,0.632080,0.097656,0.101135,-0.040819,-0.020974,0.999989,0.000760,-0.001426,0.004426,0.616268,-0.477929,-0.614390,-0.119678
52045,NaN,9.289290,-4.709491,-2.312691,0.063364,-0.003331,0.855678,0.087129,-0.261899,0.813355,-0.722168,0.634277,0.097656,0.093114,-0.046706,-0.023025,0.999991,0.000436,-0.001309,0.004067,0.616156,-0.480305,-0.613300,-0.116281
52046,NaN,9.287685,-5.135559,-1.978563,-0.414820,0.090923,0.974749,0.098887,-0.236645,0.768430,-0.711670,0.640625,0.106201,0.093097,-0.050988,-0.019701,0.999992,0.000494,-0.001183,0.003842,0.616056,-0.482639,-0.612075,-0.113573
52047,NaN,8.225732,-4.876006,-2.350617,-0.173662,-0.466289,0.021715,0.134122,-0.189269,0.718447,-0.711914,0.651367,0.097412,0.082454,-0.048448,-0.023461,0.999993,0.000671,-0.000946,0.003592,0.616208,-0.484522,-0.610997,-0.110496
52048,NaN,8.044874,-4.944291,-2.440056,-0.163034,-0.598494,-0.079512,0.159272,-0.185982,0.684610,-0.699219,0.655762,0.101807,0.080640,-0.049148,-0.024365,0.999993,0.000796,-0.000930,0.003423,0.616349,-0.486377,-0.609831,-0.107970
52049,NaN,9.050926,-5.037744,-2.371233,0.007913,-0.078329,0.813422,0.162460,-0.175701,0.673064,-0.701416,0.655762,0.097412,0.090699,-0.050053,-0.023673,0.999994,0.000812,-0.000879,0.003365,0.616571,-0.488014,-0.608821,-0.104977
52050,NaN,9.449038,-4.693348,-1.978221,0.145319,0.616188,0.902905,0.161405,-0.140789,0.664620,-0.692871,0.657959,0.104004,0.094660,-0.046603,-0.019753,0.999994,0.000807,-0.000704,0.003323,0.616840,-0.489747,-0.607564,-0.102572
52051,NaN,9.083092,-5.221628,-1.809217,-0.381326,0.353993,0.806639,0.185259,-0.105709,0.637117,-0.690918,0.664307,0.099609,0.091006,-0.051910,-0.018092,0.999994,0.000926,-0.000529,0.003186,0.617300,-0.491156,-0.606423,-0.099790
52052,NaN,8.496029,-5.366378,-1.570172,-0.738021,0.217536,0.328992,0.175789,-0.076960,0.568899,-0.684570,0.668457,0.103760,0.085118,-0.053408,-0.015716,0.999995,0.000879,-0.000385,0.002844,0.617741,-0.492511,-0.605197,-0.097806
52053,NaN,7.814256,-5.275030,-1.779227,-0.664805,-0.179459,-0.242952,0.142214,-0.066667,0.459760,-0.684814,0.675049,0.101562,0.078269,-0.052558,-0.017804,0.999997,0.000711,-0.000333,0.002299,0.618116,-0.493487,-0.604339,-0.095796
52054,NaN,7.154686,-5.334577,-2.187782,-0.581634,-0.798670,-0.677186,0.066845,-0.060142,0.313135,-0.682617,0.675049,0.095215,0.071637,-0.053226,-0.021874,0.999999,0.000334,-0.000301,0.001566,0.618215,-0.494406,-0.603617,-0.094968
52055,NaN,6.415498,-5.640574,-2.718067,-0.629928,-1.672145,-1.028060,-0.057402,-0.067149,0.124909,-0.680420,0.672852,0.103760,0.064199,-0.056373,-0.027143,1.000000,-0.000287,-0.000336,0.000625,0.617933,-0.494986,-0.603490,-0.094594
52056,NaN,5.849447,-6.181575,-2.210951,-1.501277,-1.832342,-1.344815,-0.155887,-0.150821,-0.043039,-0.682617,0.672852,0.101562,0.058498,-0.061846,-0.022017,0.999999,-0.000779,-0.000754,-0.000215,0.617050,-0.495503,-0.603871,-0.095216
52057,NaN,6.053454,-6.336224,-2.027311,-1.699870,-1.671747,-1.139874,-0.155441,-0.101343,-0.192825,-0.680420,0.670654,0.105957,0.060484,-0.063436,-0.020193,0.999999,-0.000777,-0.000507,-0.000964,0.616270,-0.495441,-0.604588,-0.096034
52058,NaN,6.430792,-5.796754,-2.378767,-1.019504,-1.490918,-1.017595,-0.165632,-0.006321,-0.348860,-0.688965,0.668457,0.101562,0.064207,-0.058099,-0.023738,0.999998,-0.000828,-0.000032,-0.001744,0.615652,-0.494974,-0.605301,-0.097903
52059,NaN,7.106632,-5.925861,-3.096327,-0.512309,-1.777175,-0.232172,-0.112587,0.082001,-0.476529,-0.688965,0.666504,0.105957,0.070912,-0.059445,-0.030959,0.999997,-0.000563,0.000410,-0.002383,0.615389,-0.493830,-0.606172,-0.099918
52060,NaN,8.272243,-5.872149,-3.620176,0.113383,-1.623433,0.834804,0.005339,0.164230,-0.590489,-0.693115,0.662109,0.108154,0.082519,-0.058964,-0.036271,0.999995,0.000027,0.000821,-0.002952,0.615588,-0.491968,-0.607079,-0.102343
52061,NaN,9.267180,-5.526008,-3.326581,0.379003,-0.830754,1.441166,0.109258,0.232384,-0.668455,-0.699219,0.655762,0.101807,0.092448,-0.055551,-0.033404,0.999994,0.000546,0.001162,-0.003342,0.616220,-0.489474,-0.608061,-0.104645
52062,NaN,10.510083,-5.430707,-2.453650,0.145825,0.354729,2.263200,0.244462,0.291261,-0.668745,-0.701416,0.655762,0.099609,0.104883,-0.054628,-0.024756,0.999993,0.001222,0.001456,-0.003344,0.617312,-0.486573,-0.608892,-0.106879
52063,NaN,11.128559,-5.468362,-2.407048,0.205752,0.561913,2.804075,0.409243,0.305524,-0.750708,-0.709717,0.651367,0.091064,0.111042,-0.055051,-0.024353,0.999990,0.002046,0.001528,-0.003754,0.618833,-0.482849,-0.609989,-0.108697
52064,NaN,12.832468,-6.187483,-1.443372,-0.576926,1.551019,4.410543,0.659122,0.336211,-0.859240,-0.713867,0.642822,0.082520,0.128033,-0.062377,-0.014854,0.999984,0.003296,0.001681,-0.004296,0.620944,-0.478049,-0.611323,-0.110369
52065,NaN,14.811437,-6.673297,0.227318,-1.602730,3.233208,6.028316,0.855117,0.466668,-0.982038,-0.722168,0.634277,0.076172,0.147789,-0.067467,0.001641,0.999976,0.004276,0.002333,-0.004910,0.623861,-0.472116,-0.612680,-0.111922
52066,NaN,18.002397,-7.497625,0.733266,-1.860882,4.321902,9.126416,1.050623,0.535064,-1.157547,-0.732666,0.627930,0.056885,0.179604,-0.076052,0.006454,0.999966,0.005253,0.002675,-0.005788,0.627306,-0.465034,-0.614217,-0.113875
52067,NaN,22.083671,-8.605484,0.947463,-1.975695,5.283286,13.226606,1.224694,0.622041,-1.433733,-0.742920,0.617432,0.048584,0.220239,-0.087688,0.008255,0.999951,0.006123,0.003110,-0.007169,0.631220,-0.456405,-0.616268,-0.116057
52068,NaN,27.956484,-9.749595,0.848327,-1.557460,6.524373,19.037247,1.451012,0.769113,-1.485247,-0.753174,0.604492,0.022949,0.278858,-0.099621,0.006692,0.999939,0.007255,0.003845,-0.007426,0.636043,-0.446857,-0.617839,-0.118503
52069,NaN,30.143763,-9.241827,0.892902,-0.842859,7.042605,20.919847,1.885933,1.328710,-1.869032,-0.761230,0.591797,0.003906,0.300603,-0.095296,0.006040,0.999890,0.009429,0.006643,-0.009345,0.643187,-0.434242,-0.618840,-0.121581
52070,NaN,30.854799,-4.818120,2.861935,0.912710,10.434638,19.744448,1.948112,1.572147,-2.481683,-0.771240,0.570557,-0.030273,0.308126,-0.052266,0.025700,0.999845,0.009740,0.007860,-0.012408,0.650758,-0.419390,-0.619940,-0.127672
52071,NaN,29.465471,1.742112,1.991374,5.478706,12.493562,16.436598,2.752105,1.416366,-2.974923,-0.789551,0.546875,-0.057861,0.295000,0.012778,0.018022,0.999770,0.013759,0.007081,-0.014873,0.658874,-0.400206,-0.623184,-0.131766
52072,NaN,26.137840,9.929824,2.308892,9.602564,16.267889,10.927849,4.392461,0.741178,-3.372969,-0.810059,0.517090,-0.100342,0.263086,0.094347,0.024224,0.999610,0.021959,0.003705,-0.016863,0.667609,-0.374742,-0.629694,-0.131723
52073,NaN,24.179068,18.614683,1.253843,14.712478,20.771642,7.057408,5.468486,0.642758,-3.827827,-0.825684,0.474365,-0.136230,0.245338,0.181054,0.016751,0.999438,0.027337,0.003213,-0.019136,0.676986,-0.343799,-0.637967,-0.128419
52074,NaN,19.527208,21.701093,1.942646,14.221393,22.308301,2.673638,5.494534,0.690268,-3.709599,-0.837158,0.440186,-0.163574,0.199324,0.212709,0.024627,0.999445,0.027468,0.003451,-0.018545,0.686002,-0.312777,-0.644725,-0.126102
52075,NaN,27.920839,10.008176,2.097437,7.533058,15.134038,14.646555,4.672490,0.698331,-3.162143,-0.853271,0.408203,-0.195312,0.280815,0.095140,0.022257,0.999596,0.023359,0.003491,-0.015809,0.693294,-0.285982,-0.649958,-0.122933
52076,NaN,31.492440,-3.079494,-5.253887,6.543581,0.426295,21.584819,3.102910,0.746171,-2.885089,-0.866943,0.374023,-0.216309,0.314244,-0.034499,-0.054228,0.999769,0.015513,0.003731,-0.014424,0.698129,-0.265659,-0.652798,-0.126078
52077,NaN,25.830746,-22.710862,-10.776290,0.248540,-20.553461,19.793887,1.326367,0.739803,-2.649140,-0.872559,0.346191,-0.230957,0.254871,-0.229774,-0.110228,0.999883,0.006632,0.003699,-0.013245,0.700560,-0.251873,-0.654492,-0.131969
52078,NaN,12.212925,-32.220780,-15.871398,-2.070488,-33.810586,7.266982,-0.670670,1.226572,-2.157420,-0.880371,0.326904,-0.252197,0.117668,-0.324025,-0.158360,0.999917,-0.003353,0.006133,-0.010787,0.701918,-0.246733,-0.652159,-0.145340
52079,NaN,-10.352438,-54.270003,-6.608524,-23.767178,-50.249932,-12.263260,1.395470,0.795157,-1.862864,-0.881348,0.296875,-0.255859,-0.108842,-0.541226,-0.069439,0.999924,0.006977,0.003976,-0.009314,0.704831,-0.235152,-0.652628,-0.148303
52080,NaN,-10.428349,-37.987129,1.155941,-21.742618,-32.425365,-15.189038,1.307659,-0.594461,-1.559162,-0.887207,0.275391,-0.266357,-0.107270,-0.379106,0.008763,0.999944,0.006538,-0.002972,-0.007796,0.702338,-0.228984,-0.656541,-0.152454
52081,NaN,-9.356671,-15.464594,2.834476,-11.081400,-12.532343,-17.219802,1.696408,-0.894023,-0.995107,-0.877686,0.254150,-0.263916,-0.094457,-0.154408,0.026613,0.999942,0.008482,-0.004470,-0.004975,0.700552,-0.220415,-0.662071,-0.149352
52082,NaN,-1.999841,6.326737,0.876604,2.226250,5.722546,-12.475573,1.787264,-1.031409,-0.227179,-0.879639,0.247559,-0.263672,-0.019973,0.063209,0.009228,0.999946,0.008936,-0.005157,-0.001136,0.698696,-0.214830,-0.667100,-0.143703
52083,NaN,-3.395050,11.783207,-1.137924,6.406887,9.401113,-14.527760,1.943862,-0.701996,0.824647,-0.877441,0.241211,-0.261475,-0.034399,0.117795,-0.010354,0.999938,0.009719,-0.003510,0.004123,0.698997,-0.211268,-0.670018,-0.133581
52084,NaN,0.063987,6.680261,-3.701742,6.391388,4.103055,-10.617164,0.538457,-0.337708,1.510415,-0.871094,0.249756,-0.265869,0.000197,0.066905,-0.036837,0.999966,0.002692,-0.001689,0.007552,0.699287,-0.214932,-0.669924,-0.126510
52085,NaN,-0.015896,4.892915,-2.250483,4.282470,3.184594,-10.535897,-1.609314,0.357705,1.716117,-0.861084,0.266846,-0.263916,-0.000618,0.048742,-0.022897,0.999929,-0.008046,0.001788,0.008580,0.699798,-0.226052,-0.665760,-0.126281
52086,NaN,-2.640650,0.292966,0.658406,-0.659576,0.236166,-12.458720,-3.243663,0.622135,1.752352,-0.853027,0.281738,-0.261963,-0.026411,0.002805,0.006620,0.999825,-0.016217,0.003110,0.008761,0.699063,-0.242852,-0.659503,-0.131867
52087,NaN,-2.293279,-0.948559,1.097428,-1.659093,-0.534516,-11.892270,-4.069027,0.621644,1.745195,-0.851562,0.303223,-0.253662,-0.022816,-0.009458,0.011238,0.999750,-0.020343,0.003108,0.008725,0.697155,-0.262345,-0.652361,-0.139911
52088,NaN,-0.674267,-0.718811,1.343422,-1.583998,0.075914,-10.323547,-4.384703,0.536003,1.802924,-0.843750,0.322510,-0.245361,-0.006643,-0.006951,0.013606,0.999715,-0.021921,0.002680,0.009014,0.694148,-0.282945,-0.644988,-0.148629
52089,NaN,0.422313,-0.201494,1.190584,-1.013859,0.628012,-9.350261,-4.214467,0.524864,1.804269,-0.833740,0.348145,-0.237305,0.004271,-0.001725,0.011933,0.999734,-0.021070,0.002624,0.009021,0.691041,-0.302911,-0.637309,-0.156666
52090,NaN,0.674941,0.223530,0.366216,-0.047790,0.518559,-9.205752,-3.892034,0.353923,1.761480,-0.823730,0.365234,-0.226807,0.006735,0.002365,0.003605,0.999770,-0.019459,0.001769,0.008807,0.687470,-0.321442,-0.630359,-0.163425
52091,NaN,1.803889,0.466766,-0.221434,0.749709,0.529389,-8.176066,-3.223415,0.122919,1.638593,-0.824219,0.380371,-0.220459,0.017999,0.004779,-0.002302,0.999836,-0.016116,0.000615,0.008193,0.683910,-0.337520,-0.624564,-0.168129
52092,NaN,2.817018,1.220846,-0.007675,1.281792,1.413382,-7.407435,-2.357393,-0.090888,1.516232,-0.812012,0.399414,-0.218506,0.028077,0.012420,-0.000210,0.999902,-0.011787,-0.000454,0.007581,0.680859,-0.350098,-0.620456,-0.169989
52093,NaN,3.500960,3.020559,0.766048,2.089775,3.346278,-7.282478,-1.586320,-0.241870,1.443837,-0.808105,0.407959,-0.201416,0.034781,0.030517,0.007461,0.999942,-0.007931,-0.001209,0.007219,0.678526,-0.360150,-0.617367,-0.169568
52094,NaN,3.497286,5.214524,2.301687,2.525715,5.923286,-8.008685,-0.860534,-0.256270,1.423324,-0.802002,0.420898,-0.197510,0.034571,0.052491,0.022836,0.999965,-0.004303,-0.001281,0.007117,0.677385,-0.367349,-0.615139,-0.166756
52095,NaN,2.041757,6.361191,3.552700,2.185040,7.244146,-9.861581,-0.465487,-0.158209,1.205873,-0.808838,0.429443,-0.195312,0.020005,0.063816,0.035395,0.999979,-0.002327,-0.000791,0.006029,0.677041,-0.372746,-0.613058,-0.163816
52096,NaN,0.906607,6.099060,2.550649,2.510661,6.084256,-10.910080,-0.244869,-0.163716,1.045436,-0.796143,0.437988,-0.195557,0.008726,0.061068,0.025439,0.999985,-0.001224,-0.000819,0.005227,0.676955,-0.376570,-0.611653,-0.160649
52097,NaN,-0.405837,5.207612,0.831317,2.860194,3.941467,-11.876415,-0.145574,-0.104598,0.829484,-0.796631,0.450928,-0.189209,-0.004279,0.052065,0.008273,0.999991,-0.000728,-0.000523,0.004147,0.677027,-0.379668,-0.610321,-0.158095
52098,NaN,-1.442885,4.038983,-0.773152,2.983611,1.761584,-12.456152,-0.119351,-0.114471,0.533678,-0.794678,0.452881,-0.187256,-0.014532,0.040347,-0.007764,0.999996,-0.000597,-0.000572,0.002668,0.676908,-0.381403,-0.609811,-0.156390
52099,NaN,-1.134126,3.162272,-2.104558,3.391424,0.307077,-11.842295,-0.205540,0.005605,0.158175,-0.792725,0.461670,-0.182861,-0.011367,0.031592,-0.021078,0.999999,-0.001028,0.000028,0.000791,0.676662,-0.382564,-0.609328,-0.156499
52100,NaN,-1.272414,2.033774,-2.497435,2.875822,-0.751625,-11.589528,-0.065674,-0.001818,-0.093077,-0.794922,0.459473,-0.185059,-0.012714,0.020335,-0.024981,1.000000,-0.000328,-0.000009,-0.000465,0.676490,-0.382092,-0.609703,-0.156935
52101,NaN,-1.043321,0.967024,-1.560377,1.541153,-0.730264,-11.057672,0.151458,0.006234,-0.266465,-0.799072,0.459473,-0.187256,-0.010421,0.009696,-0.015596,0.999999,0.000757,0.000031,-0.001332,0.676595,-0.380750,-0.610309,-0.157394
52102,NaN,-0.969584,0.436248,-0.786383,0.654007,-0.508824,-10.843305,0.063707,0.095078,-0.447583,-0.801270,0.459473,-0.180908,-0.009690,0.004387,-0.007858,0.999997,0.000319,0.000475,-0.002238,0.676710,-0.378533,-0.611240,-0.158627
52103,NaN,-0.841801,0.244009,-1.156574,0.813450,-0.862181,-10.649811,-0.167762,0.220320,-0.676220,-0.801270,0.461670,-0.172363,-0.008422,0.002459,-0.011559,0.999993,-0.000839,0.001102,-0.003381,0.676531,-0.376844,-0.611636,-0.161851
52104,NaN,-0.499852,-0.017017,-1.878508,1.214830,-1.460945,-10.223493,-0.154217,0.203743,-0.788908,-0.803467,0.459473,-0.170166,-0.005018,-0.000165,-0.018780,0.999991,-0.000771,0.001019,-0.003945,0.676216,-0.374481,-0.612509,-0.165314
52105,NaN,-0.342873,-0.049905,-1.240942,0.773931,-0.992984,-10.086554,-0.043594,0.050569,-0.746561,-0.809814,0.459473,-0.165771,-0.003434,-0.000489,-0.012408,0.999993,-0.000218,0.000253,-0.003733,0.675674,-0.372284,-0.613695,-0.168073
52106,NaN,-0.017789,-0.369052,-0.341766,-0.015817,-0.492659,-9.710921,-0.005181,-0.041654,-0.676807,-0.812012,0.457275,-0.167969,-0.000190,-0.003690,-0.003418,0.999994,-0.000026,-0.000208,-0.003384,0.674825,-0.370452,-0.615018,-0.170673
52107,NaN,-0.200146,-0.289330,-0.508814,0.123103,-0.599047,-9.905693,0.129942,-0.006197,-0.696086,-0.816406,0.457275,-0.159424,-0.002011,-0.002883,-0.005090,0.999994,0.000650,-0.000031,-0.003480,0.674455,-0.367862,-0.616435,-0.172617
52108,NaN,0.083824,0.738296,-0.605313,0.948548,0.084161,-9.920770,0.459906,-0.079128,-0.618216,-0.820557,0.452881,-0.161621,0.000863,0.007394,-0.006036,0.999993,0.002300,-0.000396,-0.003091,0.674249,-0.365155,-0.617893,-0.173952
52109,NaN,-0.184012,1.088947,-0.153936,0.821554,0.588185,-10.284323,0.763625,-0.062816,-0.555646,-0.822754,0.455078,-0.157227,-0.001809,0.010900,-0.001498,0.999989,0.003818,-0.000314,-0.002778,0.674964,-0.360901,-0.619776,-0.173357
52110,NaN,0.210334,-0.606299,-0.290982,-0.170058,-0.571975,-9.437945,0.817548,-0.110572,-0.358553,-0.824707,0.452881,-0.146484,0.002094,-0.006055,-0.002933,0.999990,0.004088,-0.000553,-0.001793,0.675387,-0.358263,-0.620922,-0.173075
52111,NaN,0.496563,-2.471600,0.327080,-1.822560,-1.362855,-8.679887,0.687300,-0.034709,-0.134171,-0.829346,0.457275,-0.142334,0.004948,-0.024730,0.003187,0.999994,0.003436,-0.000174,-0.000671,0.676396,-0.355540,-0.621870,-0.171339
52112,NaN,0.107220,-4.127571,0.717502,-3.287166,-2.310301,-8.620987,0.544287,0.011574,0.027927,-0.827393,0.461426,-0.142334,0.001078,-0.041295,0.007063,0.999996,0.002721,0.000058,0.000140,0.676821,-0.355697,-0.621267,-0.171522
52113,NaN,0.081901,-3.892412,0.545284,-2.996452,-2.288646,-8.699914,0.435370,0.038217,0.124066,-0.823242,0.469971,-0.134033,0.000844,-0.038935,0.005368,0.999997,0.002177,0.000191,0.000620,0.677824,-0.354563,-0.621288,-0.169825
52114,NaN,0.048022,-1.399666,0.166248,-1.048763,-0.843727,-9.391705,0.345861,0.099942,0.161868,-0.829834,0.472168,-0.136230,0.000492,-0.013999,0.001638,0.999998,0.001729,0.000500,0.000809,0.678857,-0.353744,-0.621041,-0.168305
52115,NaN,5.387888,-18.346245,3.931328,-14.138576,-8.863481,0.316842,0.179137,0.223757,0.597139,-0.821777,0.485107,-0.132080,0.054470,-0.183335,0.039088,0.999995,0.000896,0.001119,0.002986,0.680372,-0.354787,-0.619373,-0.166125
52116,NaN,-8.321975,-96.411721,0.575806,-66.157804,-67.751976,10.113459,-0.721247,1.494170,2.558509,-0.805420,0.515137,-0.128174,-0.070815,-0.965046,0.009797,0.999884,-0.003606,0.007471,0.012792,0.685789,-0.363779,-0.609183,-0.162034
52117,NaN,4.084564,-134.650858,17.378545,-102.982980,-74.771873,37.552331,-6.248219,1.824743,4.812002,-0.781250,0.555664,-0.087891,0.074960,-1.338687,0.215116,0.999181,-0.031233,0.009121,0.024053,0.683325,-0.398062,-0.588618,-0.167758
52118,NaN,69.468442,65.913881,-12.013446,70.791283,49.354935,33.397198,-1.376014,-2.117668,-1.952562,-0.793457,0.534180,-0.098389,0.702321,0.651494,-0.117225,0.999873,-0.006880,-0.010588,-0.009762,0.673131,-0.398155,-0.599029,-0.171847
52119,NaN,23.088834,66.645105,-11.972831,60.195952,38.653661,-10.244177,1.280747,0.619314,1.568664,-0.789795,0.551270,-0.090088,0.225284,0.668984,-0.116153,0.999944,0.006404,0.003097,0.007843,0.678851,-0.397976,-0.594888,-0.163962
52120,NaN,-1.523746,34.812944,17.023008,12.976120,33.608673,-24.159294,-4.418557,-2.145554,1.113947,-0.783936,0.563965,-0.034424,-0.018959,0.351675,0.162296,0.999683,-0.022090,-0.010727,0.005569,0.664469,-0.417652,-0.596463,-0.168165
52122,NaN,18.106572,-2.360434,-6.506183,13.064835,-2.427499,26.606102,-4.396373,-0.671706,0.984817,-0.775879,0.576904,0.008301,0.363463,-0.049221,-0.125550,0.998963,-0.043949,-0.006715,0.009845,0.643080,-0.453411,-0.588805,-0.184865
52123,NaN,11.959411,-11.538268,-21.363440,6.476690,-19.636261,7.652145,-0.306888,0.391025,-0.850386,-0.773438,0.572510,0.021240,0.118683,-0.116216,-0.213689,0.999988,-0.001534,0.001955,-0.004252,0.642767,-0.451386,-0.589383,-0.189023
52124,NaN,78.796024,-9.254226,1.498111,10.312479,20.135340,66.243744,0.774971,-2.224695,1.419726,-0.756836,0.587402,0.029541,0.788362,-0.087027,0.023405,0.999905,0.003875,-0.011123,0.007098,0.639246,-0.455127,-0.594006,-0.177145
52125,NaN,117.529427,27.627689,26.039219,34.081543,73.127430,83.695615,-0.648755,-0.556709,3.351996,-0.744629,0.604492,0.033691,1.169706,0.296763,0.262713,0.999850,-0.003244,-0.002783,0.016759,0.638944,-0.467462,-0.587693,-0.166875
52126,NaN,-10.518703,5.900095,4.476763,-0.967366,2.923262,-22.302911,0.658537,-0.081954,2.439793,-0.723877,0.625977,0.048584,-0.105913,0.057564,0.044915,0.999920,0.003293,-0.000410,0.012199,0.642232,-0.472547,-0.582756,-0.156948
52127,NaN,-4.107272,-18.276377,-10.282263,-8.905418,-18.582204,-4.159136,-2.296488,-0.208353,3.063233,-0.709717,0.651611,0.058838,-0.038150,-0.184528,-0.100751,0.999816,-0.011482,-0.001042,0.015315,0.638394,-0.489127,-0.573977,-0.154140
52128,NaN,3.001438,-19.867223,-4.795274,-11.370689,-12.031436,2.542390,-0.651792,-0.565172,1.777599,-0.699219,0.660156,0.063232,0.031914,-0.198549,-0.047217,0.999951,-0.003259,-0.002826,0.008888,0.636522,-0.496709,-0.570904,-0.148955
52129,NaN,-3.181133,-3.077166,-4.580823,-0.656348,-6.299850,-10.486022,-0.289900,-0.277461,0.713884,-0.692627,0.657959,0.065430,-0.031638,-0.030951,-0.045807,0.999992,-0.001449,-0.001387,0.003569,0.635487,-0.499949,-0.569679,-0.147219
52130,NaN,-6.925053,-8.168641,-2.846617,-6.660661,-8.675798,-11.588156,0.004527,-0.421535,0.118800,-0.695068,0.662109,0.071777,-0.069142,-0.081727,-0.028614,0.999998,0.000023,-0.002108,0.000594,0.634389,-0.500571,-0.570725,-0.145782
52131,NaN,-6.086040,-10.899795,2.621758,-11.620245,-5.226661,-10.421642,-0.274401,-0.587111,-0.190875,-0.690430,0.653564,0.073975,-0.061041,-0.108904,0.026188,0.999994,-0.001372,-0.002936,-0.000954,0.631846,-0.501331,-0.572853,-0.145863
52132,NaN,-4.097621,-8.454184,0.200773,-7.758593,-5.292333,-9.497851,-0.130109,-0.572479,-0.673974,-0.703125,0.647217,0.084717,-0.041266,-0.084402,0.001945,0.999990,-0.000651,-0.002862,-0.003370,0.629388,-0.500213,-0.576252,-0.146937
52133,NaN,1.043133,-6.750409,-1.072725,-4.234614,-3.536825,-5.645504,-0.225110,-0.522018,-1.028240,-0.707275,0.642822,0.084717,0.010112,-0.067569,-0.010625,0.999983,-0.001126,-0.002610,-0.005141,0.626556,-0.498317,-0.580303,-0.149518
52134,NaN,6.610585,-5.760776,-3.518797,-0.574756,-2.885509,-0.834359,-0.311415,-0.361362,-1.389747,-0.715332,0.627930,0.097900,0.065766,-0.058120,-0.034979,0.999973,-0.001557,-0.001807,-0.006949,0.623682,-0.495506,-0.584651,-0.153879
52135,NaN,12.135400,-5.688658,-5.038640,1.687611,-1.979029,4.267390,-0.222807,-0.320914,-1.446734,-0.726074,0.621582,0.097900,0.121019,-0.057819,-0.050128,0.999972,-0.001114,-0.001605,-0.007234,0.621070,-0.492168,-0.589087,-0.158177
52136,NaN,20.138118,-3.313933,0.020160,2.447627,6.143867,9.494883,-0.145870,-0.217854,-1.304788,-0.732178,0.610840,0.097900,0.201159,-0.034452,0.000446,0.999978,-0.000729,-0.001089,-0.006524,0.619029,-0.488927,-0.592848,-0.162126
52137,NaN,21.089650,-0.398628,3.021833,3.021539,10.163916,8.670412,-0.395228,0.019388,-1.078796,-0.742432,0.600098,0.102295,0.210874,-0.005064,0.030207,0.999983,-0.001976,0.000097,-0.005394,0.617235,-0.486909,-0.595112,-0.166679
52138,NaN,14.653389,-2.763628,0.074105,1.190921,4.204898,4.444381,-0.585635,0.052802,-0.888756,-0.744629,0.602295,0.102295,0.146409,-0.028285,0.000785,0.999986,-0.002928,0.000264,-0.004444,0.615223,-0.486009,-0.596618,-0.171299
52139,NaN,9.139406,-5.465276,-3.252299,-0.439657,-1.821080,1.162943,-0.656180,0.001473,-0.972647,-0.752930,0.589355,0.104736,0.091126,-0.055203,-0.032343,0.999983,-0.003281,0.000007,-0.004863,0.612784,-0.485152,-0.598336,-0.176401
52140,NaN,6.345174,-6.262928,-4.171992,-1.289186,-4.002270,-0.912711,-0.517484,0.198474,-1.129435,-0.758789,0.576416,0.104736,0.063055,-0.063094,-0.041620,0.999980,-0.002587,0.000992,-0.005647,0.611120,-0.483162,-0.600001,-0.181895
52141,NaN,6.096401,-5.978751,-3.026024,-1.844880,-3.097143,-1.501768,-0.239395,0.364108,-1.212767,-0.765137,0.570068,0.102783,0.060545,-0.060192,-0.030299,0.999979,-0.001197,0.001821,-0.006064,0.610514,-0.479926,-0.601556,-0.187281
52142,NaN,7.442918,-4.801798,-1.853943,-1.339893,-1.210475,-0.945350,0.084031,0.482628,-1.220655,-0.777588,0.561523,0.098389,0.074089,-0.048463,-0.018739,0.999978,0.000420,0.002413,-0.006103,0.611017,-0.475523,-0.603079,-0.191916
52143,NaN,8.808212,-4.326280,-1.417287,-1.001433,-0.272601,0.047898,0.002777,0.462391,-1.354548,-0.781738,0.552979,0.085693,0.087753,-0.043858,-0.014377,0.999974,0.000014,0.002312,-0.006773,0.611104,-0.470972,-0.604862,-0.197179
52144,NaN,8.847668,-4.587267,-0.792945,-1.643323,0.008554,0.048877,-0.063961,0.478571,-1.472184,-0.789795,0.540283,0.090088,0.088117,-0.046525,-0.008126,0.999970,-0.000320,0.002393,-0.007361,0.610936,-0.466216,-0.606787,-0.202999
