// Start Time: Unknown
// Update Rate: 100.0Hz
// Filter Profile: human (46.1)
// Firmware Version: 4.4.0
PacketCounter,SampleTimeFine,Acc_X,Acc_Y,Acc_Z,FreeAcc_X,FreeAcc_Y,FreeAcc_Z,Gyr_X,Gyr_Y,Gyr_Z,Mag_X,Mag_Y,Mag_Z,VelInc_X,VelInc_Y,VelInc_Z,OriInc_q0,OriInc_q1,OriInc_q2,OriInc_q3,Quat_q0,Quat_q1,Quat_q2,Quat_q3
61069,NaN,1.642858,-5.948604,5.734154,0.000000,-0.000000,-1.388597,0.026061,-0.042557,-0.536186,-0.311768,0.761963,-0.282227,0.016257,-0.059537,0.057337,0.999996,0.000130,-0.000213,-0.002681,0.441764,-0.278003,0.287049,-0.803220
61070,NaN,1.839365,-5.792566,5.721027,0.051067,-0.391808,-1.475363,0.039676,-0.091905,-0.590892,-0.326172,0.747070,-0.275879,0.018196,-0.057991,0.057207,0.999996,0.000198,-0.000460,-0.002954,0.423798,-0.272599,0.301229,-0.809534
61071,NaN,2.191872,-5.987107,5.956999,-0.046308,-0.619881,-1.109297,0.037893,-0.127369,-0.634336,-0.332520,0.749268,-0.263672,0.021691,-0.059951,0.059573,0.999995,0.000189,-0.000637,-0.003172,0.421472,-0.273988,0.299940,-0.810758
61072,NaN,2.531030,-6.122294,6.007126,-0.202219,-0.789396,-0.907077,-0.020054,-0.142479,-0.654963,-0.346924,0.732422,-0.257324,0.025067,-0.061299,0.060095,0.999994,-0.000100,-0.000712,-0.003275,0.417796,-0.277358,0.298700,-0.811971
61073,NaN,2.745049,-6.145936,5.895503,-0.377055,-0.882583,-0.916429,-0.057356,-0.176348,-0.676950,-0.357422,0.734375,-0.245117,0.027190,-0.061535,0.058997,0.999994,-0.000287,-0.000882,-0.003385,0.415229,-0.279203,0.297624,-0.813050
61074,NaN,2.881632,-6.194565,5.840648,-0.473228,-0.879528,-0.880061,-0.079166,-0.191424,-0.696995,-0.367676,0.721680,-0.234863,0.028544,-0.062022,0.058458,0.999993,-0.000396,-0.000957,-0.003485,0.412017,-0.282383,0.295333,-0.814421
61075,NaN,2.863936,-6.224178,5.859885,-0.436941,-0.804002,-0.843678,-0.108038,-0.222941,-0.712598,-0.382568,0.721680,-0.218506,0.028352,-0.062311,0.058664,0.999993,-0.000540,-0.001115,-0.003563,0.409289,-0.284563,0.294305,-0.815408
61076,NaN,2.833303,-6.214781,5.723992,-0.445518,-0.624972,-0.934300,-0.153990,-0.272664,-0.730028,-0.388428,0.708984,-0.206055,0.028028,-0.062206,0.057326,0.999992,-0.000770,-0.001363,-0.003650,0.405009,-0.290316,0.290652,-0.816827
61077,NaN,2.851920,-6.172445,5.534476,-0.530381,-0.563094,-1.079750,-0.163318,-0.309776,-0.743956,-0.398926,0.708984,-0.199951,0.028204,-0.061785,0.055439,0.999992,-0.000817,-0.001549,-0.003720,0.402181,-0.292990,0.289609,-0.817639
61078,NaN,2.883200,-6.187214,5.606373,-0.406176,-0.450113,-1.000317,-0.145096,-0.340500,-0.766508,-0.410889,0.683594,-0.183105,0.028499,-0.061941,0.056157,0.999991,-0.000725,-0.001702,-0.003833,0.397149,-0.300589,0.285221,-0.818883
61079,NaN,2.893672,-6.281871,5.761751,-0.303955,-0.383573,-0.824195,-0.115327,-0.382692,-0.814150,-0.423584,0.687744,-0.164795,0.028570,-0.062902,0.057709,0.999990,-0.000577,-0.001913,-0.004071,0.394184,-0.303543,0.283706,-0.819751
61080,NaN,3.073599,-6.217405,5.819737,-0.215001,-0.418710,-0.771098,-0.134724,-0.433367,-0.860372,-0.433350,0.660156,-0.152100,0.030342,-0.062266,0.058305,0.999988,-0.000674,-0.002167,-0.004302,0.388812,-0.311746,0.279137,-0.820806
61081,NaN,3.350229,-5.820657,6.070711,0.060435,-0.841858,-0.799108,-0.143121,-0.470649,-0.897650,-0.441895,0.662354,-0.131836,0.033098,-0.058312,0.060827,0.999987,-0.000716,-0.002353,-0.004488,0.385556,-0.315205,0.277406,-0.821607
61082,NaN,3.695095,-5.585975,6.084829,0.098675,-1.081243,-0.829233,-0.161897,-0.498333,-0.962143,-0.449219,0.634766,-0.123291,0.036530,-0.055987,0.060985,0.999985,-0.000809,-0.002492,-0.004811,0.379960,-0.323057,0.271940,-0.822990
61083,NaN,4.043672,-5.671266,5.897370,-0.201753,-1.196044,-0.767164,-0.177239,-0.494846,-1.016344,-0.461914,0.630371,-0.106934,0.040002,-0.056864,0.059123,0.999984,-0.000886,-0.002474,-0.005082,0.376158,-0.326807,0.270083,-0.823867
61084,NaN,4.057745,-5.885433,5.787513,-0.302202,-0.855089,-0.659788,-0.156694,-0.505114,-1.055618,-0.465332,0.609131,-0.088135,0.040120,-0.059021,0.058023,0.999983,-0.000783,-0.002526,-0.005278,0.369939,-0.334593,0.262846,-0.825896
61085,NaN,4.177191,-6.446582,5.819718,-0.530249,-0.530862,-0.204754,-0.037237,-0.533463,-1.111065,-0.471436,0.598633,-0.071533,0.041258,-0.064685,0.058320,0.999981,-0.000186,-0.002667,-0.005555,0.365982,-0.338318,0.260150,-0.826994
61086,NaN,4.582461,-7.127898,6.153320,-0.682752,-0.266787,0.633865,0.093334,-0.570097,-1.144942,-0.480957,0.568848,-0.056641,0.045240,-0.071568,0.061629,0.999979,0.000467,-0.002850,-0.005725,0.359922,-0.345960,0.252493,-0.828864
61087,NaN,5.067168,-7.571433,6.381343,-0.894080,-0.276766,1.270930,0.200561,-0.603301,-1.157853,-0.484863,0.558105,-0.036133,0.050039,-0.076069,0.063889,0.999978,0.001003,-0.003016,-0.005789,0.356224,-0.349554,0.248568,-0.830139
61088,NaN,5.621565,-7.444729,6.478151,-0.932261,-0.558638,1.492587,0.285503,-0.645631,-1.181905,-0.488037,0.528320,-0.025391,0.055565,-0.074869,0.064855,0.999976,0.001428,-0.003228,-0.005909,0.350656,-0.357307,0.241698,-0.831237
61089,NaN,6.237095,-6.976667,6.463862,-1.017149,-1.167775,1.454801,0.314306,-0.684085,-1.200465,-0.489990,0.524170,-0.002930,0.061729,-0.070240,0.064740,0.999975,0.001572,-0.003420,-0.006002,0.347046,-0.361041,0.237041,-0.832478
61090,NaN,6.589157,-6.640470,6.258170,-1.084174,-1.371567,1.305709,0.278150,-0.696983,-1.224227,-0.497314,0.494385,0.013916,0.065265,-0.066893,0.062717,0.999974,0.001391,-0.003485,-0.006121,0.341121,-0.369673,0.230088,-0.833089
61091,NaN,6.662318,-6.480844,5.875309,-1.304012,-1.332118,1.023828,0.150985,-0.718098,-1.219918,-0.497314,0.488037,0.036621,0.066015,-0.065257,0.058942,0.999975,0.000755,-0.003590,-0.006100,0.337136,-0.373801,0.225973,-0.833995
61092,NaN,6.598263,-6.348138,5.381394,-1.449655,-1.069752,0.653810,0.021492,-0.751431,-1.211126,-0.496094,0.458252,0.045410,0.065394,-0.063884,0.054054,0.999975,0.000107,-0.003757,-0.006056,0.330455,-0.383781,0.219469,-0.833873
61093,NaN,6.515189,-6.433535,5.150109,-1.553539,-0.793938,0.546655,-0.109460,-0.792870,-1.205159,-0.493652,0.445312,0.065918,0.064558,-0.064697,0.051793,0.999974,-0.000547,-0.003964,-0.006026,0.326082,-0.388580,0.216297,-0.834201
61094,NaN,6.681426,-6.618467,4.833883,-1.762897,-0.529263,0.599903,-0.221907,-0.855015,-1.185093,-0.494873,0.419922,0.086914,0.066213,-0.066524,0.048696,0.999973,-0.001110,-0.004275,-0.005925,0.319158,-0.399666,0.211106,-0.832970
61095,NaN,6.950641,-6.948510,4.843128,-1.906979,-0.357579,0.970740,-0.290625,-0.925300,-1.194896,-0.486084,0.411377,0.107422,0.068865,-0.069827,0.048852,0.999970,-0.001453,-0.004626,-0.005974,0.314568,-0.405233,0.208445,-0.832697
61096,NaN,7.739412,-7.004268,4.989803,-1.942745,-0.660393,1.573408,-0.213388,-1.004278,-1.225517,-0.489258,0.379395,0.122314,0.076711,-0.070461,0.050359,0.999968,-0.001067,-0.005021,-0.006128,0.307939,-0.417079,0.203789,-0.830475
61097,NaN,8.433180,-6.880980,5.238613,-1.908828,-1.088703,2.064910,-0.101355,-1.038446,-1.265922,-0.480469,0.370850,0.140869,0.083621,-0.069314,0.052857,0.999966,-0.000507,-0.005192,-0.006330,0.303519,-0.422823,0.199964,-0.830128
61098,NaN,8.710551,-6.430570,5.235664,-1.637407,-1.362911,2.023537,0.000175,-1.018715,-1.294514,-0.468994,0.347412,0.157715,0.086419,-0.064867,0.052798,0.999966,0.000001,-0.005094,-0.006472,0.297153,-0.434576,0.194314,-0.827699
61099,NaN,8.518992,-5.928597,5.061162,-1.442391,-1.432887,1.553937,0.052654,-0.990273,-1.328204,-0.464600,0.338867,0.174316,0.084542,-0.059862,0.051016,0.999966,0.000263,-0.004951,-0.006641,0.292722,-0.439872,0.189732,-0.827543
61100,NaN,8.400367,-5.417015,4.631356,-1.376714,-1.474875,1.017190,0.059739,-0.962225,-1.369699,-0.455322,0.315430,0.188965,0.083406,-0.054757,0.046699,0.999965,0.000299,-0.004811,-0.006848,0.286033,-0.451048,0.183229,-0.825329
61101,NaN,8.198682,-5.107838,4.195809,-1.486193,-1.404589,0.518280,0.034036,-0.953473,-1.404580,-0.452881,0.306885,0.197510,0.081424,-0.051659,0.042338,0.999964,0.000170,-0.004767,-0.007023,0.281177,-0.456204,0.178551,-0.825189
61102,NaN,8.098298,-4.965334,3.885814,-1.477372,-1.208054,0.271553,-0.033913,-0.954272,-1.434163,-0.447754,0.281250,0.212158,0.080438,-0.050225,0.039251,0.999963,-0.000170,-0.004771,-0.007171,0.273944,-0.467065,0.171927,-0.822950
61103,NaN,8.241303,-5.198810,3.829802,-1.570231,-0.949743,0.494762,-0.029415,-1.002033,-1.485479,-0.439209,0.276855,0.230713,0.081831,-0.052592,0.038717,0.999960,-0.000147,-0.005010,-0.007427,0.268613,-0.472486,0.167199,-0.822586
61104,NaN,8.783807,-5.412035,3.954938,-1.544719,-0.857175,1.094307,-0.006652,-1.026772,-1.547240,-0.431641,0.245117,0.241455,0.087211,-0.054795,0.040000,0.999957,-0.000033,-0.005134,-0.007736,0.261179,-0.483218,0.160102,-0.820154
61105,NaN,9.256686,-5.502057,4.161445,-1.484276,-0.871625,1.602636,0.068113,-1.039661,-1.605065,-0.427490,0.242920,0.251709,0.091903,-0.055774,0.042074,0.999954,0.000341,-0.005198,-0.008025,0.255582,-0.488656,0.154579,-0.819755
61106,NaN,9.649022,-5.298289,4.269735,-1.283131,-0.982633,1.883020,0.116825,-1.053709,-1.677332,-0.420410,0.223633,0.262451,0.095815,-0.053813,0.043172,0.999951,0.000584,-0.005268,-0.008387,0.248167,-0.498931,0.146719,-0.817285
61107,NaN,10.024729,-4.887890,4.220603,-1.272740,-1.313715,1.970755,0.183628,-1.053735,-1.738267,-0.415771,0.215088,0.274902,0.099593,-0.049785,0.042686,0.999948,0.000918,-0.005269,-0.008691,0.242282,-0.504259,0.140317,-0.816905
61108,NaN,10.528308,-4.744596,4.447123,-1.026753,-1.395042,2.439967,0.193207,-1.021112,-1.787076,-0.411133,0.197998,0.279297,0.104625,-0.048426,0.044960,0.999947,0.000966,-0.005105,-0.008935,0.234617,-0.513810,0.131819,-0.814603
61109,NaN,10.922137,-4.661753,4.236366,-1.249876,-1.435814,2.650957,0.098652,-0.997056,-1.808708,-0.408691,0.189453,0.295654,0.108581,-0.047622,0.042883,0.999947,0.000493,-0.004985,-0.009043,0.228149,-0.518920,0.125594,-0.814184
61110,NaN,11.088284,-4.710241,4.101265,-1.249727,-1.162881,2.798303,-0.019985,-0.976363,-1.802925,-0.403809,0.172607,0.300049,0.110250,-0.048094,0.041557,0.999947,-0.000100,-0.004882,-0.009014,0.219700,-0.527982,0.117827,-0.811840
61111,NaN,11.294957,-4.883253,3.869692,-1.472149,-0.882947,2.971847,-0.142818,-0.966956,-1.779502,-0.409912,0.164062,0.314453,0.112320,-0.049806,0.039276,0.999948,-0.000714,-0.004835,-0.008897,0.212658,-0.533085,0.112641,-0.811116
61112,NaN,11.383688,-5.086315,3.621079,-1.570778,-0.446610,3.067480,-0.206928,-0.993383,-1.751302,-0.406982,0.140625,0.323242,0.113204,-0.051818,0.036827,0.999949,-0.001035,-0.004967,-0.008756,0.204033,-0.541957,0.105785,-0.808371
61113,NaN,11.398765,-5.076386,3.539489,-1.532164,-0.235905,3.064455,-0.262355,-1.017616,-1.712312,-0.417480,0.136475,0.341553,0.113365,-0.051689,0.036040,0.999950,-0.001312,-0.005088,-0.008561,0.196929,-0.547216,0.101162,-0.807180
61114,NaN,11.430774,-4.961068,3.497544,-1.339130,-0.072370,3.059906,-0.346000,-1.062137,-1.661991,-0.416504,0.110840,0.348145,0.113702,-0.050496,0.035667,0.999950,-0.001730,-0.005311,-0.008310,0.188796,-0.556104,0.095201,-0.803767
61115,NaN,11.612927,-4.815679,3.587884,-1.146040,-0.056215,3.210428,-0.425698,-1.124349,-1.641465,-0.431152,0.108643,0.368652,0.115525,-0.049029,0.036633,0.999948,-0.002128,-0.005622,-0.008207,0.181541,-0.561777,0.091281,-0.801946
61116,NaN,11.932252,-4.372217,3.665902,-0.843725,-0.319884,3.382521,-0.618344,-1.198211,-1.647625,-0.432373,0.079102,0.379395,0.118735,-0.044587,0.037509,0.999943,-0.003092,-0.005991,-0.008238,0.173242,-0.570988,0.086453,-0.797801
61117,NaN,12.551818,-4.015581,3.508379,-0.936668,-0.672047,3.775758,-0.751930,-1.271104,-1.684593,-0.451172,0.072754,0.399902,0.124948,-0.041076,0.036032,0.999937,-0.003760,-0.006355,-0.008423,0.164914,-0.577402,0.083537,-0.795256
61118,NaN,13.131880,-4.110736,3.499574,-0.847475,-0.515442,4.350632,-0.843687,-1.316112,-1.720739,-0.458496,0.040771,0.416748,0.130725,-0.042083,0.036033,0.999932,-0.004218,-0.006580,-0.008604,0.155804,-0.586758,0.079310,-0.790664
61119,NaN,13.499208,-4.344462,3.386580,-0.885143,-0.186204,4.738777,-0.860532,-1.326960,-1.736396,-0.481201,0.023926,0.439453,0.134380,-0.044464,0.034949,0.999931,-0.004303,-0.006635,-0.008682,0.146931,-0.593322,0.076579,-0.787728
61120,NaN,13.636388,-4.566189,3.487923,-0.562655,0.275454,4.971264,-0.809297,-1.344714,-1.756587,-0.492920,-0.005859,0.454102,0.135717,-0.046712,0.035981,0.999931,-0.004046,-0.006723,-0.008783,0.137912,-0.602274,0.072100,-0.782973
61121,NaN,13.554798,-4.257831,3.521127,-0.258611,0.256975,4.820097,-0.801764,-1.349398,-1.737821,-0.528564,-0.020752,0.476807,0.134930,-0.043608,0.036296,0.999931,-0.004009,-0.006747,-0.008689,0.129172,-0.608695,0.069070,-0.779766
61122,NaN,13.572039,-3.743654,3.019220,-0.414552,0.007148,4.580051,-0.705808,-1.319517,-1.695369,-0.546387,-0.052490,0.493652,0.135193,-0.038475,0.031220,0.999936,-0.003529,-0.006597,-0.008477,0.120999,-0.616881,0.064478,-0.775023
61123,NaN,12.754520,-3.258995,3.368186,0.341556,0.003084,3.771128,-0.728758,-1.324426,-1.651743,-0.590332,-0.071533,0.518311,0.127044,-0.033515,0.034645,0.999937,-0.003644,-0.006622,-0.008259,0.112770,-0.622948,0.061402,-0.771653
61124,NaN,12.492504,-3.403566,3.036169,0.289864,0.429226,3.476054,-0.531004,-1.316144,-1.602414,-0.618652,-0.109619,0.533203,0.124444,-0.034952,0.031274,0.999943,-0.002655,-0.006581,-0.008012,0.105512,-0.630416,0.056545,-0.766972
61125,NaN,12.250977,-3.302633,2.893148,0.374537,0.589730,3.182319,-0.303826,-1.285663,-1.581794,-0.665039,-0.113770,0.549316,0.122054,-0.033948,0.029768,0.999947,-0.001519,-0.006428,-0.007909,0.098846,-0.635920,0.052043,-0.763627
61126,NaN,12.118532,-3.407950,2.937539,0.624123,0.943619,3.064304,-0.102806,-1.215262,-1.507351,-0.706299,-0.143311,0.570068,0.120742,-0.034975,0.030128,0.999953,-0.000514,-0.006076,-0.007537,0.093444,-0.642208,0.046063,-0.759418
61127,NaN,11.561946,-3.275024,2.590636,0.520341,1.101018,2.419585,0.006286,-1.162423,-1.436568,-0.752441,-0.153809,0.586426,0.115227,-0.033580,0.026576,0.999957,0.000031,-0.005812,-0.007183,0.088273,-0.646922,0.040881,-0.756326
61128,NaN,11.038238,-3.130027,2.384644,0.553774,1.230298,1.827856,0.177558,-1.173129,-1.380418,-0.802490,-0.177002,0.598877,0.110020,-0.032082,0.024464,0.999959,0.000888,-0.005866,-0.006902,0.084588,-0.652414,0.034406,-0.752341
61129,NaN,10.974089,-2.850337,2.171569,0.496302,1.125733,1.665703,0.262702,-1.243963,-1.350858,-0.851318,-0.176758,0.604736,0.109407,-0.029272,0.022359,0.999957,0.001313,-0.006220,-0.006754,0.080574,-0.657186,0.028484,-0.748868
61130,NaN,11.252691,-2.054947,1.544905,0.054105,0.421277,1.721978,0.176493,-1.295467,-1.292969,-0.903809,-0.189209,0.604736,0.112288,-0.021290,0.016158,0.999958,0.000882,-0.006477,-0.006465,0.077616,-0.662734,0.022300,-0.744487
61131,NaN,11.300078,-1.489964,1.297431,-0.012361,-0.002188,1.658642,0.093869,-1.311386,-1.228546,-0.956787,-0.187012,0.614746,0.112818,-0.015599,0.013707,0.999960,0.000469,-0.006557,-0.006143,0.073497,-0.667690,0.017370,-0.740599
61132,NaN,10.992002,-1.407820,1.135744,0.015607,0.090660,1.326623,0.044019,-1.330472,-1.188325,-0.992920,-0.184570,0.604248,0.109755,-0.014733,0.012085,0.999960,0.000220,-0.006652,-0.005942,0.070455,-0.673170,0.012026,-0.736026
61133,NaN,10.906086,-1.624477,1.100307,0.104873,0.454303,1.258526,0.033505,-1.342411,-1.137936,-1.048096,-0.176025,0.597900,0.108889,-0.016867,0.011732,0.999961,0.000168,-0.006712,-0.005690,0.066458,-0.678141,0.007599,-0.731882
61134,NaN,10.870380,-2.077328,1.308621,0.420262,1.056869,1.273171,0.119801,-1.345292,-1.100323,-1.086426,-0.171387,0.585205,0.108496,-0.021379,0.013804,0.999962,0.000599,-0.006726,-0.005502,0.063976,-0.683430,0.002286,-0.727204
61135,NaN,11.001229,-2.498765,1.583325,0.781925,1.618841,1.436435,0.199000,-1.337126,-1.018962,-1.131592,-0.149902,0.574463,0.109774,-0.025564,0.016542,0.999964,0.000995,-0.006686,-0.005095,0.060964,-0.688215,-0.002347,-0.722937
61136,NaN,11.111264,-2.591071,1.857746,1.175336,1.845445,1.537872,0.280446,-1.311134,-0.929227,-1.159424,-0.141357,0.557861,0.110866,-0.026453,0.019268,0.999967,0.001402,-0.006556,-0.004646,0.060016,-0.693056,-0.007694,-0.718340
61137,NaN,11.173810,-2.349970,2.223416,1.686279,1.757311,1.562099,0.348240,-1.255309,-0.854434,-1.198486,-0.113525,0.540771,0.111494,-0.024016,0.022893,0.999970,0.001741,-0.006276,-0.004272,0.058103,-0.697406,-0.012282,-0.714211
61138,NaN,11.180541,-2.236318,2.586575,2.170142,1.787593,1.535824,0.425517,-1.163093,-0.810529,-1.226562,-0.098389,0.520020,0.111561,-0.022872,0.026467,0.999973,0.002128,-0.005815,-0.004053,0.058387,-0.701333,-0.017648,-0.710219
61139,NaN,11.047150,-1.952998,2.777809,2.495608,1.647532,1.350897,0.401375,-1.051512,-0.766859,-1.259277,-0.070801,0.502930,0.110247,-0.020009,0.028318,0.999977,0.002007,-0.005258,-0.003834,0.056977,-0.704866,-0.022069,-0.706704
61140,NaN,10.665590,-1.317380,2.495844,2.367596,1.093921,0.907195,0.277055,-0.951101,-0.728924,-1.278564,-0.062012,0.474121,0.106487,-0.013597,0.025446,0.999981,0.001385,-0.004755,-0.003645,0.057005,-0.707707,-0.026316,-0.703711
61141,NaN,10.187674,-0.582863,2.024217,2.064368,0.420740,0.374860,0.094507,-0.868298,-0.702022,-1.298828,-0.032227,0.459229,0.101766,-0.006196,0.020681,0.999984,0.000473,-0.004341,-0.003510,0.054754,-0.710632,-0.029380,-0.700815
61142,NaN,9.796464,-0.017409,1.378849,1.544472,-0.140999,-0.042009,-0.140796,-0.779754,-0.656044,-1.311768,-0.021484,0.428467,0.097909,-0.000485,0.014171,0.999987,-0.000704,-0.003899,-0.003280,0.053123,-0.712738,-0.031478,-0.698708
61143,NaN,9.355891,0.180989,0.803283,1.050727,-0.327274,-0.485363,-0.373476,-0.710147,-0.612071,-1.325684,0.008545,0.411377,0.093535,0.001539,0.008362,0.999987,-0.001867,-0.003551,-0.003060,0.049541,-0.715212,-0.032543,-0.696389
61144,NaN,8.768391,0.125618,-0.012310,0.258681,-0.307013,-1.052610,-0.546099,-0.655473,-0.587356,-1.330078,0.017090,0.380615,0.087687,0.000999,0.000161,0.999987,-0.002730,-0.003277,-0.002937,0.046130,-0.716916,-0.032621,-0.694866
61145,NaN,8.585127,-0.414872,-0.200599,0.055844,0.267731,-1.219579,-0.498337,-0.616883,-0.543082,-1.332764,0.036133,0.367920,0.085845,-0.004386,-0.001730,0.999988,-0.002492,-0.003084,-0.002715,0.042356,-0.719078,-0.032978,-0.692853
61146,NaN,8.390877,-1.107931,0.265360,0.473811,1.046399,-1.423114,-0.414927,-0.567110,-0.464220,-1.333496,0.053223,0.341064,0.083875,-0.011268,0.002915,0.999991,-0.002075,-0.002836,-0.002321,0.039745,-0.720510,-0.033070,-0.691515
61147,NaN,7.939850,-1.599445,0.421404,0.607894,1.594740,-1.884007,-0.312192,-0.598695,-0.416719,-1.334229,0.074463,0.320312,0.079352,-0.016153,0.004477,0.999992,-0.001561,-0.002993,-0.002084,0.037080,-0.722567,-0.033611,-0.689487
61148,NaN,8.407952,-1.750784,0.725722,0.951346,1.799231,-1.437547,-0.095174,-0.593587,-0.368942,-1.328125,0.083008,0.307861,0.084025,-0.017659,0.007515,0.999994,-0.000476,-0.002968,-0.001845,0.036337,-0.724034,-0.034701,-0.687932
61149,NaN,8.508983,-1.548784,1.178283,1.471026,1.676912,-1.373867,0.074959,-0.543027,-0.303060,-1.329102,0.110596,0.295166,0.085034,-0.015621,0.012008,0.999995,0.000375,-0.002715,-0.001515,0.035471,-0.725832,-0.036154,-0.686005
61150,NaN,8.356503,-1.225224,1.487757,1.825624,1.402510,-1.551596,0.142733,-0.480255,-0.230759,-1.320801,0.117188,0.278564,0.083515,-0.012359,0.015069,0.999996,0.000714,-0.002401,-0.001154,0.036429,-0.726820,-0.037702,-0.684825
61151,NaN,7.977713,-0.467060,1.583048,2.010128,0.677218,-1.947019,0.038093,-0.410646,-0.150968,-1.319336,0.134033,0.268066,0.079741,-0.004734,0.015993,0.999998,0.000190,-0.002053,-0.000755,0.035973,-0.728189,-0.038456,-0.683351
61152,NaN,7.638112,-0.142717,1.734671,2.186676,0.371633,-2.299335,-0.066917,-0.341801,-0.133968,-1.315430,0.144775,0.251709,0.076350,-0.001472,0.017478,0.999998,-0.000335,-0.001709,-0.000670,0.036375,-0.728659,-0.038745,-0.682812
61153,NaN,7.475738,-0.074170,1.815622,2.285838,0.319740,-2.473661,-0.245981,-0.269238,-0.109918,-1.311768,0.161865,0.241211,0.074732,-0.000760,0.018258,0.999998,-0.001230,-0.001346,-0.000550,0.035051,-0.729600,-0.038355,-0.681897
61154,NaN,7.285387,-0.186026,1.689126,2.138182,0.409044,-2.655492,-0.398137,-0.217053,-0.097462,-1.305664,0.170166,0.224609,0.072835,-0.001862,0.016974,0.999997,-0.001991,-0.001085,-0.000487,0.033924,-0.729622,-0.036990,-0.682007
61155,NaN,7.441909,-0.355246,1.641872,2.099826,0.575319,-2.500802,-0.475071,-0.167887,-0.097541,-1.308105,0.176758,0.224609,0.074404,-0.003550,0.016490,0.999997,-0.002375,-0.000839,-0.000488,0.031828,-0.730254,-0.035754,-0.681497
61156,NaN,7.508537,-0.679496,1.507475,1.936364,0.871187,-2.423246,-0.589494,-0.121095,-0.033458,-1.299561,0.178711,0.208252,0.075075,-0.006763,0.015140,0.999995,-0.002947,-0.000605,-0.000167,0.029924,-0.729921,-0.033222,-0.682068
61157,NaN,7.151858,-0.705436,1.244936,1.661535,0.862432,-2.763428,-0.745861,-0.071099,0.048215,-1.291748,0.193604,0.209961,0.071516,-0.006991,0.012501,0.999993,-0.003729,-0.000355,0.000241,0.027354,-0.730278,-0.030512,-0.681920
61158,NaN,6.853287,-0.234581,1.170671,1.597961,0.359153,-3.051730,-0.959714,-0.038936,0.080059,-1.293945,0.195801,0.197754,0.068531,-0.002262,0.011731,0.999988,-0.004799,-0.000195,0.000400,0.024442,-0.729680,-0.026209,-0.682849
61159,NaN,7.026422,-0.032403,1.283112,1.740656,0.148740,-2.886939,-1.112455,-0.028275,0.069439,-1.291992,0.204346,0.197510,0.070262,-0.000228,0.012843,0.999984,-0.005562,-0.000141,0.000347,0.020617,-0.729910,-0.022160,-0.682873
61160,NaN,7.664125,-0.356966,1.267864,1.733866,0.441644,-2.244838,-1.300734,0.000409,0.056287,-1.283691,0.206299,0.181152,0.076642,-0.003466,0.012701,0.999979,-0.006504,0.000002,0.000281,0.016150,-0.729151,-0.016594,-0.683961
61161,NaN,8.070062,-0.620614,1.090673,1.577306,0.676268,-1.827993,-1.538307,0.042606,0.071199,-1.279785,0.217041,0.180908,0.080705,-0.006093,0.010937,0.999970,-0.007691,0.000213,0.000356,0.010788,-0.729113,-0.011069,-0.684218
61162,NaN,8.015505,-0.631792,0.997286,1.466929,0.646748,-1.870910,-1.775677,0.074684,0.113660,-1.273438,0.217041,0.177002,0.080162,-0.006184,0.009998,0.999960,-0.008878,0.000373,0.000568,0.004707,-0.728031,-0.003569,-0.685518
61163,NaN,7.855491,-0.536980,1.049326,1.515607,0.521972,-2.032678,-2.065454,0.084438,0.167825,-1.269531,0.225342,0.174805,0.078564,-0.005195,0.010514,0.999946,-0.010327,0.000422,0.000839,-0.002235,-0.727754,0.004124,-0.685822
61164,NaN,7.858152,-0.197673,1.585543,2.028319,0.117458,-2.055407,-2.551171,0.095392,0.231304,-1.267578,0.229736,0.174805,0.078591,-0.001684,0.015841,0.999918,-0.012756,0.000477,0.001156,-0.010753,-0.726428,0.014762,-0.687000
61165,NaN,8.120171,0.132177,1.846718,2.279073,-0.297197,-1.807576,-3.324584,0.153814,0.353798,-1.261475,0.236084,0.176758,0.081213,0.001771,0.018378,0.999860,-0.016622,0.000769,0.001769,-0.021623,-0.725593,0.027456,-0.687236
61166,NaN,8.761547,0.086996,2.134212,2.546945,-0.399895,-1.170991,-3.967944,0.317701,0.445391,-1.259277,0.238037,0.174561,0.087646,0.001486,0.021177,0.999799,-0.019838,0.001588,0.002227,-0.034882,-0.722887,0.044009,-0.688681
61167,NaN,8.451490,-0.099503,1.345730,1.727484,-0.233069,-1.433605,-4.535820,0.407096,0.534078,-1.255371,0.242432,0.180664,0.084544,-0.000466,0.013300,0.999737,-0.022677,0.002035,0.002670,-0.049517,-0.720386,0.061474,-0.689066
61168,NaN,8.201598,-0.233069,0.513111,0.850627,-0.060327,-1.636128,-4.850406,0.481281,0.563841,-1.251221,0.244385,0.174561,0.082034,-0.001977,0.004985,0.999699,-0.024250,0.002406,0.002819,-0.065861,-0.716053,0.081716,-0.690111
61169,NaN,7.658903,-0.282364,-1.028062,-0.695554,0.294584,-2.116922,-4.892958,0.485305,0.577967,-1.249268,0.255127,0.188721,0.076572,-0.002856,-0.010397,0.999694,-0.024462,0.002426,0.002890,-0.081561,-0.712312,0.100482,-0.689829
61170,NaN,8.108573,-1.442165,-2.605424,-1.919045,1.835226,-1.592841,-4.125579,0.485697,0.547844,-1.243164,0.257080,0.184570,0.081063,-0.014736,-0.025949,0.999781,-0.020626,0.002428,0.002739,-0.095122,-0.707506,0.117918,-0.690277
61171,NaN,6.879852,-3.458424,-4.369525,-2.950552,4.393003,-2.714797,-3.115442,0.363649,0.418290,-1.243164,0.261475,0.194824,0.068793,-0.035117,-0.043276,0.999875,-0.015577,0.001818,0.002091,-0.104901,-0.704434,0.129962,-0.689839
61172,NaN,5.534547,-4.653724,-5.751720,-3.784777,6.077418,-3.972328,-1.709153,-0.189074,0.271956,-1.239014,0.261475,0.192627,0.055463,-0.046951,-0.057065,0.999962,-0.008546,-0.000945,0.001360,-0.109105,-0.703427,0.137340,-0.688784
61173,NaN,6.361111,-5.251199,-5.484883,-3.243759,6.517744,-3.095590,0.223307,-0.860534,0.090124,-1.233154,0.274170,0.200684,0.063870,-0.052422,-0.054633,0.999990,0.001117,-0.004303,0.000451,-0.107417,-0.706443,0.137356,-0.685954
61174,NaN,7.925654,-6.190122,-4.280960,-1.815850,6.827263,-1.473011,2.208079,-1.432252,0.047777,-1.231201,0.280518,0.208740,0.079578,-0.061409,-0.042920,0.999913,0.011040,-0.007161,0.000239,-0.095671,-0.712520,0.129531,-0.682924
61175,NaN,8.946041,-4.700846,-2.494946,-0.607693,4.715952,-0.552882,3.695080,-1.664706,-0.022339,-1.229492,0.293213,0.224854,0.089664,-0.046556,-0.025067,0.999795,0.018474,-0.008323,-0.000112,-0.081486,-0.719839,0.117605,-0.679236
61176,NaN,9.751441,-2.081319,-1.172559,-0.056500,1.687904,0.084009,4.907277,-1.702338,-0.088636,-1.218994,0.299316,0.222900,0.097603,-0.020574,-0.011402,0.999663,0.024534,-0.008511,-0.000443,-0.059001,-0.727665,0.099053,-0.676174
61177,NaN,10.057691,0.413707,0.884851,1.527155,-1.239539,0.098895,5.347954,-1.646449,-0.008528,-1.215576,0.324951,0.226562,0.100499,0.003880,0.009782,0.999609,0.026736,-0.008231,-0.000043,-0.038736,-0.734527,0.081391,-0.672566
61178,NaN,10.666234,1.867496,1.974000,2.632495,-2.869327,0.482164,5.269440,-1.396976,0.217471,-1.211670,0.331299,0.220215,0.106499,0.018249,0.020969,0.999628,0.026344,-0.006984,0.001087,-0.014426,-0.739853,0.062699,-0.669686
61179,NaN,9.683205,2.954411,2.904056,3.584643,-3.901881,-0.710692,4.665069,-1.043015,0.265919,-1.210205,0.352539,0.226074,0.096638,0.028977,0.030225,0.999713,0.023323,-0.005215,0.001329,0.004052,-0.743385,0.048121,-0.667118
61180,NaN,9.390657,2.273459,2.669247,3.574590,-3.108266,-0.978892,3.955713,-0.870091,0.334532,-1.199951,0.358887,0.211670,0.093750,0.022352,0.027545,0.999794,0.019777,-0.004350,0.001673,0.022258,-0.745612,0.035170,-0.665079
61181,NaN,9.489380,1.196947,2.457957,3.534970,-1.984879,-0.807923,3.168438,-0.675731,0.414383,-1.202637,0.373779,0.205322,0.094785,0.011771,0.025087,0.999867,0.015841,-0.003379,0.002072,0.035564,-0.747334,0.026100,-0.662983
61182,NaN,8.912576,0.302995,1.757666,2.823621,-1.043929,-1.236418,2.479589,-0.446179,0.486925,-1.194580,0.386475,0.205078,0.089079,0.003027,0.017813,0.999918,0.012398,-0.002231,0.002435,0.047567,-0.747694,0.019472,-0.662051
61183,NaN,8.570855,0.090536,1.275795,2.334278,-0.831313,-1.508751,1.913240,-0.325533,0.535933,-1.195068,0.403564,0.192383,0.085685,0.001012,0.012907,0.999949,0.009566,-0.001628,0.002680,0.056524,-0.748226,0.015065,-0.660860
61184,NaN,8.719442,0.087593,0.599219,1.690788,-0.924001,-1.287270,1.474622,-0.155660,0.533778,-1.193115,0.405518,0.190430,0.087187,0.001064,0.006067,0.999969,0.007373,-0.000778,0.002669,0.064371,-0.747630,0.012369,-0.660873
61185,NaN,8.685572,-0.263995,-0.062297,1.015859,-0.667570,-1.208333,1.145673,0.028839,0.558582,-1.185059,0.422607,0.187988,0.086863,-0.002394,-0.000650,0.999980,0.005728,0.000144,0.002793,0.070497,-0.747115,0.010681,-0.660859
61186,NaN,8.460745,-0.563484,-0.447088,0.562001,-0.442209,-1.351602,0.922266,0.124097,0.579155,-1.180908,0.422607,0.171631,0.084620,-0.005369,-0.004549,0.999985,0.004611,0.000620,0.002896,0.076108,-0.745699,0.010238,-0.661843
61187,NaN,8.524297,-0.794686,-0.500700,0.483997,-0.281797,-1.255123,0.835164,0.166980,0.588526,-1.183594,0.437500,0.171387,0.085262,-0.007675,-0.005111,0.999987,0.004176,0.000835,0.002943,0.081161,-0.744788,0.009733,-0.662276
61188,NaN,8.579740,-0.862634,-0.301703,0.648536,-0.264401,-1.212903,0.810229,0.221158,0.601091,-1.175293,0.441650,0.159180,0.085819,-0.008356,-0.003146,0.999987,0.004051,0.001106,0.003005,0.086316,-0.743075,0.009789,-0.663546
61189,NaN,8.443812,-0.682110,0.068035,0.994445,-0.437647,-1.411074,0.728253,0.279636,0.613907,-1.169189,0.452393,0.156982,0.084459,-0.006564,0.000538,0.999988,0.003641,0.001398,0.003070,0.091044,-0.741793,0.009775,-0.664348
61190,NaN,8.413658,-0.421612,0.337370,1.246456,-0.718360,-1.505388,0.613424,0.341215,0.625058,-1.173828,0.460938,0.144531,0.084155,-0.003963,0.003218,0.999989,0.003067,0.001706,0.003125,0.095431,-0.739742,0.010652,-0.666004
61191,NaN,8.215225,-0.061340,0.499676,1.399036,-1.077307,-1.773709,0.363645,0.390436,0.642315,-1.169922,0.473633,0.136230,0.082163,-0.000358,0.004836,0.999991,0.001818,0.001952,0.003212,0.098894,-0.738227,0.012004,-0.667156
61192,NaN,7.715242,0.174663,0.229019,1.062769,-1.327754,-2.281737,0.125017,0.442207,0.624854,-1.165771,0.475830,0.129883,0.077151,0.001986,0.002121,0.999992,0.000625,0.002211,0.003124,0.101255,-0.736042,0.014665,-0.669159
61193,NaN,7.505047,-0.256538,0.244278,0.979516,-0.920668,-2.420537,-0.108222,0.434953,0.598743,-1.170410,0.488525,0.131836,0.075063,-0.002339,0.002281,0.999993,-0.000541,0.002175,0.002994,0.102828,-0.734592,0.017452,-0.670445
61194,NaN,7.655370,-0.754695,0.351667,1.007030,-0.498165,-2.194590,-0.359231,0.401524,0.578721,-1.159912,0.492676,0.121582,0.076582,-0.007319,0.003376,0.999992,-0.001796,0.002008,0.002894,0.103064,-0.732775,0.021631,-0.672273
61195,NaN,7.845079,-1.241353,0.439631,1.041060,-0.092760,-1.926823,-0.546436,0.362576,0.551924,-1.162598,0.507568,0.129395,0.078492,-0.012185,0.004288,0.999991,-0.002732,0.001813,0.002760,0.102878,-0.731770,0.025678,-0.673253
61196,NaN,8.134576,-1.544374,0.516032,1.086101,0.107635,-1.588862,-0.609709,0.318011,0.529555,-1.151855,0.503174,0.123535,0.081394,-0.015213,0.005078,0.999991,-0.003049,0.001590,0.002648,0.102009,-0.730340,0.030467,-0.674736
61197,NaN,8.729267,-1.676908,0.640850,1.240139,0.092873,-0.987948,-0.631414,0.273288,0.502061,-1.152100,0.511719,0.123291,0.087343,-0.016530,0.006342,0.999991,-0.003157,0.001366,0.002510,0.101356,-0.729656,0.034570,-0.675377
61198,NaN,9.364645,-1.632188,0.522148,1.155729,-0.137058,-0.363955,-0.610418,0.265894,0.475275,-1.152344,0.513916,0.114990,0.093692,-0.016083,0.005146,0.999992,-0.003052,0.001329,0.002376,0.100338,-0.728378,0.039098,-0.676660
61199,NaN,9.520066,-1.767203,0.478473,1.101724,-0.087096,-0.181383,-0.546575,0.301803,0.429332,-1.152344,0.513916,0.123291,0.095245,-0.017455,0.004689,0.999993,-0.002733,0.001509,0.002147,0.099741,-0.727541,0.042663,-0.677433
61200,NaN,9.412179,-1.780184,0.345785,0.928424,-0.112169,-0.273137,-0.485126,0.315618,0.378751,-1.154541,0.520264,0.119141,0.094161,-0.017615,0.003352,0.999994,-0.002426,0.001578,0.001894,0.098847,-0.726028,0.046412,-0.678939
61201,NaN,9.353788,-1.570559,0.112845,0.685795,-0.359851,-0.358968,-0.411095,0.343549,0.315401,-1.157227,0.532959,0.118896,0.093564,-0.015556,0.001000,0.999995,-0.002055,0.001718,0.001577,0.098346,-0.724987,0.049123,-0.679933
61202,NaN,9.333327,-1.493157,-0.121388,0.415615,-0.483660,-0.381439,-0.361631,0.363200,0.306587,-1.148682,0.532959,0.114746,0.093354,-0.014791,-0.001357,0.999996,-0.001808,0.001816,0.001533,0.097649,-0.723263,0.052177,-0.681640
61203,NaN,9.113324,-1.344910,-0.264392,0.242443,-0.620568,-0.620986,-0.429639,0.336564,0.277798,-1.148926,0.537354,0.112549,0.091147,-0.013328,-0.002769,0.999995,-0.002148,0.001683,0.001389,0.096955,-0.722248,0.054810,-0.682608
61204,NaN,9.163953,-1.353637,-0.434828,0.038647,-0.659880,-0.562691,-0.485981,0.308328,0.248469,-1.148682,0.535156,0.116699,0.091649,-0.013433,-0.004457,0.999995,-0.002430,0.001542,0.001242,0.095617,-0.720798,0.058014,-0.684063
61205,NaN,9.205608,-1.696745,-0.359212,0.081296,-0.349748,-0.452013,-0.460211,0.283567,0.199436,-1.153076,0.537354,0.118652,0.092068,-0.016884,-0.003684,0.999996,-0.002301,0.001418,0.000997,0.094558,-0.719985,0.060443,-0.684855
61206,NaN,9.467358,-2.142885,-0.229530,0.177902,0.016811,-0.104776,-0.455719,0.235648,0.167480,-1.148926,0.539307,0.112549,0.094689,-0.021355,-0.002358,0.999996,-0.002279,0.001178,0.000837,0.093084,-0.718813,0.063167,-0.686041
61207,NaN,9.965350,-2.617699,-0.334944,0.068136,0.349998,0.490009,-0.381662,0.235006,0.162072,-1.153076,0.539307,0.110596,0.099671,-0.026103,-0.003417,0.999997,-0.001908,0.001175,0.000810,0.092195,-0.718130,0.065169,-0.686690
61208,NaN,9.813680,-2.815585,-0.377719,-0.015903,0.555854,0.388746,-0.250944,0.248347,0.179663,-1.146729,0.539307,0.108643,0.098157,-0.028072,-0.003864,0.999998,-0.001255,0.001242,0.000898,0.091574,-0.716838,0.067160,-0.687929
61209,NaN,9.509585,-2.463790,-0.375709,-0.035953,0.265699,0.014402,-0.228766,0.287724,0.127951,-1.146973,0.545654,0.108398,0.095106,-0.024581,-0.003866,0.999998,-0.001144,0.001439,0.000640,0.091098,-0.715907,0.068538,-0.688825
61210,NaN,9.258755,-2.384104,-0.571018,-0.268525,0.224712,-0.241275,-0.284275,0.228756,0.113020,-1.146973,0.545654,0.108398,0.092594,-0.023797,-0.005782,0.999998,-0.001421,0.001144,0.000565,0.090230,-0.714751,0.070316,-0.689961
61211,NaN,9.366541,-2.529836,-0.687714,-0.397088,0.330426,-0.099901,-0.281326,0.195179,0.091182,-1.153564,0.550049,0.110352,0.093670,-0.025265,-0.006933,0.999998,-0.001407,0.000976,0.000456,0.089471,-0.714169,0.071702,-0.690519
61212,NaN,9.510368,-2.669242,-0.634035,-0.362839,0.426968,0.069620,-0.209567,0.172506,0.073903,-1.164062,0.545898,0.102295,0.095108,-0.026664,-0.006394,0.999999,-0.001048,0.000863,0.000370,0.088829,-0.713224,0.072987,-0.691443
61213,NaN,9.544884,-2.609555,-0.625588,-0.362337,0.356373,0.089214,-0.150813,0.143014,0.045849,-1.149170,0.547852,0.108398,0.095450,-0.026078,-0.006304,0.999999,-0.000754,0.000715,0.000229,0.088398,-0.712777,0.073737,-0.691879
61214,NaN,9.760493,-2.570108,-0.515597,-0.264751,0.266488,0.286689,-0.031517,0.108024,0.024802,-1.153320,0.543701,0.100342,0.097605,-0.025690,-0.005205,1.000000,-0.000158,0.000540,0.000124,0.088316,-0.712032,0.074143,-0.692613
61215,NaN,9.866744,-2.507359,-0.410564,-0.166095,0.181316,0.372968,0.073111,0.095586,0.016079,-1.151367,0.550049,0.104248,0.098667,-0.025064,-0.004162,1.000000,0.000366,0.000478,0.000080,0.088597,-0.711661,0.073990,-0.692975
61216,NaN,9.877218,-2.493366,-0.332288,-0.108406,0.164142,0.377898,0.156467,0.080774,-0.010946,-1.155518,0.550049,0.095947,0.098769,-0.024936,-0.003382,1.000000,0.000782,0.000404,-0.000055,0.089112,-0.710971,0.073564,-0.693662
61217,NaN,9.896252,-2.493313,-0.358203,-0.146134,0.160658,0.396796,0.211318,0.073910,-0.036926,-1.155762,0.552246,0.100098,0.098957,-0.024948,-0.003645,0.999999,0.001057,0.000370,-0.000185,0.089709,-0.710632,0.072733,-0.694021
61218,NaN,9.960858,-2.587271,-0.278456,-0.089602,0.240916,0.479256,0.266475,0.082213,-0.053142,-1.153564,0.547852,0.092041,0.099601,-0.025895,-0.002860,0.999999,0.001332,0.000411,-0.000266,0.090496,-0.709928,0.071743,-0.694741
61219,NaN,9.962524,-2.582502,-0.262664,-0.089661,0.240889,0.479256,0.282127,0.092488,-0.057511,-1.153320,0.545898,0.098145,0.099617,-0.025850,-0.002709,0.999999,0.001411,0.000462,-0.000288,0.091266,-0.709497,0.070601,-0.695198
61220,NaN,9.812273,-2.544141,-0.318827,-0.175064,0.237693,0.324759,0.301223,0.129374,-0.045905,-1.153564,0.548096,0.085938,0.098115,-0.025459,-0.003290,0.999999,0.001506,0.000647,-0.000230,0.092211,-0.708631,0.069510,-0.696066
61221,NaN,9.531121,-2.448376,-0.438669,-0.319289,0.205977,0.030322,0.255077,0.165435,-0.021854,-1.159668,0.545898,0.089844,0.095305,-0.024488,-0.004497,0.999999,0.001275,0.000827,-0.000109,0.092982,-0.707942,0.068622,-0.696752
61222,NaN,9.208487,-2.247407,-0.506668,-0.415548,0.078465,-0.329813,0.204499,0.175988,-0.000005,-1.159668,0.543701,0.073730,0.092080,-0.022469,-0.005171,0.999999,0.001022,0.000880,-0.000000,0.093750,-0.706963,0.068029,-0.697701
61223,NaN,9.111629,-2.167836,-0.492009,-0.419530,0.021724,-0.443223,0.165818,0.164890,0.007914,-1.157715,0.552246,0.079590,0.091113,-0.021671,-0.005013,0.999999,0.000829,0.000824,0.000040,0.094308,-0.706305,0.067557,-0.698338
61224,NaN,9.074954,-2.102731,-0.449252,-0.398940,-0.036545,-0.495092,0.097278,0.163590,0.031755,-1.155518,0.545898,0.077637,0.090749,-0.021011,-0.004577,1.000000,0.000486,0.000818,0.000159,0.094820,-0.705433,0.067429,-0.699161
61225,NaN,9.093891,-2.011187,-0.350585,-0.313188,-0.129938,-0.498631,0.046764,0.168918,0.034652,-1.157715,0.552246,0.073486,0.090939,-0.020095,-0.003587,1.000000,0.000234,0.000845,0.000173,0.095051,-0.704806,0.067468,-0.699758
61226,NaN,9.361653,-1.956416,-0.332978,-0.311401,-0.249060,-0.251309,-0.044140,0.161918,0.032179,-1.157715,0.548096,0.069580,0.093617,-0.019550,-0.003401,1.000000,-0.000221,0.000810,0.000161,0.095066,-0.704030,0.067824,-0.700503
61227,NaN,9.615489,-1.939005,-0.304024,-0.294451,-0.325545,-0.008754,-0.094244,0.183382,0.016586,-1.155762,0.552246,0.067383,0.096154,-0.019384,-0.003119,0.999999,-0.000471,0.000917,0.000083,0.094731,-0.703424,0.068300,-0.701111
61228,NaN,9.612919,-2.142159,-0.292958,-0.312275,-0.129444,0.034575,-0.139541,0.198801,-0.000230,-1.157715,0.545898,0.067383,0.096126,-0.021424,-0.003010,0.999999,-0.000698,0.000994,-0.000001,0.094276,-0.702593,0.068883,-0.701948
61229,NaN,9.589521,-2.320987,-0.231258,-0.272895,0.052980,0.052508,-0.201136,0.207938,-0.018969,-1.164307,0.554443,0.071289,0.095891,-0.023221,-0.002389,0.999999,-0.001006,0.001040,-0.000095,0.093432,-0.701961,0.069621,-0.702619
61230,NaN,9.481108,-2.406981,-0.234543,-0.299356,0.162655,-0.033940,-0.247477,0.216330,-0.034755,-1.166260,0.548096,0.065430,0.094804,-0.024089,-0.002418,0.999999,-0.001237,0.001082,-0.000174,0.092470,-0.701147,0.070462,-0.703475
61231,NaN,9.363491,-2.471208,-0.403548,-0.484290,0.251782,-0.135563,-0.296098,0.216400,-0.053761,-1.159668,0.545898,0.071533,0.093624,-0.024743,-0.004100,0.999998,-0.001480,0.001082,-0.000269,0.091168,-0.700538,0.071416,-0.704155
61232,NaN,9.381462,-2.621318,-0.376268,-0.477156,0.399518,-0.084511,-0.305755,0.186526,-0.060049,-1.161621,0.541748,0.065430,0.093803,-0.026247,-0.003810,0.999998,-0.001529,0.000933,-0.000300,0.089928,-0.699878,0.072360,-0.704874
61233,NaN,9.459727,-2.672925,-0.310884,-0.421766,0.440901,0.003388,-0.305746,0.157178,-0.073019,-1.161865,0.548096,0.069336,0.094585,-0.026769,-0.003142,0.999998,-0.001529,0.000786,-0.000365,0.088545,-0.699485,0.073253,-0.705347
61234,NaN,9.433504,-2.730982,-0.126875,-0.248645,0.513150,-0.007576,-0.270198,0.124588,-0.070962,-1.157471,0.543701,0.063477,0.094325,-0.027345,-0.001291,0.999999,-0.001351,0.000623,-0.000355,0.087418,-0.699045,0.074014,-0.705844
61235,NaN,9.573143,-2.695506,0.120087,-0.005487,0.457526,0.122899,-0.241601,0.090140,-0.056408,-1.159668,0.541748,0.077637,0.095724,-0.026981,0.001190,0.999999,-0.001208,0.000451,-0.000282,0.086343,-0.698850,0.074710,-0.706096
61236,NaN,9.727196,-2.671108,0.294525,0.162576,0.404085,0.269484,-0.227315,0.074127,-0.042248,-1.159424,0.539551,0.067627,0.097267,-0.026728,0.002940,0.999999,-0.001137,0.000371,-0.000211,0.085489,-0.698566,0.075409,-0.706406
61237,NaN,9.796818,-2.603664,0.344272,0.211755,0.326093,0.322600,-0.198244,0.058148,-0.028027,-1.157715,0.545898,0.071533,0.097966,-0.026047,0.003440,0.999999,-0.000991,0.000291,-0.000140,0.084676,-0.698453,0.076037,-0.706549
61238,NaN,9.614637,-2.541085,0.264181,0.130566,0.304469,0.130069,-0.205143,0.051105,-0.004282,-1.155518,0.543701,0.067627,0.096147,-0.025410,0.002643,0.999999,-0.001026,0.000256,-0.000021,0.084043,-0.698228,0.076788,-0.706766
61239,NaN,9.425068,-2.243803,0.187613,0.060278,0.057278,-0.122752,-0.224009,0.038385,-0.010635,-1.159668,0.545898,0.077637,0.094250,-0.022441,0.001883,0.999999,-0.001120,0.000192,-0.000053,0.083210,-0.698187,0.077559,-0.706820
61240,NaN,9.319360,-2.277112,0.259165,0.130971,0.114205,-0.217236,-0.177438,0.023174,-0.040022,-1.157471,0.541748,0.069580,0.093189,-0.022787,0.002601,1.000000,-0.000887,0.000116,-0.000200,0.082553,-0.698067,0.078080,-0.706959
61241,NaN,9.418042,-2.567554,0.394272,0.265544,0.379214,-0.053948,-0.169190,0.003047,-0.048003,-1.157715,0.545898,0.073486,0.094174,-0.025695,0.003963,1.000000,-0.000846,0.000015,-0.000240,0.081793,-0.698141,0.078513,-0.706926
61242,NaN,9.480059,-2.726890,0.505206,0.375446,0.522819,0.043700,-0.173373,0.006514,-0.047114,-1.155273,0.541748,0.071533,0.094794,-0.027287,0.005073,1.000000,-0.000867,0.000033,-0.000236,0.081129,-0.698082,0.078994,-0.707008
61243,NaN,9.462199,-2.760755,0.636174,0.509348,0.563400,0.035299,-0.160745,0.027928,-0.040918,-1.163818,0.539551,0.075684,0.094617,-0.027622,0.006371,1.000000,-0.000804,0.000140,-0.000205,0.080413,-0.698061,0.079432,-0.707061
61244,NaN,9.384976,-2.716431,0.689715,0.560959,0.538342,-0.049082,-0.137261,0.050216,-0.038843,-1.161377,0.535400,0.075928,0.093846,-0.027178,0.006892,1.000000,-0.000686,0.000251,-0.000194,0.079887,-0.697825,0.079845,-0.707307
61245,NaN,9.310631,-2.515675,0.695371,0.566784,0.362641,-0.166586,-0.173425,0.059231,-0.052350,-1.161621,0.539551,0.077881,0.093102,-0.025175,0.006948,1.000000,-0.000867,0.000296,-0.000262,0.079075,-0.697702,0.080300,-0.707468
61246,NaN,9.298641,-2.309169,0.623018,0.489400,0.166670,-0.225308,-0.209848,0.077120,-0.069994,-1.159424,0.537354,0.071777,0.092981,-0.023118,0.006219,0.999999,-0.001049,0.000386,-0.000350,0.078175,-0.697406,0.080881,-0.707794
61247,NaN,9.416985,-2.346309,0.496255,0.358599,0.182470,-0.103457,-0.239127,0.083917,-0.068775,-1.161865,0.543701,0.075684,0.094164,-0.023490,0.004951,0.999999,-0.001196,0.000420,-0.000344,0.077065,-0.697227,0.081521,-0.708019
61248,NaN,9.508508,-2.434695,0.436195,0.291106,0.251709,0.004727,-0.272055,0.105820,-0.063352,-1.161377,0.531006,0.073730,0.095080,-0.024371,0.004345,0.999999,-0.001360,0.000529,-0.000317,0.075958,-0.696847,0.082356,-0.708416
61249,NaN,9.464869,-2.526892,0.480186,0.333783,0.355726,-0.016690,-0.272189,0.093313,-0.063701,-1.161621,0.537354,0.081787,0.094643,-0.025293,0.004792,0.999999,-0.001361,0.000467,-0.000319,0.074747,-0.696642,0.083134,-0.708655
61250,NaN,9.628595,-2.545044,0.503701,0.348978,0.339351,0.147427,-0.250020,0.087107,-0.061510,-1.161377,0.533203,0.075928,0.096280,-0.025474,0.005027,0.999999,-0.001250,0.000436,-0.000308,0.073727,-0.696317,0.083899,-0.708991
61251,NaN,9.671532,-2.463376,0.575988,0.416434,0.253672,0.172339,-0.214289,0.095015,-0.057810,-1.159424,0.537354,0.071777,0.096711,-0.024656,0.005740,0.999999,-0.001071,0.000475,-0.000289,0.072737,-0.696079,0.084493,-0.709256
61252,NaN,9.749567,-2.429012,0.637130,0.467251,0.203151,0.242186,-0.200996,0.105469,-0.041864,-1.159180,0.533203,0.075928,0.097494,-0.024304,0.006344,0.999999,-0.001005,0.000527,-0.000209,0.071946,-0.695660,0.085165,-0.709668
61253,NaN,9.757706,-2.349512,0.663702,0.485923,0.124851,0.233297,-0.210083,0.125457,-0.016745,-1.161621,0.539551,0.077881,0.097579,-0.023496,0.006600,0.999999,-0.001050,0.000627,-0.000084,0.071104,-0.695294,0.085898,-0.710023
61254,NaN,9.752532,-2.204639,0.557957,0.365990,-0.015161,0.194782,-0.220700,0.139057,-0.008283,-1.161377,0.533203,0.073730,0.097528,-0.022044,0.005536,0.999999,-0.001104,0.000695,-0.000041,0.070349,-0.694744,0.086765,-0.710531
61255,NaN,9.731325,-2.231384,0.555913,0.356012,0.014544,0.180302,-0.207212,0.140808,0.007494,-1.159668,0.541748,0.073730,0.097318,-0.022304,0.005514,0.999999,-0.001036,0.000704,0.000037,0.069596,-0.694310,0.087578,-0.710929
61256,NaN,9.678943,-2.318062,0.584777,0.375703,0.105259,0.149495,-0.206287,0.136701,0.018340,-1.161377,0.535400,0.069580,0.096796,-0.023166,0.005806,0.999999,-0.001031,0.000684,0.000092,0.068989,-0.693750,0.088477,-0.711423
61257,NaN,9.762929,-2.375038,0.558135,0.339790,0.139207,0.243766,-0.197227,0.128026,0.036801,-1.163818,0.539551,0.081787,0.097637,-0.023727,0.005542,0.999999,-0.000986,0.000640,0.000184,0.068381,-0.693343,0.089352,-0.711769
61258,NaN,9.817256,-2.401169,0.563434,0.332838,0.144752,0.303134,-0.172752,0.114681,0.055532,-1.157227,0.537354,0.069580,0.098182,-0.023980,0.005599,0.999999,-0.000864,0.000573,0.000278,0.068032,-0.692833,0.090250,-0.712186
61259,NaN,9.774943,-2.256866,0.566369,0.325829,0.006676,0.230096,-0.142086,0.100136,0.062703,-1.159668,0.541748,0.075684,0.097759,-0.022534,0.005631,1.000000,-0.000710,0.000501,0.000314,0.067719,-0.692493,0.091008,-0.712450
61260,NaN,9.769613,-2.269400,0.539181,0.288600,0.012100,0.227372,-0.085274,0.089638,0.064597,-1.155273,0.537354,0.071777,0.097706,-0.022660,0.005358,1.000000,-0.000426,0.000448,0.000323,0.067718,-0.692039,0.091612,-0.712814
61261,NaN,9.714964,-2.249561,0.582171,0.325390,-0.003116,0.171003,-0.027557,0.080640,0.061974,-1.159668,0.541748,0.073730,0.097159,-0.022465,0.005786,1.000000,-0.000138,0.000403,0.000310,0.067808,-0.691729,0.091953,-0.713063
61262,NaN,9.680373,-2.229175,0.588157,0.320828,-0.023829,0.133230,0.011684,0.072682,0.069827,-1.155029,0.533203,0.071777,0.096814,-0.022258,0.005845,1.000000,0.000058,0.000363,0.000349,0.068171,-0.691301,0.092215,-0.713409
61263,NaN,9.634570,-2.267195,0.587375,0.315147,0.016969,0.097434,0.053576,0.063185,0.069002,-1.151123,0.543701,0.073730,0.096355,-0.022640,0.005837,1.000000,0.000268,0.000316,0.000345,0.068575,-0.691022,0.092285,-0.713631
61264,NaN,9.556703,-2.126067,0.506941,0.222505,-0.107965,-0.012353,0.056499,0.060371,0.067337,-1.153076,0.539551,0.067627,0.095576,-0.021230,0.005035,1.000000,0.000282,0.000302,0.000337,0.069094,-0.690625,0.092363,-0.713955
61265,NaN,9.500004,-1.933877,0.486469,0.190942,-0.287000,-0.111771,0.070154,0.066532,0.055852,-1.155518,0.548096,0.067383,0.095007,-0.019314,0.004826,1.000000,0.000351,0.000333,0.000279,0.069506,-0.690334,0.092330,-0.714201
61266,NaN,9.462628,-1.942093,0.410472,0.105301,-0.273735,-0.148552,0.069580,0.069997,0.043593,-1.151123,0.543701,0.061279,0.094632,-0.019402,0.004065,1.000000,0.000348,0.000350,0.000218,0.069989,-0.689914,0.092263,-0.714568
61267,NaN,9.429038,-1.918530,0.416416,0.104274,-0.292510,-0.186448,0.055117,0.061010,0.032881,-1.146973,0.545898,0.069580,0.094295,-0.019171,0.004130,1.000000,0.000276,0.000305,0.000164,0.070269,-0.689658,0.092202,-0.714796
61268,NaN,9.420122,-1.973416,0.450515,0.129980,-0.241855,-0.181455,0.047419,0.063112,0.020202,-1.149170,0.543701,0.059326,0.094205,-0.019726,0.004471,1.000000,0.000237,0.000316,0.000101,0.070603,-0.689287,0.092110,-0.715133
61269,NaN,9.375627,-2.006077,0.449215,0.124320,-0.201041,-0.217238,0.044999,0.062859,0.010851,-1.153564,0.548096,0.063232,0.093759,-0.020057,0.004458,1.000000,0.000225,0.000314,0.000054,0.070770,-0.689038,0.092010,-0.715369
61270,NaN,9.320293,-2.046014,0.538040,0.206493,-0.154146,-0.258781,0.035329,0.062094,0.002774,-1.151367,0.548096,0.061279,0.093205,-0.020460,0.005348,1.000000,0.000177,0.000310,0.000014,0.071008,-0.688688,0.091881,-0.715699
61271,NaN,9.307950,-1.993081,0.554112,0.215370,-0.202665,-0.282216,0.027187,0.059292,-0.012181,-1.151367,0.545898,0.067383,0.093080,-0.019937,0.005511,1.000000,0.000136,0.000296,-0.000061,0.071033,-0.688468,0.091764,-0.715923
61272,NaN,9.419909,-2.033395,0.557276,0.205453,-0.188532,-0.163740,0.026409,0.064171,-0.016766,-1.153320,0.545898,0.061279,0.094199,-0.020343,0.005540,1.000000,0.000132,0.000321,-0.000084,0.071180,-0.688127,0.091581,-0.716260
61273,NaN,9.552377,-2.047914,0.572121,0.208369,-0.203087,-0.030842,0.022900,0.063203,-0.019966,-1.149170,0.545898,0.061279,0.095524,-0.020489,0.005689,1.000000,0.000114,0.000316,-0.000100,0.071160,-0.687897,0.091454,-0.716498
61274,NaN,9.571993,-1.959770,0.509446,0.133312,-0.289670,-0.034058,0.006383,0.067034,-0.028875,-1.153320,0.543701,0.059326,0.095719,-0.019612,0.005062,1.000000,0.000032,0.000335,-0.000144,0.071205,-0.687563,0.091282,-0.716837
61275,NaN,9.471594,-1.906588,0.428556,0.049245,-0.312297,-0.146775,-0.001159,0.068281,-0.043261,-1.153320,0.543701,0.061279,0.094713,-0.019086,0.004253,1.000000,-0.000006,0.000341,-0.000216,0.071016,-0.687334,0.091163,-0.717090
61276,NaN,9.446711,-1.999311,0.436237,0.051120,-0.212643,-0.149351,-0.005754,0.066455,-0.054998,-1.157471,0.541748,0.057373,0.094463,-0.020019,0.004332,1.000000,-0.000029,0.000332,-0.000275,0.070939,-0.687024,0.090920,-0.717426
61277,NaN,9.513876,-2.132586,0.477700,0.086755,-0.093298,-0.051862,-0.007173,0.060111,-0.071788,-1.155518,0.545898,0.053223,0.095133,-0.021360,0.004749,1.000000,-0.000036,0.000301,-0.000359,0.070631,-0.686839,0.090722,-0.717658
61278,NaN,9.584416,-2.258858,0.552587,0.153096,0.017895,0.048604,-0.007630,0.055466,-0.078352,-1.153076,0.537354,0.053223,0.095837,-0.022626,0.005500,1.000000,-0.000038,0.000277,-0.000392,0.070475,-0.686584,0.090389,-0.717959
61279,NaN,9.585713,-2.226047,0.606171,0.200796,-0.008218,0.044707,-0.006326,0.055132,-0.081815,-1.148926,0.539551,0.053223,0.095850,-0.022299,0.006036,1.000000,-0.000032,0.000276,-0.000409,0.070136,-0.686421,0.090152,-0.718178
61280,NaN,9.536136,-2.125358,0.599528,0.186795,-0.087271,-0.026373,-0.015347,0.050550,-0.087960,-1.151123,0.541748,0.055176,0.095354,-0.021295,0.005973,1.000000,-0.000077,0.000253,-0.000440,0.069924,-0.686193,0.089808,-0.718460
61281,NaN,9.505320,-2.115385,0.553746,0.138064,-0.079968,-0.060399,-0.006308,0.047778,-0.089048,-1.153076,0.539551,0.059326,0.095045,-0.021196,0.005515,1.000000,-0.000032,0.000239,-0.000445,0.069562,-0.686060,0.089543,-0.718655
61282,NaN,9.505264,-2.198470,0.556135,0.135598,0.008799,-0.041601,-0.010608,0.044192,-0.085124,-1.151123,0.539551,0.053223,0.095045,-0.022025,0.005542,1.000000,-0.000053,0.000221,-0.000426,0.069386,-0.685854,0.089178,-0.718914
61283,NaN,9.530277,-2.184460,0.556788,0.131162,-0.002363,-0.020301,-0.007041,0.037327,-0.080519,-1.153076,0.539551,0.055420,0.095295,-0.021883,0.005551,1.000000,-0.000035,0.000187,-0.000403,0.069057,-0.685754,0.088942,-0.719070
61284,NaN,9.557671,-2.139648,0.639410,0.205486,-0.047510,0.000137,-0.001481,0.033338,-0.080507,-1.146729,0.533203,0.055420,0.095569,-0.021435,0.006378,1.000000,-0.000007,0.000167,-0.000403,0.068935,-0.685584,0.088553,-0.719292
61285,NaN,9.554909,-2.229189,0.607009,0.172073,0.049247,0.015944,0.010611,0.034302,-0.077663,-1.155273,0.537354,0.055420,0.095541,-0.022329,0.006053,1.000000,0.000053,0.000172,-0.000388,0.068678,-0.685488,0.088262,-0.719444
61286,NaN,9.533074,-2.227550,0.614103,0.173635,0.059812,-0.005299,0.008630,0.046823,-0.086074,-1.157227,0.531006,0.047363,0.095323,-0.022317,0.006118,1.000000,0.000043,0.000234,-0.000430,0.068568,-0.685270,0.087818,-0.719716
61287,NaN,9.534107,-2.194321,0.667336,0.221376,0.033777,-0.009146,0.001808,0.051190,-0.082538,-1.152832,0.531006,0.051270,0.095334,-0.021983,0.006649,1.000000,0.000009,0.000256,-0.000413,0.068256,-0.685117,0.087547,-0.719924
61288,NaN,9.562930,-2.224512,0.606362,0.152194,0.066690,0.022868,-0.003432,0.053543,-0.085847,-1.156982,0.526855,0.055420,0.095621,-0.022286,0.006038,1.000000,-0.000017,0.000268,-0.000429,0.068103,-0.684881,0.087148,-0.720212
61289,NaN,9.574600,-2.274298,0.568062,0.109284,0.122451,0.043334,-0.000383,0.057537,-0.086194,-1.155029,0.531006,0.049316,0.095738,-0.022784,0.005653,1.000000,-0.000002,0.000288,-0.000431,0.067768,-0.684707,0.086875,-0.720442
61290,NaN,9.559516,-2.311373,0.547764,0.082356,0.170185,0.035718,0.002389,0.062959,-0.078863,-1.152832,0.531006,0.045166,0.095588,-0.023151,0.005447,1.000000,0.000012,0.000315,-0.000394,0.067652,-0.684432,0.086486,-0.720760
61291,NaN,9.594733,-2.239452,0.557687,0.082799,0.099444,0.054851,-0.001801,0.065911,-0.069345,-1.148682,0.529053,0.041260,0.095941,-0.022428,0.005545,1.000000,-0.000009,0.000330,-0.000347,0.067370,-0.684221,0.086279,-0.721012
61292,NaN,9.504036,-2.076046,0.579295,0.097280,-0.035419,-0.067866,-0.015888,0.069455,-0.060280,-1.152588,0.524658,0.043213,0.095036,-0.020789,0.005762,1.000000,-0.000079,0.000347,-0.000301,0.067247,-0.683922,0.086031,-0.721337
61293,NaN,9.472737,-2.069281,0.535198,0.048580,-0.028227,-0.101974,-0.019951,0.071809,-0.056763,-1.150635,0.526855,0.053467,0.094723,-0.020719,0.005320,1.000000,-0.000100,0.000359,-0.000284,0.066945,-0.683690,0.085934,-0.721597
61294,NaN,9.505568,-2.182292,0.541599,0.046870,0.079267,-0.045238,-0.034749,0.072109,-0.046623,-1.148438,0.526855,0.047363,0.095053,-0.021844,0.005386,1.000000,-0.000174,0.000361,-0.000233,0.066807,-0.683385,0.085799,-0.721915
61295,NaN,9.551273,-2.231612,0.588270,0.086054,0.120423,0.012335,-0.042695,0.068321,-0.044291,-1.152832,0.529053,0.049316,0.095510,-0.022336,0.005855,1.000000,-0.000213,0.000342,-0.000221,0.066474,-0.683167,0.085826,-0.722148
61296,NaN,9.541568,-2.286098,0.587209,0.078609,0.179382,0.014531,-0.033094,0.069658,-0.044764,-1.148438,0.522705,0.041260,0.095413,-0.022881,0.005843,1.000000,-0.000165,0.000348,-0.000224,0.066342,-0.682870,0.085698,-0.722456
61297,NaN,9.608078,-2.335106,0.596876,0.079814,0.216720,0.090383,-0.021818,0.060368,-0.037814,-1.150635,0.526855,0.047363,0.096078,-0.023369,0.005942,1.000000,-0.000109,0.000302,-0.000189,0.066107,-0.682671,0.085669,-0.722669
61298,NaN,9.606080,-2.337421,0.568369,0.043742,0.223373,0.087390,-0.004506,0.059288,-0.035912,-1.146240,0.520508,0.039307,0.096058,-0.023391,0.005656,1.000000,-0.000023,0.000296,-0.000180,0.066097,-0.682399,0.085480,-0.722949
61299,NaN,9.607093,-2.243078,0.575841,0.043621,0.133938,0.068577,-0.001723,0.056806,-0.027278,-1.148193,0.520508,0.045410,0.096070,-0.022444,0.005731,1.000000,-0.000009,0.000284,-0.000136,0.065970,-0.682202,0.085413,-0.723155
61300,NaN,9.579583,-2.167461,0.518130,-0.021576,0.069588,0.022426,-0.000560,0.056815,-0.020440,-1.152832,0.526855,0.041260,0.095795,-0.021684,0.005154,1.000000,-0.000003,0.000284,-0.000102,0.066018,-0.681931,0.085276,-0.723422
61301,NaN,9.527474,-2.073736,0.511374,-0.032275,-0.008816,-0.048798,-0.010992,0.053087,-0.017186,-1.148438,0.524658,0.045410,0.095274,-0.020745,0.005090,1.000000,-0.000055,0.000265,-0.000086,0.065897,-0.681746,0.085276,-0.723608
61302,NaN,9.504172,-2.078682,0.518649,-0.030120,0.001637,-0.070085,-0.026365,0.049775,-0.016326,-1.154541,0.516357,0.039307,0.095041,-0.020794,0.005166,1.000000,-0.000132,0.000249,-0.000082,0.065868,-0.681510,0.085250,-0.723835
61303,NaN,9.506203,-2.162531,0.554533,0.003306,0.083695,-0.048215,-0.039404,0.047711,-0.023370,-1.152588,0.520508,0.043457,0.095061,-0.021635,0.005527,1.000000,-0.000197,0.000239,-0.000117,0.065631,-0.681356,0.085330,-0.723993
61304,NaN,9.528228,-2.219803,0.601730,0.044682,0.135412,-0.011851,-0.046173,0.045154,-0.035804,-1.145996,0.518311,0.039307,0.095280,-0.022214,0.006001,1.000000,-0.000231,0.000226,-0.000179,0.065458,-0.681154,0.085313,-0.724200
61305,NaN,9.527746,-2.247062,0.522249,-0.037003,0.168475,-0.011146,-0.039985,0.037857,-0.042508,-1.156738,0.520508,0.043457,0.095274,-0.022490,0.005209,1.000000,-0.000200,0.000189,-0.000213,0.065154,-0.681043,0.085327,-0.724330
61306,NaN,9.496202,-2.277102,0.603154,0.041772,0.205375,-0.030922,-0.024519,0.033804,-0.050648,-1.150391,0.516357,0.039307,0.094957,-0.022794,0.006018,1.000000,-0.000123,0.000169,-0.000253,0.064993,-0.680883,0.085191,-0.724512
61307,NaN,9.451790,-2.310140,0.562545,0.002386,0.253467,-0.069726,0.000271,0.024847,-0.054616,-1.150635,0.524658,0.039307,0.094512,-0.023127,0.005614,1.000000,0.000001,0.000124,-0.000273,0.064788,-0.680811,0.085014,-0.724618
61308,NaN,9.468965,-2.259864,0.591108,0.024711,0.204454,-0.062032,0.026517,0.014230,-0.055118,-1.144043,0.520508,0.037354,0.094684,-0.022626,0.005901,1.000000,0.000133,0.000071,-0.000276,0.064776,-0.680707,0.084692,-0.724755
61309,NaN,9.396920,-2.071957,0.619644,0.052254,0.040577,-0.170349,0.035176,0.006604,-0.058473,-1.145996,0.518311,0.039307,0.093963,-0.020748,0.006190,1.000000,0.000176,0.000033,-0.000292,0.064683,-0.680691,0.084369,-0.724816
61310,NaN,9.308614,-2.019967,0.619261,0.053576,0.013646,-0.267480,0.058369,0.000170,-0.064207,-1.143799,0.514160,0.039551,0.093080,-0.020231,0.006187,1.000000,0.000292,0.000001,-0.000321,0.064743,-0.680632,0.083905,-0.724920
61311,NaN,9.363385,-2.165571,0.712272,0.145276,0.148266,-0.178015,0.059556,-0.013767,-0.070307,-1.148193,0.518311,0.041504,0.093626,-0.021691,0.007123,1.000000,0.000298,-0.000069,-0.000352,0.064699,-0.680687,0.083447,-0.724925
61312,NaN,9.470348,-2.250915,0.738492,0.164335,0.214830,-0.054290,0.058933,-0.010433,-0.063578,-1.148193,0.514160,0.037354,0.094696,-0.022541,0.007383,1.000000,0.000295,-0.000052,-0.000318,0.064764,-0.680666,0.082984,-0.724992
61313,NaN,9.502845,-2.184605,0.708856,0.131320,0.151323,-0.038288,0.064705,-0.014711,-0.073828,-1.145996,0.514160,0.037354,0.095020,-0.021883,0.007088,1.000000,0.000324,-0.000074,-0.000369,0.064724,-0.680724,0.082495,-0.724997
61314,NaN,9.445657,-2.163766,0.675280,0.099639,0.150294,-0.100540,0.063851,-0.017358,-0.066749,-1.148193,0.516357,0.031250,0.094449,-0.021671,0.006754,1.000000,0.000319,-0.000087,-0.000334,0.064788,-0.680727,0.082011,-0.725043
61315,NaN,9.456998,-2.190031,0.679891,0.104411,0.180080,-0.083866,0.065472,-0.020080,-0.060627,-1.154541,0.516357,0.039307,0.094563,-0.021931,0.006801,1.000000,0.000327,-0.000100,-0.000303,0.064802,-0.680799,0.081562,-0.725025
61316,NaN,9.416702,-2.150946,0.623468,0.049168,0.156563,-0.134742,0.056164,-0.024097,-0.046281,-1.145752,0.509766,0.039551,0.094161,-0.021533,0.006240,1.000000,0.000281,-0.000120,-0.000231,0.064907,-0.680820,0.081184,-0.725038
61317,NaN,9.319451,-2.002005,0.568851,-0.000348,0.036934,-0.263739,0.056322,-0.025165,-0.043633,-1.147949,0.511963,0.033203,0.093189,-0.020042,0.005695,1.000000,0.000282,-0.000126,-0.000218,0.064953,-0.680906,0.080825,-0.724994
61318,NaN,9.246864,-2.089864,0.588361,0.025160,0.140488,-0.315434,0.059030,-0.034447,-0.036323,-1.152100,0.507812,0.037354,0.092464,-0.020917,0.005893,1.000000,0.000295,-0.000172,-0.000182,0.065100,-0.680961,0.080474,-0.724968
61319,NaN,9.158407,-2.131610,0.582653,0.028123,0.203670,-0.393697,0.062112,-0.044638,-0.045240,-1.147949,0.511963,0.041504,0.091578,-0.021339,0.005840,1.000000,0.000311,-0.000223,-0.000226,0.065167,-0.681115,0.080082,-0.724860
61320,NaN,9.193125,-2.278758,0.709620,0.156115,0.341461,-0.322225,0.098690,-0.057045,-0.052779,-1.149902,0.503418,0.039551,0.091923,-0.022815,0.007111,1.000000,0.000493,-0.000285,-0.000264,0.065386,-0.681246,0.079538,-0.724778
61321,NaN,9.315584,-2.384514,0.805584,0.248915,0.424020,-0.175612,0.114196,-0.067555,-0.066395,-1.147949,0.507812,0.037598,0.093145,-0.023881,0.008074,1.000000,0.000571,-0.000338,-0.000332,0.065563,-0.681474,0.078878,-0.724619
61322,NaN,9.392568,-2.344851,0.861159,0.301350,0.375081,-0.105538,0.136658,-0.075998,-0.073528,-1.145752,0.509766,0.035400,0.093914,-0.023489,0.008631,1.000000,0.000683,-0.000380,-0.000368,0.065824,-0.681666,0.078143,-0.724494
61323,NaN,9.415419,-2.244506,0.821696,0.263447,0.281723,-0.106281,0.149287,-0.077092,-0.079832,-1.149902,0.507812,0.043701,0.094142,-0.022489,0.008236,1.000000,0.000746,-0.000385,-0.000399,0.066076,-0.681922,0.077307,-0.724321
61324,NaN,9.495914,-2.131159,0.863488,0.301700,0.161861,-0.048334,0.155966,-0.079376,-0.084095,-1.143555,0.505615,0.039551,0.094947,-0.021358,0.008656,1.000000,0.000780,-0.000397,-0.000420,0.066353,-0.682120,0.076481,-0.724196
61325,NaN,9.668963,-2.113588,0.810807,0.242192,0.120624,0.114059,0.138306,-0.061776,-0.086967,-1.147949,0.507812,0.041504,0.096678,-0.021184,0.008123,1.000000,0.000692,-0.000309,-0.000435,0.066536,-0.682325,0.075664,-0.724072
