// Start Time: Unknown
// Update Rate: 100.0Hz
// Filter Profile: human (46.1)
// Firmware Version: 4.4.0
PacketCounter,SampleTimeFine,Acc_X,Acc_Y,Acc_Z,FreeAcc_X,FreeAcc_Y,FreeAcc_Z,Gyr_X,Gyr_Y,Gyr_Z,Mag_X,Mag_Y,Mag_Z,VelInc_X,VelInc_Y,VelInc_Z,OriInc_q0,OriInc_q1,OriInc_q2,OriInc_q3,Quat_q0,Quat_q1,Quat_q2,Quat_q3
46130,NaN,9.492395,12.653644,-3.756705,0.000000,0.000000,6.445502,-0.225849,-1.210639,1.601110,0.399902,0.817871,-0.108398,0.094133,0.127250,-0.037139,0.999949,-0.001129,-0.006053,0.008005,0.023763,-0.441640,-0.647434,-0.620660
46131,NaN,9.043479,13.319988,-3.485489,0.000000,0.000000,6.660130,-0.512653,-1.223254,1.067253,0.410400,0.817871,-0.108398,0.089935,0.133592,-0.034646,0.999964,-0.002563,-0.006116,0.005336,-0.018193,-0.452932,-0.632466,-0.628099
46132,NaN,9.465265,13.876111,-2.893427,0.620802,0.567058,7.210900,-0.798232,-1.208509,0.501040,0.408203,0.819824,-0.095947,0.094480,0.138883,-0.028917,0.999971,-0.003991,-0.006042,0.002505,-0.009156,-0.455902,-0.633131,-0.625472
46133,NaN,9.920653,14.533488,-2.064226,1.205729,1.346977,7.812135,-0.914241,-1.130556,-0.049117,0.403809,0.824219,-0.098145,0.099359,0.145216,-0.020745,0.999974,-0.004571,-0.005653,-0.000246,-0.014973,-0.459228,-0.630315,-0.625770
46134,NaN,9.706135,14.420692,-1.204568,1.649405,1.911382,7.428003,-0.894184,-1.032901,-0.535326,0.397461,0.826416,-0.092041,0.097509,0.143892,-0.012187,0.999973,-0.004471,-0.005164,-0.002677,-0.022665,-0.459750,-0.628192,-0.627289
46135,NaN,9.206556,13.834760,-0.756861,1.754503,2.143301,6.590338,-0.823994,-0.926450,-1.041912,0.393066,0.830566,-0.086182,0.092820,0.137834,-0.007708,0.999967,-0.004120,-0.004632,-0.005210,-0.030736,-0.459274,-0.627877,-0.627609
46136,NaN,8.778212,13.114072,-0.602528,1.418696,2.141761,5.769153,-0.680884,-0.792034,-1.561895,0.373779,0.837158,-0.086182,0.088827,0.130429,-0.006120,0.999956,-0.003404,-0.003960,-0.007809,-0.039868,-0.454672,-0.626592,-0.631716
46137,NaN,8.229987,12.071405,-0.413487,1.089849,2.330502,4.574657,-0.509346,-0.636258,-2.066885,0.345947,0.847900,-0.090576,0.083555,0.119844,-0.004176,0.999938,-0.002547,-0.003181,-0.010334,-0.049545,-0.450077,-0.629517,-0.631415
46138,NaN,7.890895,10.694523,-0.209380,0.297205,2.488391,3.240761,-0.355744,-0.484755,-2.591312,0.324463,0.854248,-0.084717,0.080291,0.105907,-0.002089,0.999912,-0.001779,-0.002424,-0.012956,-0.059480,-0.439504,-0.627431,-0.640023
46139,NaN,7.987765,9.449876,-0.178391,-0.618385,3.053518,2.163012,-0.344216,-0.332263,-3.141271,0.300781,0.864990,-0.084961,0.081352,0.093226,-0.001811,0.999874,-0.001721,-0.001661,-0.015706,-0.071323,-0.430556,-0.633054,-0.639357
46140,NaN,8.620873,8.847131,-0.507525,-1.932871,3.146245,1.985483,-0.449786,-0.182350,-3.642260,0.262451,0.875732,-0.079346,0.087805,0.086870,-0.005192,0.999831,-0.002249,-0.000912,-0.018210,-0.079427,-0.417538,-0.627855,-0.652036
46141,NaN,9.586384,8.377746,-1.003258,-3.449287,3.723578,1.905109,-0.559594,0.006821,-4.034703,0.226074,0.886475,-0.075439,0.097527,0.081793,-0.010267,0.999793,-0.002798,0.000034,-0.020172,-0.093711,-0.404542,-0.634326,-0.652070
46142,NaN,10.513715,7.060787,-1.379554,-5.087054,3.950817,1.177445,-0.690493,0.238968,-4.325007,0.189697,0.895020,-0.067627,0.106614,0.068264,-0.014161,0.999760,-0.003452,0.001195,-0.021623,-0.093586,-0.396091,-0.625630,-0.665538
46143,NaN,11.403759,5.144447,-1.606061,-6.956251,4.911562,-0.509533,-0.857562,0.477873,-4.567222,0.136475,0.906006,-0.057861,0.115132,0.048753,-0.016548,0.999727,-0.004287,0.002389,-0.022834,-0.108961,-0.379706,-0.631874,-0.666848
46144,NaN,12.450551,2.589342,-1.698939,-8.608790,5.604661,-2.128230,-0.989355,0.706636,-4.749152,0.098145,0.910400,-0.043701,0.125011,0.022843,-0.017549,0.999700,-0.004946,0.003533,-0.023743,-0.096104,-0.381497,-0.620232,-0.678629
46145,NaN,13.795420,-0.860553,-1.325004,-10.796202,7.499891,-5.344710,-0.982702,0.930785,-4.877447,0.053711,0.914795,-0.046143,0.137625,-0.012032,-0.013838,0.999680,-0.004913,0.004653,-0.024385,-0.111610,-0.362621,-0.626449,-0.680890
46146,NaN,15.433451,-5.337682,-1.029195,-13.231548,9.399096,-7.747303,-0.788628,1.224568,-4.993013,0.009033,0.916992,-0.036133,0.152871,-0.057248,-0.011010,0.999662,-0.003943,0.006122,-0.024962,-0.083157,-0.377102,-0.611684,-0.690450
46147,NaN,17.576259,-11.502155,-1.202149,-17.071867,11.763702,-13.380930,-0.281243,1.447520,-5.151344,-0.039795,0.919434,-0.042480,0.172630,-0.119513,-0.013113,0.999641,-0.001406,0.007237,-0.025754,-0.097012,-0.356100,-0.620808,-0.691649
46148,NaN,21.408707,-19.031433,-0.702656,-22.863124,16.302180,-15.499338,-0.049223,1.643487,-5.252220,-0.090332,0.911133,-0.040527,0.208925,-0.195849,-0.008710,0.999621,-0.000246,0.008216,-0.026258,-0.049628,-0.385525,-0.600196,-0.699052
46149,NaN,24.757236,-26.742965,-0.098476,-27.760610,20.040731,-22.283509,0.093142,1.931687,-5.130951,-0.136719,0.906982,-0.040527,0.240579,-0.273661,-0.003458,0.999624,0.000466,0.009657,-0.025652,-0.061566,-0.363256,-0.610664,-0.700959
46150,NaN,25.989513,-33.791956,0.654739,-33.333261,24.447110,-20.235887,0.215659,2.130824,-4.737325,-0.176514,0.894531,-0.052979,0.251843,-0.343954,0.003467,0.999662,0.001078,0.010653,-0.023684,0.012667,-0.414241,-0.572173,-0.707716
46151,NaN,25.783447,-40.307365,1.248996,-35.928379,26.252577,-27.437877,0.019480,2.292941,-4.057447,-0.209961,0.879883,-0.054932,0.249708,-0.408196,0.009556,0.999729,0.000097,0.011464,-0.020285,0.004907,-0.394407,-0.580344,-0.712474
46152,NaN,26.019613,-43.464512,0.496371,-41.055508,28.697265,-17.370459,-0.722076,2.453907,-3.187619,-0.229004,0.879883,-0.050781,0.253273,-0.438705,0.003407,0.999791,-0.003610,0.012269,-0.015937,0.099423,-0.458620,-0.515331,-0.717088
46153,NaN,24.120629,-40.899919,-1.072990,-39.168945,25.383849,-18.593479,-1.462900,2.730192,-2.357828,-0.251953,0.873535,-0.044678,0.236213,-0.411883,-0.010971,0.999811,-0.007314,0.013650,-0.011788,0.094631,-0.443397,-0.514038,-0.728154
46154,NaN,19.592464,-37.005180,-1.636766,-34.942303,23.114110,-9.009115,-2.114920,2.920633,-1.728293,-0.258301,0.871582,-0.030273,0.192488,-0.371890,-0.015269,0.999800,-0.010574,0.014602,-0.008641,0.173188,-0.508015,-0.434529,-0.723264
46155,NaN,15.523375,-34.161053,-1.256436,-30.801714,21.362868,-11.904001,-2.646082,3.002920,-1.303636,-0.268799,0.867188,-0.011963,0.152836,-0.342759,-0.010341,0.999779,-0.013229,0.015013,-0.006518,0.168239,-0.496503,-0.425576,-0.737608
46156,NaN,12.225602,-30.999225,-0.993825,-27.179689,19.197761,-7.791556,-2.713290,3.014682,-1.017623,-0.264648,0.869385,0.000244,0.120550,-0.310722,-0.007552,0.999781,-0.013565,0.015072,-0.005088,0.224363,-0.526590,-0.368377,-0.732573
46157,NaN,9.470352,-27.561718,-0.983684,-23.487328,17.279263,-9.573552,-2.449149,3.032371,-0.818722,-0.279297,0.864990,0.018799,0.093444,-0.276106,-0.007881,0.999802,-0.012245,0.015161,-0.004093,0.220457,-0.516619,-0.358087,-0.745840
46158,NaN,7.173744,-24.307574,-1.186652,-19.399149,16.170112,-7.379714,-2.060756,3.052122,-0.636170,-0.283447,0.863037,0.024902,0.070797,-0.243414,-0.010445,0.999825,-0.010303,0.015260,-0.003181,0.237217,-0.554480,-0.296834,-0.740384
46159,NaN,5.072821,-20.690222,-1.344445,-16.300360,13.751617,-8.911490,-1.778939,3.081090,-0.456550,-0.281006,0.858643,0.035156,0.050059,-0.207130,-0.012377,0.999839,-0.008894,0.015405,-0.002283,0.235130,-0.544418,-0.287813,-0.751988
46160,NaN,2.890648,-16.623390,-1.456885,-14.604460,8.516479,-8.817226,-1.680500,3.083119,-0.309002,-0.287354,0.856445,0.041260,0.028435,-0.166395,-0.013612,0.999845,-0.008402,0.015415,-0.001545,0.334110,-0.507350,-0.278904,-0.743760
46161,NaN,0.630242,-12.751184,-1.729773,-11.038463,6.574765,-10.762879,-1.707663,3.022231,-0.233332,-0.282959,0.852295,0.049561,0.005902,-0.127661,-0.016299,0.999849,-0.008538,0.015110,-0.001167,0.333074,-0.498562,-0.268055,-0.754085
46162,NaN,-1.524214,-9.559672,-1.930037,-7.040578,6.598201,-11.892339,-1.842367,2.947155,-0.219998,-0.284912,0.850098,0.059814,-0.015621,-0.095751,-0.018190,0.999848,-0.009211,0.014735,-0.001100,0.257194,-0.564217,-0.196089,-0.759645
46163,NaN,-3.777772,-7.164881,-2.288309,-5.146564,5.058353,-14.144324,-2.119814,2.840346,-0.259207,-0.287354,0.854248,0.074219,-0.038183,-0.071833,-0.021582,0.999842,-0.010599,0.014201,-0.001296,0.252973,-0.555812,-0.185086,-0.769949
46164,NaN,-6.018226,-5.190458,-2.281460,-3.528235,4.107864,-16.060454,-2.381208,2.679574,-0.313792,-0.297607,0.850098,0.090576,-0.060557,-0.052070,-0.021386,0.999838,-0.011905,0.013397,-0.001569,0.295213,-0.531948,-0.178282,-0.773367
46165,NaN,-8.059868,-3.813483,-2.099025,-1.769527,3.922169,-17.898962,-2.530099,2.438654,-0.391977,-0.301758,0.841553,0.104980,-0.080918,-0.038230,-0.019522,0.999844,-0.012650,0.012193,-0.001960,0.289095,-0.525821,-0.165915,-0.782566
46166,NaN,-9.332087,-3.345654,-1.718145,-0.960992,4.411088,-18.804093,-2.387798,2.130237,-0.498652,-0.305908,0.839355,0.123291,-0.093577,-0.033417,-0.015786,0.999869,-0.011938,0.010651,-0.002493,0.284457,-0.536348,-0.142104,-0.781807
46167,NaN,-9.791069,-3.396712,-0.815498,0.040347,5.198263,-18.814824,-2.110674,1.882732,-0.572653,-0.307861,0.835205,0.129639,-0.098076,-0.033764,-0.006875,0.999896,-0.010553,0.009413,-0.002863,0.277866,-0.531527,-0.132697,-0.789088
46168,NaN,-10.382094,-2.986371,-0.222209,0.853286,5.611634,-19.006852,-1.705847,1.652316,-0.624164,-0.318359,0.833008,0.137695,-0.103926,-0.029552,-0.001111,0.999925,-0.008529,0.008261,-0.003121,0.278618,-0.535779,-0.113288,-0.788973
46169,NaN,-10.684275,-2.413307,0.434577,1.968812,5.597102,-19.030051,-1.190363,1.386866,-0.648990,-0.320068,0.826660,0.141846,-0.106886,-0.023757,0.005229,0.999953,-0.005952,0.006934,-0.003245,0.273641,-0.531574,-0.108394,-0.794229
46170,NaN,-10.945609,-1.651121,0.794117,2.746302,5.472191,-19.068714,-0.874187,1.133367,-0.645650,-0.330811,0.828857,0.156250,-0.109461,-0.016121,0.008632,0.999969,-0.004371,0.005667,-0.003228,0.277069,-0.531501,-0.092092,-0.795147
46171,NaN,-10.854305,-0.756907,0.995771,3.496394,4.778185,-18.995461,-0.886041,0.848852,-0.578464,-0.336670,0.816162,0.156494,-0.108521,-0.007210,0.010451,0.999977,-0.004430,0.004244,-0.002892,0.272798,-0.529075,-0.088929,-0.798594
46172,NaN,-10.395402,0.009136,0.411333,3.223862,3.886814,-18.908427,-1.356199,0.617158,-0.456308,-0.344971,0.811768,0.170654,-0.103940,0.000358,0.004432,0.999970,-0.006781,0.003086,-0.002282,0.272262,-0.534064,-0.071530,-0.797203
46173,NaN,-10.221220,0.303489,-0.784844,2.406969,3.086255,-19.292290,-2.079513,0.359493,-0.231705,-0.342773,0.807617,0.189209,-0.102223,0.003073,-0.007697,0.999944,-0.010397,0.001797,-0.001159,0.265898,-0.535349,-0.063366,-0.799177
46174,NaN,-10.474732,-0.247492,-1.637728,1.358725,3.519648,-19.723751,-2.609381,0.095737,-0.006339,-0.344727,0.803223,0.211670,-0.104755,-0.002685,-0.016293,0.999915,-0.013047,0.000479,-0.000032,0.262735,-0.543020,-0.042048,-0.796450
46175,NaN,-10.578070,-2.075944,-1.239546,0.874669,5.317106,-19.230998,-2.723287,-0.171050,0.169800,-0.344482,0.796875,0.228271,-0.105752,-0.021016,-0.012201,0.999907,-0.013616,-0.000855,0.000849,0.255956,-0.547264,-0.030963,-0.796260
46176,NaN,-10.471937,-4.447494,-0.394915,0.440461,7.861725,-18.034394,-2.465742,-0.488165,0.290031,-0.335938,0.790283,0.246826,-0.104646,-0.044673,-0.003655,0.999920,-0.012328,-0.002441,0.001450,0.255689,-0.555357,-0.008607,-0.791282
46177,NaN,-10.102771,-6.564166,0.230176,0.035691,9.779027,-16.853739,-1.822126,-0.895988,0.365025,-0.331787,0.792480,0.257080,-0.100918,-0.065804,0.002449,0.999947,-0.009110,-0.004480,0.001825,0.252021,-0.561218,-0.001529,-0.788364
46178,NaN,-9.299478,-7.661643,0.592131,-0.336196,10.711007,-15.352777,-0.979876,-1.312549,0.483729,-0.325195,0.790283,0.271484,-0.092847,-0.076813,0.005688,0.999964,-0.004899,-0.006563,0.002419,0.258405,-0.567969,0.015786,-0.781273
46179,NaN,-8.386451,-7.805715,0.296612,-0.966452,10.371534,-14.592335,-0.089546,-1.688819,0.661742,-0.325195,0.792236,0.273438,-0.083627,-0.078333,0.002294,0.999959,-0.000448,-0.008444,0.003309,0.260858,-0.574607,0.015832,-0.775583
46180,NaN,-7.585878,-7.394948,-0.538319,-1.937722,9.566406,-13.965445,0.647427,-2.028887,0.927113,-0.308350,0.792236,0.279541,-0.075454,-0.074280,-0.006390,0.999933,0.003237,-0.010144,0.004635,0.274857,-0.581142,0.027221,-0.765498
46181,NaN,-6.529700,-6.754777,-1.241591,-2.745298,8.303204,-13.462331,1.169598,-2.310228,1.220877,-0.293701,0.796387,0.265381,-0.064731,-0.067867,-0.013562,0.999898,0.005848,-0.011551,0.006104,0.283213,-0.588151,0.023115,-0.757188
46182,NaN,-5.137529,-6.552955,-1.019422,-2.924601,7.564244,-11.956881,1.506152,-2.533601,1.518148,-0.276855,0.802734,0.267334,-0.050738,-0.065834,-0.011335,0.999863,0.007530,-0.012667,0.007590,0.301159,-0.594222,0.030376,-0.745171
46183,NaN,-3.753298,-6.721020,-0.421361,-2.843232,7.138105,-10.441401,1.497740,-2.697535,1.766633,-0.256104,0.811279,0.254883,-0.036872,-0.067501,-0.005219,0.999842,0.007488,-0.013487,0.008833,0.312551,-0.601656,0.025978,-0.734607
46184,NaN,-2.820794,-6.788324,-0.451050,-3.165733,6.633281,-9.349045,1.316032,-2.816983,1.996730,-0.239258,0.813232,0.255127,-0.027457,-0.068127,-0.005349,0.999829,0.006580,-0.014084,0.009983,0.330582,-0.608140,0.032320,-0.720997
46185,NaN,-2.172390,-7.433381,-0.848193,-4.002535,6.550457,-8.486010,1.225502,-2.896346,2.189223,-0.214111,0.821533,0.250977,-0.020779,-0.074510,-0.009244,0.999816,0.006127,-0.014481,0.010945,0.342606,-0.616091,0.029766,-0.708638
46186,NaN,-1.546767,-9.277917,-1.564703,-5.610476,7.157487,-6.948160,1.189618,-2.966538,2.363469,-0.195312,0.827881,0.244629,-0.014131,-0.092855,-0.016415,0.999802,0.005948,-0.014832,0.011817,0.360146,-0.622807,0.034626,-0.693691
46187,NaN,-1.239875,-12.162997,-3.184120,-8.497059,8.226106,-5.370935,1.196041,-3.038854,2.528535,-0.167969,0.836426,0.236572,-0.010369,-0.121576,-0.032736,0.999787,0.005980,-0.015193,0.012642,0.373088,-0.630623,0.032873,-0.679735
46188,NaN,-1.514387,-16.644782,-4.773071,-12.143259,10.435135,-3.049781,1.515976,-3.173982,2.638373,-0.136230,0.838379,0.230469,-0.012177,-0.166252,-0.049200,0.999758,0.007579,-0.015869,0.013191,0.391824,-0.636821,0.035652,-0.663070
46189,NaN,-1.501869,-23.900669,-5.943121,-16.871343,14.267835,1.165498,2.215463,-3.282790,2.606116,-0.115479,0.844727,0.218262,-0.010902,-0.238487,-0.062277,0.999719,0.011076,-0.016412,0.013029,0.407991,-0.642721,0.030164,-0.647722
46190,NaN,-0.423981,-32.905932,-5.686518,-21.230003,18.597929,8.035307,2.924233,-3.502136,2.520348,-0.092529,0.857422,0.191406,0.000952,-0.328191,-0.061682,0.999660,0.014620,-0.017509,0.012600,0.429341,-0.646954,0.026653,-0.629608
46191,NaN,2.612716,-40.790254,-6.451534,-25.830144,20.011191,15.571545,3.410084,-3.646362,2.637119,-0.067383,0.865723,0.166992,0.032746,-0.406327,-0.070896,0.999602,0.017048,-0.018229,0.013184,0.448984,-0.650504,0.016611,-0.612358
46192,NaN,6.045717,-45.751108,-7.886309,-29.121973,18.010870,22.108900,3.954647,-3.595778,2.844150,-0.035889,0.874268,0.138184,0.068451,-0.454913,-0.086693,0.999542,0.019770,-0.017976,0.014219,0.473851,-0.651773,0.010637,-0.592067
46193,NaN,10.626414,-49.080501,-8.946820,-30.861076,14.284915,28.198550,4.173614,-3.350904,3.016641,-0.008789,0.880615,0.103516,0.115223,-0.487129,-0.097780,0.999528,0.020865,-0.016752,0.015081,0.496332,-0.651338,0.000170,-0.573946
46194,NaN,16.169894,-48.870309,-10.469894,-29.647071,7.222526,32.939058,3.885869,-3.051570,3.388821,0.029541,0.876221,0.077148,0.171592,-0.483728,-0.111563,0.999551,0.019426,-0.015256,0.016942,0.520948,-0.650459,-0.002494,-0.552729
46195,NaN,19.717864,-43.502938,-10.541824,-24.724399,0.328380,32.384071,3.304457,-2.493614,3.677657,0.065430,0.880371,0.046631,0.206464,-0.429497,-0.110010,0.999617,0.016520,-0.012466,0.018386,0.541624,-0.648542,-0.006159,-0.534789
46196,NaN,19.123475,-36.264726,-9.622812,-18.890297,-3.763626,27.632130,2.435613,-1.895570,3.888365,0.097168,0.880371,0.036621,0.199149,-0.357634,-0.098741,0.999692,0.012177,-0.009477,0.019440,0.560941,-0.648107,-0.000404,-0.515075
46197,NaN,15.417470,-30.448207,-8.137786,-15.325823,-4.146135,21.472050,1.473570,-1.529999,4.113192,0.137695,0.871826,0.030762,0.161012,-0.300613,-0.082388,0.999732,0.007367,-0.007649,0.020564,0.576153,-0.647750,0.004839,-0.498441
46198,NaN,13.006487,-26.558371,-6.958713,-12.333411,-4.275321,17.617157,0.745281,-1.518650,4.164406,0.177979,0.867188,0.024902,0.136081,-0.262533,-0.069551,0.999747,0.003726,-0.007593,0.020820,0.589013,-0.650797,0.016368,-0.478810
46199,NaN,13.511061,-23.570974,-6.201892,-9.001749,-5.712015,15.932767,0.480823,-1.562915,3.963986,0.214355,0.858643,0.020996,0.140226,-0.232816,-0.061498,0.999770,0.002404,-0.007814,0.019818,0.600058,-0.652650,0.023509,-0.461980
46200,NaN,13.570258,-20.111015,-5.727149,-5.791077,-6.985853,13.403360,0.683077,-1.484929,3.686040,0.244141,0.856445,0.009033,0.139799,-0.198364,-0.056924,0.999797,0.003415,-0.007424,0.018429,0.610366,-0.655257,0.033254,-0.443830
46201,NaN,12.195235,-15.846212,-4.829786,-3.238973,-7.097247,9.219961,1.157630,-1.361388,3.421006,0.276123,0.847900,-0.002930,0.124965,-0.156062,-0.048362,0.999814,0.005788,-0.006807,0.017104,0.621861,-0.654056,0.037732,-0.429040
46202,NaN,10.787324,-11.206682,-4.451652,-1.040144,-7.421481,4.525575,1.524985,-1.254709,3.105707,0.306152,0.837158,-0.014893,0.109872,-0.110031,-0.044676,0.999831,0.007624,-0.006273,0.015528,0.632747,-0.653085,0.043907,-0.413743
46203,NaN,10.042003,-6.359012,-4.428583,1.119669,-8.181348,-0.185175,1.591760,-1.164254,2.725359,0.327637,0.828613,-0.031006,0.101528,-0.061860,-0.044194,0.999859,0.007958,-0.005821,0.013626,0.643747,-0.649768,0.045824,-0.401611
46204,NaN,9.938789,-1.420810,-4.587480,3.508782,-9.173215,-4.775282,1.346716,-1.146361,2.291219,0.342529,0.824219,-0.047363,0.099801,-0.012760,-0.045393,0.999895,0.006733,-0.005732,0.011456,0.651822,-0.648826,0.049494,-0.389491
46205,NaN,10.207310,3.109635,-4.104285,6.189086,-9.556664,-8.781432,0.960725,-1.165002,1.823307,0.363770,0.817871,-0.055420,0.102019,0.032221,-0.040295,0.999930,0.004804,-0.005825,0.009116,0.658731,-0.647468,0.049738,-0.379979
46206,NaN,10.686316,6.265444,-3.360788,8.439565,-9.529899,-11.455380,0.450019,-1.189991,1.370749,0.372559,0.813477,-0.055176,0.106627,0.063460,-0.032831,0.999956,0.002250,-0.005950,0.006854,0.661863,-0.649443,0.051397,-0.370837
46207,NaN,11.063220,7.803290,-2.685396,9.834762,-9.244900,-12.694447,-0.137956,-1.197814,0.965884,0.372559,0.809326,-0.057129,0.110412,0.078548,-0.026246,0.999970,-0.000690,-0.005989,0.004829,0.663492,-0.651854,0.050824,-0.363705
46208,NaN,11.132563,8.181533,-2.147259,10.373113,-8.810149,-13.015963,-0.551325,-1.200663,0.618686,0.389648,0.804932,-0.054932,0.111199,0.082101,-0.021031,0.999973,-0.002757,-0.006003,0.003093,0.661928,-0.657056,0.051184,-0.357084
46209,NaN,10.890427,8.065828,-1.688816,10.439701,-8.216070,-12.978050,-0.722183,-1.140950,0.285319,0.389404,0.811279,-0.052979,0.108884,0.080753,-0.016558,0.999976,-0.003611,-0.005705,0.001427,0.660339,-0.661396,0.049633,-0.352198
46210,NaN,10.101949,8.094676,-1.409573,10.032895,-7.541508,-13.280596,-0.605293,-1.063120,-0.060612,0.381104,0.809326,-0.055176,0.101118,0.080874,-0.013803,0.999981,-0.003026,-0.005316,-0.000303,0.657375,-0.666421,0.047721,-0.348517
46211,NaN,9.589807,8.676815,-1.341169,9.960737,-7.255073,-13.959630,-0.345104,-0.999349,-0.436561,0.374512,0.815674,-0.055176,0.096153,0.086536,-0.013081,0.999984,-0.001726,-0.004997,-0.002183,0.655690,-0.669392,0.043582,-0.346533
46212,NaN,9.353587,9.866957,-1.549313,10.200647,-7.463131,-15.056111,-0.083933,-0.937164,-0.820950,0.378662,0.815674,-0.057373,0.094011,0.098278,-0.015095,0.999981,-0.000420,-0.004686,-0.004105,0.653163,-0.672423,0.038167,-0.346077
46213,NaN,8.872386,10.876407,-1.286662,10.474277,-7.113934,-16.005352,0.191198,-0.850149,-1.197151,0.361816,0.817871,-0.061523,0.089426,0.108242,-0.012384,0.999973,0.000956,-0.004251,-0.005986,0.651877,-0.673481,0.031033,-0.347155
46214,NaN,8.003299,11.195963,-0.699278,10.364571,-6.231163,-16.418364,0.323067,-0.757554,-1.550595,0.349121,0.817871,-0.061523,0.080923,0.111345,-0.006507,0.999961,0.001615,-0.003788,-0.007753,0.649429,-0.674765,0.022631,-0.349889
46215,NaN,7.308384,11.123173,-0.309528,10.142060,-5.547633,-16.414933,0.264961,-0.658623,-1.919278,0.325439,0.830811,-0.065918,0.074156,0.110527,-0.002706,0.999948,0.001325,-0.003293,-0.009596,0.647004,-0.675240,0.013552,-0.353910
46216,NaN,7.168205,10.736824,-0.102010,10.110910,-5.285415,-15.854145,0.122607,-0.547183,-2.307494,0.314453,0.839355,-0.068115,0.072917,0.106532,-0.000756,0.999930,0.000613,-0.002736,-0.011537,0.642496,-0.676536,0.003268,-0.359844
46217,NaN,7.347878,10.216332,0.137956,10.250587,-5.130555,-15.006643,-0.120483,-0.395638,-2.681028,0.284424,0.854248,-0.068604,0.074837,0.101167,0.001466,0.999908,-0.000602,-0.001978,-0.013405,0.637211,-0.677618,-0.006856,-0.367083
46218,NaN,7.564261,9.264780,0.120114,10.051102,-5.162560,-13.734553,-0.344113,-0.179775,-3.026859,0.260742,0.863037,-0.062744,0.077032,0.091491,0.001112,0.999884,-0.001720,-0.000899,-0.015134,0.629678,-0.679271,-0.017862,-0.376534
46220,NaN,7.983332,7.233791,-0.232155,18.420858,-10.780906,-12.763657,-0.604858,0.216436,-3.513984,0.196533,0.882324,-0.049072,0.164604,0.138916,-0.005848,0.999362,-0.006047,0.002164,-0.035132,0.611977,-0.681205,-0.038076,-0.399993
46221,NaN,8.510142,5.410829,-1.061446,8.113868,-6.022425,-8.971502,-0.755702,0.642386,-3.951366,0.166748,0.888672,-0.045166,0.086112,0.052372,-0.011090,0.999793,-0.003778,0.003212,-0.019755,0.600790,-0.681503,-0.049264,-0.414944
46222,NaN,8.964786,4.459425,-1.676256,7.421570,-6.560288,-7.592236,-0.803831,0.918269,-4.186027,0.119873,0.895264,-0.031250,0.090475,0.042637,-0.017351,0.999762,-0.004019,0.004591,-0.020928,0.589449,-0.680821,-0.059089,-0.430746
46223,NaN,9.636887,3.166919,-2.208839,6.575055,-6.952271,-5.788533,-0.811545,1.175029,-4.367540,0.081787,0.897461,-0.019043,0.096896,0.029465,-0.022779,0.999736,-0.004057,0.005875,-0.021836,0.576725,-0.679286,-0.070050,-0.448388
46224,NaN,10.536934,1.321309,-2.209928,5.653053,-6.736748,-3.464951,-0.815634,1.378442,-4.476750,0.047607,0.901855,-0.013184,0.105473,0.010761,-0.022873,0.999717,-0.004078,0.006892,-0.022382,0.564237,-0.676790,-0.079431,-0.466136
46225,NaN,11.696594,-1.050080,-1.385436,4.790064,-5.626030,-0.581861,-0.826848,1.581558,-4.522216,0.005615,0.897949,0.000977,0.116574,-0.013199,-0.014726,0.999705,-0.004134,0.007907,-0.022609,0.550518,-0.673494,-0.089682,-0.485071
46226,NaN,12.479962,-4.050627,-1.207650,2.789323,-4.551438,2.232450,-0.942527,1.807537,-4.533545,-0.034668,0.895996,0.000977,0.123723,-0.043379,-0.012998,0.999691,-0.004712,0.009037,-0.022665,0.536989,-0.669465,-0.097658,-0.503908
46227,NaN,13.608374,-8.227509,-2.033416,-0.658132,-3.745489,5.759716,-0.888529,2.020342,-4.616057,-0.081055,0.889648,0.006836,0.133923,-0.085476,-0.021319,0.999673,-0.004442,0.010101,-0.023078,0.522299,-0.664320,-0.106748,-0.523916
46228,NaN,16.553297,-14.394552,-3.490973,-5.392137,-3.079057,11.511822,-0.676037,2.151280,-4.824173,-0.125244,0.885742,0.012939,0.161611,-0.147996,-0.036167,0.999646,-0.003380,0.010755,-0.024118,0.508379,-0.657641,-0.115345,-0.543833
46229,NaN,20.433789,-21.638394,-3.742579,-10.408410,-0.886824,18.302028,-0.611079,2.361405,-4.906711,-0.173828,0.881592,0.012695,0.198491,-0.221420,-0.039121,0.999625,-0.003055,0.011806,-0.024530,0.493192,-0.649901,-0.124888,-0.564618
46230,NaN,22.506083,-28.621303,-3.498804,-16.011826,2.586136,22.968266,-0.702457,2.652084,-4.734882,-0.209473,0.871094,0.016846,0.217719,-0.291553,-0.036890,0.999626,-0.003512,0.013259,-0.023671,0.479014,-0.640948,-0.131703,-0.585137
46231,NaN,22.814810,-33.914825,-3.149592,-20.976431,6.377562,24.823616,-1.031334,2.860225,-4.302898,-0.245361,0.862793,0.025146,0.220316,-0.344112,-0.032918,0.999653,-0.005156,0.014299,-0.021512,0.463721,-0.632614,-0.136229,-0.605147
46232,NaN,23.252128,-37.023341,-3.210771,-24.336669,8.758580,25.577830,-1.718295,2.941484,-3.493352,-0.268311,0.858643,0.029053,0.225531,-0.374490,-0.032254,0.999702,-0.008591,0.014706,-0.017465,0.449581,-0.625132,-0.135219,-0.623540
46233,NaN,22.865830,-37.314267,-3.828047,-25.685953,9.730073,24.469564,-2.572648,3.126929,-2.550602,-0.286865,0.843750,0.047607,0.223286,-0.376494,-0.036971,0.999714,-0.012862,0.015633,-0.012752,0.434442,-0.620429,-0.128078,-0.640254
46234,NaN,19.450720,-35.274267,-4.304092,-25.350996,10.520725,19.981291,-3.311681,3.393495,-1.754153,-0.299561,0.839600,0.066162,0.190698,-0.355110,-0.040431,0.999681,-0.016557,0.016966,-0.008770,0.420586,-0.615439,-0.115507,-0.656506
46235,NaN,15.352158,-32.713085,-3.875066,-23.531123,11.935592,15.179336,-3.835176,3.463658,-1.242294,-0.307861,0.837402,0.094727,0.150854,-0.328770,-0.035084,0.999647,-0.019174,0.017316,-0.006211,0.405389,-0.612915,-0.098733,-0.671004
46236,NaN,12.294737,-29.610225,-3.410109,-21.040886,12.357945,11.259779,-4.067196,3.424413,-0.889558,-0.318115,0.826660,0.119385,0.121088,-0.297284,-0.030147,0.999637,-0.020334,0.017120,-0.004447,0.391483,-0.609009,-0.080839,-0.685065
46237,NaN,9.776288,-26.482915,-3.068327,-18.362933,12.340825,7.985827,-4.066961,3.422912,-0.621249,-0.324219,0.822510,0.144043,0.096456,-0.265703,-0.026944,0.999642,-0.020332,0.017113,-0.003106,0.377098,-0.606808,-0.060873,-0.697048
46238,NaN,7.875706,-23.881245,-2.805842,-16.163257,12.108722,5.428597,-4.032455,3.441848,-0.386623,-0.330322,0.815918,0.172852,0.077852,-0.239483,-0.024579,0.999647,-0.020160,0.017207,-0.001933,0.364429,-0.602085,-0.041483,-0.709199
46239,NaN,6.511618,-21.204332,-2.724466,-13.994633,11.369051,3.389863,-4.024059,3.492115,-0.145411,-0.336670,0.813965,0.191162,0.064523,-0.212596,-0.024101,0.999645,-0.020118,0.017459,-0.000727,0.351399,-0.598929,-0.019722,-0.719315
46240,NaN,5.017477,-18.341797,-2.707122,-11.962749,10.347631,1.082995,-4.060834,3.536804,0.059962,-0.342773,0.805420,0.211670,0.049785,-0.183914,-0.024223,0.999637,-0.020302,0.017682,0.000300,0.339675,-0.593135,0.001282,-0.729939
46241,NaN,3.400110,-15.633686,-2.778716,-10.085636,9.400641,-1.234891,-4.066899,3.559859,0.175730,-0.344727,0.801025,0.234375,0.033675,-0.156837,-0.025202,0.999634,-0.020332,0.017797,0.000879,0.327232,-0.588963,0.024463,-0.738541
46242,NaN,1.796703,-13.587336,-2.924352,-8.738331,8.864550,-3.375609,-4.029418,3.578687,0.207334,-0.348633,0.790283,0.254883,0.017614,-0.136412,-0.026816,0.999636,-0.020145,0.017891,0.001037,0.315575,-0.582103,0.045798,-0.747978
46243,NaN,0.182356,-12.090628,-3.094730,-7.633836,8.759775,-5.255799,-3.865109,3.543911,0.175038,-0.354492,0.777588,0.279785,0.001409,-0.121473,-0.028631,0.999656,-0.019323,0.017718,0.000875,0.303295,-0.576770,0.068223,-0.755443
46244,NaN,-1.446764,-10.820968,-3.308830,-6.720753,8.817625,-7.129907,-3.628536,3.503979,0.133100,-0.360596,0.769043,0.294189,-0.014949,-0.108793,-0.030859,0.999682,-0.018141,0.017518,0.000665,0.292041,-0.568810,0.087604,-0.763867
46245,NaN,-2.998999,-9.827377,-3.217405,-5.609876,9.117407,-8.668671,-3.218999,3.427632,0.088627,-0.370850,0.760498,0.314697,-0.030474,-0.098782,-0.030067,0.999724,-0.016094,0.017137,0.000443,0.281031,-0.562174,0.107093,-0.770398
46246,NaN,-4.145520,-9.101833,-2.910189,-4.493070,9.396241,-9.728936,-2.752650,3.336494,0.059185,-0.379150,0.756348,0.322754,-0.041892,-0.091413,-0.027149,0.999766,-0.013762,0.016681,0.000296,0.271669,-0.553029,0.122526,-0.778037
46247,NaN,-4.988708,-8.101219,-2.560466,-3.327397,9.237365,-10.626024,-2.339936,3.184487,0.016621,-0.389160,0.743652,0.339355,-0.050269,-0.081302,-0.023856,0.999805,-0.011699,0.015921,0.000083,0.262899,-0.545485,0.138021,-0.783761
46248,NaN,-5.788843,-6.406007,-2.366176,-2.179984,8.416571,-11.945021,-2.080906,3.031001,0.004042,-0.395508,0.739258,0.339355,-0.058230,-0.064297,-0.022113,0.999831,-0.010404,0.015154,0.000020,0.255103,-0.536249,0.150148,-0.790452
46249,NaN,-6.948961,-4.304049,-2.261455,-0.964341,7.441287,-13.764579,-1.864973,2.839720,-0.003867,-0.406006,0.739502,0.345459,-0.069798,-0.043241,-0.021222,0.999856,-0.009324,0.014198,-0.000019,0.247861,-0.528904,0.163221,-0.795100
46250,NaN,-8.073500,-2.515513,-2.138292,0.157708,6.672358,-15.427896,-1.723710,2.597315,-0.020507,-0.409912,0.728760,0.347656,-0.081004,-0.025324,-0.020114,0.999879,-0.008618,0.012986,-0.000103,0.241071,-0.520669,0.173220,-0.800489
46251,NaN,-9.182069,-1.266036,-2.146714,0.991425,6.347990,-16.829589,-1.678891,2.303469,-0.012402,-0.416016,0.718262,0.354004,-0.092060,-0.012828,-0.020301,0.999898,-0.008394,0.011517,-0.000062,0.234864,-0.514777,0.184794,-0.803552
46252,NaN,-10.222057,-0.695246,-1.922795,1.889497,6.497242,-17.742546,-1.655431,1.956658,-0.001707,-0.424316,0.718262,0.364258,-0.102402,-0.007105,-0.018168,0.999918,-0.008277,0.009783,-0.000009,0.228769,-0.508820,0.193725,-0.806993
46253,NaN,-11.063983,-0.512983,-1.825135,2.482631,6.880774,-18.327059,-1.619038,1.581091,0.032043,-0.428223,0.709717,0.368408,-0.110778,-0.005290,-0.017334,0.999936,-0.008095,0.007905,0.000160,0.223791,-0.505312,0.204262,-0.807994
46254,NaN,-11.581541,-0.935454,-1.649492,2.931974,7.524523,-18.328035,-1.461066,1.151911,0.069337,-0.432373,0.703369,0.376709,-0.115904,-0.009512,-0.015758,0.999957,-0.007305,0.005759,0.000347,0.219194,-0.502202,0.211623,-0.809298
46255,NaN,-11.755420,-1.428917,-1.243145,3.384285,8.031183,-17.925820,-1.240056,0.699507,0.101252,-0.432373,0.701172,0.386963,-0.117589,-0.014424,-0.011931,0.999975,-0.006200,0.003498,0.000506,0.216718,-0.501386,0.219807,-0.808289
46256,NaN,-11.556097,-1.794753,-0.885858,3.644645,8.176740,-17.389397,-0.950941,0.257771,0.126107,-0.427734,0.694824,0.393311,-0.115561,-0.018062,-0.008624,0.999988,-0.004755,0.001289,0.000631,0.214559,-0.501231,0.224246,-0.807741
46257,NaN,-11.232900,-2.130677,-0.764661,3.572291,8.300928,-16.857955,-0.581250,-0.193309,0.152173,-0.425537,0.692627,0.399414,-0.112305,-0.021415,-0.007693,0.999995,-0.002906,-0.000967,0.000761,0.215401,-0.502896,0.228967,-0.805153
46258,NaN,-10.681380,-2.471317,-0.592864,3.428929,8.248611,-16.196514,-0.160547,-0.633735,0.186578,-0.423584,0.692627,0.401611,-0.106771,-0.024818,-0.006247,0.999994,-0.000803,-0.003169,0.000933,0.216474,-0.505405,0.229402,-0.803168
46259,NaN,-10.353095,-2.413650,-0.507863,3.275737,8.067479,-15.932690,0.136781,-1.048885,0.247335,-0.408691,0.694580,0.413818,-0.103472,-0.024261,-0.005638,0.999985,0.000684,-0.005244,0.001237,0.220978,-0.509274,0.230588,-0.799148
46260,NaN,-10.082923,-2.204251,-0.672528,2.914897,7.797800,-15.950435,0.353350,-1.466621,0.310202,-0.400146,0.694580,0.411865,-0.100742,-0.022186,-0.007503,0.999970,0.001767,-0.007333,0.001551,0.224803,-0.514372,0.228342,-0.795453
46261,NaN,-9.433105,-2.265696,-0.596645,2.549285,7.530756,-15.403630,0.447333,-1.874486,0.383416,-0.387939,0.702881,0.421875,-0.094226,-0.022823,-0.006901,0.999952,0.002237,-0.009372,0.001917,0.232023,-0.520643,0.227698,-0.789462
46262,NaN,-8.586616,-2.757844,-0.673694,1.923921,7.452982,-14.560055,0.384909,-2.245937,0.440576,-0.364502,0.698486,0.434326,-0.085722,-0.027753,-0.007753,0.999933,0.001925,-0.011229,0.002203,0.237306,-0.528526,0.224708,-0.783487
46263,NaN,-7.518327,-3.953445,-1.092283,0.791828,7.836215,-13.175848,0.380920,-2.578288,0.518126,-0.349609,0.700684,0.434326,-0.074931,-0.039707,-0.011965,0.999912,0.001905,-0.012891,0.002591,0.246015,-0.537057,0.223755,-0.775229
46264,NaN,-6.374312,-6.065529,-1.606235,-0.563052,8.813990,-11.224892,0.583996,-2.890100,0.637859,-0.328613,0.707031,0.442627,-0.063307,-0.060809,-0.017157,0.999886,0.002920,-0.014450,0.003189,0.253263,-0.546767,0.219627,-0.767247
46265,NaN,-5.208323,-8.747149,-1.595258,-1.554286,10.117159,-8.627521,1.026875,-3.192006,0.807370,-0.307617,0.713135,0.448730,-0.051462,-0.087594,-0.017227,0.999851,0.005134,-0.015959,0.004037,0.265763,-0.556035,0.216069,-0.757304
46266,NaN,-3.688591,-11.978587,-1.898018,-3.047285,11.544586,-5.555929,1.574462,-3.473795,1.025513,-0.276367,0.721680,0.442627,-0.035924,-0.119814,-0.020553,0.999805,0.007872,-0.017368,0.005127,0.277725,-0.565880,0.208304,-0.747835
46267,NaN,-2.016102,-15.395606,-2.897088,-5.394275,12.792027,-2.280969,2.102196,-3.734389,1.332026,-0.242920,0.736328,0.430176,-0.018571,-0.153765,-0.030945,0.999748,0.010510,-0.018670,0.006660,0.295958,-0.574445,0.201290,-0.736141
46268,NaN,-0.842542,-18.931482,-4.408817,-8.249163,14.232675,0.574279,2.389524,-3.963184,1.755448,-0.211426,0.746826,0.419922,-0.005861,-0.188828,-0.046479,0.999694,0.011946,-0.019814,0.008776,0.313180,-0.583554,0.191616,-0.724339
46269,NaN,0.031258,-23.540084,-5.035188,-10.638684,16.243227,4.413730,2.569355,-4.166966,2.157530,-0.171631,0.757324,0.409668,0.003937,-0.234699,-0.053313,0.999642,0.012845,-0.020832,0.010786,0.336164,-0.591196,0.184497,-0.709536
46270,NaN,1.297953,-29.278973,-5.266876,-13.086197,18.602625,9.403369,2.546320,-4.438989,2.508471,-0.129639,0.765625,0.389160,0.017863,-0.291887,-0.056029,0.999594,0.012730,-0.022192,0.012541,0.356548,-0.600110,0.175348,-0.694259
46271,NaN,3.276232,-36.066957,-6.951204,-17.372886,20.104955,15.753631,2.528589,-4.681449,2.953539,-0.089844,0.778320,0.375000,0.039759,-0.359207,-0.073184,0.999537,0.012641,-0.023404,0.014765,0.382448,-0.607642,0.169796,-0.675037
46272,NaN,5.697680,-41.894652,-9.175611,-21.797353,20.044065,21.724292,2.572819,-4.789877,3.311117,-0.037109,0.786621,0.358643,0.066148,-0.416688,-0.095616,0.999493,0.012862,-0.023945,0.016553,0.405311,-0.615769,0.161934,-0.655995
46273,NaN,8.961688,-45.902911,-10.077989,-24.077756,17.351881,27.705817,2.839294,-4.934760,3.673844,0.013428,0.790771,0.334229,0.100564,-0.455779,-0.104875,0.999426,0.014194,-0.024669,0.018366,0.434172,-0.621430,0.157143,-0.632950
46274,NaN,13.803469,-49.424867,-11.121989,-25.785128,12.948447,34.049375,3.275469,-4.842032,3.838621,0.057373,0.807617,0.303467,0.150228,-0.489572,-0.115725,0.999389,0.016374,-0.024205,0.019189,0.460034,-0.626247,0.148104,-0.611759
46275,NaN,18.874158,-50.352825,-12.624884,-26.225948,5.598828,38.468997,3.836830,-4.449004,3.921278,0.110107,0.813721,0.266846,0.201418,-0.497173,-0.131441,0.999376,0.019180,-0.022240,0.019602,0.491079,-0.626395,0.142291,-0.588408
46276,NaN,20.863808,-45.314369,-12.274093,-23.200162,-1.084175,36.004674,4.298901,-3.845392,3.961331,0.152344,0.815918,0.229980,0.219953,-0.446144,-0.128225,0.999388,0.021490,-0.019223,0.019803,0.518630,-0.623953,0.132529,-0.569335
46277,NaN,19.267856,-37.078260,-11.036607,-18.537545,-5.845985,28.781882,4.139201,-3.227315,4.132584,0.203125,0.815674,0.197510,0.202080,-0.364326,-0.114741,0.999442,0.020692,-0.016134,0.020659,0.548247,-0.618438,0.129857,-0.547812
46278,NaN,16.860446,-30.491992,-10.126856,-15.233708,-8.094568,22.103686,3.436195,-2.782877,4.401161,0.247559,0.817627,0.171143,0.176668,-0.299319,-0.104023,0.999514,0.017178,-0.013912,0.022002,0.572466,-0.613484,0.126371,-0.529104
46279,NaN,15.686772,-25.413635,-9.551000,-11.985886,-10.392331,17.228918,2.476066,-2.449282,4.521155,0.288086,0.807129,0.148926,0.163719,-0.249295,-0.096639,0.999593,0.012379,-0.012245,0.022603,0.595333,-0.609413,0.131725,-0.506797
46281,NaN,14.474001,-18.696861,-8.555987,-15.113735,-24.464802,31.419734,1.401563,-2.002907,4.337906,0.367188,0.783447,0.121094,0.308672,-0.358431,-0.170161,0.998761,0.014010,-0.020021,0.043361,0.627748,-0.604753,0.138975,-0.469992
46282,NaN,12.393032,-13.023526,-7.013584,-3.814260,-11.886726,4.900793,0.895521,-1.679012,3.992656,0.403809,0.768311,0.107178,0.127079,-0.127407,-0.069652,0.999755,0.004477,-0.008394,0.019962,0.641410,-0.603315,0.149094,-0.449863
46283,NaN,11.315994,-9.615475,-6.277002,-1.941304,-11.470776,1.346483,0.712180,-1.501257,3.684496,0.433838,0.757812,0.093262,0.115371,-0.093821,-0.062246,0.999796,0.003561,-0.007506,0.018421,0.652835,-0.601539,0.153769,-0.433949
46284,NaN,10.248209,-6.289850,-6.158343,-0.704763,-11.210366,-2.307734,0.542880,-1.312382,3.362221,0.463867,0.740723,0.085449,0.103920,-0.060993,-0.061072,0.999833,0.002714,-0.006562,0.016810,0.662511,-0.600549,0.163674,-0.416690
46285,NaN,9.274569,-3.241052,-5.757526,0.413794,-10.556444,-5.564084,0.394534,-1.214476,3.012429,0.487793,0.725586,0.077637,0.093566,-0.030892,-0.057071,0.999866,0.001973,-0.006072,0.015061,0.670879,-0.599229,0.167860,-0.403322
46286,NaN,8.653095,-0.583946,-4.859923,1.793864,-9.654300,-8.261429,0.218055,-1.196296,2.624420,0.511475,0.712891,0.067871,0.086886,-0.004648,-0.048086,0.999895,0.001090,-0.005981,0.013122,0.677120,-0.599423,0.176059,-0.388849
46287,NaN,8.648102,1.840762,-4.319372,3.101131,-9.304456,-10.613568,-0.042052,-1.157835,2.173857,0.532715,0.710693,0.063965,0.086522,0.019339,-0.042697,0.999924,-0.000210,-0.005789,0.010869,0.682190,-0.599859,0.178731,-0.377943
46288,NaN,8.852080,3.884412,-4.370948,3.873045,-9.440751,-12.714857,-0.271781,-1.114165,1.719500,0.541504,0.697754,0.062012,0.088425,0.039546,-0.043270,0.999947,-0.001359,-0.005571,0.008597,0.684704,-0.602148,0.184724,-0.366709
46289,NaN,9.049893,5.415819,-4.241963,4.595679,-9.415431,-14.223362,-0.513005,-1.075309,1.318270,0.552246,0.697754,0.053955,0.090367,0.054646,-0.042073,0.999961,-0.002565,-0.005376,0.006591,0.686545,-0.604636,0.185954,-0.358459
46290,NaN,9.216426,6.705314,-3.676035,5.419645,-9.079448,-15.434750,-0.857903,-1.075646,0.951825,0.558838,0.691406,0.058105,0.092041,0.067334,-0.036554,0.999965,-0.004289,-0.005378,0.004759,0.685638,-0.609445,0.190063,-0.349792
46291,NaN,9.293314,8.142067,-3.216440,6.158306,-8.762971,-16.761788,-1.170639,-1.112586,0.567779,0.565430,0.682861,0.060303,0.092881,0.081496,-0.032124,0.999963,-0.005853,-0.005563,0.002839,0.684097,-0.614844,0.190029,-0.343318
46292,NaN,9.302834,9.253144,-2.816396,6.633320,-8.495877,-17.807347,-1.286356,-1.147648,0.209286,0.567383,0.689209,0.054199,0.093093,0.092447,-0.028225,0.999962,-0.006432,-0.005738,0.001046,0.680557,-0.621811,0.191616,-0.336863
46293,NaN,9.198484,9.566824,-2.507519,6.846079,-8.226240,-18.051848,-1.181661,-1.180438,-0.118186,0.565430,0.685059,0.058350,0.092189,0.095466,-0.025096,0.999965,-0.005908,-0.005902,-0.000591,0.677793,-0.627913,0.189225,-0.332440
46294,NaN,9.180531,9.372084,-2.199032,6.982954,-8.038054,-17.786464,-0.914027,-1.195086,-0.459985,0.560791,0.693604,0.053955,0.092151,0.093409,-0.021868,0.999969,-0.004570,-0.005975,-0.002300,0.674305,-0.634191,0.187266,-0.328703
46295,NaN,9.327795,9.289224,-1.648434,7.510445,-7.757950,-17.521160,-0.535573,-1.153594,-0.825556,0.552246,0.697754,0.053955,0.093754,0.092462,-0.016192,0.999971,-0.002678,-0.005768,-0.004128,0.672312,-0.638650,0.181643,-0.327306
46296,NaN,9.388078,9.512211,-0.890176,8.170427,-7.283670,-17.532783,-0.141527,-1.051622,-1.208921,0.545654,0.704346,0.037354,0.094499,0.094546,-0.008473,0.999968,-0.000708,-0.005258,-0.006045,0.669922,-0.642663,0.175947,-0.327462
46297,NaN,8.946914,10.065779,-0.214620,8.548034,-6.532220,-17.916374,0.136136,-0.905107,-1.609849,0.532715,0.710693,0.039307,0.090284,0.099934,-0.001671,0.999957,0.000681,-0.004525,-0.008049,0.668493,-0.645080,0.167522,-0.330040
46298,NaN,8.467271,10.741219,0.089040,8.683702,-6.094845,-18.444915,0.217004,-0.733689,-2.062788,0.513184,0.725586,0.026611,0.085770,0.106530,0.001320,0.999939,0.001085,-0.003668,-0.010314,0.665577,-0.647925,0.159034,-0.334526
46299,NaN,8.141192,11.078281,0.179714,8.770364,-5.930847,-18.583932,0.125342,-0.598839,-2.562807,0.493652,0.738525,0.024414,0.082816,0.109726,0.002113,0.999913,0.000627,-0.002994,-0.012814,0.662116,-0.650494,0.148526,-0.341173
46300,NaN,8.428482,10.782640,0.257851,9.124736,-6.199340,-17.915974,-0.130985,-0.476294,-3.128240,0.465576,0.751465,0.021973,0.085951,0.106492,0.002712,0.999875,-0.000655,-0.002381,-0.015641,0.655948,-0.654568,0.137554,-0.349787
46301,NaN,9.454106,9.976693,0.344658,9.862184,-6.895344,-16.461240,-0.455691,-0.338830,-3.718282,0.430908,0.774902,0.023438,0.096368,0.097994,0.003384,0.999823,-0.002278,-0.001694,-0.018590,0.648073,-0.659100,0.125057,-0.360485
46302,NaN,10.809349,8.880372,0.407742,10.644174,-7.783612,-14.498512,-0.769604,-0.170768,-4.242976,0.400879,0.791992,0.020996,0.109942,0.086499,0.003835,0.999767,-0.003848,-0.000854,-0.021213,0.637239,-0.664905,0.112101,-0.373176
46303,NaN,11.914015,7.585675,0.069092,10.818825,-8.718496,-12.341578,-1.025299,0.075654,-4.654297,0.357910,0.809082,0.028564,0.120862,0.073059,0.000266,0.999716,-0.005126,0.000378,-0.023269,0.624926,-0.670454,0.098762,-0.387564
46304,NaN,12.827973,5.628792,-0.329723,10.434032,-9.347162,-9.549193,-1.041147,0.331539,-4.935751,0.314941,0.826416,0.036377,0.129610,0.053081,-0.003793,0.999681,-0.005205,0.001658,-0.024676,0.610917,-0.675720,0.085148,-0.403650
46305,NaN,13.288642,2.865583,-0.753710,9.238958,-9.334487,-6.230127,-0.811115,0.607327,-5.122918,0.276367,0.839111,0.048340,0.133538,0.025209,-0.008049,0.999659,-0.004055,0.003036,-0.025612,0.597374,-0.678926,0.071315,-0.420855
46306,NaN,13.250440,-0.219844,-1.205825,7.344155,-8.716909,-2.948794,-0.372221,0.856120,-5.277529,0.225098,0.852295,0.039551,0.132331,-0.005715,-0.012617,0.999641,-0.001861,0.004280,-0.026384,0.583855,-0.680259,0.056396,-0.439524
46307,NaN,13.388302,-3.536899,-1.257328,5.476508,-7.608746,0.453859,0.167617,1.070613,-5.480369,0.167725,0.863037,0.043213,0.132777,-0.039007,-0.013318,0.999610,0.000838,0.005352,-0.027398,0.571855,-0.678701,0.040503,-0.459027
46308,NaN,15.032722,-8.526324,-1.307871,3.313433,-6.528463,5.894032,0.843096,1.208413,-5.867046,0.116699,0.867432,0.032715,0.147658,-0.089563,-0.014348,0.999543,0.004215,0.006041,-0.029331,0.560064,-0.674757,0.021657,-0.480169
46309,NaN,19.480801,-16.612291,0.408641,1.564109,-4.220426,15.389496,1.191143,1.341505,-6.211170,0.063477,0.872070,0.018066,0.189542,-0.172080,0.001790,0.999478,0.005955,0.006706,-0.031050,0.548738,-0.668526,0.001602,-0.501953
46310,NaN,23.448580,-26.741712,1.653676,-2.950398,-0.510745,25.659686,0.714079,1.614366,-6.253877,0.004150,0.876465,0.011719,0.226091,-0.274628,0.013717,0.999472,0.003570,0.008070,-0.031264,0.534427,-0.662558,-0.017129,-0.524511
46311,NaN,26.297037,-36.624174,1.641399,-9.503507,3.445308,34.150918,-0.044287,1.874271,-5.775550,-0.042236,0.870361,0.017578,0.252390,-0.373630,0.014098,0.999539,-0.000221,0.009370,-0.028873,0.519054,-0.656967,-0.031116,-0.545903
46312,NaN,27.676520,-44.421223,1.580575,-15.648963,7.819190,39.535207,-0.925697,2.293176,-4.680630,-0.073975,0.866211,0.023682,0.266444,-0.450459,0.014787,0.999650,-0.004628,0.011465,-0.023400,0.502768,-0.652508,-0.038310,-0.565676
46313,NaN,25.828903,-46.779428,0.203671,-20.040817,10.433808,38.609615,-2.006716,2.792887,-3.360612,-0.103271,0.862061,0.038086,0.250420,-0.472018,0.003225,0.999711,-0.010033,0.013963,-0.016801,0.487110,-0.648827,-0.036555,-0.583447
46314,NaN,21.411812,-44.510287,-1.030545,-21.430825,12.084254,33.027073,-2.896604,3.186591,-2.219964,-0.122314,0.860107,0.064453,0.209028,-0.447561,-0.007193,0.999707,-0.014482,0.015931,-0.011099,0.471128,-0.646451,-0.027486,-0.599487
46315,NaN,16.329270,-40.564282,-1.835467,-21.015238,13.192708,26.238479,-3.412831,3.307455,-1.422821,-0.132812,0.855713,0.095215,0.160144,-0.407054,-0.014082,0.999692,-0.017062,0.016536,-0.007113,0.456147,-0.644187,-0.014045,-0.613804
46316,NaN,12.793699,-36.218947,-1.687300,-18.802061,13.619989,20.834351,-3.516809,3.262329,-0.882512,-0.141357,0.857910,0.113525,0.126108,-0.362995,-0.012561,0.999703,-0.017582,0.016310,-0.004412,0.441755,-0.642521,0.001767,-0.626112
46317,NaN,10.371303,-30.689025,-1.056710,-15.262552,12.627837,15.839639,-3.470804,3.249735,-0.449455,-0.138916,0.849121,0.140381,0.102891,-0.307263,-0.006913,0.999715,-0.017352,0.016247,-0.002247,0.429049,-0.639839,0.018376,-0.637327
46318,NaN,8.120615,-25.055221,-1.387118,-12.483946,10.643731,10.838413,-3.312369,3.326671,-0.078689,-0.142822,0.844971,0.164795,0.080908,-0.250783,-0.011066,0.999724,-0.016560,0.016632,-0.000393,0.417449,-0.636794,0.036480,-0.647224
46319,NaN,5.756168,-20.551945,-1.711170,-10.517393,9.251555,6.380547,-3.098415,3.416346,0.178730,-0.149414,0.846924,0.185303,0.057478,-0.205710,-0.014908,0.999734,-0.015491,0.017080,0.000894,0.407433,-0.632008,0.054208,-0.656983
46320,NaN,3.694844,-16.781572,-1.823175,-8.768142,8.170301,2.635298,-2.857695,3.455101,0.258917,-0.148926,0.836426,0.203857,0.036871,-0.168012,-0.016469,0.999748,-0.014287,0.017274,0.001294,0.397968,-0.626868,0.072233,-0.665913
46321,NaN,1.921225,-13.436110,-1.873206,-7.261041,7.175700,-0.674391,-2.639644,3.455043,0.219116,-0.155273,0.836426,0.224365,0.019053,-0.134575,-0.017287,0.999763,-0.013197,0.017274,0.001095,0.389088,-0.620393,0.088577,-0.675187
46322,NaN,0.230412,-10.732603,-2.244916,-6.358090,6.437588,-3.615287,-2.424016,3.402370,0.109539,-0.161621,0.834229,0.238525,0.001995,-0.107587,-0.021182,0.999782,-0.012119,0.017011,0.000548,0.380158,-0.614040,0.104549,-0.683743
46324,NaN,-2.169801,-7.539168,-2.973529,-11.168821,11.639307,-5.203409,-2.228725,3.260753,0.000433,-0.174072,0.827881,0.269287,-0.045230,-0.152037,-0.054636,0.999220,-0.022281,0.032599,0.000004,0.362780,-0.599745,0.132110,-0.700888
46325,NaN,-4.628299,-4.849789,-3.130873,-4.443922,5.796450,-10.991942,-2.158462,2.988955,-0.078602,-0.182373,0.821533,0.281738,-0.046758,-0.048809,-0.030087,0.999830,-0.010792,0.014944,-0.000393,0.353856,-0.593737,0.145749,-0.707827
46326,NaN,-5.818650,-3.686481,-2.934533,-3.613117,5.972568,-12.519461,-2.121041,2.722599,-0.167425,-0.190674,0.814941,0.296143,-0.058606,-0.037119,-0.028157,0.999851,-0.010605,0.013612,-0.000837,0.344937,-0.587890,0.157566,-0.714546
46327,NaN,-6.634112,-2.812120,-2.139808,-2.327463,6.169516,-13.420161,-1.997687,2.456334,-0.269621,-0.203125,0.812988,0.306396,-0.066633,-0.028238,-0.020299,0.999874,-0.009988,0.012281,-0.001348,0.336044,-0.583258,0.169030,-0.719940
46328,NaN,-7.311510,-2.239314,-1.139343,-0.944389,6.438300,-13.986868,-1.766519,2.196366,-0.380864,-0.213379,0.804443,0.314697,-0.073275,-0.022348,-0.010392,0.999899,-0.008832,0.010981,-0.001904,0.327639,-0.578585,0.177963,-0.725411
46329,NaN,-7.945859,-2.114574,-0.610967,-0.147700,6.879423,-14.354738,-1.439578,1.917436,-0.453220,-0.219727,0.802246,0.318604,-0.079559,-0.021005,-0.005196,0.999926,-0.007198,0.009587,-0.002266,0.320133,-0.574835,0.185882,-0.729745
46330,NaN,-8.322425,-1.830836,-0.376910,0.371749,6.959057,-14.730813,-1.127531,1.635514,-0.468664,-0.230225,0.795898,0.324951,-0.083293,-0.018132,-0.002986,0.999948,-0.005638,0.008177,-0.002343,0.313653,-0.571080,0.191270,-0.734101
46331,NaN,-8.773210,-1.300395,-0.296589,0.784824,6.885833,-15.354893,-0.840010,1.360114,-0.440437,-0.244873,0.791748,0.324951,-0.087778,-0.012821,-0.002315,0.999966,-0.004200,0.006800,-0.002202,0.308514,-0.568195,0.196080,-0.737242
46332,NaN,-9.258032,-0.645405,0.037746,1.458297,6.739777,-16.023717,-0.561251,1.079429,-0.396740,-0.246826,0.791748,0.331055,-0.092589,-0.006268,0.000895,0.999980,-0.002806,0.005397,-0.001984,0.304400,-0.565461,0.198696,-0.740347
46333,NaN,-9.742458,0.015448,0.214021,1.945696,6.579272,-16.732830,-0.401717,0.784675,-0.362264,-0.251221,0.791748,0.328857,-0.097415,0.000336,0.002522,0.999989,-0.002009,0.003923,-0.001811,0.301490,-0.563806,0.201189,-0.742125
46334,NaN,-9.861680,0.319312,0.527240,2.400668,6.424781,-16.925450,-0.314718,0.489200,-0.300917,-0.265869,0.787598,0.326904,-0.098599,0.003350,0.005508,0.999995,-0.001574,0.002446,-0.001505,0.299000,-0.562766,0.202258,-0.743630
46335,NaN,-9.822386,0.400797,1.020819,2.912544,6.347863,-16.805799,-0.416354,0.236870,-0.214586,-0.261475,0.783447,0.335205,-0.098207,0.004135,0.010316,0.999997,-0.002082,0.001184,-0.001073,0.297304,-0.562897,0.204367,-0.743634
46336,NaN,-9.461050,-0.243954,2.059903,3.719724,6.594600,-15.853304,-0.506662,0.007014,-0.159785,-0.259521,0.787598,0.333008,-0.094612,-0.002312,0.020608,0.999996,-0.002533,0.000035,-0.000799,0.295284,-0.563786,0.205824,-0.743363
46337,NaN,-9.384236,-1.004904,2.902113,4.349648,7.125738,-15.085289,-0.681601,-0.190319,-0.066821,-0.268066,0.789795,0.339111,-0.093873,-0.009919,0.028966,0.999994,-0.003408,-0.000952,-0.000334,0.293996,-0.565620,0.208662,-0.741688
46338,NaN,-9.640491,-1.735913,2.631357,3.978197,7.823930,-14.895649,-0.640039,-0.386070,0.060947,-0.267578,0.774902,0.337402,-0.096450,-0.017305,0.026183,0.999993,-0.003200,-0.001930,0.000305,0.292821,-0.567926,0.210653,-0.739825
46339,NaN,-9.871940,-2.770666,2.441346,3.592757,8.760843,-14.442101,-0.299641,-0.588548,0.212400,-0.259277,0.779053,0.347656,-0.098761,-0.027775,0.024164,0.999994,-0.001498,-0.002943,0.001062,0.294267,-0.570234,0.212244,-0.737016
46340,NaN,-9.584061,-3.879080,2.442280,3.263841,9.405115,-13.521693,0.112168,-0.789012,0.369013,-0.255127,0.781250,0.339355,-0.095864,-0.038981,0.024023,0.999990,0.000561,-0.003945,0.001845,0.296789,-0.572580,0.211734,-0.734327
46341,NaN,-9.085605,-4.183414,2.087701,2.669619,9.323686,-13.029594,0.357394,-1.018303,0.488092,-0.246582,0.785400,0.339355,-0.090858,-0.042093,0.020339,0.999982,0.001787,-0.005091,0.002440,0.301790,-0.575044,0.211035,-0.730555
46342,NaN,-9.338152,-3.260750,1.073803,1.783939,8.821340,-14.053720,0.283985,-1.280467,0.711176,-0.242432,0.783203,0.335205,-0.093331,-0.032954,0.010094,0.999972,0.001420,-0.006402,0.003556,0.306556,-0.578527,0.210119,-0.726071
46343,NaN,-9.112186,-4.065400,0.182883,0.561790,9.247343,-13.522332,0.211708,-1.560291,0.820839,-0.233887,0.783203,0.337402,-0.090964,-0.041029,0.001075,0.999961,0.001059,-0.007801,0.004104,0.313077,-0.582648,0.210047,-0.719989
46344,NaN,-8.096062,-7.597254,-0.188061,-0.833347,11.052181,-10.484407,0.377981,-1.819472,0.917791,-0.219238,0.789551,0.335205,-0.080588,-0.076338,-0.002759,0.999946,0.001890,-0.009097,0.004589,0.319385,-0.587612,0.208515,-0.713601
46345,NaN,-6.230603,-12.359763,-0.369169,-2.457785,13.048933,-5.888633,0.913338,-2.117345,1.042342,-0.202393,0.789551,0.322998,-0.061613,-0.123899,-0.004912,0.999920,0.004567,-0.010586,0.005212,0.329437,-0.592147,0.205656,-0.706073
46346,NaN,-4.358354,-16.505077,-0.961642,-4.414803,14.432087,-1.778534,1.419601,-2.392933,1.289849,-0.192139,0.800049,0.314697,-0.042390,-0.165250,-0.011301,0.999882,0.007098,-0.011964,0.006449,0.340624,-0.596861,0.200512,-0.698232
46347,NaN,-2.737006,-19.227053,-2.919683,-7.459204,14.579611,1.025315,1.796155,-2.690641,1.693385,-0.164795,0.804199,0.310791,-0.025331,-0.192216,-0.031273,0.999833,0.008980,-0.013452,0.008466,0.356193,-0.600868,0.195479,-0.688384
46348,NaN,-1.097620,-21.596844,-4.645239,-10.184666,14.244566,3.697484,1.845431,-2.988524,2.183174,-0.141846,0.812744,0.294189,-0.007906,-0.215624,-0.048577,0.999786,0.009226,-0.014942,0.010915,0.372104,-0.605606,0.190337,-0.677165
46349,NaN,-0.460355,-25.005912,-6.632285,-13.437819,14.837920,6.578602,1.780954,-3.275155,2.607977,-0.112549,0.825439,0.281982,-0.000237,-0.249477,-0.068574,0.999741,0.008904,-0.016374,0.013039,0.391111,-0.610160,0.186974,-0.663157
46350,NaN,0.276989,-31.631103,-7.000089,-16.106359,17.374626,12.281791,2.024757,-3.637008,2.849121,-0.085205,0.827393,0.263672,0.008579,-0.315487,-0.073077,0.999682,0.010123,-0.018183,0.014244,0.410017,-0.615403,0.181796,-0.648163
46351,NaN,2.485724,-41.733437,-7.153452,-19.685749,20.182881,21.871396,2.350619,-3.973243,3.050876,-0.051514,0.833740,0.245361,0.032689,-0.416001,-0.075832,0.999617,0.011752,-0.019864,0.015252,0.432408,-0.619846,0.176450,-0.630618
46352,NaN,5.708961,-49.580681,-8.709045,-23.891456,19.777431,30.240570,3.104219,-4.231236,3.175364,-0.011719,0.844238,0.214600,0.066868,-0.493379,-0.093416,0.999530,0.015519,-0.021153,0.015874,0.455575,-0.623384,0.167289,-0.613072
46353,NaN,11.340930,-52.486709,-9.412467,-25.133363,14.009464,36.484453,4.052782,-4.442108,3.480414,0.020020,0.844238,0.175781,0.124704,-0.520748,-0.102020,0.999397,0.020260,-0.022206,0.017399,0.484173,-0.623835,0.156911,-0.593115
46354,NaN,17.767723,-51.280251,-9.805896,-23.901003,5.420256,39.584715,4.439423,-4.302510,3.841294,0.060059,0.854736,0.135010,0.189667,-0.506951,-0.105362,0.999338,0.022192,-0.021508,0.019202,0.512469,-0.622422,0.145225,-0.573477
46355,NaN,22.252679,-45.715027,-10.151878,-20.383463,-3.801415,37.700174,4.249271,-3.808374,4.195648,0.104492,0.852539,0.092285,0.234019,-0.450089,-0.106749,0.999373,0.021242,-0.019038,0.020974,0.541783,-0.618446,0.138012,-0.552222
46356,NaN,22.221040,-37.865793,-9.693062,-16.055777,-9.081687,31.184579,3.552171,-3.171883,4.418111,0.142822,0.846191,0.063965,0.232045,-0.371846,-0.099947,0.999473,0.017758,-0.015857,0.022087,0.566871,-0.614209,0.133218,-0.532595
46357,NaN,19.030855,-31.409903,-8.895160,-12.833662,-10.465908,24.147535,2.519922,-2.717968,4.603639,0.183350,0.837402,0.041748,0.198673,-0.308458,-0.090200,0.999563,0.012598,-0.013588,0.023015,0.589541,-0.610628,0.134871,-0.511257
46358,NaN,16.725691,-27.517306,-7.656115,-10.141290,-10.592025,19.856750,1.511028,-2.510938,4.732620,0.225830,0.833008,0.029785,0.174656,-0.270520,-0.076455,0.999613,0.007554,-0.012553,0.023660,0.607722,-0.609168,0.138019,-0.490448
46359,NaN,16.307699,-24.517097,-7.136141,-7.435293,-11.923125,17.025776,0.805972,-2.438756,4.693015,0.260254,0.818115,0.017822,0.169626,-0.240957,-0.070296,0.999642,0.004029,-0.012192,0.023462,0.623793,-0.609110,0.144979,-0.467813
46360,NaN,16.128928,-21.210680,-7.272657,-5.150581,-13.399015,13.781887,0.553913,-2.351336,4.510598,0.298828,0.798828,0.010254,0.166859,-0.208186,-0.071367,0.999673,0.002769,-0.011755,0.022551,0.637535,-0.609416,0.150054,-0.446817
46361,NaN,15.028414,-17.296853,-6.902053,-2.883081,-13.638730,9.635611,0.583209,-2.210059,4.268089,0.331299,0.783936,0.000244,0.154680,-0.169500,-0.067825,0.999707,0.002916,-0.011049,0.021338,0.650553,-0.609158,0.156810,-0.425580
46362,NaN,13.533257,-12.981646,-6.257395,-0.897455,-13.049098,5.008821,0.663968,-2.088394,3.961171,0.354736,0.773193,-0.011719,0.138512,-0.126888,-0.061563,0.999744,0.003320,-0.010441,0.019804,0.662479,-0.608183,0.160644,-0.406729
46363,NaN,12.424363,-8.653276,-5.793581,0.910288,-12.547344,0.410198,0.735495,-2.022381,3.567556,0.385010,0.756104,-0.019287,0.126338,-0.084081,-0.056978,0.999783,0.003677,-0.010111,0.017836,0.673356,-0.607053,0.165387,-0.388233
46364,NaN,11.781437,-4.361928,-4.947165,2.953264,-11.789304,-3.932868,0.734873,-1.905460,3.148904,0.406738,0.743408,-0.035400,0.118945,-0.041573,-0.048497,0.999824,0.003674,-0.009527,0.015744,0.683160,-0.605570,0.167090,-0.372368
46365,NaN,11.398280,-0.151592,-4.506981,4.631071,-11.239451,-8.240756,0.629446,-1.779924,2.729545,0.421875,0.730469,-0.043213,0.114383,0.000183,-0.044054,0.999862,0.003147,-0.008899,0.013647,0.691220,-0.604668,0.170117,-0.357283
46366,NaN,11.348401,3.603208,-4.534632,5.913296,-11.051089,-12.099233,0.443158,-1.683586,2.322431,0.439209,0.717773,-0.053223,0.113431,0.037448,-0.044309,0.999895,0.002216,-0.008418,0.011612,0.698072,-0.604108,0.170526,-0.344486
46367,NaN,11.605107,6.586363,-4.518238,7.071058,-10.949171,-15.158786,0.210937,-1.615435,1.930868,0.450195,0.707031,-0.052979,0.115767,0.067029,-0.044176,0.999920,0.001055,-0.008077,0.009654,0.702891,-0.604834,0.172224,-0.332353
46368,NaN,11.631621,8.631100,-3.890459,8.151693,-10.216902,-17.166961,-0.089576,-1.559941,1.573393,0.456787,0.702881,-0.063232,0.115931,0.087207,-0.038038,0.999939,-0.000448,-0.007800,0.007867,0.706538,-0.606353,0.171654,-0.321987
46369,NaN,11.337807,9.767023,-3.172854,8.710880,-9.262269,-18.317698,-0.382068,-1.551520,1.224525,0.467529,0.694336,-0.067139,0.113020,0.098303,-0.031038,0.999949,-0.001910,-0.007757,0.006123,0.708085,-0.609556,0.172166,-0.312116
46370,NaN,10.970770,10.177008,-2.416170,9.064524,-8.281922,-18.701408,-0.515083,-1.570519,0.869132,0.469971,0.687988,-0.066895,0.109451,0.102185,-0.023564,0.999956,-0.002575,-0.007852,0.004346,0.709195,-0.613059,0.170066,-0.303773
46371,NaN,10.805421,10.343613,-1.777600,9.391752,-7.575713,-18.829867,-0.465197,-1.561172,0.453097,0.468018,0.683594,-0.072998,0.107955,0.103640,-0.017174,0.999964,-0.002326,-0.007806,0.002265,0.709158,-0.617145,0.168057,-0.296620
46372,NaN,10.803599,10.626471,-1.474165,9.713939,-7.225216,-19.045621,-0.295345,-1.468594,-0.011391,0.463623,0.683838,-0.079102,0.108147,0.106237,-0.014105,0.999972,-0.001477,-0.007343,-0.000057,0.709446,-0.620366,0.163264,-0.291850
46373,NaN,10.405926,11.175283,-1.128045,9.802627,-6.623295,-19.532823,-0.033874,-1.334552,-0.506283,0.459229,0.690186,-0.085449,0.104414,0.111487,-0.010603,0.999975,-0.000169,-0.006673,-0.002531,0.709068,-0.623327,0.158189,-0.289245
46374,NaN,9.969824,11.460033,-0.537494,10.005560,-5.827668,-19.658607,0.195951,-1.168135,-0.981155,0.450928,0.686035,-0.085449,0.100288,0.114114,-0.004678,0.999970,0.000980,-0.005841,-0.004906,0.709164,-0.625084,0.150717,-0.289207
46375,NaN,9.562321,11.611361,0.058208,10.198944,-5.105928,-19.619362,0.279166,-0.986047,-1.442109,0.431641,0.692383,-0.097900,0.096452,0.115419,0.001218,0.999961,0.001396,-0.004930,-0.007210,0.708078,-0.627090,0.143223,-0.291326
46376,NaN,9.332070,11.677476,0.642428,10.541587,-4.523677,-19.418303,0.245592,-0.773935,-1.855562,0.423096,0.696777,-0.106201,0.094373,0.115894,0.006931,0.999949,0.001228,-0.003870,-0.009278,0.706665,-0.628650,0.134316,-0.295608
46377,NaN,9.294364,11.431835,1.004757,10.816930,-4.312896,-18.893739,0.099506,-0.531827,-2.222523,0.404053,0.696777,-0.108154,0.094179,0.113271,0.010353,0.999935,0.000498,-0.002659,-0.011112,0.703456,-0.631027,0.125931,-0.301821
46378,NaN,9.362832,10.925558,1.075600,10.942802,-4.432646,-18.106245,-0.097762,-0.270843,-2.538964,0.380127,0.711670,-0.102539,0.094991,0.108061,0.010831,0.999918,-0.000489,-0.001354,-0.012694,0.699431,-0.633333,0.117121,-0.309788
46379,NaN,9.244892,9.935741,0.965624,10.638665,-4.647621,-16.906729,-0.334547,0.043594,-2.843737,0.362793,0.726807,-0.102783,0.093851,0.098046,0.009471,0.999897,-0.001673,0.000218,-0.014218,0.693366,-0.636488,0.109116,-0.319719
46380,NaN,9.005009,8.571692,0.441751,9.843131,-5.121997,-15.436164,-0.610754,0.375425,-3.189725,0.335205,0.729004,-0.096924,0.091410,0.084279,0.003988,0.999866,-0.003054,0.001877,-0.015948,0.686028,-0.639667,0.101245,-0.331574
46381,NaN,9.216639,7.191515,0.020825,9.356488,-5.771888,-13.786409,-0.826975,0.677848,-3.570652,0.307129,0.739746,-0.091064,0.093430,0.070254,-0.000400,0.999826,-0.004135,0.003389,-0.017852,0.676510,-0.643493,0.093575,-0.345680
46382,NaN,10.044114,5.660273,-0.172283,9.300823,-6.539402,-11.726887,-1.007199,0.997123,-3.944304,0.277100,0.754639,-0.085205,0.101520,0.054596,-0.002506,0.999780,-0.005036,0.004985,-0.019720,0.665840,-0.646887,0.085995,-0.361661
46383,NaN,10.909050,3.397561,-0.242781,8.917381,-7.086612,-8.892109,-1.036326,1.304390,-4.262441,0.247314,0.759033,-0.075195,0.109762,0.031625,-0.003310,0.999738,-0.005181,0.006521,-0.021310,0.653519,-0.650038,0.078236,-0.379793
46384,NaN,11.613129,0.436251,0.163714,8.236724,-6.918049,-5.413443,-0.973722,1.587600,-4.489077,0.208740,0.769775,-0.071533,0.116198,0.001760,0.000702,0.999705,-0.004868,0.007937,-0.022443,0.641020,-0.651776,0.070678,-0.399107
46385,NaN,11.896439,-2.379472,0.296184,6.952075,-6.538209,-2.318250,-0.938121,1.833333,-4.595682,0.172852,0.771973,-0.063477,0.118397,-0.026509,0.001995,0.999683,-0.004690,0.009166,-0.022976,0.627348,-0.652919,0.063045,-0.419711
46386,NaN,12.249314,-5.588014,-0.212044,4.947578,-6.412080,0.943133,-0.790814,1.997928,-4.594389,0.138672,0.778564,-0.055664,0.121139,-0.058684,-0.003107,0.999678,-0.003954,0.009989,-0.022969,0.614299,-0.652452,0.055971,-0.440239
46387,NaN,12.751887,-9.164906,-1.121811,2.365037,-6.327604,4.406450,-0.630640,2.136362,-4.547834,0.102539,0.782959,-0.055908,0.125263,-0.094552,-0.012269,0.999679,-0.003153,0.010681,-0.022737,0.600759,-0.651116,0.048533,-0.461283
46388,NaN,13.858263,-14.291477,-1.165292,-0.316016,-5.306983,9.404933,-0.365922,2.218904,-4.475080,0.070801,0.785156,-0.058105,0.135200,-0.145988,-0.012900,0.999686,-0.001829,0.011093,-0.022373,0.588526,-0.647987,0.041477,-0.481695
46389,NaN,16.555520,-21.647084,-0.402489,-3.142402,-3.626560,17.014232,-0.288815,2.298543,-4.461472,0.039062,0.783203,-0.060303,0.160614,-0.220098,-0.005574,0.999684,-0.001444,0.011492,-0.022305,0.575382,-0.644428,0.033890,-0.502494
46390,NaN,20.108430,-29.583728,0.189956,-6.462681,-2.021111,25.308692,-0.388188,2.498079,-4.418909,0.001221,0.777100,-0.060303,0.194492,-0.300182,0.000023,0.999676,-0.001941,0.012489,-0.022092,0.562426,-0.639817,0.027822,-0.523008
46391,NaN,21.497322,-35.354847,-0.318137,-10.822049,-0.113725,30.122227,-0.464692,2.863134,-4.225920,-0.024170,0.770752,-0.056152,0.207373,-0.357995,-0.005358,0.999672,-0.002323,0.014314,-0.021127,0.548396,-0.634499,0.023057,-0.544189
46392,NaN,20.942800,-38.840695,-1.040490,-14.978651,2.106887,31.650758,-0.418109,3.100003,-3.832976,-0.049316,0.768799,-0.064453,0.201748,-0.392348,-0.012754,0.999694,-0.002090,0.015498,-0.019163,0.536123,-0.627467,0.020546,-0.564301
46393,NaN,20.596278,-40.292038,-0.987631,-17.189548,4.016318,31.862324,-0.556908,3.233047,-3.322928,-0.066406,0.768799,-0.056396,0.199048,-0.406297,-0.012003,0.999727,-0.002784,0.016164,-0.016613,0.523505,-0.620659,0.020086,-0.583371
46394,NaN,18.912246,-40.709820,0.019917,-18.270215,6.728924,30.631628,-0.694063,3.339351,-2.794542,-0.083008,0.762451,-0.060303,0.183394,-0.409691,-0.001476,0.999757,-0.003470,0.016695,-0.013972,0.512745,-0.612874,0.022192,-0.600821
46395,NaN,15.815362,-39.617566,0.737933,-18.620924,9.433509,27.395061,-0.913214,3.385789,-2.251957,-0.093506,0.753906,-0.048096,0.153795,-0.397893,0.006565,0.999783,-0.004566,0.016928,-0.011259,0.501619,-0.606008,0.026776,-0.616779
46396,NaN,12.467989,-36.797916,1.105839,-17.893472,10.976040,22.899363,-1.037299,3.338956,-1.698513,-0.099609,0.751953,-0.041992,0.121732,-0.368964,0.010922,0.999811,-0.005186,0.016694,-0.008492,0.492705,-0.598433,0.033216,-0.630885
46397,NaN,9.475899,-32.565447,1.546752,-15.793778,11.481622,17.961614,-1.055398,3.211763,-1.194851,-0.101562,0.747559,-0.033691,0.093062,-0.326131,0.015684,0.999839,-0.005277,0.016058,-0.005974,0.484134,-0.591992,0.041303,-0.643003
46398,NaN,6.893524,-27.609980,1.646219,-13.337993,10.885677,12.906002,-1.084045,3.059939,-0.759096,-0.103516,0.741211,-0.027344,0.068143,-0.276269,0.016913,0.999861,-0.005420,0.015299,-0.003795,0.477795,-0.584861,0.049961,-0.653570
46399,NaN,4.940905,-22.868827,1.404357,-11.001223,9.719371,8.459516,-1.183375,2.920441,-0.405078,-0.101562,0.743408,-0.023438,0.049157,-0.228702,0.014678,0.999874,-0.005917,0.014602,-0.002025,0.471292,-0.579223,0.060337,-0.662377
46400,NaN,3.100048,-18.601197,0.755910,-9.268232,8.439058,4.296403,-1.302972,2.833763,-0.154498,-0.094727,0.734863,-0.010986,0.030971,-0.185983,0.008332,0.999878,-0.006515,0.014168,-0.000772,0.466104,-0.572892,0.070893,-0.670459
46401,NaN,1.146778,-14.767989,0.238533,-7.613729,7.551468,0.408348,-1.362972,2.762207,-0.032778,-0.096924,0.732666,0.001465,0.011484,-0.147662,0.003233,0.999881,-0.006815,0.013810,-0.000164,0.460219,-0.567819,0.082722,-0.677449
46402,NaN,-0.727580,-11.349989,-0.019743,-6.000127,6.939288,-3.090040,-1.440171,2.657105,-0.041873,-0.090332,0.726318,0.011719,-0.007294,-0.113495,0.000717,0.999886,-0.007201,0.013285,-0.000209,0.454847,-0.562092,0.093604,-0.684401
46403,NaN,-2.209963,-8.498372,-0.148240,-4.523980,6.432730,-5.903848,-1.494657,2.535791,-0.151339,-0.087891,0.719727,0.022217,-0.022175,-0.084973,-0.000566,0.999891,-0.007473,0.012678,-0.000757,0.448137,-0.557876,0.105099,-0.690581
46404,NaN,-3.493649,-6.280547,-0.179352,-3.309363,6.165602,-8.165365,-1.566300,2.396177,-0.311723,-0.087891,0.717529,0.042480,-0.035049,-0.062760,-0.000882,0.999896,-0.007831,0.011980,-0.001559,0.441396,-0.553224,0.115015,-0.697054
46405,NaN,-4.611808,-4.768994,-0.206628,-2.424862,6.178203,-9.855842,-1.606022,2.232634,-0.448186,-0.087646,0.711182,0.048828,-0.046241,-0.047598,-0.001168,0.999903,-0.008030,0.011163,-0.002241,0.433408,-0.550195,0.125403,-0.702650
46406,NaN,-5.247379,-3.899437,-0.062143,-1.709924,6.238559,-10.760548,-1.648420,2.047606,-0.550052,-0.095947,0.704834,0.067383,-0.052581,-0.038850,0.000237,0.999910,-0.008242,0.010238,-0.002750,0.425629,-0.546875,0.134126,-0.708363
46407,NaN,-5.988550,-3.217164,0.111246,-1.047097,6.475537,-11.599811,-1.708537,1.864406,-0.574585,-0.093750,0.700684,0.077637,-0.059962,-0.031985,0.001945,0.999916,-0.008542,0.009322,-0.002873,0.417106,-0.545175,0.143711,-0.712849
46408,NaN,-7.075325,-2.251035,0.014366,-0.485357,6.706230,-12.961697,-1.749052,1.680291,-0.549702,-0.097656,0.694092,0.090088,-0.070809,-0.022310,0.000934,0.999923,-0.008745,0.008401,-0.002748,0.409151,-0.543193,0.151960,-0.717248
46409,NaN,-8.468278,-1.116491,0.015944,0.246090,7.070637,-14.598314,-1.684758,1.463772,-0.514382,-0.093262,0.691895,0.108398,-0.084706,-0.010942,0.000872,0.999934,-0.008424,0.007319,-0.002572,0.401220,-0.542578,0.160762,-0.720269
46410,NaN,-9.565142,-0.317819,0.295934,1.059970,7.451807,-15.730975,-1.544472,1.209809,-0.476192,-0.099365,0.681396,0.112793,-0.095638,-0.002925,0.003561,0.999949,-0.007722,0.006049,-0.002381,0.394335,-0.541680,0.167471,-0.723213
46411,NaN,-10.205468,-0.117636,0.733696,1.711010,7.878082,-16.114352,-1.379381,0.922655,-0.431321,-0.101318,0.681396,0.125000,-0.102022,-0.000904,0.007815,0.999963,-0.006897,0.004613,-0.002157,0.388085,-0.542114,0.174292,-0.724655
46412,NaN,-10.625432,-0.076200,1.068885,2.175725,8.200695,-16.298236,-1.272477,0.642810,-0.316747,-0.101074,0.670654,0.133301,-0.106220,-0.000524,0.011034,0.999973,-0.006362,0.003214,-0.001584,0.382931,-0.542520,0.179308,-0.725868
46413,NaN,-11.092510,-0.093023,1.212295,2.409144,8.573714,-16.536474,-1.162063,0.370011,-0.165603,-0.098877,0.670654,0.133301,-0.110903,-0.000767,0.012333,0.999981,-0.005810,0.001850,-0.000828,0.378922,-0.544100,0.184982,-0.725365
46414,NaN,-11.571203,-0.111293,1.253825,2.531092,8.938009,-16.825729,-1.049633,0.078441,-0.012283,-0.098633,0.662109,0.143799,-0.115707,-0.001040,0.012589,0.999986,-0.005248,0.000392,-0.000061,0.375957,-0.545813,0.188923,-0.724605
46415,NaN,-11.785637,-0.339784,1.363418,2.564588,9.272453,-16.763952,-0.935699,-0.196246,0.127818,-0.092285,0.659912,0.149902,-0.117868,-0.003410,0.013534,0.999988,-0.004678,-0.000981,0.000639,0.374409,-0.548552,0.193505,-0.722125
46416,NaN,-11.559321,-0.693947,1.660125,2.664423,9.373963,-16.284543,-0.775398,-0.474284,0.243032,-0.085449,0.649414,0.152100,-0.115624,-0.007016,0.016354,0.999989,-0.003877,-0.002371,0.001215,0.373628,-0.551479,0.196103,-0.719594
46417,NaN,-11.165598,-0.962571,1.974356,2.750307,9.319742,-15.734923,-0.574779,-0.721631,0.354262,-0.083252,0.647217,0.152344,-0.111709,-0.009768,0.019368,0.999988,-0.002874,-0.003608,0.001771,0.374673,-0.555024,0.199028,-0.715512
46418,NaN,-10.696314,-1.259664,2.247078,2.774825,9.211962,-15.149953,-0.310275,-0.931063,0.466137,-0.081055,0.643066,0.146240,-0.107037,-0.012812,0.021992,0.999985,-0.001551,-0.004655,0.002331,0.376414,-0.558468,0.199707,-0.711719
46419,NaN,-10.189006,-1.668111,2.610900,2.818849,9.182836,-14.410898,-0.076273,-1.105643,0.553296,-0.072510,0.638672,0.146240,-0.101986,-0.016953,0.025552,0.999981,-0.000381,-0.005528,0.002766,0.380205,-0.562041,0.200675,-0.706600
46420,NaN,-9.874156,-2.055309,1.865797,1.838452,9.112031,-14.147867,0.090681,-1.235801,0.654073,-0.063721,0.634521,0.142334,-0.098786,-0.020884,0.018038,0.999975,0.000453,-0.006179,0.003270,0.384015,-0.565568,0.199862,-0.701941
46421,NaN,-10.130971,-2.755850,1.042310,0.687618,9.661163,-13.996510,0.417844,-1.376087,0.745957,-0.059570,0.630127,0.130127,-0.101274,-0.027957,0.009668,0.999967,0.002089,-0.006880,0.003730,0.390379,-0.568725,0.199097,-0.696072
46422,NaN,-10.333821,-3.607514,0.590548,-0.183073,10.280985,-13.609437,0.615521,-1.488714,0.832706,-0.052734,0.619629,0.124268,-0.103226,-0.036521,0.005025,0.999959,0.003078,-0.007443,0.004163,0.396507,-0.571856,0.196432,-0.690780
46423,NaN,-10.430386,-4.296901,0.589774,-0.631511,10.790108,-13.095156,0.777446,-1.635939,0.883641,-0.046387,0.615234,0.103760,-0.104155,-0.043450,0.004877,0.999949,0.003887,-0.008180,0.004418,0.404809,-0.574817,0.194296,-0.684079
46424,NaN,-9.329845,-6.036562,0.246373,-1.773742,10.886206,-11.186116,0.930205,-1.757830,0.879885,-0.040039,0.615234,0.099854,-0.093047,-0.060783,0.001363,0.999941,0.004651,-0.008789,0.004399,0.412190,-0.578062,0.190098,-0.678090
46425,NaN,-7.466324,-9.256832,-0.843859,-4.130681,11.008181,-7.838246,1.044990,-1.911655,0.967221,-0.031250,0.611084,0.083496,-0.074126,-0.092879,-0.009634,0.999929,0.005225,-0.009558,0.004836,0.421943,-0.581040,0.186725,-0.670440
46426,NaN,-5.925989,-14.380553,-2.105778,-7.319773,12.280084,-3.334995,1.233268,-2.149997,1.207645,-0.027100,0.608887,0.073486,-0.058153,-0.144023,-0.022575,0.999905,0.006166,-0.010750,0.006038,0.431555,-0.584467,0.181570,-0.662715
46427,NaN,-4.424909,-21.809987,-2.130067,-10.283783,14.877999,3.327062,1.530653,-2.579890,1.461318,-0.014160,0.602539,0.057129,-0.042361,-0.218240,-0.023525,0.999861,0.007653,-0.012899,0.007306,0.444982,-0.587819,0.176621,-0.652123
46428,NaN,-1.664882,-32.507966,-0.319961,-12.809415,18.518120,13.694417,1.684238,-3.094454,1.697588,-0.000977,0.592041,0.043213,-0.013809,-0.325161,-0.006166,0.999809,0.008421,-0.015471,0.008487,0.458127,-0.592554,0.169226,-0.640594
46429,NaN,2.762594,-45.012654,-0.464423,-17.673911,20.450946,26.287908,1.719082,-3.587403,2.233809,0.009766,0.585693,0.029053,0.032774,-0.449721,-0.007954,0.999740,0.008595,-0.017935,0.011168,0.475324,-0.597468,0.163744,-0.624729
46430,NaN,7.350401,-53.368261,-2.435752,-22.402443,18.764263,35.506515,2.141930,-3.725336,3.175833,0.031006,0.581299,0.016846,0.082469,-0.532129,-0.028582,0.999643,0.010708,-0.018624,0.015877,0.494534,-0.601205,0.157655,-0.607563
46431,NaN,11.185169,-54.450156,-3.399711,-23.057447,13.284195,39.103493,2.867885,-3.758722,4.004160,0.052246,0.579102,-0.001465,0.123423,-0.541567,-0.039530,0.999520,0.014337,-0.018791,0.020018,0.520202,-0.601390,0.153651,-0.586610
46432,NaN,15.833648,-53.621561,-2.726936,-20.974077,6.752238,41.637576,3.400770,-3.526382,4.762775,0.077881,0.574951,-0.029785,0.171589,-0.531701,-0.033389,0.999416,0.017001,-0.017628,0.023809,0.546810,-0.598883,0.148763,-0.565868
46433,NaN,21.561640,-50.790242,-3.576514,-18.134269,-2.640357,42.347820,3.454382,-3.153839,5.000592,0.109863,0.566162,-0.037842,0.228831,-0.501613,-0.040927,0.999414,0.017269,-0.015766,0.024998,0.575308,-0.593565,0.147673,-0.543042
46434,NaN,23.438576,-42.989730,-4.479136,-13.983596,-9.736998,36.302106,3.281012,-2.540481,4.976956,0.139893,0.557617,-0.051758,0.245574,-0.423101,-0.048698,0.999475,0.016402,-0.012700,0.024880,0.600140,-0.587045,0.146176,-0.523300
46435,NaN,21.677076,-34.769045,-4.388271,-9.836564,-12.722076,28.121838,2.694796,-1.988250,4.878741,0.167725,0.542725,-0.061523,0.225607,-0.341645,-0.046300,0.999562,0.013472,-0.009940,0.024390,0.623486,-0.579752,0.150036,-0.502635
46436,NaN,20.115334,-29.038428,-4.310841,-6.926484,-14.148758,22.093473,1.891832,-1.712969,4.794688,0.193359,0.538330,-0.063477,0.208405,-0.285032,-0.044057,0.999631,0.009458,-0.008564,0.023970,0.642084,-0.574356,0.153810,-0.483928
46437,NaN,19.439076,-24.584333,-4.194266,-4.040004,-15.481604,17.457519,1.097385,-1.495332,4.608435,0.227539,0.529785,-0.061035,0.200295,-0.241044,-0.041791,0.999692,0.005486,-0.007476,0.023040,0.658278,-0.570338,0.162143,-0.463783
46438,NaN,18.410301,-20.570608,-4.705030,-2.256901,-16.179724,12.929685,0.566233,-1.304604,4.338641,0.253174,0.523193,-0.061035,0.188809,-0.201512,-0.046403,0.999739,0.002831,-0.006522,0.021691,0.670848,-0.567840,0.168891,-0.446090
46439,NaN,17.086953,-16.646879,-4.951797,-0.602159,-16.128963,8.435781,0.279033,-1.278944,4.071232,0.283203,0.510254,-0.054443,0.174522,-0.162873,-0.048639,0.999771,0.001395,-0.006394,0.020355,0.682116,-0.565991,0.177947,-0.427442
46440,NaN,15.720255,-12.835923,-4.678948,1.019430,-15.307257,4.271750,0.167383,-1.360480,3.734241,0.300293,0.508057,-0.056396,0.159876,-0.125352,-0.045814,0.999802,0.000837,-0.006802,0.018670,0.691654,-0.564899,0.183507,-0.410887
46441,NaN,14.326400,-9.009037,-4.320571,2.460985,-14.152265,0.122091,0.186402,-1.411599,3.307984,0.328125,0.495361,-0.053955,0.145028,-0.087662,-0.042269,0.999838,0.000932,-0.007058,0.016539,0.700268,-0.563995,0.189782,-0.394357
46442,NaN,12.520400,-5.141138,-4.125471,3.238057,-12.521646,-4.075311,0.214563,-1.421889,2.865418,0.347656,0.486572,-0.047607,0.126212,-0.049564,-0.040414,0.999872,0.001073,-0.007109,0.014326,0.707790,-0.563262,0.192461,-0.380432
46443,NaN,10.793671,-1.378572,-4.229500,3.584939,-10.990390,-8.186900,0.219934,-1.474727,2.405598,0.366699,0.482422,-0.053711,0.108400,-0.012438,-0.041511,0.999900,0.001100,-0.007373,0.012028,0.714218,-0.562997,0.195547,-0.367000
46444,NaN,9.910828,1.980443,-4.216653,4.258298,-9.920332,-11.649933,0.125417,-1.580202,1.889017,0.375488,0.478027,-0.055420,0.099244,0.020767,-0.041370,0.999924,0.000627,-0.007901,0.009445,0.719535,-0.563565,0.195002,-0.355863
46445,NaN,9.672564,4.718029,-3.992653,5.193647,-9.178123,-14.345253,-0.067396,-1.687071,1.350681,0.385986,0.475830,-0.051270,0.096736,0.047820,-0.039127,0.999942,-0.000337,-0.008435,0.006753,0.723121,-0.565611,0.194553,-0.345442
46446,NaN,9.549230,6.593622,-3.397687,6.171766,-8.338011,-16.024957,-0.215431,-1.802672,0.808659,0.394531,0.475830,-0.057373,0.095526,0.066286,-0.033187,0.999951,-0.001077,-0.009013,0.004043,0.725632,-0.568695,0.190710,-0.337154
46447,NaN,9.319004,7.437337,-2.492551,6.938646,-7.336449,-16.624456,-0.273292,-1.903684,0.342410,0.401123,0.471680,-0.063477,0.093295,0.074500,-0.024140,0.999952,-0.001366,-0.009518,0.001712,0.726938,-0.572740,0.186660,-0.329678
46448,NaN,8.809887,7.779382,-1.746384,7.273590,-6.321091,-16.763907,-0.287260,-1.956417,-0.047390,0.402832,0.482178,-0.067627,0.088283,0.077749,-0.016713,0.999951,-0.001436,-0.009782,-0.000237,0.727833,-0.577033,0.179903,-0.323924
46449,NaN,8.198352,8.275422,-1.190560,7.413772,-5.374976,-17.110396,-0.223889,-1.974004,-0.391333,0.405029,0.478027,-0.073730,0.082258,0.082581,-0.011187,0.999949,-0.001119,-0.009870,-0.001957,0.728024,-0.581582,0.173102,-0.319030
46450,NaN,7.825996,9.109005,-0.848843,7.698621,-4.721026,-17.773930,-0.111553,-1.940725,-0.708983,0.400391,0.486572,-0.078125,0.078660,0.090807,-0.007777,0.999946,-0.000558,-0.009703,-0.003545,0.728214,-0.585674,0.164170,-0.315814
46451,NaN,7.719040,10.124176,-0.923281,7.966990,-4.565261,-18.679318,-0.057130,-1.836879,-1.022391,0.396240,0.490723,-0.086426,0.077787,0.100843,-0.008549,0.999945,-0.000286,-0.009184,-0.005112,0.727664,-0.589800,0.155475,-0.313796
46452,NaN,7.400137,11.077072,-1.315864,7.912846,-4.563638,-19.597916,-0.087488,-1.713348,-1.340182,0.387207,0.501465,-0.096680,0.074851,0.110265,-0.012568,0.999941,-0.000437,-0.008567,-0.006701,0.726597,-0.593823,0.145444,-0.313494
46453,NaN,6.979784,11.570536,-1.711230,7.662740,-4.615186,-20.083985,-0.165497,-1.558956,-1.674582,0.378662,0.503662,-0.100830,0.070894,0.115101,-0.016658,0.999934,-0.000827,-0.007795,-0.008373,0.724361,-0.598250,0.135735,-0.314601
46454,NaN,6.737874,11.282746,-1.773484,7.542787,-4.636732,-19.684078,-0.284402,-1.397212,-2.017359,0.363770,0.508057,-0.107178,0.068634,0.112114,-0.017418,0.999924,-0.001422,-0.006986,-0.010087,0.721235,-0.602811,0.125105,-0.317471
46455,NaN,6.781745,10.365256,-1.377697,7.682883,-4.548901,-18.507604,-0.443949,-1.215103,-2.325455,0.348389,0.520752,-0.111572,0.069099,0.102824,-0.013589,0.999911,-0.002220,-0.006075,-0.011627,0.716713,-0.607944,0.114891,-0.321757
46456,NaN,7.202101,9.030337,-0.515633,8.203584,-4.321589,-16.719236,-0.579581,-1.005185,-2.589217,0.331543,0.522949,-0.111816,0.073207,0.089346,-0.005050,0.999899,-0.002898,-0.005026,-0.012946,0.711295,-0.613075,0.104367,-0.327576
46457,NaN,7.562498,7.760022,0.149468,8.521423,-4.181862,-15.039685,-0.704643,-0.725820,-2.789507,0.312012,0.533691,-0.112061,0.076692,0.076541,0.001501,0.999890,-0.003523,-0.003629,-0.013947,0.704690,-0.618349,0.094688,-0.334800
46458,NaN,7.662472,6.626867,0.388966,8.399362,-4.190150,-13.642319,-0.741286,-0.402573,-2.970810,0.292969,0.538086,-0.114258,0.077590,0.065135,0.003802,0.999881,-0.003706,-0.002013,-0.014853,0.697536,-0.622979,0.085343,-0.343594
46459,NaN,7.611957,5.782811,0.109039,7.930232,-4.510943,-12.667483,-0.762380,-0.066904,-3.150962,0.271240,0.552979,-0.112549,0.077018,0.056623,0.000899,0.999869,-0.003812,-0.000335,-0.015754,0.689518,-0.627186,0.076746,-0.353994
46460,NaN,7.570088,5.469720,-0.514995,7.441593,-5.119657,-12.240104,-0.807387,0.270264,-3.369760,0.254150,0.557373,-0.108643,0.076601,0.053390,-0.005470,0.999849,-0.004037,0.001351,-0.016848,0.680820,-0.630702,0.068558,-0.366058
46461,NaN,7.901571,4.984503,-1.327064,7.001133,-6.087896,-11.530976,-0.807726,0.565072,-3.602170,0.230713,0.563721,-0.106689,0.079857,0.048357,-0.013693,0.999826,-0.004038,0.002825,-0.018010,0.671194,-0.633699,0.060618,-0.379802
46462,NaN,8.683588,3.677822,-1.453551,6.827776,-6.663971,-9.743751,-0.890534,0.854985,-3.799096,0.198486,0.572510,-0.104980,0.087449,0.035055,-0.015067,0.999801,-0.004452,0.004275,-0.018994,0.660772,-0.636102,0.053159,-0.394878
46463,NaN,9.569729,1.646812,-1.289630,6.428056,-6.910266,-7.191895,-1.155140,1.138863,-3.977138,0.177246,0.574707,-0.098877,0.095923,0.014485,-0.013530,0.999769,-0.005775,0.005694,-0.019884,0.648584,-0.638737,0.046475,-0.411332
46464,NaN,10.525308,-0.770265,-1.465251,5.527279,-7.281534,-4.341693,-1.443644,1.433500,-4.112412,0.151855,0.574707,-0.090820,0.104955,-0.009972,-0.015339,0.999737,-0.007218,0.007167,-0.020560,0.635021,-0.641271,0.040979,-0.428766
46465,NaN,11.832735,-4.563716,-1.234792,4.219653,-7.094032,-0.106553,-1.461175,1.707304,-4.081259,0.117920,0.576904,-0.084961,0.117253,-0.048131,-0.013006,0.999729,-0.007305,0.008536,-0.020404,0.620815,-0.643071,0.036297,-0.446914
46466,NaN,13.106976,-10.343018,-0.754353,1.813933,-5.979366,5.687559,-1.308885,2.019010,-3.925328,0.101074,0.576904,-0.083008,0.128925,-0.106027,-0.008164,0.999735,-0.006544,0.010094,-0.019625,0.607314,-0.643178,0.032891,-0.465199
46467,NaN,14.533745,-17.890701,-0.656075,-1.962311,-4.415841,12.733203,-0.972464,2.299317,-3.843799,0.082031,0.577148,-0.083008,0.141782,-0.181689,-0.007326,0.999737,-0.004862,0.011496,-0.019217,0.594413,-0.641414,0.029597,-0.484134
46468,NaN,17.540219,-25.303591,-0.658258,-5.260467,-3.533001,20.321751,-0.863250,2.447116,-3.870592,0.052490,0.574951,-0.070801,0.170373,-0.256397,-0.007586,0.999729,-0.004316,0.012234,-0.019351,0.581763,-0.638469,0.026571,-0.503193
46469,NaN,20.249193,-30.220955,-1.488536,-8.322222,-3.449590,25.460680,-0.852166,2.711234,-3.873540,0.033203,0.579346,-0.071045,0.196374,-0.306120,-0.016276,0.999711,-0.004260,0.013555,-0.019366,0.568433,-0.634657,0.024105,-0.522985
46470,NaN,20.403829,-32.893335,-2.297323,-11.529028,-2.317579,27.134296,-0.925320,2.991760,-3.704193,0.016357,0.572998,-0.064941,0.197541,-0.332743,-0.024427,0.999706,-0.004626,0.014957,-0.018519,0.555296,-0.629738,0.023299,-0.542710
46471,NaN,19.538803,-35.062559,-2.631269,-14.446115,-0.205533,27.726266,-1.327201,3.081251,-3.280134,0.005859,0.571045,-0.058838,0.189189,-0.353940,-0.026918,0.999725,-0.006635,0.015405,-0.016399,0.541311,-0.625542,0.025095,-0.561293
46472,NaN,18.929007,-36.973945,-2.014561,-16.090831,2.338615,28.461854,-1.904826,3.071700,-2.624804,-0.006592,0.566650,-0.050537,0.184112,-0.372366,-0.019462,0.999751,-0.009523,0.015357,-0.013123,0.527481,-0.622264,0.030571,-0.577595
46473,NaN,16.965714,-37.362392,-1.386811,-16.838975,5.125491,27.279340,-2.339891,3.103177,-1.882794,-0.009033,0.575195,-0.036377,0.165932,-0.375346,-0.012077,0.999767,-0.011699,0.015515,-0.009413,0.513736,-0.619964,0.039761,-0.591726
46474,NaN,13.883745,-35.168257,-0.768145,-16.056474,7.240060,23.652050,-2.552716,3.095126,-1.186044,-0.011230,0.577393,-0.022217,0.136654,-0.352575,-0.005311,0.999781,-0.012763,0.015474,-0.005930,0.501602,-0.617477,0.051612,-0.603701
46475,NaN,10.822238,-31.334882,-0.417647,-14.280999,8.164475,18.971753,-2.433479,2.990064,-0.652160,-0.006836,0.570801,-0.009766,0.107159,-0.313732,-0.001968,0.999809,-0.012167,0.014949,-0.003261,0.490832,-0.614998,0.064689,-0.613741
46476,NaN,8.346746,-27.285114,0.082125,-12.093680,8.379264,14.634678,-2.074259,2.874777,-0.318205,-0.002686,0.577148,0.004395,0.083061,-0.272964,0.002456,0.999842,-0.010371,0.014373,-0.001591,0.482485,-0.611283,0.077154,-0.622565
46477,NaN,6.413825,-23.419311,0.652700,-9.825235,8.175384,10.842836,-1.750833,2.782573,-0.123729,-0.004883,0.577148,0.014648,0.064095,-0.234169,0.007685,0.999865,-0.008754,0.013912,-0.000619,0.475234,-0.607213,0.089289,-0.630454
46478,NaN,4.960251,-19.772973,0.571118,-8.199451,7.314219,7.367801,-1.595958,2.711839,0.006243,-0.000488,0.577148,0.035156,0.049694,-0.197678,0.006615,0.999876,-0.007979,0.013559,0.000031,0.469156,-0.602390,0.100805,-0.637854
46479,NaN,3.758747,-16.648263,0.466682,-6.821094,6.506383,4.422764,-1.564189,2.686245,0.106593,0.001465,0.579102,0.041260,0.037746,-0.166422,0.005462,0.999879,-0.007821,0.013431,0.000533,0.463052,-0.597755,0.112823,-0.644626
46480,NaN,2.533800,-14.251312,0.586337,-5.630527,6.176827,2.019699,-1.637343,2.676150,0.163187,0.001221,0.587646,0.053467,0.025540,-0.142440,0.006689,0.999877,-0.008186,0.013380,0.000816,0.457136,-0.592764,0.124805,-0.651216
46481,NaN,1.249345,-12.460178,0.672632,-4.724204,6.210809,0.004339,-1.775796,2.664394,0.165031,0.007568,0.587646,0.065674,0.012694,-0.124526,0.007664,0.999872,-0.008879,0.013321,0.000825,0.450412,-0.588336,0.137597,-0.657310
46482,NaN,0.040165,-10.916551,0.552722,-4.099533,6.257744,-1.843434,-1.909414,2.641408,0.132127,0.011963,0.583252,0.080078,0.000556,-0.109106,0.006562,0.999867,-0.009547,0.013206,0.000661,0.443371,-0.583794,0.150226,-0.663354
46483,NaN,-1.171522,-9.488870,0.336858,-3.586970,6.358844,-3.630512,-1.989330,2.607875,0.088794,0.011719,0.587402,0.094482,-0.011620,-0.094853,0.004464,0.999865,-0.009946,0.013039,0.000444,0.435612,-0.579749,0.163304,-0.668928
46484,NaN,-2.432879,-8.182135,0.240550,-3.018064,6.614129,-5.333367,-2.030853,2.565718,0.064240,0.009766,0.585449,0.106689,-0.024262,-0.081797,0.003548,0.999866,-0.010154,0.012828,0.000321,0.427807,-0.575468,0.175883,-0.674450
46485,NaN,-3.790802,-6.822933,0.132990,-2.424300,6.918635,-7.131107,-2.076231,2.502051,0.057472,0.003418,0.589600,0.126953,-0.037862,-0.068218,0.002512,0.999868,-0.010381,0.012510,0.000287,0.419596,-0.571653,0.188844,-0.679331
46486,NaN,-5.085673,-5.530423,0.114286,-1.771004,7.234220,-8.818849,-2.034057,2.401272,0.058396,0.005615,0.587402,0.141357,-0.050817,-0.055299,0.002316,0.999876,-0.010170,0.012006,0.000292,0.411682,-0.567644,0.200969,-0.684040
46487,NaN,-6.153071,-4.705636,0.387237,-0.998276,7.690056,-9.936470,-1.920701,2.264607,0.047196,0.007812,0.583008,0.153809,-0.061467,-0.047026,0.005020,0.999890,-0.009603,0.011323,0.000236,0.403961,-0.564015,0.212777,-0.688062
46488,NaN,-6.983698,-3.869336,0.730912,-0.163678,7.940544,-10.905865,-1.815699,2.104541,0.040868,0.003662,0.581055,0.166016,-0.069745,-0.038635,0.008394,0.999903,-0.009078,0.010522,0.000204,0.396725,-0.560348,0.223404,-0.691889
46489,NaN,-7.986614,-2.848388,0.881558,0.543746,8.174531,-12.169452,-1.679332,1.953101,0.067842,-0.000488,0.578857,0.182373,-0.079764,-0.028431,0.009834,0.999917,-0.008396,0.009765,0.000339,0.390010,-0.557031,0.233722,-0.694969
46490,NaN,-9.116120,-1.698972,1.064839,1.314359,8.428299,-13.601799,-1.508099,1.754684,0.119382,0.007812,0.580811,0.188477,-0.091052,-0.016959,0.011576,0.999933,-0.007540,0.008773,0.000597,0.384170,-0.553701,0.242737,-0.697787
46491,NaN,-9.998455,-0.855467,1.290174,1.998783,8.663259,-14.641355,-1.357856,1.513173,0.175985,0.003662,0.580811,0.196777,-0.099875,-0.008551,0.013716,0.999948,-0.006789,0.007566,0.000880,0.379233,-0.550972,0.251311,-0.699611
46492,NaN,-10.693391,-0.180063,1.462426,2.549147,8.837003,-15.463118,-1.278491,1.251846,0.254363,-0.000488,0.574463,0.198730,-0.106837,-0.001840,0.015305,0.999959,-0.006392,0.006259,0.001272,0.375035,-0.548677,0.258884,-0.700915
46493,NaN,-11.260823,0.203099,1.414570,2.768102,9.077863,-16.039836,-1.167344,0.980584,0.336819,0.003906,0.574463,0.207031,-0.112540,0.001926,0.014686,0.999970,-0.005837,0.004903,0.001684,0.371901,-0.547108,0.266175,-0.701080
46494,NaN,-11.656232,0.107903,1.538352,2.998472,9.469494,-16.104195,-0.992413,0.716260,0.433065,0.006104,0.572266,0.207031,-0.116508,0.000904,0.015796,0.999979,-0.004962,0.003581,0.002165,0.369766,-0.545856,0.272201,-0.700871
46495,NaN,-11.752808,-0.243757,1.848523,3.281085,9.782861,-15.740137,-0.782425,0.423377,0.519402,0.003906,0.570312,0.209229,-0.117482,-0.002670,0.018744,0.999987,-0.003912,0.002117,0.002597,0.369150,-0.545182,0.277576,-0.699611
46496,NaN,-11.556966,-0.558123,2.140176,3.490351,9.831504,-15.254563,-0.574134,0.111112,0.598714,0.008301,0.568115,0.200928,-0.115540,-0.005866,0.021483,0.999991,-0.002871,0.000556,0.002994,0.369546,-0.545018,0.281455,-0.697979
46497,NaN,-11.355514,-0.782787,2.238042,3.488579,9.836046,-14.877353,-0.346891,-0.204567,0.702759,0.006348,0.563965,0.197021,-0.113550,-0.008188,0.022278,0.999992,-0.001734,-0.001023,0.003514,0.371735,-0.545400,0.284627,-0.695226
46498,NaN,-11.277782,-1.000990,2.227034,3.367354,9.941604,-14.605855,-0.037937,-0.519348,0.834854,0.008545,0.561768,0.195068,-0.112792,-0.010477,0.021979,0.999988,-0.000190,-0.002597,0.004174,0.375292,-0.546082,0.286103,-0.692168
46499,NaN,-11.054107,-1.390236,1.802691,2.744896,10.030859,-14.196904,0.403147,-0.805783,0.947167,0.017090,0.559570,0.180664,-0.110545,-0.014462,0.017553,0.999979,0.002016,-0.004029,0.004736,0.381326,-0.546709,0.286192,-0.688327
46500,NaN,-10.506593,-1.947842,0.949246,1.602394,9.913315,-13.586226,0.903398,-1.076651,1.040593,0.025391,0.561768,0.172607,-0.105011,-0.020066,0.008837,0.999962,0.004517,-0.005383,0.005203,0.388926,-0.547182,0.283900,-0.684638
46501,NaN,-9.565362,-2.492422,0.387665,0.667675,9.438496,-12.697880,1.331050,-1.336226,1.131116,0.021484,0.551270,0.160400,-0.095533,-0.025487,0.003070,0.999940,0.006655,-0.006681,0.005655,0.398922,-0.547433,0.280236,-0.680181
46502,NaN,-8.652332,-2.795545,0.048659,-0.002374,8.827734,-11.991567,1.595725,-1.591138,1.258132,0.025635,0.553223,0.150146,-0.086344,-0.028498,-0.000427,0.999917,0.007978,-0.007955,0.006290,0.409788,-0.547854,0.275092,-0.675466
46503,NaN,-7.756484,-2.969833,0.888120,0.486880,8.238313,-11.101244,1.673911,-1.869276,1.395169,0.034424,0.549072,0.135986,-0.077432,-0.030308,0.007905,0.999897,0.008369,-0.009346,0.006976,0.422295,-0.548615,0.269818,-0.669243
46504,NaN,-6.577306,-3.934828,1.226060,0.279217,7.752395,-9.558095,1.517126,-2.151608,1.515080,0.034424,0.546875,0.123779,-0.065597,-0.039934,0.011253,0.999885,0.007585,-0.010758,0.007575,0.434403,-0.550505,0.264360,-0.662082
46505,NaN,-4.818382,-6.587140,-0.019513,-1.924072,7.303836,-6.721611,1.289293,-2.402561,1.596099,0.051514,0.538330,0.122070,-0.047646,-0.066248,-0.001196,0.999875,0.006446,-0.012012,0.007980,0.447094,-0.553284,0.259640,-0.653124
46506,NaN,-3.405711,-10.742715,-1.948585,-5.196034,7.549087,-2.971242,1.171440,-2.716875,1.751192,0.060059,0.538330,0.109863,-0.032841,-0.107600,-0.020567,0.999852,0.005857,-0.013584,0.008756,0.459536,-0.557184,0.254584,-0.643086
46507,NaN,-2.575513,-16.686402,-2.784359,-8.018308,8.979917,2.347431,1.241168,-3.089450,1.974817,0.071045,0.529785,0.103760,-0.023662,-0.166926,-0.029256,0.999813,0.006205,-0.015446,0.009873,0.473948,-0.561421,0.249365,-0.630869
46508,NaN,-1.623568,-26.242955,-0.666986,-9.313260,12.162314,11.566422,1.655502,-3.567756,2.128845,0.081787,0.519287,0.085693,-0.013294,-0.262513,-0.009097,0.999750,0.008277,-0.017837,0.010643,0.489660,-0.565960,0.241639,-0.617684
46509,NaN,1.925360,-39.593343,2.010453,-11.249762,14.303358,25.459895,1.807627,-4.114438,2.159129,0.103271,0.514893,0.071533,0.023157,-0.395860,0.016976,0.999689,0.009037,-0.020570,0.010795,0.507041,-0.571201,0.232484,-0.602154
46510,NaN,6.994033,-50.840286,0.746839,-15.945471,12.566709,37.323536,2.334379,-4.336068,2.593712,0.116211,0.506592,0.057373,0.076427,-0.507493,0.003151,0.999613,0.011670,-0.021678,0.012967,0.526378,-0.575105,0.221818,-0.585642
46511,NaN,11.029010,-54.924109,-1.678667,-19.217813,7.679677,42.268001,3.014436,-4.162586,3.221304,0.133057,0.506348,0.039062,0.119544,-0.547053,-0.022620,0.999540,0.015070,-0.020810,0.016104,0.549647,-0.575228,0.211755,-0.567592
46512,NaN,13.389704,-53.836481,-2.008413,-18.880447,2.844809,42.308361,3.406284,-3.805310,3.636451,0.158691,0.497803,0.020996,0.144115,-0.535391,-0.026543,0.999509,0.017029,-0.019023,0.018179,0.573537,-0.572539,0.202023,-0.549947
46513,NaN,17.388039,-51.080143,-2.895997,-17.320665,-4.305067,41.185883,3.212176,-3.572598,3.981171,0.180176,0.493652,0.002686,0.184571,-0.506680,-0.033887,0.999513,0.016058,-0.017860,0.019903,0.597698,-0.568571,0.194936,-0.530551
46514,NaN,19.315287,-44.984005,-3.883068,-14.495078,-10.022496,36.021037,2.529945,-3.035267,4.206732,0.203613,0.489258,-0.003418,0.203165,-0.445123,-0.041449,0.999584,0.012648,-0.015174,0.021031,0.618773,-0.564732,0.191067,-0.511558
46515,NaN,16.512272,-36.808165,-3.810057,-11.290139,-10.896068,27.544021,1.561406,-2.490497,4.391020,0.222900,0.478516,-0.007080,0.173626,-0.364030,-0.038826,0.999651,0.007806,-0.012451,0.021953,0.637066,-0.561673,0.192492,-0.491545
46516,NaN,13.264142,-31.051686,-3.803061,-9.381284,-10.275870,21.183749,0.675849,-2.311144,4.609262,0.252686,0.478516,-0.000732,0.140183,-0.307217,-0.037482,0.999662,0.003379,-0.011554,0.023044,0.652315,-0.560581,0.196382,-0.470817
46517,NaN,12.022738,-27.390390,-4.127213,-7.686614,-10.875291,17.284789,0.142899,-2.315226,4.606810,0.278320,0.469727,-0.002686,0.126961,-0.271002,-0.040023,0.999667,0.000714,-0.011575,0.023031,0.665920,-0.560718,0.202184,-0.448628
46518,NaN,11.645227,-23.905802,-4.735253,-6.012549,-11.928802,13.659304,-0.001996,-2.333361,4.386860,0.304199,0.454834,-0.002197,0.122199,-0.236420,-0.045947,0.999691,-0.000010,-0.011666,0.021932,0.677920,-0.561357,0.206689,-0.427297
46519,NaN,11.122364,-19.856932,-5.052426,-4.162663,-12.394182,9.487372,0.106247,-2.357961,4.119540,0.333984,0.454834,0.001953,0.115867,-0.196188,-0.049281,0.999718,0.000531,-0.011789,0.020596,0.689410,-0.561541,0.210849,-0.406115
46520,NaN,10.301954,-15.242217,-5.191110,-2.464335,-12.145104,4.739556,0.231644,-2.382485,3.814030,0.359619,0.444092,-0.001953,0.106510,-0.150354,-0.050831,0.999747,0.001158,-0.011911,0.019069,0.700152,-0.561423,0.212853,-0.386375
46521,NaN,9.287953,-10.420923,-5.184714,-0.985980,-11.330248,-0.202062,0.274436,-2.386093,3.469142,0.378662,0.441895,-0.005859,0.095278,-0.102500,-0.050861,0.999777,0.001372,-0.011930,0.017344,0.710020,-0.561230,0.214547,-0.367235
46522,NaN,8.065980,-5.976512,-4.889752,0.161024,-9.916815,-4.683993,0.239234,-2.380506,3.074465,0.404297,0.435303,-0.009766,0.082140,-0.058452,-0.047996,0.999810,0.001196,-0.011902,0.015371,0.718764,-0.561354,0.214275,-0.349781
46523,NaN,7.067293,-2.502813,-4.134271,1.272392,-8.278307,-8.039023,0.165694,-2.391649,2.643164,0.423828,0.426758,-0.021729,0.071483,-0.024053,-0.040511,0.999841,0.000828,-0.011958,0.013215,0.726223,-0.562036,0.213651,-0.333271
46524,NaN,6.747659,0.124361,-3.383925,2.445560,-7.110902,-10.481330,0.028706,-2.409525,2.180205,0.440674,0.424561,-0.027832,0.067859,0.001987,-0.033023,0.999868,0.000144,-0.012047,0.010901,0.732421,-0.563551,0.210984,-0.318521
46525,NaN,7.178845,2.234456,-3.177561,3.545518,-6.836624,-12.516718,-0.144088,-2.377406,1.704398,0.447021,0.424561,-0.033936,0.071966,0.022935,-0.030937,0.999893,-0.000720,-0.011887,0.008522,0.737038,-0.566046,0.208131,-0.305037
46526,NaN,7.913403,4.069841,-2.994884,4.744702,-6.773768,-14.257410,-0.261421,-2.301596,1.264209,0.457764,0.424561,-0.040039,0.079213,0.041161,-0.029091,0.999913,-0.001307,-0.011508,0.006321,0.740563,-0.569162,0.203639,-0.293516
46527,NaN,8.530622,5.860878,-2.464526,6.020945,-6.353317,-15.860529,-0.429701,-2.175823,0.879301,0.470459,0.422363,-0.052002,0.085310,0.058932,-0.023844,0.999929,-0.002148,-0.010879,0.004396,0.742649,-0.573072,0.199492,-0.283310
46528,NaN,8.748493,7.613354,-1.954878,6.941749,-5.678876,-17.420685,-0.551229,-2.050130,0.555905,0.472412,0.426758,-0.062500,0.087469,0.076324,-0.018862,0.999940,-0.002756,-0.010250,0.002779,0.743861,-0.577442,0.194272,-0.274754
46529,NaN,8.816819,8.888750,-1.803250,7.390893,-5.280035,-18.615679,-0.598194,-1.919985,0.287160,0.472412,0.426758,-0.062500,0.088210,0.088961,-0.017452,0.999948,-0.002991,-0.009600,0.001436,0.744204,-0.582073,0.189485,-0.267298
46530,NaN,8.761059,9.516702,-1.527357,7.699073,-4.846113,-19.134444,-0.570046,-1.784382,0.062933,0.476562,0.430908,-0.068604,0.087714,0.095152,-0.014763,0.999956,-0.002850,-0.008922,0.000315,0.744290,-0.586502,0.183814,-0.261268
46531,NaN,8.776847,9.848858,-1.402389,7.907253,-4.648076,-19.397548,-0.489379,-1.629639,-0.190151,0.478516,0.430908,-0.074707,0.087974,0.098371,-0.013548,0.999963,-0.002447,-0.008148,-0.000951,0.743927,-0.590694,0.178447,-0.256534
46532,NaN,8.772122,10.462028,-1.277434,8.168648,-4.409871,-19.905308,-0.397984,-1.453190,-0.494076,0.476318,0.435303,-0.078857,0.088070,0.104378,-0.012343,0.999969,-0.001990,-0.007266,-0.002470,0.743393,-0.594470,0.172120,-0.253666
46533,NaN,8.614750,11.066615,-0.931665,8.429814,-3.942778,-20.345626,-0.284002,-1.251698,-0.821019,0.467773,0.435303,-0.089111,0.086657,0.110298,-0.008932,0.999971,-0.001420,-0.006258,-0.004105,0.742418,-0.597904,0.165912,-0.252586
46534,NaN,8.436316,11.355909,-0.312024,8.794089,-3.323980,-20.388031,-0.226478,-1.016013,-1.186858,0.458984,0.450195,-0.093506,0.085050,0.113052,-0.002818,0.999969,-0.001132,-0.005080,-0.005934,0.741064,-0.601004,0.158905,-0.253707
46535,NaN,8.461426,11.218790,0.197408,9.189255,-3.017066,-20.008106,-0.226314,-0.763070,-1.603687,0.452393,0.454590,-0.095703,0.085502,0.111507,0.002173,0.999960,-0.001132,-0.003815,-0.008018,0.738792,-0.604169,0.151968,-0.257045
46536,NaN,8.748855,10.675143,0.431870,9.586889,-3.174571,-19.230484,-0.319333,-0.499778,-2.028976,0.437256,0.463135,-0.095947,0.088555,0.105864,0.004370,0.999944,-0.001597,-0.002499,-0.010145,0.735560,-0.607510,0.144428,-0.262723
46537,NaN,9.489227,9.831022,0.396264,10.128722,-3.888765,-18.127047,-0.488506,-0.208336,-2.456731,0.422119,0.471680,-0.100098,0.096086,0.097144,0.003824,0.999921,-0.002442,-0.001042,-0.012283,0.730822,-0.611416,0.137147,-0.270667
46538,NaN,10.171888,8.859671,0.038135,10.387963,-4.876736,-16.901933,-0.686081,0.114520,-2.856178,0.402832,0.480225,-0.096436,0.102970,0.087133,0.000022,0.999892,-0.003430,0.000573,-0.014280,0.724705,-0.615672,0.129782,-0.280904
46539,NaN,10.599069,7.803567,-0.486421,10.260512,-5.889020,-15.600381,-0.925809,0.455027,-3.231128,0.387695,0.490967,-0.092529,0.107221,0.076286,-0.005463,0.999856,-0.004629,0.002275,-0.016155,0.716801,-0.620510,0.122966,-0.293332
46540,NaN,11.030854,6.786758,-1.366883,9.871052,-7.190061,-14.335130,-1.123580,0.769155,-3.616000,0.370117,0.505859,-0.086670,0.111456,0.065779,-0.014469,0.999813,-0.005618,0.003846,-0.018079,0.707409,-0.625529,0.116165,-0.307883
46541,NaN,11.722573,5.275774,-1.603490,9.782070,-8.107839,-12.336940,-1.182114,1.080089,-3.995267,0.340332,0.510254,-0.084961,0.118157,0.050305,-0.016974,0.999768,-0.005910,0.005400,-0.019975,0.696631,-0.630351,0.109374,-0.324653
46542,NaN,12.304037,3.388496,-1.469390,9.556247,-8.583379,-9.878419,-1.190339,1.371798,-4.294035,0.312500,0.522949,-0.072998,0.123623,0.031143,-0.015731,0.999728,-0.005951,0.006858,-0.021468,0.684976,-0.634461,0.102558,-0.343145
46543,NaN,12.630432,1.038374,-1.159081,8.920499,-8.627332,-7.000030,-1.146285,1.582270,-4.524152,0.286621,0.535889,-0.075439,0.126398,0.007455,-0.012639,0.999696,-0.005731,0.007911,-0.022618,0.672375,-0.637946,0.095551,-0.363052
46544,NaN,12.855491,-1.393396,-1.065753,7.883665,-8.605198,-4.146646,-1.155252,1.764282,-4.657899,0.256592,0.544434,-0.065430,0.128083,-0.016986,-0.011697,0.999673,-0.005776,0.008820,-0.023287,0.659181,-0.640659,0.088730,-0.383620
46545,NaN,12.981479,-4.426486,-1.542661,6.007809,-8.688829,-0.932280,-0.987234,1.900856,-4.733210,0.229004,0.551025,-0.061523,0.128565,-0.047397,-0.016424,0.999663,-0.004936,0.009503,-0.023663,0.645635,-0.642311,0.081597,-0.404888
46546,NaN,13.586066,-8.914630,-1.643629,3.836599,-8.304624,3.715407,-0.535536,2.004134,-4.773421,0.199219,0.551025,-0.065674,0.133509,-0.092398,-0.017538,0.999661,-0.002677,0.010020,-0.023864,0.633226,-0.641727,0.073834,-0.426333
46547,NaN,15.347833,-15.438251,-1.701326,1.108889,-7.906293,10.508299,0.077416,2.052135,-4.910676,0.169434,0.557617,-0.070068,0.149441,-0.158078,-0.018621,0.999646,0.000387,0.010259,-0.024550,0.621715,-0.638876,0.064227,-0.448534
46548,NaN,18.609295,-23.095853,-0.507062,-1.071739,-6.918658,19.010179,0.346104,2.125469,-5.046108,0.139893,0.557617,-0.068115,0.180118,-0.235542,-0.007411,0.999624,0.001730,0.010626,-0.025227,0.610600,-0.634430,0.053956,-0.470908
46549,NaN,20.545768,-28.895900,-0.168203,-4.282371,-5.704697,24.914209,0.134398,2.304541,-5.053412,0.108154,0.555664,-0.072266,0.198032,-0.294023,-0.004189,0.999614,0.000672,0.011521,-0.025264,0.597882,-0.629931,0.044453,-0.493708
46550,NaN,20.841558,-32.717719,-1.223509,-8.533127,-4.636881,27.759728,-0.171080,2.460252,-4.806157,0.080566,0.555908,-0.074463,0.200306,-0.332068,-0.014450,0.999635,-0.000855,0.012300,-0.024028,0.584729,-0.625226,0.037118,-0.515564
46551,NaN,20.935431,-35.936215,-1.688951,-12.115420,-2.870485,29.901942,-0.819543,2.536028,-4.276947,0.063721,0.553711,-0.072510,0.201382,-0.363798,-0.017992,0.999683,-0.004097,0.012679,-0.021382,0.570013,-0.621956,0.033135,-0.535872
46552,NaN,20.981358,-38.411192,-0.740139,-13.984861,-0.202672,31.664566,-1.674639,2.664027,-3.524335,0.051025,0.555908,-0.064453,0.202907,-0.387787,-0.006898,0.999721,-0.008372,0.013319,-0.017620,0.554779,-0.620018,0.034287,-0.553735
46553,NaN,18.307858,-39.780462,-0.138840,-15.989842,3.737285,30.781704,-2.387951,2.807106,-2.720290,0.038086,0.558105,-0.044189,0.177647,-0.400244,0.000862,0.999738,-0.011939,0.014034,-0.013600,0.538668,-0.619523,0.040222,-0.569570
46554,NaN,14.438510,-39.190231,0.168336,-16.908872,7.371576,27.657674,-2.719916,2.818274,-2.026366,0.031738,0.558105,-0.035889,0.140460,-0.393286,0.005028,0.999757,-0.013598,0.014090,-0.010131,0.523792,-0.619096,0.049313,-0.583036
46555,NaN,11.338686,-36.422612,0.774933,-15.705279,9.522753,23.629532,-2.482493,2.701586,-1.430379,0.033936,0.560059,-0.019531,0.110910,-0.364904,0.010767,0.999806,-0.012412,0.013507,-0.007151,0.510604,-0.618355,0.059312,-0.594477
46556,NaN,8.919977,-31.730464,1.223888,-13.289417,9.802602,18.738408,-2.089607,2.618865,-0.941893,0.031738,0.558105,-0.007324,0.087884,-0.317578,0.014400,0.999849,-0.010448,0.013094,-0.004709,0.500508,-0.616106,0.069330,-0.604233
46557,NaN,6.488915,-26.022911,1.329612,-10.615042,9.114976,13.106631,-1.799621,2.579003,-0.581741,0.031738,0.560059,-0.001221,0.064317,-0.260288,0.014806,0.999872,-0.008998,0.012894,-0.002909,0.491722,-0.613366,0.079676,-0.612898
46558,NaN,4.382041,-20.961469,1.093464,-8.543828,8.115302,8.101575,-1.707188,2.538485,-0.313105,0.033936,0.562256,0.013184,0.043642,-0.209583,0.012169,0.999882,-0.008536,0.012692,-0.001565,0.484477,-0.609850,0.090222,-0.620665
46559,NaN,2.933416,-17.146697,0.800757,-7.006063,7.181385,4.420863,-1.738830,2.508816,-0.145388,0.031738,0.562256,0.027344,0.029319,-0.171412,0.009130,0.999883,-0.008694,0.012544,-0.000727,0.477057,-0.606696,0.101582,-0.627708
46560,NaN,1.733067,-14.227835,0.771282,-5.677515,6.595421,1.601868,-1.808661,2.503858,-0.073094,0.036133,0.560059,0.035645,0.017384,-0.142208,0.008782,0.999881,-0.009043,0.012519,-0.000365,0.470033,-0.603129,0.113040,-0.634450
46561,NaN,0.367452,-11.753186,0.650448,-4.666382,6.311445,-1.033041,-1.898247,2.502546,-0.069490,0.031982,0.555664,0.045898,0.003724,-0.117465,0.007573,0.999877,-0.009491,0.012512,-0.000347,0.462180,-0.600033,0.125113,-0.640857
46562,NaN,-1.066909,-9.448631,0.385473,-3.898247,6.099699,-3.635547,-1.972182,2.490114,-0.124793,0.038086,0.562012,0.062256,-0.010671,-0.094435,0.004919,0.999874,-0.009860,0.012450,-0.000624,0.454268,-0.596625,0.136840,-0.647267
46563,NaN,-2.338712,-7.552572,-0.016112,-3.409495,5.949653,-5.877670,-2.050004,2.465863,-0.185521,0.036133,0.555664,0.076660,-0.023450,-0.075498,0.000902,0.999871,-0.010250,0.012329,-0.000928,0.445414,-0.593751,0.148930,-0.653365
46564,NaN,-3.447063,-6.173874,-0.223932,-2.958676,6.032887,-7.600052,-2.116183,2.422976,-0.246879,0.031982,0.555664,0.090820,-0.034565,-0.061712,-0.001168,0.999870,-0.010580,0.012114,-0.001234,0.436485,-0.590665,0.160531,-0.659413
46565,NaN,-4.579136,-5.334504,-0.182372,-2.479198,6.515002,-8.883765,-2.119488,2.355899,-0.290307,0.025879,0.549316,0.105225,-0.045882,-0.053290,-0.000719,0.999873,-0.010597,0.011779,-0.001451,0.426976,-0.588064,0.172232,-0.664988
46566,NaN,-5.668047,-4.658998,0.069844,-1.849012,7.098572,-9.971301,-2.031041,2.258603,-0.314197,0.028076,0.547119,0.115479,-0.056737,-0.046486,0.001811,0.999883,-0.010155,0.011293,-0.001571,0.417989,-0.585100,0.182907,-0.670439
46567,NaN,-6.653935,-3.981564,0.204104,-1.307663,7.548820,-11.025478,-1.823520,2.108202,-0.345074,0.013184,0.547119,0.134033,-0.066579,-0.039676,0.003105,0.999901,-0.009117,0.010541,-0.001725,0.409246,-0.582460,0.192867,-0.675323
46568,NaN,-7.549658,-2.985762,0.171243,-0.823359,7.684141,-12.305535,-1.550875,1.951151,-0.345924,0.013184,0.547119,0.140137,-0.075525,-0.029709,0.002680,0.999921,-0.007754,0.009755,-0.001730,0.401672,-0.579340,0.201118,-0.680130
46569,NaN,-8.483086,-1.995428,0.053009,-0.436970,7.822989,-13.627732,-1.247871,1.769577,-0.323835,0.004639,0.547119,0.150146,-0.084853,-0.019810,0.001405,0.999940,-0.006239,0.008848,-0.001619,0.394954,-0.576447,0.208452,-0.684301
46570,NaN,-9.251321,-1.015243,-0.313622,-0.310801,7.789695,-14.905633,-0.953857,1.543935,-0.273225,-0.005859,0.547119,0.154297,-0.092547,-0.010039,-0.002374,0.999958,-0.004769,0.007720,-0.001366,0.389670,-0.573315,0.214013,-0.688234
46571,NaN,-9.547881,-0.463413,-0.492168,-0.175849,7.678808,-15.524314,-0.617489,1.268873,-0.203801,-0.010010,0.549316,0.160400,-0.095512,-0.004551,-0.004302,0.999975,-0.003087,0.006344,-0.001019,0.385727,-0.570651,0.218524,-0.691245
46572,NaN,-9.404960,-0.469183,-0.838261,-0.409251,7.536028,-15.506207,-0.260852,0.957589,-0.144354,-0.016357,0.544922,0.164551,-0.094092,-0.004634,-0.007926,0.999987,-0.001304,0.004788,-0.000722,0.383458,-0.568000,0.220904,-0.693929
46573,NaN,-8.817483,-0.806204,-0.975202,-0.600501,7.277351,-14.914476,0.147328,0.683207,-0.064899,-0.029053,0.547119,0.160400,-0.088210,-0.008026,-0.009457,0.999994,0.000737,0.003416,-0.000324,0.382886,-0.565682,0.222042,-0.695773
46574,NaN,-8.365103,-0.829282,-0.962376,-0.580810,6.945404,-14.609850,0.524288,0.411778,0.014891,-0.039795,0.549316,0.154053,-0.083670,-0.008274,-0.009473,0.999994,0.002621,0.002059,0.000074,0.383987,-0.563231,0.221093,-0.697454
46575,NaN,-8.458402,-0.060365,-0.211499,0.377711,6.654187,-15.025370,0.837120,0.143774,0.097271,-0.039795,0.551514,0.154053,-0.084585,-0.000636,-0.002057,0.999991,0.004186,0.000719,0.000486,0.386600,-0.561248,0.219272,-0.698183
46576,NaN,-8.723756,0.896209,1.710625,2.508848,6.543653,-15.355210,1.101636,-0.128470,0.138899,-0.046631,0.562256,0.147705,-0.087255,0.008807,0.017099,0.999984,0.005508,-0.000642,0.000694,0.390339,-0.559412,0.215611,-0.698718
46577,NaN,-8.536451,0.969390,4.442876,5.085848,6.761398,-14.499599,1.100316,-0.334593,0.146152,-0.050537,0.553711,0.131592,-0.085446,0.009387,0.044338,0.999983,0.005502,-0.001673,0.000731,0.394457,-0.558461,0.212079,-0.698245
46578,NaN,-8.004291,0.283880,4.786959,5.120731,6.847340,-13.548456,0.730873,-0.455606,0.171162,-0.054932,0.562256,0.135498,-0.080154,0.002596,0.047697,0.999990,0.003654,-0.002278,0.000856,0.397602,-0.558430,0.209151,-0.697370
46579,NaN,-7.901646,-0.355633,3.138807,3.295394,6.936002,-13.479639,0.362282,-0.591545,0.295492,-0.067627,0.560059,0.129150,-0.079103,-0.003730,0.031148,0.999993,0.001811,-0.002958,0.001477,0.400561,-0.559581,0.208075,-0.695072
46580,NaN,-7.743381,-1.385542,2.022830,1.833916,7.268260,-12.940012,0.189750,-0.807393,0.475287,-0.067627,0.560059,0.129150,-0.077481,-0.014059,0.019902,0.999989,0.000949,-0.004037,0.002376,0.403606,-0.561512,0.207172,-0.692016
46581,NaN,-7.588499,-2.457228,1.332758,0.739008,7.682341,-12.228119,0.054152,-1.017130,0.638932,-0.069824,0.558105,0.127197,-0.075872,-0.024818,0.012935,0.999982,0.000271,-0.005086,0.003195,0.407423,-0.564315,0.207258,-0.687459
46582,NaN,-7.332410,-3.791872,0.921824,-0.193659,8.192292,-11.169163,0.137715,-1.245075,0.795835,-0.069824,0.560059,0.129150,-0.073228,-0.038216,0.008736,0.999972,0.000689,-0.006225,0.003979,0.411853,-0.567480,0.206535,-0.682413
46583,NaN,-6.142932,-6.170496,1.512999,-0.559889,8.715204,-8.459942,0.406828,-1.510778,0.961810,-0.069824,0.558105,0.127197,-0.061243,-0.062030,0.014541,0.999958,0.002034,-0.007554,0.004809,0.418336,-0.570795,0.205306,-0.676045
46584,NaN,-4.243327,-9.531758,2.426280,-0.947183,9.248989,-4.492542,0.598690,-1.745675,1.160033,-0.071533,0.551758,0.123291,-0.042087,-0.095634,0.023608,0.999941,0.002993,-0.008728,0.005800,0.425759,-0.574225,0.202977,-0.669175
46585,NaN,-2.578714,-13.117671,2.691222,-2.007632,9.862820,-0.611790,0.605986,-1.977263,1.511751,-0.067871,0.562256,0.125244,-0.025056,-0.131448,0.026264,0.999918,0.003030,-0.009886,0.007559,0.435135,-0.577932,0.201633,-0.660300
46586,NaN,-1.905491,-16.702595,1.359876,-4.573307,10.758376,2.344224,0.469271,-2.194746,1.938336,-0.059326,0.560059,0.116943,-0.017580,-0.167232,0.013008,0.999890,0.002346,-0.010973,0.009691,0.445080,-0.582146,0.200936,-0.650104
46587,NaN,-2.107871,-22.124101,0.765679,-7.130976,13.243936,6.565073,0.523831,-2.552227,2.241660,-0.057129,0.564453,0.121094,-0.018688,-0.221478,0.006828,0.999852,0.002619,-0.012761,0.011208,0.457090,-0.586849,0.200655,-0.637507
46588,NaN,-1.563288,-30.286935,1.106919,-9.704534,16.490514,13.741758,0.431854,-3.151648,2.338664,-0.046631,0.566406,0.125244,-0.012255,-0.303048,0.010204,0.999805,0.002159,-0.015757,0.011693,0.468908,-0.593453,0.198946,-0.623184
46589,NaN,0.235163,-39.341702,0.788493,-12.948778,18.439882,22.446490,0.612478,-3.641569,2.676797,-0.036377,0.576904,0.133301,0.007487,-0.393362,0.006785,0.999740,0.003062,-0.018206,0.013383,0.483383,-0.600402,0.197076,-0.605821
46590,NaN,3.032286,-46.396017,0.611610,-15.081525,18.096716,30.274752,1.177185,-4.017824,3.368819,-0.013672,0.587402,0.133057,0.038036,-0.463391,0.004100,0.999639,0.005885,-0.020087,0.016842,0.500926,-0.606198,0.193890,-0.586519
46591,NaN,6.602917,-50.780000,1.060909,-15.372266,15.327509,36.574064,1.984861,-4.253946,3.911391,0.011475,0.598145,0.126953,0.075768,-0.506464,0.007121,0.999533,0.009923,-0.021266,0.019554,0.523228,-0.609405,0.189993,-0.564588
46592,NaN,12.732132,-53.116902,0.561216,-14.921352,8.722287,42.000169,3.016596,-4.186875,4.232542,0.042725,0.612793,0.118652,0.138478,-0.528350,0.000449,0.999443,0.015080,-0.020930,0.021159,0.548070,-0.608980,0.183364,-0.543268
46593,NaN,17.496027,-51.635255,-0.672580,-13.716697,0.927429,42.942268,3.889594,-3.826666,4.523500,0.084473,0.627441,0.093994,0.186786,-0.512002,-0.013214,0.999372,0.019444,-0.019129,0.022613,0.576301,-0.603887,0.176922,-0.521436
46594,NaN,18.896616,-45.493418,-1.244134,-11.160446,-4.931001,37.924291,4.296909,-3.255158,4.557838,0.122070,0.646484,0.071289,0.199535,-0.450106,-0.018957,0.999377,0.021480,-0.016272,0.022784,0.603691,-0.595595,0.170040,-0.501906
46595,NaN,17.482578,-36.850860,-2.156669,-8.652669,-8.631559,29.155281,3.845022,-2.685474,4.645738,0.162109,0.648682,0.046875,0.183645,-0.363837,-0.026166,0.999455,0.019222,-0.013425,0.023224,0.629547,-0.586139,0.167088,-0.481864
46596,NaN,15.897304,-29.598133,-2.318050,-5.974177,-10.379860,21.658976,2.720778,-2.271371,4.747034,0.204102,0.663330,0.026367,0.166211,-0.291758,-0.025309,0.999561,0.013602,-0.011355,0.023732,0.650592,-0.578837,0.167267,-0.462277
46597,NaN,15.242575,-24.191399,-2.575229,-3.422019,-11.882382,16.093363,1.391954,-1.919736,4.735337,0.240234,0.654785,0.008301,0.158341,-0.238031,-0.025917,0.999649,0.006959,-0.009598,0.023674,0.667544,-0.574299,0.172556,-0.441350
46598,NaN,14.543274,-20.386536,-2.861694,-1.608095,-12.555664,11.980792,0.398579,-1.634757,4.582899,0.278076,0.665283,-0.001953,0.150281,-0.200403,-0.027803,0.999702,0.001993,-0.008173,0.022912,0.680026,-0.572462,0.179371,-0.421518
46599,NaN,13.239073,-17.438695,-3.040682,-0.490874,-12.313076,8.536414,-0.017787,-1.475794,4.347788,0.307861,0.660889,-0.010010,0.136359,-0.171454,-0.029395,0.999736,-0.000089,-0.007378,0.021737,0.690702,-0.571347,0.187880,-0.401490
46600,NaN,11.549091,-14.289979,-3.061870,0.282671,-11.368118,4.938359,-0.053360,-1.409561,4.046479,0.343750,0.665039,-0.024170,0.118562,-0.140530,-0.029753,0.999770,-0.000267,-0.007047,0.020231,0.699850,-0.570439,0.194678,-0.383289
46601,NaN,10.124654,-10.365651,-3.194998,1.116390,-10.449664,0.660786,0.068057,-1.391506,3.649733,0.371582,0.656494,-0.031982,0.103334,-0.101773,-0.031271,0.999809,0.000340,-0.006957,0.018248,0.708529,-0.569014,0.201114,-0.365736
46602,NaN,9.542003,-6.142932,-3.396995,2.224918,-9.926914,-3.745015,0.212775,-1.397625,3.223802,0.386230,0.658447,-0.050537,0.096628,-0.059843,-0.033362,0.999845,0.001064,-0.006988,0.016118,0.716335,-0.567497,0.204956,-0.350436
46603,NaN,9.475668,-1.885079,-3.812178,3.326532,-9.703624,-8.187943,0.248315,-1.394076,2.799288,0.405518,0.647705,-0.056396,0.095270,-0.017473,-0.037481,0.999877,0.001242,-0.006970,0.013996,0.723445,-0.565956,0.208469,-0.335949
46604,NaN,9.535581,2.179941,-4.381222,4.190246,-9.507654,-12.442257,0.200815,-1.382780,2.401274,0.420410,0.652100,-0.068604,0.095384,0.022988,-0.043130,0.999904,0.001004,-0.006914,0.012006,0.729427,-0.565004,0.209946,-0.323465
46605,NaN,9.541810,5.429540,-4.275534,5.140392,-8.798147,-15.726258,0.056476,-1.345734,2.036614,0.430908,0.649902,-0.072510,0.095143,0.055277,-0.042099,0.999925,0.000282,-0.006729,0.010183,0.734318,-0.564675,0.211649,-0.311647
46606,NaN,9.179173,7.649909,-3.961416,5.643942,-7.795884,-17.926750,-0.206856,-1.328049,1.698453,0.435303,0.649902,-0.086914,0.091399,0.077236,-0.039086,0.999941,-0.001034,-0.006640,0.008492,0.737750,-0.565683,0.211919,-0.301360
46607,NaN,8.601153,9.123297,-3.737003,5.679073,-6.837054,-19.413771,-0.563408,-1.376091,1.370318,0.443848,0.647705,-0.088867,0.085640,0.091716,-0.037038,0.999949,-0.002817,-0.006880,0.006851,0.739669,-0.568265,0.212443,-0.291260
46608,NaN,8.225500,10.186002,-3.606911,5.686376,-6.202348,-20.471897,-0.823695,-1.439081,1.012050,0.445801,0.652100,-0.088867,0.081997,0.102127,-0.035899,0.999953,-0.004118,-0.007195,0.005060,0.740301,-0.572316,0.211227,-0.282474
46609,NaN,8.137526,10.748410,-3.691872,5.646135,-6.046250,-21.079519,-0.896695,-1.479433,0.620822,0.443604,0.654053,-0.091064,0.081314,0.107571,-0.036799,0.999958,-0.004483,-0.007397,0.003104,0.740143,-0.576980,0.209590,-0.274508
46610,NaN,8.174764,10.702121,-3.795288,5.632191,-6.132802,-21.056942,-0.654580,-1.458596,0.219256,0.443115,0.664795,-0.093262,0.081906,0.106987,-0.037706,0.999967,-0.003273,-0.007293,0.001096,0.740064,-0.581166,0.205758,-0.268728
46611,NaN,8.121758,9.998262,-3.436875,5.760491,-5.933332,-20.269818,-0.240169,-1.403479,-0.156441,0.434570,0.666992,-0.101562,0.081535,0.099878,-0.033917,0.999974,-0.001201,-0.007017,-0.000782,0.740558,-0.584051,0.201158,-0.264564
46612,NaN,7.984176,9.651698,-3.146086,5.892987,-5.664333,-19.812001,0.106684,-1.312213,-0.541558,0.430420,0.669189,-0.105713,0.080307,0.096317,-0.030884,0.999975,0.000533,-0.006561,-0.002708,0.741457,-0.585933,0.194613,-0.262772
46613,NaN,7.974798,10.033533,-2.825843,6.274145,-5.326381,-20.036005,0.338340,-1.214369,-0.921468,0.421631,0.671387,-0.115967,0.080378,0.100013,-0.027602,0.999970,0.001692,-0.006072,-0.004607,0.742356,-0.587150,0.187618,-0.262607
46614,NaN,7.986066,10.691763,-2.356974,6.847450,-4.858405,-20.449898,0.402865,-1.091580,-1.308037,0.404297,0.684082,-0.118164,0.080684,0.106438,-0.022916,0.999962,0.002014,-0.005458,-0.006540,0.742819,-0.588305,0.179233,-0.264559
46615,NaN,8.220300,10.944622,-1.959385,7.489765,-4.683503,-20.450340,0.283857,-0.942818,-1.678009,0.393311,0.694824,-0.118408,0.083208,0.108778,-0.019048,0.999953,0.001419,-0.004714,-0.008390,0.742193,-0.590002,0.170986,-0.267976
46616,NaN,8.441061,10.417113,-1.908796,7.783481,-4.941109,-19.732715,0.097902,-0.758197,-2.039476,0.374268,0.698975,-0.116699,0.085538,0.103312,-0.018714,0.999941,0.000490,-0.003791,-0.010197,0.740357,-0.592377,0.162058,-0.273309
46617,NaN,8.397179,9.173369,-2.119627,7.531200,-5.385721,-18.381410,-0.042642,-0.546788,-2.418652,0.352783,0.707764,-0.116943,0.085130,0.090704,-0.020984,0.999923,-0.000213,-0.002734,-0.012093,0.737255,-0.595251,0.153394,-0.280360
46618,NaN,8.499334,7.398924,-2.370708,7.209739,-6.018675,-16.475219,0.029965,-0.330499,-2.847745,0.331543,0.711914,-0.116943,0.086074,0.072772,-0.023554,0.999897,0.000150,-0.001652,-0.014238,0.733534,-0.597743,0.143687,-0.289803
46619,NaN,8.714281,5.570029,-2.481270,6.957950,-6.580154,-14.438662,0.285572,-0.108528,-3.296286,0.309814,0.722656,-0.119385,0.088059,0.054289,-0.024687,0.999863,0.001428,-0.000543,-0.016481,0.729513,-0.599228,0.133392,-0.301567
46620,NaN,8.978133,3.824991,-2.953575,6.473939,-7.393341,-12.528882,0.927466,0.042592,-3.787470,0.277588,0.735596,-0.127930,0.090480,0.036677,-0.029382,0.999810,0.004637,0.000213,-0.018936,0.726420,-0.598211,0.120822,-0.316006
46621,NaN,9.587888,2.015118,-2.774669,6.464340,-7.851414,-10.305972,1.701612,0.186241,-4.246176,0.245850,0.735840,-0.134277,0.096255,0.018346,-0.027675,0.999738,0.008507,0.000931,-0.021229,0.724386,-0.594281,0.106385,-0.332831
46622,NaN,10.396984,1.214031,-2.234131,7.000645,-8.036264,-8.834712,2.291159,0.281339,-4.607986,0.209717,0.742432,-0.148682,0.104185,0.009998,-0.022365,0.999668,0.011455,0.001407,-0.023037,0.723144,-0.587789,0.089912,-0.351401
46623,NaN,11.295390,1.139233,-1.159595,8.059897,-7.810553,-7.753787,2.690736,0.287389,-4.863054,0.175781,0.744629,-0.171387,0.113172,0.008798,-0.011628,0.999613,0.013452,0.001437,-0.024312,0.721941,-0.579704,0.072118,-0.370870
46624,NaN,12.453992,0.708616,0.043975,9.105894,-7.669084,-6.092295,2.739927,0.240839,-4.995683,0.133545,0.738525,-0.187988,0.124665,0.003968,0.000358,0.999594,0.013698,0.001204,-0.024975,0.720250,-0.570957,0.053446,-0.390374
46625,NaN,14.392254,-1.455191,1.378512,9.676515,-7.974395,-2.472387,2.399646,0.177999,-5.053980,0.106201,0.736572,-0.204346,0.143503,-0.018345,0.013452,0.999608,0.011997,0.000890,-0.025267,0.716708,-0.563319,0.035060,-0.409599
46626,NaN,17.345719,-6.239088,2.581094,8.974349,-9.021283,3.768690,2.026216,0.221969,-5.177834,0.061768,0.732666,-0.210693,0.171788,-0.067109,0.024956,0.999613,0.010130,0.001110,-0.025886,0.711509,-0.556321,0.017157,-0.428915
46627,NaN,22.433297,-13.877865,4.841294,7.707428,-10.405149,13.669856,1.564327,0.215926,-5.326428,0.025879,0.728516,-0.216797,0.220576,-0.145059,0.047055,0.999614,0.007821,0.001079,-0.026629,0.703897,-0.550783,-0.000272,-0.448516
46628,NaN,28.876559,-22.371485,7.735783,6.030226,-11.722986,25.116622,0.508989,0.395883,-5.398832,-0.005615,0.722168,-0.216797,0.282736,-0.231597,0.076211,0.999630,0.002545,0.001979,-0.026991,0.692949,-0.547923,-0.014840,-0.468382
46629,NaN,32.554101,-29.177940,8.798895,2.147228,-12.158935,33.031988,-0.452055,0.854499,-5.341889,-0.043701,0.720215,-0.212891,0.317972,-0.300143,0.087292,0.999632,-0.002260,0.004272,-0.026706,0.678669,-0.547183,-0.025572,-0.489230
46630,NaN,31.727591,-34.574468,10.394425,-3.080278,-8.957159,37.304270,-1.297738,1.280464,-4.778917,-0.073242,0.720459,-0.194580,0.309573,-0.352528,0.104219,0.999673,-0.006488,0.006402,-0.023892,0.663390,-0.547695,-0.031070,-0.508899
46631,NaN,29.746211,-37.656360,11.590800,-7.008284,-5.126693,38.782990,-2.319231,1.572797,-4.120773,-0.096680,0.724609,-0.170166,0.290561,-0.381238,0.118008,0.999690,-0.011595,0.007863,-0.020602,0.646137,-0.550939,-0.031373,-0.527247
46632,NaN,26.304578,-37.851484,11.480221,-9.515266,-1.650400,36.695812,-3.026859,1.884485,-3.409792,-0.103027,0.726807,-0.151855,0.257664,-0.381168,0.118113,0.999696,-0.015133,0.009421,-0.017047,0.628931,-0.555077,-0.026640,-0.543715
46633,NaN,21.458876,-35.092644,10.592753,-10.253412,1.526910,31.377443,-3.461540,2.162494,-2.679071,-0.118164,0.733154,-0.119385,0.211052,-0.351892,0.109718,0.999702,-0.017306,0.010811,-0.013394,0.611617,-0.559976,-0.017934,-0.558596
46634,NaN,16.610931,-31.346241,9.114770,-10.189883,3.685620,25.174633,-3.475850,2.306636,-2.116040,-0.130859,0.737305,-0.093018,0.163870,-0.313579,0.094698,0.999727,-0.017378,0.011532,-0.010579,0.596038,-0.563847,-0.007041,-0.571634
46635,NaN,12.046326,-26.844734,7.708347,-9.278086,5.223987,18.678814,-3.156295,2.381186,-1.800753,-0.133301,0.741455,-0.066406,0.118987,-0.268277,0.079896,0.999764,-0.015780,0.011905,-0.009003,0.581404,-0.566683,0.004022,-0.583800
46636,NaN,7.981503,-22.591582,7.137783,-7.796684,6.729095,12.967645,-2.781997,2.417799,-1.628883,-0.141846,0.747803,-0.046143,0.078858,-0.225548,0.073560,0.999797,-0.013909,0.012088,-0.008144,0.568624,-0.567657,0.014607,-0.595163
46637,NaN,5.210255,-19.040667,6.195302,-6.620954,7.166968,8.431770,-2.540273,2.401824,-1.518267,-0.146240,0.750000,-0.025635,0.051418,-0.189997,0.063748,0.999818,-0.012701,0.012008,-0.007591,0.556126,-0.568157,0.024786,-0.606058
46638,NaN,3.630172,-16.199102,4.720541,-6.005036,6.573615,4.972103,-2.472862,2.424450,-1.446354,-0.154785,0.751953,-0.011475,0.035717,-0.161654,0.048770,0.999824,-0.012364,0.012122,-0.007231,0.544345,-0.567790,0.034961,-0.616507
46639,NaN,2.204728,-13.908950,3.450884,-5.588641,6.169839,2.058302,-2.464511,2.455493,-1.356729,-0.159180,0.758301,0.017090,0.021541,-0.138800,0.035954,0.999826,-0.012322,0.012277,-0.006783,0.532212,-0.567454,0.045546,-0.626636
46640,NaN,0.279337,-12.129069,2.290916,-5.546617,6.365315,-0.804351,-2.468558,2.455834,-1.341458,-0.167725,0.760498,0.037354,0.002274,-0.121012,0.024374,0.999826,-0.012342,0.012278,-0.006707,0.520380,-0.566557,0.056056,-0.636455
46641,NaN,-1.936577,-10.546206,1.689654,-5.209595,7.158463,-3.532986,-2.558331,2.396576,-1.350534,-0.172363,0.770996,0.057617,-0.019861,-0.105099,0.018479,0.999824,-0.012791,0.011982,-0.006752,0.507697,-0.566226,0.066808,-0.645886
46642,NaN,-4.110479,-9.091343,1.272571,-4.745011,8.046733,-6.085518,-2.712308,2.314726,-1.368763,-0.180908,0.775146,0.080078,-0.041564,-0.090442,0.014434,0.999818,-0.013561,0.011573,-0.006843,0.494761,-0.566010,0.077610,-0.654844
46643,NaN,-5.870399,-7.833015,0.955874,-4.197528,8.747064,-8.203495,-2.769343,2.193352,-1.377551,-0.185059,0.773193,0.100586,-0.059124,-0.077776,0.011285,0.999820,-0.013846,0.010966,-0.006887,0.481170,-0.566439,0.088446,-0.663174
46644,NaN,-6.877826,-6.898726,0.375735,-3.956899,8.908332,-9.701979,-2.721483,2.032039,-1.332945,-0.195801,0.777344,0.129150,-0.069186,-0.068461,0.005393,0.999834,-0.013607,0.010160,-0.006664,0.468093,-0.566762,0.098625,-0.670777
46645,NaN,-7.785999,-6.004334,-0.052338,-3.620287,9.056121,-11.056958,-2.538488,1.848689,-1.238026,-0.202148,0.781494,0.145264,-0.078225,-0.059554,0.000957,0.999858,-0.012692,0.009243,-0.006190,0.455553,-0.567321,0.108238,-0.677423
46646,NaN,-8.749826,-5.010702,-0.148032,-2.986199,9.275586,-12.406539,-2.288914,1.644695,-1.090708,-0.212891,0.781494,0.165771,-0.087775,-0.049636,-0.000189,0.999886,-0.011444,0.008223,-0.005453,0.444455,-0.567506,0.116688,-0.683214
46647,NaN,-9.583529,-3.925528,-0.291635,-2.382070,9.284322,-13.744781,-2.066472,1.396517,-0.949124,-0.221436,0.787842,0.179932,-0.096036,-0.038823,-0.001844,0.999911,-0.010332,0.006982,-0.004745,0.434370,-0.568083,0.124474,-0.687831
46648,NaN,-10.326860,-2.704782,-0.247709,-1.596920,9.163911,-15.055863,-1.864248,1.139298,-0.806521,-0.221436,0.790039,0.192139,-0.103388,-0.026649,-0.001639,0.999932,-0.009321,0.005696,-0.004033,0.425594,-0.568692,0.131119,-0.691569
46649,NaN,-10.907367,-1.711910,-0.241004,-0.999553,9.012031,-16.116801,-1.733312,0.880239,-0.654307,-0.219482,0.791992,0.208496,-0.109138,-0.016779,-0.001783,0.999947,-0.008666,0.004401,-0.003271,0.417772,-0.569948,0.137469,-0.694067
46650,NaN,-11.211580,-1.318797,-0.131105,-0.609967,9.028081,-16.563738,-1.633767,0.615612,-0.521447,-0.219482,0.791992,0.218750,-0.112153,-0.012904,-0.000860,0.999958,-0.008169,0.003078,-0.002607,0.410898,-0.571572,0.142992,-0.695716
46651,NaN,-11.135235,-1.473031,0.042244,-0.428843,9.112171,-16.366234,-1.567807,0.360434,-0.409360,-0.225830,0.794189,0.230957,-0.111381,-0.014497,0.000737,0.999966,-0.007839,0.001802,-0.002047,0.404782,-0.573985,0.148375,-0.696188
