// Start Time: Unknown
// Update Rate: 100.0Hz
// Filter Profile: human (46.1)
// Firmware Version: 4.4.0
PacketCounter,SampleTimeFine,Acc_X,Acc_Y,Acc_Z,FreeAcc_X,FreeAcc_Y,FreeAcc_Z,Gyr_X,Gyr_Y,Gyr_Z,Mag_X,Mag_Y,Mag_Z,VelInc_X,VelInc_Y,VelInc_Z,OriInc_q0,OriInc_q1,OriInc_q2,OriInc_q3,Quat_q0,Quat_q1,Quat_q2,Quat_q3
53736,NaN,5.188297,-9.657988,-6.213241,-0.000000,0.000000,2.788020,1.673821,-0.251809,3.810513,-0.872559,0.399414,-0.109619,0.053782,-0.095043,-0.062865,0.999783,0.008368,-0.001259,0.019051,-0.291611,0.092415,0.860762,-0.406831
53737,NaN,12.461492,-0.499430,-6.375150,-0.000000,0.000000,4.192858,1.179388,-0.360651,3.807507,-0.856201,0.425049,-0.112061,0.124790,-0.002244,-0.063545,0.999800,0.005897,-0.001803,0.019036,0.491282,-0.305193,-0.796062,-0.178282
53738,NaN,15.283860,7.733676,-4.555417,-1.361095,14.073339,0.873904,1.424005,-0.255722,3.801694,-0.840332,0.461426,-0.114746,0.151385,0.080544,-0.044794,0.999793,0.007120,-0.001279,0.019007,0.468736,-0.219556,-0.846051,0.127593
53739,NaN,16.294679,7.119838,-1.663869,-4.251782,14.447735,-0.215101,1.443123,-0.100894,4.128312,-0.815674,0.495850,-0.119385,0.161438,0.074658,-0.016027,0.999761,0.007215,-0.000504,0.020640,0.467148,-0.233520,-0.840633,0.143452
53740,NaN,17.619781,5.177740,-0.345425,-6.134756,13.959158,0.426091,1.339161,-0.096096,4.536340,-0.793213,0.532227,-0.130371,0.174964,0.055777,-0.003005,0.999720,0.006695,-0.000480,0.022680,0.466804,-0.251123,-0.833408,0.156402
53741,NaN,20.153717,4.710888,0.086202,-7.470931,15.586450,1.568847,1.305378,-0.072366,4.743721,-0.766602,0.572754,-0.128662,0.200344,0.051863,0.001263,0.999697,0.006526,-0.000362,0.023716,0.464291,-0.267709,-0.826349,0.172955
53742,NaN,22.597094,7.497767,-0.448217,-6.088447,19.799742,1.927593,0.868842,0.027312,4.867278,-0.735596,0.607178,-0.137695,0.224057,0.080465,-0.004171,0.999694,0.004344,0.000137,0.024334,0.473336,-0.291603,-0.814083,0.167898
53743,NaN,21.540310,10.412071,0.322503,-4.954442,21.942828,-1.667003,0.599106,0.269797,4.893116,-0.702148,0.636963,-0.142334,0.212775,0.109338,0.003259,0.999695,0.002995,0.001349,0.024463,0.471056,-0.310238,-0.805560,0.181471
53744,NaN,19.387914,9.591843,0.658092,-1.920533,19.977701,-1.723567,0.534293,0.384015,5.003826,-0.666992,0.675537,-0.149170,0.191412,0.100711,0.006477,0.999682,0.002671,0.001920,0.025016,0.498782,-0.348723,-0.782112,0.133827
53745,NaN,18.517144,6.302916,-0.147679,-1.818480,17.315926,-0.901863,0.188932,0.315498,5.071480,-0.629395,0.709717,-0.147217,0.183492,0.067698,-0.001705,0.999677,0.000945,0.001577,0.025355,0.496791,-0.368181,-0.772104,0.146619
53746,NaN,18.892091,3.531840,-0.273528,0.568001,14.688654,2.568908,-0.145583,0.285221,4.984047,-0.591553,0.735352,-0.151855,0.187959,0.040009,-0.003032,0.999688,-0.000728,0.001426,0.024918,0.536283,-0.421261,-0.729133,0.057485
53747,NaN,21.528447,2.214871,1.201091,-0.949153,16.673645,4.001194,-0.326222,0.461803,4.697344,-0.556152,0.767578,-0.145508,0.214712,0.027215,0.011473,0.999720,-0.001631,0.002309,0.023485,0.535779,-0.439274,-0.717892,0.067902
53748,NaN,23.862123,2.680355,-1.110074,5.886735,14.252332,8.625038,-0.812725,0.665010,4.175696,-0.518311,0.793213,-0.143555,0.237954,0.031729,-0.012015,0.999768,-0.004063,0.003325,0.020877,0.579741,-0.490097,-0.648871,-0.051686
53749,NaN,21.336118,3.742596,-1.735852,7.403257,13.203143,5.777821,-1.367057,0.662275,3.742058,-0.490967,0.814453,-0.133057,0.212553,0.041285,-0.018337,0.999796,-0.006835,0.003311,0.018709,0.579389,-0.505928,-0.637296,-0.046887
53750,NaN,15.294193,5.094117,-0.916474,9.543666,6.683025,1.364787,-1.762286,0.477084,3.105810,-0.463623,0.831543,-0.122559,0.152104,0.053222,-0.009991,0.999838,-0.008811,0.002385,0.015528,0.613312,-0.541168,-0.546493,-0.179811
53751,NaN,10.815940,4.671821,-0.033029,7.580021,5.586242,-2.731663,-1.769559,0.387404,2.382439,-0.442627,0.844238,-0.107666,0.107591,0.047996,-0.000960,0.999888,-0.008847,0.001937,0.011912,0.611656,-0.552695,-0.537206,-0.178369
53752,NaN,7.308126,4.258320,0.840917,6.607568,2.713951,-5.206094,-1.738898,0.339186,1.754644,-0.428223,0.859131,-0.090576,0.072717,0.043292,0.007911,0.999922,-0.008694,0.001696,0.008773,0.628708,-0.566247,-0.447560,-0.289449
53753,NaN,4.975667,3.391711,-0.549914,5.248860,0.789686,-6.916390,-1.733209,0.337533,0.936694,-0.419678,0.863525,-0.079834,0.049588,0.034100,-0.005878,0.999950,-0.008666,0.001688,0.004683,0.625881,-0.573274,-0.441316,-0.291324
53754,NaN,2.377394,3.414168,-2.307485,4.213278,-2.162235,-9.359354,-1.710058,0.472471,-0.098923,-0.419922,0.867676,-0.071289,0.023736,0.033931,-0.023422,0.999961,-0.008550,0.002362,-0.000495,0.627844,-0.573010,-0.370114,-0.374817
53755,NaN,-0.244705,4.170267,-3.057145,3.716202,-2.813184,-12.064863,-1.699179,0.660544,-1.227314,-0.434814,0.861328,-0.047852,-0.002294,0.041455,-0.030917,0.999940,-0.008496,0.003303,-0.006136,0.621860,-0.574801,-0.368349,-0.383683
53756,NaN,-2.243765,2.953083,-3.698711,1.418844,-3.349241,-13.581625,-1.652686,0.726684,-2.227628,-0.456299,0.854980,-0.039307,-0.022244,0.029473,-0.037150,0.999897,-0.008263,0.003633,-0.011138,0.612916,-0.568817,-0.326006,-0.441023
53757,NaN,-2.146214,1.253626,-4.637860,-0.188712,-4.250314,-12.908938,-1.606786,0.775062,-3.142717,-0.479492,0.842041,-0.032715,-0.021445,0.012501,-0.046396,0.999837,-0.008033,0.003875,-0.015713,0.602580,-0.566817,-0.328972,-0.455404
53758,NaN,-1.475335,1.148622,-5.694699,-0.450902,-5.289096,-12.596149,-1.419711,0.836119,-4.115454,-0.523926,0.820801,-0.026123,-0.014757,0.011386,-0.056966,0.999754,-0.007098,0.004180,-0.020576,0.587205,-0.559180,-0.312192,-0.495021
53759,NaN,-0.114096,1.966819,-6.662054,0.517550,-6.646367,-11.767583,-1.223800,0.810652,-5.000162,-0.561768,0.792969,-0.015381,-0.000926,0.019285,-0.066735,0.999661,-0.006118,0.004053,-0.024998,0.572475,-0.552772,-0.320655,-0.513708
53760,NaN,1.310643,1.910336,-6.723025,0.652285,-7.056711,-10.397289,-0.888417,0.772055,-5.677341,-0.609863,0.754395,-0.017090,0.013376,0.018427,-0.067364,0.999580,-0.004441,0.003860,-0.028383,0.554120,-0.543447,-0.327511,-0.538844
53761,NaN,2.418011,1.244646,-6.053044,0.246234,-6.577838,-8.973791,-0.544299,0.723799,-6.204536,-0.653564,0.713867,-0.018799,0.024328,0.011528,-0.060651,0.999509,-0.002721,0.003618,-0.031018,0.536841,-0.532579,-0.340735,-0.558624
53762,NaN,3.772438,1.493908,-5.178796,0.747149,-6.062142,-7.369585,-0.296494,0.625177,-6.697999,-0.699219,0.664551,-0.018311,0.038032,0.013592,-0.051927,0.999433,-0.001482,0.003125,-0.033484,0.518047,-0.520037,-0.364696,-0.572875
53763,NaN,5.850732,1.877728,-4.506672,1.090775,-5.918541,-5.140233,-0.151189,0.473839,-7.165877,-0.749268,0.617432,-0.015869,0.059022,0.016634,-0.045219,0.999355,-0.000756,0.002369,-0.035822,0.497663,-0.505672,-0.381429,-0.592570
53764,NaN,7.960163,2.084640,-4.063625,1.032869,-5.717515,-2.710985,0.040601,0.310309,-7.582770,-0.790039,0.555420,-0.021484,0.080252,0.017820,-0.040757,0.999280,0.000203,0.001551,-0.037905,0.477226,-0.489156,-0.414235,-0.601158
53765,NaN,10.137361,1.715219,-3.416439,-0.044373,-5.285196,-0.358032,0.279130,0.165678,-7.954581,-0.830811,0.491211,-0.022949,0.101922,0.013153,-0.034228,0.999208,0.001395,0.000828,-0.039762,0.453970,-0.471134,-0.433801,-0.619484
53766,NaN,12.549924,1.669778,-2.504575,-1.051551,-4.294340,2.308578,0.294159,0.059699,-8.244020,-0.864990,0.420654,-0.032715,0.126039,0.011546,-0.025064,0.999149,0.001470,0.000298,-0.041208,0.432419,-0.449515,-0.470759,-0.623968
53767,NaN,14.511423,0.541451,-1.518150,-3.519584,-3.155647,3.997093,0.409089,-0.051998,-8.434591,-0.894531,0.345703,-0.029541,0.145175,-0.000677,-0.015141,0.999109,0.002045,-0.000260,-0.042160,0.406524,-0.428545,-0.490680,-0.640563
53768,NaN,16.063453,-0.724625,-0.199593,-6.183852,-1.331500,4.966645,0.451215,-0.161569,-8.565299,-0.917725,0.266357,-0.030762,0.160130,-0.014108,-0.001893,0.999080,0.002255,-0.000808,-0.042813,0.384189,-0.402294,-0.526658,-0.642798
53769,NaN,17.879842,-1.594049,1.410655,-8.790180,0.522942,5.886869,0.298521,-0.313906,-8.662704,-0.934326,0.191406,-0.029541,0.177862,-0.023681,0.014355,0.999060,0.001492,-0.001569,-0.043300,0.355769,-0.379546,-0.545144,-0.657412
53770,NaN,20.111050,-3.238499,2.205137,-12.566251,1.773577,6.264959,-0.032731,-0.485076,-8.618226,-0.944580,0.114258,-0.024170,0.199413,-0.041000,0.022543,0.999069,-0.000164,-0.002425,-0.043078,0.330488,-0.353229,-0.572868,-0.661687
53771,NaN,22.368351,-6.082223,1.988379,-17.476626,2.196186,5.376457,-0.366386,-0.490973,-8.512914,-0.950439,0.037109,-0.023193,0.220777,-0.070225,0.020551,0.999090,-0.001831,-0.002454,-0.042552,0.299978,-0.330760,-0.586976,-0.675329
53772,NaN,24.619625,-9.515407,0.776161,-22.815008,1.590084,3.371127,-0.618464,-0.341887,-8.353174,-0.939453,-0.037842,-0.021973,0.241925,-0.105294,0.008493,0.999122,-0.003091,-0.001709,-0.041754,0.274016,-0.305531,-0.604405,-0.682832
53773,NaN,27.725618,-14.002475,-1.669583,-29.361788,0.074734,0.430731,-0.691686,-0.103554,-7.993759,-0.943604,-0.100098,-0.025391,0.271374,-0.151008,-0.016045,0.999195,-0.003458,-0.000518,-0.039958,0.245142,-0.282436,-0.613908,-0.695163
53774,NaN,30.481996,-20.147893,-4.407394,-36.367054,-1.910448,-4.551374,-0.499907,0.177221,-7.408106,-0.934814,-0.166504,-0.032959,0.297040,-0.212689,-0.043817,0.999311,-0.002499,0.000886,-0.037032,0.224638,-0.258583,-0.625133,-0.701343
53775,NaN,29.876236,-26.407069,-5.125131,-40.072675,-1.663609,-12.456869,-0.199742,0.396243,-6.737625,-0.920166,-0.220215,-0.027832,0.289541,-0.273981,-0.051561,0.999430,-0.000999,0.001981,-0.033682,0.201868,-0.236216,-0.632340,-0.709646
53776,NaN,27.037840,-32.097919,-6.503559,-40.906119,-2.871296,-20.836604,0.133794,0.249680,-6.020447,-0.909668,-0.269287,-0.033447,0.260475,-0.328876,-0.065583,0.999546,0.000669,0.001248,-0.030098,0.189299,-0.217372,-0.641906,-0.710543
53777,NaN,23.315687,-34.945136,-6.975114,-38.613975,-3.034006,-27.498932,-0.006400,0.238678,-5.104685,-0.899658,-0.314453,-0.043457,0.224055,-0.355250,-0.070011,0.999674,-0.000032,0.001193,-0.025521,0.171864,-0.200078,-0.646995,-0.715422
53778,NaN,13.494676,-34.426743,-2.483442,-29.136611,0.826142,-32.696524,-0.480817,0.039111,-3.934504,-0.892090,-0.340088,-0.040771,0.128135,-0.346891,-0.024028,0.999804,-0.002404,0.000196,-0.019671,0.167109,-0.190816,-0.651649,-0.714855
53779,NaN,6.264051,-36.202881,-0.646659,-22.818982,3.003096,-38.457351,-0.803936,-0.128498,-2.237063,-0.880859,-0.359375,-0.046875,0.058589,-0.362721,-0.004971,0.999929,-0.004020,-0.000642,-0.011185,0.157917,-0.184646,-0.650970,-0.719170
53780,NaN,0.630240,-39.538745,-3.895492,-19.891368,0.035360,-44.210400,-0.851557,0.039881,-0.580895,-0.887695,-0.346680,-0.047119,0.005146,-0.395565,-0.037272,0.999987,-0.004258,0.000199,-0.002904,0.164314,-0.188571,-0.649229,-0.718292
53781,NaN,-2.562103,-43.627509,-6.148791,-19.170332,-1.598847,-49.532587,-0.214195,-0.211381,0.361380,-0.889893,-0.346680,-0.040771,-0.024768,-0.436386,-0.061047,0.999997,-0.001071,-0.001057,0.001807,0.164725,-0.190680,-0.648291,-0.718489
53782,NaN,-4.132444,-40.639646,-3.449807,-17.343045,0.454869,-46.954908,0.228464,-0.497232,1.308913,-0.888184,-0.333740,-0.034424,-0.038577,-0.406615,-0.035061,0.999975,0.001142,-0.002486,0.006545,0.177254,-0.202381,-0.648732,-0.711877
53783,NaN,0.441194,-34.197987,-1.506321,-18.414231,1.666633,-38.623241,0.634816,-0.668970,2.292513,-0.904053,-0.308105,-0.026367,0.008384,-0.341849,-0.016125,0.999924,0.003174,-0.003345,0.011462,0.183874,-0.211621,-0.649215,-0.707055
53784,NaN,5.496988,-26.141820,-0.214384,-19.352072,1.979299,-28.120549,0.804334,-0.745768,3.091327,-0.913818,-0.273682,-0.020508,0.059011,-0.260516,-0.002978,0.999866,0.004021,-0.003729,0.015456,0.201805,-0.230243,-0.648684,-0.696759
53785,NaN,12.750343,-18.782949,-19.553976,-22.631348,-17.824106,-18.041602,1.373424,-2.223582,3.391587,-0.921387,-0.248047,0.021973,0.132821,-0.184265,-0.195356,0.999771,0.006867,-0.011117,0.016957,0.207945,-0.247551,-0.651658,-0.686163
53786,NaN,11.516505,-41.023911,-43.814425,-38.090752,-41.035421,-34.305913,-0.301343,-1.686657,4.434628,-0.933838,-0.200928,0.016846,0.127917,-0.408155,-0.436485,0.999717,-0.001507,-0.008432,0.022171,0.227463,-0.273451,-0.648180,-0.673311
53787,NaN,53.898126,-2.206721,20.469251,-38.470410,23.078093,26.436560,-12.035454,-0.238583,5.127783,-0.941895,-0.151611,-0.003174,0.538854,0.004117,0.205613,0.997861,-0.060134,-0.001192,0.025621,0.227012,-0.303955,-0.599568,-0.704695
53788,NaN,51.927858,29.873690,41.062273,-7.224276,37.254947,52.101296,-2.098495,-0.097293,5.912083,-0.950439,-0.089355,-0.001953,0.509865,0.318191,0.407601,0.999508,-0.010491,-0.000486,0.029556,0.255622,-0.329574,-0.586591,-0.694226
53789,NaN,22.155412,-26.147608,24.109105,-29.888575,29.176632,-6.528452,-0.564006,-0.836393,6.632405,-0.952637,-0.029297,0.016357,0.229032,-0.253280,0.242761,0.999437,-0.002820,-0.004181,0.033156,0.275116,-0.352462,-0.574444,-0.685635
53790,NaN,10.208887,-19.417402,14.813371,-18.465985,18.943691,-10.629152,-2.351274,-1.860173,5.831391,-0.947998,0.024170,0.030518,0.106259,-0.189349,0.151354,0.999463,-0.011754,-0.009299,0.029152,0.289051,-0.387906,-0.550402,-0.680468
53791,NaN,-8.065354,-13.918919,-11.823029,-9.980180,-8.560503,-24.833410,-0.500860,-0.943140,4.576103,-0.947266,0.062744,0.032227,-0.076879,-0.141273,-0.118247,0.999724,-0.002504,-0.004715,0.022878,0.300975,-0.404325,-0.541033,-0.673216
53792,NaN,-8.974874,-10.597962,-17.885486,-8.989644,-15.044647,-24.150899,1.238313,0.003156,3.829549,-0.948486,0.099121,0.033691,-0.087715,-0.106562,-0.179512,0.999798,0.006191,0.000016,0.019146,0.318825,-0.419882,-0.530090,-0.664119
53793,NaN,4.108112,-5.952695,-2.187515,-7.458530,-0.627089,-8.779721,-0.308801,-0.889786,3.597427,-0.941162,0.129150,0.048340,0.042240,-0.058808,-0.021598,0.999827,-0.001544,-0.004449,0.017986,0.327711,-0.432792,-0.522837,-0.657220
53794,NaN,9.735558,-8.962274,3.424047,-10.939639,5.747169,-3.972446,-0.569605,-1.289310,2.826088,-0.939941,0.154785,0.058838,0.098383,-0.088138,0.035125,0.999875,-0.002848,-0.006446,0.014130,0.335150,-0.449837,-0.513353,-0.649453
53795,NaN,16.755462,-12.482256,-6.020420,-18.717126,-2.321317,1.006435,0.684260,-0.679024,2.339985,-0.932129,0.178467,0.058350,0.169202,-0.122644,-0.060054,0.999920,0.003421,-0.003395,0.011700,0.342521,-0.456867,-0.511406,-0.642196
53796,NaN,12.162149,-7.765520,-10.466436,-13.544747,-8.019465,-1.447367,1.486828,0.009884,2.050292,-0.928223,0.195557,0.055908,0.122399,-0.075622,-0.105238,0.999920,0.007434,0.000049,0.010251,0.354688,-0.463024,-0.508421,-0.633492
53797,NaN,9.320288,-4.514661,1.482121,-6.736452,2.683430,-2.271886,0.354164,-0.479154,1.670976,-0.926758,0.210449,0.062256,0.093540,-0.044392,0.014966,0.999961,0.001771,-0.002396,0.008355,0.359571,-0.468145,-0.506502,-0.628494
53798,NaN,15.274618,-8.288980,-0.389969,-12.216711,1.821893,2.418453,0.640562,-0.222415,1.401464,-0.920898,0.225586,0.064209,0.153326,-0.081804,-0.003993,0.999970,0.003203,-0.001112,0.007007,0.366791,-0.473745,-0.503777,-0.622285
53799,NaN,18.710075,-7.247106,-6.630148,-13.379250,-4.519683,5.906895,0.982239,-0.013318,1.312294,-0.914795,0.240479,0.061768,0.187574,-0.070915,-0.066640,0.999966,0.004911,-0.000067,0.006561,0.373158,-0.475276,-0.503730,-0.617351
53800,NaN,20.681229,-5.087814,-3.413377,-10.825270,-1.931526,8.743277,0.691135,0.076252,1.431352,-0.915283,0.253418,0.055176,0.207156,-0.049278,-0.034385,0.999968,0.003456,0.000381,0.007157,0.381009,-0.479277,-0.501007,-0.611651
53801,NaN,22.393112,-7.694216,-2.119876,-13.167794,-0.229393,9.978479,1.049131,-0.048789,1.525394,-0.915771,0.268311,0.050781,0.224514,-0.075119,-0.021541,0.999957,0.005246,-0.000244,0.007627,0.388053,-0.481230,-0.500629,-0.605973
53802,NaN,24.723021,-5.367319,-2.630168,-11.139223,-1.334719,13.014313,1.458073,0.167307,1.628800,-0.909912,0.283447,0.039795,0.247633,-0.051463,-0.026889,0.999940,0.007290,0.000837,0.008144,0.398267,-0.483467,-0.499803,-0.598197
53803,NaN,25.764092,-3.390472,0.162002,-8.575536,0.872776,14.702444,1.284156,0.174824,1.701518,-0.904053,0.302734,0.043945,0.257918,-0.031720,0.001186,0.999943,0.006421,0.000874,0.008507,0.406877,-0.484613,-0.499151,-0.591987
53804,NaN,27.114560,-2.888777,-0.925271,-8.030808,-0.438661,16.258324,1.666748,0.119093,1.555089,-0.897949,0.315430,0.028564,0.271353,-0.026699,-0.009643,0.999935,0.008334,0.000595,0.007775,0.416939,-0.485953,-0.499216,-0.583777
53805,NaN,26.976793,-0.452775,-2.278236,-5.460042,-2.291910,16.608234,2.346079,0.254100,1.220763,-0.893799,0.322021,0.024414,0.269758,-0.002611,-0.023163,0.999912,0.011730,0.001270,0.006104,0.426802,-0.483327,-0.502521,-0.575941
53806,NaN,23.834728,3.546935,-1.909822,-0.575852,-2.478007,14.225714,2.721710,0.171652,0.834236,-0.892090,0.330566,0.007080,0.238180,0.036720,-0.018809,0.999898,0.013608,0.000858,0.004171,0.437168,-0.480029,-0.507327,-0.566635
53807,NaN,21.582534,6.936637,-2.618957,3.233941,-3.440739,12.514019,2.340902,0.147030,0.285501,-0.885742,0.334961,0.004883,0.215707,0.069976,-0.025532,0.999930,0.011704,0.000735,0.001427,0.443940,-0.475188,-0.512915,-0.560385
53808,NaN,14.750046,10.809491,-0.415939,8.414674,-1.267404,6.378734,2.830591,0.159878,0.159626,-0.892090,0.337158,-0.016602,0.147412,0.108258,-0.002746,0.999899,0.014152,0.000799,0.000798,0.452322,-0.469463,-0.519824,-0.552080
53809,NaN,8.954093,8.533794,-0.568275,7.098754,-0.949687,0.287909,3.908433,0.362610,0.508907,-0.894531,0.343506,-0.033936,0.089315,0.085657,-0.004173,0.999804,0.019541,0.001813,0.002544,0.463757,-0.460856,-0.528493,-0.541512
53810,NaN,6.529067,7.450470,-1.762108,6.489807,-1.830343,-2.344746,3.305828,0.615481,0.969403,-0.892578,0.352051,-0.055420,0.064876,0.075100,-0.016583,0.999847,0.016528,0.003077,0.004847,0.476168,-0.454405,-0.533621,-0.531063
53811,NaN,9.087548,4.976202,-4.011053,3.929727,-4.082378,-0.256468,1.622592,0.954974,1.579453,-0.884521,0.367188,-0.068359,0.090285,0.050802,-0.040133,0.999925,0.008113,0.004775,0.007897,0.486563,-0.452189,-0.532025,-0.525101
53812,NaN,10.169922,-4.146562,-6.988286,-4.875053,-7.507085,-0.361266,0.420715,1.126143,1.903330,-0.876465,0.388672,-0.081543,0.101691,-0.040350,-0.070541,0.999937,0.002104,0.005631,0.009516,0.495962,-0.453458,-0.526216,-0.521051
53813,NaN,10.042868,-6.711593,-9.897232,-7.055751,-10.629044,-0.807382,-0.288977,1.165091,2.253190,-0.864258,0.407959,-0.088135,0.100599,-0.066127,-0.099462,0.999919,-0.001445,0.005825,0.011266,0.504204,-0.457033,-0.517420,-0.518821
53814,NaN,10.036927,-2.560612,-7.673907,-2.815631,-8.296011,-0.355862,-1.064694,0.964840,2.335867,-0.856445,0.429199,-0.092773,0.100291,-0.024844,-0.077089,0.999906,-0.005323,0.004824,0.011679,0.510871,-0.463332,-0.507522,-0.516484
53815,NaN,9.323452,-2.240167,-5.770946,-2.378381,-6.390894,-0.938769,-1.557189,0.741633,2.688995,-0.840088,0.457031,-0.091064,0.093314,-0.021598,-0.057885,0.999872,-0.007786,0.003708,0.013444,0.516027,-0.472161,-0.495310,-0.515217
53816,NaN,7.099134,-3.960003,-3.862437,-3.899754,-4.396787,-2.996974,-0.966658,0.464504,3.194409,-0.826172,0.485107,-0.095703,0.071524,-0.038647,-0.038602,0.999858,-0.004833,0.002322,0.015971,0.523635,-0.481376,-0.485025,-0.508757
53817,NaN,5.882245,-8.044106,-2.076903,-7.815622,-2.655526,-3.856649,0.688203,0.325110,3.671604,-0.810059,0.517090,-0.106689,0.060251,-0.079271,-0.021140,0.999824,0.003441,0.001625,0.018357,0.535330,-0.487568,-0.477000,-0.498167
53818,NaN,8.187494,-12.498310,-3.814631,-11.734011,-4.888195,-1.085102,2.346377,-0.038574,3.973546,-0.789307,0.542725,-0.115479,0.084338,-0.122865,-0.039580,0.999734,0.011731,-0.000193,0.019866,0.551233,-0.490840,-0.474104,-0.480045
53819,NaN,15.033162,-1.514223,-6.754378,0.563688,-7.748310,4.799260,2.353696,-0.304055,3.929292,-0.773193,0.572754,-0.122314,0.150683,-0.011390,-0.067464,0.999737,0.011767,-0.001520,0.019645,0.565576,-0.494270,-0.470821,-0.462762
53820,NaN,18.513961,6.792860,-5.103651,9.908450,-5.378188,7.151586,2.303917,-0.093491,3.940693,-0.750488,0.604980,-0.144287,0.183769,0.072140,-0.050135,0.999739,0.011519,-0.000467,0.019702,0.580497,-0.497237,-0.467645,-0.443944
53821,NaN,19.325413,5.971465,-2.377422,9.747613,-2.565855,7.882325,1.935227,0.136283,4.258484,-0.721436,0.632812,-0.157227,0.191905,0.064038,-0.023300,0.999726,0.009675,0.000681,0.021290,0.594922,-0.501141,-0.460828,-0.427275
53822,NaN,21.359198,4.160893,-0.702291,9.072933,-0.978541,9.952553,1.803661,0.288055,4.477873,-0.687988,0.662842,-0.172607,0.212578,0.046439,-0.006925,0.999708,0.009017,0.001440,0.022387,0.609774,-0.505388,-0.453667,-0.408589
53823,NaN,23.309209,6.725411,-1.287371,13.033890,-1.071513,10.658421,1.023298,0.410574,4.698343,-0.656738,0.694824,-0.185791,0.231399,0.072770,-0.012987,0.999709,0.005116,0.002053,0.023489,0.622713,-0.511941,-0.442499,-0.392860
53824,NaN,22.697957,9.763938,-1.170559,16.618090,-0.181602,8.506509,0.719358,0.575759,4.708048,-0.623291,0.722656,-0.192383,0.224563,0.102988,-0.011990,0.999712,0.003596,0.002879,0.023538,0.634984,-0.518872,-0.431099,-0.376458
53825,NaN,20.559624,10.024628,-0.590288,16.835037,0.636719,5.666762,0.548452,0.598435,4.819445,-0.593994,0.750488,-0.201172,0.203083,0.105177,-0.006229,0.999701,0.002742,0.002992,0.024095,0.646579,-0.526239,-0.417598,-0.361413
53826,NaN,19.445314,7.471850,-0.920248,14.866806,0.056618,4.805107,0.344374,0.548593,4.967722,-0.550049,0.784668,-0.208008,0.192491,0.079533,-0.009598,0.999686,0.001722,0.002743,0.024836,0.657304,-0.534327,-0.404384,-0.344847
53827,NaN,19.648920,5.721277,-1.276680,14.191787,-0.519337,4.975161,0.057226,0.426707,4.937515,-0.520752,0.806152,-0.210205,0.194969,0.062043,-0.013167,0.999693,0.000286,0.002133,0.024685,0.666632,-0.543223,-0.389763,-0.329537
53828,NaN,21.189200,5.369639,-0.718794,15.257903,0.098812,5.853476,-0.138109,0.446234,4.728097,-0.478516,0.829590,-0.214600,0.210527,0.058679,-0.007698,0.999718,-0.000690,0.002231,0.023638,0.674505,-0.551971,-0.376244,-0.314344
53829,NaN,23.136625,5.163582,-0.809719,16.844607,0.016195,6.884363,-0.530066,0.594193,4.319045,-0.455566,0.851074,-0.212646,0.230154,0.056592,-0.008928,0.999759,-0.002650,0.002971,0.021593,0.680786,-0.560818,-0.361394,-0.302336
53830,NaN,23.220553,4.617201,-1.840144,17.263636,-1.050610,6.456617,-1.201122,0.656418,3.896547,-0.419922,0.876709,-0.200195,0.231186,0.050568,-0.019456,0.999787,-0.006005,0.003282,0.019481,0.684036,-0.570764,-0.347516,-0.292499
53831,NaN,19.778889,5.046425,-0.902812,15.986804,-0.102587,2.909564,-1.786569,0.542483,3.403278,-0.392578,0.893799,-0.189453,0.196867,0.053733,-0.010033,0.999812,-0.008932,0.002712,0.017015,0.684730,-0.581888,-0.333268,-0.285453
53832,NaN,13.945465,5.073217,0.872944,12.525630,1.617188,-1.973600,-1.904354,0.399016,2.821566,-0.375732,0.906494,-0.170410,0.138736,0.052771,0.007956,0.999853,-0.009521,0.001995,0.014107,0.683400,-0.592346,-0.322179,-0.279807
53833,NaN,10.607028,4.872372,1.027057,10.424824,1.654441,-4.725233,-1.874323,0.314109,2.212959,-0.365479,0.917236,-0.151123,0.105537,0.049986,0.009640,0.999894,-0.009371,0.001570,0.011064,0.681379,-0.601814,-0.311893,-0.276162
53834,NaN,7.067579,5.777221,-0.152508,8.983046,0.510298,-8.266063,-1.784262,0.289327,1.426267,-0.359375,0.923584,-0.146973,0.070259,0.058257,-0.002145,0.999934,-0.008921,0.001447,0.007131,0.678005,-0.609521,-0.305274,-0.274957
53835,NaN,4.047164,5.421420,-1.191882,6.806920,-0.670442,-10.450759,-1.810195,0.344810,0.501483,-0.361572,0.927734,-0.132080,0.040315,0.054204,-0.012479,0.999954,-0.009051,0.001724,0.002507,0.673674,-0.615922,-0.300072,-0.277056
53836,NaN,0.851606,4.029999,-1.888221,3.678250,-1.569474,-11.942957,-1.872627,0.525537,-0.585307,-0.378906,0.927734,-0.110596,0.008583,0.040096,-0.019281,0.999948,-0.009363,0.002628,-0.002926,0.667475,-0.620405,-0.298600,-0.283569
53837,NaN,-2.549854,2.627309,-2.261459,0.402015,-2.065941,-13.566198,-1.617494,0.656423,-1.725756,-0.400146,0.921387,-0.097900,-0.025346,0.026309,-0.022744,0.999925,-0.008087,0.003282,-0.008629,0.660942,-0.622251,-0.299444,-0.293756
53838,NaN,-3.093127,1.255296,-3.374977,-0.873407,-3.269282,-13.141725,-1.410846,0.639882,-2.777825,-0.431885,0.902100,-0.095459,-0.030863,0.012744,-0.033740,0.999874,-0.007054,0.003199,-0.013889,0.655082,-0.619439,-0.309234,-0.302551
53839,NaN,-1.804093,0.903433,-4.858529,-0.271834,-4.781780,-11.989132,-1.103516,0.700175,-3.744546,-0.480713,0.880859,-0.086914,-0.018041,0.009104,-0.048572,0.999803,-0.005517,0.003501,-0.018722,0.646956,-0.616084,-0.316805,-0.318628
53840,NaN,-0.193869,1.673726,-5.450376,1.410274,-5.363396,-11.150759,-0.804081,0.774509,-4.649619,-0.529297,0.861572,-0.086914,-0.001764,0.016560,-0.054564,0.999714,-0.004020,0.003872,-0.023246,0.640286,-0.607243,-0.333037,-0.332229
53841,NaN,0.503593,2.248560,-5.418840,2.267810,-5.340413,-10.817497,-0.596014,0.799409,-5.409372,-0.579834,0.822998,-0.086670,0.005422,0.022181,-0.054276,0.999622,-0.002980,0.003997,-0.027043,0.630582,-0.598589,-0.345782,-0.352836
53842,NaN,1.616690,1.549499,-4.768635,2.264290,-4.735473,-9.363913,-0.348274,0.771645,-6.069980,-0.632080,0.784668,-0.094727,0.016441,0.014916,-0.047776,0.999531,-0.001741,0.003858,-0.030345,0.622147,-0.584787,-0.366254,-0.369887
53843,NaN,2.803066,1.131765,-3.901162,2.304091,-3.953185,-7.964079,-0.130800,0.761050,-6.653078,-0.686279,0.733398,-0.100830,0.028237,0.010355,-0.039126,0.999439,-0.000654,0.003805,-0.033259,0.610508,-0.571279,-0.382887,-0.392833
53844,NaN,5.056078,2.588612,-3.103611,4.358087,-3.157757,-6.218353,-0.265939,0.666438,-7.114960,-0.742432,0.679932,-0.104492,0.051334,0.024027,-0.031239,0.999361,-0.001329,0.003331,-0.035567,0.599596,-0.553359,-0.406262,-0.411376
53845,NaN,7.849571,3.212243,-2.549640,5.462184,-2.781059,-3.422802,-0.531826,0.614493,-7.472416,-0.796143,0.615723,-0.108154,0.079542,0.029095,-0.025820,0.999294,-0.002659,0.003072,-0.037353,0.583584,-0.538125,-0.423708,-0.436260
53846,NaN,9.888946,2.903858,-2.167889,5.106269,-2.525067,-0.957312,-0.824358,0.558853,-7.765296,-0.845215,0.542969,-0.107422,0.099853,0.025083,-0.022066,0.999234,-0.004121,0.002794,-0.038817,0.568367,-0.518691,-0.446346,-0.456829
53847,NaN,11.537932,2.022928,-2.691386,3.744415,-3.304870,1.116115,-0.965199,0.491118,-8.041939,-0.883545,0.470215,-0.100098,0.115998,0.015441,-0.027280,0.999177,-0.004825,0.002455,-0.040199,0.548130,-0.501944,-0.463229,-0.482726
53848,NaN,12.977577,0.635629,-3.147240,1.552794,-3.949546,2.860659,-0.876177,0.419751,-8.330912,-0.916992,0.380127,-0.107422,0.129820,0.000810,-0.031757,0.999121,-0.004380,0.002098,-0.041642,0.529246,-0.480047,-0.485065,-0.504148
53849,NaN,14.206503,-0.585063,-3.793435,-0.792327,-4.799126,4.071449,-0.437371,0.277530,-8.611701,-0.946533,0.301025,-0.108398,0.141583,-0.012038,-0.038109,0.999070,-0.002186,0.001387,-0.043045,0.506678,-0.459181,-0.503439,-0.528185
53850,NaN,15.623180,-1.813475,-3.235438,-3.376772,-4.441266,5.238871,-0.027712,0.135755,-8.901194,-0.962646,0.204590,-0.111328,0.155197,-0.025063,-0.032457,0.999010,-0.000139,0.000679,-0.044491,0.486585,-0.431773,-0.527575,-0.546326
53851,NaN,17.808440,-2.295197,-1.723666,-5.704065,-3.159077,6.999276,0.133622,0.006596,-9.088741,-0.972168,0.110352,-0.107910,0.176797,-0.030996,-0.017261,0.998967,0.000668,0.000033,-0.045428,0.461571,-0.407020,-0.546992,-0.567527
53852,NaN,20.547084,-3.064926,0.159979,-8.823365,-1.625594,8.917242,0.106736,-0.123484,-9.093720,-0.973389,0.022461,-0.110840,0.203794,-0.039944,0.001706,0.998966,0.000533,-0.000617,-0.045453,0.438982,-0.377441,-0.569549,-0.583479
53853,NaN,23.205086,-5.236216,0.546906,-13.500084,-1.531552,9.712123,-0.130383,-0.197925,-8.940474,-0.959961,-0.059082,-0.111816,0.229397,-0.062655,0.005736,0.999000,-0.000652,-0.000989,-0.044687,0.411661,-0.352477,-0.585900,-0.602509
53854,NaN,25.946806,-9.743042,-0.132427,-20.352378,-2.785441,8.780948,-0.346281,-0.116217,-8.654664,-0.944092,-0.144775,-0.104004,0.254931,-0.108532,-0.000994,0.999062,-0.001731,-0.000581,-0.043260,0.388718,-0.323066,-0.603366,-0.616828
53855,NaN,28.595794,-15.141774,-1.531091,-27.730838,-4.508030,6.293933,-0.467140,0.148357,-8.215372,-0.926758,-0.209229,-0.107178,0.279408,-0.163022,-0.015148,0.999153,-0.002335,0.000742,-0.041065,0.362753,-0.298467,-0.614393,-0.633915
53856,NaN,29.130919,-22.319572,-3.659984,-34.862720,-6.810643,0.072499,-0.345001,0.416578,-7.605276,-0.905029,-0.273438,-0.121094,0.282467,-0.234114,-0.036797,0.999273,-0.001725,0.002082,-0.038017,0.339925,-0.273596,-0.624639,-0.647628
53857,NaN,28.453444,-30.371507,-4.767526,-41.105363,-7.888006,-8.326965,-0.124088,0.777621,-6.761895,-0.883789,-0.327148,-0.124512,0.273865,-0.313126,-0.048562,0.999421,-0.000620,0.003887,-0.033803,0.320096,-0.250018,-0.631802,-0.660193
53858,NaN,27.294746,-37.469690,-5.285681,-45.221525,-9.108349,-16.760885,0.418053,0.557965,-6.163637,-0.864990,-0.369873,-0.130127,0.261083,-0.382753,-0.054391,0.999519,0.002090,0.002789,-0.030813,0.307748,-0.223400,-0.642270,-0.665487
53859,NaN,24.110904,-41.221096,-9.049646,-44.567986,-12.605294,-24.533429,0.695183,0.465815,-5.108318,-0.851074,-0.402100,-0.127441,0.230270,-0.417866,-0.092487,0.999665,0.003476,0.002329,-0.025539,0.292923,-0.204306,-0.649356,-0.671411
53860,NaN,14.665444,-44.267480,-7.434626,-38.756155,-10.547954,-34.640092,0.527589,0.144500,-3.750366,-0.839600,-0.425781,-0.129150,0.138268,-0.445122,-0.075620,0.999820,0.002638,0.000722,-0.018751,0.286637,-0.187899,-0.656594,-0.671876
53861,NaN,7.782066,-50.695023,-3.879002,-37.160190,-6.352006,-44.802397,0.611847,-0.018780,-1.884687,-0.834961,-0.434326,-0.124756,0.073043,-0.507532,-0.040335,0.999951,0.003059,-0.000094,-0.009423,0.280806,-0.180892,-0.660415,-0.672516
53862,NaN,2.773134,-50.742253,-3.441427,-33.037235,-6.023151,-48.108367,0.778186,-0.211937,-0.230650,-0.841553,-0.427979,-0.114258,0.027184,-0.507315,-0.036359,0.999991,0.003891,-0.001060,-0.001153,0.285073,-0.177950,-0.665173,-0.666792
53863,NaN,0.157099,-46.147851,-5.871265,-27.931285,-8.259178,-46.085380,0.896362,-0.394889,1.188227,-0.853027,-0.408691,-0.101807,0.004430,-0.461189,-0.060773,0.999970,0.004482,-0.001974,0.005941,0.288513,-0.181939,-0.667647,-0.661745
53864,NaN,-0.244473,-42.439585,-3.710036,-26.330464,-6.597366,-42.645831,0.689817,-0.561168,2.550009,-0.864502,-0.389404,-0.095703,0.003072,-0.424249,-0.038560,0.999909,0.003449,-0.002806,0.012750,0.299021,-0.191792,-0.669396,-0.652466
53865,NaN,3.524685,-37.795234,-0.699064,-27.419030,-4.180084,-35.734921,0.617625,-0.751391,3.516606,-0.883057,-0.354980,-0.081299,0.041913,-0.377231,-0.008007,0.999834,0.003088,-0.003757,0.017582,0.308523,-0.205061,-0.669050,-0.644310
53866,NaN,20.636309,-25.965270,0.142537,-32.537168,-4.860287,-14.009647,1.464012,-1.203617,4.278768,-0.901611,-0.312256,-0.071289,0.211848,-0.255167,0.000810,0.999726,0.007319,-0.006018,0.021392,0.322634,-0.222298,-0.671759,-0.628674
53867,NaN,1.569528,-4.521353,-19.439420,-1.575398,-19.868260,-11.691815,-1.434463,-2.277416,3.807041,-0.915771,-0.280029,-0.052490,0.018779,-0.046267,-0.193863,0.999728,-0.007172,-0.011386,0.019033,0.325272,-0.244501,-0.666509,-0.624646
53868,NaN,57.060406,26.008832,-36.646153,-13.799902,-38.643408,50.115660,-6.691631,-1.220945,3.275679,-0.926270,-0.222168,-0.076904,0.568635,0.257036,-0.371621,0.999288,-0.033450,-0.006103,0.016375,0.326526,-0.270900,-0.644476,-0.636117
53869,NaN,73.938396,-14.353907,66.495882,-60.270171,60.935607,42.548717,-4.062552,0.559803,8.779849,-0.948242,-0.149170,-0.058838,0.746197,-0.097359,0.665167,0.998826,-0.020305,0.002798,0.043882,0.350363,-0.303719,-0.618000,-0.634883
53870,NaN,0.835559,-13.248403,6.751494,-11.837984,6.524117,-16.064068,-0.652712,-2.802238,4.905181,-0.958252,-0.110596,-0.040283,0.010646,-0.132020,0.068085,0.999596,-0.003263,-0.014009,0.024523,0.359421,-0.330677,-0.613386,-0.620667
53871,NaN,-7.665836,-13.265081,-1.310731,-7.585060,-1.258200,-23.127139,0.439557,-1.876138,4.994962,-0.956299,-0.048584,-0.021973,-0.073186,-0.134477,-0.014099,0.999642,0.002198,-0.009380,0.024972,0.369769,-0.350915,-0.609641,-0.607016
53872,NaN,-13.974980,-20.515713,-4.991049,-11.917763,-5.061971,-31.568246,-1.069349,-0.731285,5.034605,-0.961914,-0.005615,-0.020508,-0.134342,-0.208849,-0.049298,0.999662,-0.005346,-0.003656,0.025170,0.382930,-0.373265,-0.598024,-0.596997
53873,NaN,-2.411767,-8.306929,-16.160633,-6.401771,-16.226524,-15.441664,0.255399,-0.804622,4.208195,-0.963379,0.032715,-0.006104,-0.021715,-0.083337,-0.161803,0.999770,0.001277,-0.004023,0.021039,0.393478,-0.387681,-0.592332,-0.586533
53874,NaN,15.743411,-10.242370,6.691529,-15.338021,6.619127,1.069415,-0.883824,-0.644996,3.831793,-0.960205,0.067139,-0.002197,0.159136,-0.099087,0.067870,0.999802,-0.004419,-0.003225,0.019158,0.403820,-0.404662,-0.583605,-0.576700
53875,NaN,13.127794,-10.084939,-1.541611,-13.868449,-1.505513,-0.768319,0.071181,-0.377348,2.957729,-0.959229,0.099121,0.005859,0.132779,-0.098888,-0.015202,0.999889,0.000356,-0.001887,0.014788,0.411352,-0.414200,-0.578519,-0.569688
53876,NaN,16.613301,-12.434651,-5.562615,-16.774622,-5.480844,2.439310,0.801023,-0.613933,2.419052,-0.957764,0.118408,0.003418,0.167790,-0.122101,-0.055605,0.999914,0.004005,-0.003070,0.012095,0.420657,-0.423689,-0.576556,-0.557780
53877,NaN,9.782377,-5.267266,-2.711024,-7.728698,-2.622833,-1.801988,0.327332,-0.050067,2.194890,-0.958496,0.137695,0.009521,0.098400,-0.051550,-0.027171,0.999938,0.001637,-0.000250,0.010974,0.427308,-0.429451,-0.572884,-0.552073
53878,NaN,10.575173,-8.106107,1.313307,-10.506395,1.346457,-1.623300,0.216899,-0.436925,1.807527,-0.950439,0.155029,0.013672,0.106450,-0.080115,0.013278,0.999956,0.001084,-0.002185,0.009038,0.434661,-0.437183,-0.570506,-0.542645
53879,NaN,16.442770,-6.774162,-7.518807,-10.220165,-7.261022,4.870731,0.865417,-0.293790,1.504939,-0.948730,0.169922,0.004883,0.165040,-0.066176,-0.075235,0.999961,0.004327,-0.001469,0.007525,0.439788,-0.440385,-0.570175,-0.536235
53880,NaN,19.145279,-3.629726,-5.920087,-7.317842,-5.453233,8.393525,0.549562,0.023629,1.545729,-0.945068,0.182861,0.006836,0.191718,-0.034653,-0.059320,0.999966,0.002748,0.000118,0.007729,0.448767,-0.444891,-0.568459,-0.526816
53881,NaN,22.028644,-7.582640,-2.684425,-11.561634,-2.347941,10.454641,0.757393,0.054939,1.709758,-0.945801,0.206299,0.008545,0.220916,-0.073837,-0.027187,0.999956,0.003787,0.000275,0.008549,0.455099,-0.447898,-0.566496,-0.520917
53882,NaN,25.564891,-5.950414,-2.323913,-9.959603,-1.829196,14.514416,1.211940,0.204030,1.889653,-0.937500,0.214844,0.000000,0.256171,-0.056942,-0.023851,0.999936,0.006060,0.001020,0.009448,0.466959,-0.451145,-0.565308,-0.508767
53883,NaN,28.008081,-4.220103,-1.333562,-8.178181,-0.740195,17.327311,1.486595,0.462632,1.949433,-0.933838,0.238525,-0.010986,0.280441,-0.039365,-0.014284,0.999922,0.007433,0.002313,0.009747,0.476550,-0.451984,-0.563561,-0.501008
53884,NaN,29.862338,-4.110300,-1.028527,-7.487908,-0.474225,19.400061,1.662967,0.429261,1.939565,-0.936523,0.251465,-0.026367,0.298979,-0.038114,-0.011252,0.999916,0.008315,0.002146,0.009698,0.490569,-0.452867,-0.563035,-0.487078
53885,NaN,30.973945,-0.670189,-2.825303,-3.403004,-1.907256,21.050998,2.330529,0.311156,1.743003,-0.930420,0.262207,-0.032715,0.309736,-0.003669,-0.028789,0.999893,0.011652,0.001556,0.008715,0.500923,-0.451264,-0.563933,-0.476883
53886,NaN,29.476252,2.494933,-3.326049,0.776265,-1.888315,19.884947,2.895474,0.319604,1.281594,-0.922119,0.274902,-0.043701,0.294539,0.027320,-0.033347,0.999873,0.014477,0.001598,0.006408,0.516545,-0.445870,-0.568681,-0.459329
53887,NaN,25.513678,6.153642,-1.777475,4.709371,0.277860,16.066123,3.293363,0.303870,0.707237,-0.926514,0.275146,-0.052246,0.254890,0.062724,-0.017136,0.999857,0.016466,0.001519,0.003536,0.526309,-0.438628,-0.573793,-0.448738
53888,NaN,21.895382,11.084191,-0.622517,9.767036,2.753677,12.540651,2.978018,0.405560,0.146832,-0.928467,0.268555,-0.071533,0.218861,0.111083,-0.005016,0.999887,0.014890,0.002028,0.000734,0.538838,-0.429458,-0.580192,-0.434278
53889,NaN,10.377585,12.610756,1.927174,11.080372,5.644645,0.947233,4.758033,0.347293,0.439891,-0.926025,0.262207,-0.084229,0.103536,0.125832,0.022088,0.999713,0.023788,0.001736,0.002199,0.550871,-0.417054,-0.588467,-0.419898
53890,NaN,7.360081,11.869085,-1.173905,11.320760,3.101864,-2.156297,4.577176,0.622240,0.802656,-0.923828,0.268799,-0.110107,0.073092,0.119215,-0.009242,0.999725,0.022884,0.003111,0.004013,0.568656,-0.402937,-0.596281,-0.398398
53891,NaN,9.118676,9.024784,-4.249359,9.775297,-0.373341,-0.488080,2.665658,0.999332,1.529666,-0.922363,0.288086,-0.125244,0.090280,0.091500,-0.041732,0.999869,0.013328,0.004996,0.007648,0.579986,-0.397892,-0.595581,-0.388047
53892,NaN,12.167714,-2.040439,-7.294852,1.150871,-7.205952,2.523009,0.632600,1.463679,2.246732,-0.907715,0.298828,-0.144775,0.121356,-0.018807,-0.073899,0.999905,0.003163,0.007318,0.011233,0.594298,-0.396967,-0.590024,-0.375631
53893,NaN,10.669364,-5.062250,-9.438209,-0.452010,-10.456707,1.095443,0.353936,1.205458,2.062853,-0.901855,0.318115,-0.153564,0.106635,-0.049355,-0.095113,0.999927,0.001770,0.006027,0.010314,0.602395,-0.399724,-0.582961,-0.370805
53894,NaN,10.511554,-3.958741,-9.336912,0.967809,-9.904871,0.878281,-1.001452,1.298157,2.169850,-0.895996,0.335205,-0.164551,0.104932,-0.038917,-0.093855,0.999908,-0.005007,0.006491,0.010849,0.612328,-0.403282,-0.575476,-0.362277
53895,NaN,9.284406,-6.067645,-6.213367,-2.166148,-7.937328,-0.121154,-1.339450,0.921003,2.688202,-0.881592,0.356689,-0.168945,0.093366,-0.059840,-0.062160,0.999877,-0.006697,0.004605,0.013440,0.617079,-0.413416,-0.564730,-0.359695
53896,NaN,8.539180,-7.392552,-5.984058,-3.148245,-8.232488,-0.556097,-0.681513,0.660388,2.993151,-0.869629,0.382324,-0.171387,0.086290,-0.072843,-0.059875,0.999877,-0.003407,0.003302,0.014965,0.626811,-0.418992,-0.558617,-0.345689
53897,NaN,6.699815,-7.694209,-5.523609,-3.593972,-7.936475,-2.152204,0.659727,0.578116,3.476323,-0.857666,0.412354,-0.180420,0.068159,-0.075581,-0.055683,0.999839,0.003298,0.002890,0.017381,0.635723,-0.425584,-0.550563,-0.334088
53898,NaN,7.187773,-16.684133,-8.024076,-9.691334,-14.116853,0.244142,2.320325,-0.073230,3.757392,-0.841309,0.436035,-0.193604,0.075013,-0.164506,-0.082131,0.999756,0.011601,-0.000366,0.018785,0.649939,-0.424816,-0.550081,-0.307442
53899,NaN,11.477889,-6.503167,-9.572564,1.384284,-10.554839,2.528570,2.177580,-0.562062,3.599487,-0.824951,0.459473,-0.196045,0.116182,-0.061904,-0.096086,0.999775,0.010887,-0.002810,0.017996,0.658412,-0.428425,-0.547475,-0.288473
53900,NaN,14.850744,7.573317,-8.171097,14.061042,-1.697746,2.188085,2.470268,-0.678120,3.441536,-0.806152,0.478760,-0.204834,0.147437,0.079274,-0.080245,0.999770,0.012350,-0.003390,0.017206,0.669645,-0.426176,-0.549918,-0.259885
53901,NaN,16.481929,8.333142,-5.775544,14.268415,1.514758,3.168342,2.557489,-0.362675,3.778490,-0.785400,0.500244,-0.211426,0.163300,0.087153,-0.056360,0.999738,0.012786,-0.001813,0.018891,0.678837,-0.428379,-0.546250,-0.239341
53902,NaN,17.676247,5.835563,-2.824129,11.432488,3.719014,4.674772,2.419481,-0.083578,4.129298,-0.762695,0.525879,-0.228760,0.175515,0.062323,-0.027430,0.999714,0.012096,-0.000418,0.020645,0.690726,-0.426891,-0.544652,-0.209801
53903,NaN,20.263670,4.396294,-2.017618,11.238961,4.593680,7.114037,2.198084,0.035949,4.623438,-0.735596,0.553711,-0.241943,0.201541,0.048849,-0.019693,0.999672,0.010989,0.000180,0.023115,0.700142,-0.431729,-0.536777,-0.187835
53904,NaN,24.083173,6.199743,-2.602016,14.794353,6.873490,9.133420,1.549145,0.208994,4.929903,-0.704346,0.583740,-0.252930,0.239176,0.068107,-0.025759,0.999666,0.007745,0.001045,0.024647,0.710010,-0.434487,-0.531096,-0.158256
53905,NaN,24.787607,12.272082,-2.052657,19.572915,11.536201,6.089973,0.494709,0.521429,5.036112,-0.673096,0.613770,-0.253174,0.244627,0.128960,-0.020853,0.999677,0.002473,0.002607,0.025178,0.716226,-0.445566,-0.518514,-0.140123
53906,NaN,22.700389,14.804639,-0.360700,19.657635,14.525332,1.893770,-0.302168,0.613152,5.163779,-0.635254,0.643555,-0.257812,0.223069,0.153834,-0.004524,0.999661,-0.001511,0.003065,0.025816,0.721383,-0.455487,-0.508467,-0.116611
53907,NaN,21.608326,11.419751,-0.489029,17.641640,12.511097,1.574643,-0.661637,0.562158,5.311853,-0.593262,0.673584,-0.258057,0.212934,0.119863,-0.005882,0.999638,-0.003308,0.002810,0.026556,0.724143,-0.470900,-0.493762,-0.100349
53908,NaN,19.934436,5.972347,0.508973,13.246104,10.386219,2.429679,-0.628973,0.419430,5.256621,-0.557861,0.703369,-0.256104,0.197693,0.064949,0.004475,0.999647,-0.003144,0.002097,0.026280,0.726553,-0.482061,-0.483453,-0.077533
53909,NaN,18.941570,3.904104,-0.663527,12.761593,8.431423,2.037941,-0.469193,-0.039047,5.109569,-0.526367,0.727051,-0.254150,0.188338,0.043847,-0.006698,0.999671,-0.002346,-0.000195,0.025545,0.727069,-0.495987,-0.470926,-0.059962
53910,NaN,20.787837,5.240032,0.024714,14.311050,10.998164,1.751894,-0.114987,-0.125027,4.776254,-0.490479,0.743896,-0.251953,0.206548,0.057344,0.000345,0.999714,-0.000575,-0.000625,0.023879,0.727891,-0.503697,-0.463840,-0.036269
53911,NaN,23.666253,7.840824,-0.997283,18.306624,13.025292,1.035833,-0.471585,0.094660,4.024863,-0.454834,0.769775,-0.248047,0.235016,0.083125,-0.010277,0.999795,-0.002358,0.000473,0.020123,0.727503,-0.514641,-0.453166,-0.022921
53912,NaN,22.011018,8.722156,-2.220052,18.846461,11.961913,-1.617529,-1.169385,0.201159,3.388485,-0.427246,0.784668,-0.235107,0.218569,0.090801,-0.022945,0.999839,-0.005847,0.001006,0.016942,0.725112,-0.526382,-0.443781,-0.013908
53913,NaN,15.316605,8.390087,0.300152,13.263704,10.793077,-6.256879,-1.710736,0.159138,2.749182,-0.412598,0.795166,-0.224609,0.151995,0.086016,0.002151,0.999869,-0.008553,0.000796,0.013745,0.721057,-0.538617,-0.435778,-0.008129
53914,NaN,9.331600,7.195544,1.808044,8.180543,8.663657,-9.442667,-1.794187,0.091282,1.845053,-0.389160,0.799561,-0.213867,0.092654,0.072970,0.017386,0.999917,-0.008971,0.000456,0.009225,0.716377,-0.548922,-0.430640,-0.006086
53915,NaN,5.282045,6.364216,1.927877,5.245589,6.464068,-11.491276,-1.643475,0.136243,0.968317,-0.387207,0.805908,-0.198975,0.052524,0.064052,0.018718,0.999954,-0.008217,0.000681,0.004842,0.712155,-0.556878,-0.427410,-0.006505
53916,NaN,2.048420,5.326951,1.092562,3.264369,3.819871,-12.731235,-1.585845,0.234691,0.010673,-0.391602,0.807861,-0.190430,0.020494,0.053355,0.010479,0.999968,-0.007929,0.001173,0.000053,0.708215,-0.562373,-0.426666,-0.011116
53917,NaN,0.001829,5.548014,-1.036582,3.406369,1.174765,-14.156706,-1.703154,0.361497,-1.121639,-0.395996,0.803711,-0.175293,0.000310,0.055388,-0.010838,0.999946,-0.008516,0.001807,-0.005608,0.704096,-0.565974,-0.428408,-0.019713
53918,NaN,-2.760488,5.304480,-2.166529,2.301759,-1.118257,-15.635187,-1.648834,0.605746,-2.371735,-0.414795,0.788574,-0.170898,-0.027041,0.053187,-0.022021,0.999891,-0.008244,0.003029,-0.011858,0.700414,-0.566428,-0.432932,-0.033903
53919,NaN,-4.239100,3.230769,-3.121087,0.931193,-3.269963,-14.969022,-1.720255,0.706475,-3.465463,-0.442383,0.775879,-0.160156,-0.041936,0.032768,-0.031343,0.999807,-0.008601,0.003532,-0.017326,0.696348,-0.564735,-0.439883,-0.051733
53920,NaN,-3.168379,1.368796,-4.411879,1.326318,-4.508851,-12.860247,-1.684902,0.787141,-4.440923,-0.473877,0.754395,-0.145020,-0.031549,0.014018,-0.044112,0.999710,-0.008424,0.003935,-0.022202,0.691918,-0.560324,-0.449304,-0.073571
53921,NaN,-1.769838,0.947454,-5.870189,2.706709,-5.306154,-11.546918,-1.487456,0.819127,-5.411244,-0.520508,0.733154,-0.140625,-0.017682,0.009517,-0.058700,0.999598,-0.007436,0.004095,-0.027053,0.687324,-0.552802,-0.460887,-0.097872
53922,NaN,-0.038091,2.179962,-6.417504,4.757429,-4.677767,-11.005192,-1.422324,0.788380,-6.229252,-0.555908,0.696777,-0.138184,0.000035,0.021346,-0.064328,0.999482,-0.007110,0.003941,-0.031141,0.681686,-0.542515,-0.474729,-0.124958
53923,NaN,1.909321,2.758088,-6.234234,6.043686,-3.682986,-9.664089,-1.315071,0.743677,-6.808371,-0.604004,0.658203,-0.133545,0.019775,0.026504,-0.062592,0.999392,-0.006574,0.003718,-0.034035,0.675219,-0.530060,-0.489536,-0.153199
53924,NaN,3.431331,1.553869,-5.550428,5.433069,-3.192928,-7.516130,-1.049356,0.705599,-7.327409,-0.651855,0.615479,-0.130859,0.034648,0.013981,-0.055702,0.999309,-0.005246,0.003527,-0.036629,0.667910,-0.514578,-0.505806,-0.182389
53925,NaN,5.238526,1.096216,-4.532462,5.108411,-2.160045,-5.522163,-0.706909,0.655959,-7.854574,-0.695312,0.559814,-0.134766,0.052608,0.008738,-0.045530,0.999217,-0.003534,0.003279,-0.039263,0.660071,-0.496094,-0.522767,-0.211923
53926,NaN,7.734493,1.833525,-3.995882,5.954393,-1.029618,-3.285948,-0.429916,0.492154,-8.321625,-0.733887,0.497803,-0.131836,0.077917,0.015014,-0.040185,0.999129,-0.002149,0.002460,-0.041596,0.650696,-0.474580,-0.541308,-0.241566
53927,NaN,10.438658,2.072574,-3.737464,6.241944,-0.510621,-0.435386,-0.394208,0.305810,-8.696528,-0.772705,0.437744,-0.128906,0.105096,0.016091,-0.037570,0.999052,-0.001970,0.001529,-0.043469,0.639477,-0.451530,-0.559943,-0.271393
53928,NaN,12.638856,1.305960,-3.046819,4.911352,-0.356035,2.285666,-0.396548,0.147362,-8.992365,-0.802490,0.364990,-0.130127,0.126781,0.007303,-0.030580,0.998987,-0.001982,0.000737,-0.044947,0.625930,-0.426680,-0.579123,-0.301284
53929,NaN,15.252999,-0.189667,-1.698241,2.266948,-0.123852,5.361480,-0.268569,0.025313,-9.174918,-0.838623,0.290039,-0.126953,0.152226,-0.008909,-0.016993,0.998947,-0.001342,0.000127,-0.045858,0.610962,-0.400494,-0.597588,-0.330483
53930,NaN,17.442658,-1.886311,-0.323291,-1.077579,-0.219406,7.693900,-0.121630,-0.082057,-9.240821,-0.859619,0.217285,-0.125977,0.173309,-0.026892,-0.003147,0.998933,-0.000608,-0.000410,-0.046188,0.594342,-0.372640,-0.615932,-0.358504
53931,NaN,19.616320,-2.769933,0.559711,-3.833306,-0.547807,9.616945,-0.312479,-0.248740,-9.271696,-0.876465,0.144287,-0.118652,0.194592,-0.036738,0.005893,0.998924,-0.001562,-0.001243,-0.046342,0.575749,-0.345089,-0.632709,-0.386141
53932,NaN,22.107825,-4.803562,0.914919,-7.749823,-2.010457,11.358123,-0.631929,-0.357724,-9.226996,-0.891113,0.065186,-0.113281,0.218534,-0.058129,0.009715,0.998929,-0.003159,-0.001788,-0.046119,0.554925,-0.317735,-0.648102,-0.413603
53933,NaN,25.484355,-8.680258,1.469044,-13.822281,-4.289257,12.925075,-0.783568,-0.290955,-9.103873,-0.899170,-0.010010,-0.103516,0.250523,-0.098215,0.015427,0.998955,-0.003916,-0.001454,-0.045504,0.533348,-0.290707,-0.661064,-0.440481
53934,NaN,29.410768,-12.952666,0.670228,-20.044450,-8.110837,13.956607,-0.749871,-0.123669,-8.821862,-0.903320,-0.080566,-0.102539,0.288013,-0.142296,0.007399,0.999020,-0.003748,-0.000618,-0.044095,0.511816,-0.263317,-0.672150,-0.465750
53935,NaN,32.898773,-18.608462,-2.132863,-26.466891,-14.355972,13.116510,-0.438048,0.111089,-8.248736,-0.904785,-0.155762,-0.101562,0.320931,-0.199481,-0.021081,0.999147,-0.002190,0.000555,-0.041232,0.491984,-0.236262,-0.681125,-0.488058
53936,NaN,33.350065,-27.362742,-3.559536,-34.359779,-20.195619,7.047280,0.174103,0.506360,-7.590263,-0.891602,-0.226318,-0.098145,0.322710,-0.285982,-0.036667,0.999276,0.000870,0.002531,-0.037942,0.475161,-0.208514,-0.688948,-0.506058
53937,NaN,32.417286,-32.780732,-4.265609,-38.488564,-23.574156,0.466094,0.306135,0.559677,-7.039755,-0.880615,-0.294922,-0.092773,0.312251,-0.338873,-0.044054,0.999376,0.001530,0.002798,-0.035191,0.459314,-0.182018,-0.695298,-0.521978
53938,NaN,31.161693,-33.192530,-7.479318,-36.993738,-26.862526,-3.656253,-0.074010,0.546172,-6.292157,-0.865479,-0.361572,-0.095947,0.300766,-0.341530,-0.075499,0.999501,-0.000370,0.002730,-0.031456,0.444994,-0.158929,-0.699415,-0.536228
53939,NaN,25.054286,-34.232178,-7.341610,-34.482068,-25.699997,-11.692749,-0.814662,0.581175,-5.124775,-0.846436,-0.410889,-0.099609,0.241446,-0.348884,-0.072714,0.999659,-0.004073,0.002906,-0.025621,0.432501,-0.141233,-0.699770,-0.550744
53940,NaN,13.851538,-38.386220,-5.260874,-31.493985,-21.894313,-24.699006,-1.344079,0.292196,-3.607294,-0.834473,-0.445068,-0.105469,0.131484,-0.386619,-0.050212,0.999814,-0.006720,0.001461,-0.018035,0.423472,-0.130962,-0.698146,-0.562240
53941,NaN,3.664672,-45.014267,-5.696856,-29.241957,-20.910157,-37.737099,-0.907225,0.209808,-1.766608,-0.821045,-0.462402,-0.102783,0.032609,-0.450695,-0.054961,0.999950,-0.004536,0.001049,-0.008833,0.418636,-0.126143,-0.696271,-0.569243
53942,NaN,-3.504101,-47.796087,-8.174238,-25.370300,-21.646403,-45.186915,-0.164002,-0.189237,-0.663623,-0.818604,-0.473145,-0.104736,-0.036550,-0.477908,-0.081385,0.999994,-0.000820,-0.000946,-0.003318,0.417197,-0.125116,-0.696976,-0.569665
53943,NaN,-4.225739,-45.882026,-7.562508,-23.970007,-20.276715,-44.374102,0.096505,-0.579957,0.675025,-0.818848,-0.468750,-0.092041,-0.040489,-0.458922,-0.075966,0.999990,0.000483,-0.002900,0.003375,0.417168,-0.128942,-0.698029,-0.567538
53944,NaN,1.164658,-36.671648,-3.166553,-23.508654,-15.260503,-33.700309,0.150991,-0.735505,1.697157,-0.825684,-0.451660,-0.085938,0.014875,-0.366575,-0.031892,0.999957,0.000755,-0.003677,0.008486,0.420934,-0.137086,-0.699319,-0.561226
53945,NaN,6.251608,-29.931576,0.494368,-24.069398,-11.407148,-24.836054,0.550116,-0.603341,2.886092,-0.837158,-0.432373,-0.073486,0.066813,-0.298385,0.004319,0.999888,0.002750,-0.003017,0.014430,0.427267,-0.147721,-0.700074,-0.552737
53946,NaN,7.839164,-23.487587,0.858756,-21.102603,-9.587614,-18.561755,0.489064,-0.801526,3.682280,-0.855713,-0.400146,-0.059082,0.082664,-0.233401,0.008341,0.999819,0.002445,-0.004007,0.018410,0.436447,-0.162327,-0.700704,-0.540535
53947,NaN,21.502562,-14.000314,-6.176579,-19.150655,-15.723295,-0.733579,1.517843,-1.654597,4.104272,-0.865723,-0.361572,-0.038086,0.218338,-0.135080,-0.061006,0.999726,0.007589,-0.008272,0.020519,0.442869,-0.177846,-0.704890,-0.524755
53948,NaN,-3.009647,-20.648451,-47.289992,7.005697,-50.073210,-20.532080,-0.068093,-3.132849,4.027426,-0.875244,-0.331787,-0.017334,-0.018519,-0.207096,-0.473180,0.999675,-0.000340,-0.015663,0.020135,0.443744,-0.200963,-0.708241,-0.510979
53949,NaN,70.053012,-10.296399,8.074183,-46.072506,-7.529532,44.009941,-11.784565,1.117513,6.189109,-0.892090,-0.277832,-0.067383,0.703625,-0.076408,0.081840,0.997770,-0.058879,0.005583,0.030923,0.450691,-0.245716,-0.667879,-0.538924
53950,NaN,46.437669,13.903862,48.408380,-24.838043,43.231189,37.150217,-3.657980,-1.055920,5.698549,-0.906982,-0.226562,-0.053223,0.457443,0.160990,0.483700,0.999413,-0.018286,-0.005279,0.028487,0.459347,-0.276377,-0.653824,-0.533976
53951,NaN,7.559557,-39.063923,17.404716,-42.073084,4.864350,-19.393749,-0.460843,-1.568690,6.471000,-0.913330,-0.162109,-0.041504,0.086796,-0.387548,0.175594,0.999443,-0.002304,-0.007842,0.032349,0.470616,-0.302644,-0.646883,-0.518140
53952,NaN,10.135020,-22.197087,8.074459,-25.644743,0.848646,-8.381527,-2.156780,-1.614523,5.987858,-0.921387,-0.119385,-0.029297,0.107247,-0.217924,0.083959,0.999461,-0.010782,-0.008071,0.029934,0.478730,-0.332348,-0.635680,-0.506234
53953,NaN,-6.459531,-6.765699,-12.152257,-0.969453,-13.167960,-17.611266,-0.335141,-1.068528,4.462318,-0.925293,-0.074463,-0.019287,-0.062412,-0.069270,-0.121745,0.999735,-0.001676,-0.005342,0.022310,0.485959,-0.349974,-0.629797,-0.494690
53954,NaN,-6.963061,-14.771336,-8.287010,-9.614527,-11.792232,-20.001849,0.828696,-0.685498,3.731606,-0.924072,-0.044434,-0.006836,-0.066577,-0.148629,-0.083716,0.999811,0.004143,-0.003427,0.018657,0.495674,-0.362602,-0.626783,-0.479552
53955,NaN,8.112446,-7.672601,4.735271,-10.321912,2.331961,-3.887264,-0.151374,-0.846019,3.624173,-0.931641,-0.010010,-0.003174,0.082295,-0.075206,0.047756,0.999827,-0.000757,-0.004230,0.018120,0.501367,-0.376326,-0.621827,-0.469406
53956,NaN,13.678810,-7.109354,-2.112612,-8.811107,-3.922087,2.397128,0.268225,-0.615298,2.904822,-0.923828,0.011230,-0.005371,0.137865,-0.069068,-0.020797,0.999889,0.001341,-0.003076,0.014524,0.507942,-0.387341,-0.618329,-0.457854
53957,NaN,18.141883,-8.627431,-10.824557,-8.271174,-12.484367,7.404359,1.248024,-0.475046,2.417790,-0.924805,0.039062,0.000488,0.182696,-0.083395,-0.108339,0.999905,0.006240,-0.002375,0.012089,0.514392,-0.392724,-0.617639,-0.446869
53958,NaN,13.089267,-6.720192,-6.045988,-6.516140,-7.354217,2.696728,1.115982,-0.164001,2.298973,-0.925537,0.058350,0.004639,0.131701,-0.065353,-0.060720,0.999918,0.005580,-0.000820,0.011495,0.522365,-0.398495,-0.615864,-0.434796
53959,NaN,12.677004,-6.472817,0.649041,-7.947364,-0.831320,1.984249,0.425419,-0.535952,1.838644,-0.928223,0.071289,0.010742,0.127340,-0.063573,0.006695,0.999952,0.002127,-0.002680,0.009193,0.525549,-0.404219,-0.614482,-0.427571
53960,NaN,18.559244,-9.315462,-2.403654,-10.091521,-4.198082,8.006582,1.343015,-0.457768,1.643068,-0.918213,0.090576,0.016846,0.186404,-0.091463,-0.024228,0.999941,0.006715,-0.002289,0.008215,0.531497,-0.407872,-0.615031,-0.415798
53961,NaN,22.970216,-5.838079,-3.147914,-6.670947,-3.416039,12.890539,1.090673,-0.201675,1.700619,-0.916260,0.101318,0.010254,0.230218,-0.056253,-0.031558,0.999948,0.005453,-0.001008,0.008503,0.536624,-0.410630,-0.614320,-0.407466
53962,NaN,24.941696,-6.867376,-0.460809,-8.160309,-0.901728,14.723801,1.088801,-0.197555,1.793516,-0.916992,0.122803,0.012207,0.250024,-0.066408,-0.004727,0.999944,0.005444,-0.000988,0.008967,0.543011,-0.414768,-0.613113,-0.396484
53963,NaN,27.570531,-5.586492,-2.397698,-5.991378,-1.936950,17.708503,1.628522,-0.054926,1.894980,-0.917725,0.142090,0.011963,0.276224,-0.053052,-0.024341,0.999922,0.008142,-0.000275,0.009475,0.549948,-0.416261,-0.612497,-0.386175
53964,NaN,29.505124,-3.227501,-2.517685,-3.129526,-0.836193,19.797841,1.941324,0.161375,1.868412,-0.905518,0.163330,0.007324,0.295313,-0.029269,-0.025709,0.999909,0.009706,0.000807,0.009342,0.559147,-0.417457,-0.611498,-0.373035
53965,NaN,30.280178,-1.587822,-1.262477,-1.541152,1.135466,20.474550,2.211600,0.129222,1.624142,-0.906006,0.178467,-0.001465,0.302908,-0.013276,-0.012977,0.999906,0.011058,0.000646,0.008120,0.567148,-0.415988,-0.611798,-0.361939
53966,NaN,28.574282,1.598515,-1.319413,1.981299,2.387253,18.667996,2.994552,0.193185,1.179740,-0.902100,0.189209,-0.010254,0.285628,0.017868,-0.013212,0.999870,0.014972,0.000966,0.005898,0.577101,-0.411813,-0.613674,-0.347518
53967,NaN,24.721622,6.733122,-1.285259,6.828855,4.335288,14.533018,3.025016,0.314747,0.555550,-0.902100,0.191406,-0.016602,0.247008,0.068206,-0.012214,0.999881,0.015124,0.001574,0.002778,0.585204,-0.404224,-0.616789,-0.337210
53968,NaN,20.212595,12.216529,0.149087,11.101988,7.853322,9.497446,2.607964,0.400019,0.069590,-0.902100,0.189209,-0.031494,0.202088,0.122206,0.002680,0.999913,0.013039,0.002000,0.000348,0.592798,-0.397124,-0.619294,-0.327656
53969,NaN,10.524174,12.167796,0.816240,10.397580,7.732358,-0.243958,4.443210,0.481943,0.354189,-0.895752,0.197754,-0.040283,0.105050,0.121646,0.010612,0.999749,0.022214,0.002410,0.001771,0.603556,-0.384194,-0.624269,-0.313692
53970,NaN,6.137313,10.447147,-1.825758,10.014009,4.582523,-4.441643,4.150670,0.706929,0.838933,-0.895996,0.206543,-0.061768,0.060873,0.105079,-0.016297,0.999770,0.020752,0.003534,0.004194,0.615850,-0.373991,-0.626283,-0.297706
53971,NaN,9.368552,6.813792,-5.239080,9.017158,0.371215,-0.857793,2.200784,1.077941,1.612176,-0.890137,0.223633,-0.072754,0.092848,0.069463,-0.052133,0.999892,0.011004,0.005390,0.008061,0.625685,-0.370650,-0.623143,-0.287801
53972,NaN,11.700959,-4.080459,-6.911642,1.450097,-6.743214,2.586930,0.487727,1.325864,2.117048,-0.882080,0.240723,-0.085938,0.116970,-0.039396,-0.069989,0.999919,0.002439,0.006629,0.010585,0.634528,-0.374581,-0.615161,-0.280428
53974,NaN,10.184782,-2.197729,-8.920516,8.822160,-14.918089,11.449357,0.218376,1.079095,1.993834,-0.868164,0.275146,-0.101318,0.202571,-0.039515,-0.180690,0.999741,0.002184,0.010790,0.019937,0.647420,-0.382369,-0.601284,-0.270368
53975,NaN,10.770894,-2.487219,-6.559211,3.295260,-5.539009,1.308381,-0.727875,0.954804,2.358748,-0.860352,0.294434,-0.105713,0.107680,-0.023842,-0.066018,0.999912,-0.003639,0.004774,0.011793,0.652704,-0.391199,-0.592306,-0.264792
53976,NaN,10.082943,-5.554813,-5.244765,0.179631,-6.151344,1.239565,-0.838020,0.713616,2.745067,-0.846191,0.324219,-0.110596,0.101394,-0.054379,-0.052579,0.999891,-0.004190,0.003568,0.013725,0.656751,-0.401107,-0.583417,-0.259645
53977,NaN,6.525657,-6.745764,-4.935773,-1.343865,-6.861447,-1.840314,0.086296,0.588902,3.282509,-0.840576,0.347900,-0.117188,0.066206,-0.066355,-0.049581,0.999861,0.000431,0.002944,0.016412,0.663376,-0.410243,-0.574693,-0.247710
53978,NaN,5.872198,-13.218141,-3.941372,-6.871939,-9.559284,-0.533481,1.590862,0.312343,3.656980,-0.822510,0.382080,-0.126221,0.061059,-0.130760,-0.040552,0.999800,0.007954,0.001562,0.018284,0.671943,-0.415037,-0.567993,-0.231562
53979,NaN,8.324243,-10.462657,-7.876448,-1.274684,-10.753386,1.300436,2.162995,-0.295134,3.737686,-0.805908,0.403564,-0.130859,0.085285,-0.102186,-0.079754,0.999766,0.010814,-0.001476,0.018687,0.680248,-0.419273,-0.563372,-0.209962
53980,NaN,16.239987,5.341885,-7.675545,13.276256,0.075586,3.411419,1.857695,-0.331501,3.449156,-0.796143,0.429199,-0.135254,0.161565,0.056918,-0.075969,0.999807,0.009288,-0.001657,0.017245,0.686706,-0.422968,-0.559092,-0.192223
53981,NaN,17.500524,9.864638,-5.872799,16.274645,4.924533,2.389371,1.919370,-0.029479,3.754242,-0.773438,0.457031,-0.146484,0.173114,0.102465,-0.057731,0.999778,0.009596,-0.000147,0.018770,0.694471,-0.427370,-0.552849,-0.171531
53982,NaN,19.088023,6.176114,-2.428909,12.431035,6.354343,4.796332,1.614526,0.282644,4.195028,-0.752930,0.487061,-0.142334,0.189492,0.065940,-0.024036,0.999746,0.008072,0.001413,0.020973,0.702129,-0.433040,-0.544129,-0.153021
53983,NaN,21.088504,4.732652,-0.364136,11.386726,8.194332,6.630191,1.474572,0.212243,4.583508,-0.732422,0.521484,-0.155762,0.209723,0.052168,-0.003492,0.999710,0.007372,0.001061,0.022915,0.709357,-0.440507,-0.534364,-0.131230
53984,NaN,23.991800,6.891537,-2.544160,15.933563,9.163717,7.263412,1.198489,0.231604,4.824120,-0.703369,0.547119,-0.164551,0.238131,0.074826,-0.025281,0.999690,0.005992,0.001158,0.024118,0.715564,-0.448886,-0.523519,-0.111345
53985,NaN,24.471126,9.525566,-1.444278,17.662038,12.293241,5.301692,1.083633,0.494834,4.915020,-0.678711,0.581299,-0.171387,0.242235,0.101308,-0.014506,0.999680,0.005418,0.002474,0.024572,0.721814,-0.457832,-0.511112,-0.090211
53986,NaN,22.323886,11.851137,-0.197559,17.716099,14.277729,1.187238,0.802361,0.589885,4.975831,-0.647461,0.613525,-0.171631,0.220193,0.124024,-0.002138,0.999678,0.004011,0.002949,0.024876,0.727171,-0.467267,-0.497769,-0.071481
53987,NaN,20.923523,10.455143,0.183035,16.345411,13.690691,-0.199614,0.512667,0.576891,5.099802,-0.611816,0.636963,-0.167480,0.206484,0.109836,0.001509,0.999667,0.002563,0.002884,0.025496,0.731299,-0.478010,-0.483778,-0.051650
53988,NaN,20.731299,7.255509,-0.742831,15.516727,11.538378,0.626398,-0.051838,0.412467,5.053790,-0.578125,0.662598,-0.167725,0.205376,0.077759,-0.007873,0.999679,-0.000259,0.002062,0.025266,0.733242,-0.490189,-0.470000,-0.034220
53989,NaN,21.730065,5.007712,0.084156,14.816744,11.776069,1.975778,-0.204673,0.560970,4.884968,-0.540527,0.692383,-0.172363,0.215992,0.055364,0.000180,0.999697,-0.001023,0.002805,0.024422,0.734535,-0.502359,-0.455846,-0.017252
53990,NaN,23.230582,3.757739,-0.046295,15.661953,12.021241,2.988976,-0.504881,0.685557,4.427266,-0.511230,0.716064,-0.161865,0.231395,0.042704,-0.001361,0.999746,-0.002524,0.003427,0.022134,0.735023,-0.514141,-0.442025,-0.003815
53991,NaN,23.210019,4.772595,-2.539507,18.165481,10.841390,1.157443,-1.177935,0.587787,3.822157,-0.481689,0.732910,-0.146729,0.231057,0.051995,-0.026373,0.999796,-0.005889,0.002939,0.019109,0.733076,-0.526899,-0.430038,0.006617
53992,NaN,18.431920,6.856828,-2.063053,16.083922,9.985937,-4.106305,-1.753713,0.473883,3.207261,-0.462891,0.748047,-0.129883,0.183140,0.071325,-0.021683,0.999830,-0.008768,0.002369,0.016035,0.729241,-0.540173,-0.419811,0.013399
53993,NaN,11.501138,7.197520,0.016519,10.611961,8.399012,-8.857930,-1.901572,0.367787,2.470827,-0.441895,0.758545,-0.114990,0.114110,0.073385,-0.000738,0.999877,-0.009507,0.001839,0.012354,0.724483,-0.552267,-0.412088,0.017571
53994,NaN,8.056568,6.301204,0.826303,7.555836,6.922100,-10.346984,-1.891082,0.310849,1.717457,-0.426758,0.758545,-0.097656,0.080032,0.063774,0.007538,0.999917,-0.009455,0.001554,0.008587,0.719687,-0.562660,-0.406325,0.019083
53995,NaN,4.925838,5.123130,-0.418557,5.777110,3.882559,-11.307659,-1.839601,0.340285,0.886302,-0.422852,0.767090,-0.078369,0.049023,0.051407,-0.004741,0.999946,-0.009198,0.001701,0.004431,0.714982,-0.571052,-0.402981,0.017498
53996,NaN,2.397640,4.178253,-2.257928,4.796868,0.756650,-11.985566,-1.917218,0.419335,-0.077396,-0.422852,0.762695,-0.054932,0.023945,0.041554,-0.023029,0.999952,-0.009586,0.002097,-0.000387,0.710323,-0.577781,-0.401823,0.012207
53997,NaN,-0.191326,4.787890,-3.282926,3.959885,-1.205624,-13.887317,-2.070147,0.661148,-1.228142,-0.431152,0.756348,-0.039795,-0.001730,0.047547,-0.033317,0.999922,-0.010350,0.003306,-0.006141,0.705596,-0.582613,-0.403353,0.001635
53998,NaN,-3.856166,4.055643,-3.715083,1.457391,-3.569317,-15.313189,-1.973327,0.853338,-2.412223,-0.452393,0.747803,-0.024658,-0.038231,0.040651,-0.037388,0.999869,-0.009866,0.004267,-0.012061,0.701495,-0.584663,-0.407304,-0.013295
53999,NaN,-4.186052,1.548418,-4.622787,0.559299,-5.253272,-13.470671,-1.911713,0.915998,-3.431083,-0.470947,0.719727,-0.009521,-0.041803,0.015760,-0.046186,0.999797,-0.009558,0.004580,-0.017154,0.697278,-0.584151,-0.414184,-0.031977
54000,NaN,-2.601177,1.150465,-5.972808,2.130542,-5.801468,-12.172322,-1.739530,0.953628,-4.367370,-0.502686,0.707031,0.005615,-0.026045,0.011554,-0.059704,0.999712,-0.008697,0.004768,-0.021835,0.693275,-0.580875,-0.423189,-0.053535
54001,NaN,-0.510089,1.990295,-7.024493,4.486010,-5.566490,-11.379280,-1.482985,0.970057,-5.307463,-0.542480,0.674805,0.016602,-0.004921,0.019514,-0.070366,0.999609,-0.007414,0.004850,-0.026534,0.689166,-0.574251,-0.435007,-0.077816
54002,NaN,1.378695,2.579593,-7.110915,6.020142,-4.750409,-10.368186,-1.159206,0.922794,-6.061037,-0.580322,0.645020,0.027588,0.014223,0.024956,-0.071320,0.999513,-0.005795,0.004613,-0.030300,0.685155,-0.564451,-0.448538,-0.103786
54003,NaN,2.232157,1.565613,-6.376928,5.433358,-4.213197,-8.905394,-0.678629,0.889082,-6.611284,-0.623779,0.597900,0.036621,0.022534,0.014697,-0.063920,0.999438,-0.003393,0.004445,-0.033050,0.681218,-0.551101,-0.463965,-0.130258
54004,NaN,3.113907,1.322616,-5.389757,5.147597,-3.232749,-7.930771,-0.396155,0.772391,-7.089114,-0.667969,0.563721,0.034668,0.031371,0.012010,-0.054043,0.999362,-0.001980,0.003861,-0.035438,0.676873,-0.535181,-0.480285,-0.157319
54005,NaN,5.265380,1.699504,-4.883751,6.044293,-2.122566,-6.150710,-0.182963,0.622112,-7.561877,-0.707275,0.518799,0.039551,0.053093,0.014948,-0.049017,0.999280,-0.000915,0.003110,-0.037800,0.671232,-0.516661,-0.498396,-0.184690
54006,NaN,7.992007,2.150156,-4.318906,6.974810,-0.925155,-3.680127,0.043804,0.428802,-8.020707,-0.752197,0.454590,0.038086,0.080604,0.018287,-0.043357,0.999194,0.000219,0.002143,-0.040093,0.664476,-0.495750,-0.517287,-0.212408
54007,NaN,10.284065,2.594024,-3.902503,7.464437,-0.130658,-1.332099,0.156989,0.222812,-8.416267,-0.795410,0.394531,0.051514,0.103768,0.021616,-0.039122,0.999114,0.000785,0.001114,-0.042069,0.655706,-0.472630,-0.537608,-0.240101
54008,NaN,12.639411,1.775129,-3.133232,6.401922,0.239479,1.658104,0.167036,0.043234,-8.708030,-0.825195,0.323975,0.056885,0.127001,0.012255,-0.031348,0.999052,0.000835,0.000216,-0.043526,0.645156,-0.448215,-0.557709,-0.268026
54009,NaN,14.341924,0.097517,-2.303596,3.990060,-0.039975,4.149788,0.231420,-0.137326,-8.877390,-0.856934,0.244629,0.068604,0.143291,-0.005362,-0.022941,0.999014,0.001157,-0.000686,-0.044372,0.632555,-0.422246,-0.578290,-0.295234
54010,NaN,16.067788,-1.688318,-0.860449,0.838304,-0.032385,6.339281,0.535212,-0.287248,-8.990218,-0.875732,0.163086,0.073975,0.159716,-0.024056,-0.008433,0.998985,0.002675,-0.001436,-0.044936,0.618960,-0.394599,-0.598358,-0.321166
54011,NaN,17.765477,-2.309549,0.471886,-1.597596,0.265489,8.029043,0.487577,-0.489900,-9.019780,-0.889893,0.079590,0.079346,0.176361,-0.031083,0.005083,0.998977,0.002437,-0.002449,-0.045084,0.603160,-0.366255,-0.618268,-0.346122
54012,NaN,20.453543,-3.236209,1.313921,-4.373823,-0.122440,10.463224,0.008980,-0.668384,-8.961983,-0.895752,-0.001953,0.102051,0.202767,-0.041477,0.013817,0.998991,0.000045,-0.003341,-0.044795,0.585014,-0.339358,-0.636067,-0.371503
54013,NaN,23.533038,-6.664205,1.889729,-9.625792,-2.145569,12.640326,-0.328117,-0.638859,-8.822361,-0.881836,-0.091797,0.107666,0.232026,-0.076896,0.019763,0.999021,-0.001640,-0.003193,-0.044097,0.565335,-0.312900,-0.652006,-0.396708
54014,NaN,26.750928,-11.436288,1.319043,-15.783043,-5.988899,13.907423,-0.493772,-0.446408,-8.625714,-0.859863,-0.169189,0.115479,0.262219,-0.125716,0.014081,0.999065,-0.002468,-0.002231,-0.043115,0.545494,-0.286817,-0.665158,-0.421588
54015,NaN,30.511950,-16.871558,0.147887,-22.500334,-10.843450,14.500263,-0.472345,-0.154511,-8.220193,-0.842529,-0.235596,0.125000,0.297844,-0.181055,0.002129,0.999152,-0.002361,-0.000772,-0.041089,0.526491,-0.260720,-0.676041,-0.444747
54016,NaN,33.243922,-23.879317,-1.104324,-30.097856,-16.487327,12.504539,-0.211547,0.203738,-7.694716,-0.814697,-0.295654,0.117432,0.322917,-0.251353,-0.011114,0.999259,-0.001057,0.001018,-0.038464,0.509428,-0.234669,-0.684554,-0.465617
54017,NaN,33.420552,-30.779639,-2.175087,-36.283865,-21.527689,7.163906,0.144867,0.475038,-7.151025,-0.787109,-0.342773,0.116211,0.322867,-0.319461,-0.022755,0.999358,0.000724,0.002375,-0.035747,0.494442,-0.208588,-0.691799,-0.483149
54018,NaN,30.989194,-32.195251,-5.851182,-35.272903,-25.604765,1.616283,-0.127966,0.341746,-6.429778,-0.755371,-0.387939,0.117188,0.299231,-0.331725,-0.058819,0.999482,-0.000640,0.001708,-0.032143,0.479727,-0.185777,-0.696985,-0.499560
54019,NaN,26.076635,-30.795963,-8.715675,-30.955537,-26.725086,-4.206129,-1.010413,0.390064,-5.439245,-0.730713,-0.417969,0.106934,0.252088,-0.315331,-0.086073,0.999616,-0.005051,0.001950,-0.027193,0.466879,-0.168392,-0.698477,-0.515556
54020,NaN,16.638709,-31.619741,-6.478908,-28.089963,-22.528746,-14.480704,-2.075856,0.311495,-4.307872,-0.712646,-0.441650,0.092285,0.159419,-0.320333,-0.061730,0.999713,-0.010378,0.001557,-0.021537,0.455006,-0.157387,-0.695822,-0.532946
54021,NaN,5.918468,-37.617136,-4.789675,-27.414168,-19.797104,-27.961751,-2.231232,0.107988,-2.946913,-0.692627,-0.458740,0.094971,0.053604,-0.377492,-0.043720,0.999829,-0.011156,0.000540,-0.014734,0.446455,-0.152203,-0.692068,-0.546401
54022,NaN,-2.415338,-41.686779,-6.643659,-24.755725,-19.779955,-37.805625,-1.425813,-0.155003,-1.537835,-0.692383,-0.465088,0.090576,-0.027310,-0.417125,-0.063484,0.999945,-0.007129,-0.000775,-0.007689,0.440634,-0.150524,-0.689647,-0.554592
54023,NaN,-6.341078,-46.862930,-6.997255,-26.061336,-20.420521,-44.296147,-0.574615,-0.414734,-0.000173,-0.694824,-0.456543,0.090576,-0.063268,-0.468828,-0.068757,0.999994,-0.002873,-0.002074,-0.000001,0.439700,-0.153345,-0.689234,-0.555073
54024,NaN,-4.068143,-44.225987,-5.896128,-26.314704,-19.113766,-40.625213,-0.384516,-0.534931,1.459525,-0.699707,-0.443848,0.101074,-0.037296,-0.442653,-0.058213,0.999968,-0.001923,-0.002675,0.007298,0.441625,-0.160745,-0.688197,-0.552733
54025,NaN,3.859882,-32.895120,-4.675970,-23.656579,-16.510046,-26.741729,0.109971,-0.826032,2.088637,-0.706787,-0.428711,0.109375,0.042224,-0.328497,-0.046771,0.999937,0.000550,-0.004130,0.010443,0.445673,-0.170456,-0.688890,-0.545666
54026,NaN,8.096407,-24.780239,-2.396357,-21.372591,-12.837336,-17.794804,0.249945,-0.746923,3.059588,-0.720947,-0.392334,0.121582,0.084831,-0.246494,-0.023960,0.999875,0.001250,-0.003734,0.015297,0.451631,-0.182499,-0.688536,-0.537253
54027,NaN,10.588759,-14.636584,-1.540312,-15.695686,-9.048507,-9.139921,-0.091890,-1.029428,3.771591,-0.736816,-0.366699,0.134033,0.108700,-0.144340,-0.014782,0.999809,-0.000459,-0.005147,0.018857,0.459145,-0.198987,-0.687304,-0.526501
54028,NaN,14.135975,-9.802059,-9.327677,-10.434461,-14.886207,-2.576465,1.102114,-1.570333,4.361618,-0.746826,-0.332275,0.156982,0.144174,-0.094385,-0.092679,0.999716,0.005510,-0.007851,0.021806,0.466221,-0.215567,-0.689268,-0.510959
54029,NaN,0.844810,-16.466046,-70.345170,15.468092,-70.510293,-12.631567,-0.987820,-4.775527,3.935032,-0.758789,-0.298096,0.175781,0.028505,-0.167701,-0.702107,0.999509,-0.004938,-0.023874,0.019672,0.459574,-0.244058,-0.693580,-0.498171
54030,NaN,109.365287,-22.168726,61.766431,-85.027541,37.078359,77.541322,-13.581810,4.455549,9.635411,-0.783936,-0.250732,0.123535,1.114860,-0.126924,0.603737,0.996288,-0.067825,0.022250,0.048117,0.480741,-0.296658,-0.635235,-0.526647
54031,NaN,29.029121,-7.326331,31.637106,-25.669689,25.164420,14.778807,-0.982637,-2.902953,4.936059,-0.793945,-0.209961,0.150635,0.287320,-0.064578,0.320888,0.999578,-0.004912,-0.014513,0.024677,0.482890,-0.322263,-0.632020,-0.513337
54032,NaN,1.962898,-18.015006,4.039051,-18.138192,-1.010211,-13.636859,-0.564651,-3.172322,5.606440,-0.800293,-0.158691,0.173340,0.024016,-0.179402,0.041256,0.999477,-0.002823,-0.015859,0.028027,0.486117,-0.349355,-0.628850,-0.496174
54033,NaN,-3.485736,-17.917954,-1.455410,-15.440403,-5.911590,-17.677042,-1.740690,-2.323065,6.259914,-0.803711,-0.117920,0.179199,-0.029066,-0.180270,-0.013348,0.999405,-0.008702,-0.011613,0.031293,0.491040,-0.378866,-0.618845,-0.482049
54034,NaN,-13.345879,-6.315706,-22.156383,2.223783,-23.042250,-22.965115,-0.112822,-0.156173,3.745315,-0.804688,-0.090088,0.185303,-0.132070,-0.065764,-0.221631,0.999824,-0.000564,-0.000781,0.018725,0.499307,-0.391083,-0.611734,-0.472787
54035,NaN,-2.513906,-13.694978,-2.557384,-12.011102,-5.891192,-14.439949,-0.170730,-1.335383,3.922534,-0.801514,-0.060059,0.191162,-0.022276,-0.137427,-0.025612,0.999785,-0.000854,-0.006676,0.019611,0.504084,-0.406627,-0.606841,-0.460757
54036,NaN,14.305950,-12.715050,1.228787,-14.610725,-1.350126,2.536945,-0.059981,-1.288587,3.187160,-0.802490,-0.032227,0.208008,0.144978,-0.124846,0.013256,0.999852,-0.000300,-0.006443,0.015935,0.507343,-0.419397,-0.603361,-0.450183
54037,NaN,17.677746,-7.451581,-3.031306,-8.618830,-3.785137,7.175090,0.532547,-0.549848,2.518722,-0.801025,-0.010986,0.211914,0.177779,-0.072201,-0.030020,0.999913,0.002663,-0.002749,0.012593,0.512462,-0.426901,-0.600593,-0.440938
54038,NaN,16.400117,-10.010779,-6.815920,-9.618417,-8.034919,6.266466,1.206351,-0.270757,2.300912,-0.799561,0.006348,0.209473,0.165228,-0.097799,-0.068531,0.999915,0.006032,-0.001354,0.011504,0.519274,-0.431321,-0.598962,-0.430768
54039,NaN,11.925665,-5.719999,-0.027401,-6.468467,-0.611583,1.707745,0.363205,-0.602447,1.843513,-0.795654,0.019043,0.219971,0.119777,-0.056097,-0.000016,0.999951,0.001816,-0.003012,0.009217,0.522238,-0.437236,-0.597276,-0.423502
54040,NaN,15.678612,-6.630508,-4.181088,-6.339912,-4.431954,5.916880,0.913624,-0.568814,1.554616,-0.798584,0.038330,0.226074,0.157413,-0.064893,-0.041662,0.999955,0.004568,-0.002844,0.007773,0.525827,-0.440718,-0.597248,-0.415414
54041,NaN,19.890567,-7.151175,-6.617702,-6.148985,-6.417389,10.474325,1.104853,-0.417013,1.438477,-0.796875,0.051270,0.215332,0.199549,-0.069713,-0.066150,0.999957,0.005524,-0.002085,0.007192,0.530024,-0.443021,-0.597412,-0.407316
54042,NaN,23.409414,-5.439806,-3.406490,-5.183270,-2.412825,13.777458,1.029527,-0.254409,1.515797,-0.794922,0.059814,0.223633,0.234540,-0.052446,-0.034040,0.999957,0.005148,-0.001272,0.007579,0.534629,-0.445359,-0.596777,-0.399604
54043,NaN,25.195054,-7.394698,-3.225002,-6.753125,-2.498871,15.643264,1.566870,-0.245530,1.586994,-0.786865,0.076904,0.217041,0.252565,-0.071690,-0.032508,0.999937,0.007834,-0.001228,0.007935,0.540569,-0.446438,-0.596961,-0.390020
54044,NaN,27.704495,-4.744893,-2.905462,-3.879451,-1.057987,18.156987,2.123094,0.076048,1.586390,-0.787842,0.098389,0.223145,0.277397,-0.044937,-0.029646,0.999912,0.010615,0.000380,0.007932,0.548600,-0.445287,-0.597280,-0.379492
54045,NaN,28.255459,-2.416102,-0.780163,-1.867997,1.791909,18.437998,2.353851,0.155858,1.418548,-0.777832,0.121826,0.212158,0.282710,-0.022061,-0.008290,0.999905,0.011769,0.000779,0.007093,0.556995,-0.442802,-0.598067,-0.368780
54046,NaN,27.625856,0.343885,-0.860984,1.127562,2.638149,17.679252,2.885669,0.139716,1.128475,-0.780273,0.132568,0.207764,0.276227,0.005123,-0.008737,0.999880,0.014428,0.000699,0.005642,0.565833,-0.437869,-0.600406,-0.357234
54047,NaN,26.149189,4.204911,-1.303602,5.108563,3.572617,15.961222,3.300493,0.223019,0.743190,-0.778320,0.136963,0.194824,0.261318,0.043231,-0.012621,0.999856,0.016502,0.001115,0.003716,0.575023,-0.430374,-0.603912,-0.345567
54048,NaN,24.665308,9.055563,-1.267530,9.597511,5.492663,14.055759,2.607519,0.278447,0.215356,-0.770020,0.149902,0.186035,0.246538,0.090979,-0.011834,0.999913,0.013037,0.001392,0.001077,0.581814,-0.423049,-0.607080,-0.337603
54049,NaN,17.442211,12.669205,0.316894,11.873100,7.820555,6.395169,3.571759,0.271939,0.043012,-0.770508,0.160645,0.177246,0.174401,0.126649,0.005194,0.999840,0.017858,0.001360,0.000215,0.590211,-0.412324,-0.612089,-0.327089
54050,NaN,8.960952,12.167448,-0.236058,11.157458,6.530846,-1.987448,4.844328,0.359786,0.190629,-0.768555,0.169189,0.160156,0.089493,0.121772,0.000427,0.999705,0.024219,0.001799,0.000953,0.601450,-0.397943,-0.618356,-0.312306
54051,NaN,5.947855,12.775077,-4.106431,13.319088,3.649092,-4.842700,4.352413,0.596993,0.675371,-0.769043,0.182129,0.146973,0.058927,0.128806,-0.038445,0.999753,0.021760,0.002985,0.003377,0.612880,-0.385957,-0.621828,-0.297901
54052,NaN,11.365759,2.692504,-6.669318,6.543265,-2.846832,1.588170,2.333947,1.062494,1.701026,-0.760742,0.195068,0.125488,0.113063,0.028669,-0.066967,0.999882,0.011669,0.005312,0.008505,0.623161,-0.382506,-0.618674,-0.287405
54053,NaN,12.236533,-12.249282,-9.139991,-4.077136,-12.859254,4.375904,1.127369,1.185344,1.916606,-0.752686,0.214355,0.114502,0.122981,-0.120796,-0.092812,0.999921,0.005637,0.005927,0.009583,0.631688,-0.383217,-0.612879,-0.280168
54054,NaN,11.626495,-9.982844,-10.633858,-1.060081,-12.917358,3.600815,0.328560,0.851034,1.868583,-0.750977,0.227051,0.110107,0.116735,-0.098564,-0.106997,0.999946,0.001643,0.004255,0.009343,0.637521,-0.386732,-0.607020,-0.274831
54055,NaN,11.533226,-5.466465,-9.390669,2.201108,-9.351598,2.788089,-0.142432,0.616252,2.185055,-0.740723,0.239990,0.103516,0.115631,-0.053469,-0.094224,0.999935,-0.000712,0.003081,0.010925,0.642076,-0.392979,-0.600618,-0.269378
54056,NaN,10.051767,-4.238527,-7.882349,2.401929,-7.521902,1.085969,-0.055685,0.465842,2.485147,-0.724365,0.263672,0.098877,0.100850,-0.041155,-0.079047,0.999920,-0.000278,0.002329,0.012425,0.646672,-0.400000,-0.594098,-0.262417
54057,NaN,6.521454,-7.065116,-7.278246,-0.524380,-8.919611,-1.714942,0.816224,0.185454,3.203498,-0.718750,0.289307,0.090088,0.066264,-0.069297,-0.073128,0.999863,0.004081,0.000927,0.016017,0.652957,-0.406610,-0.588132,-0.249833
54058,NaN,5.118414,-14.668661,-7.172596,-6.531432,-13.111286,-0.969372,2.166685,-0.226754,3.728870,-0.704346,0.312744,0.087646,0.053980,-0.144909,-0.073242,0.999767,0.010833,-0.001134,0.018643,0.661210,-0.410727,-0.583842,-0.230724
54059,NaN,7.283734,-9.679957,-9.589576,-0.137081,-11.799656,0.158212,2.916268,-0.776919,3.688442,-0.688232,0.338623,0.080811,0.074964,-0.094021,-0.096992,0.999716,0.014580,-0.003884,0.018440,0.668976,-0.412674,-0.582102,-0.208155
54060,NaN,13.848751,3.538703,-8.862594,11.544371,-1.902258,2.266573,3.257404,-0.879778,3.587033,-0.669678,0.366455,0.069824,0.138192,0.039298,-0.087399,0.999697,0.016285,-0.004398,0.017933,0.676674,-0.413046,-0.580838,-0.184753
54061,NaN,16.347423,8.856275,-8.106669,15.955775,3.109149,2.313684,3.224876,-0.682867,3.899443,-0.646973,0.394287,0.061035,0.161962,0.093016,-0.079036,0.999674,0.016123,-0.003414,0.019495,0.684681,-0.413994,-0.577982,-0.160491
54062,NaN,18.136776,9.464069,-5.119820,15.214310,6.912961,3.047044,2.629052,-0.365216,4.191065,-0.632812,0.419922,0.054199,0.179414,0.099073,-0.049586,0.999692,0.013144,-0.001826,0.020953,0.692224,-0.417307,-0.572470,-0.137695
54063,NaN,20.788807,8.004880,-3.621703,14.380262,8.573932,5.318784,2.218804,-0.227816,4.578615,-0.603271,0.441406,0.043213,0.206018,0.085173,-0.035056,0.999676,0.011093,-0.001139,0.022891,0.699041,-0.422776,-0.565176,-0.114798
54064,NaN,22.981562,9.061086,-2.601855,15.526671,11.341877,5.909097,1.519427,-0.017460,4.970092,-0.580811,0.473389,0.036621,0.227469,0.096477,-0.025280,0.999662,0.007596,-0.000087,0.024848,0.704820,-0.431411,-0.555393,-0.093011
54065,NaN,23.571670,12.160295,-0.952718,16.950494,15.222350,3.796302,0.436409,0.144629,5.212776,-0.558105,0.501221,0.038330,0.232434,0.127711,-0.009422,0.999658,0.002182,0.000723,0.026061,0.708237,-0.444139,-0.543802,-0.073622
54066,NaN,21.944404,13.506156,0.611934,16.439637,16.964631,0.489182,-0.133778,0.138513,5.352073,-0.526855,0.531250,0.033691,0.215730,0.140872,0.005876,0.999641,-0.000669,0.000692,0.026757,0.710031,-0.458986,-0.531162,-0.055267
54067,NaN,20.612147,10.674354,1.280323,14.198927,15.633287,-0.102065,-0.337466,0.083615,5.490079,-0.501953,0.556885,0.041992,0.203093,0.112368,0.012531,0.999622,-0.001687,0.000418,0.027447,0.710619,-0.474550,-0.518134,-0.036896
54068,NaN,19.205554,6.555138,0.795787,12.063440,12.778517,0.362558,-0.642507,-0.015337,5.470889,-0.466309,0.582520,0.041992,0.190166,0.070796,0.007751,0.999621,-0.003212,-0.000077,0.027351,0.709791,-0.490857,-0.504870,-0.019024
54069,NaN,18.501007,3.675034,-0.998221,11.866682,10.061932,0.894589,-0.286158,-0.137037,5.313602,-0.437012,0.608154,0.037354,0.183954,0.041633,-0.009913,0.999646,-0.001431,-0.000685,0.026565,0.708906,-0.505091,-0.492275,-0.000718
54070,NaN,17.902486,3.141793,-0.851645,11.546157,10.008411,0.063733,0.036626,-0.284241,5.015610,-0.411865,0.623047,0.039551,0.178174,0.035895,-0.008257,0.999685,0.000183,-0.001421,0.025075,0.708088,-0.517176,-0.480437,0.017916
54071,NaN,21.512846,5.860310,-0.723267,14.980524,13.596080,-0.415183,-0.173040,-0.141816,4.570860,-0.386719,0.644531,0.037109,0.213720,0.063492,-0.007134,0.999738,-0.000865,-0.000709,0.022852,0.706630,-0.528578,-0.469188,0.033789
54073,NaN,21.941747,7.827895,-1.338517,33.995562,28.877040,3.876915,-1.520083,0.359257,3.778245,-0.344727,0.676514,0.053955,0.432410,0.172531,-0.030874,0.999164,-0.015197,0.003592,0.037772,0.698409,-0.556744,-0.446780,0.051472
54075,NaN,11.008931,5.533186,2.828144,14.312120,20.676991,-7.231688,-2.147281,0.336855,2.526329,-0.319824,0.693604,0.090332,0.217453,0.117350,0.053355,0.999445,-0.021469,0.003368,0.025259,0.686248,-0.582814,-0.431421,0.057169
54076,NaN,5.838995,3.165170,3.145159,2.943525,6.731668,-9.663981,-1.886712,0.306681,1.473594,-0.313232,0.695801,0.092529,0.058201,0.032375,0.031059,0.999927,-0.009433,0.001533,0.007368,0.680933,-0.592536,-0.426553,0.057306
54077,NaN,2.328898,3.163946,1.618961,1.797619,3.485842,-11.447410,-1.808492,0.338321,0.551782,-0.324463,0.702148,0.107178,0.023228,0.031848,0.015863,0.999954,-0.009042,0.001692,0.002759,0.676127,-0.599846,-0.424436,0.053776
54078,NaN,0.368403,3.588943,0.420097,1.561357,1.502735,-12.727520,-1.818522,0.542785,-0.548824,-0.341553,0.697754,0.117920,0.003793,0.035915,0.003864,0.999951,-0.009092,0.002714,-0.002744,0.671933,-0.604970,-0.424686,0.046478
54079,NaN,-2.317314,3.773290,0.275090,0.108348,-0.117407,-14.246323,-1.711079,0.840582,-1.685663,-0.364990,0.693604,0.135010,-0.022843,0.037949,0.002523,0.999919,-0.008555,0.004203,-0.008428,0.668902,-0.607186,-0.427474,0.034089
54080,NaN,-4.388405,2.120123,-0.762747,-1.263847,-2.490952,-13.878576,-1.549178,0.996447,-2.747650,-0.396729,0.676514,0.137207,-0.043626,0.021743,-0.007577,0.999863,-0.007746,0.004982,-0.013738,0.666701,-0.606606,-0.432659,0.018606
54081,NaN,-3.578763,0.719851,-2.440151,-0.396102,-3.684711,-12.167497,-1.302621,1.109022,-3.745799,-0.430664,0.663574,0.150146,-0.035781,0.007710,-0.024252,0.999788,-0.006513,0.005545,-0.018728,0.665361,-0.602717,-0.440485,-0.000579
54082,NaN,-2.435233,1.097698,-4.118009,1.521446,-4.277121,-11.679297,-0.955862,1.140626,-4.726297,-0.475098,0.637939,0.143799,-0.024321,0.011355,-0.041095,0.999693,-0.004779,0.005703,-0.023629,0.664772,-0.595326,-0.450766,-0.021797
54083,NaN,-0.821338,1.782837,-5.273089,3.561286,-4.166206,-11.084845,-0.651680,1.081071,-5.590285,-0.521240,0.603760,0.152832,-0.007999,0.017882,-0.052745,0.999589,-0.003258,0.005405,-0.027948,0.664351,-0.584427,-0.463693,-0.045514
54084,NaN,0.644322,1.755570,-5.175935,4.337599,-3.379158,-10.043841,-0.330117,1.018023,-6.288176,-0.564941,0.567383,0.146729,0.006725,0.017262,-0.051822,0.999491,-0.001650,0.005089,-0.031436,0.663978,-0.570446,-0.478346,-0.070069
54085,NaN,2.461967,1.676772,-4.627930,4.919082,-2.158913,-8.617182,-0.149247,0.890835,-6.861997,-0.611084,0.526855,0.151367,0.024968,0.015880,-0.046402,0.999401,-0.000746,0.004453,-0.034303,0.662796,-0.553765,-0.494780,-0.096117
54086,NaN,4.668561,2.581623,-4.173455,6.262017,-0.595190,-7.302972,-0.106276,0.744578,-7.323815,-0.651855,0.464844,0.147705,0.047433,0.024066,-0.041923,0.999323,-0.000531,0.003722,-0.036611,0.660379,-0.535300,-0.512176,-0.122597
54087,NaN,7.093664,3.274392,-3.742649,7.383515,0.831875,-5.361768,-0.188843,0.576630,-7.702369,-0.692871,0.404785,0.150635,0.072018,0.029948,-0.037662,0.999254,-0.000944,0.002882,-0.038502,0.656005,-0.515319,-0.530565,-0.150348
54088,NaN,9.450971,2.841550,-3.713287,7.588331,1.255306,-2.603533,-0.306949,0.391389,-8.020440,-0.718750,0.349121,0.151123,0.095473,0.024542,-0.037359,0.999193,-0.001534,0.001956,-0.040091,0.649701,-0.494377,-0.549261,-0.178306
54089,NaN,11.577432,1.389818,-3.543458,6.470104,1.033871,0.459296,-0.204453,0.212266,-8.337785,-0.746582,0.282715,0.156494,0.116181,0.009023,-0.035569,0.999130,-0.001022,0.001061,-0.041677,0.641603,-0.471371,-0.568709,-0.206700
54090,NaN,13.426704,0.353960,-3.570763,5.323577,0.529114,3.009923,-0.105586,0.035364,-8.614336,-0.765869,0.218506,0.161621,0.134247,-0.002263,-0.035731,0.999072,-0.000528,0.000177,-0.043058,0.631968,-0.446784,-0.588236,-0.234477
54091,NaN,15.509908,0.058533,-3.260768,4.272788,0.503557,5.436116,0.016473,-0.123252,-8.853373,-0.776367,0.147705,0.168945,0.154943,-0.006275,-0.032512,0.999020,0.000082,-0.000616,-0.044252,0.620422,-0.420224,-0.608036,-0.262262
54092,NaN,17.401744,-0.313010,-2.710846,2.652989,0.405211,7.590141,0.155136,-0.273870,-9.063677,-0.778076,0.074951,0.172119,0.173675,-0.010987,-0.026877,0.998972,0.000775,-0.001369,-0.045303,0.607407,-0.392162,-0.627485,-0.289012
54093,NaN,20.235422,-0.752733,-1.128303,0.058502,1.034898,10.434408,-0.016713,-0.370463,-9.248373,-0.775879,0.010498,0.186035,0.201738,-0.016869,-0.010908,0.998929,-0.000084,-0.001852,-0.046225,0.591939,-0.363121,-0.646227,-0.316454
54094,NaN,23.636676,-2.529546,0.744963,-4.319713,0.960954,13.546641,-0.460315,-0.465198,-9.267562,-0.769043,-0.062256,0.193604,0.234840,-0.036186,0.008072,0.998921,-0.002301,-0.002325,-0.046321,0.574317,-0.334933,-0.662985,-0.344137
54095,NaN,26.487155,-5.908834,1.036969,-9.624133,-1.613810,15.521422,-0.949840,-0.436153,-9.158959,-0.756104,-0.130859,0.198975,0.261775,-0.071074,0.011262,0.998938,-0.004748,-0.002180,-0.045779,0.554641,-0.307504,-0.677373,-0.372800
54096,NaN,28.854890,-10.908891,0.033466,-15.732331,-6.288659,15.953857,-1.117704,-0.296534,-8.970891,-0.738770,-0.190918,0.197754,0.283271,-0.121871,0.001415,0.998977,-0.005587,-0.001482,-0.044839,0.534652,-0.280510,-0.689199,-0.400583
54097,NaN,31.628982,-16.994213,-1.174843,-22.778607,-11.787157,15.326121,-1.042780,0.011953,-8.663947,-0.717529,-0.250977,0.192383,0.308535,-0.183481,-0.010834,0.999048,-0.005212,0.000060,-0.043306,0.515140,-0.253004,-0.698654,-0.427204
54098,NaN,32.187404,-22.925827,-2.353818,-28.708917,-16.978772,11.489757,-0.731051,0.355843,-8.213487,-0.698242,-0.304688,0.186768,0.312059,-0.242296,-0.023229,0.999149,-0.003654,0.001779,-0.041056,0.497498,-0.225270,-0.705962,-0.450962
54099,NaN,32.055991,-26.926803,-3.211771,-32.478464,-20.648298,6.947082,-0.709181,0.622936,-7.610911,-0.668701,-0.349609,0.177002,0.309906,-0.281312,-0.032111,0.999265,-0.003545,0.003114,-0.038045,0.481270,-0.198543,-0.710914,-0.472823
54100,NaN,32.337737,-28.847356,-6.944618,-32.967559,-25.593485,3.734159,-0.779724,0.709525,-6.630452,-0.639160,-0.392578,0.171387,0.313328,-0.299244,-0.069417,0.999437,-0.003898,0.003547,-0.033146,0.467094,-0.175110,-0.713540,-0.491956
54101,NaN,29.673084,-30.574062,-11.074353,-31.315164,-29.847327,-1.694692,-1.282126,0.833584,-5.363706,-0.623047,-0.422607,0.156738,0.287919,-0.314248,-0.109959,0.999611,-0.006410,0.004167,-0.026815,0.455671,-0.156907,-0.712911,-0.509414
54102,NaN,16.928946,-34.363783,-9.954041,-27.863228,-27.329717,-16.369950,-1.880626,0.617142,-4.116783,-0.601074,-0.437744,0.144287,0.161855,-0.347939,-0.096789,0.999739,-0.009402,0.003085,-0.020582,0.445813,-0.144950,-0.709756,-0.525820
54103,NaN,5.178555,-43.367930,-10.264773,-27.070507,-27.614406,-32.559797,-1.151636,0.126793,-2.908229,-0.594238,-0.448242,0.135986,0.045403,-0.434952,-0.100176,0.999878,-0.005758,0.000634,-0.014541,0.438048,-0.136996,-0.708581,-0.535966
54104,NaN,-3.213070,-47.048906,-9.359408,-24.715293,-25.545168,-42.186897,0.166510,-0.381743,-1.354181,-0.589600,-0.458984,0.148926,-0.035136,-0.470180,-0.094051,0.999975,0.000833,-0.001909,-0.006771,0.433193,-0.132898,-0.710770,-0.538040
54105,NaN,-4.432080,-44.509396,-10.730256,-21.568907,-25.528777,-41.418386,0.113653,-0.827961,0.615275,-0.592285,-0.446289,0.148682,-0.042506,-0.445165,-0.107734,0.999987,0.000568,-0.004140,0.003076,0.432487,-0.137289,-0.712626,-0.535043
54106,NaN,0.720308,-40.805456,-4.637646,-25.382933,-20.258492,-34.959271,-0.188001,-0.823574,2.000462,-0.594971,-0.427002,0.154785,0.011474,-0.407997,-0.045952,0.999941,-0.000940,-0.004118,0.010002,0.434772,-0.147064,-0.712486,-0.530763
54107,NaN,5.958070,-32.360560,-1.924211,-24.509152,-16.031716,-24.932621,-0.085398,-0.874741,2.922613,-0.610840,-0.407715,0.165283,0.064384,-0.322696,-0.018830,0.999884,-0.000427,-0.004374,0.014612,0.439950,-0.160264,-0.712148,-0.523072
54108,NaN,6.975632,-25.753727,-2.296304,-20.811056,-13.987831,-19.211616,-0.253838,-1.065180,3.723459,-0.624512,-0.381836,0.169189,0.074654,-0.256206,-0.022248,0.999812,-0.001269,-0.005326,0.018616,0.445631,-0.176881,-0.710705,-0.514806
54109,NaN,9.921602,-18.007016,-2.494581,-17.111881,-11.557249,-11.379226,-0.221252,-1.255075,4.368113,-0.638672,-0.351807,0.181396,0.103270,-0.177871,-0.024109,0.999741,-0.001106,-0.006275,0.021839,0.452838,-0.196464,-0.709097,-0.503509
54110,NaN,16.472197,-10.712969,-4.235839,-14.309042,-10.961178,-0.920947,0.986700,-1.583496,4.686174,-0.654785,-0.317627,0.191650,0.167499,-0.103020,-0.041555,0.999682,0.004933,-0.007917,0.023428,0.459867,-0.214813,-0.710330,-0.487656
54111,NaN,0.690249,-2.966260,-51.594958,19.490262,-47.592506,-4.719991,-1.995864,-3.907905,3.808311,-0.657715,-0.298340,0.208496,0.017604,-0.034541,-0.515347,0.999578,-0.009978,-0.019537,0.019039,0.453694,-0.242782,-0.710280,-0.480334
54112,NaN,83.155677,-7.604146,35.336634,-55.445151,22.824600,58.133235,-11.400163,1.877880,7.943962,-0.684570,-0.266113,0.173584,0.836456,-0.022921,0.347840,0.997544,-0.056954,0.009382,0.039687,0.464499,-0.291754,-0.667276,-0.503848
54113,NaN,42.241138,-13.011298,31.454038,-36.938209,23.179851,22.438983,-2.344266,-1.673420,6.309315,-0.690430,-0.223145,0.183594,0.423498,-0.113037,0.319473,0.999399,-0.011719,-0.008365,0.031540,0.471830,-0.322838,-0.655924,-0.492864
54114,NaN,8.136648,-29.365187,10.735422,-32.195481,1.106207,-12.219710,-0.431919,-2.371323,5.752708,-0.698242,-0.182617,0.195801,0.088476,-0.290941,0.109006,0.999514,-0.002159,-0.011855,0.028759,0.477324,-0.348451,-0.650835,-0.476611
54115,NaN,-0.883947,-23.845391,-0.170101,-21.609754,-7.348716,-16.759208,-0.694679,-2.190220,6.004397,-0.703857,-0.144043,0.208008,-0.001664,-0.238580,-0.000917,0.999483,-0.003473,-0.010949,0.030017,0.483801,-0.375411,-0.643598,-0.459113
54116,NaN,-11.914405,-9.292726,-19.553086,-0.408815,-21.961206,-21.132749,0.375652,-0.385430,3.632975,-0.707031,-0.116211,0.211914,-0.117057,-0.094699,-0.195935,0.999831,0.001878,-0.001927,0.018164,0.491545,-0.387058,-0.638447,-0.448280
54117,NaN,-6.027260,-6.471795,-0.137703,-4.837980,-2.466653,-16.793456,-0.004102,-1.215678,3.692551,-0.703613,-0.092529,0.222168,-0.059054,-0.065816,-0.001737,0.999811,-0.000021,-0.006078,0.018462,0.496578,-0.402247,-0.634179,-0.435229
54118,NaN,14.187476,-9.718861,1.043630,-11.878595,-0.632826,2.649248,0.040433,-1.173331,3.313482,-0.706543,-0.069092,0.228271,0.143394,-0.094823,0.011255,0.999846,0.000202,-0.005866,0.016567,0.500093,-0.415188,-0.630398,-0.424410
54119,NaN,18.786709,-10.119445,-0.705895,-12.051026,-1.649604,7.733411,0.206433,-0.532816,2.669959,-0.703125,-0.047607,0.234375,0.189214,-0.098667,-0.006659,0.999907,0.001032,-0.002664,0.013349,0.505175,-0.424932,-0.626532,-0.414354
54120,NaN,13.747263,-8.429559,-12.069930,-6.186834,-12.310607,4.880087,1.186303,-0.452208,2.263739,-0.701416,-0.032471,0.234131,0.138683,-0.082014,-0.120878,0.999916,0.005931,-0.002261,0.011318,0.510946,-0.429972,-0.625248,-0.403885
54121,NaN,10.855950,-6.171854,-5.518284,-5.273255,-5.655458,1.438770,1.155712,-0.797077,1.889324,-0.702148,-0.015381,0.236084,0.109354,-0.060369,-0.055100,0.999931,0.005778,-0.003985,0.009446,0.515430,-0.435265,-0.625450,-0.392032
54122,NaN,14.805806,-5.854084,-2.157921,-6.106816,-1.723900,4.947617,0.924608,-0.516314,1.695617,-0.702637,-0.002686,0.244385,0.148602,-0.057183,-0.021463,0.999950,0.004623,-0.002582,0.008478,0.519145,-0.439220,-0.624849,-0.383586
54123,NaN,18.334439,-9.082725,-1.111896,-9.453983,-1.088466,8.334291,0.882336,-0.577184,1.496169,-0.698975,0.016602,0.246338,0.184049,-0.089403,-0.010985,0.999958,0.004412,-0.002886,0.007481,0.522826,-0.443446,-0.624635,-0.373951
54124,NaN,23.621732,-6.584181,-5.924843,-5.528706,-3.728077,14.517501,1.550129,-0.486106,1.512743,-0.697266,0.027344,0.250488,0.236848,-0.063593,-0.059172,0.999938,0.007750,-0.002430,0.007564,0.527560,-0.445046,-0.625388,-0.364012
54125,NaN,25.535066,-5.918997,-3.566017,-5.274411,-0.767022,16.097992,1.608628,-0.290633,1.624805,-0.691406,0.044434,0.248047,0.255871,-0.056825,-0.035752,0.999934,0.008043,-0.001453,0.008124,0.533855,-0.447138,-0.625269,-0.352285
54126,NaN,28.342623,-6.170623,-1.745230,-5.764486,1.497816,18.629021,2.001891,-0.297646,1.691754,-0.689697,0.059570,0.241455,0.283960,-0.059130,-0.017630,0.999913,0.010009,-0.001488,0.008459,0.540351,-0.447615,-0.625728,-0.340771
54127,NaN,30.413275,-4.555117,-1.427649,-3.816365,2.970013,20.590364,2.616176,0.021526,1.555230,-0.690186,0.078857,0.239014,0.304472,-0.042992,-0.014883,0.999884,0.013080,0.000108,0.007776,0.549564,-0.446071,-0.626331,-0.326664
54128,NaN,29.212689,-1.352238,-0.250297,-0.904787,5.128407,18.964767,3.004904,0.082739,1.212847,-0.688477,0.091797,0.238770,0.292200,-0.011710,-0.002809,0.999869,0.015024,0.000414,0.006064,0.558450,-0.441466,-0.628199,-0.314017
54129,NaN,27.547938,3.166669,-1.043409,3.840900,6.161523,16.969436,3.680905,-0.025187,0.754646,-0.682373,0.100342,0.221680,0.275358,0.032890,-0.009802,0.999824,0.018403,-0.000126,0.003773,0.568294,-0.434242,-0.631920,-0.298583
54130,NaN,26.178974,8.176154,-1.544358,8.550275,7.905573,15.066250,3.516625,0.090814,0.123599,-0.682861,0.111084,0.212891,0.261732,0.082179,-0.014120,0.999845,0.017582,0.000454,0.000618,0.576328,-0.424487,-0.636521,-0.287224
54131,NaN,20.323996,13.850250,1.165376,11.886654,12.033764,8.079525,3.419617,0.175212,-0.317218,-0.682861,0.117432,0.199951,0.203471,0.137956,0.013838,0.999852,0.017097,0.000876,-0.001586,0.584301,-0.413974,-0.641093,-0.276076
54132,NaN,8.205206,13.723886,-0.085002,11.774213,8.867527,-3.618460,5.419223,0.201774,0.028692,-0.683350,0.130371,0.184814,0.082034,0.137208,0.002786,0.999632,0.027093,0.001009,0.000143,0.596002,-0.397855,-0.647665,-0.258889
54133,NaN,5.728690,12.038210,-3.513742,12.001578,5.210533,-5.468563,4.366483,0.559440,0.567375,-0.685791,0.141113,0.169434,0.056850,0.121275,-0.032655,0.999754,0.021831,0.002797,0.002837,0.607743,-0.386438,-0.649891,-0.242808
54134,NaN,9.330064,3.628262,-6.213444,7.099366,-0.751750,-0.440039,2.374884,0.879136,1.638026,-0.675537,0.156250,0.158691,0.092722,0.037781,-0.062100,0.999886,0.011874,0.004396,0.008190,0.617119,-0.383484,-0.646842,-0.231733
54135,NaN,10.911122,-9.255281,-9.172667,-0.702108,-10.297611,3.689305,1.289774,0.901684,1.841935,-0.684570,0.168945,0.147705,0.109537,-0.090949,-0.092810,0.999927,0.006449,0.004508,0.009209,0.625173,-0.384914,-0.641526,-0.222362
54136,NaN,10.486985,-5.263511,-10.113499,3.279757,-8.640654,2.618695,0.797099,0.831807,1.766292,-0.674316,0.181885,0.136719,0.104904,-0.051304,-0.101777,0.999944,0.003985,0.004159,0.008831,0.631314,-0.387192,-0.636355,-0.215818
54137,NaN,11.316148,-2.471031,-7.434181,4.075432,-4.638464,2.487706,-0.234818,0.906811,1.908667,-0.672363,0.190430,0.125977,0.113052,-0.023719,-0.074826,0.999943,-0.001174,0.004534,0.009543,0.636283,-0.393524,-0.629115,-0.210945
54138,NaN,10.318168,-4.964179,-5.299515,0.902922,-4.643935,1.883744,-0.517500,0.561925,2.360005,-0.670654,0.207764,0.117188,0.103610,-0.048558,-0.053159,0.999923,-0.002587,0.002810,0.011800,0.639482,-0.402021,-0.622066,-0.206097
54139,NaN,7.598739,-5.997200,-4.959254,-0.251308,-5.489858,-0.426855,0.094871,0.433766,2.810742,-0.660400,0.220459,0.104248,0.076712,-0.058874,-0.049786,0.999899,0.000474,0.002169,0.014053,0.644296,-0.410474,-0.614709,-0.196280
54140,NaN,3.679132,-10.656811,-4.227109,-4.640944,-8.538183,-2.705059,1.452072,0.164006,3.292737,-0.652832,0.248291,0.101562,0.038501,-0.105633,-0.043071,0.999838,0.007260,0.000820,0.016463,0.650916,-0.415738,-0.608723,-0.181457
54141,NaN,3.830054,-15.565125,-6.415244,-6.325576,-13.003804,-0.382455,3.176756,-0.450682,3.545292,-0.638428,0.269775,0.090820,0.041187,-0.153894,-0.066516,0.999714,0.015882,-0.002253,0.017725,0.659569,-0.416967,-0.605153,-0.157787
54142,NaN,10.772594,-3.414859,-8.699545,5.963519,-5.087741,2.099730,3.173208,-0.917232,3.413980,-0.630615,0.291260,0.086182,0.108671,-0.030918,-0.087006,0.999718,0.015865,-0.004586,0.017068,0.665922,-0.417487,-0.603367,-0.134911
54143,NaN,15.392192,8.608333,-7.049890,14.479920,5.578291,1.136199,3.112574,-0.730759,3.287666,-0.614014,0.310547,0.075195,0.152720,0.089678,-0.068562,0.999737,0.015562,-0.003653,0.016437,0.672577,-0.417882,-0.600499,-0.111431
54144,NaN,16.780971,11.174722,-5.313371,15.391046,9.514926,0.541769,3.033754,-0.402302,3.591142,-0.601807,0.332031,0.064209,0.165862,0.115522,-0.051065,0.999722,0.015167,-0.002011,0.017954,0.679522,-0.418619,-0.595845,-0.089313
54145,NaN,17.329679,9.253183,-3.214704,12.946228,10.525828,1.041384,2.563351,-0.089912,3.930185,-0.591797,0.355469,0.048828,0.171443,0.096314,-0.030851,0.999725,0.012816,-0.000450,0.019649,0.686395,-0.421921,-0.588554,-0.066699
54146,NaN,18.729781,8.486940,-1.821824,12.082829,12.025604,1.826279,1.988101,0.070856,4.431942,-0.566895,0.379150,0.042236,0.185347,0.089167,-0.017412,0.999705,0.009940,0.000354,0.022158,0.692071,-0.428039,-0.579424,-0.045705
54147,NaN,20.500300,10.172378,-2.201188,14.181199,14.133982,1.483188,1.306093,0.108261,4.928506,-0.552734,0.406982,0.031250,0.202400,0.106874,-0.021435,0.999675,0.006530,0.000541,0.024640,0.696203,-0.437943,-0.568275,-0.023887
54148,NaN,21.535762,10.040184,-1.584861,14.343431,15.383923,1.349199,0.579791,0.232903,4.994865,-0.527832,0.434814,0.026611,0.212742,0.105783,-0.015796,0.999683,0.002899,0.001164,0.024972,0.698505,-0.449994,-0.556388,-0.005291
54149,NaN,21.122586,8.598052,-1.181588,13.530497,14.987595,0.849272,0.120795,0.351717,4.938720,-0.513184,0.449707,0.022217,0.208996,0.091167,-0.012131,0.999693,0.000604,0.001758,0.024691,0.699732,-0.463400,-0.543581,0.012434
54150,NaN,20.485957,5.609109,-1.314073,12.325867,13.237659,1.394650,0.146429,0.315133,5.040570,-0.483887,0.471191,0.011230,0.203338,0.061239,-0.013418,0.999681,0.000732,0.001575,0.025200,0.700383,-0.476501,-0.530586,0.029798
54151,NaN,19.085006,3.794715,-1.908531,11.724384,11.511661,0.780725,0.292274,0.130036,5.002151,-0.465332,0.494629,0.010986,0.189809,0.042731,-0.019149,0.999686,0.001461,0.000650,0.025008,0.700489,-0.488786,-0.517741,0.048447
54152,NaN,18.530188,3.872105,-2.249244,12.085348,11.397374,-0.464268,0.258810,-0.087582,4.861653,-0.437744,0.509766,0.002441,0.184297,0.043238,-0.022358,0.999704,0.001294,-0.000438,0.024306,0.699499,-0.500339,-0.505917,0.066410
54153,NaN,19.941734,4.883906,-1.067660,12.528179,13.837144,-1.200571,0.233580,-0.054399,4.603282,-0.415039,0.533203,0.000000,0.198226,0.053423,-0.010562,0.999734,0.001168,-0.000272,0.023014,0.698244,-0.511129,-0.494165,0.083684
54154,NaN,22.514565,6.006744,-0.900094,14.381877,16.325173,-1.424048,-0.173733,0.344488,4.133984,-0.391602,0.543945,-0.006348,0.223824,0.064695,-0.009442,0.999785,-0.000869,0.001722,0.020668,0.696758,-0.522022,-0.482328,0.096857
54155,NaN,21.558978,5.862383,-1.425616,14.541529,15.460393,-2.695736,-0.767938,0.610511,3.707148,-0.377197,0.558838,-0.002197,0.214409,0.062548,-0.015147,0.999816,-0.003839,0.003052,0.018535,0.694338,-0.533892,-0.470648,0.106510
54156,NaN,15.785897,5.948772,0.773704,10.057515,13.170871,-6.567823,-1.353507,0.605075,3.125224,-0.353516,0.563232,-0.002197,0.156925,0.061993,0.006847,0.999850,-0.006767,0.003025,0.015625,0.690367,-0.546224,-0.460817,0.112612
54157,NaN,10.063104,5.797046,1.970939,6.127542,10.059836,-9.807354,-1.758464,0.524011,2.326944,-0.343018,0.569580,0.008545,0.099996,0.059305,0.018929,0.999890,-0.008792,0.002620,0.011634,0.685466,-0.557893,-0.453478,0.115107
54158,NaN,7.844904,4.179929,2.396141,4.131737,8.226509,-9.740969,-2.083209,0.528085,1.517896,-0.330322,0.573730,0.008545,0.078190,0.042638,0.023314,0.999913,-0.010416,0.002640,0.007589,0.679905,-0.568765,-0.448553,0.114171
54159,NaN,5.422280,3.183203,1.696594,3.021772,5.761200,-10.110265,-2.156785,0.540221,0.653871,-0.330566,0.575928,0.021240,0.054163,0.032189,0.016474,0.999933,-0.010784,0.002701,0.003269,0.674693,-0.577806,-0.445943,0.109832
54160,NaN,2.466588,1.741682,-0.211047,2.236481,2.011881,-10.147828,-2.002304,0.626855,-0.341788,-0.326172,0.575928,0.025635,0.024688,0.017352,-0.002362,0.999944,-0.010011,0.003134,-0.001709,0.670443,-0.584146,-0.445849,0.102464
54161,NaN,0.242526,1.364419,-1.679837,1.874298,-0.610728,-10.737978,-1.849586,0.785159,-1.459371,-0.336914,0.571533,0.036377,0.002458,0.013470,-0.016933,0.999923,-0.009248,0.003926,-0.007297,0.667632,-0.587412,-0.448275,0.090908
54164,NaN,-2.291623,0.120159,-4.636175,5.849321,-14.137234,-12.410661,-1.199732,0.889209,-3.449396,-0.385010,0.532959,0.041016,-0.070372,0.004726,-0.138232,0.998411,-0.017986,0.013331,-0.051714,0.666675,-0.576555,-0.470634,0.040411
54165,NaN,-1.560561,0.356829,-7.067225,4.065191,-5.980974,-10.271268,-0.734394,0.856743,-5.216236,-0.410156,0.513916,0.036865,-0.015813,0.003720,-0.070618,0.999644,-0.003672,0.004283,-0.026078,0.667441,-0.566685,-0.482745,0.018650
54166,NaN,-0.051913,0.669748,-6.834331,4.858463,-4.849147,-9.611929,-0.613764,0.749361,-5.921254,-0.435303,0.494629,0.036865,-0.000581,0.006504,-0.068361,0.999550,-0.003068,0.003746,-0.029602,0.667759,-0.554299,-0.496820,-0.004654
54167,NaN,1.765448,1.005505,-5.606237,5.116309,-2.854138,-8.702178,-0.504029,0.623485,-6.468359,-0.459961,0.464600,0.035156,0.017789,0.009340,-0.056142,0.999469,-0.002520,0.003117,-0.032336,0.667385,-0.539605,-0.512409,-0.029333
54168,NaN,3.842187,1.896152,-4.558313,5.861389,-0.701849,-7.743969,-0.480972,0.496772,-6.917007,-0.491455,0.438965,0.033203,0.038931,0.017511,-0.045723,0.999396,-0.002404,0.002483,-0.034578,0.665943,-0.523137,-0.528993,-0.054899
54169,NaN,5.572740,1.609085,-4.088645,5.967532,0.225864,-5.980820,-0.385506,0.349434,-7.329761,-0.513916,0.402588,0.033691,0.056193,0.013958,-0.041013,0.999325,-0.001927,0.001747,-0.036641,0.663328,-0.504576,-0.546616,-0.081301
54170,NaN,6.964759,0.764750,-3.740319,5.452416,0.490614,-4.060470,-0.269263,0.219154,-7.707578,-0.547119,0.368408,0.029785,0.069831,0.004908,-0.037487,0.999256,-0.001346,0.001096,-0.038528,0.659626,-0.483992,-0.564781,-0.108021
54171,NaN,8.822661,0.247397,-3.615997,5.225558,0.756936,-1.872030,-0.192765,0.042833,-8.017670,-0.567139,0.329834,0.032227,0.088223,-0.001098,-0.036179,0.999196,-0.000964,0.000214,-0.040078,0.654308,-0.461545,-0.583604,-0.135145
54172,NaN,10.835393,-0.093921,-3.352735,4.804154,1.071722,0.402938,-0.193835,-0.066111,-8.271493,-0.593994,0.293457,0.028320,0.108202,-0.005450,-0.033488,0.999144,-0.000969,-0.000330,-0.041346,0.647529,-0.437750,-0.602244,-0.162432
54173,NaN,12.445323,-0.472810,-2.963235,3.888514,1.115562,2.329451,-0.094434,-0.189706,-8.497731,-0.613770,0.246338,0.024658,0.124130,-0.010022,-0.029511,0.999097,-0.000472,-0.000948,-0.042476,0.639113,-0.412170,-0.620987,-0.189807
54174,NaN,14.640816,-1.395296,-1.936305,1.969793,1.268871,4.830502,-0.098136,-0.302250,-8.688714,-0.631348,0.195068,0.031738,0.145647,-0.020302,-0.019134,0.999055,-0.000491,-0.001511,-0.043430,0.629137,-0.385466,-0.639149,-0.217005
54175,NaN,17.212777,-2.747728,-0.144148,-1.104524,1.531009,7.510456,-0.177554,-0.339764,-8.773524,-0.649170,0.152100,0.025879,0.170704,-0.034989,-0.001122,0.999036,-0.000887,-0.001698,-0.043854,0.617403,-0.357904,-0.656474,-0.244459
54176,NaN,19.522976,-4.412672,0.730922,-4.197937,0.557692,9.756752,-0.550570,-0.390929,-8.757443,-0.660400,0.100830,0.026611,0.193035,-0.052592,0.007825,0.999036,-0.002752,-0.001954,-0.043773,0.603855,-0.331058,-0.672022,-0.272298
54177,NaN,21.771729,-7.211794,1.202993,-8.222170,-1.683717,11.557861,-0.970538,-0.355741,-8.644067,-0.673828,0.053711,0.022949,0.214311,-0.081371,0.012793,0.999053,-0.004851,-0.001778,-0.043207,0.588542,-0.305038,-0.685562,-0.300956
54178,NaN,24.504770,-11.130638,1.191123,-13.095474,-5.155082,13.150226,-1.273158,-0.192872,-8.478475,-0.684814,0.004395,0.023682,0.240029,-0.121475,0.012896,0.999081,-0.006364,-0.000964,-0.042379,0.572664,-0.279801,-0.696497,-0.329635
54179,NaN,27.038601,-16.616842,0.537714,-18.911362,-10.281629,13.502067,-1.095927,0.091326,-8.208795,-0.683350,-0.042725,0.024414,0.263270,-0.177041,0.006206,0.999143,-0.005478,0.000457,-0.041032,0.557334,-0.253941,-0.705369,-0.356858
54180,NaN,28.971262,-21.900647,-0.802188,-23.950802,-15.892827,12.384625,-0.769223,0.336961,-7.801625,-0.688232,-0.085693,0.016357,0.280866,-0.230109,-0.007629,0.999230,-0.003845,0.001684,-0.038998,0.543224,-0.227842,-0.712407,-0.381407
54181,NaN,29.945770,-25.959948,-2.781931,-27.147859,-21.176924,9.992447,-0.399829,0.529542,-7.243299,-0.697510,-0.128418,0.017090,0.289723,-0.270267,-0.028062,0.999339,-0.001999,0.002647,-0.036209,0.530578,-0.202075,-0.717988,-0.402674
54182,NaN,30.331776,-29.267677,-5.594785,-28.733013,-26.459274,6.968514,-0.198486,0.563142,-6.433238,-0.702393,-0.169189,0.002686,0.293538,-0.302281,-0.056487,0.999478,-0.000992,0.002815,-0.032161,0.519198,-0.178336,-0.722212,-0.420761
54183,NaN,27.836322,-30.943985,-9.312192,-27.146594,-30.662772,2.082895,-0.720205,0.558351,-5.441887,-0.705322,-0.209961,0.003174,0.269543,-0.317189,-0.092750,0.999619,-0.003601,0.002791,-0.027206,0.509316,-0.159592,-0.723828,-0.437265
54184,NaN,18.577648,-33.363880,-7.641886,-26.083782,-28.910844,-9.364787,-1.382202,0.490232,-4.431155,-0.704346,-0.241943,-0.000488,0.178133,-0.338162,-0.074535,0.999728,-0.006910,0.002451,-0.022154,0.500191,-0.146027,-0.722892,-0.453776
54185,NaN,8.040935,-35.826279,-5.212361,-24.470993,-25.387310,-21.294522,-2.040310,0.229085,-3.266251,-0.711914,-0.265625,-0.008789,0.074482,-0.360019,-0.048544,0.999814,-0.010201,0.001145,-0.016330,0.492737,-0.139224,-0.720020,-0.468399
54186,NaN,1.077285,-39.242913,-6.463222,-22.818216,-25.704991,-29.848815,-1.669958,-0.044259,-1.748580,-0.709229,-0.282715,-0.008545,0.007352,-0.393025,-0.061350,0.999927,-0.008350,-0.000221,-0.008743,0.487316,-0.137204,-0.717379,-0.478607
54187,NaN,-2.612954,-42.322444,-7.320281,-22.736424,-26.609678,-34.844169,-0.728431,-0.296316,-0.247329,-0.722168,-0.282715,-0.010742,-0.026546,-0.423455,-0.071700,0.999992,-0.003642,-0.001482,-0.001237,0.486138,-0.139399,-0.716667,-0.480236
54188,NaN,-3.303038,-42.663689,-6.697478,-23.290100,-25.981769,-35.472792,-0.501739,-0.598952,1.332896,-0.730957,-0.278320,-0.000244,-0.029987,-0.427010,-0.065997,0.999970,-0.002509,-0.002995,0.006664,0.486860,-0.146896,-0.715963,-0.478316
54189,NaN,-0.199615,-37.128629,-4.052892,-23.044779,-21.986328,-29.318206,-0.527710,-0.627112,2.433524,-0.750977,-0.261230,0.005859,0.002647,-0.371378,-0.039546,0.999918,-0.002638,-0.003135,0.012167,0.491205,-0.159119,-0.714583,-0.471985
54190,NaN,6.138286,-27.511475,-2.213602,-20.848561,-17.130959,-18.253946,-0.496510,-0.723351,3.204737,-0.758301,-0.235596,0.014160,0.065859,-0.274137,-0.021222,0.999862,-0.002482,-0.003617,0.016023,0.495753,-0.173542,-0.712533,-0.465199
54191,NaN,12.250783,-18.563128,-3.799581,-16.585518,-15.113901,-7.461271,-0.320228,-1.047797,3.900942,-0.765625,-0.211914,0.024414,0.126293,-0.183252,-0.037046,0.999795,-0.001601,-0.005239,0.019503,0.502042,-0.191507,-0.711050,-0.453526
54192,NaN,10.582250,-13.826904,-12.110559,-7.985968,-19.098780,-5.205817,0.429547,-1.373471,4.312273,-0.788330,-0.177734,0.042969,0.109596,-0.135674,-0.120655,0.999742,0.002148,-0.006867,0.021560,0.507250,-0.208893,-0.711149,-0.439691
54193,NaN,7.693851,-21.274450,-58.051189,11.448498,-61.007110,-4.526002,-1.879777,-3.662598,4.259754,-0.800293,-0.147705,0.053223,0.092109,-0.216324,-0.576895,0.999561,-0.009398,-0.018310,0.021296,0.502733,-0.237664,-0.711796,-0.429094
54194,NaN,90.445287,-18.924897,58.528824,-73.588593,34.674966,63.175451,-11.772465,3.156559,8.714662,-0.812988,-0.087646,0.032959,0.919728,-0.115141,0.579080,0.997195,-0.058807,0.015768,0.043533,0.517278,-0.290852,-0.666276,-0.451557
54195,NaN,34.501942,3.881925,28.046400,-17.937189,25.155378,22.390226,-0.625940,-2.561954,5.486810,-0.810059,-0.046875,0.053711,0.340137,0.049083,0.284699,0.999537,-0.003129,-0.012808,0.027430,0.521293,-0.317605,-0.663409,-0.432746
54196,NaN,6.989709,-6.313437,2.572118,-8.273624,-0.405653,-4.645892,0.285921,-2.664751,5.137231,-0.811523,-0.008301,0.070312,0.071138,-0.061355,0.026575,0.999580,0.001429,-0.013322,0.025683,0.523836,-0.339597,-0.662514,-0.413938
54197,NaN,-6.391794,-21.882427,0.653879,-18.547504,-8.957929,-19.595518,-0.821984,-1.720647,6.220117,-0.811035,0.036621,0.089111,-0.057132,-0.220644,0.006932,0.999471,-0.004109,-0.008602,0.031095,0.530557,-0.366963,-0.654357,-0.394544
54198,NaN,-14.587903,-12.194934,-13.042370,-3.670607,-17.926943,-23.837418,-1.404893,-0.468230,4.327468,-0.809814,0.064453,0.084229,-0.142878,-0.125976,-0.129885,0.999739,-0.007024,-0.002341,0.021635,0.534874,-0.385743,-0.644689,-0.386638
54199,NaN,-4.907494,-13.568271,-6.227156,-9.375934,-11.649488,-14.640505,0.281525,-1.051342,3.882900,-0.806641,0.096680,0.094482,-0.046101,-0.136509,-0.062711,0.999797,0.001408,-0.005256,0.019413,0.540570,-0.400731,-0.640373,-0.370300
54200,NaN,12.180468,-10.000124,-0.757280,-9.860481,-3.168827,2.088733,-0.413125,-1.294072,3.242958,-0.803223,0.122314,0.109131,0.123450,-0.098023,-0.006574,0.999845,-0.002066,-0.006470,0.016214,0.541547,-0.414632,-0.636477,-0.360144
54201,NaN,17.752348,-6.431458,-0.392524,-6.718455,-0.222630,7.835327,-0.200739,-0.863673,2.697844,-0.799561,0.139404,0.117432,0.178384,-0.061916,-0.003093,0.999899,-0.001004,-0.004318,0.013489,0.544271,-0.426557,-0.632708,-0.348566
54202,NaN,16.595260,-11.263789,-9.236327,-7.256548,-10.000450,8.487344,0.932041,-0.747555,2.322443,-0.798096,0.156494,0.117188,0.167587,-0.110268,-0.092256,0.999915,0.004660,-0.003738,0.011612,0.547923,-0.432703,-0.631324,-0.337607
54203,NaN,10.995061,-7.604411,-2.911632,-5.903602,-3.610951,1.989749,0.607369,-0.352027,2.023096,-0.790039,0.175781,0.121338,0.110763,-0.074838,-0.029150,0.999943,0.003037,-0.001760,0.010115,0.552551,-0.439273,-0.628745,-0.326199
54204,NaN,11.556264,-4.830426,-0.799058,-4.044635,-0.367265,2.062533,0.520172,-0.638962,1.643675,-0.786133,0.186523,0.125488,0.115979,-0.047332,-0.007744,0.999958,0.002601,-0.003195,0.008218,0.554369,-0.444097,-0.627685,-0.318536
54205,NaN,18.262822,-9.379170,-5.275908,-5.939417,-4.607801,10.006893,0.959565,-0.425991,1.455466,-0.780273,0.197266,0.129639,0.183416,-0.092206,-0.052814,0.999960,0.004798,-0.002130,0.007277,0.558468,-0.447924,-0.626910,-0.307347
54206,NaN,21.271469,-5.992858,-5.955903,-2.186558,-2.999207,12.772118,0.945319,-0.245568,1.511191,-0.780518,0.209961,0.123047,0.213231,-0.058037,-0.059575,0.999960,0.004727,-0.001228,0.007556,0.562140,-0.450452,-0.625599,-0.299529
54207,NaN,23.198520,-8.036763,-3.116874,-4.688332,-0.638266,14.478709,1.184526,-0.262479,1.627733,-0.779053,0.225098,0.125000,0.232669,-0.078291,-0.031331,0.999948,0.005923,-0.001312,0.008139,0.567362,-0.453823,-0.624126,-0.287423
54208,NaN,26.577264,-7.074855,-1.626117,-3.853267,2.047036,17.390018,1.708575,-0.017489,1.788209,-0.770752,0.237793,0.114014,0.266392,-0.068226,-0.016828,0.999924,0.008543,-0.000087,0.008941,0.573735,-0.454619,-0.622484,-0.276882
54209,NaN,29.283095,-4.508164,0.552845,-1.735188,5.982331,19.158040,1.870312,0.176210,1.886968,-0.769043,0.250732,0.105225,0.293244,-0.042364,0.004866,0.999911,0.009351,0.000881,0.009435,0.582033,-0.456059,-0.619809,-0.262841
54210,NaN,32.067736,-3.124230,0.391976,0.359258,7.332086,21.561492,2.198520,0.210026,1.723619,-0.752197,0.263672,0.098877,0.320935,-0.028515,0.003259,0.999902,0.010992,0.001050,0.008618,0.589926,-0.454755,-0.618053,-0.251387
54211,NaN,30.929745,0.865249,-0.869419,4.890121,8.080823,19.664849,2.842611,0.209205,1.311587,-0.754639,0.272217,0.081543,0.309222,0.010806,-0.008874,0.999877,0.014212,0.001046,0.006558,0.599531,-0.451267,-0.617378,-0.236147
54212,NaN,26.456115,5.566380,-0.728934,8.448419,9.437010,14.082971,3.359940,0.105378,0.761555,-0.744141,0.278564,0.068604,0.264343,0.056784,-0.006481,0.999852,0.016799,0.000527,0.003808,0.608266,-0.443429,-0.619177,-0.223613
54213,NaN,23.605117,10.143059,-1.465055,12.308563,10.710413,10.087284,2.854066,0.032893,0.130237,-0.743896,0.270020,0.066650,0.235983,0.101780,-0.013239,0.999898,0.014270,0.000164,0.000651,0.615672,-0.436137,-0.621244,-0.211633
54214,NaN,14.938248,15.085518,1.208124,13.313383,13.341207,0.032639,3.244329,0.080128,-0.096641,-0.743896,0.272217,0.042969,0.149461,0.150561,0.014465,0.999868,0.016221,0.000401,-0.000483,0.622829,-0.425784,-0.624518,-0.201914
54215,NaN,5.715437,12.763674,-1.349355,11.446821,7.918325,-7.905623,4.851849,0.226420,0.556168,-0.739502,0.274414,0.028076,0.056786,0.128073,-0.010454,0.999701,0.024257,0.001132,0.002781,0.635083,-0.412994,-0.626599,-0.182973
54216,NaN,7.784476,8.302158,-4.754056,10.457661,3.680301,-4.408307,3.154698,0.757873,1.280281,-0.731201,0.281006,0.012939,0.077130,0.084256,-0.046511,0.999848,0.015773,0.003789,0.006401,0.645060,-0.406309,-0.624300,-0.170472
54217,NaN,11.068262,-1.215070,-5.936146,5.062745,-1.863860,1.593758,1.148064,1.069220,1.947394,-0.724854,0.289551,-0.002197,0.110472,-0.010731,-0.060017,0.999922,0.005740,0.005346,0.009737,0.653070,-0.408598,-0.617085,-0.160476
54218,NaN,9.246465,-7.545912,-9.641767,2.998791,-8.937262,2.292115,0.838273,1.002636,1.955568,-0.718994,0.306641,-0.013184,0.092708,-0.074147,-0.097195,0.999931,0.004191,0.005013,0.009778,0.659411,-0.411139,-0.610406,-0.153448
54219,NaN,9.649986,-0.391228,-10.465276,8.972179,-4.925129,0.088595,0.107023,0.965594,2.028372,-0.708496,0.317383,-0.019775,0.096026,-0.002881,-0.105119,0.999937,0.000535,0.004828,0.010142,0.664708,-0.417052,-0.602401,-0.146097
54220,NaN,11.298806,-1.771004,-7.059218,6.267366,-2.723167,1.760246,-0.741648,0.777267,2.207640,-0.696045,0.330322,-0.024170,0.112901,-0.016726,-0.070968,0.999925,-0.003708,0.003886,0.011038,0.667075,-0.425642,-0.594585,-0.142507
54221,NaN,11.797113,-6.510217,-6.531016,2.995276,-4.835481,4.038259,-0.863696,0.559275,2.600426,-0.690186,0.345215,-0.024170,0.118624,-0.063845,-0.065364,0.999902,-0.004318,0.002796,0.013002,0.669153,-0.436627,-0.585911,-0.135278
54222,NaN,7.251873,-8.976482,-5.824253,-0.216478,-7.055029,1.015945,-0.096996,0.319982,3.039860,-0.677734,0.360107,-0.026611,0.073779,-0.088678,-0.058317,0.999883,-0.000485,0.001600,0.015199,0.671865,-0.445663,-0.578025,-0.125975
54223,NaN,4.716417,-17.319707,-3.073777,-8.045135,-10.504656,2.699297,2.264333,-0.023695,3.240757,-0.663574,0.383789,-0.043945,0.049962,-0.172040,-0.032684,0.999805,0.011321,-0.000118,0.016203,0.679104,-0.448142,-0.571596,-0.106131
54224,NaN,6.043268,-19.271576,-5.908142,-6.104113,-13.206458,5.386933,4.561121,-0.757559,3.551532,-0.651123,0.396729,-0.059082,0.064059,-0.190189,-0.063200,0.999575,0.022802,-0.003787,0.017755,0.688759,-0.443090,-0.568341,-0.079194
54225,NaN,14.617985,0.276155,-7.368040,10.640769,1.163299,2.573233,4.493676,-1.242623,3.334142,-0.630127,0.413818,-0.076416,0.146542,0.006843,-0.072647,0.999589,0.022465,-0.006212,0.016668,0.696506,-0.438174,-0.566052,-0.049673
54226,NaN,17.275944,11.749422,-8.300702,18.914531,9.417740,-2.141322,3.809036,-0.790115,3.398397,-0.613525,0.433105,-0.087402,0.171032,0.121954,-0.080035,0.999666,0.019043,-0.003950,0.016990,0.703224,-0.434650,-0.562068,-0.025207
54227,NaN,18.761632,10.484803,-4.146202,15.588797,12.688227,-1.150420,3.038836,0.018690,3.923000,-0.596680,0.447998,-0.102539,0.185500,0.109114,-0.039843,0.999692,0.015193,0.000093,0.019613,0.710295,-0.435525,-0.552991,-0.000633
54228,NaN,19.212234,6.400318,0.264779,10.448763,13.595865,0.960064,2.270241,0.255887,4.456743,-0.573975,0.473877,-0.115479,0.190637,0.068229,0.003162,0.999686,0.011350,0.001279,0.022281,0.715727,-0.439717,-0.542164,0.021022
54229,NaN,22.162155,8.116831,0.136141,12.776598,16.566872,1.107544,1.513762,0.465666,4.842205,-0.553223,0.497314,-0.126465,0.219574,0.086490,0.001490,0.999676,0.007568,0.002328,0.024208,0.719604,-0.447895,-0.528846,0.043388
54230,NaN,23.234035,9.610275,0.393707,13.927505,18.608039,-0.222563,1.086550,0.612353,4.942101,-0.523926,0.518799,-0.133057,0.229884,0.101783,0.003773,0.999675,0.005432,0.003061,0.024708,0.722335,-0.457106,-0.515119,0.062767
54231,NaN,22.612042,10.036984,0.299987,14.136046,18.823101,-2.205503,0.549696,0.692901,5.027633,-0.496582,0.538086,-0.141846,0.223512,0.106003,0.002509,0.999674,0.002748,0.003464,0.025135,0.723525,-0.468580,-0.500163,0.082340
54232,NaN,21.919054,9.370481,-0.756887,14.670583,17.672052,-3.396114,-0.000438,0.713617,5.063519,-0.465088,0.565918,-0.148438,0.216696,0.099212,-0.008345,0.999673,-0.000002,0.003568,0.025315,0.722967,-0.481446,-0.485503,0.099070
54233,NaN,21.338863,7.463895,-1.584507,14.680595,16.061819,-3.491865,-0.437929,0.674970,5.100256,-0.442139,0.584961,-0.146484,0.211338,0.080010,-0.016732,0.999667,-0.002189,0.003374,0.025498,0.720713,-0.495909,-0.470303,0.116030
54234,NaN,21.286846,5.960737,-1.047957,14.052008,15.820957,-3.340121,-0.774252,0.590442,4.988320,-0.410645,0.608643,-0.146729,0.211262,0.064847,-0.011349,0.999677,-0.003871,0.002952,0.024939,0.717030,-0.510667,-0.456047,0.130797
54235,NaN,23.185854,5.235506,-0.490185,14.745461,17.282856,-2.812587,-0.751348,0.688271,4.716427,-0.378906,0.623535,-0.144775,0.230519,0.057781,-0.005907,0.999709,-0.003756,0.003441,0.023580,0.713303,-0.524644,-0.441459,0.145126
54236,NaN,24.403937,4.087302,-3.356731,17.687882,16.003048,-2.431736,-1.158444,0.680939,4.215932,-0.360596,0.649170,-0.140625,0.242992,0.045804,-0.034652,0.999755,-0.005792,0.003404,0.021078,0.708506,-0.538499,-0.428642,0.155897
54237,NaN,21.204874,4.695616,-3.249865,16.146503,14.176296,-5.282077,-1.452983,0.726343,3.739244,-0.332764,0.655518,-0.132080,0.211004,0.050666,-0.033625,0.999792,-0.007264,0.003631,0.018695,0.703023,-0.552255,-0.416731,0.164645
54238,NaN,14.138882,6.060006,0.519257,9.522928,12.090830,-9.866345,-1.712877,0.720404,3.184835,-0.311768,0.668457,-0.123535,0.140416,0.062880,0.004154,0.999830,-0.008564,0.003602,0.015923,0.697024,-0.565460,-0.406678,0.170368
54239,NaN,8.634378,6.855629,1.813813,5.464706,9.197854,-13.032760,-1.856084,0.514850,2.467370,-0.296875,0.674805,-0.114990,0.085533,0.069778,0.017273,0.999878,-0.009280,0.002574,0.012336,0.690607,-0.577394,-0.399222,0.174070
54240,NaN,6.626288,6.309407,1.229393,4.622594,7.108586,-13.462747,-2.062836,0.415899,1.650627,-0.288574,0.683350,-0.102295,0.065763,0.063760,0.011501,0.999911,-0.010314,0.002079,0.008253,0.683954,-0.588170,-0.394710,0.174549
54241,NaN,3.478831,4.126265,-0.568643,3.566376,3.041228,-12.548112,-2.159783,0.452857,0.753484,-0.295410,0.689697,-0.083008,0.034619,0.041328,-0.006211,0.999932,-0.010799,0.002264,0.003767,0.677809,-0.597439,-0.392615,0.171742
54242,NaN,1.190541,2.643178,-2.025603,2.889161,0.038432,-11.851686,-2.320352,0.572255,-0.267238,-0.293457,0.691650,-0.074463,0.011882,0.026178,-0.020595,0.999928,-0.011601,0.002861,-0.001336,0.672153,-0.605274,-0.393365,0.164671
54243,NaN,-1.703614,2.843395,-2.286086,1.326745,-2.159144,-12.941730,-2.252350,0.742904,-1.410396,-0.306152,0.689697,-0.051025,-0.016922,0.028294,-0.023117,0.999905,-0.011261,0.003714,-0.007052,0.667912,-0.610664,-0.396794,0.153418
54244,NaN,-3.924481,1.954217,-3.230009,0.374552,-4.533210,-12.806518,-1.998114,0.853173,-2.586952,-0.325439,0.685303,-0.036133,-0.039128,0.019726,-0.032329,0.999857,-0.009990,0.004266,-0.012934,0.665369,-0.612821,-0.403245,0.138299
54245,NaN,-3.631657,1.273491,-4.837875,1.504151,-5.590410,-11.980719,-1.660800,0.905283,-3.625400,-0.353027,0.672363,-0.027344,-0.036301,0.012992,-0.048322,0.999791,-0.008303,0.004526,-0.018126,0.664462,-0.611599,-0.412268,0.120298
54246,NaN,-2.615088,1.887874,-6.309906,3.400750,-5.805941,-12.036076,-1.377727,0.931550,-4.611477,-0.386963,0.655273,-0.022949,-0.026007,0.019045,-0.063109,0.999700,-0.006888,0.004657,-0.023055,0.664725,-0.607101,-0.423905,0.099366
54247,NaN,-0.759477,1.875727,-6.930238,4.999164,-5.040910,-11.124427,-1.143161,0.868553,-5.486804,-0.422852,0.636230,-0.010010,-0.007385,0.018565,-0.069376,0.999598,-0.005715,0.004342,-0.027430,0.665495,-0.599558,-0.437981,0.076289
54248,NaN,0.725268,1.240932,-6.859678,5.580213,-4.240289,-9.775864,-0.828904,0.807296,-6.200286,-0.467285,0.612549,-0.007812,0.007350,0.011898,-0.068676,0.999503,-0.004144,0.004036,-0.030996,0.666799,-0.588809,-0.453906,0.051499
54249,NaN,1.686203,0.936509,-6.118255,5.471179,-3.239592,-8.962462,-0.450982,0.706221,-6.784211,-0.504883,0.582764,-0.003174,0.016947,0.008653,-0.061262,0.999416,-0.002254,0.003530,-0.033914,0.668325,-0.574878,-0.471359,0.026024
54250,NaN,3.087584,2.611197,-5.521594,6.668613,-1.450599,-9.304822,-0.274322,0.543948,-7.267952,-0.551025,0.548584,-0.007324,0.031645,0.024895,-0.055336,0.999335,-0.001371,0.002719,-0.036332,0.669314,-0.558423,-0.490084,-0.000373
54251,NaN,5.419407,3.829466,-4.867406,8.064175,0.748959,-8.359050,-0.161083,0.362633,-7.697630,-0.590332,0.505615,-0.006836,0.055524,0.036135,-0.048804,0.999257,-0.000805,0.001813,-0.038479,0.669105,-0.539815,-0.510053,-0.027273
54252,NaN,7.695564,3.442780,-4.284431,8.380738,2.103087,-5.974339,-0.007263,0.180902,-8.056336,-0.638428,0.462891,-0.004395,0.078220,0.031292,-0.042916,0.999188,-0.000036,0.000904,-0.040271,0.667907,-0.518908,-0.530711,-0.054593
54253,NaN,9.922924,2.352618,-3.582828,7.852781,2.978697,-3.012920,0.119938,0.013741,-8.381183,-0.677979,0.422363,0.006836,0.100097,0.019364,-0.035823,0.999122,0.000600,0.000069,-0.041894,0.665221,-0.495915,-0.552103,-0.082047
54254,NaN,11.758608,1.017011,-2.567940,6.450906,3.498862,-0.223576,0.175035,-0.102601,-8.655145,-0.718994,0.366699,-0.001221,0.117893,0.005094,-0.025613,0.999063,0.000875,-0.000513,-0.043262,0.661207,-0.471105,-0.573400,-0.109903
54255,NaN,12.953912,-0.272543,-1.854462,4.735689,3.282868,1.934866,0.359243,-0.236610,-8.843385,-0.757812,0.308838,0.014404,0.129273,-0.008413,-0.018403,0.999020,0.001796,-0.001183,-0.044202,0.655690,-0.444303,-0.594821,-0.137311
54256,NaN,15.004543,-0.985699,-0.197402,2.740173,4.137067,4.377786,0.364335,-0.395651,-9.023812,-0.802979,0.246826,0.015137,0.149401,-0.016606,-0.001704,0.998979,0.001821,-0.001978,-0.045104,0.648474,-0.416184,-0.615754,-0.164676
54257,NaN,17.284525,-1.076807,1.685096,0.714833,5.315184,6.733674,-0.061686,-0.544428,-9.146145,-0.843506,0.174072,0.026855,0.172066,-0.018645,0.017325,0.998951,-0.000308,-0.002721,-0.045715,0.638277,-0.388274,-0.636038,-0.193136
54258,NaN,20.777310,-3.258580,3.604115,-3.142112,5.192626,10.636288,-0.360672,-0.548233,-9.165365,-0.868896,0.096924,0.042725,0.205892,-0.041986,0.036677,0.998945,-0.001803,-0.002740,-0.045811,0.626334,-0.360500,-0.654518,-0.222153
