// Start Time: Unknown
// Update Rate: 100.0Hz
// Filter Profile: human (46.1)
// Firmware Version: 4.4.0
PacketCounter,SampleTimeFine,Acc_X,Acc_Y,Acc_Z,FreeAcc_X,FreeAcc_Y,FreeAcc_Z,Gyr_X,Gyr_Y,Gyr_Z,Mag_X,Mag_Y,Mag_Z,VelInc_X,VelInc_Y,VelInc_Z,OriInc_q0,OriInc_q1,OriInc_q2,OriInc_q3,Quat_q0,Quat_q1,Quat_q2,Quat_q3
49743,NaN,9.710515,1.858345,-0.318179,0.000000,0.000000,0.079167,-0.125715,0.037705,0.101242,-0.601318,-0.142822,-0.314453,0.097095,0.018631,-0.003212,1.000000,-0.000629,0.000189,0.000506,0.694090,0.089685,-0.712875,-0.044779
49744,NaN,9.857924,1.831327,-0.302564,0.004375,-0.038819,0.218386,-0.133441,0.046071,0.118895,-0.599365,-0.140869,-0.299316,0.098568,0.018370,-0.003061,1.000000,-0.000667,0.000230,0.000594,0.695148,0.088263,-0.712050,-0.044317
49745,NaN,9.828099,1.729889,-0.337160,0.052467,-0.117586,0.171356,-0.141285,0.052657,0.141794,-0.597168,-0.138672,-0.303711,0.098268,0.017366,-0.003410,0.999999,-0.000706,0.000263,0.000709,0.695429,0.087278,-0.711898,-0.044304
49746,NaN,9.777715,1.624235,-0.180360,-0.089835,-0.206038,0.098106,-0.114854,0.061127,0.157080,-0.603760,-0.138672,-0.299561,0.097764,0.016318,-0.001843,0.999999,-0.000574,0.000306,0.000785,0.695724,0.086335,-0.711735,-0.044139
49747,NaN,9.795800,1.440391,0.041925,-0.293968,-0.385967,0.076638,-0.085379,0.063699,0.170003,-0.605713,-0.140869,-0.310059,0.097946,0.014487,0.000382,0.999999,-0.000427,0.000318,0.000850,0.696025,0.085447,-0.711567,-0.043824
49748,NaN,9.713800,1.483850,0.072064,-0.318929,-0.312288,0.003913,-0.080602,0.061456,0.178645,-0.601807,-0.134277,-0.303711,0.097125,0.014926,0.000685,0.999999,-0.000403,0.000307,0.000893,0.696320,0.084539,-0.711409,-0.043458
49749,NaN,9.690223,1.517981,-0.051006,-0.191819,-0.249545,-0.009209,-0.078743,0.057268,0.182466,-0.601562,-0.136475,-0.308105,0.096888,0.015268,-0.000544,0.999999,-0.000394,0.000286,0.000912,0.696597,0.083628,-0.711269,-0.043079
49750,NaN,9.706643,1.602162,-0.056434,-0.185230,-0.150780,0.022553,-0.086566,0.062625,0.184375,-0.610352,-0.136475,-0.301758,0.097051,0.016111,-0.000602,0.999999,-0.000433,0.000313,0.000922,0.696907,0.082671,-0.711099,-0.042706
49751,NaN,9.664678,1.537086,0.042035,-0.272631,-0.194166,-0.032180,-0.089861,0.063519,0.185021,-0.605957,-0.134277,-0.305908,0.096633,0.015460,0.000383,0.999999,-0.000449,0.000318,0.000925,0.697209,0.081713,-0.710935,-0.042355
49752,NaN,9.772233,1.531874,-0.016540,-0.208344,-0.195824,0.074762,-0.108122,0.059725,0.185306,-0.604004,-0.132324,-0.299561,0.097708,0.015409,-0.000203,0.999999,-0.000541,0.000299,0.000927,0.697527,0.080669,-0.710760,-0.042051
49753,NaN,9.952709,1.527223,-0.175772,-0.044843,-0.204131,0.255878,-0.103377,0.065428,0.192472,-0.610352,-0.132080,-0.299561,0.099512,0.015367,-0.001798,0.999999,-0.000517,0.000327,0.000962,0.697841,0.079638,-0.710588,-0.041720
49754,NaN,9.712678,1.486537,-0.142204,-0.064791,-0.183914,0.012182,-0.098294,0.075130,0.204232,-0.610596,-0.130127,-0.295410,0.097111,0.014964,-0.001466,0.999999,-0.000491,0.000376,0.001021,0.698219,0.078553,-0.710361,-0.041299
49755,NaN,9.546352,1.420386,-0.032153,-0.161554,-0.205475,-0.164734,-0.083649,0.074323,0.220527,-0.606201,-0.127930,-0.301758,0.095448,0.014309,-0.000363,0.999999,-0.000418,0.000372,0.001103,0.698561,0.077493,-0.710171,-0.040797
49756,NaN,9.621278,1.378191,0.085958,-0.271076,-0.242450,-0.099630,-0.076190,0.054091,0.223809,-0.606201,-0.130127,-0.286621,0.096198,0.013890,0.000828,0.999999,-0.000381,0.000270,0.001119,0.698866,0.076400,-0.710022,-0.040226
49757,NaN,9.661878,1.247989,0.159332,-0.333422,-0.359363,-0.081583,-0.060166,0.044914,0.215296,-0.608398,-0.127930,-0.295410,0.096606,0.012584,0.001568,0.999999,-0.000301,0.000225,0.001076,0.699091,0.075434,-0.709935,-0.039670
49758,NaN,9.548017,1.293332,0.080449,-0.250232,-0.269200,-0.184152,-0.066398,0.043683,0.219946,-0.610596,-0.125732,-0.295410,0.095466,0.013039,0.000779,0.999999,-0.000332,0.000218,0.001100,0.699376,0.074364,-0.709801,-0.039062
49759,NaN,9.659179,1.371499,-0.078245,-0.093405,-0.180438,-0.058429,-0.062261,0.033964,0.225737,-0.610596,-0.125732,-0.291016,0.096576,0.013824,-0.000803,0.999999,-0.000311,0.000170,0.001129,0.699563,0.073352,-0.709753,-0.038481
49760,NaN,9.790974,1.691922,-0.126183,-0.057575,0.142775,0.123003,-0.079662,0.039556,0.247764,-0.617432,-0.119385,-0.295410,0.097888,0.017040,-0.001288,0.999999,-0.000398,0.000198,0.001239,0.699855,0.072118,-0.709628,-0.037809
49761,NaN,10.022189,1.886604,-0.292082,0.100627,0.333353,0.383760,-0.112020,0.040303,0.278370,-0.608643,-0.121582,-0.297607,0.100195,0.019004,-0.002952,0.999999,-0.000560,0.000202,0.001392,0.700091,0.070746,-0.709565,-0.037218
49762,NaN,10.127721,1.811307,-0.396449,0.214648,0.279479,0.477330,-0.133251,0.047852,0.311729,-0.615234,-0.117188,-0.282715,0.101248,0.018268,-0.004001,0.999999,-0.000666,0.000239,0.001559,0.700433,0.069124,-0.709423,-0.036532
49763,NaN,9.956271,1.554642,-0.127383,-0.033992,0.073139,0.264706,-0.123996,0.068360,0.350675,-0.615234,-0.119385,-0.289062,0.099535,0.015720,-0.001318,0.999998,-0.000620,0.000342,0.001753,0.700781,0.067458,-0.709280,-0.035720
49764,NaN,9.596791,0.993996,-0.007038,-0.117737,-0.397148,-0.173456,-0.108171,0.062738,0.369264,-0.619629,-0.117188,-0.287109,0.095949,0.010117,-0.000106,0.999998,-0.000541,0.000314,0.001846,0.701160,0.065742,-0.709115,-0.034757
49765,NaN,9.493473,1.080563,-0.072703,-0.050129,-0.258190,-0.261266,-0.090653,0.053477,0.373717,-0.615234,-0.119385,-0.295410,0.094914,0.010983,-0.000757,0.999998,-0.000453,0.000267,0.001869,0.701444,0.064108,-0.709033,-0.033750
49766,NaN,9.505431,1.198611,-0.050640,-0.072618,-0.106487,-0.232722,-0.044798,0.029808,0.368053,-0.619629,-0.114990,-0.282715,0.095032,0.012161,-0.000523,0.999998,-0.000224,0.000149,0.001840,0.701689,0.062580,-0.708983,-0.032544
49767,NaN,9.612425,0.799536,0.295370,-0.401080,-0.494775,-0.183594,-0.024821,0.011251,0.371572,-0.619629,-0.113037,-0.287109,0.096109,0.008174,0.002947,0.999998,-0.000124,0.000056,0.001858,0.701796,0.061177,-0.709055,-0.031325
49768,NaN,9.754427,0.851313,0.415747,-0.522523,-0.428610,-0.035694,-0.028615,0.012189,0.361796,-0.624023,-0.113037,-0.278564,0.097529,0.008690,0.004150,0.999998,-0.000143,0.000061,0.001809,0.701993,0.059695,-0.709040,-0.030061
49769,NaN,9.720482,1.187270,0.250260,-0.371185,-0.048547,-0.023930,-0.047155,0.010555,0.370574,-0.621826,-0.110840,-0.282715,0.097183,0.012053,0.002495,0.999998,-0.000236,0.000053,0.001853,0.702099,0.058217,-0.709106,-0.028925
49770,NaN,9.941075,1.380030,0.026818,-0.154824,0.165236,0.221195,-0.057183,-0.009099,0.380818,-0.628662,-0.106445,-0.276611,0.099384,0.013990,0.000269,0.999998,-0.000286,-0.000045,0.001904,0.702274,0.056541,-0.709117,-0.027683
49771,NaN,9.992884,1.302824,-0.140406,0.013439,0.128267,0.264913,-0.074817,-0.009920,0.397979,-0.628418,-0.108643,-0.276367,0.099903,0.013227,-0.001404,0.999998,-0.000374,-0.000050,0.001990,0.702314,0.054865,-0.709253,-0.026553
49772,NaN,9.311766,0.649942,0.137998,-0.232027,-0.410491,-0.489169,-0.052967,-0.018209,0.414007,-0.628906,-0.095703,-0.272461,0.093104,0.006693,0.001387,0.999998,-0.000265,-0.000091,0.002070,0.702453,0.053108,-0.709298,-0.025205
49773,NaN,9.412599,-0.132891,0.433619,-0.501948,-1.172220,-0.475850,-0.014292,-0.060144,0.409462,-0.628906,-0.100098,-0.274414,0.094127,-0.001136,0.004365,0.999998,-0.000071,-0.000301,0.002047,0.702294,0.051598,-0.709615,-0.023834
49774,NaN,10.085486,0.312657,0.162540,-0.256519,-0.748263,0.247899,0.017472,-0.048761,0.366836,-0.635498,-0.093750,-0.272461,0.100849,0.003311,0.001650,0.999998,0.000087,-0.000244,0.001834,0.702336,0.050165,-0.709725,-0.022323
49775,NaN,9.913683,0.838785,-0.123205,0.004232,-0.160356,0.135881,0.073156,-0.020392,0.360552,-0.628906,-0.095703,-0.276611,0.099122,0.008567,-0.001219,0.999998,0.000366,-0.000102,0.001803,0.702284,0.049140,-0.709894,-0.020802
49776,NaN,9.990902,0.671560,-0.263541,0.151353,-0.286202,0.198988,0.108714,-0.016688,0.362495,-0.633301,-0.091553,-0.270264,0.099897,0.006898,-0.002623,0.999998,0.000544,-0.000083,0.001812,0.702419,0.048004,-0.709891,-0.018932
49777,NaN,9.859679,0.813624,-0.083782,-0.036266,-0.103032,0.080251,0.110312,-0.001979,0.373855,-0.631348,-0.089355,-0.266113,0.098581,0.008321,-0.000832,0.999998,0.000552,-0.000010,0.001869,0.702420,0.047064,-0.709996,-0.017228
49778,NaN,9.451545,0.720534,0.476199,-0.587364,-0.138131,-0.340969,0.113146,-0.014516,0.406455,-0.642334,-0.084961,-0.259766,0.094500,0.007395,0.004773,0.999998,0.000566,-0.000073,0.002032,0.702540,0.045782,-0.710008,-0.015177
49779,NaN,9.914144,0.520368,0.320404,-0.433659,-0.332443,0.105225,0.063942,-0.075820,0.393892,-0.635498,-0.091553,-0.261719,0.099130,0.005398,0.003243,0.999998,0.000320,-0.000379,0.001969,0.702285,0.044602,-0.710367,-0.013584
49780,NaN,10.270680,0.935304,0.048539,-0.186478,0.108732,0.498341,-0.003068,-0.055463,0.375854,-0.642334,-0.084961,-0.259766,0.102689,0.009546,0.000514,0.999998,-0.000015,-0.000277,0.001879,0.702329,0.043006,-0.710450,-0.012053
49781,NaN,9.398127,0.701619,-0.146259,0.019409,-0.010706,-0.387304,-0.040755,-0.069690,0.376341,-0.638184,-0.080811,-0.259766,0.093968,0.007193,-0.001431,0.999998,-0.000204,-0.000348,0.001882,0.702112,0.041522,-0.710772,-0.010891
49782,NaN,9.844541,0.233076,-0.032275,-0.084179,-0.472371,0.022961,0.010873,-0.124441,0.402745,-0.642578,-0.076660,-0.247070,0.098441,0.002529,-0.000261,0.999998,0.000054,-0.000622,0.002014,0.701896,0.039900,-0.711101,-0.009253
49783,NaN,10.334136,0.935677,0.148923,-0.313393,0.226026,0.557587,-0.053531,-0.081527,0.398635,-0.642578,-0.076416,-0.259766,0.103322,0.009563,0.001529,0.999998,-0.000268,-0.000408,0.001993,0.701634,0.038291,-0.711463,-0.008061
49784,NaN,9.860789,0.988556,0.095086,-0.258098,0.359393,0.088097,-0.140016,-0.057038,0.416788,-0.646973,-0.072266,-0.251465,0.098587,0.010092,0.000972,0.999998,-0.000700,-0.000285,0.002084,0.701688,0.036097,-0.711536,-0.006899
49785,NaN,9.744023,0.708553,-0.354640,0.198856,0.146119,-0.039624,-0.211196,-0.051044,0.416440,-0.640625,-0.072266,-0.251465,0.097426,0.007285,-0.003529,0.999997,-0.001056,-0.000255,0.002082,0.701557,0.033873,-0.711781,-0.006198
49786,NaN,9.349438,0.690851,-0.495839,0.347410,0.198994,-0.433204,-0.338498,-0.031838,0.407271,-0.653809,-0.063721,-0.245117,0.093481,0.007090,-0.004955,0.999996,-0.001692,-0.000159,0.002036,0.701710,0.031065,-0.711762,-0.005817
49787,NaN,9.563946,-0.164368,-1.146474,1.019815,-0.609483,-0.252410,-0.417406,-0.081157,0.369610,-0.651611,-0.063721,-0.247314,0.095647,-0.001491,-0.011423,0.999996,-0.002087,-0.000406,0.001848,0.701494,0.028282,-0.712089,-0.006018
49788,NaN,10.316766,-0.534960,-1.018268,0.888960,-0.984510,0.482901,-0.380729,-0.006619,0.336489,-0.654053,-0.057129,-0.240967,0.103177,-0.005195,-0.010169,0.999997,-0.001904,-0.000033,0.001682,0.701634,0.025570,-0.712053,-0.006017
49789,NaN,9.821274,-0.262771,-0.336188,0.207935,-0.676536,-0.007665,-0.250256,0.080734,0.358586,-0.651855,-0.055176,-0.240967,0.098216,-0.002456,-0.003398,0.999998,-0.001251,0.000404,0.001793,0.701962,0.023417,-0.711807,-0.005640
49790,NaN,10.117284,-0.178914,-0.121700,-0.004929,-0.567682,0.290968,-0.171903,0.086302,0.356843,-0.651855,-0.057373,-0.236572,0.101175,-0.001610,-0.001259,0.999998,-0.000860,0.000432,0.001784,0.702330,0.021291,-0.711517,-0.004730
49791,NaN,9.782263,0.160619,-0.298258,0.179581,-0.177529,-0.027824,-0.216270,0.168912,0.339051,-0.656006,-0.059326,-0.245117,0.097817,0.001769,-0.003067,0.999998,-0.001081,0.000845,0.001695,0.702961,0.019329,-0.710953,-0.004290
49792,NaN,9.195726,0.481853,-0.026773,-0.076235,0.197444,-0.606745,-0.154704,0.165760,0.353439,-0.656250,-0.055176,-0.240967,0.091948,0.004981,-0.000348,0.999998,-0.000774,0.000829,0.001767,0.703590,0.017258,-0.710389,-0.003304
49793,NaN,10.308423,0.194328,-0.101006,0.006447,-0.087378,0.497684,-0.140520,0.109636,0.331355,-0.654053,-0.059326,-0.247314,0.103080,0.002113,-0.001068,0.999998,-0.000703,0.000548,0.001657,0.703996,0.015588,-0.710028,-0.002628
49794,NaN,10.010021,0.197132,-0.015892,-0.062636,-0.036708,0.199018,-0.175504,0.156515,0.350025,-0.658691,-0.048584,-0.239014,0.100096,0.002146,-0.000239,0.999998,-0.000878,0.000783,0.001750,0.704588,0.013485,-0.709486,-0.001761
49795,NaN,9.915398,0.154462,0.254662,-0.318815,-0.043924,0.101954,-0.105332,0.111370,0.403257,-0.656250,-0.055176,-0.249512,0.099152,0.001746,0.002491,0.999998,-0.000527,0.000557,0.002016,0.704992,0.011685,-0.709118,-0.000706
49796,NaN,9.906305,0.240599,0.323123,-0.376697,0.089513,0.094234,-0.131567,0.117037,0.431068,-0.660889,-0.044434,-0.239014,0.099059,0.002622,0.003172,0.999997,-0.000658,0.000585,0.002155,0.705452,0.009467,-0.708695,0.000581
49797,NaN,9.502265,0.621807,0.381405,-0.428001,0.519683,-0.306284,-0.192281,0.097914,0.477043,-0.654297,-0.046631,-0.243164,0.095009,0.006448,0.003761,0.999997,-0.000961,0.000490,0.002385,0.705804,0.007098,-0.708370,0.001587
49798,NaN,10.026447,0.523837,0.382310,-0.419470,0.470422,0.214912,-0.275757,0.053161,0.482330,-0.658936,-0.037842,-0.237061,0.100252,0.005485,0.003789,0.999996,-0.001379,0.000266,0.002412,0.706069,0.004242,-0.708126,0.002488
49799,NaN,9.901754,0.073112,0.090144,-0.116089,0.073071,0.088786,-0.353624,0.071208,0.511501,-0.665283,-0.042236,-0.239014,0.099016,0.000986,0.000865,0.999995,-0.001768,0.000356,0.002558,0.706319,0.001182,-0.707887,0.003044
49800,NaN,9.311403,-0.071701,-0.180273,0.165684,-0.018085,-0.500766,-0.404059,0.076237,0.536503,-0.669922,-0.035889,-0.230713,0.093115,-0.000471,-0.001837,0.999994,-0.002020,0.000381,0.002683,0.706670,-0.002276,-0.707530,0.003640
49801,NaN,9.437631,0.134579,-0.085254,0.076614,0.239155,-0.377065,-0.408199,0.061764,0.543479,-0.665527,-0.035889,-0.234863,0.094372,0.001600,-0.000885,0.999994,-0.002041,0.000309,0.002717,0.706870,-0.005642,-0.707309,0.004116
49802,NaN,9.890810,-0.030451,-0.086375,0.084265,0.136860,0.077228,-0.363334,0.038708,0.569303,-0.670166,-0.027344,-0.228516,0.098908,-0.000025,-0.000883,0.999994,-0.001817,0.000194,0.002847,0.707051,-0.009048,-0.707087,0.004951
49803,NaN,10.042486,-0.196771,0.053199,-0.052476,0.031533,0.231666,-0.306091,0.037969,0.579193,-0.667969,-0.027344,-0.226562,0.100430,-0.001676,0.000516,0.999995,-0.001530,0.000190,0.002896,0.707153,-0.012178,-0.706931,0.005914
49804,NaN,9.894481,-0.439686,-0.091149,0.096589,-0.155143,0.090277,-0.271055,0.073589,0.599849,-0.670410,-0.018555,-0.226562,0.098957,-0.004101,-0.000942,0.999995,-0.001355,0.000368,0.002999,0.707436,-0.015348,-0.706574,0.007164
49805,NaN,9.576357,-0.083921,-0.057436,0.074478,0.250359,-0.239369,-0.246702,0.089860,0.632051,-0.670410,-0.018555,-0.228760,0.095765,-0.000537,-0.000617,0.999994,-0.001234,0.000449,0.003160,0.707708,-0.018457,-0.706212,0.008521
49806,NaN,9.321093,-0.004939,-0.157046,0.184397,0.380291,-0.499872,-0.264168,0.074691,0.649974,-0.672852,-0.016602,-0.218018,0.093210,0.000251,-0.001605,0.999994,-0.001321,0.000373,0.003250,0.707962,-0.021766,-0.705844,0.009959
49807,NaN,9.846769,-0.524714,-0.377190,0.402299,-0.056991,0.046877,-0.271467,0.017396,0.660062,-0.675049,-0.012207,-0.228760,0.098484,-0.004927,-0.003774,0.999994,-0.001357,0.000087,0.003300,0.707957,-0.025058,-0.705720,0.011336
49808,NaN,10.050341,-0.741251,-0.026668,0.053026,-0.189843,0.263041,-0.199473,0.068025,0.646109,-0.681641,-0.008057,-0.216064,0.100527,-0.007088,-0.000294,0.999994,-0.000997,0.000340,0.003231,0.708148,-0.028102,-0.705385,0.012967
49809,NaN,9.866791,-0.896801,0.442883,-0.414648,-0.281063,0.091993,-0.201876,0.055457,0.640437,-0.681885,-0.001465,-0.220459,0.098697,-0.008648,0.004410,0.999994,-0.001009,0.000277,0.003202,0.708270,-0.031080,-0.705108,0.014514
49810,NaN,9.919107,-1.147880,0.200058,-0.171898,-0.467638,0.162169,-0.233982,0.053027,0.641249,-0.681885,-0.001465,-0.218262,0.099228,-0.011158,0.001987,0.999994,-0.001170,0.000265,0.003206,0.708399,-0.034242,-0.704799,0.016023
49811,NaN,9.520772,-0.719589,0.018117,0.022420,-0.010361,-0.264792,-0.251737,0.038867,0.650041,-0.684082,0.000732,-0.222656,0.095230,-0.006886,0.000171,0.999994,-0.001259,0.000194,0.003250,0.708436,-0.037427,-0.704566,0.017432
49812,NaN,9.650877,-0.936143,-0.036194,0.074555,-0.153458,-0.117963,-0.278918,0.014180,0.638407,-0.690918,0.011230,-0.205811,0.096538,-0.009054,-0.000356,0.999994,-0.001395,0.000071,0.003192,0.708405,-0.040747,-0.704379,0.018793
49813,NaN,9.362512,-1.055000,0.020935,0.011193,-0.232979,-0.393803,-0.310968,-0.005357,0.643845,-0.693359,0.015625,-0.214355,0.093658,-0.010248,0.000228,0.999994,-0.001555,-0.000027,0.003219,0.708258,-0.044116,-0.704291,0.019979
49814,NaN,9.900400,-1.353601,0.309701,-0.287159,-0.403760,0.172310,-0.320185,-0.050662,0.686713,-0.695557,0.017822,-0.210205,0.099049,-0.013191,0.003143,0.999993,-0.001601,-0.000253,0.003434,0.707957,-0.047752,-0.704314,0.021386
49815,NaN,9.949187,-1.086882,0.218730,-0.192016,-0.067345,0.195992,-0.353192,-0.040143,0.687115,-0.689209,0.021973,-0.212402,0.099528,-0.010523,0.002226,0.999993,-0.001766,-0.000201,0.003436,0.707653,-0.051417,-0.704325,0.022584
49816,NaN,9.176578,-0.688317,0.194466,-0.158913,0.316394,-0.615107,-0.358021,-0.015650,0.684028,-0.689453,0.026367,-0.203857,0.091788,-0.006566,0.001964,0.999993,-0.001790,-0.000078,0.003420,0.707460,-0.055189,-0.704192,0.023850
49817,NaN,9.724287,-1.737733,-0.217114,0.205115,-0.617802,0.046546,-0.352430,-0.056477,0.673066,-0.702148,0.024170,-0.206055,0.097301,-0.017054,-0.002113,0.999993,-0.001762,-0.000282,0.003365,0.707078,-0.058798,-0.704243,0.025006
49818,NaN,9.945412,-1.970878,-0.315752,0.287565,-0.758324,0.298552,-0.342248,-0.032567,0.666648,-0.702637,0.037109,-0.199707,0.099520,-0.019382,-0.003108,0.999993,-0.001711,-0.000163,0.003333,0.706804,-0.062451,-0.704158,0.026271
49819,NaN,9.410970,-1.490522,-0.018053,0.005971,-0.269233,-0.288220,-0.308776,-0.021315,0.655974,-0.698242,0.034912,-0.206055,0.094158,-0.014597,-0.000148,0.999993,-0.001544,-0.000107,0.003280,0.706542,-0.065849,-0.704064,0.027508
49820,NaN,10.017781,-1.675126,0.297548,-0.317603,-0.286724,0.339508,-0.246616,-0.032360,0.644403,-0.704834,0.041260,-0.195557,0.100231,-0.016425,0.003012,0.999994,-0.001233,-0.000162,0.003222,0.706266,-0.069110,-0.703966,0.029057
49821,NaN,9.639313,-1.604192,0.272121,-0.294191,-0.206524,-0.043638,-0.225237,-0.028423,0.618446,-0.703125,0.052002,-0.199951,0.096442,-0.015741,0.002753,0.999995,-0.001126,-0.000142,0.003092,0.705994,-0.072078,-0.703882,0.030458
49822,NaN,9.682824,-1.644285,0.283891,-0.310313,-0.174825,0.006385,-0.202712,-0.046597,0.601564,-0.703125,0.049805,-0.189209,0.096876,-0.016149,0.002878,0.999995,-0.001014,-0.000233,0.003008,0.705691,-0.075034,-0.703808,0.032022
49823,NaN,9.509897,-1.782861,0.217892,-0.260364,-0.283216,-0.142324,-0.210999,-0.084898,0.577282,-0.703125,0.054199,-0.197754,0.095149,-0.017552,0.002238,0.999995,-0.001055,-0.000424,0.002886,0.705217,-0.077796,-0.703921,0.033348
49824,NaN,9.577680,-1.895286,0.260930,-0.317821,-0.320073,-0.056232,-0.203657,-0.109215,0.570266,-0.705566,0.056396,-0.191406,0.095829,-0.018677,0.002681,0.999995,-0.001018,-0.000546,0.002851,0.704697,-0.080635,-0.704051,0.034826
49825,NaN,9.503985,-2.065451,0.159478,-0.239686,-0.450846,-0.098970,-0.216519,-0.122573,0.539716,-0.705811,0.062744,-0.193604,0.095094,-0.020396,0.001675,0.999996,-0.001083,-0.000613,0.002699,0.704081,-0.083277,-0.704299,0.036015
49826,NaN,9.418043,-2.129159,0.243662,-0.340119,-0.466056,-0.171157,-0.202525,-0.145737,0.511313,-0.707764,0.060547,-0.185059,0.094233,-0.021048,0.002527,0.999996,-0.001013,-0.000729,0.002557,0.703441,-0.085907,-0.704556,0.037318
49827,NaN,9.576366,-2.101010,0.177814,-0.286856,-0.365761,-0.017977,-0.202696,-0.151523,0.479505,-0.714355,0.067139,-0.185303,0.095812,-0.020779,0.001872,0.999996,-0.001013,-0.000758,0.002398,0.702728,-0.088280,-0.704918,0.038355
49828,NaN,9.717447,-2.339748,0.062527,-0.202205,-0.531702,0.166457,-0.191046,-0.162447,0.437415,-0.716797,0.073486,-0.178955,0.097225,-0.023184,0.000726,0.999997,-0.000955,-0.000812,0.002187,0.702047,-0.090616,-0.705239,0.039460
49829,NaN,9.581055,-2.313797,-0.065323,-0.089553,-0.497725,0.031023,-0.178240,-0.151269,0.397267,-0.712402,0.069092,-0.185303,0.095857,-0.022948,-0.000560,0.999997,-0.000891,-0.000756,0.001986,0.701353,-0.092613,-0.705623,0.040295
49830,NaN,9.584409,-2.551565,-0.322460,0.136238,-0.704873,0.084777,-0.163490,-0.140535,0.373839,-0.712646,0.075684,-0.176758,0.095894,-0.025339,-0.003136,0.999998,-0.000817,-0.000703,0.001869,0.700765,-0.094645,-0.705880,0.041281
49831,NaN,9.706258,-2.481166,-0.112621,-0.082150,-0.559824,0.190314,-0.141099,-0.136290,0.356200,-0.710693,0.079834,-0.178955,0.097107,-0.024639,-0.001043,0.999998,-0.000705,-0.000681,0.001781,0.700142,-0.096369,-0.706217,0.042095
49832,NaN,9.497346,-2.210470,-0.032063,-0.151799,-0.290160,-0.066947,-0.110805,-0.114531,0.316989,-0.717285,0.082031,-0.166260,0.095008,-0.021954,-0.000254,0.999998,-0.000554,-0.000573,0.001585,0.699664,-0.098041,-0.706401,0.043075
49833,NaN,9.805323,-2.362580,-0.121997,-0.084761,-0.354325,0.267403,-0.102734,-0.093187,0.274680,-0.717285,0.082031,-0.177002,0.098086,-0.023492,-0.001162,0.999999,-0.000514,-0.000466,0.001373,0.699225,-0.099351,-0.706614,0.043719
49834,NaN,9.612283,-2.382792,-0.328224,0.111990,-0.397238,0.087364,-0.108239,-0.097578,0.235588,-0.717285,0.086182,-0.161865,0.096152,-0.023716,-0.003222,0.999999,-0.000541,-0.000488,0.001178,0.698821,-0.100730,-0.706774,0.044415
49835,NaN,9.375465,-2.440482,-0.429854,0.200840,-0.487806,-0.129623,-0.115360,-0.060121,0.207372,-0.713135,0.086426,-0.174805,0.093781,-0.024310,-0.004256,0.999999,-0.000577,-0.000301,0.001037,0.698504,-0.101852,-0.706905,0.044763
49836,NaN,9.829224,-2.780083,-0.615883,0.352168,-0.716011,0.389523,-0.094075,-0.049837,0.156575,-0.715088,0.086182,-0.168457,0.098315,-0.027727,-0.006121,1.000000,-0.000470,-0.000249,0.000783,0.698276,-0.102919,-0.706947,0.045214
49837,NaN,9.347349,-2.589805,-0.442103,0.192583,-0.603788,-0.123837,-0.072472,-0.003609,0.113743,-0.717529,0.092773,-0.170654,0.093488,-0.025846,-0.004410,1.000000,-0.000362,-0.000018,0.000569,0.698200,-0.103574,-0.706917,0.045357
49838,NaN,9.920332,-2.594475,-0.310893,0.059046,-0.462883,0.435395,-0.067085,-0.004546,0.057603,-0.719482,0.086426,-0.166260,0.099211,-0.025917,-0.003098,1.000000,-0.000335,-0.000023,0.000288,0.698145,-0.104224,-0.706863,0.045548
49839,NaN,9.561780,-2.415491,-0.181129,-0.053742,-0.349123,0.044811,-0.059939,0.036442,0.034984,-0.717529,0.088379,-0.170654,0.095622,-0.024139,-0.001821,1.000000,-0.000300,0.000182,0.000175,0.698235,-0.104566,-0.706731,0.045439
49840,NaN,9.696209,-2.341119,-0.158609,-0.066653,-0.238349,0.160337,-0.048843,0.041053,0.009352,-0.717529,0.088379,-0.168457,0.096963,-0.023407,-0.001600,1.000000,-0.000244,0.000205,0.000047,0.698358,-0.104994,-0.706543,0.045504
49841,NaN,9.697905,-2.340953,-0.224222,0.002124,-0.243812,0.163296,-0.065771,0.057205,-0.012922,-0.717285,0.086426,-0.172607,0.096977,-0.023417,-0.002262,1.000000,-0.000329,0.000286,-0.000065,0.698528,-0.105192,-0.706364,0.045196
49842,NaN,9.470339,-2.350216,-0.277004,0.059483,-0.301848,-0.056002,-0.059130,0.062846,-0.023705,-0.715088,0.086182,-0.168457,0.094700,-0.023514,-0.002793,1.000000,-0.000296,0.000314,-0.000119,0.698729,-0.105537,-0.706121,0.045090
49843,NaN,9.548887,-2.286286,-0.166735,-0.040406,-0.217224,0.005017,-0.037820,0.062725,-0.037446,-0.719482,0.086426,-0.172607,0.095484,-0.022881,-0.001693,1.000000,-0.000189,0.000314,-0.000187,0.698939,-0.105552,-0.705930,0.044793
49844,NaN,9.501518,-2.224883,0.061534,-0.257031,-0.147718,-0.058466,-0.041562,0.060340,-0.060885,-0.717529,0.090576,-0.166260,0.095009,-0.022278,0.000591,1.000000,-0.000208,0.000302,-0.000304,0.699145,-0.105699,-0.705715,0.044614
49845,NaN,9.432189,-2.254912,-0.144272,-0.051995,-0.216255,-0.116185,-0.065886,0.032701,-0.081093,-0.719238,0.082031,-0.177002,0.094313,-0.022588,-0.001451,1.000000,-0.000329,0.000164,-0.000405,0.699244,-0.105651,-0.705658,0.044081
49846,NaN,9.691878,-2.288229,-0.223618,0.024979,-0.204242,0.146035,-0.082200,0.013699,-0.100558,-0.719482,0.084229,-0.172607,0.096907,-0.022932,-0.002233,1.000000,-0.000411,0.000068,-0.000503,0.699278,-0.105782,-0.705632,0.043636
49847,NaN,9.650659,-2.320481,-0.154650,-0.046420,-0.249158,0.110998,-0.067137,0.044362,-0.112783,-0.715088,0.082031,-0.177002,0.096493,-0.023260,-0.001560,1.000000,-0.000336,0.000222,-0.000564,0.699424,-0.105629,-0.705551,0.042982
49848,NaN,9.721911,-2.395755,0.040321,-0.243853,-0.297118,0.192764,-0.032833,0.051233,-0.121646,-0.719238,0.082031,-0.168457,0.097205,-0.024017,0.000382,1.000000,-0.000164,0.000256,-0.000608,0.699619,-0.105514,-0.705397,0.042610
49849,NaN,9.653353,-2.249119,0.267436,-0.454121,-0.162333,0.091084,-0.020170,0.046446,-0.147372,-0.712646,0.077637,-0.178955,0.096518,-0.022562,0.002654,1.000000,-0.000101,0.000232,-0.000737,0.699803,-0.105076,-0.705316,0.042000
49850,NaN,9.658579,-2.234005,0.201841,-0.384053,-0.162556,0.094165,-0.013126,0.032379,-0.162005,-0.717041,0.079834,-0.168213,0.096568,-0.022418,0.002004,1.000000,-0.000066,0.000162,-0.000810,0.699963,-0.104740,-0.705233,0.041563
49851,NaN,9.587975,-2.155564,0.080547,-0.256411,-0.128054,0.010756,-0.011990,0.002459,-0.176725,-0.714844,0.079834,-0.174805,0.095861,-0.021640,0.000806,1.000000,-0.000060,0.000012,-0.000884,0.700002,-0.104159,-0.705319,0.040901
49852,NaN,9.678449,-2.151671,0.030484,-0.206596,-0.122596,0.099187,-0.008897,-0.009434,-0.178365,-0.725830,0.079834,-0.174805,0.096765,-0.021603,0.000310,1.000000,-0.000044,-0.000047,-0.000892,0.700029,-0.103733,-0.705382,0.040436
49853,NaN,9.697001,-2.137381,0.115363,-0.293220,-0.114835,0.112751,0.005087,-0.028050,-0.177736,-0.718994,0.071289,-0.174561,0.096951,-0.021460,0.001167,1.000000,0.000025,-0.000140,-0.000889,0.699969,-0.103083,-0.705571,0.039847
49854,NaN,9.722023,-2.074922,0.233544,-0.408567,-0.050993,0.122504,0.017837,-0.047727,-0.177124,-0.714844,0.075684,-0.170410,0.097201,-0.020836,0.002357,1.000000,0.000089,-0.000239,-0.000886,0.699880,-0.102551,-0.705756,0.039492
49855,NaN,9.657580,-2.047248,0.226625,-0.405930,-0.054691,0.053601,0.025848,-0.068113,-0.179540,-0.718994,0.069092,-0.174561,0.096557,-0.020559,0.002296,1.000000,0.000129,-0.000341,-0.000898,0.699689,-0.101814,-0.706080,0.038990
49856,NaN,9.545808,-2.011705,0.061230,-0.244619,-0.069104,-0.060328,0.018443,-0.088712,-0.176799,-0.714844,0.075684,-0.174561,0.095440,-0.020201,0.000653,1.000000,0.000092,-0.000444,-0.000884,0.699467,-0.101261,-0.706398,0.038651
49857,NaN,9.602528,-2.125084,-0.050200,-0.153976,-0.195044,0.019162,0.027164,-0.103253,-0.181489,-0.712646,0.077637,-0.174561,0.096006,-0.021338,-0.000455,0.999999,0.000136,-0.000516,-0.000907,0.699151,-0.100505,-0.706845,0.038165
49858,NaN,9.692932,-2.242911,-0.127236,-0.096982,-0.312139,0.131804,0.038560,-0.110987,-0.186556,-0.717041,0.075684,-0.168213,0.096909,-0.022519,-0.001223,0.999999,0.000193,-0.000555,-0.000933,0.698865,-0.099836,-0.707238,0.037866
49859,NaN,9.801725,-2.338216,-0.082483,-0.161038,-0.398631,0.255232,0.080776,-0.104360,-0.198679,-0.716797,0.069092,-0.178955,0.097994,-0.023479,-0.000783,0.999999,0.000404,-0.000522,-0.000993,0.698574,-0.098832,-0.707686,0.037510
49860,NaN,9.803234,-2.219434,-0.106555,-0.133217,-0.299398,0.233865,0.130028,-0.085600,-0.204080,-0.714600,0.069092,-0.172363,0.098010,-0.022294,-0.001038,0.999999,0.000650,-0.000428,-0.001020,0.698424,-0.097786,-0.707982,0.037463
49861,NaN,9.799771,-2.148720,-0.231834,-0.008240,-0.261281,0.219156,0.186601,-0.072053,-0.207738,-0.714600,0.066895,-0.168213,0.097976,-0.021587,-0.002303,0.999999,0.000933,-0.000360,-0.001039,0.698299,-0.096386,-0.708299,0.037433
49862,NaN,9.687162,-1.964697,-0.236396,0.010762,-0.118861,0.073805,0.216857,-0.054309,-0.213751,-0.710205,0.069092,-0.168213,0.096851,-0.019748,-0.002359,0.999999,0.001084,-0.000272,-0.001069,0.698299,-0.095007,-0.708474,0.037642
49863,NaN,9.638415,-1.814069,-0.204545,-0.011138,0.001551,-0.002918,0.235375,-0.059198,-0.216127,-0.712158,0.062744,-0.172363,0.096365,-0.018242,-0.002038,0.999999,0.001177,-0.000296,-0.001081,0.698241,-0.093409,-0.708738,0.037750
49864,NaN,9.652589,-1.844200,-0.188395,-0.031149,-0.040775,0.016166,0.223122,-0.060887,-0.217288,-0.710205,0.066895,-0.172363,0.096506,-0.018545,-0.001875,0.999999,0.001116,-0.000304,-0.001086,0.698216,-0.091986,-0.708937,0.037961
49865,NaN,9.622217,-1.819245,-0.190808,-0.029860,-0.042688,-0.018283,0.220126,-0.059749,-0.216202,-0.703857,0.066895,-0.172363,0.096203,-0.018294,-0.001899,0.999999,0.001101,-0.000299,-0.001081,0.698146,-0.090440,-0.709202,0.038014
49866,NaN,9.637216,-1.849860,-0.208541,-0.015581,-0.087981,0.002270,0.209842,-0.046531,-0.212035,-0.709961,0.058350,-0.163574,0.096353,-0.018599,-0.002082,0.999999,0.001049,-0.000233,-0.001060,0.698159,-0.089075,-0.709353,0.038181
49867,NaN,9.658407,-1.832494,-0.225412,0.000985,-0.088354,0.020208,0.215137,-0.033175,-0.206828,-0.709717,0.054199,-0.178711,0.096565,-0.018422,-0.002258,0.999999,0.001076,-0.000166,-0.001034,0.698176,-0.087585,-0.709519,0.038237
49868,NaN,9.398329,-1.680300,-0.127738,-0.082524,0.004905,-0.264837,0.208244,-0.036260,-0.214721,-0.712158,0.060547,-0.167969,0.093965,-0.016903,-0.001278,0.999999,0.001041,-0.000181,-0.001074,0.698221,-0.086212,-0.709636,0.038377
49869,NaN,9.829307,-1.738296,-0.241691,0.019996,-0.004474,0.172046,0.203758,-0.066362,-0.221043,-0.709717,0.054199,-0.174316,0.098275,-0.017489,-0.002402,0.999999,0.001019,-0.000332,-0.001105,0.698115,-0.084704,-0.709922,0.038357
49870,NaN,9.820856,-1.813625,-0.206732,-0.020794,-0.095601,0.175885,0.212759,-0.032230,-0.215635,-0.711914,0.056396,-0.170166,0.098189,-0.018240,-0.002071,0.999999,0.001064,-0.000161,-0.001078,0.698171,-0.083303,-0.710025,0.038498
49871,NaN,9.386963,-1.667053,-0.181073,-0.032797,-0.045533,-0.277293,0.213089,-0.033497,-0.223256,-0.707764,0.056396,-0.167969,0.093851,-0.016773,-0.001813,0.999999,0.001065,-0.000167,-0.001116,0.698184,-0.081761,-0.710193,0.038490
49872,NaN,9.773978,-1.641555,-0.211837,-0.006926,0.025123,0.100410,0.200328,-0.079446,-0.230464,-0.711914,0.052002,-0.167969,0.097722,-0.016526,-0.002096,0.999999,0.001002,-0.000397,-0.001152,0.698065,-0.080336,-0.710468,0.038548
49873,NaN,9.547860,-1.641091,-0.131052,-0.088665,-0.029495,-0.124384,0.181793,-0.041259,-0.224400,-0.707520,0.054199,-0.178467,0.095460,-0.016517,-0.001306,0.999999,0.000909,-0.000206,-0.001122,0.698034,-0.078897,-0.710666,0.038428
49874,NaN,9.344748,-1.449623,-0.159351,-0.050095,0.104875,-0.355544,0.151675,-0.090764,-0.239551,-0.709473,0.047607,-0.167725,0.093431,-0.014607,-0.001562,0.999999,0.000758,-0.000454,-0.001198,0.697855,-0.077600,-0.710994,0.038277
49875,NaN,9.787100,-1.551821,-0.224270,-0.003555,0.052404,0.099072,0.156212,-0.065864,-0.203248,-0.700928,0.045654,-0.169922,0.097856,-0.015616,-0.002223,0.999999,0.000781,-0.000329,-0.001016,0.697720,-0.076320,-0.711271,0.038150
49876,NaN,9.377508,-1.170978,-0.279091,0.074125,0.342255,-0.364721,0.144415,-0.068829,-0.200272,-0.705322,0.047607,-0.167725,0.093764,-0.011802,-0.002767,0.999999,0.000722,-0.000344,-0.001001,0.697604,-0.075183,-0.711509,0.038092
49877,NaN,9.972621,-1.288212,-0.257392,0.029124,0.305711,0.241395,0.103323,-0.105226,-0.172758,-0.702881,0.045654,-0.176270,0.099716,-0.012967,-0.002528,0.999999,0.000517,-0.000526,-0.000864,0.697302,-0.074189,-0.711920,0.037898
49878,NaN,9.732599,-1.276102,-0.371323,0.140234,0.261510,0.005751,0.094530,-0.075841,-0.138300,-0.703369,0.052002,-0.161377,0.097319,-0.012827,-0.003682,1.000000,0.000473,-0.000379,-0.000691,0.697126,-0.073431,-0.712172,0.037866
49879,NaN,9.583383,-1.196924,-0.295448,0.063834,0.307911,-0.155449,0.076914,-0.085488,-0.120042,-0.707275,0.047607,-0.172119,0.095828,-0.012026,-0.002918,1.000000,0.000385,-0.000427,-0.000600,0.696873,-0.072720,-0.712499,0.037754
49880,NaN,9.887598,-1.294898,-0.435450,0.185283,0.244117,0.164137,0.057133,-0.103184,-0.097416,-0.709473,0.045654,-0.159180,0.098872,-0.012996,-0.004307,1.000000,0.000286,-0.000516,-0.000487,0.696575,-0.072220,-0.712843,0.037729
49881,NaN,9.770586,-1.251469,-0.462454,0.208816,0.260031,0.042928,0.053042,-0.063425,-0.067165,-0.705078,0.043457,-0.165527,0.097703,-0.012546,-0.004597,1.000000,0.000265,-0.000317,-0.000336,0.696380,-0.071785,-0.713077,0.037708
49882,NaN,9.783537,-1.297047,-0.483398,0.222258,0.212710,0.063494,0.054744,-0.063612,-0.045832,-0.702881,0.041260,-0.156982,0.097834,-0.012992,-0.004806,1.000000,0.000274,-0.000318,-0.000229,0.696206,-0.071474,-0.713273,0.037828
49883,NaN,9.735369,-1.437311,-0.517872,0.246023,0.062215,0.038560,0.047275,-0.044589,-0.026731,-0.705322,0.047607,-0.167725,0.097353,-0.014385,-0.005160,1.000000,0.000236,-0.000223,-0.000134,0.696069,-0.071207,-0.713428,0.037920
49884,NaN,9.736173,-1.439275,-0.624444,0.349813,0.055475,0.042721,0.055273,-0.033404,-0.014414,-0.703125,0.045654,-0.161377,0.097362,-0.014398,-0.006232,1.000000,0.000276,-0.000167,-0.000072,0.695990,-0.071006,-0.713514,0.038133
49885,NaN,9.733006,-1.291049,-0.614553,0.345122,0.201625,0.016663,0.043323,-0.022277,0.003359,-0.703125,0.045654,-0.165527,0.097331,-0.012908,-0.006137,1.000000,0.000217,-0.000111,0.000017,0.695925,-0.070864,-0.713582,0.038308
49886,NaN,9.809075,-1.397173,-0.594016,0.317273,0.112132,0.107477,0.035811,-0.010215,0.017580,-0.705322,0.047607,-0.161377,0.098092,-0.013962,-0.005938,1.000000,0.000179,-0.000051,0.000088,0.695906,-0.070844,-0.713589,0.038548
49887,NaN,9.793388,-1.370574,-0.508275,0.233904,0.142247,0.085409,0.024924,0.012549,0.030639,-0.705078,0.041260,-0.165527,0.097936,-0.013690,-0.005091,1.000000,0.000125,0.000063,0.000153,0.695954,-0.070870,-0.713530,0.038739
49888,NaN,9.821677,-1.420990,-0.365662,0.091306,0.107692,0.116982,0.023147,0.031305,0.040826,-0.705078,0.043457,-0.163330,0.098219,-0.014189,-0.003674,1.000000,0.000116,0.000157,0.000204,0.696068,-0.070980,-0.713394,0.038993
49889,NaN,9.762335,-1.492434,-0.342583,0.070037,0.033144,0.068704,0.001373,0.040692,0.046227,-0.700684,0.041260,-0.167725,0.097626,-0.014902,-0.003446,1.000000,0.000007,0.000203,0.000231,0.696205,-0.071149,-0.713235,0.039146
49890,NaN,9.732498,-1.615654,-0.316666,0.043663,-0.086989,0.057605,-0.015845,0.052181,0.039633,-0.705322,0.047607,-0.159180,0.097327,-0.016138,-0.003191,1.000000,-0.000079,0.000261,0.000198,0.696377,-0.071391,-0.713037,0.039245
49891,NaN,9.744604,-1.669903,-0.326302,0.056293,-0.135898,0.078254,-0.019793,0.069922,0.030354,-0.700928,0.045654,-0.167725,0.097447,-0.016685,-0.003295,1.000000,-0.000099,0.000350,0.000152,0.696614,-0.071583,-0.712786,0.039256
49892,NaN,9.669702,-1.743228,-0.455074,0.190453,-0.222745,0.019056,-0.016094,0.089567,0.016658,-0.705322,0.049805,-0.161377,0.096696,-0.017425,-0.004593,1.000000,-0.000080,0.000448,0.000083,0.696923,-0.071752,-0.712467,0.039261
49893,NaN,9.626599,-1.840249,-0.511847,0.252563,-0.327386,-0.007131,0.000269,0.103821,0.000419,-0.704834,0.039062,-0.165527,0.096263,-0.018402,-0.005168,1.000000,0.000001,0.000519,0.000002,0.697293,-0.071774,-0.712104,0.039227
49894,NaN,9.522625,-1.855835,-0.570635,0.323002,-0.362152,-0.106265,0.026637,0.116344,-0.022536,-0.707520,0.047607,-0.161377,0.095221,-0.018568,-0.005764,1.000000,0.000133,0.000582,-0.000113,0.697714,-0.071664,-0.711702,0.039240
49895,NaN,9.558952,-1.827142,-0.421190,0.186193,-0.324895,-0.078768,0.049494,0.116209,-0.038018,-0.702881,0.039062,-0.169678,0.095584,-0.018289,-0.004272,1.000000,0.000247,0.000581,-0.000190,0.698153,-0.071379,-0.711299,0.039243
49896,NaN,9.685671,-1.756310,-0.253813,0.032841,-0.231363,0.031430,0.059405,0.129620,-0.049958,-0.703125,0.045654,-0.163330,0.096851,-0.017587,-0.002606,1.000000,0.000297,0.000648,-0.000250,0.698633,-0.071065,-0.710858,0.039277
49897,NaN,9.628515,-1.787830,-0.083708,-0.124012,-0.270744,-0.023768,0.063885,0.137519,-0.077423,-0.702881,0.043457,-0.178467,0.096278,-0.017915,-0.000909,1.000000,0.000319,0.000688,-0.000387,0.699160,-0.070595,-0.710392,0.039186
49898,NaN,9.614520,-1.751625,-0.018470,-0.173171,-0.242086,-0.044427,0.068974,0.144180,-0.094597,-0.696533,0.041260,-0.167725,0.096137,-0.017562,-0.000260,1.000000,0.000345,0.000721,-0.000473,0.699704,-0.070094,-0.709911,0.039095
49899,NaN,9.597235,-1.794521,-0.157267,-0.021743,-0.303928,-0.052611,0.058538,0.143545,-0.117496,-0.698730,0.045654,-0.178467,0.095961,-0.018001,-0.001647,1.000000,0.000293,0.000718,-0.000587,0.700257,-0.069501,-0.709437,0.038843
49900,NaN,9.572368,-1.706086,-0.145800,-0.014675,-0.231726,-0.091151,0.060910,0.147993,-0.141159,-0.700439,0.037109,-0.174072,0.095710,-0.017128,-0.001534,0.999999,0.000305,0.000740,-0.000706,0.700821,-0.068866,-0.708957,0.038562
49901,NaN,9.542186,-1.691382,-0.200417,0.055354,-0.239201,-0.122800,0.052415,0.149523,-0.159626,-0.700439,0.032715,-0.180420,0.095407,-0.016989,-0.002080,0.999999,0.000262,0.000748,-0.000798,0.701400,-0.068146,-0.708477,0.038138
49902,NaN,9.450831,-1.736254,-0.098769,-0.033581,-0.309019,-0.208216,0.049190,0.142580,-0.189974,-0.700684,0.041260,-0.178467,0.094491,-0.017452,-0.001059,0.999999,0.000246,0.000713,-0.000950,0.701949,-0.067380,-0.708033,0.037648
49903,NaN,9.496220,-1.845603,-0.130215,0.006263,-0.431454,-0.147536,0.050973,0.136513,-0.210896,-0.700439,0.030518,-0.178223,0.094942,-0.018556,-0.001372,0.999999,0.000255,0.000683,-0.001054,0.702488,-0.066481,-0.707614,0.037043
49904,NaN,9.572700,-1.780278,-0.081259,-0.026740,-0.374487,-0.082756,0.066115,0.144818,-0.238175,-0.698242,0.032715,-0.182617,0.095705,-0.017916,-0.000888,0.999999,0.000331,0.000724,-0.001191,0.703058,-0.065489,-0.707172,0.036447
49905,NaN,9.631248,-1.542398,-0.108684,0.024241,-0.156466,-0.059401,0.074560,0.140678,-0.254397,-0.702393,0.028564,-0.184570,0.096292,-0.015546,-0.001160,0.999999,0.000373,0.000703,-0.001272,0.703625,-0.064354,-0.706746,0.035771
49906,NaN,9.783082,-1.407049,-0.094774,0.029099,-0.025118,0.071436,0.071440,0.138276,-0.267805,-0.702393,0.028320,-0.180420,0.097811,-0.014201,-0.001020,0.999999,0.000357,0.000691,-0.001339,0.704176,-0.063240,-0.706333,0.035093
49907,NaN,9.753483,-1.352260,-0.047965,-0.002064,-0.000146,0.034203,0.078822,0.136553,-0.269492,-0.697998,0.026367,-0.193115,0.097516,-0.013654,-0.000552,0.999999,0.000394,0.000683,-0.001347,0.704729,-0.062035,-0.705922,0.034380
49908,NaN,9.830000,-1.310059,-0.101629,0.066129,0.024384,0.104492,0.085350,0.126758,-0.269425,-0.700195,0.026367,-0.186768,0.098282,-0.013233,-0.001084,0.999999,0.000427,0.000634,-0.001347,0.705241,-0.060861,-0.705544,0.033746
49909,NaN,9.871643,-1.237919,-0.088848,0.068861,0.075081,0.136143,0.094153,0.127368,-0.261911,-0.695557,0.021973,-0.193115,0.098700,-0.012508,-0.000957,0.999999,0.000471,0.000637,-0.001310,0.705762,-0.059627,-0.705158,0.033117
49910,NaN,9.899160,-1.090233,-0.028358,0.026435,0.203109,0.144259,0.103541,0.122257,-0.243388,-0.700195,0.026367,-0.184570,0.098978,-0.011023,-0.000350,0.999999,0.000518,0.000611,-0.001217,0.706255,-0.058476,-0.704783,0.032636
49911,NaN,9.833902,-1.010150,0.048874,-0.035900,0.253003,0.069776,0.100736,0.121175,-0.229750,-0.693359,0.019775,-0.195068,0.098328,-0.010215,0.000424,0.999999,0.000504,0.000606,-0.001149,0.706749,-0.057332,-0.704404,0.032146
49912,NaN,9.850494,-0.959527,0.181638,-0.155018,0.289115,0.080656,0.099782,0.114317,-0.207776,-0.693604,0.024170,-0.193115,0.098496,-0.009698,0.001755,0.999999,0.000499,0.000572,-0.001039,0.707205,-0.056311,-0.704045,0.031773
49913,NaN,9.851474,-0.886380,0.294444,-0.254219,0.345899,0.073647,0.081728,0.105957,-0.181904,-0.693359,0.015625,-0.199463,0.098508,-0.008955,0.002889,0.999999,0.000409,0.000530,-0.000910,0.707630,-0.055400,-0.703708,0.031389
49914,NaN,9.765453,-0.915201,0.251885,-0.203508,0.289040,-0.007581,0.057456,0.093218,-0.159591,-0.697510,0.015625,-0.192871,0.097648,-0.009231,0.002471,1.000000,0.000287,0.000466,-0.000798,0.707996,-0.054687,-0.703412,0.031037
49915,NaN,9.683698,-0.926319,0.137577,-0.082015,0.250021,-0.087373,0.040130,0.078038,-0.125173,-0.697510,0.013428,-0.201416,0.096832,-0.009324,0.001336,1.000000,0.000201,0.000390,-0.000626,0.708301,-0.054118,-0.703163,0.030715
49916,NaN,9.688937,-0.894613,0.074596,-0.011201,0.269725,-0.085997,0.019818,0.062920,-0.098411,-0.693115,0.011230,-0.192871,0.096885,-0.008994,0.000715,1.000000,0.000099,0.000315,-0.000492,0.708542,-0.053743,-0.702960,0.030450
49917,NaN,9.727043,-0.840150,0.079316,-0.008469,0.320438,-0.054371,0.017985,0.048337,-0.062940,-0.686523,0.009277,-0.201416,0.097268,-0.008432,0.000769,1.000000,0.000090,0.000242,-0.000315,0.708726,-0.053467,-0.702803,0.030278
49918,NaN,9.707941,-0.883959,0.067630,0.005440,0.270132,-0.068096,0.007606,0.030558,-0.034201,-0.693115,0.013428,-0.199219,0.097078,-0.008856,0.000661,1.000000,0.000038,0.000153,-0.000171,0.708841,-0.053350,-0.702699,0.030200
49919,NaN,9.753113,-0.981372,0.094293,-0.021522,0.177500,-0.011502,-0.005117,0.018629,-0.009103,-0.692871,0.007080,-0.203613,0.097531,-0.009818,0.000934,1.000000,-0.000026,0.000093,-0.000046,0.708907,-0.053340,-0.702636,0.030146
49920,NaN,9.753100,-0.955635,0.129176,-0.053877,0.205080,-0.014324,-0.025466,0.017433,0.016144,-0.697510,0.013428,-0.195068,0.097532,-0.009548,0.001284,1.000000,-0.000127,0.000087,0.000081,0.708959,-0.053510,-0.702571,0.030130
49921,NaN,9.749801,-1.033044,0.099732,-0.025416,0.129513,-0.008692,-0.017190,0.017361,0.037429,-0.693115,0.013428,-0.203613,0.097500,-0.010312,0.000990,1.000000,-0.000086,0.000087,0.000187,0.709010,-0.053706,-0.702502,0.030198
49922,NaN,9.836131,-1.043375,0.087700,-0.011244,0.133876,0.078103,-0.016657,0.012866,0.051179,-0.693359,0.017822,-0.192871,0.098364,-0.010409,0.000872,1.000000,-0.000083,0.000064,0.000256,0.709044,-0.053964,-0.702441,0.030335
49923,NaN,9.816027,-1.071794,0.106100,-0.029790,0.109926,0.061593,-0.024565,0.007608,0.070120,-0.688721,0.007080,-0.201416,0.098164,-0.010683,0.001059,1.000000,-0.000123,0.000038,0.000351,0.709054,-0.054300,-0.702399,0.030496
49924,NaN,9.828691,-1.102162,0.159637,-0.083899,0.091170,0.078119,-0.024388,-0.003839,0.083687,-0.695312,0.009277,-0.192871,0.098291,-0.010980,0.001600,1.000000,-0.000122,-0.000019,0.000418,0.709023,-0.054694,-0.702390,0.030723
49925,NaN,9.826262,-1.109185,0.193478,-0.118279,0.093925,0.076718,-0.015891,-0.004090,0.093647,-0.697510,0.013428,-0.201416,0.098268,-0.011046,0.001938,1.000000,-0.000079,-0.000020,0.000468,0.708990,-0.055080,-0.702381,0.031001
49926,NaN,9.736608,-1.188666,0.140072,-0.069428,0.012052,-0.003043,-0.020608,-0.017802,0.094891,-0.697754,0.017822,-0.197266,0.097372,-0.011840,0.001411,1.000000,-0.000103,-0.000089,0.000474,0.708910,-0.055496,-0.702416,0.031283
49927,NaN,9.768408,-1.199019,0.174050,-0.105045,0.016912,0.029996,-0.019308,-0.018903,0.107288,-0.693359,0.015625,-0.203613,0.097690,-0.011938,0.001751,1.000000,-0.000097,-0.000095,0.000536,0.708821,-0.055939,-0.702456,0.031602
49928,NaN,9.732421,-1.258768,0.103173,-0.038845,-0.038895,0.001187,-0.031684,-0.030123,0.094564,-0.695312,0.013428,-0.197266,0.097330,-0.012541,0.001048,1.000000,-0.000158,-0.000151,0.000473,0.708696,-0.056390,-0.702536,0.031846
49929,NaN,9.675399,-1.338346,0.083888,-0.025725,-0.116259,-0.045530,-0.028896,-0.026808,0.092431,-0.697510,0.015625,-0.205811,0.096760,-0.013339,0.000854,1.000000,-0.000144,-0.000134,0.000462,0.708579,-0.056814,-0.702609,0.032081
49930,NaN,9.620203,-1.367210,0.096517,-0.042899,-0.142012,-0.096471,-0.020075,-0.037666,0.089501,-0.699951,0.020020,-0.197266,0.096208,-0.013629,0.000985,1.000000,-0.000100,-0.000188,0.000448,0.708431,-0.057206,-0.702714,0.032351
49931,NaN,9.707488,-1.357841,0.077624,-0.026802,-0.113779,-0.011085,-0.021898,-0.045783,0.082754,-0.697754,0.021973,-0.199463,0.097080,-0.013538,0.000800,1.000000,-0.000109,-0.000229,0.000414,0.708251,-0.057568,-0.702855,0.032581
49932,NaN,9.673741,-1.338865,0.070243,-0.023433,-0.091219,-0.046937,-0.016596,-0.047257,0.075707,-0.699951,0.019775,-0.190918,0.096742,-0.013352,0.000726,1.000000,-0.000083,-0.000236,0.000379,0.708072,-0.057899,-0.702997,0.032818
49933,NaN,9.718927,-1.395633,0.121300,-0.080821,-0.132525,0.005457,-0.013295,-0.053267,0.069994,-0.695557,0.021973,-0.197266,0.097194,-0.013922,0.001240,1.000000,-0.000066,-0.000266,0.000350,0.707869,-0.058184,-0.703167,0.033036
49934,NaN,9.738082,-1.353850,0.131811,-0.094507,-0.081124,0.019149,-0.006429,-0.051326,0.063604,-0.697754,0.021973,-0.197266,0.097385,-0.013507,0.001344,1.000000,-0.000032,-0.000257,0.000318,0.707681,-0.058436,-0.703325,0.033268
49935,NaN,9.704680,-1.332979,0.123971,-0.091282,-0.058908,-0.016708,-0.015018,-0.054491,0.056824,-0.695557,0.019775,-0.197266,0.097050,-0.013302,0.001267,1.000000,-0.000075,-0.000272,0.000284,0.707476,-0.058681,-0.703503,0.033434
49936,NaN,9.737995,-1.366447,0.086355,-0.059911,-0.083401,0.020554,-0.005282,-0.059667,0.046738,-0.695801,0.021973,-0.188721,0.097383,-0.013642,0.000893,1.000000,-0.000026,-0.000298,0.000234,0.707262,-0.058869,-0.703693,0.033613
49937,NaN,9.739220,-1.346452,0.079033,-0.057920,-0.059074,0.019135,-0.015503,-0.065055,0.041991,-0.689453,0.026367,-0.195312,0.097395,-0.013444,0.000823,1.000000,-0.000078,-0.000325,0.000210,0.707022,-0.059062,-0.703913,0.033728
49938,NaN,9.736401,-1.400674,0.040100,-0.027283,-0.109961,0.023377,-0.019402,-0.067241,0.038215,-0.697998,0.026367,-0.188721,0.097367,-0.013988,0.000435,1.000000,-0.000097,-0.000336,0.000191,0.706779,-0.059268,-0.704135,0.033830
49939,NaN,9.737737,-1.379728,0.032331,-0.025292,-0.085634,0.021957,-0.010534,-0.065396,0.031032,-0.699951,0.021973,-0.188721,0.097379,-0.013782,0.000356,1.000000,-0.000053,-0.000327,0.000155,0.706541,-0.059405,-0.704358,0.033923
49940,NaN,9.723761,-1.359439,-0.027890,0.029097,-0.066045,0.005417,-0.014817,-0.069888,0.026558,-0.699951,0.019775,-0.190918,0.097240,-0.013581,-0.000244,1.000000,-0.000074,-0.000349,0.000133,0.706292,-0.059554,-0.704591,0.034002
49941,NaN,9.723385,-1.361972,-0.034756,0.029108,-0.066010,0.005417,-0.010444,-0.067787,0.025630,-0.695801,0.021973,-0.188721,0.097236,-0.013607,-0.000314,1.000000,-0.000052,-0.000339,0.000128,0.706046,-0.059671,-0.704824,0.034077
49942,NaN,9.740175,-1.392198,-0.091564,0.078288,-0.092885,0.026157,-0.008348,-0.070264,0.019449,-0.697998,0.024170,-0.186768,0.097403,-0.013913,-0.000881,1.000000,-0.000042,-0.000351,0.000097,0.705798,-0.059772,-0.705060,0.034154
49943,NaN,9.757643,-1.395946,-0.114855,0.094879,-0.093152,0.044075,-0.008664,-0.064490,0.015022,-0.697998,0.024170,-0.195312,0.097578,-0.013952,-0.001116,1.000000,-0.000043,-0.000322,0.000075,0.705566,-0.059846,-0.705284,0.034197
49944,NaN,9.708851,-1.343997,-0.107661,0.083644,-0.045928,-0.011126,0.006482,-0.058259,0.011485,-0.695801,0.024170,-0.188721,0.097090,-0.013434,-0.001049,1.000000,0.000032,-0.000291,0.000057,0.705364,-0.059870,-0.705479,0.034294
49945,NaN,9.744889,-1.323169,-0.113077,0.084404,-0.019482,0.021890,0.004154,-0.057021,0.008383,-0.697998,0.024170,-0.186768,0.097450,-0.013228,-0.001103,1.000000,0.000021,-0.000285,0.000042,0.705163,-0.059876,-0.705676,0.034357
49946,NaN,9.705607,-1.368306,-0.082801,0.047403,-0.067017,-0.011097,0.006597,-0.051360,0.005085,-0.702148,0.024170,-0.182373,0.097057,-0.013681,-0.000804,1.000000,0.000033,-0.000257,0.000025,0.704986,-0.059878,-0.705850,0.034430
49947,NaN,9.776128,-1.349682,-0.086180,0.046933,-0.038449,0.056358,0.004560,-0.045441,0.008050,-0.697998,0.024170,-0.186768,0.097762,-0.013493,-0.000840,1.000000,0.000023,-0.000227,0.000040,0.704826,-0.059884,-0.706006,0.034489
49948,NaN,9.759337,-1.349721,-0.108100,0.064843,-0.040421,0.039838,0.003489,-0.039638,0.001725,-0.697998,0.026367,-0.182373,0.097594,-0.013496,-0.001062,1.000000,0.000017,-0.000198,0.000009,0.704689,-0.059887,-0.706140,0.034536
