// Start Time: Unknown
// Update Rate: 100.0Hz
// Filter Profile: human (46.1)
// Firmware Version: 4.4.0
PacketCounter,SampleTimeFine,Acc_X,Acc_Y,Acc_Z,FreeAcc_X,FreeAcc_Y,FreeAcc_Z,Gyr_X,Gyr_Y,Gyr_Z,Mag_X,Mag_Y,Mag_Z,VelInc_X,VelInc_Y,VelInc_Z,OriInc_q0,OriInc_q1,OriInc_q2,OriInc_q3,Quat_q0,Quat_q1,Quat_q2,Quat_q3
05781,NaN,9.448983,-2.160677,0.857284,0.000000,-0.000000,-0.081976,-0.061838,0.044016,0.019465,-1.119385,0.479980,0.062744,0.094494,-0.021595,0.008559,1.000000,-0.000309,0.000220,0.000097,0.391987,-0.637607,-0.222439,-0.624759
05782,NaN,9.356151,-2.093784,0.784045,-0.002420,-0.106186,-0.193699,-0.059694,0.046516,0.019995,-1.117188,0.475830,0.052490,0.093565,-0.020926,0.007825,1.000000,-0.000298,0.000233,0.000100,0.392539,-0.637234,-0.220756,-0.625390
05783,NaN,9.347666,-2.240149,0.790489,-0.112641,-0.016290,-0.168568,-0.062646,0.048696,0.016193,-1.119629,0.484131,0.060547,0.093480,-0.022391,0.007889,1.000000,-0.000313,0.000243,0.000081,0.392443,-0.637223,-0.220413,-0.625583
05784,NaN,9.404128,-2.344198,0.819883,-0.168037,0.052270,-0.087765,-0.047879,0.051551,0.024263,-1.117432,0.482178,0.048340,0.094046,-0.023429,0.008180,1.000000,-0.000239,0.000258,0.000121,0.392425,-0.637182,-0.220084,-0.625751
05785,NaN,9.415969,-2.256740,0.827554,-0.094133,-0.000904,-0.095212,-0.033565,0.041135,0.029884,-1.119629,0.488525,0.064453,0.094165,-0.022552,0.008260,1.000000,-0.000168,0.000206,0.000149,0.392457,-0.637152,-0.219803,-0.625861
05786,NaN,9.359668,-2.096731,0.764347,-0.016625,-0.137587,-0.191633,-0.020312,0.038831,0.024855,-1.119385,0.479980,0.052490,0.093601,-0.020955,0.007627,1.000000,-0.000102,0.000194,0.000124,0.392514,-0.637099,-0.219582,-0.625956
05787,NaN,9.286832,-2.148848,0.777625,-0.057136,-0.084920,-0.249371,-0.001155,0.032177,0.027482,-1.119629,0.488525,0.060547,0.092873,-0.021476,0.007761,1.000000,-0.000006,0.000161,0.000137,0.392631,-0.637031,-0.219428,-0.626006
05788,NaN,9.286347,-2.247720,0.723136,-0.166874,-0.071693,-0.232581,0.011579,0.018065,0.028586,-1.117432,0.482178,0.050293,0.092867,-0.022464,0.007222,1.000000,0.000058,0.000090,0.000143,0.392776,-0.636988,-0.219338,-0.625991
05789,NaN,9.284917,-2.270740,0.738253,-0.174216,-0.048998,-0.227375,0.037490,0.005266,0.032891,-1.119629,0.488525,0.060547,0.092853,-0.022694,0.007376,1.000000,0.000187,0.000026,0.000164,0.393004,-0.636934,-0.219341,-0.625902
05790,NaN,9.231305,-2.246206,0.733951,-0.162178,-0.058026,-0.285282,0.061775,-0.011906,0.041671,-1.115234,0.479980,0.054443,0.092317,-0.022445,0.007338,1.000000,0.000309,-0.000060,0.000208,0.393316,-0.636908,-0.219424,-0.625703
05791,NaN,9.176390,-2.262604,0.755516,-0.165105,-0.021813,-0.332783,0.090432,-0.032067,0.043977,-1.119629,0.484131,0.058350,0.091768,-0.022609,0.007560,1.000000,0.000452,-0.000160,0.000220,0.393707,-0.636878,-0.219630,-0.625415
05792,NaN,9.168770,-2.369832,0.730727,-0.260132,0.022896,-0.318046,0.123602,-0.046365,0.053958,-1.117432,0.484131,0.052246,0.091692,-0.023678,0.007314,1.000000,0.000618,-0.000232,0.000270,0.394217,-0.636860,-0.219932,-0.625006
05793,NaN,9.225449,-2.455642,0.741711,-0.308202,0.068796,-0.242447,0.171924,-0.068527,0.062953,-1.124023,0.488525,0.054199,0.092260,-0.024534,0.007428,1.000000,0.000860,-0.000343,0.000315,0.394886,-0.636804,-0.220403,-0.624474
05794,NaN,9.340974,-2.486468,0.794070,-0.278822,0.102181,-0.118427,0.210806,-0.087944,0.074237,-1.117432,0.484131,0.058594,0.093415,-0.024838,0.007956,0.999999,0.001054,-0.000440,0.000371,0.395699,-0.636779,-0.220982,-0.623780
05795,NaN,9.427825,-2.467425,0.833052,-0.222736,0.101149,-0.034845,0.247180,-0.088208,0.092453,-1.124023,0.488525,0.056396,0.094286,-0.024641,0.008342,0.999999,0.001236,-0.000441,0.000462,0.396676,-0.636666,-0.221633,-0.623043
05796,NaN,9.308270,-2.392895,0.859067,-0.154497,0.100040,-0.165204,0.246342,-0.093992,0.117891,-1.115479,0.490479,0.052246,0.093093,-0.023885,0.008605,0.999999,0.001232,-0.000470,0.000589,0.397743,-0.636647,-0.222178,-0.622188
05797,NaN,9.267615,-2.264279,0.839747,-0.061518,0.014992,-0.235798,0.239902,-0.104697,0.135146,-1.119873,0.492676,0.056396,0.092687,-0.022590,0.008419,0.999999,0.001200,-0.000523,0.000676,0.398811,-0.636645,-0.222702,-0.621319
05798,NaN,9.166150,-2.233116,0.805008,-0.058025,-0.012241,-0.344339,0.221607,-0.113921,0.147047,-1.113525,0.490479,0.056396,0.091673,-0.022273,0.008078,0.999999,0.001108,-0.000570,0.000735,0.399872,-0.636769,-0.223107,-0.620363
05799,NaN,9.049329,-2.333510,0.793805,-0.144778,0.059303,-0.434988,0.217092,-0.133808,0.160156,-1.115723,0.499023,0.058350,0.090507,-0.023271,0.007973,0.999999,0.001085,-0.000669,0.000801,0.400910,-0.636928,-0.223538,-0.619374
05800,NaN,9.051111,-2.400333,0.794619,-0.179264,0.095768,-0.417247,0.221226,-0.147435,0.167070,-1.111328,0.494873,0.058350,0.090525,-0.023937,0.007986,0.999999,0.001106,-0.000737,0.000835,0.401997,-0.637182,-0.223939,-0.618263
05801,NaN,9.058437,-2.423933,0.858578,-0.142058,0.156066,-0.398691,0.231843,-0.147114,0.174332,-1.120361,0.505371,0.064209,0.090599,-0.024170,0.008624,0.999999,0.001159,-0.000736,0.000872,0.403110,-0.637365,-0.224396,-0.617183
05802,NaN,9.022843,-2.391135,0.745917,-0.171022,0.052237,-0.450337,0.238694,-0.147088,0.184512,-1.113770,0.503418,0.053955,0.090245,-0.023837,0.007497,0.999999,0.001193,-0.000735,0.000923,0.404320,-0.637604,-0.224775,-0.616006
05803,NaN,8.994958,-2.428911,0.747295,-0.186989,0.077359,-0.467831,0.266629,-0.152151,0.191494,-1.116211,0.509766,0.062256,0.089967,-0.024213,0.007509,0.999998,0.001333,-0.000761,0.000957,0.405588,-0.637747,-0.225293,-0.614833
05804,NaN,9.069133,-2.622497,0.705614,-0.333547,0.133206,-0.352480,0.311654,-0.158733,0.217536,-1.111816,0.505371,0.058105,0.090714,-0.026137,0.007087,0.999998,0.001558,-0.000794,0.001088,0.407127,-0.637916,-0.225796,-0.613455
05805,NaN,9.139068,-2.878818,0.708089,-0.504709,0.257886,-0.221532,0.357606,-0.161674,0.254737,-1.116211,0.513916,0.062012,0.091422,-0.028684,0.007103,0.999997,0.001788,-0.000808,0.001274,0.408866,-0.637970,-0.226409,-0.612015
05806,NaN,9.211965,-2.981483,0.724014,-0.540254,0.300049,-0.122910,0.389156,-0.154478,0.306357,-1.107666,0.511719,0.055908,0.092160,-0.029688,0.007253,0.999997,0.001946,-0.000772,0.001532,0.410956,-0.638084,-0.226817,-0.610343
05807,NaN,9.289782,-2.911199,0.738040,-0.440426,0.239580,-0.062386,0.421391,-0.139762,0.352624,-1.114502,0.522461,0.063965,0.092944,-0.028964,0.007384,0.999996,0.002107,-0.000699,0.001763,0.413216,-0.638042,-0.227264,-0.608692
05808,NaN,9.287475,-2.765336,0.732395,-0.296131,0.133604,-0.100065,0.446311,-0.144872,0.397773,-1.108154,0.522461,0.057861,0.092924,-0.027485,0.007330,0.999995,0.002232,-0.000724,0.001989,0.415813,-0.638126,-0.227478,-0.606752
05809,NaN,9.320792,-2.630129,0.678675,-0.184263,-0.012770,-0.105932,0.464449,-0.132281,0.441147,-1.110596,0.530762,0.063721,0.093261,-0.026111,0.006788,0.999995,0.002322,-0.000661,0.002206,0.418481,-0.638060,-0.227754,-0.604881
05810,NaN,9.296648,-2.568379,0.692911,-0.091506,-0.056996,-0.143532,0.475020,-0.110712,0.490847,-1.106445,0.535156,0.057617,0.093025,-0.025472,0.006920,0.999994,0.002375,-0.000554,0.002454,0.421500,-0.638091,-0.227666,-0.602782
05811,NaN,9.098762,-2.531470,0.707407,-0.051097,-0.050588,-0.342160,0.469614,-0.102028,0.543270,-1.111084,0.550049,0.059326,0.091052,-0.025084,0.007061,0.999993,0.002348,-0.000510,0.002716,0.424517,-0.638023,-0.227562,-0.600773
05812,NaN,8.920602,-2.555854,0.647124,-0.090501,-0.081058,-0.511435,0.463269,-0.092138,0.595362,-1.098633,0.554199,0.051270,0.089279,-0.025308,0.006454,0.999993,0.002316,-0.000461,0.002977,0.427840,-0.638149,-0.227035,-0.598476
05813,NaN,8.880234,-2.632734,0.536543,-0.179657,-0.156241,-0.537949,0.457206,-0.089015,0.647229,-1.103271,0.564941,0.057129,0.088885,-0.026052,0.005345,0.999992,0.002286,-0.000445,0.003236,0.431131,-0.638167,-0.226526,-0.596284
05814,NaN,8.831170,-2.719177,0.461184,-0.247628,-0.201910,-0.566404,0.464959,-0.069324,0.699777,-1.094727,0.566895,0.051025,0.088405,-0.026893,0.004580,0.999991,0.002325,-0.000347,0.003499,0.434767,-0.638337,-0.225606,-0.593806
05815,NaN,8.813312,-2.766049,0.328646,-0.313453,-0.324918,-0.580716,0.486129,-0.070306,0.748446,-1.091064,0.579590,0.062988,0.088235,-0.027338,0.003251,0.999990,0.002431,-0.000352,0.003742,0.438457,-0.638327,-0.224811,-0.591400
05816,NaN,8.975714,-2.775467,0.271718,-0.259009,-0.450619,-0.428131,0.508332,-0.071349,0.790078,-1.088867,0.581787,0.046631,0.089865,-0.027407,0.002679,0.999989,0.002542,-0.000357,0.003950,0.442467,-0.638513,-0.223798,-0.588590
05817,NaN,9.225673,-2.921489,0.181698,-0.315618,-0.558574,-0.155100,0.546291,-0.088955,0.836872,-1.083008,0.596680,0.052490,0.092377,-0.028833,0.001779,0.999987,0.002731,-0.000445,0.004184,0.446569,-0.638495,-0.222928,-0.585835
05818,NaN,9.539497,-3.004897,0.112472,-0.279612,-0.700774,0.160985,0.574450,-0.094382,0.881950,-1.079102,0.605225,0.046387,0.095526,-0.029631,0.001084,0.999986,0.002872,-0.000472,0.004410,0.450955,-0.638732,-0.221866,-0.582612
05819,NaN,9.794914,-3.017013,0.059076,-0.190023,-0.858489,0.398695,0.616581,-0.087124,0.930460,-1.081787,0.622070,0.046143,0.098088,-0.029716,0.000541,0.999984,0.003083,-0.000436,0.004652,0.455530,-0.638618,-0.220883,-0.579543
05820,NaN,9.792015,-2.949788,0.036251,-0.060566,-0.967497,0.367960,0.662130,-0.079901,0.972538,-1.069092,0.619873,0.037842,0.098062,-0.029022,0.000305,0.999983,0.003311,-0.000400,0.004863,0.460413,-0.638812,-0.219736,-0.575895
05821,NaN,9.549869,-2.849995,0.094450,0.071176,-0.969276,0.106283,0.681650,-0.068798,1.014214,-1.072021,0.643311,0.039551,0.095641,-0.028018,0.000881,0.999981,0.003408,-0.000344,0.005071,0.465426,-0.638544,-0.218614,-0.572580
05822,NaN,9.320738,-2.796825,0.097500,0.149185,-0.990159,-0.132587,0.694625,-0.077945,1.050479,-1.055176,0.645508,0.031494,0.093352,-0.027481,0.000915,0.999980,0.003473,-0.000390,0.005252,0.470485,-0.638762,-0.217404,-0.568650
05823,NaN,9.149587,-2.798653,0.194434,0.234636,-0.925962,-0.290510,0.686480,-0.080031,1.082041,-1.053711,0.664551,0.035156,0.091645,-0.027498,0.001886,0.999979,0.003432,-0.000400,0.005410,0.475657,-0.638538,-0.216084,-0.565091
05824,NaN,8.930930,-2.833154,0.279651,0.282341,-0.833176,-0.480394,0.661069,-0.079704,1.114847,-1.047363,0.668701,0.031006,0.089464,-0.027842,0.002740,0.999979,0.003305,-0.000399,0.005574,0.480624,-0.638878,-0.214689,-0.561021
05825,NaN,8.813727,-2.934156,0.345421,0.284409,-0.763220,-0.552771,0.604485,-0.070991,1.150404,-1.035400,0.689941,0.026611,0.088303,-0.028844,0.003398,0.999979,0.003022,-0.000355,0.005752,0.485694,-0.638847,-0.212876,-0.557368
05826,NaN,8.646213,-2.943646,0.281190,0.290534,-0.818737,-0.716237,0.506577,-0.068835,1.190049,-1.033447,0.694092,0.026611,0.086634,-0.028928,0.002768,0.999979,0.002533,-0.000344,0.005950,0.490261,-0.639617,-0.210858,-0.553238
05827,NaN,8.475735,-2.937121,0.231864,0.309858,-0.877979,-0.887965,0.442302,-0.071502,1.229071,-1.025879,0.717529,0.030273,0.084935,-0.028855,0.002285,0.999979,0.002211,-0.000358,0.006145,0.494988,-0.640014,-0.208323,-0.549518
05828,NaN,8.397955,-3.090278,0.176800,0.237111,-0.883548,-0.909386,0.391815,-0.075559,1.271250,-1.011230,0.723877,0.013916,0.084173,-0.030372,0.001740,0.999978,0.001959,-0.000378,0.006356,0.499264,-0.641260,-0.205818,-0.545124
05829,NaN,8.393718,-3.355937,0.204076,0.132138,-0.809229,-0.807967,0.364844,-0.084232,1.310446,-1.003174,0.738525,0.025879,0.084154,-0.033012,0.002016,0.999977,0.001824,-0.000421,0.006552,0.503905,-0.641914,-0.202818,-0.541194
05830,NaN,8.401697,-3.624064,0.129896,-0.010032,-0.813028,-0.698037,0.355151,-0.088946,1.344429,-0.999268,0.744873,0.021729,0.084257,-0.035677,0.001273,0.999976,0.001776,-0.000445,0.006722,0.508087,-0.643213,-0.200018,-0.536766
05831,NaN,8.389154,-3.947499,0.106980,-0.179559,-0.764462,-0.573958,0.361174,-0.088697,1.364463,-0.993652,0.770508,0.023438,0.084158,-0.038903,0.001036,0.999975,0.001806,-0.000443,0.006822,0.512807,-0.643884,-0.196821,-0.532638
05832,NaN,8.275011,-4.143236,0.120836,-0.253316,-0.687467,-0.586709,0.379100,-0.101585,1.386309,-0.977051,0.776855,0.015137,0.083034,-0.040860,0.001173,0.999974,0.001895,-0.000508,0.006931,0.517017,-0.645361,-0.194090,-0.527760
05833,NaN,8.276006,-4.350628,0.157302,-0.291585,-0.643139,-0.488260,0.398109,-0.121911,1.384933,-0.973633,0.800049,0.018799,0.083058,-0.042935,0.001538,0.999974,0.001991,-0.000610,0.006925,0.521821,-0.645984,-0.190984,-0.523385
05834,NaN,8.278586,-4.559148,0.300859,-0.270266,-0.485015,-0.373320,0.433479,-0.138151,1.372192,-0.954590,0.800049,0.019043,0.083094,-0.045029,0.002968,0.999974,0.002167,-0.000691,0.006861,0.525981,-0.647348,-0.188409,-0.518446
05835,NaN,8.347437,-4.880351,0.391028,-0.345034,-0.375409,-0.148886,0.467677,-0.152703,1.361148,-0.948730,0.819092,0.022705,0.083801,-0.048243,0.003861,0.999974,0.002338,-0.000764,0.006806,0.530862,-0.647783,-0.185614,-0.513917
05836,NaN,8.321555,-5.224636,0.399407,-0.507895,-0.287542,0.003755,0.517522,-0.159792,1.358568,-0.940674,0.825439,0.008301,0.083565,-0.051690,0.003927,0.999973,0.002588,-0.000799,0.006793,0.535361,-0.648669,-0.183383,-0.508908
05837,NaN,8.135544,-5.701397,0.306033,-0.894334,-0.219526,0.083632,0.666668,-0.173354,1.346459,-0.926270,0.842285,0.014160,0.081734,-0.056474,0.002942,0.999971,0.003333,-0.000867,0.006732,0.540770,-0.648546,-0.181174,-0.504114
05838,NaN,8.198852,-6.144340,0.619260,-0.960058,0.123129,0.405879,0.786195,-0.200739,1.359307,-0.913818,0.850830,0.008057,0.082398,-0.060908,0.006035,0.999969,0.003931,-0.001004,0.006796,0.546083,-0.648706,-0.179635,-0.498704
05839,NaN,8.114762,-5.968704,0.672260,-0.733177,0.045550,0.256350,0.837951,-0.176893,1.376054,-0.906250,0.872070,0.005615,0.081550,-0.059155,0.006546,0.999967,0.004190,-0.000884,0.006880,0.552050,-0.648078,-0.177741,-0.493602
05840,NaN,7.589644,-5.505077,0.717289,-0.485353,0.023020,-0.421968,0.880323,-0.187879,1.378919,-0.895752,0.874268,-0.006592,0.076267,-0.054557,0.007004,0.999966,0.004402,-0.000939,0.006895,0.557726,-0.647850,-0.176119,-0.488073
05841,NaN,7.267939,-5.261582,0.418949,-0.481292,-0.301571,-0.848377,0.899946,-0.230113,1.369492,-0.883545,0.895264,-0.006836,0.073033,-0.052135,0.004038,0.999966,0.004500,-0.001151,0.006847,0.563756,-0.647090,-0.174518,-0.482697
05842,NaN,7.132038,-5.015532,0.246644,-0.328771,-0.552171,-1.113942,0.817330,-0.260571,1.379589,-0.868896,0.899658,-0.015137,0.071661,-0.049672,0.002356,0.999967,0.004087,-0.001303,0.006898,0.569147,-0.647094,-0.172885,-0.476919
05843,NaN,6.872833,-4.684763,0.050622,-0.185323,-0.807132,-1.536305,0.703979,-0.310545,1.375218,-0.852783,0.922852,-0.003174,0.069048,-0.046375,0.000449,0.999969,0.003520,-0.001553,0.006876,0.574413,-0.647004,-0.170997,-0.471376
05844,NaN,6.713727,-4.782569,0.151359,-0.193358,-0.682695,-1.598949,0.637545,-0.347851,1.371994,-0.844238,0.920654,-0.015381,0.067461,-0.047368,0.001479,0.999970,0.003188,-0.001739,0.006860,0.579041,-0.647650,-0.169152,-0.465455
05845,NaN,6.627850,-5.035583,0.311701,-0.262561,-0.490169,-1.501707,0.520195,-0.388262,1.381958,-0.832275,0.943848,-0.007568,0.066618,-0.049904,0.003116,0.999971,0.002601,-0.001941,0.006910,0.583591,-0.648203,-0.167011,-0.459742
05846,NaN,6.505523,-5.244416,0.421909,-0.330075,-0.328743,-1.458907,0.436956,-0.432106,1.383301,-0.823975,0.946045,-0.007568,0.065407,-0.052002,0.004246,0.999971,0.002185,-0.002161,0.006916,0.587450,-0.649566,-0.164899,-0.453624
05847,NaN,6.344677,-5.286290,0.413957,-0.344563,-0.312165,-1.557148,0.396788,-0.476833,1.383173,-0.809814,0.962891,-0.005615,0.063800,-0.052431,0.004187,0.999971,0.001984,-0.002384,0.006916,0.591461,-0.650609,-0.162707,-0.447670
05848,NaN,6.152905,-4.954322,0.347666,-0.120200,-0.416449,-1.917397,0.371081,-0.515755,1.352708,-0.797119,0.967041,-0.003662,0.061853,-0.049132,0.003544,0.999972,0.001855,-0.002579,0.006763,0.594911,-0.652251,-0.160742,-0.441374
05849,NaN,6.037685,-4.682573,0.381961,0.127338,-0.438810,-2.176168,0.372101,-0.565296,1.306157,-0.787109,0.986084,0.002197,0.060670,-0.046437,0.003904,0.999973,0.001860,-0.002826,0.006531,0.598532,-0.653428,-0.158985,-0.435332
05850,NaN,6.097383,-4.705490,0.388589,0.246776,-0.457258,-2.118537,0.388994,-0.580593,1.261795,-0.778809,0.986084,0.002197,0.061258,-0.046677,0.003972,0.999974,0.001945,-0.002903,0.006309,0.601723,-0.654998,-0.157531,-0.429059
05851,NaN,5.997989,-4.888936,0.402858,0.153172,-0.391580,-2.075610,0.435117,-0.581838,1.204022,-0.766602,1.000977,0.012207,0.060261,-0.048536,0.004098,0.999975,0.002176,-0.002909,0.006020,0.605253,-0.655874,-0.156272,-0.423176
05852,NaN,6.017099,-5.190581,0.383659,0.031490,-0.362261,-1.865238,0.525474,-0.586202,1.137213,-0.760498,1.011475,0.005859,0.060454,-0.051573,0.003878,0.999976,0.002627,-0.002931,0.005686,0.608558,-0.656854,-0.155530,-0.417146
05853,NaN,6.064812,-5.623553,0.015045,-0.298432,-0.659916,-1.573676,0.767388,-0.559885,1.069991,-0.746094,1.024170,0.011963,0.060947,-0.055910,0.000106,0.999974,0.003837,-0.002799,0.005350,0.612854,-0.656507,-0.155320,-0.411442
05854,NaN,6.144852,-5.969266,0.146131,-0.369928,-0.528960,-1.268952,1.003226,-0.554885,0.999479,-0.741699,1.020020,0.007812,0.061742,-0.059392,0.001334,0.999971,0.005016,-0.002774,0.004997,0.617402,-0.655788,-0.155900,-0.405526
05855,NaN,6.128059,-5.544393,0.108203,-0.028838,-0.694834,-1.577342,1.231074,-0.559153,0.929315,-0.725342,1.036865,0.007812,0.061535,-0.055164,0.000914,0.999966,0.006155,-0.002796,0.004647,0.622861,-0.653829,-0.157074,-0.399849
05856,NaN,6.057208,-4.918863,0.501320,0.552112,-0.458776,-2.026765,1.389853,-0.565401,0.877828,-0.720947,1.032715,0.001709,0.060773,-0.048956,0.004844,0.999962,0.006949,-0.002827,0.004389,0.628338,-0.651761,-0.158833,-0.393918
05857,NaN,6.252848,-4.610915,0.811383,1.034094,-0.320444,-2.076755,1.472353,-0.567307,0.829036,-0.713135,1.047607,-0.004639,0.062696,-0.045908,0.007953,0.999960,0.007362,-0.002836,0.004145,0.634288,-0.648890,-0.160812,-0.388279
05858,NaN,6.672075,-4.772721,1.219600,1.353980,-0.067553,-1.630711,1.470951,-0.494941,0.812498,-0.708984,1.049561,-0.019043,0.066884,-0.047545,0.012011,0.999962,0.007355,-0.002475,0.004062,0.639860,-0.646235,-0.162738,-0.382722
05859,NaN,6.750045,-4.949165,1.370858,1.359503,0.025501,-1.440869,1.428676,-0.412611,0.791320,-0.702881,1.060303,-0.019287,0.067668,-0.049321,0.013495,0.999965,0.007143,-0.002063,0.003957,0.645627,-0.643079,-0.164234,-0.377679
05860,NaN,6.810113,-5.236642,1.666371,1.310455,0.275224,-1.164946,1.391865,-0.335638,0.762330,-0.698486,1.053955,-0.029297,0.068273,-0.052221,0.016414,0.999967,0.006959,-0.001678,0.003812,0.650903,-0.640165,-0.165700,-0.372904
05861,NaN,7.008426,-5.429712,1.663220,1.338759,0.176141,-0.894033,1.279414,-0.266857,0.756787,-0.688232,1.066650,-0.029541,0.070267,-0.054137,0.016379,0.999971,0.006397,-0.001334,0.003784,0.656165,-0.637112,-0.166532,-0.368514
05862,NaN,6.991724,-5.553947,0.847603,1.069473,-0.650373,-0.931154,1.345063,-0.168686,0.717472,-0.686279,1.066650,-0.039795,0.070109,-0.055344,0.008162,0.999971,0.006725,-0.000843,0.003587,0.661296,-0.633846,-0.167534,-0.364499
05863,NaN,6.957955,-6.126356,0.924852,0.698871,-0.613388,-0.542564,1.568937,-0.088420,0.632251,-0.676025,1.074951,-0.045898,0.069769,-0.061113,0.008800,0.999964,0.007845,-0.000442,0.003161,0.667319,-0.629331,-0.168681,-0.360799
05864,NaN,7.129417,-6.326164,1.243757,0.766844,-0.434286,-0.240943,1.676900,-0.124524,0.569237,-0.679688,1.062256,-0.055908,0.071466,-0.063160,0.011952,0.999961,0.008384,-0.000623,0.002846,0.673159,-0.624665,-0.170632,-0.357122
05865,NaN,7.363483,-6.345532,1.807345,1.047371,-0.058250,0.018479,1.738220,-0.127639,0.543425,-0.667725,1.079346,-0.058105,0.073796,-0.063409,0.017569,0.999958,0.008691,-0.000638,0.002717,0.679416,-0.619484,-0.172466,-0.353395
05866,NaN,7.371776,-6.161770,2.444343,1.308838,0.456631,0.003774,1.698869,-0.135533,0.536009,-0.671387,1.068848,-0.074463,0.073867,-0.061625,0.023970,0.999960,0.008494,-0.000678,0.002680,0.685156,-0.614612,-0.174603,-0.349754
05867,NaN,7.165737,-6.160104,2.882151,1.249273,0.840042,-0.048750,1.577314,-0.187820,0.518557,-0.665527,1.079346,-0.080811,0.071790,-0.061640,0.028403,0.999965,0.007886,-0.000939,0.002593,0.690717,-0.609972,-0.176410,-0.346010
05868,NaN,7.983242,-6.168130,3.350936,1.892454,1.001694,0.599875,1.336815,-0.110718,0.526621,-0.658936,1.070801,-0.088623,0.079976,-0.061693,0.033141,0.999974,0.006684,-0.000554,0.002633,0.695309,-0.606131,-0.177861,-0.342806
05869,NaN,7.668524,-6.097640,3.366522,1.733958,1.028192,0.348846,1.068393,-0.047891,0.547549,-0.648438,1.077148,-0.082764,0.076844,-0.060945,0.033358,0.999982,0.005342,-0.000239,0.002738,0.699426,-0.602979,-0.178201,-0.339800
05870,NaN,7.709587,-6.231968,3.574581,1.713352,1.151772,0.521249,0.920928,0.009871,0.551047,-0.650635,1.079346,-0.093018,0.077269,-0.062271,0.035455,0.999986,0.004605,0.000049,0.002755,0.702906,-0.600246,-0.178477,-0.337304
05871,NaN,7.808946,-6.703409,3.776711,1.515657,1.232306,0.974466,0.764775,0.066790,0.546497,-0.642334,1.085693,-0.082764,0.078285,-0.066964,0.037485,0.999989,0.003824,0.000334,0.002732,0.706170,-0.597931,-0.177895,-0.334897
05872,NaN,7.630859,-7.063072,3.455821,1.114418,0.886828,1.051514,0.653524,0.128676,0.541935,-0.640137,1.077148,-0.086670,0.076522,-0.070536,0.034278,0.999991,0.003268,0.000643,0.002710,0.708961,-0.595803,-0.177346,-0.333079
05873,NaN,7.285919,-7.166805,3.072341,0.777052,0.539223,0.817083,0.564271,0.150968,0.523997,-0.636230,1.087646,-0.080811,0.073070,-0.071563,0.030466,0.999992,0.002821,0.000755,0.002620,0.711638,-0.594016,-0.176194,-0.331167
05874,NaN,6.908857,-6.761957,2.715652,0.754943,0.270701,0.196687,0.523804,0.159517,0.491533,-0.629395,1.077148,-0.078369,0.069276,-0.067520,0.026924,0.999993,0.002619,0.000798,0.002458,0.714000,-0.592185,-0.175463,-0.329747
05875,NaN,6.872519,-6.735101,2.857707,0.797498,0.364751,0.186824,0.557445,0.179469,0.435960,-0.623535,1.091797,-0.076660,0.068897,-0.067280,0.028328,0.999993,0.002787,0.000897,0.002180,0.716518,-0.590282,-0.174455,-0.328230
05876,NaN,7.122729,-7.245902,3.473478,0.731624,0.785695,0.871339,0.583582,0.227632,0.403864,-0.625244,1.079102,-0.074463,0.071413,-0.072416,0.034442,0.999993,0.002918,0.001138,0.002019,0.718970,-0.588012,-0.173833,-0.327270
05877,NaN,7.467955,-7.928708,4.228279,0.647377,1.281273,1.782646,0.624200,0.290549,0.395260,-0.614990,1.089844,-0.078613,0.074897,-0.079270,0.041927,0.999992,0.003121,0.001453,0.001976,0.721694,-0.585636,-0.172652,-0.326158
05878,NaN,7.618590,-8.344002,4.031330,0.462216,0.919655,2.139576,0.732470,0.388230,0.404259,-0.618896,1.076904,-0.078369,0.076432,-0.083432,0.039860,0.999989,0.003662,0.001941,0.002021,0.724744,-0.582497,-0.171668,-0.325536
05879,NaN,7.037031,-7.954174,3.590109,0.260510,0.589465,1.379321,0.980326,0.458020,0.351411,-0.608643,1.087646,-0.080566,0.070592,-0.079592,0.035350,0.999984,0.004902,0.002290,0.001757,0.728548,-0.578495,-0.170584,-0.324750
05880,NaN,7.171169,-7.613937,3.564597,0.578317,0.439756,1.213403,1.196857,0.515375,0.327510,-0.610352,1.077148,-0.094727,0.071927,-0.076232,0.035005,0.999977,0.005984,0.002577,0.001638,0.732914,-0.573333,-0.170079,-0.324345
05881,NaN,6.636211,-7.057591,3.403658,0.543103,0.375275,0.434092,1.241468,0.568647,0.337875,-0.600098,1.083252,-0.100830,0.066577,-0.070672,0.033409,0.999975,0.006207,0.002843,0.001689,0.737482,-0.568139,-0.169041,-0.323673
05882,NaN,6.138161,-6.657554,3.234009,0.418032,0.282669,-0.210454,1.237683,0.582703,0.323698,-0.601562,1.068604,-0.110840,0.061583,-0.066674,0.031748,0.999975,0.006188,0.002913,0.001618,0.741958,-0.562647,-0.168344,-0.323399
05883,NaN,5.868921,-6.633223,3.359384,0.253286,0.362267,-0.350508,1.149907,0.525105,0.309598,-0.593506,1.076904,-0.113037,0.058879,-0.066432,0.033058,0.999979,0.005749,0.002626,0.001548,0.746115,-0.557785,-0.167386,-0.322753
05884,NaN,6.806970,-7.074472,4.035510,0.717369,0.525383,0.764479,1.013306,0.599936,0.308250,-0.594971,1.062256,-0.121094,0.068299,-0.070842,0.039792,0.999981,0.005066,0.003000,0.001541,0.749899,-0.553038,-0.166276,-0.322726
05885,NaN,7.041079,-7.698811,4.527383,0.542197,0.682927,1.526805,0.776232,0.661313,0.363062,-0.584717,1.070557,-0.121094,0.070699,-0.077034,0.044741,0.999985,0.003881,0.003307,0.001815,0.753166,-0.549359,-0.164048,-0.322543
05886,NaN,6.953565,-7.758856,4.606633,0.465828,0.654544,1.550693,0.595248,0.738115,0.401651,-0.584473,1.060059,-0.125000,0.069860,-0.077585,0.045578,0.999987,0.002976,0.003691,0.002008,0.756033,-0.545983,-0.161471,-0.322868
05887,NaN,6.590001,-7.594415,4.404661,0.324472,0.506725,1.148209,0.490314,0.762147,0.414113,-0.578613,1.072754,-0.129395,0.066224,-0.075915,0.043609,0.999988,0.002452,0.003811,0.002071,0.758642,-0.543231,-0.158254,-0.322983
05888,NaN,6.305466,-7.371190,4.234274,0.276495,0.385930,0.760684,0.373791,0.782906,0.428808,-0.573975,1.062012,-0.120850,0.063377,-0.073655,0.041957,0.999988,0.001869,0.003915,0.002144,0.760967,-0.540603,-0.155050,-0.323476
05889,NaN,5.934062,-6.697810,3.558475,0.415072,-0.058407,-0.191867,0.209024,0.783927,0.430445,-0.563477,1.066162,-0.120850,0.059623,-0.066887,0.035281,0.999989,0.001045,0.003920,0.002152,0.762824,-0.538872,-0.151246,-0.323792
05890,NaN,5.732791,-6.304701,2.843737,0.475013,-0.636012,-0.864483,0.148063,0.785280,0.411272,-0.561035,1.057861,-0.122803,0.057568,-0.062950,0.028165,0.999990,0.000740,0.003926,0.002056,0.764485,-0.537071,-0.147698,-0.324504
05891,NaN,6.086213,-6.861155,2.854396,0.418237,-0.930705,-0.261599,0.204430,0.821760,0.414763,-0.552734,1.064209,-0.118896,0.061121,-0.068514,0.028223,0.999989,0.001022,0.004109,0.002074,0.766301,-0.535261,-0.143779,-0.324971
05892,NaN,6.271341,-7.681468,3.340109,0.120555,-0.809073,0.619044,0.261734,0.883527,0.438507,-0.543945,1.051270,-0.114502,0.063028,-0.076720,0.033023,0.999987,0.001309,0.004418,0.002193,0.768326,-0.532904,-0.139970,-0.325726
05893,NaN,6.177840,-8.203962,3.861157,-0.168816,-0.510841,1.145811,0.358059,0.925552,0.461136,-0.537598,1.055664,-0.118652,0.062145,-0.081965,0.038178,0.999985,0.001790,0.004628,0.002306,0.770663,-0.530340,-0.135772,-0.326165
05894,NaN,6.033318,-8.566980,4.398019,-0.394904,-0.164817,1.543022,0.482837,0.946613,0.485410,-0.535156,1.044922,-0.128662,0.060748,-0.085628,0.043487,0.999983,0.002414,0.004733,0.002427,0.773336,-0.527074,-0.131937,-0.326707
05895,NaN,6.059040,-8.459680,4.601518,-0.225083,-0.087670,1.562382,0.569517,0.957224,0.491708,-0.518555,1.051270,-0.128662,0.061017,-0.084577,0.045483,0.999981,0.002848,0.004786,0.002459,0.776253,-0.523627,-0.127873,-0.326947
05896,NaN,5.958869,-7.871418,4.631568,0.121894,-0.011124,1.091543,0.614936,0.988076,0.470783,-0.516113,1.040527,-0.138672,0.060001,-0.078715,0.045778,0.999980,0.003075,0.004940,0.002354,0.779224,-0.519756,-0.124092,-0.327513
05897,NaN,5.711153,-7.422239,4.611071,0.263966,0.049623,0.622603,0.615409,1.024257,0.445040,-0.503418,1.042725,-0.140625,0.057511,-0.074236,0.045588,0.999980,0.003077,0.005121,0.002225,0.782168,-0.515951,-0.119956,-0.328053
05898,NaN,5.511201,-7.214167,4.579081,0.278084,0.031321,0.351266,0.511907,1.046749,0.445068,-0.496582,1.027832,-0.142578,0.055511,-0.072135,0.045316,0.999981,0.002560,0.005234,0.002225,0.784809,-0.512337,-0.115823,-0.328893
05899,NaN,5.382065,-6.834171,4.021158,0.381826,-0.417000,-0.245998,0.376712,1.051814,0.437537,-0.486328,1.038330,-0.148682,0.054180,-0.068299,0.039799,0.999982,0.001884,0.005259,0.002188,0.787085,-0.509378,-0.111198,-0.329646
05900,NaN,5.360215,-6.806934,3.935312,0.409276,-0.573940,-0.322953,0.323281,1.066635,0.430858,-0.483643,1.019287,-0.148438,0.053957,-0.068017,0.038956,0.999982,0.001616,0.005333,0.002154,0.789173,-0.506439,-0.106703,-0.330666
05901,NaN,5.486945,-7.156926,4.021855,0.349409,-0.740869,0.027612,0.270226,1.086749,0.446944,-0.467041,1.029785,-0.148438,0.055246,-0.071500,0.039822,0.999982,0.001351,0.005434,0.002235,0.791158,-0.503809,-0.101734,-0.331505
05902,NaN,5.621190,-7.762638,4.422298,0.188506,-0.717942,0.716360,0.310253,1.100797,0.467414,-0.466553,1.014893,-0.158447,0.056635,-0.077562,0.043792,0.999981,0.001551,0.005504,0.002337,0.793222,-0.500874,-0.096989,-0.332440
05903,NaN,5.668072,-8.087496,4.603419,0.111884,-0.783328,1.054630,0.359661,1.109085,0.490257,-0.449707,1.019287,-0.154297,0.057132,-0.080818,0.045573,0.999980,0.001798,0.005545,0.002451,0.795456,-0.497836,-0.091964,-0.333093
05904,NaN,5.521552,-8.061598,4.664357,0.078836,-0.777363,0.986438,0.449812,1.105853,0.514642,-0.444824,1.002197,-0.162354,0.055679,-0.080577,0.046155,0.999979,0.002249,0.005529,0.002573,0.797876,-0.494352,-0.087306,-0.333747
05905,NaN,5.318271,-7.710091,4.680749,0.198768,-0.694755,0.633134,0.540460,1.106003,0.511132,-0.428223,1.008545,-0.172607,0.053637,-0.077090,0.046303,0.999978,0.002702,0.005530,0.002556,0.800527,-0.490567,-0.082536,-0.334199
05906,NaN,5.139299,-7.478281,4.794177,0.268539,-0.576417,0.430127,0.650590,1.100584,0.495199,-0.421387,0.995850,-0.176270,0.051840,-0.074810,0.047414,0.999977,0.003253,0.005503,0.002476,0.803327,-0.486266,-0.078273,-0.334789
05907,NaN,5.110681,-7.423895,4.858464,0.333829,-0.627831,0.401548,0.758130,1.102662,0.478480,-0.406494,0.997803,-0.192627,0.051550,-0.074299,0.048020,0.999975,0.003791,0.005513,0.002392,0.806379,-0.481555,-0.073954,-0.335244
05908,NaN,5.052818,-7.299177,4.937526,0.411667,-0.634417,0.317190,0.801326,1.100793,0.460768,-0.401855,0.978760,-0.206543,0.050966,-0.073071,0.048803,0.999974,0.004007,0.005504,0.002304,0.809402,-0.476607,-0.070022,-0.335873
05909,NaN,4.912091,-6.988543,4.832324,0.504043,-0.691515,-0.035885,0.797861,1.092421,0.436580,-0.386963,0.982910,-0.214844,0.049536,-0.069969,0.047774,0.999975,0.003989,0.005462,0.002183,0.812395,-0.471689,-0.065904,-0.336422
05910,NaN,4.909882,-6.803380,4.757663,0.622377,-0.821225,-0.222849,0.794611,1.092113,0.405757,-0.377930,0.966064,-0.226807,0.049495,-0.068121,0.047037,0.999975,0.003973,0.005461,0.002029,0.815220,-0.466733,-0.062128,-0.337217
05911,NaN,4.884462,-6.739756,4.655789,0.646994,-0.996962,-0.349879,0.727316,1.082780,0.384132,-0.365234,0.963867,-0.230713,0.049224,-0.067471,0.046047,0.999977,0.003637,0.005414,0.001921,0.817880,-0.462056,-0.058049,-0.337946
05912,NaN,4.773527,-6.620121,4.316084,0.582420,-1.286110,-0.688724,0.633460,1.063514,0.363687,-0.356445,0.951172,-0.242676,0.048084,-0.066250,0.042696,0.999979,0.003167,0.005318,0.001818,0.820168,-0.457774,-0.054226,-0.338861
05913,NaN,4.688133,-6.540700,4.139431,0.551199,-1.463570,-0.899363,0.625762,1.043246,0.330022,-0.339600,0.955322,-0.252930,0.047204,-0.065458,0.040944,0.999980,0.003129,0.005216,0.001650,0.822422,-0.453526,-0.050257,-0.339720
05914,NaN,4.811851,-6.832979,4.396215,0.544180,-1.536399,-0.511478,0.610881,1.034541,0.308781,-0.332520,0.938232,-0.258789,0.048450,-0.068389,0.043503,0.999981,0.003054,0.005173,0.001544,0.824478,-0.449371,-0.046655,-0.340771
05915,NaN,4.815241,-6.769120,4.575099,0.648959,-1.484643,-0.468559,0.565834,1.024198,0.281322,-0.315674,0.936035,-0.269043,0.048480,-0.067752,0.045312,0.999982,0.002829,0.005121,0.001407,0.826450,-0.445355,-0.042770,-0.341775
05916,NaN,4.896673,-6.824142,5.023296,0.797588,-1.310172,-0.146974,0.613624,1.017821,0.253071,-0.317139,0.914795,-0.278809,0.049307,-0.068332,0.049773,0.999982,0.003068,0.005089,0.001265,0.828337,-0.441208,-0.039382,-0.342991
05917,NaN,4.930217,-6.868806,5.603484,0.953783,-1.020474,0.233919,0.613582,1.025285,0.238834,-0.295898,0.918945,-0.282959,0.049670,-0.068800,0.055570,0.999981,0.003068,0.005126,0.001194,0.830283,-0.436952,-0.035666,-0.344138
05918,NaN,4.832434,-6.774959,5.933453,1.030516,-0.797013,0.324371,0.576978,1.041884,0.222150,-0.291016,0.899902,-0.292725,0.048707,-0.067866,0.058886,0.999982,0.002885,0.005209,0.001111,0.831974,-0.432896,-0.032203,-0.345519
05919,NaN,4.666792,-6.429226,5.646155,1.065961,-0.898932,-0.166570,0.515102,1.047517,0.225627,-0.276367,0.899902,-0.309082,0.047035,-0.064384,0.056050,0.999982,0.002575,0.005238,0.001128,0.833629,-0.428977,-0.028252,-0.346760
05920,NaN,4.382890,-6.200237,5.507271,0.975020,-0.852073,-0.522632,0.401086,1.061630,0.239445,-0.263184,0.885010,-0.312744,0.044194,-0.062060,0.054714,0.999983,0.002005,0.005308,0.001197,0.834916,-0.425598,-0.024384,-0.348119
05921,NaN,4.075827,-5.784054,5.442724,1.017240,-0.647980,-0.967600,0.072996,1.064278,0.314767,-0.243896,0.882812,-0.316895,0.041138,-0.057796,0.054188,0.999985,0.000365,0.005321,0.001574,0.835733,-0.423477,-0.019404,-0.349057
05922,NaN,3.844746,-5.656664,5.313151,0.939194,-0.616593,-1.225103,-0.319562,1.091499,0.343296,-0.239258,0.867920,-0.320557,0.038834,-0.056415,0.053010,0.999982,-0.001598,0.005457,0.001716,0.835622,-0.423042,-0.013948,-0.350109
05923,NaN,3.876170,-6.161711,5.412689,0.769598,-0.803309,-0.809899,-0.664796,1.124748,0.366605,-0.218262,0.872070,-0.322510,0.039179,-0.061366,0.054112,0.999977,-0.003324,0.005624,0.001833,0.834914,-0.423872,-0.007316,-0.350996
05924,NaN,3.842425,-6.735639,5.541361,0.536228,-0.934745,-0.342873,-0.924920,1.148357,0.391854,-0.213623,0.859375,-0.316162,0.038874,-0.067024,0.055502,0.999971,-0.004625,0.005742,0.001959,0.833535,-0.425831,-0.000466,-0.351976
05925,NaN,3.889652,-7.664485,6.098715,0.312416,-0.941822,0.679313,-0.937990,1.178163,0.390343,-0.192627,0.865723,-0.310059,0.039405,-0.076282,0.061114,0.999970,-0.004690,0.005891,0.001952,0.832199,-0.427660,0.006920,-0.352850
05926,NaN,3.884481,-8.446021,6.417665,0.076276,-1.023453,1.437028,-0.887311,1.201280,0.391430,-0.183594,0.850586,-0.311768,0.039396,-0.084098,0.064315,0.999970,-0.004437,0.006006,0.001957,0.830801,-0.429330,0.013925,-0.353909
05927,NaN,3.522413,-8.839627,6.433855,-0.291165,-0.970167,1.629063,-0.664077,1.212148,0.336263,-0.164795,0.854980,-0.313965,0.035763,-0.088123,0.064416,0.999975,-0.003320,0.006061,0.001681,0.829862,-0.429915,0.020851,-0.355061
05928,NaN,3.079096,-8.844609,6.407333,-0.535443,-0.753774,1.496869,-0.434863,1.189491,0.260530,-0.155762,0.842041,-0.323975,0.031287,-0.088266,0.064080,0.999979,-0.002174,0.005947,0.001303,0.829121,-0.429714,0.026737,-0.356637
05929,NaN,2.653356,-8.424928,6.367661,-0.544839,-0.411977,1.054676,-0.227324,1.167519,0.147620,-0.136963,0.850586,-0.328125,0.026967,-0.084157,0.063616,0.999982,-0.001137,0.005838,0.000738,0.828721,-0.428552,0.032292,-0.358498
05930,NaN,2.304099,-7.840361,6.507178,-0.362030,0.075805,0.626957,-0.219004,1.122756,0.039486,-0.136719,0.837891,-0.327881,0.023422,-0.078328,0.065027,0.999984,-0.001095,0.005614,0.000197,0.828004,-0.427587,0.037068,-0.360839
05931,NaN,1.798488,-7.259605,6.580760,-0.309775,0.631036,0.124524,-0.560374,1.041090,-0.046543,-0.119629,0.837646,-0.329834,0.018311,-0.072416,0.065916,0.999982,-0.002802,0.005205,-0.000233,0.826511,-0.428035,0.042283,-0.363149
05932,NaN,1.465442,-7.142674,6.734170,-0.344011,1.005145,0.055682,-1.072031,0.974446,-0.129013,-0.119141,0.824951,-0.323486,0.014938,-0.071074,0.067651,0.999974,-0.005360,0.004872,-0.000645,0.823644,-0.430849,0.047658,-0.365662
05933,NaN,1.600336,-7.878556,7.194858,-0.356572,1.020943,0.921700,-1.570802,0.919985,-0.267799,-0.111328,0.841797,-0.309326,0.016231,-0.078239,0.072490,0.999958,-0.007854,0.004600,-0.001339,0.819513,-0.435688,0.053733,-0.368358
05934,NaN,2.021166,-9.120394,7.525881,-0.457325,0.659398,2.156321,-2.106528,0.877777,-0.408436,-0.108887,0.831299,-0.302979,0.020359,-0.090447,0.076125,0.999933,-0.010532,0.004389,-0.002042,0.813788,-0.442888,0.060033,-0.371477
05935,NaN,2.066215,-9.750422,6.888246,-0.859928,0.168803,2.270906,-2.546920,0.816837,-0.551151,-0.098877,0.848145,-0.282715,0.020679,-0.096674,0.070033,0.999907,-0.012734,0.004084,-0.002756,0.806800,-0.451864,0.066855,-0.374730
05936,NaN,1.965022,-10.133103,6.165336,-1.280120,-0.144872,2.140770,-2.707558,0.761139,-0.717678,-0.109131,0.841797,-0.272461,0.019526,-0.100555,0.062944,0.999895,-0.013537,0.003806,-0.003588,0.798914,-0.461645,0.073123,-0.378513
05937,NaN,2.014149,-10.032700,5.772508,-1.196003,-0.171728,1.873457,-2.804397,0.722698,-0.835787,-0.101318,0.860840,-0.238037,0.019936,-0.099589,0.059053,0.999886,-0.014021,0.003613,-0.004179,0.790501,-0.471739,0.079373,-0.382452
05938,NaN,1.968989,-9.445778,5.373248,-0.944114,-0.009037,1.190620,-2.857845,0.683959,-0.903897,-0.105225,0.852295,-0.233887,0.019452,-0.093766,0.055009,0.999882,-0.014289,0.003420,-0.004519,0.781581,-0.482129,0.085194,-0.386555
05939,NaN,1.836469,-8.954801,5.207710,-0.697447,0.322695,0.679402,-2.900941,0.636006,-0.900554,-0.107910,0.867188,-0.207520,0.018132,-0.088863,0.053311,0.999880,-0.014504,0.003180,-0.004503,0.772479,-0.492568,0.091098,-0.390326
05940,NaN,1.464182,-8.787029,4.929754,-0.844954,0.660802,0.311574,-2.950613,0.578128,-0.855071,-0.109863,0.864990,-0.191162,0.014413,-0.087193,0.050545,0.999878,-0.014752,0.002891,-0.004275,0.763102,-0.503260,0.096796,-0.393744
05941,NaN,1.200148,-8.707349,4.798522,-0.879283,0.999619,0.112266,-2.984674,0.506567,-0.776331,-0.110107,0.873291,-0.162598,0.011789,-0.086391,0.049248,0.999878,-0.014923,0.002533,-0.003881,0.753722,-0.513971,0.102633,-0.396489
05942,NaN,0.800699,-8.783958,4.787419,-1.006406,1.493063,0.059946,-3.011945,0.426333,-0.683742,-0.114502,0.873291,-0.148438,0.007812,-0.087132,0.049173,0.999878,-0.015059,0.002132,-0.003419,0.744243,-0.524845,0.108301,-0.398636
05943,NaN,0.600275,-9.321731,4.929226,-1.115820,1.894239,0.517411,-2.974928,0.341043,-0.557541,-0.104492,0.892334,-0.117920,0.005830,-0.092487,0.050662,0.999884,-0.014874,0.001705,-0.002788,0.735051,-0.535482,0.114017,-0.399949
05944,NaN,0.684747,-9.668988,4.516843,-1.256757,1.746197,0.662181,-3.014213,0.158399,-0.350584,-0.110352,0.879639,-0.105469,0.006715,-0.096006,0.046613,0.999885,-0.015070,0.000792,-0.001753,0.726054,-0.546434,0.119580,-0.399945
05945,NaN,1.672929,-9.395182,4.608820,-0.212349,1.349064,0.696197,-2.934608,0.196426,-0.153578,-0.104492,0.896484,-0.077148,0.016704,-0.093275,0.047444,0.999892,-0.014673,0.000982,-0.000768,0.717530,-0.556733,0.125723,-0.399241
05946,NaN,0.900078,-8.093523,3.916555,-0.376157,1.678503,-0.941918,-2.807439,0.223077,-0.031688,-0.108398,0.887939,-0.058594,0.009033,-0.080376,0.040286,0.999901,-0.014037,0.001115,-0.000158,0.709410,-0.566353,0.131966,-0.398204
05947,NaN,0.247451,-6.769906,3.411705,-0.395517,1.986992,-2.503471,-2.656515,0.124464,0.080479,-0.098145,0.896240,-0.028076,0.002523,-0.067237,0.035011,0.999912,-0.013282,0.000622,0.000402,0.701900,-0.575430,0.137906,-0.396483
05948,NaN,-0.126861,-6.500468,2.928172,-0.698662,2.035655,-3.014751,-2.384327,0.082501,0.103252,-0.102295,0.889893,-0.023926,-0.001223,-0.064650,0.030054,0.999929,-0.011921,0.000412,0.000516,0.695133,-0.583522,0.143178,-0.394706
05949,NaN,0.691217,-7.831068,2.966650,-0.520975,1.566693,-1.573976,-1.903266,0.105956,0.089773,-0.092041,0.900391,-0.007568,0.006963,-0.078021,0.030406,0.999954,-0.009516,0.000530,0.000449,0.689646,-0.589843,0.147551,-0.393322
05950,NaN,0.891181,-9.228468,2.966956,-0.786781,1.518458,-0.229613,-1.433230,0.177432,0.105923,-0.089355,0.887695,-0.007324,0.008987,-0.092064,0.030322,0.999974,-0.007166,0.000887,0.000530,0.685498,-0.594319,0.151286,-0.392416
05951,NaN,0.760527,-10.696449,2.935339,-1.327703,1.671176,1.098430,-0.707809,0.224682,0.089679,-0.083252,0.895996,0.006836,0.007686,-0.106856,0.029723,0.999993,-0.003539,0.001123,0.000448,0.683392,-0.596238,0.153704,-0.392237
05952,NaN,1.397339,-12.509038,3.411603,-1.196741,1.581135,3.076664,0.098367,0.246014,0.136259,-0.083252,0.891846,-0.005371,0.014101,-0.125098,0.034037,0.999999,0.000492,0.001230,0.000681,0.683799,-0.595276,0.154786,-0.392564
05953,NaN,2.151573,-12.938968,3.644971,-0.721786,1.144911,3.733504,0.647881,0.316259,0.244847,-0.079102,0.891846,-0.013428,0.021731,-0.129480,0.035996,0.999993,0.003239,0.001581,0.001224,0.685955,-0.592253,0.155317,-0.393166
05954,NaN,2.210346,-12.631086,3.504468,-0.724107,0.884737,3.431262,1.035306,0.410326,0.325786,-0.072510,0.887695,-0.025635,0.022380,-0.126454,0.034345,0.999983,0.005177,0.002052,0.001629,0.689380,-0.587583,0.155705,-0.394028
05955,NaN,2.104182,-11.882907,3.265464,-0.763081,0.652292,2.648611,1.295340,0.445776,0.349720,-0.072754,0.896240,-0.031982,0.021321,-0.119000,0.031837,0.999975,0.006477,0.002229,0.001749,0.693507,-0.581959,0.155706,-0.395130
05956,NaN,1.939440,-11.063144,3.060870,-0.797547,0.484377,1.791191,1.473805,0.474493,0.330945,-0.063965,0.885498,-0.060303,0.019649,-0.110820,0.029746,0.999969,0.007369,0.002372,0.001655,0.698110,-0.575583,0.155468,-0.396454
05957,NaN,1.874558,-10.015175,3.014801,-0.574693,0.377340,0.790692,1.504295,0.484854,0.262875,-0.057861,0.894043,-0.060547,0.018949,-0.100350,0.029348,0.999968,0.007521,0.002424,0.001314,0.702558,-0.569155,0.154923,-0.398088
05958,NaN,1.788725,-9.163033,2.879466,-0.483902,0.248869,-0.057987,1.394163,0.496308,0.181527,-0.055420,0.885498,-0.080811,0.018041,-0.091812,0.028110,0.999972,0.006971,0.002482,0.000908,0.706534,-0.563062,0.154485,-0.399881
05959,NaN,1.525176,-8.583356,2.800251,-0.555847,0.314748,-0.678550,1.173256,0.463012,0.082751,-0.055664,0.889893,-0.084961,0.015351,-0.085989,0.027463,0.999980,0.005866,0.002315,0.000414,0.709628,-0.557923,0.153998,-0.401790
05960,NaN,1.486900,-8.519755,2.868963,-0.571420,0.315877,-0.724168,0.852592,0.375115,-0.011742,-0.057617,0.883545,-0.105225,0.014917,-0.085320,0.028298,0.999989,0.004263,0.001876,-0.000059,0.711735,-0.554099,0.153669,-0.403476
05961,NaN,1.917853,-8.757067,2.926876,-0.405966,-0.030969,-0.391172,0.525057,0.367060,-0.068341,-0.055420,0.885742,-0.099121,0.019202,-0.087654,0.029003,0.999995,0.002625,0.001835,-0.000342,0.712763,-0.551546,0.153720,-0.405137
05962,NaN,1.722061,-8.716899,3.044954,-0.467405,0.163045,-0.433115,0.360559,0.291707,-0.142884,-0.055420,0.879395,-0.111328,0.017203,-0.087236,0.030267,0.999997,0.001803,0.001459,-0.000714,0.713289,-0.549734,0.153727,-0.406669
05963,NaN,1.565744,-8.540801,3.218702,-0.409420,0.389829,-0.569463,0.312835,0.205094,-0.233269,-0.055664,0.892090,-0.107422,0.015591,-0.085476,0.032037,0.999998,0.001564,0.001025,-0.001166,0.713512,-0.548386,0.153174,-0.408304
05964,NaN,1.610713,-8.442998,3.339786,-0.299513,0.429977,-0.606277,0.427972,0.136528,-0.317590,-0.055420,0.883545,-0.127930,0.015996,-0.084527,0.033206,0.999996,0.002140,0.000683,-0.001588,0.713975,-0.546780,0.152013,-0.410077
05965,NaN,1.521820,-8.465078,3.570369,-0.268620,0.633695,-0.525769,0.662835,0.073140,-0.392105,-0.057617,0.885742,-0.123779,0.015065,-0.084798,0.035417,0.999993,0.003314,0.000366,-0.001961,0.714919,-0.544564,0.149835,-0.412177
05966,NaN,1.662702,-8.642670,4.090400,0.005583,0.831273,-0.143158,0.950621,0.026500,-0.436906,-0.061523,0.875244,-0.133789,0.016443,-0.086656,0.040490,0.999986,0.004753,0.000132,-0.002185,0.716626,-0.541386,0.146880,-0.414456
05967,NaN,1.823082,-8.977536,4.529544,0.137333,0.936240,0.362758,1.220944,0.002129,-0.437674,-0.063965,0.881592,-0.144287,0.018034,-0.090089,0.044746,0.999979,0.006105,0.000011,-0.002188,0.719004,-0.537323,0.143164,-0.416918
05968,NaN,1.847809,-9.191965,4.798756,0.099959,1.020276,0.669757,1.444485,-0.022646,-0.420409,-0.063477,0.871094,-0.164551,0.018279,-0.092302,0.047324,0.999972,0.007222,-0.000113,-0.002102,0.722059,-0.532408,0.139041,-0.419333
05969,NaN,1.746659,-9.088799,4.953537,0.037653,1.139426,0.622474,1.552371,-0.070953,-0.362639,-0.065674,0.871094,-0.170654,0.017284,-0.091300,0.048834,0.999968,0.007762,-0.000355,-0.001813,0.725454,-0.527193,0.134555,-0.421519
05970,NaN,1.596657,-8.567506,4.859074,-0.014024,1.165592,0.096966,1.550127,-0.142940,-0.312174,-0.071777,0.864746,-0.193115,0.015798,-0.086073,0.047936,0.999968,0.007751,-0.000715,-0.001561,0.729018,-0.521996,0.130050,-0.423250
05971,NaN,1.526489,-7.913268,4.750392,0.054128,1.148495,-0.528693,1.500200,-0.206024,-0.290059,-0.070068,0.873291,-0.195312,0.015101,-0.079508,0.046924,0.999970,0.007501,-0.001030,-0.001450,0.732429,-0.517143,0.125358,-0.424732
05972,NaN,1.505481,-7.488664,4.665772,0.074824,1.096889,-0.929792,1.424333,-0.255739,-0.284135,-0.075684,0.852051,-0.217285,0.014889,-0.075238,0.046142,0.999973,0.007122,-0.001279,-0.001421,0.735718,-0.512551,0.120771,-0.425941
05973,NaN,1.610331,-7.368140,4.758789,0.140419,1.045295,-0.957455,1.343917,-0.271383,-0.277137,-0.073975,0.862793,-0.219482,0.015937,-0.074021,0.047113,0.999976,0.006720,-0.001357,-0.001386,0.738714,-0.508346,0.116192,-0.427066
05974,NaN,1.753415,-7.471128,4.824363,0.105740,0.922292,-0.795826,1.255559,-0.263183,-0.255584,-0.081787,0.847900,-0.235596,0.017375,-0.075035,0.047796,0.999979,0.006278,-0.001316,-0.001278,0.741572,-0.504312,0.112002,-0.428013
05975,NaN,1.719852,-7.792965,4.854940,-0.168748,0.884998,-0.515057,1.173783,-0.250588,-0.228332,-0.084229,0.854248,-0.243896,0.017049,-0.078232,0.048112,0.999981,0.005869,-0.001253,-0.001142,0.744166,-0.500621,0.107978,-0.428878
05976,NaN,1.669126,-8.282878,4.898630,-0.531709,0.841542,-0.096886,1.076783,-0.249460,-0.184904,-0.088135,0.845947,-0.258301,0.016554,-0.083106,0.048560,0.999984,0.005384,-0.001247,-0.000925,0.746667,-0.497137,0.104395,-0.429470
05977,NaN,1.633595,-8.701985,5.046363,-0.786365,0.864871,0.311133,0.994259,-0.266722,-0.132440,-0.087891,0.841553,-0.260254,0.016211,-0.087280,0.050052,0.999987,0.004971,-0.001334,-0.000662,0.748980,-0.494066,0.100928,-0.429815
05978,NaN,1.748667,-8.981461,5.207300,-0.864957,0.797672,0.649395,0.980498,-0.307238,-0.085217,-0.089844,0.833252,-0.270264,0.017369,-0.090076,0.051659,0.999987,0.004902,-0.001536,-0.000426,0.751445,-0.490985,0.097587,-0.429815
05979,NaN,1.837385,-8.969401,5.196901,-0.900400,0.681125,0.654327,1.011272,-0.337184,-0.041161,-0.087891,0.839600,-0.276611,0.018268,-0.089959,0.051545,0.999986,0.005056,-0.001686,-0.000206,0.753990,-0.487929,0.094039,-0.429630
05980,NaN,1.918066,-8.829513,5.311082,-0.797156,0.665268,0.616500,1.031627,-0.355748,-0.001601,-0.089600,0.824707,-0.286377,0.019086,-0.088568,0.052688,0.999985,0.005158,-0.001779,-0.000008,0.756740,-0.484691,0.090618,-0.429193
05981,NaN,2.039517,-8.630036,5.325189,-0.691220,0.566787,0.492403,1.052517,-0.356087,0.020273,-0.093750,0.826904,-0.288574,0.020310,-0.086577,0.052833,0.999985,0.005263,-0.001780,0.000101,0.759481,-0.481462,0.087054,-0.428724
05982,NaN,2.050869,-8.593962,5.394995,-0.711069,0.554495,0.500134,1.053344,-0.364533,0.045858,-0.100098,0.820557,-0.302734,0.020431,-0.086218,0.053534,0.999984,0.005267,-0.001823,0.000229,0.762343,-0.478111,0.083670,-0.428068
05983,NaN,2.127927,-8.527114,5.436754,-0.688871,0.486092,0.487137,1.040195,-0.386722,0.039193,-0.087646,0.829102,-0.304932,0.021191,-0.085548,0.053964,0.999985,0.005201,-0.001934,0.000196,0.765061,-0.474955,0.080056,-0.427423
05984,NaN,2.352692,-8.471363,5.382886,-0.626023,0.243638,0.474325,0.989657,-0.351040,0.043977,-0.097412,0.807861,-0.310791,0.023452,-0.084974,0.053450,0.999986,0.004948,-0.001755,0.000220,0.767715,-0.471792,0.076857,-0.426753
05985,NaN,2.228922,-8.427053,5.337712,-0.778160,0.265405,0.375436,0.938615,-0.345181,0.042630,-0.095703,0.818359,-0.312988,0.022216,-0.084515,0.053019,0.999987,0.004693,-0.001726,0.000213,0.770140,-0.468909,0.073624,-0.426131
05986,NaN,2.148455,-8.356464,5.315917,-0.868955,0.275703,0.280561,0.886797,-0.357751,0.043973,-0.101807,0.807861,-0.327148,0.021408,-0.083795,0.052826,0.999989,0.004434,-0.001789,0.000220,0.772514,-0.466136,0.070619,-0.425385
05987,NaN,2.213591,-8.214522,5.344288,-0.798575,0.235846,0.199602,0.851036,-0.363118,0.051907,-0.097656,0.814209,-0.331299,0.022061,-0.082366,0.053133,0.999989,0.004255,-0.001816,0.000260,0.774725,-0.463603,0.067521,-0.424634
05988,NaN,2.270210,-8.218763,5.368885,-0.816417,0.168019,0.228807,0.822711,-0.346389,0.053675,-0.107666,0.799561,-0.335205,0.022632,-0.082402,0.053389,0.999990,0.004114,-0.001732,0.000268,0.776930,-0.461036,0.064722,-0.423835
05989,NaN,2.217870,-8.200826,5.498931,-0.837660,0.257950,0.269084,0.780783,-0.327625,0.054671,-0.099609,0.807861,-0.339355,0.022111,-0.082216,0.054705,0.999991,0.003904,-0.001638,0.000273,0.778942,-0.458681,0.061915,-0.423117
05990,NaN,2.297429,-8.223334,5.635019,-0.793013,0.246229,0.383632,0.757079,-0.330307,0.058391,-0.105469,0.793213,-0.343262,0.022906,-0.082439,0.056076,0.999991,0.003785,-0.001652,0.000292,0.780970,-0.456322,0.059331,-0.422298
05991,NaN,2.486689,-8.050950,5.832154,-0.533529,0.245668,0.418150,0.752508,-0.321352,0.068681,-0.099365,0.803711,-0.347412,0.024801,-0.080720,0.058058,0.999992,0.003763,-0.001607,0.000343,0.782918,-0.454043,0.056638,-0.421517
05992,NaN,2.439553,-7.795030,5.841665,-0.459988,0.304263,0.213996,0.796196,-0.300114,0.091118,-0.103271,0.791016,-0.359619,0.024344,-0.078171,0.058142,0.999991,0.003981,-0.001501,0.000456,0.785066,-0.451446,0.054165,-0.420635
05993,NaN,2.437780,-7.601801,5.946682,-0.354266,0.381208,0.128233,0.824113,-0.285843,0.090704,-0.101318,0.795166,-0.357666,0.024328,-0.076251,0.059188,0.999990,0.004121,-0.001429,0.000454,0.787185,-0.448788,0.051509,-0.419853
05994,NaN,1.118086,-7.394323,5.534962,-1.324235,1.049434,-0.663560,0.854324,-0.382620,0.047896,-0.109375,0.784668,-0.365723,0.011093,-0.074176,0.055054,0.999989,0.004272,-0.001913,0.000239,0.789362,-0.446129,0.048490,-0.418957
05995,NaN,2.653715,-7.087595,6.473427,0.205364,0.637708,0.123715,0.855365,-0.534243,0.005800,-0.109619,0.791016,-0.367676,0.026367,-0.071151,0.064501,0.999987,0.004277,-0.002671,0.000029,0.791399,-0.443870,0.044597,-0.417945
05996,NaN,3.183095,-6.638052,6.178642,0.631505,0.159987,-0.223803,0.769139,-0.370768,0.038952,-0.113281,0.776367,-0.371582,0.031730,-0.066611,0.061589,0.999991,0.003846,-0.001854,0.000195,0.793335,-0.441502,0.041788,-0.417072
05997,NaN,3.389677,-6.494793,6.205332,0.808578,0.039152,-0.245940,0.829086,-0.169598,0.047939,-0.107178,0.782715,-0.375732,0.033860,-0.065196,0.061812,0.999991,0.004145,-0.000848,0.000240,0.795291,-0.438558,0.039487,-0.416678
05998,NaN,2.396724,-6.733579,6.039098,-0.111241,0.510813,-0.470185,0.832420,-0.137676,0.081607,-0.113281,0.771973,-0.387939,0.023953,-0.067577,0.060127,0.999991,0.004162,-0.000688,0.000408,0.797376,-0.435425,0.037549,-0.416157
05999,NaN,2.084934,-6.801514,5.947698,-0.455968,0.601266,-0.570791,0.940460,-0.187128,0.032365,-0.107178,0.778320,-0.383789,0.020805,-0.068291,0.059176,0.999988,0.004702,-0.000936,0.000162,0.799514,-0.432058,0.034912,-0.415793
06000,NaN,3.182147,-6.860775,6.253499,0.287076,-0.028111,-0.003568,0.900177,-0.154215,0.062280,-0.114990,0.763672,-0.395996,0.031795,-0.068878,0.062250,0.999990,0.004501,-0.000771,0.000311,0.801677,-0.428673,0.032723,-0.415311
06001,NaN,3.040308,-6.850963,6.434102,0.214615,0.144631,0.061998,0.839551,-0.148639,0.062603,-0.113281,0.771973,-0.395996,0.030377,-0.068769,0.064075,0.999991,0.004198,-0.000743,0.000313,0.803620,-0.425607,0.030514,-0.414875
06002,NaN,3.128787,-6.727857,6.641813,0.381694,0.206518,0.136096,0.782804,-0.098769,0.078667,-0.114990,0.759277,-0.406006,0.031282,-0.067526,0.066170,0.999992,0.003914,-0.000494,0.000393,0.805525,-0.422560,0.028817,-0.414418
06003,NaN,2.908995,-6.445861,6.739540,0.406344,0.461990,-0.063131,0.755224,-0.080556,0.064756,-0.111084,0.770020,-0.406250,0.029084,-0.064703,0.067163,0.999993,0.003776,-0.000403,0.000324,0.807258,-0.419677,0.027060,-0.414093
06004,NaN,3.115085,-6.169821,6.941367,0.754493,0.491789,-0.058630,0.626199,-0.042571,0.049680,-0.121338,0.759521,-0.416260,0.031151,-0.061907,0.069227,0.999995,0.003131,-0.000213,0.000248,0.808742,-0.417135,0.025845,-0.413843
06005,NaN,3.423517,-6.327977,6.847487,0.779999,0.132453,0.088106,0.535183,0.001300,0.035619,-0.114746,0.757324,-0.406006,0.034247,-0.063457,0.068305,0.999996,0.002676,0.000007,0.000178,0.809927,-0.414966,0.024813,-0.413770
06006,NaN,3.451823,-6.261026,6.841020,0.809632,0.093672,0.048887,0.451226,0.027550,0.020603,-0.118896,0.750977,-0.416260,0.034534,-0.062761,0.068264,0.999997,0.002256,0.000138,0.000103,0.810965,-0.412979,0.024170,-0.413763
06007,NaN,3.243242,-6.195132,6.845934,0.692654,0.232506,-0.054042,0.364589,0.070213,0.026715,-0.112793,0.757324,-0.414307,0.032465,-0.062072,0.068335,0.999998,0.001823,0.000351,0.000134,0.811760,-0.411356,0.023752,-0.413844
06008,NaN,3.274001,-6.195513,6.755471,0.663320,0.124492,-0.102677,0.234528,0.095178,0.016543,-0.116455,0.744629,-0.418213,0.032777,-0.062032,0.067466,0.999999,0.001173,0.000476,0.000083,0.812328,-0.410103,0.023812,-0.413971
06009,NaN,3.317875,-6.204938,6.715855,0.663819,0.047634,-0.108600,0.100169,0.117494,0.009454,-0.113037,0.763672,-0.412354,0.033221,-0.062081,0.067108,1.000000,0.000501,0.000587,0.000047,0.812536,-0.409456,0.024097,-0.414186
06010,NaN,3.353935,-6.190200,6.660370,0.678661,-0.022192,-0.144859,-0.023283,0.126169,-0.002325,-0.118896,0.750977,-0.410156,0.033581,-0.061895,0.066590,1.000000,-0.000116,0.000631,-0.000012,0.812529,-0.409187,0.024767,-0.414426
06011,NaN,3.353080,-6.314061,6.546239,0.562356,-0.139679,-0.136532,-0.115757,0.149002,-0.008604,-0.114990,0.763672,-0.406250,0.033577,-0.063104,0.065474,1.000000,-0.000579,0.000745,-0.000043,0.812253,-0.409354,0.025590,-0.414752
06012,NaN,3.481786,-6.363135,6.478575,0.602983,-0.291461,-0.110333,-0.184819,0.149891,-0.028070,-0.121094,0.750977,-0.410156,0.034858,-0.063576,0.064818,0.999999,-0.000924,0.000749,-0.000140,0.811855,-0.409696,0.026627,-0.415128
06013,NaN,3.448671,-6.396791,6.477679,0.573891,-0.276984,-0.098445,-0.198665,0.159771,-0.046744,-0.119385,0.765625,-0.404297,0.034524,-0.063912,0.064813,0.999999,-0.000993,0.000799,-0.000234,0.811327,-0.410180,0.027588,-0.415619
06014,NaN,3.546106,-6.457323,6.324134,0.552943,-0.463227,-0.130425,-0.172005,0.167944,-0.064399,-0.116943,0.752930,-0.401855,0.035493,-0.064530,0.063267,0.999999,-0.000860,0.000840,-0.000322,0.810871,-0.410440,0.028586,-0.416184
06015,NaN,3.556671,-6.626946,6.171471,0.400713,-0.620496,-0.111771,-0.158159,0.162139,-0.078648,-0.115234,0.765625,-0.402100,0.035591,-0.066235,0.061738,0.999999,-0.000791,0.000811,-0.000393,0.810357,-0.410759,0.029408,-0.416813
06016,NaN,3.540072,-6.916620,6.138281,0.196992,-0.723063,0.060945,-0.120636,0.165506,-0.083532,-0.118896,0.755127,-0.397949,0.035423,-0.069144,0.061395,0.999999,-0.000603,0.000828,-0.000418,0.809961,-0.410824,0.030238,-0.417460
06017,NaN,3.623385,-6.972978,6.208446,0.246812,-0.754405,0.170603,-0.084689,0.139058,-0.090280,-0.119385,0.763672,-0.394043,0.036246,-0.069720,0.062089,1.000000,-0.000423,0.000695,-0.000451,0.809575,-0.410894,0.030789,-0.418099
06018,NaN,3.695766,-7.071347,6.262043,0.253882,-0.805100,0.294893,-0.062737,0.130746,-0.080953,-0.123047,0.750977,-0.397705,0.036970,-0.070709,0.062618,1.000000,-0.000314,0.000654,-0.000405,0.809301,-0.410806,0.031354,-0.418673
06019,NaN,3.736013,-7.169471,6.272258,0.221738,-0.858429,0.381147,-0.059942,0.107362,-0.076944,-0.119141,0.761475,-0.395996,0.037366,-0.071690,0.062724,1.000000,-0.000300,0.000537,-0.000385,0.808998,-0.410840,0.031752,-0.419196
06020,NaN,3.715096,-7.171406,6.286398,0.214812,-0.837625,0.385452,-0.058380,0.095657,-0.062723,-0.123291,0.755127,-0.393799,0.037159,-0.071707,0.062867,1.000000,-0.000292,0.000478,-0.000314,0.808770,-0.410815,0.032194,-0.419626
06021,NaN,3.724850,-7.105240,6.181562,0.224663,-0.890603,0.273293,-0.053460,0.073809,-0.050891,-0.114990,0.763672,-0.387695,0.037253,-0.071045,0.061821,1.000000,-0.000267,0.000369,-0.000254,0.808540,-0.410888,0.032497,-0.419975
06022,NaN,3.617850,-7.054586,6.122777,0.167798,-0.837978,0.167997,-0.051727,0.063179,-0.041155,-0.123291,0.759277,-0.389893,0.036183,-0.070537,0.061235,1.000000,-0.000259,0.000316,-0.000206,0.808370,-0.410910,0.032829,-0.420254
06023,NaN,3.664906,-6.912559,6.070382,0.272783,-0.858775,0.048988,-0.071159,0.042663,-0.033699,-0.119141,0.761475,-0.385742,0.036650,-0.069110,0.060721,1.000000,-0.000356,0.000213,-0.000168,0.808144,-0.411117,0.033078,-0.420466
06024,NaN,3.484380,-6.801729,6.035789,0.219987,-0.716914,-0.103269,-0.095878,0.041616,-0.023319,-0.123291,0.759277,-0.389893,0.034848,-0.067992,0.060383,1.000000,-0.000479,0.000208,-0.000117,0.807919,-0.411370,0.033444,-0.420622
06025,NaN,3.263597,-6.683914,6.070260,0.174812,-0.498316,-0.226503,-0.108975,0.053657,-0.026552,-0.121582,0.765625,-0.385742,0.032643,-0.066810,0.060730,1.000000,-0.000545,0.000268,-0.000133,0.807628,-0.411705,0.033832,-0.420822
06026,NaN,3.171358,-6.716593,6.186828,0.147683,-0.366018,-0.153951,-0.097194,0.049771,-0.027924,-0.121094,0.757324,-0.385742,0.031720,-0.067140,0.061893,1.000000,-0.000486,0.000249,-0.000140,0.807385,-0.411953,0.034217,-0.421014
06027,NaN,3.022782,-6.816048,6.305489,0.040498,-0.212211,-0.050093,-0.079954,0.050963,-0.032238,-0.121582,0.765625,-0.381592,0.030233,-0.068140,0.063074,1.000000,-0.000400,0.000255,-0.000161,0.807142,-0.412177,0.034522,-0.421236
06028,NaN,2.892335,-6.859133,6.411558,-0.024205,-0.063738,0.011605,-0.066271,0.048203,-0.038650,-0.123291,0.759277,-0.391846,0.028926,-0.068576,0.064131,1.000000,-0.000331,0.000241,-0.000193,0.806938,-0.412309,0.034810,-0.421474
06029,NaN,2.807336,-6.877888,6.498290,-0.052715,0.048754,0.056917,-0.062845,0.048496,-0.045567,-0.121582,0.765625,-0.381592,0.028073,-0.068765,0.064998,1.000000,-0.000314,0.000242,-0.000228,0.806702,-0.412472,0.035041,-0.421747
06030,NaN,2.723775,-6.916501,6.502865,-0.126483,0.100953,0.062433,-0.064353,0.052793,-0.053372,-0.125488,0.757324,-0.385742,0.027236,-0.069151,0.065044,1.000000,-0.000322,0.000264,-0.000267,0.806469,-0.412591,0.035312,-0.422054
06031,NaN,2.646053,-6.933690,6.516224,-0.178852,0.162799,0.060526,-0.076488,0.054934,-0.054639,-0.119629,0.771973,-0.383789,0.026459,-0.069319,0.065181,1.000000,-0.000382,0.000275,-0.000273,0.806185,-0.412796,0.035579,-0.422374
06032,NaN,2.589974,-7.004563,6.513584,-0.258362,0.181946,0.091796,-0.070751,0.061072,-0.062076,-0.119141,0.759277,-0.387695,0.025898,-0.070031,0.065153,1.000000,-0.000354,0.000305,-0.000310,0.805918,-0.412925,0.035881,-0.422731
06033,NaN,2.572729,-7.063147,6.523309,-0.300608,0.186159,0.133946,-0.072530,0.067565,-0.069252,-0.117188,0.763672,-0.383789,0.025725,-0.070617,0.065250,1.000000,-0.000363,0.000338,-0.000346,0.805608,-0.413090,0.036160,-0.423137
06034,NaN,2.540897,-7.091169,6.597838,-0.305481,0.250054,0.193134,-0.073728,0.069419,-0.071904,-0.125488,0.759277,-0.385742,0.025406,-0.070896,0.065996,1.000000,-0.000369,0.000347,-0.000360,0.805312,-0.413216,0.036483,-0.423549
06035,NaN,2.569735,-7.135443,6.546870,-0.334037,0.187534,0.198948,-0.070208,0.066442,-0.074966,-0.119385,0.765625,-0.385742,0.025692,-0.071341,0.065485,1.000000,-0.000351,0.000332,-0.000375,0.804995,-0.413375,0.036742,-0.423975
06036,NaN,2.624322,-7.156141,6.491281,-0.333129,0.109469,0.192871,-0.060653,0.063922,-0.076420,-0.119141,0.759277,-0.387695,0.026237,-0.071552,0.064926,1.000000,-0.000303,0.000320,-0.000382,0.804717,-0.413461,0.037009,-0.424395
06037,NaN,2.599489,-7.135376,6.454795,-0.350150,0.113069,0.147228,-0.033484,0.054184,-0.080820,-0.123779,0.767822,-0.387939,0.025984,-0.071353,0.064553,1.000000,-0.000167,0.000271,-0.000404,0.804464,-0.413499,0.037127,-0.424826
06038,NaN,2.689832,-7.031729,6.417326,-0.241987,0.056361,0.076739,-0.011923,0.045683,-0.084217,-0.125244,0.755127,-0.385742,0.026883,-0.070325,0.064171,1.000000,-0.000060,0.000228,-0.000421,0.804274,-0.413431,0.037204,-0.425246
06039,NaN,2.733478,-6.896096,6.402225,-0.135921,0.056722,-0.014992,0.012436,0.041682,-0.087446,-0.123779,0.767822,-0.383789,0.027318,-0.068977,0.064012,1.000000,0.000062,0.000208,-0.000437,0.804104,-0.413312,0.037161,-0.425687
06040,NaN,2.810744,-6.778866,6.350010,-0.036240,0.001818,-0.108327,0.019182,0.041375,-0.078078,-0.125488,0.761475,-0.383789,0.028094,-0.067806,0.063488,1.000000,0.000096,0.000207,-0.000390,0.803991,-0.413128,0.037168,-0.426078
06041,NaN,2.862079,-6.684527,6.303107,0.033898,-0.037606,-0.189746,0.021238,0.046129,-0.074098,-0.119629,0.770020,-0.381836,0.028611,-0.066863,0.063017,1.000000,0.000106,0.000231,-0.000370,0.803866,-0.412961,0.037152,-0.426476
06042,NaN,2.907514,-6.647093,6.327810,0.093554,-0.046220,-0.186277,0.021249,0.052796,-0.063136,-0.123535,0.761475,-0.389893,0.029071,-0.066487,0.063263,1.000000,0.000106,0.000264,-0.000316,0.803786,-0.412743,0.037229,-0.426832
06043,NaN,2.910728,-6.567841,6.341629,0.150007,-0.018924,-0.231337,0.016317,0.063437,-0.053077,-0.117432,0.767822,-0.385742,0.029110,-0.065691,0.063402,1.000000,0.000082,0.000317,-0.000265,0.803693,-0.412555,0.037337,-0.427179
06044,NaN,2.934976,-6.577450,6.420432,0.190179,0.006143,-0.165788,0.011844,0.072487,-0.036554,-0.123291,0.752930,-0.385498,0.029361,-0.065784,0.064190,1.000000,0.000059,0.000362,-0.000183,0.803645,-0.412328,0.037566,-0.427468
06045,NaN,2.999666,-6.639968,6.468875,0.209898,-0.032130,-0.071619,-0.000991,0.078490,-0.025011,-0.119385,0.767822,-0.387939,0.030014,-0.066403,0.064677,1.000000,-0.000005,0.000392,-0.000125,0.803573,-0.412172,0.037829,-0.427730
06046,NaN,2.996608,-6.684684,6.510624,0.198206,-0.022256,-0.014060,-0.013600,0.092248,-0.007000,-0.123291,0.755127,-0.387695,0.029994,-0.066843,0.065097,1.000000,-0.000068,0.000461,-0.000035,0.803532,-0.412000,0.038250,-0.427937
06047,NaN,2.975426,-6.796781,6.523054,0.121161,-0.036815,0.065753,-0.038597,0.096821,0.012868,-0.121582,0.770020,-0.385986,0.029790,-0.067953,0.065229,1.000000,-0.000193,0.000484,0.000064,0.803460,-0.411948,0.038745,-0.428077
06048,NaN,2.950258,-6.821228,6.454743,0.068548,-0.073990,0.030418,-0.054693,0.096401,0.027411,-0.123291,0.757324,-0.389648,0.029543,-0.068191,0.064552,1.000000,-0.000273,0.000482,0.000137,0.803405,-0.411926,0.039338,-0.428147
06049,NaN,2.904972,-6.847598,6.400036,0.008204,-0.087344,-0.000388,-0.053636,0.093672,0.028737,-0.117188,0.765625,-0.387939,0.029090,-0.068455,0.064005,1.000000,-0.000268,0.000468,0.000144,0.803336,-0.411938,0.039886,-0.428214
06050,NaN,2.846585,-6.862840,6.328003,-0.060326,-0.099874,-0.054018,-0.044322,0.086838,0.035686,-0.116943,0.759277,-0.385742,0.028506,-0.068609,0.063283,1.000000,-0.000222,0.000434,0.000178,0.803321,-0.411894,0.040434,-0.428233
06051,NaN,2.805800,-6.856566,6.324668,-0.076244,-0.075201,-0.072310,-0.025714,0.076702,0.039949,-0.117432,0.770020,-0.383789,0.028096,-0.068552,0.063245,1.000000,-0.000129,0.000384,0.000200,0.803337,-0.411828,0.040877,-0.428225
06052,NaN,2.769696,-6.817573,6.372936,-0.047417,-0.013396,-0.078089,-0.004822,0.062229,0.042412,-0.121338,0.759277,-0.389893,0.027731,-0.068168,0.063722,1.000000,-0.000024,0.000311,0.000212,0.803421,-0.411679,0.041255,-0.428175
06053,NaN,2.740691,-6.800416,6.471184,-0.009294,0.068587,-0.033706,0.012865,0.048496,0.047277,-0.117432,0.767822,-0.385742,0.027439,-0.068002,0.064701,1.000000,0.000064,0.000242,0.000236,0.803537,-0.411516,0.041516,-0.428087
06054,NaN,2.767459,-6.845124,6.557745,0.017630,0.083524,0.062092,0.027925,0.034390,0.049414,-0.119141,0.759277,-0.383545,0.027703,-0.068454,0.065563,1.000000,0.000140,0.000172,0.000247,0.803709,-0.411294,0.041726,-0.427958
06055,NaN,2.719852,-6.826865,6.671872,0.048360,0.188327,0.111008,0.051878,0.025472,0.047582,-0.113037,0.770020,-0.387939,0.027223,-0.068279,0.066698,1.000000,0.000259,0.000127,0.000238,0.803911,-0.411024,0.041813,-0.427830
06056,NaN,2.695752,-6.825101,6.690800,0.041253,0.210335,0.115552,0.073095,0.012303,0.039784,-0.119141,0.757324,-0.389648,0.026975,-0.068270,0.066881,1.000000,0.000365,0.000062,0.000199,0.804160,-0.410668,0.041817,-0.427703
06057,NaN,2.688800,-6.791338,6.819846,0.109541,0.299025,0.175346,0.086189,0.007114,0.029587,-0.117432,0.770020,-0.387939,0.026900,-0.067939,0.068168,1.000000,0.000431,0.000036,0.000148,0.804397,-0.410303,0.041719,-0.427617
06058,NaN,2.669929,-6.745587,6.931791,0.169610,0.388558,0.212353,0.091857,-0.000785,0.017661,-0.113037,0.763428,-0.383789,0.026705,-0.067485,0.069287,1.000000,0.000459,-0.000004,0.000088,0.804640,-0.409903,0.041585,-0.427556
06059,NaN,2.656052,-6.729355,6.919827,0.161083,0.390413,0.189535,0.073358,-0.000589,0.006253,-0.111084,0.770020,-0.391846,0.026562,-0.067318,0.069174,1.000000,0.000367,-0.000003,0.000031,0.804803,-0.409611,0.041436,-0.427545
06060,NaN,2.652072,-6.757091,6.873150,0.116881,0.351489,0.177045,0.043312,-0.005932,-0.003896,-0.121094,0.757324,-0.389648,0.026517,-0.067586,0.068718,1.000000,0.000217,-0.000030,-0.000019,0.804902,-0.409418,0.041340,-0.427552
06061,NaN,2.636071,-6.775858,6.806786,0.063926,0.315321,0.141706,0.012540,-0.010759,-0.016015,-0.113037,0.767822,-0.389893,0.026352,-0.067765,0.068065,1.000000,0.000063,-0.000054,-0.000080,0.804894,-0.409397,0.041234,-0.427597
06062,NaN,2.693421,-6.803753,6.713443,0.041877,0.207898,0.115601,-0.016792,-0.006435,-0.022891,-0.119141,0.759277,-0.397949,0.026924,-0.068035,0.067141,1.000000,-0.000084,-0.000032,-0.000114,0.804831,-0.409449,0.041226,-0.427667
06063,NaN,2.665584,-6.815082,6.625658,-0.019584,0.173510,0.057446,-0.042243,-0.010294,-0.035341,-0.113037,0.770020,-0.385742,0.026640,-0.068142,0.066272,1.000000,-0.000211,-0.000051,-0.000177,0.804670,-0.409651,0.041200,-0.427779
06064,NaN,2.670353,-6.792600,6.499894,-0.052902,0.102741,-0.039997,-0.061096,-0.011408,-0.036453,-0.118896,0.755127,-0.395752,0.026687,-0.067911,0.065021,1.000000,-0.000305,-0.000057,-0.000182,0.804488,-0.409895,0.041238,-0.427884
06065,NaN,2.696265,-6.814157,6.398861,-0.091071,0.020933,-0.084416,-0.067543,-0.010294,-0.044571,-0.117432,0.767822,-0.385742,0.026944,-0.068126,0.064013,1.000000,-0.000338,-0.000051,-0.000223,0.804255,-0.410200,0.041247,-0.428028
06066,NaN,2.722430,-6.835544,6.297711,-0.129026,-0.061858,-0.128836,-0.064626,-0.008856,-0.046340,-0.121338,0.759277,-0.397949,0.027206,-0.068341,0.063000,1.000000,-0.000323,-0.000044,-0.000232,0.804044,-0.410455,0.041283,-0.428177
06067,NaN,2.749627,-6.901125,6.236649,-0.179228,-0.132901,-0.115679,-0.055686,-0.006948,-0.046463,-0.114990,0.763672,-0.385742,0.027478,-0.069000,0.062387,1.000000,-0.000278,-0.000035,-0.000232,0.803830,-0.410706,0.041277,-0.428338
06068,NaN,2.763305,-6.990179,6.239564,-0.226963,-0.162813,-0.047822,-0.043627,-0.006017,-0.043180,-0.118896,0.752930,-0.387695,0.027616,-0.069894,0.062412,1.000000,-0.000218,-0.000030,-0.000216,0.803667,-0.410872,0.041286,-0.428484
06069,NaN,2.748893,-7.012096,6.168924,-0.279918,-0.198977,-0.083167,-0.027945,0.002763,-0.034510,-0.117432,0.770020,-0.385742,0.027478,-0.070117,0.061699,1.000000,-0.000140,0.000014,-0.000173,0.803534,-0.410988,0.041283,-0.428623
06070,NaN,2.788047,-6.990277,6.221687,-0.219329,-0.186381,-0.052373,-0.007164,0.001516,-0.028779,-0.119141,0.759277,-0.391846,0.027871,-0.069905,0.062219,1.000000,-0.000036,0.000008,-0.000144,0.803474,-0.410991,0.041274,-0.428733
06071,NaN,2.861049,-6.986680,6.238022,-0.165887,-0.227033,-0.023246,0.010600,0.005126,-0.023213,-0.121582,0.767822,-0.387939,0.028604,-0.069873,0.062376,1.000000,0.000053,0.000026,-0.000116,0.803444,-0.410945,0.041222,-0.428839
06072,NaN,2.910711,-6.929003,6.271407,-0.084728,-0.226924,-0.027229,0.026680,0.015595,-0.011932,-0.119141,0.757324,-0.395752,0.029108,-0.069300,0.062703,1.000000,0.000133,0.000078,-0.000060,0.803485,-0.410782,0.041231,-0.428917
