// Start Time: Unknown
// Update Rate: 100.0Hz
// Filter Profile: human (46.1)
// Firmware Version: 4.4.0
PacketCounter,SampleTimeFine,Acc_X,Acc_Y,Acc_Z,FreeAcc_X,FreeAcc_Y,FreeAcc_Z,Gyr_X,Gyr_Y,Gyr_Z,Mag_X,Mag_Y,Mag_Z,VelInc_X,VelInc_Y,VelInc_Z,OriInc_q0,OriInc_q1,OriInc_q2,OriInc_q3,Quat_q0,Quat_q1,Quat_q2,Quat_q3
39050,NaN,7.236093,8.067516,-0.817243,-0.000000,-0.000000,1.055300,-0.595357,-1.593297,-0.346881,0.459717,0.798584,-0.138428,0.072564,0.080526,-0.007835,0.999962,-0.002977,-0.007966,-0.001734,0.348948,-0.142283,-0.718193,-0.584971
39051,NaN,7.032608,7.976707,-0.505428,-0.000000,0.000000,0.833440,-0.601325,-1.661984,-0.629593,0.449219,0.800781,-0.144531,0.070617,0.079531,-0.004708,0.999956,-0.003007,-0.008310,-0.003148,0.389644,-0.091743,-0.716724,-0.571023
39052,NaN,7.167152,7.580715,-0.542064,-0.320449,-0.061449,0.628639,-0.555364,-1.640040,-0.914903,0.438232,0.811523,-0.148926,0.072060,0.075464,-0.005041,0.999952,-0.002777,-0.008200,-0.004574,0.364071,-0.116994,-0.719243,-0.580046
39053,NaN,7.353599,7.544409,-0.880765,-0.485938,-0.405960,0.740327,-0.440625,-1.577821,-1.215366,0.423096,0.815674,-0.151123,0.074060,0.074976,-0.008390,0.999948,-0.002203,-0.007889,-0.006077,0.354596,-0.117996,-0.721511,-0.582890
39054,NaN,7.451249,7.972715,-1.347850,-0.325874,-0.716157,1.154510,-0.255866,-1.483151,-1.528564,0.407959,0.824463,-0.159424,0.075217,0.079137,-0.013024,0.999942,-0.001279,-0.007416,-0.007643,0.344230,-0.116980,-0.724459,-0.585646
39055,NaN,7.408796,8.627399,-1.546499,-0.071803,-0.692351,1.642638,-0.114221,-1.379069,-1.827846,0.390869,0.830811,-0.163818,0.074977,0.085583,-0.014999,0.999934,-0.000571,-0.006895,-0.009139,0.333793,-0.114587,-0.727519,-0.588361
39056,NaN,7.364973,9.081806,-1.416885,-0.085933,-0.415066,1.957767,-0.073628,-1.239604,-2.120844,0.365234,0.839355,-0.166016,0.074693,0.090025,-0.013741,0.999925,-0.000368,-0.006198,-0.010604,0.322883,-0.111168,-0.730997,-0.590789
39057,NaN,7.177758,9.302791,-1.163637,-0.194434,-0.102190,1.992416,-0.148973,-1.053447,-2.400859,0.345947,0.847900,-0.166260,0.072947,0.092148,-0.011323,0.999914,-0.000745,-0.005267,-0.012004,0.311830,-0.105736,-0.733529,-0.594573
39058,NaN,6.935417,8.902473,-0.815249,-0.626297,0.111557,1.483587,-0.316403,-0.819287,-2.700153,0.313721,0.858643,-0.166748,0.070580,0.088065,-0.008005,0.999899,-0.001582,-0.004096,-0.013500,0.300307,-0.099384,-0.735123,-0.599610
39059,NaN,7.047079,8.234594,-0.868282,-1.342963,-0.233651,0.974173,-0.593185,-0.579456,-3.011503,0.292236,0.871582,-0.162842,0.071725,0.081246,-0.008718,0.999878,-0.002966,-0.002897,-0.015057,0.288818,-0.090931,-0.735622,-0.605951
39060,NaN,7.298242,7.338426,-1.265401,-2.152487,-1.020642,0.337812,-0.846603,-0.278768,-3.311527,0.261963,0.884521,-0.150879,0.074201,0.072108,-0.012858,0.999853,-0.004233,-0.001394,-0.016557,0.277361,-0.081895,-0.734499,-0.613902
39061,NaN,7.574075,6.149979,-1.564964,-3.141764,-1.806958,-0.620807,-1.018074,0.024500,-3.626191,0.225830,0.893066,-0.147217,0.076836,0.060032,-0.015967,0.999823,-0.005090,0.000122,-0.018130,0.265855,-0.069901,-0.732695,-0.622570
39062,NaN,8.339768,4.470706,-1.745594,-4.729447,-2.648300,-1.863347,-1.114223,0.308649,-3.919804,0.185303,0.901611,-0.139404,0.084224,0.042963,-0.017828,0.999791,-0.005571,0.001543,-0.019598,0.253872,-0.060094,-0.729866,-0.631849
39063,NaN,9.229351,2.659588,-1.331165,-6.606138,-2.993740,-3.377791,-1.132914,0.604468,-4.182773,0.153320,0.910400,-0.127441,0.092781,0.024582,-0.013735,0.999761,-0.005664,0.003022,-0.020912,0.242464,-0.044345,-0.726602,-0.641323
39064,NaN,10.013293,1.171588,-0.942064,-8.163358,-3.085093,-4.679476,-1.100648,0.889650,-4.412914,0.106201,0.921143,-0.113525,0.100315,0.009450,-0.009923,0.999732,-0.005503,0.004448,-0.022063,0.229593,-0.036878,-0.723756,-0.649695
39065,NaN,10.480945,-0.755920,-0.494894,-9.518639,-3.244952,-6.728586,-0.923738,1.223588,-4.547392,0.072266,0.927490,-0.101318,0.104568,-0.009963,-0.005547,0.999712,-0.004618,0.006117,-0.022735,0.219013,-0.017499,-0.719981,-0.658296
39066,NaN,11.091936,-5.192263,0.238418,-11.785356,-3.125632,-10.976622,-0.467842,1.530162,-4.650736,0.027588,0.929932,-0.101562,0.109687,-0.054479,0.001667,0.999698,-0.002339,0.007650,-0.023251,0.206064,-0.013888,-0.718763,-0.663871
39067,NaN,13.586113,-13.133384,0.591404,-16.213960,-4.509712,-18.421576,0.133846,1.773781,-4.867298,-0.018799,0.925781,-0.107910,0.132657,-0.134592,0.004639,0.999664,0.000669,0.008868,-0.024334,0.196224,0.009632,-0.717476,-0.668305
39068,NaN,17.554594,-22.770841,1.800804,-22.626954,-5.114645,-26.888648,0.474775,1.977054,-5.098333,-0.061035,0.921875,-0.116211,0.169829,-0.232126,0.015763,0.999623,0.002374,0.009884,-0.025488,0.183994,0.009472,-0.720481,-0.668554
39069,NaN,20.102324,-29.803282,3.116668,-25.868786,-5.517991,-34.350532,0.445763,2.228964,-5.202974,-0.105469,0.922119,-0.120605,0.193506,-0.303198,0.028310,0.999597,0.002229,0.011143,-0.026011,0.174537,0.036069,-0.719384,-0.671359
39070,NaN,21.294378,-33.556820,3.093904,-28.100542,-5.732908,-37.493753,0.214117,2.436809,-4.969937,-0.145264,0.909424,-0.122559,0.204872,-0.340758,0.028047,0.999616,0.001070,0.012182,-0.024847,0.168407,0.022867,-0.722008,-0.670687
39071,NaN,21.580348,-37.632986,2.487679,-27.542395,-6.987111,-42.682658,-0.264939,2.604817,-4.404165,-0.179199,0.909668,-0.124756,0.207753,-0.380933,0.022638,0.999672,-0.001325,0.013023,-0.022018,0.163017,0.047268,-0.718186,-0.674834
39072,NaN,23.144408,-40.645738,2.242076,-31.336436,-7.023117,-43.889828,-1.100320,2.665603,-3.581405,-0.202148,0.899170,-0.118408,0.224410,-0.410398,0.021649,0.999736,-0.005501,0.013327,-0.017905,0.166662,0.014576,-0.717309,-0.676372
39073,NaN,20.424766,-39.353991,2.396782,-27.528318,-5.848349,-44.156837,-1.961348,2.923321,-2.868436,-0.227539,0.899170,-0.106445,0.198937,-0.396177,0.024911,0.999742,-0.009806,0.014615,-0.014341,0.167546,0.033110,-0.707847,-0.685408
39074,NaN,15.874832,-37.310830,2.488223,-25.624555,-3.586191,-41.129548,-2.617337,2.936968,-2.204807,-0.239990,0.896973,-0.085938,0.155016,-0.374483,0.027482,0.999746,-0.013086,0.014684,-0.011023,0.186941,-0.006763,-0.698601,-0.690626
39075,NaN,12.553229,-35.343098,2.703033,-21.682307,-1.764464,-40.484059,-2.805360,2.847174,-1.631552,-0.246338,0.896973,-0.061523,0.123061,-0.354033,0.030230,0.999767,-0.014026,0.014235,-0.008157,0.191114,0.006146,-0.686145,-0.701885
39076,NaN,9.106993,-32.241912,3.311693,-20.345185,0.483619,-36.631544,-2.561861,2.763533,-1.148589,-0.254883,0.896973,-0.051270,0.089702,-0.322488,0.036002,0.999806,-0.012808,0.013817,-0.005743,0.216145,-0.032182,-0.673422,-0.706221
39077,NaN,6.138222,-28.201791,3.708069,-16.287228,2.185214,-33.827316,-2.131588,2.699097,-0.805634,-0.261230,0.896973,-0.039062,0.060767,-0.281853,0.039262,0.999844,-0.010657,0.013495,-0.004028,0.222012,-0.022238,-0.663003,-0.714593
39078,NaN,3.794259,-23.645977,3.277062,-14.185889,2.213340,-29.258029,-1.729785,2.656337,-0.510008,-0.257080,0.896973,-0.028809,0.037789,-0.236264,0.034312,0.999871,-0.008649,0.013281,-0.002550,0.275379,-0.019485,-0.639401,-0.717603
39079,NaN,1.843470,-19.261208,2.509104,-10.505728,2.341707,-26.086274,-1.459089,2.653453,-0.274993,-0.263428,0.896973,-0.026611,0.018513,-0.192449,0.026250,0.999884,-0.007295,0.013267,-0.001375,0.282701,-0.011093,-0.630465,-0.722821
39080,NaN,-0.050233,-15.276229,1.710871,-7.676740,2.502409,-22.892998,-1.380298,2.608287,-0.108124,-0.259277,0.898926,-0.018555,-0.000353,-0.152639,0.018168,0.999891,-0.006901,0.013041,-0.000541,0.299911,-0.027203,-0.613940,-0.729651
39081,NaN,-1.689980,-12.019956,1.049750,-4.664971,2.529517,-20.779594,-1.428766,2.536407,-0.031928,-0.254883,0.896973,-0.004150,-0.016777,-0.120117,0.011569,0.999894,-0.007144,0.012682,-0.000160,0.307354,-0.019992,-0.604864,-0.734352
39082,NaN,-3.301017,-9.147858,0.575409,-2.208286,2.757221,-18.891668,-1.626009,2.457998,-0.046214,-0.254883,0.896729,0.006104,-0.032951,-0.091418,0.006903,0.999891,-0.008130,0.012290,-0.000231,0.319712,-0.031925,-0.590213,-0.740549
39083,NaN,-4.820595,-6.782230,0.041644,0.309539,2.916301,-17.599417,-1.836345,2.362194,-0.129294,-0.252686,0.894775,0.014160,-0.048235,-0.067780,0.001609,0.999888,-0.009181,0.011811,-0.000646,0.325876,-0.025730,-0.579592,-0.746469
39084,NaN,-5.928995,-5.297073,-0.294785,1.859529,3.120262,-16.890843,-1.975824,2.220888,-0.228974,-0.257080,0.898926,0.018311,-0.059375,-0.052924,-0.001766,0.999889,-0.009879,0.011104,-0.001145,0.334237,-0.032238,-0.566126,-0.752826
39085,NaN,-6.674031,-4.807419,-0.528740,2.723425,3.410426,-16.804181,-1.931975,2.063774,-0.316601,-0.267578,0.894775,0.040771,-0.066863,-0.048012,-0.004134,0.999899,-0.009660,0.010319,-0.001583,0.338542,-0.026800,-0.555399,-0.759080
39086,NaN,-7.194781,-5.084200,-0.498762,2.721515,3.987981,-17.198344,-1.670252,1.887374,-0.375832,-0.265381,0.894531,0.051025,-0.072083,-0.050742,-0.003884,0.999919,-0.008351,0.009437,-0.001879,0.351082,-0.027357,-0.540421,-0.764158
39087,NaN,-7.571635,-4.937428,-0.352451,3.001117,4.463084,-17.086133,-1.306565,1.709729,-0.389029,-0.269531,0.892578,0.055176,-0.075837,-0.049246,-0.002555,0.999940,-0.006533,0.008548,-0.001945,0.354016,-0.022066,-0.532449,-0.768560
39088,NaN,-8.257436,-3.627602,-0.152523,4.070247,4.909304,-16.192149,-1.015397,1.535064,-0.334540,-0.269287,0.888184,0.067383,-0.082642,-0.036143,-0.000707,0.999956,-0.005077,0.007675,-0.001673,0.359533,-0.024075,-0.521310,-0.773558
39089,NaN,-9.075117,-1.733325,-0.019193,5.703433,5.200895,-14.890339,-0.768577,1.317956,-0.264806,-0.271484,0.890381,0.065430,-0.090772,-0.017212,0.000472,0.999970,-0.003843,0.006590,-0.001324,0.361841,-0.019669,-0.515985,-0.776173
39090,NaN,-9.584328,-0.261136,-0.121479,6.888059,5.221940,-13.963271,-0.623698,1.071909,-0.173280,-0.275391,0.881836,0.071777,-0.095850,-0.002531,-0.000693,0.999980,-0.003118,0.005360,-0.000866,0.367479,-0.019247,-0.506865,-0.779536
39091,NaN,-9.723825,0.427138,-0.402252,7.469851,4.996533,-13.572015,-0.560045,0.804573,-0.041635,-0.281982,0.884033,0.071533,-0.097253,0.004281,-0.003643,0.999988,-0.002800,0.004023,-0.000208,0.369298,-0.017035,-0.503201,-0.781100
39093,NaN,-9.437053,0.309047,-0.269071,14.243919,10.025194,-17.127573,-0.568422,0.391211,0.203719,-0.269287,0.885986,0.081787,-0.188772,0.005768,-0.004677,0.999974,-0.005684,0.003912,0.002037,0.371736,-0.019432,-0.493984,-0.785758
39094,NaN,-8.791247,0.281215,-0.007880,6.516652,4.898279,-13.114982,-0.699026,-0.007881,0.431296,-0.271484,0.885986,0.090088,-0.087918,0.002622,-0.000092,0.999992,-0.003495,-0.000039,0.002156,0.373341,-0.021828,-0.491205,-0.786675
39095,NaN,-8.302489,0.285009,0.311208,6.000155,4.938587,-12.765261,-0.724871,-0.264606,0.552240,-0.262695,0.881836,0.096191,-0.083036,0.002632,0.002992,0.999989,-0.003624,-0.001323,0.002761,0.378298,-0.024381,-0.482974,-0.789324
39096,NaN,-7.690453,-0.246733,0.673369,5.099322,4.990452,-12.770626,-0.696902,-0.490052,0.644445,-0.256348,0.879639,0.104492,-0.076912,-0.002692,0.006554,0.999986,-0.003484,-0.002450,0.003222,0.379568,-0.029191,-0.481064,-0.789717
39097,NaN,-7.182242,-0.965943,0.889892,4.173415,5.088674,-12.974523,-0.610517,-0.704042,0.721182,-0.250244,0.883789,0.110596,-0.071818,-0.009892,0.008676,0.999983,-0.003053,-0.003520,0.003606,0.383091,-0.031541,-0.475227,-0.791458
39098,NaN,-6.942858,-1.548812,1.001448,3.581926,5.157983,-13.301173,-0.481542,-0.914811,0.813631,-0.243652,0.879395,0.114746,-0.069410,-0.015747,0.009735,0.999978,-0.002408,-0.004574,0.004068,0.384054,-0.038018,-0.474934,-0.790883
39099,NaN,-6.610149,-2.223399,1.090418,2.828534,5.239731,-13.603534,-0.297295,-1.133672,0.924827,-0.235352,0.885742,0.120850,-0.066058,-0.022524,0.010563,0.999972,-0.001486,-0.005668,0.004624,0.388101,-0.041281,-0.470740,-0.791251
39100,NaN,-6.395098,-2.845045,0.922700,2.296887,5.094537,-14.126850,-0.164764,-1.356274,1.042573,-0.224609,0.881592,0.116943,-0.063862,-0.028776,0.008817,0.999963,-0.000824,-0.006781,0.005213,0.388986,-0.049421,-0.472486,-0.789307
39101,NaN,-6.099835,-3.617840,0.537247,1.594092,4.839637,-14.774628,-0.010857,-1.583387,1.188705,-0.209961,0.885742,0.123047,-0.060822,-0.036540,0.004892,0.999951,-0.000054,-0.007917,0.005943,0.395335,-0.052873,-0.470205,-0.787288
39102,NaN,-5.556331,-4.737574,0.231624,0.506735,4.476598,-15.563574,0.100951,-1.795537,1.332906,-0.193115,0.887695,0.121094,-0.055264,-0.047746,0.001795,0.999937,0.000505,-0.008977,0.006664,0.396363,-0.062874,-0.473768,-0.783892
39103,NaN,-5.004184,-6.109182,0.117873,-0.925688,4.374297,-16.323009,0.218074,-1.988449,1.496869,-0.178223,0.887695,0.121094,-0.049591,-0.061465,0.000617,0.999922,0.001090,-0.009942,0.007484,0.405450,-0.066622,-0.472631,-0.779610
39104,NaN,-3.902937,-8.442768,0.090933,-3.361607,4.111874,-17.448826,0.346942,-2.157157,1.646822,-0.159180,0.885498,0.123291,-0.038338,-0.084746,0.000347,0.999906,0.001735,-0.010785,0.008234,0.406850,-0.078214,-0.477762,-0.774661
39105,NaN,-2.835859,-11.411327,-0.345211,-6.240493,3.645107,-19.094067,0.397289,-2.295668,1.818981,-0.144531,0.887451,0.117188,-0.027275,-0.114357,-0.003996,0.999891,0.001986,-0.011478,0.009095,0.416815,-0.082968,-0.478058,-0.768663
39106,NaN,-2.263505,-15.038042,-0.839251,-9.256061,3.398555,-21.420253,0.477700,-2.419282,2.002918,-0.121338,0.891602,0.113037,-0.021021,-0.150575,-0.009013,0.999874,0.002388,-0.012096,0.010014,0.418876,-0.096049,-0.484042,-0.762247
39107,NaN,-1.666514,-20.660257,-1.092812,-14.033455,3.392050,-24.724129,0.841896,-2.589983,2.160194,-0.098145,0.893799,0.104980,-0.014282,-0.206716,-0.011993,0.999849,0.004209,-0.012949,0.010800,0.432141,-0.100825,-0.486868,-0.752362
39108,NaN,-0.313249,-27.769493,-1.192603,-20.424346,3.090583,-28.411345,1.298354,-2.778583,2.317497,-0.078613,0.883057,0.082764,0.000267,-0.277620,-0.013741,0.999815,0.006491,-0.013892,0.011587,0.434669,-0.114096,-0.496495,-0.742656
39109,NaN,0.944943,-34.263070,-2.293892,-26.322228,1.009743,-31.860867,1.886959,-2.982940,2.643012,-0.057617,0.887207,0.068359,0.014346,-0.342227,-0.025980,0.999757,0.009434,-0.014913,0.013214,0.451814,-0.118651,-0.503298,-0.726964
39110,NaN,2.750547,-39.325013,-3.420067,-31.305041,-1.719979,-33.948605,2.368487,-3.145265,3.146805,-0.026123,0.891602,0.043945,0.034265,-0.392309,-0.038347,0.999682,0.011841,-0.015725,0.015732,0.456598,-0.132614,-0.516984,-0.711800
39111,NaN,4.597377,-42.687548,-4.207533,-35.346603,-5.181167,-33.989608,2.605096,-3.241566,3.590011,0.007812,0.889160,0.027832,0.054352,-0.425361,-0.046787,0.999623,0.013024,-0.016206,0.017948,0.474528,-0.143159,-0.525008,-0.691878
39113,NaN,9.740626,-46.474181,-5.221628,-82.488021,-22.401642,-52.414514,2.389156,-3.222613,4.104872,0.073975,0.878418,-0.018799,0.236342,-0.917614,-0.119285,0.998353,0.023878,-0.032208,0.041026,0.488640,-0.175416,-0.550074,-0.654124
39114,NaN,14.756050,-48.318386,-6.155188,-45.495995,-17.029232,-24.974799,2.314497,-2.940311,4.346403,0.107910,0.872070,-0.034912,0.158940,-0.479074,-0.064831,0.999589,0.011571,-0.014700,0.021729,0.505867,-0.196540,-0.553693,-0.631581
39115,NaN,16.606902,-44.873765,-5.878698,-43.383510,-18.554418,-19.667820,2.389960,-2.612539,4.451879,0.146240,0.865479,-0.059082,0.176785,-0.444155,-0.061850,0.999596,0.011948,-0.013061,0.022256,0.514835,-0.210989,-0.563247,-0.610886
39116,NaN,16.690341,-38.807530,-4.988082,-38.334476,-18.104912,-13.243151,2.205175,-2.232078,4.609972,0.188965,0.859131,-0.073242,0.176353,-0.383516,-0.052193,0.999611,0.011024,-0.011159,0.023047,0.534586,-0.234354,-0.563683,-0.584429
39117,NaN,15.552796,-31.751816,-4.283492,-31.620645,-16.374021,-9.398308,1.641861,-1.885295,4.758040,0.225342,0.843994,-0.089111,0.163427,-0.313335,-0.043903,0.999639,0.008208,-0.009425,0.023787,0.544905,-0.248800,-0.567739,-0.564668
39118,NaN,14.092394,-25.356429,-4.540960,-24.910438,-15.028132,-5.861687,1.021105,-1.659725,4.751451,0.263916,0.831055,-0.092773,0.147267,-0.249883,-0.045487,0.999670,0.005105,-0.008298,0.023755,0.563699,-0.275516,-0.562223,-0.538739
39119,NaN,12.955750,-20.160856,-4.268772,-19.639005,-13.179189,-4.064874,0.517895,-1.544766,4.605703,0.297852,0.828857,-0.092529,0.134479,-0.198440,-0.042178,0.999702,0.002589,-0.007723,0.023026,0.572306,-0.291083,-0.561458,-0.522017
39120,NaN,11.976950,-15.539174,-3.374324,-14.933369,-10.640245,-2.066121,0.134670,-1.488758,4.373422,0.328125,0.811768,-0.096191,0.123376,-0.152698,-0.032937,0.999733,0.000673,-0.007443,0.021865,0.586389,-0.317974,-0.553426,-0.498759
39121,NaN,10.967372,-11.247969,-2.362110,-10.806977,-8.026410,-1.379004,-0.113828,-1.440781,4.046454,0.358154,0.796875,-0.099854,0.112085,-0.110241,-0.022756,0.999769,-0.000569,-0.007203,0.020231,0.592175,-0.333027,-0.550804,-0.484807
39122,NaN,9.912100,-7.554012,-1.715501,-6.959458,-5.778401,-1.071323,-0.176605,-1.377705,3.677850,0.384277,0.779785,-0.099609,0.100603,-0.073714,-0.016400,0.999807,-0.000883,-0.006888,0.018388,0.601571,-0.356375,-0.543071,-0.464954
39123,NaN,9.089318,-4.685541,-1.230734,-4.120519,-4.094450,-1.307958,-0.050634,-1.333897,3.282110,0.414307,0.769043,-0.099121,0.091725,-0.045358,-0.011686,0.999843,-0.000253,-0.006669,0.016410,0.605393,-0.368488,-0.541031,-0.452771
39124,NaN,8.621445,-2.432085,-0.763211,-1.763546,-2.617660,-1.394963,0.102219,-1.254576,2.851396,0.433594,0.758301,-0.107178,0.086595,-0.023084,-0.007102,0.999879,0.000511,-0.006273,0.014256,0.611638,-0.385923,-0.535623,-0.435970
39125,NaN,8.361384,-0.535039,-0.538595,0.130691,-1.602994,-1.572651,0.288181,-1.189396,2.395274,0.446533,0.749756,-0.111084,0.083700,-0.004341,-0.004895,0.999910,0.001441,-0.005947,0.011976,0.614173,-0.394018,-0.535217,-0.425540
39126,NaN,8.458365,1.308929,-0.633410,2.161655,-0.892838,-1.555246,0.384340,-1.153510,1.929174,0.461914,0.739014,-0.116943,0.084487,0.013916,-0.005820,0.999935,0.001922,-0.005767,0.009646,0.617899,-0.405707,-0.532586,-0.412255
39127,NaN,8.587643,3.188822,-0.844751,4.113675,-0.328008,-1.590926,0.419196,-1.144389,1.460817,0.468262,0.734863,-0.125000,0.085687,0.032531,-0.007889,0.999955,0.002096,-0.005722,0.007304,0.618684,-0.410646,-0.533997,-0.404286
39128,NaN,8.536156,4.960478,-0.817408,5.901352,0.472257,-1.869799,0.354649,-1.161396,1.047736,0.470459,0.730469,-0.135254,0.085145,0.050065,-0.007591,0.999968,0.001773,-0.005807,0.005239,0.619673,-0.418422,-0.533841,-0.394896
39129,NaN,8.168372,6.455494,-0.604742,7.214241,1.327513,-2.399696,0.214812,-1.202349,0.674810,0.477295,0.722168,-0.135010,0.081499,0.064836,-0.005488,0.999976,0.001074,-0.006012,0.003374,0.618228,-0.421926,-0.536564,-0.389707
39130,NaN,7.659023,7.471388,-0.327606,8.056403,2.073290,-3.075880,0.023603,-1.213073,0.364615,0.476807,0.730469,-0.141357,0.076472,0.074854,-0.002803,0.999980,0.000118,-0.006065,0.001823,0.616509,-0.427731,-0.537996,-0.384087
39131,NaN,6.951623,8.147808,-0.297123,8.576666,2.423399,-3.865615,-0.185079,-1.188179,0.128072,0.477051,0.724121,-0.136963,0.069480,0.081520,-0.002634,0.999982,-0.000925,-0.005941,0.000640,0.613150,-0.430925,-0.541018,-0.381642
39132,NaN,6.285223,8.390630,-0.544523,8.809704,2.328538,-4.600197,-0.352407,-1.145294,-0.095075,0.472656,0.730713,-0.143311,0.062922,0.083867,-0.005233,0.999982,-0.001762,-0.005726,-0.000475,0.609598,-0.435556,-0.543012,-0.379235
39133,NaN,5.842662,8.347826,-0.871907,8.801181,2.029088,-5.016343,-0.427883,-1.084633,-0.323992,0.468262,0.732666,-0.143311,0.058609,0.083365,-0.008580,0.999982,-0.002139,-0.005423,-0.001620,0.605094,-0.438033,-0.546201,-0.379016
39134,NaN,5.303798,7.979647,-1.199374,8.483269,1.602240,-5.487170,-0.423796,-1.010814,-0.578464,0.459717,0.734863,-0.143555,0.053329,0.079617,-0.011894,0.999981,-0.002119,-0.005054,-0.002892,0.600595,-0.440643,-0.549074,-0.378995
39135,NaN,5.289603,7.648157,-1.472280,8.219563,1.243833,-5.393104,-0.376848,-0.954442,-0.845914,0.453125,0.743408,-0.151855,0.053289,0.076229,-0.014613,0.999978,-0.001884,-0.004772,-0.004230,0.595526,-0.441256,-0.553075,-0.380460
39136,NaN,5.633603,7.622636,-1.658383,8.242374,1.080124,-4.966281,-0.271912,-0.882657,-1.098444,0.444580,0.747803,-0.143799,0.056826,0.075893,-0.016437,0.999974,-0.001360,-0.004413,-0.005492,0.590521,-0.441301,-0.557239,-0.382129
39137,NaN,5.618777,7.716737,-1.636277,8.255371,1.138695,-4.878450,-0.185237,-0.746968,-1.309635,0.431641,0.751953,-0.149902,0.056752,0.076782,-0.016223,0.999971,-0.000926,-0.003735,-0.006548,0.585510,-0.439618,-0.561962,-0.384854
39138,NaN,5.196899,7.507436,-1.338672,7.861401,1.337525,-5.168451,-0.155777,-0.582700,-1.542810,0.410156,0.762695,-0.152344,0.052585,0.074660,-0.013292,0.999966,-0.000779,-0.002913,-0.007714,0.580561,-0.437187,-0.566582,-0.388332
39139,NaN,4.976867,6.952539,-0.805422,7.074756,1.647332,-5.231452,-0.194452,-0.395141,-1.821689,0.397217,0.769043,-0.144287,0.050415,0.069060,-0.008022,0.999956,-0.000972,-0.001976,-0.009108,0.575452,-0.433343,-0.571306,-0.393290
39140,NaN,4.880324,6.206388,-0.531569,6.190486,1.641463,-5.165049,-0.284727,-0.195604,-2.088113,0.384277,0.779785,-0.142578,0.049453,0.061542,-0.005355,0.999944,-0.001424,-0.000978,-0.010440,0.570095,-0.428689,-0.575774,-0.399627
39141,NaN,5.082505,5.453959,-0.544754,5.383219,1.357443,-4.807700,-0.359549,-0.001152,-2.373427,0.364746,0.792725,-0.140869,0.051467,0.053921,-0.005545,0.999928,-0.001798,-0.000006,-0.011867,0.564536,-0.422857,-0.580103,-0.407397
39142,NaN,5.502488,5.005261,-0.760901,4.898925,0.961785,-4.246622,-0.445039,0.213847,-2.659154,0.343262,0.801270,-0.138916,0.055675,0.049298,-0.007779,0.999909,-0.002225,0.001069,-0.013295,0.558681,-0.415907,-0.584207,-0.416651
39143,NaN,5.838150,4.979076,-1.126076,4.829131,0.524477,-3.767597,-0.560069,0.419945,-2.936332,0.315186,0.816162,-0.129150,0.059080,0.048895,-0.011522,0.999886,-0.002800,0.002100,-0.014681,0.552561,-0.407977,-0.587905,-0.427316
39144,NaN,6.284207,4.855965,-1.633244,4.662511,-0.111773,-3.180818,-0.741897,0.623594,-3.182018,0.285156,0.826904,-0.113037,0.063552,0.047491,-0.016707,0.999862,-0.003709,0.003118,-0.015909,0.545909,-0.399190,-0.591095,-0.439588
39145,NaN,6.730244,3.994788,-2.165926,3.756277,-1.025863,-2.686902,-0.891773,0.809478,-3.385380,0.253174,0.835449,-0.107178,0.067876,0.038704,-0.022108,0.999839,-0.004459,0.004047,-0.016926,0.538991,-0.389780,-0.593585,-0.453009
39146,NaN,7.311644,2.215158,-2.453608,1.839310,-1.989993,-2.260440,-0.947072,0.973446,-3.568979,0.229492,0.846191,-0.099365,0.073374,0.020726,-0.024993,0.999818,-0.004735,0.004867,-0.017844,0.531689,-0.379375,-0.595783,-0.467359
39147,NaN,7.845181,0.221897,-2.089898,-0.490915,-2.386013,-2.065374,-0.890049,1.190007,-3.731451,0.197510,0.852783,-0.087402,0.078348,0.000662,-0.021371,0.999798,-0.004450,0.005950,-0.018656,0.524718,-0.367774,-0.597495,-0.482093
39148,NaN,8.191113,-2.517092,-1.914518,-3.460507,-3.138407,-2.379047,-0.657767,1.447581,-3.975024,0.152832,0.863525,-0.087646,0.081248,-0.026854,-0.019648,0.999771,-0.003289,0.007237,-0.019874,0.517901,-0.354074,-0.599404,-0.497117
39149,NaN,10.586716,-7.069813,-2.239300,-8.456194,-5.033413,-1.434064,-0.187662,1.579889,-4.487680,0.114502,0.870117,-0.085938,0.104064,-0.073068,-0.023152,0.999717,-0.000938,0.007899,-0.022436,0.511002,-0.337090,-0.602618,-0.511956
39150,NaN,14.409638,-12.937513,-1.861424,-15.344863,-6.849959,-0.014413,0.104207,1.737246,-5.050504,0.071777,0.878662,-0.080078,0.140600,-0.132945,-0.019914,0.999643,0.000521,0.008685,-0.025250,0.503038,-0.317310,-0.606828,-0.527283
39151,NaN,17.648132,-19.490660,-1.252726,-22.885102,-8.704134,-0.157152,0.157829,1.928397,-5.541910,0.023193,0.876709,-0.082275,0.170859,-0.199683,-0.014349,0.999569,0.000789,0.009641,-0.027706,0.494312,-0.294885,-0.610921,-0.543574
39152,NaN,20.415036,-27.066375,-0.309873,-31.289475,-10.427096,-1.978815,0.067023,2.000582,-5.749361,-0.025635,0.881348,-0.082764,0.196214,-0.276379,-0.005180,0.999537,0.000335,0.010001,-0.028742,0.484431,-0.272372,-0.614356,-0.560095
39153,NaN,23.898689,-36.082735,0.800239,-41.152286,-12.397908,-4.707747,-0.332659,1.995983,-5.472839,-0.074463,0.879395,-0.080811,0.229065,-0.367175,0.006290,0.999574,-0.001663,0.009978,-0.027360,0.474577,-0.250669,-0.615779,-0.576852
39154,NaN,26.368012,-43.815743,2.128269,-49.392627,-13.309248,-8.261216,-0.855874,2.173248,-4.604083,-0.107910,0.870850,-0.066406,0.253728,-0.443987,0.020381,0.999667,-0.004279,0.010865,-0.023018,0.466650,-0.233760,-0.613604,-0.592524
39156,NaN,21.907533,-44.705174,3.331628,-96.933400,-21.403010,-19.888224,-1.591930,2.516353,-3.027826,-0.150146,0.866699,-0.041992,0.412578,-0.905755,0.070394,0.999098,-0.015915,0.025156,-0.030269,0.460009,-0.207501,-0.598955,-0.621762
39157,NaN,15.520950,-39.535285,3.091535,-41.024133,-7.289920,-18.605577,-2.222095,2.559235,-1.854039,-0.162842,0.866699,-0.023682,0.151954,-0.396410,0.033358,0.999813,-0.011110,0.012795,-0.009270,0.459749,-0.202048,-0.587594,-0.634461
39158,NaN,12.296055,-35.457628,3.035102,-36.065604,-5.153849,-19.316564,-2.178327,2.431650,-1.401959,-0.175293,0.860352,-0.015381,0.120861,-0.355081,0.032739,0.999842,-0.010891,0.012158,-0.007009,0.460172,-0.195196,-0.576415,-0.646441
39159,NaN,9.425618,-30.776171,3.451032,-30.974056,-2.718705,-18.819474,-2.022755,2.380141,-1.108737,-0.186279,0.871094,0.002686,0.092976,-0.307917,0.036513,0.999863,-0.010113,0.011900,-0.005543,0.461827,-0.192274,-0.564878,-0.656247
39160,NaN,6.956453,-26.258154,3.526359,-26.048478,-0.996606,-18.226498,-1.794820,2.397722,-0.872268,-0.188232,0.866699,0.015137,0.068854,-0.262557,0.036792,0.999878,-0.008974,0.011988,-0.004361,0.463956,-0.186069,-0.554219,-0.665556
39161,NaN,4.968651,-22.395000,3.155063,-21.828964,-0.033139,-17.537247,-1.498612,2.389851,-0.649222,-0.190186,0.864746,0.023193,0.049345,-0.223869,0.032637,0.999895,-0.007493,0.011949,-0.003246,0.467581,-0.183141,-0.543561,-0.672584
39162,NaN,3.189434,-18.832761,2.614098,-17.868769,0.533668,-17.030650,-1.259141,2.427637,-0.442858,-0.192383,0.866699,0.029297,0.031801,-0.188230,0.026940,0.999904,-0.006296,0.012138,-0.002214,0.471492,-0.176706,-0.534001,-0.679200
39163,NaN,1.201249,-15.222213,2.021561,-13.797890,1.105897,-16.568351,-1.123009,2.467090,-0.328042,-0.194336,0.858154,0.037598,0.012018,-0.152126,0.020922,0.999907,-0.005615,0.012335,-0.001640,0.476681,-0.173300,-0.523820,-0.684365
39164,NaN,-0.594545,-11.787170,1.567208,-9.964123,1.688119,-16.106471,-1.108500,2.470736,-0.320099,-0.196777,0.868896,0.045654,-0.005934,-0.117773,0.016398,0.999907,-0.005542,0.012353,-0.001600,0.481053,-0.166640,-0.514363,-0.690108
39165,NaN,-2.041036,-8.956938,1.023682,-6.811065,2.035657,-15.720646,-1.151813,2.423973,-0.441629,-0.202881,0.862549,0.047852,-0.020478,-0.089462,0.011000,0.999908,-0.005759,0.012119,-0.002208,0.485589,-0.162856,-0.504020,-0.695446
39166,NaN,-3.197474,-6.822221,0.436319,-4.325682,2.224810,-15.582723,-1.239860,2.381100,-0.613085,-0.202881,0.860352,0.060059,-0.032125,-0.068094,0.005167,0.999905,-0.006199,0.011905,-0.003065,0.488404,-0.156033,-0.494376,-0.701932
39167,NaN,-4.345501,-5.182029,-0.148382,-2.281514,2.436828,-15.695940,-1.366991,2.332936,-0.790348,-0.213379,0.860352,0.074463,-0.043670,-0.051654,-0.000622,0.999901,-0.006835,0.011664,-0.003952,0.491136,-0.151859,-0.483575,-0.708434
39168,NaN,-5.394111,-4.330589,-0.530175,-0.962295,2.824187,-16.075779,-1.411391,2.255242,-0.926593,-0.223877,0.860352,0.078369,-0.054194,-0.043088,-0.004387,0.999901,-0.007057,0.011276,-0.004633,0.492189,-0.145088,-0.473690,-0.715764
39169,NaN,-6.295661,-4.002833,-0.639155,-0.244662,3.397444,-16.480554,-1.449275,2.144130,-1.021461,-0.238525,0.852051,0.082520,-0.063222,-0.039748,-0.005426,0.999903,-0.007246,0.010720,-0.005107,0.493351,-0.140803,-0.463079,-0.722729
39170,NaN,-6.934495,-3.532674,-0.498862,0.444681,4.023938,-16.477702,-1.517104,2.010160,-1.048166,-0.244629,0.845459,0.103027,-0.069573,-0.034995,-0.004024,0.999907,-0.007585,0.010050,-0.005241,0.493107,-0.134848,-0.453329,-0.730174
39171,NaN,-7.882956,-2.689339,-0.142959,1.523000,4.948471,-16.338301,-1.504551,1.840599,-1.010283,-0.259521,0.849854,0.113281,-0.078972,-0.026501,-0.000503,0.999917,-0.007523,0.009203,-0.005051,0.493362,-0.131328,-0.443140,-0.736868
39172,NaN,-8.735775,-2.184516,0.358517,2.271206,5.944217,-16.193850,-1.342281,1.622169,-0.939335,-0.267822,0.845703,0.117188,-0.087425,-0.021407,0.004439,0.999934,-0.006711,0.008111,-0.004697,0.492585,-0.126579,-0.434777,-0.743174
39173,NaN,-9.424522,-1.765957,0.181106,3.011940,6.299935,-16.386088,-1.225313,1.376010,-0.829981,-0.274170,0.841309,0.125488,-0.094301,-0.017254,0.002566,0.999949,-0.006126,0.006880,-0.004150,0.492551,-0.123956,-0.426553,-0.748385
39174,NaN,-9.871512,-1.109726,-0.386741,3.948436,6.151436,-16.550341,-1.056832,1.097044,-0.665985,-0.282471,0.834961,0.129639,-0.098770,-0.010787,-0.003268,0.999965,-0.005284,0.005485,-0.003330,0.491731,-0.121036,-0.420291,-0.752932
39175,NaN,-10.268081,-0.479712,-0.990840,4.811214,5.930521,-16.764361,-0.876432,0.801060,-0.456944,-0.284668,0.839355,0.133789,-0.102730,-0.004605,-0.009477,0.999980,-0.004382,0.004005,-0.002285,0.492053,-0.120020,-0.414519,-0.756077
39176,NaN,-10.059020,-0.386982,-0.976188,4.796472,5.841896,-16.532244,-0.648883,0.474136,-0.247602,-0.284668,0.843506,0.141846,-0.100618,-0.003776,-0.009511,0.999991,-0.003244,0.002371,-0.001238,0.491710,-0.119317,-0.411040,-0.758308
39177,NaN,-9.417130,-0.961137,-0.632385,3.904563,5.818530,-16.208397,-0.504500,0.153618,-0.060296,-0.286621,0.839355,0.144043,-0.094179,-0.009599,-0.006227,0.999996,-0.002522,0.000768,-0.000301,0.492402,-0.120264,-0.408050,-0.759323
39178,NaN,-8.750505,-1.433099,-0.357964,3.115870,5.679611,-15.877883,-0.430587,-0.135190,0.104306,-0.280273,0.837158,0.148193,-0.087495,-0.014384,-0.003608,0.999997,-0.002153,-0.000676,0.000522,0.492267,-0.122057,-0.406679,-0.759860
39179,NaN,-8.396424,-1.366925,-0.035658,2.901723,5.673602,-15.448272,-0.369883,-0.405408,0.267190,-0.282471,0.837158,0.156250,-0.083945,-0.013782,-0.000501,0.999995,-0.001849,-0.002027,0.001336,0.493154,-0.125163,-0.405401,-0.759463
39180,NaN,-8.070898,-1.316838,0.326109,2.695390,5.694642,-15.036235,-0.266943,-0.656792,0.387542,-0.278076,0.836914,0.166504,-0.080693,-0.013321,0.003014,0.999992,-0.001335,-0.003284,0.001938,0.493127,-0.129107,-0.405756,-0.758630
39181,NaN,-7.618290,-1.518878,0.823616,2.171456,5.782630,-14.594863,-0.189036,-0.869622,0.481297,-0.273926,0.836914,0.172607,-0.076181,-0.015365,0.007919,0.999987,-0.000945,-0.004348,0.002406,0.494005,-0.133724,-0.406187,-0.757027
39182,NaN,-7.053300,-1.984788,1.164656,1.417250,5.717571,-14.323239,-0.125262,-1.047408,0.573004,-0.267822,0.841309,0.172607,-0.070536,-0.020043,0.011290,0.999982,-0.000626,-0.005237,0.002865,0.493958,-0.139167,-0.407904,-0.755150
39183,NaN,-6.560807,-2.693543,1.105612,0.549709,5.445680,-14.456333,-0.024220,-1.209896,0.677369,-0.259033,0.836914,0.170654,-0.065582,-0.027156,0.010663,0.999976,-0.000121,-0.006049,0.003387,0.494994,-0.144866,-0.409659,-0.752446
39184,NaN,-6.006375,-3.428635,0.469325,-0.256256,4.680161,-14.919732,0.119591,-1.375925,0.809456,-0.246582,0.838867,0.172852,-0.059955,-0.034532,0.004260,0.999968,0.000598,-0.006880,0.004047,0.495296,-0.151407,-0.412910,-0.749175
39185,NaN,-5.466851,-4.098604,0.112841,-1.075429,4.112762,-15.162950,0.300685,-1.513721,0.941303,-0.240234,0.845215,0.176758,-0.054481,-0.041244,0.000654,0.999959,0.001503,-0.007568,0.004706,0.496899,-0.157842,-0.416418,-0.744831
39186,NaN,-4.732856,-4.964243,0.006035,-2.193959,3.625510,-15.205700,0.463928,-1.640236,1.080942,-0.227783,0.849609,0.178711,-0.047057,-0.049897,-0.000442,0.999949,0.002320,-0.008201,0.005405,0.497854,-0.165048,-0.421341,-0.739846
39187,NaN,-3.847952,-6.242918,0.249287,-3.818828,3.371528,-15.093864,0.520431,-1.735209,1.207426,-0.217285,0.849365,0.178711,-0.038120,-0.062666,0.001998,0.999941,0.002602,-0.008676,0.006037,0.500055,-0.172225,-0.425961,-0.734057
39188,NaN,-3.081143,-7.563632,-0.012534,-5.335931,2.776622,-15.337069,0.349174,-1.807971,1.328595,-0.206787,0.851562,0.176758,-0.030304,-0.075838,-0.000533,0.999936,0.001746,-0.009040,0.006643,0.501353,-0.180814,-0.430586,-0.728387
39189,NaN,-3.032150,-9.303904,-0.673069,-6.874949,2.304937,-16.417958,0.142881,-1.862314,1.431192,-0.187744,0.855713,0.180908,-0.029590,-0.093248,-0.007075,0.999931,0.000714,-0.009311,0.007156,0.503641,-0.189833,-0.433874,-0.722539
39190,NaN,-2.997467,-13.263833,-1.310930,-10.419703,2.064579,-18.403112,0.197710,-1.940196,1.413488,-0.173096,0.859863,0.180908,-0.028906,-0.132832,-0.013524,0.999927,0.000989,-0.009701,0.007067,0.504693,-0.199405,-0.438095,-0.716656
39191,NaN,-2.016963,-20.115666,-1.543456,-17.067695,1.826878,-20.603342,0.422548,-2.096776,1.291875,-0.164551,0.859863,0.174805,-0.018704,-0.201247,-0.016061,0.999922,0.002113,-0.010484,0.006459,0.506115,-0.208257,-0.443007,-0.710085
39192,NaN,-0.077324,-28.580128,-2.077213,-25.527802,0.814771,-22.804745,0.752462,-2.314096,1.288779,-0.139404,0.864014,0.172852,0.001317,-0.285716,-0.021840,0.999905,0.003762,-0.011570,0.006444,0.506304,-0.217411,-0.450145,-0.702679
39193,NaN,1.927583,-36.496088,-2.649452,-33.558164,-0.629032,-24.513266,1.192885,-2.530833,1.561472,-0.128906,0.866211,0.164551,0.022475,-0.364628,-0.028399,0.999872,0.005964,-0.012654,0.007807,0.508432,-0.226539,-0.458347,-0.692890
39194,NaN,4.747068,-43.314151,-2.821277,-40.954710,-2.577582,-24.731509,1.694599,-2.711586,2.003186,-0.105713,0.870361,0.152344,0.052214,-0.432378,-0.031192,0.999822,0.008472,-0.013557,0.010015,0.510990,-0.236183,-0.468753,-0.680719
39195,NaN,8.675607,-47.697418,-3.181485,-46.475883,-5.784426,-22.726932,2.114097,-2.724074,2.442524,-0.074219,0.876465,0.142090,0.093037,-0.475500,-0.035608,0.999777,0.010570,-0.013619,0.012212,0.516556,-0.245844,-0.479137,-0.665701
39196,NaN,12.942773,-48.425848,-4.199862,-48.443234,-9.953692,-18.984972,2.406227,-2.585852,2.870597,-0.044678,0.878662,0.119873,0.136933,-0.481791,-0.046067,0.999741,0.012030,-0.012928,0.014352,0.522743,-0.255057,-0.490165,-0.649172
39197,NaN,16.409507,-46.337826,-5.225723,-47.260146,-13.765524,-14.335031,2.655331,-2.367080,3.205414,-0.010986,0.886963,0.099365,0.172136,-0.459932,-0.056374,0.999713,0.013275,-0.011834,0.016026,0.531884,-0.264258,-0.499802,-0.630448
39198,NaN,17.553103,-41.215257,-5.149479,-42.476890,-15.119519,-10.216171,2.581132,-2.043591,3.416975,0.018555,0.889160,0.083008,0.183080,-0.408373,-0.054937,0.999719,0.012904,-0.010217,0.017083,0.540811,-0.272309,-0.508710,-0.612034
39199,NaN,16.237527,-34.180814,-4.526949,-35.235441,-14.317082,-7.411366,2.045444,-1.722744,3.616946,0.052490,0.886719,0.071045,0.168917,-0.338316,-0.047305,0.999747,0.010226,-0.008613,0.018083,0.551282,-0.282534,-0.513517,-0.593770
39200,NaN,14.291927,-27.860830,-3.676980,-28.631282,-12.574097,-5.811152,1.189625,-1.542438,3.820404,0.094971,0.882324,0.062988,0.148489,-0.275586,-0.037284,0.999770,0.005948,-0.007712,0.019101,0.560220,-0.293587,-0.515778,-0.577869
39201,NaN,13.216642,-23.204353,-3.205307,-23.760559,-11.274364,-4.189436,0.393268,-1.488961,3.887760,0.133301,0.875977,0.059326,0.136878,-0.229351,-0.031498,0.999781,0.001966,-0.007444,0.019437,0.568962,-0.308586,-0.514131,-0.562784
39202,NaN,12.606386,-19.747020,-3.133314,-20.066445,-10.453921,-2.981722,-0.078843,-1.458263,3.788310,0.169434,0.873535,0.065674,0.129997,-0.195045,-0.030318,0.999794,-0.000394,-0.007291,0.018940,0.575637,-0.322597,-0.512100,-0.549843
39203,NaN,11.776501,-16.681078,-2.683854,-16.793807,-9.125852,-2.145690,-0.126031,-1.464469,3.577907,0.201172,0.871338,0.059570,0.120916,-0.164683,-0.025857,0.999813,-0.000630,-0.007322,0.017888,0.582064,-0.338203,-0.508918,-0.536490
39204,NaN,10.926141,-13.359374,-2.048661,-13.355146,-7.561393,-1.658883,0.119897,-1.467525,3.306892,0.229248,0.858398,0.062012,0.111597,-0.131749,-0.019753,0.999836,0.000599,-0.007337,0.016534,0.587310,-0.350160,-0.507828,-0.523990
39205,NaN,10.127338,-9.919074,-1.993732,-9.672447,-6.480838,-1.484977,0.408635,-1.410040,2.990849,0.260986,0.856201,0.058105,0.102879,-0.097620,-0.019416,0.999861,0.002043,-0.007050,0.014954,0.592662,-0.362438,-0.506520,-0.510713
39206,NaN,9.482527,-6.402502,-2.252290,-5.921769,-5.722048,-1.556543,0.620985,-1.402823,2.667056,0.284668,0.845459,0.056396,0.095823,-0.062683,-0.022049,0.999882,0.003105,-0.007014,0.013335,0.596977,-0.370903,-0.507362,-0.498631
39207,NaN,9.210991,-2.988029,-2.211246,-2.365726,-4.704234,-1.390838,0.717315,-1.435095,2.313747,0.308105,0.841309,0.042236,0.092603,-0.028733,-0.021554,0.999901,0.003586,-0.007175,0.011568,0.600688,-0.380409,-0.507895,-0.486318
39208,NaN,9.133727,-0.144297,-1.970753,0.512072,-3.631618,-1.217682,0.701835,-1.475633,1.962115,0.323242,0.832764,0.034180,0.091487,-0.000478,-0.019036,0.999919,0.003509,-0.007378,0.009810,0.603000,-0.386852,-0.510252,-0.475793
39209,NaN,9.296536,1.738616,-1.756839,2.455521,-2.799639,-0.943455,0.588989,-1.494315,1.616657,0.340332,0.830566,0.028320,0.092948,0.018188,-0.016821,0.999935,0.002945,-0.007471,0.008083,0.604313,-0.394875,-0.511871,-0.465691
39210,NaN,9.463488,3.149243,-1.620672,3.895761,-2.156005,-0.742226,0.348602,-1.471439,1.320862,0.348877,0.822021,0.026367,0.094540,0.032144,-0.015455,0.999950,0.001743,-0.007357,0.006604,0.604282,-0.400621,-0.514486,-0.457875
39211,NaN,9.245351,4.632695,-1.579239,5.410667,-1.522522,-0.990184,0.067031,-1.420917,1.084036,0.361816,0.817627,0.018311,0.092310,0.046833,-0.015121,0.999960,0.000335,-0.007104,0.005420,0.603288,-0.408439,-0.515717,-0.450841
39212,NaN,8.571634,6.074133,-1.441181,6.777395,-0.792589,-1.695897,-0.192499,-1.349267,0.876506,0.374512,0.815430,0.018311,0.085544,0.061103,-0.013893,0.999967,-0.000962,-0.006746,0.004382,0.601373,-0.414320,-0.517538,-0.445919
39213,NaN,7.556658,7.206165,-1.437095,7.855871,-0.285395,-2.791267,-0.412278,-1.301667,0.672380,0.383057,0.813232,0.020508,0.075416,0.072286,-0.014029,0.999971,-0.002061,-0.006508,0.003362,0.598606,-0.422000,-0.518226,-0.441621
39214,NaN,6.727133,7.765349,-1.463726,8.359691,-0.029909,-3.663548,-0.552184,-1.247154,0.452905,0.381104,0.809082,0.022705,0.067186,0.077766,-0.014433,0.999974,-0.002761,-0.006236,0.002265,0.595195,-0.427582,-0.519762,-0.439049
39215,NaN,6.173183,7.844148,-1.482614,8.418931,0.047394,-4.248852,-0.582007,-1.180029,0.230862,0.387451,0.811279,0.024658,0.061728,0.078470,-0.014690,0.999978,-0.002910,-0.005900,0.001154,0.591270,-0.434102,-0.520729,-0.436802
39216,NaN,5.936396,7.469136,-1.528606,8.041137,-0.044414,-4.455127,-0.443156,-1.106091,-0.021026,0.383057,0.813232,0.024658,0.059456,0.074651,-0.015123,0.999982,-0.002216,-0.005530,-0.000105,0.587374,-0.437779,-0.523059,-0.435605
39217,NaN,6.025305,7.171989,-1.592034,7.765138,-0.153666,-4.339569,-0.266917,-1.009471,-0.283117,0.385254,0.813232,0.024658,0.060434,0.071613,-0.015711,0.999985,-0.001335,-0.005047,-0.001416,0.583350,-0.441440,-0.525422,-0.434471
39218,NaN,6.163340,7.281815,-1.575570,7.843436,-0.081511,-4.158721,-0.056179,-0.892176,-0.538737,0.383301,0.811279,0.022705,0.061899,0.072647,-0.015500,0.999986,-0.000281,-0.004461,-0.002694,0.579705,-0.442135,-0.529075,-0.434210
39219,NaN,5.968136,7.521292,-1.388745,7.984782,0.197488,-4.306274,0.112264,-0.728306,-0.765028,0.374756,0.813477,0.014404,0.060018,0.074991,-0.013627,0.999986,0.000561,-0.003642,-0.003825,0.576129,-0.442617,-0.532607,-0.434160
39220,NaN,5.550921,7.753926,-1.250894,8.102155,0.430115,-4.648393,0.157342,-0.560354,-0.993193,0.368164,0.819824,0.008057,0.055928,0.077272,-0.012292,0.999983,0.000787,-0.002802,-0.004966,0.572821,-0.440742,-0.536742,-0.435351
39221,NaN,5.300582,7.649560,-1.070707,7.893626,0.601463,-4.804093,0.094094,-0.380550,-1.249437,0.361572,0.823975,0.008057,0.053503,0.076167,-0.010570,0.999979,0.000470,-0.001903,-0.006247,0.569011,-0.439005,-0.540401,-0.437570
39222,NaN,5.285242,7.284083,-0.780979,7.399387,0.795032,-4.692438,-0.079676,-0.202015,-1.529933,0.348633,0.828369,0.005859,0.053415,0.072431,-0.007785,0.999970,-0.000398,-0.001010,-0.007650,0.564928,-0.435541,-0.544134,-0.441677
39223,NaN,5.584879,6.613256,-0.709533,6.654322,0.669922,-4.272065,-0.280517,-0.008748,-1.839716,0.335938,0.834717,0.011719,0.056454,0.065605,-0.007185,0.999957,-0.001403,-0.000044,-0.009198,0.559926,-0.432202,-0.547263,-0.447424
39224,NaN,6.289990,5.591155,-0.769838,5.560037,0.302714,-3.455875,-0.466564,0.168954,-2.165324,0.312500,0.839111,0.017822,0.063494,0.055208,-0.007881,0.999938,-0.002333,0.000845,-0.010826,0.554504,-0.427193,-0.550382,-0.455095
39225,NaN,7.156613,4.713482,-1.011930,4.595725,-0.239374,-2.513649,-0.626726,0.372611,-2.459647,0.297607,0.841309,0.023682,0.072119,0.046218,-0.010399,0.999918,-0.003134,0.001863,-0.012298,0.548261,-0.421992,-0.552967,-0.464285
39226,NaN,7.881595,3.788824,-1.053904,3.484268,-0.616376,-1.746699,-0.656749,0.566087,-2.708761,0.275879,0.852051,0.031738,0.079289,0.036781,-0.010885,0.999899,-0.003284,0.002830,-0.013543,0.542100,-0.414961,-0.555540,-0.474669
39227,NaN,8.629494,2.656735,-1.036130,2.105586,-0.991968,-1.027696,-0.661162,0.729725,-2.889249,0.246094,0.856445,0.037598,0.086628,0.025282,-0.010762,0.999884,-0.003306,0.003648,-0.014446,0.535536,-0.407560,-0.557826,-0.485723
39228,NaN,9.240260,1.520801,-1.116863,0.704891,-1.475391,-0.524994,-0.672048,0.904414,-3.029586,0.222656,0.864990,0.039307,0.092567,0.013768,-0.011635,0.999869,-0.003360,0.004522,-0.015147,0.529265,-0.398675,-0.559863,-0.497485
39229,NaN,9.822769,0.319068,-1.053102,-0.821880,-1.830768,-0.134814,-0.639970,1.049381,-3.137007,0.194824,0.869385,0.047363,0.098204,0.001615,-0.011053,0.999858,-0.003200,0.005247,-0.015684,0.522742,-0.389483,-0.561612,-0.509544
39230,NaN,10.499492,-1.271452,-0.781709,-2.812257,-2.080460,0.198226,-0.529687,1.263797,-3.255476,0.171387,0.875732,0.051270,0.104717,-0.014442,-0.008443,0.999844,-0.002648,0.006319,-0.016277,0.516887,-0.378461,-0.563202,-0.521918
39231,NaN,11.761796,-4.330172,-1.101462,-6.254599,-3.229514,0.614898,-0.282318,1.455743,-3.538754,0.137451,0.880127,0.055176,0.116743,-0.045389,-0.011803,0.999816,-0.001412,0.007278,-0.017693,0.510822,-0.365917,-0.565261,-0.534457
39232,NaN,15.216932,-8.937300,-1.313053,-11.763112,-4.872970,2.475092,0.036082,1.515077,-4.047975,0.101318,0.882324,0.054932,0.150214,-0.092424,-0.014290,0.999766,0.000180,0.007575,-0.020238,0.504238,-0.350266,-0.568753,-0.547337
39233,NaN,19.149023,-13.527311,-1.124551,-17.646957,-6.285332,4.326451,0.042928,1.679413,-4.465046,0.063232,0.884766,0.050537,0.188304,-0.139498,-0.012865,0.999716,0.000215,0.008396,-0.022323,0.496446,-0.333430,-0.572253,-0.561153
39234,NaN,21.586065,-17.685198,-1.514545,-22.759109,-8.066283,4.252100,-0.009510,1.847574,-4.661883,0.020752,0.882812,0.052490,0.211509,-0.181817,-0.017104,0.999686,-0.000048,0.009237,-0.023307,0.488486,-0.314843,-0.575223,-0.575651
39235,NaN,23.387024,-22.988049,-1.059333,-28.906751,-9.002696,2.823412,-0.260189,1.900464,-4.595670,-0.025635,0.878662,0.060547,0.228394,-0.235186,-0.012477,0.999690,-0.001301,0.009501,-0.022976,0.479925,-0.297608,-0.576814,-0.590243
39236,NaN,25.387947,-29.546000,-0.220205,-36.263612,-9.626790,0.656817,-0.960460,1.945250,-4.193538,-0.053223,0.880859,0.064453,0.247583,-0.300709,-0.003195,0.999721,-0.004802,0.009725,-0.020966,0.471603,-0.282011,-0.575383,-0.605801
39237,NaN,25.445815,-34.279680,0.068497,-40.965566,-9.684224,-2.710316,-1.681645,2.090306,-3.495286,-0.088867,0.870361,0.083008,0.248425,-0.347166,0.000974,0.999757,-0.008408,0.010451,-0.017475,0.464393,-0.270790,-0.570015,-0.621365
39238,NaN,22.108268,-35.446460,-0.318543,-40.748675,-8.905880,-7.480200,-1.964648,2.250510,-2.795787,-0.103516,0.866211,0.097168,0.216071,-0.357533,-0.002133,0.999791,-0.009823,0.011252,-0.013978,0.459371,-0.260351,-0.562343,-0.636369
39239,NaN,18.204486,-34.636534,-0.337242,-38.430291,-7.220811,-11.262562,-1.983750,2.232457,-2.325494,-0.126709,0.862061,0.113525,0.177974,-0.348474,-0.001925,0.999821,-0.009918,0.011162,-0.011627,0.455568,-0.252855,-0.553613,-0.649642
39240,NaN,15.044951,-32.975088,0.033028,-35.630855,-5.367240,-13.723046,-1.707409,2.146549,-2.080881,-0.138916,0.853516,0.125977,0.147020,-0.331283,0.001564,0.999852,-0.008537,0.010732,-0.010404,0.452532,-0.243990,-0.545717,-0.661722
39241,NaN,12.082472,-31.199362,0.523410,-32.768119,-3.495406,-15.614197,-1.134712,2.022232,-1.953486,-0.160156,0.855713,0.134033,0.117827,-0.313122,0.005807,0.999885,-0.005673,0.010111,-0.009767,0.450295,-0.236370,-0.539413,-0.671116
39242,NaN,10.240998,-29.157940,0.982042,-30.118110,-2.205078,-16.448918,-0.632697,1.937458,-1.851141,-0.170410,0.843018,0.132080,0.099800,-0.292480,0.009770,0.999905,-0.003163,0.009687,-0.009255,0.448527,-0.226294,-0.535055,-0.679213
39243,NaN,8.979111,-26.315426,1.139998,-27.025313,-1.508987,-16.275194,-0.365616,1.945212,-1.683957,-0.187500,0.847412,0.144287,0.087680,-0.263878,0.011022,0.999916,-0.001828,0.009726,-0.008420,0.447899,-0.217924,-0.530938,-0.685566
39244,NaN,7.473338,-22.688243,0.982995,-23.084287,-1.115797,-15.931112,-0.493431,2.045229,-1.450201,-0.197998,0.843018,0.142090,0.073185,-0.227393,0.009637,0.999918,-0.002467,0.010226,-0.007251,0.447792,-0.208166,-0.526194,-0.692292
39245,NaN,5.329252,-19.229265,0.703645,-18.990664,-0.543449,-15.953979,-0.864112,2.138724,-1.223699,-0.206299,0.836670,0.152588,0.052192,-0.192583,0.007306,0.999915,-0.004320,0.010693,-0.006118,0.448732,-0.201401,-0.519207,-0.698929
39246,NaN,3.170973,-16.630216,0.559796,-15.631107,0.249666,-16.334541,-1.287555,2.187234,-1.070341,-0.216797,0.838867,0.160645,0.030886,-0.166430,0.006328,0.999905,-0.006438,0.010936,-0.005352,0.449341,-0.193865,-0.510819,-0.706805
39247,NaN,1.480284,-14.858683,0.493922,-13.253828,1.024800,-16.631505,-1.603968,2.206602,-1.030710,-0.229492,0.834717,0.175049,0.014099,-0.148616,0.005973,0.999894,-0.008020,0.011033,-0.005153,0.450295,-0.188890,-0.500667,-0.714764
39248,NaN,0.019935,-13.581036,0.297528,-11.359298,1.657144,-17.075418,-1.786775,2.220756,-1.047016,-0.235352,0.823975,0.189453,-0.000469,-0.135775,0.004191,0.999885,-0.008934,0.011103,-0.005235,0.450383,-0.182350,-0.490203,-0.723605
39249,NaN,-1.463066,-12.354219,-0.391711,-9.429534,1.894809,-17.712514,-1.800054,2.205283,-1.070161,-0.243896,0.823975,0.197510,-0.015325,-0.123489,-0.002639,0.999884,-0.009000,0.011026,-0.005351,0.450845,-0.177535,-0.479145,-0.731874
39250,NaN,-2.950120,-11.340212,-0.743813,-7.695895,2.467330,-18.329467,-1.630022,2.174455,-1.090333,-0.260742,0.819824,0.219971,-0.030191,-0.113293,-0.006189,0.999893,-0.008150,0.010872,-0.005451,0.450581,-0.170638,-0.469186,-0.740084
39251,NaN,-4.309614,-10.292444,-0.635172,-6.096619,3.350295,-18.559759,-1.410059,2.121241,-1.093469,-0.266846,0.815674,0.218018,-0.043717,-0.102726,-0.005166,0.999904,-0.007050,0.010606,-0.005467,0.450936,-0.164993,-0.459556,-0.747156
39252,NaN,-5.641368,-9.100688,-0.302646,-4.388213,4.366543,-18.553995,-1.236940,2.059707,-1.099362,-0.277100,0.809326,0.224121,-0.056936,-0.090709,-0.001880,0.999913,-0.006185,0.010298,-0.005497,0.450515,-0.157564,-0.451148,-0.754106
39253,NaN,-6.821215,-7.579859,-0.319676,-2.456764,4.920943,-18.405072,-1.155213,1.925146,-1.054109,-0.287842,0.807129,0.228271,-0.068634,-0.075452,-0.002101,0.999923,-0.005776,0.009625,-0.005270,0.450680,-0.151938,-0.442697,-0.760146
39254,NaN,-8.275994,-5.681052,-0.513716,-0.009172,5.384201,-18.300089,-1.190071,1.781129,-0.955797,-0.300049,0.798584,0.242676,-0.083070,-0.056440,-0.004062,0.999931,-0.005950,0.008905,-0.004779,0.450068,-0.145741,-0.434846,-0.766229
39255,NaN,-9.681735,-3.699702,-0.529001,2.412741,5.912293,-17.993342,-1.260986,1.605442,-0.833418,-0.306396,0.798584,0.250977,-0.097008,-0.036622,-0.004280,0.999939,-0.006305,0.008027,-0.004167,0.450231,-0.141803,-0.426391,-0.771605
39256,NaN,-10.800295,-2.131957,-0.317990,4.320048,6.509386,-17.575069,-1.439130,1.411559,-0.699208,-0.312500,0.792236,0.259033,-0.108095,-0.020960,-0.002266,0.999943,-0.007196,0.007058,-0.003496,0.449511,-0.138115,-0.418123,-0.777198
39257,NaN,-11.401024,-1.024207,-0.255177,5.554779,6.764817,-17.193523,-1.748189,1.234639,-0.563092,-0.314453,0.788086,0.275635,-0.114051,-0.009939,-0.001760,0.999939,-0.008741,0.006173,-0.002815,0.449538,-0.136999,-0.408295,-0.782587
39258,NaN,-11.469911,-0.694797,-0.365062,5.899542,6.738181,-17.021406,-1.937003,1.031611,-0.379427,-0.316650,0.785889,0.285889,-0.114729,-0.006761,-0.002993,0.999938,-0.009685,0.005158,-0.001897,0.448820,-0.136550,-0.398621,-0.788046
39259,NaN,-11.424039,-1.549793,-0.334101,5.154634,7.072341,-17.324853,-1.823879,0.814695,-0.236190,-0.322754,0.779541,0.294189,-0.114271,-0.015390,-0.002735,0.999949,-0.009119,0.004073,-0.001181,0.449168,-0.137633,-0.389096,-0.792407
39260,NaN,-10.948882,-2.946493,-0.091170,3.713680,7.457699,-17.504146,-1.448118,0.575363,-0.108333,-0.320557,0.779541,0.306396,-0.109506,-0.029410,-0.000384,0.999970,-0.007241,0.002877,-0.000542,0.448864,-0.138407,-0.382118,-0.795833
39261,NaN,-10.439987,-3.754296,0.816398,2.624000,8.130592,-16.937450,-0.914732,0.350485,0.026250,-0.316406,0.781494,0.308350,-0.104380,-0.037518,0.008519,0.999988,-0.004574,0.001752,0.000131,0.450012,-0.139547,-0.376972,-0.797438
39262,NaN,-9.755568,-3.717985,2.680958,2.045579,9.087771,-15.235785,-0.419198,0.145591,0.160281,-0.312256,0.779297,0.312500,-0.097506,-0.037202,0.026959,0.999997,-0.002096,0.000728,0.000801,0.450648,-0.140228,-0.374849,-0.797960
39263,NaN,-9.228352,-3.013887,3.484166,2.198153,9.145428,-14.045254,-0.097555,0.011259,0.301025,-0.305664,0.777344,0.306396,-0.092236,-0.030261,0.034862,0.999999,-0.000488,0.000056,0.001505,0.452962,-0.141154,-0.373446,-0.797144
39264,NaN,-8.760238,-2.605102,2.843064,2.318346,8.267733,-14.041282,0.097094,-0.122032,0.474994,-0.295166,0.781494,0.304443,-0.087557,-0.026273,0.028364,0.999997,0.000485,-0.000610,0.002375,0.454711,-0.142324,-0.373762,-0.795791
39265,NaN,-8.201875,-2.897376,1.848363,1.814166,7.297232,-14.560410,0.154491,-0.278954,0.640148,-0.282715,0.785645,0.312500,-0.081951,-0.029250,0.018347,0.999994,0.000772,-0.001395,0.003201,0.458151,-0.144228,-0.373701,-0.793501
39266,NaN,-7.790376,-2.951557,0.974186,1.590302,6.408997,-14.984328,0.046050,-0.465817,0.836761,-0.278320,0.783447,0.310547,-0.077802,-0.029843,0.009554,0.999989,0.000230,-0.002329,0.004184,0.460645,-0.147549,-0.374331,-0.791146
39267,NaN,-7.462551,-2.877345,0.376232,1.454527,5.736571,-15.205801,0.042998,-0.649275,1.028032,-0.263916,0.789795,0.308594,-0.074488,-0.029157,0.003514,0.999981,0.000215,-0.003246,0.005140,0.464917,-0.151712,-0.374345,-0.787846
39268,NaN,-6.628700,-4.190511,0.736777,-0.210103,5.821590,-15.114274,0.187379,-0.800397,1.185437,-0.244873,0.791992,0.298340,-0.066066,-0.042304,0.007064,0.999974,0.000937,-0.004002,0.005927,0.468236,-0.156661,-0.376022,-0.784104
39269,NaN,-5.546035,-6.427253,1.125184,-2.825318,6.003990,-15.225863,0.318524,-0.896043,1.304376,-0.232178,0.796143,0.298340,-0.055089,-0.064650,0.010902,0.999967,0.001593,-0.004480,0.006522,0.473347,-0.161513,-0.377443,-0.779354
39270,NaN,-4.496426,-8.699183,0.670257,-5.356875,5.530314,-15.900404,0.416561,-1.026992,1.437902,-0.211426,0.802490,0.285889,-0.044370,-0.087326,0.006292,0.999959,0.002083,-0.005135,0.007189,0.477346,-0.167253,-0.380307,-0.774296
39271,NaN,-3.666766,-10.584749,-0.708910,-7.392937,4.326171,-17.065942,0.400523,-1.228482,1.636131,-0.194580,0.810791,0.281738,-0.035755,-0.106128,-0.007523,0.999946,0.002003,-0.006142,0.008181,0.483162,-0.173705,-0.382499,-0.768164
39272,NaN,-3.473177,-13.645763,-1.245617,-10.249755,4.339547,-18.526199,0.530709,-1.442972,1.741842,-0.175537,0.808594,0.277832,-0.033449,-0.136719,-0.013063,0.999933,0.002653,-0.007215,0.008709,0.487537,-0.181302,-0.386471,-0.761628
39273,NaN,-2.234546,-19.766017,-1.539928,-16.380489,4.422088,-20.308873,0.853314,-1.764548,1.714003,-0.147949,0.808594,0.269775,-0.020509,-0.197773,-0.016429,0.999915,0.004266,-0.008822,0.008570,0.492931,-0.188776,-0.391539,-0.753711
39274,NaN,0.177960,-28.562236,-1.498193,-25.467644,4.377818,-22.071542,1.052575,-2.196364,1.782527,-0.133301,0.814941,0.251465,0.004500,-0.285506,-0.016445,0.999886,0.005263,-0.010981,0.008912,0.496302,-0.197945,-0.399178,-0.745090
39275,NaN,3.005395,-37.494170,-2.208506,-34.877154,3.091055,-23.729427,1.274632,-2.608177,2.156540,-0.104004,0.819092,0.235107,0.034398,-0.374437,-0.024043,0.999837,0.006373,-0.013040,0.010782,0.501974,-0.208372,-0.407255,-0.733993
39276,NaN,7.697286,-44.261116,-2.906118,-43.084619,-0.037859,-22.862276,1.800230,-3.010397,2.630389,-0.076660,0.827393,0.220703,0.083248,-0.441266,-0.031816,0.999760,0.009000,-0.015051,0.013151,0.507267,-0.220225,-0.418564,-0.720406
39277,NaN,14.518878,-49.143060,-3.635683,-50.261320,-5.215869,-19.051313,2.390145,-3.144982,3.154404,-0.042969,0.829590,0.196289,0.153519,-0.488591,-0.039837,0.999681,0.011949,-0.015723,0.015770,0.516343,-0.231834,-0.430502,-0.703072
39278,NaN,20.803663,-50.469203,-5.259369,-53.444089,-11.442800,-14.278066,2.860858,-2.961501,3.585523,-0.007080,0.837891,0.169678,0.217848,-0.500054,-0.056592,0.999627,0.014303,-0.014806,0.017925,0.525710,-0.242508,-0.443871,-0.683957
39279,NaN,24.082934,-47.151269,-6.141105,-50.847443,-15.956089,-9.214031,3.221097,-2.650057,3.993815,0.026367,0.844238,0.141113,0.251018,-0.465533,-0.065660,0.999583,0.016103,-0.013248,0.019966,0.538982,-0.252136,-0.455702,-0.662013
39280,NaN,23.160120,-41.414717,-5.845436,-44.562253,-16.945152,-6.299023,3.064176,-2.233748,4.266429,0.064453,0.848389,0.116699,0.241031,-0.408139,-0.062082,0.999593,0.015319,-0.011167,0.021329,0.551670,-0.260910,-0.466283,-0.640442
39281,NaN,20.625118,-35.152099,-5.470434,-37.283670,-16.527861,-4.578243,2.324300,-1.980726,4.535270,0.108887,0.850342,0.092285,0.214695,-0.346065,-0.056649,0.999626,0.011620,-0.009902,0.022674,0.565968,-0.272152,-0.471939,-0.618779
39282,NaN,19.546228,-29.407704,-5.407499,-30.872439,-16.328144,-2.321289,1.428920,-1.871013,4.757464,0.153320,0.848145,0.082275,0.202884,-0.288922,-0.054277,0.999648,0.007144,-0.009354,0.023785,0.578028,-0.285048,-0.474998,-0.599173
39283,NaN,18.703165,-24.521091,-5.559252,-25.248958,-15.956937,-0.344249,0.652374,-1.801895,4.816031,0.191650,0.841553,0.078613,0.193355,-0.240426,-0.054659,0.999664,0.003262,-0.009008,0.024077,0.590158,-0.301170,-0.473969,-0.579968
39284,NaN,16.983738,-20.263830,-5.344025,-20.293697,-14.595422,0.317122,0.182172,-1.780040,4.761217,0.228027,0.833008,0.070557,0.175063,-0.198464,-0.052080,0.999677,0.000911,-0.008899,0.023804,0.599840,-0.317001,-0.472410,-0.562610
39285,NaN,15.104298,-16.419319,-4.873858,-15.845106,-12.797647,0.508803,0.015147,-1.866049,4.638278,0.274902,0.820068,0.066895,0.155242,-0.160622,-0.047315,0.999688,0.000076,-0.009329,0.023189,0.609215,-0.334629,-0.469394,-0.544564
39286,NaN,13.809167,-12.998396,-4.535215,-11.968020,-11.302185,0.635874,0.038695,-1.979164,4.429443,0.304688,0.815674,0.061035,0.141364,-0.126868,-0.043989,0.999706,0.000193,-0.009895,0.022145,0.616526,-0.350220,-0.467961,-0.527498
39287,NaN,12.997842,-9.757096,-4.228758,-8.309611,-9.924824,0.884261,0.101790,-2.042336,4.178645,0.339111,0.802734,0.057373,0.132402,-0.094800,-0.040992,0.999729,0.000509,-0.010211,0.020891,0.623390,-0.366684,-0.465942,-0.509732
39288,NaN,12.150373,-6.305113,-4.124857,-4.528996,-8.631553,0.644469,0.203021,-2.079107,3.861369,0.371338,0.790039,0.045410,0.123111,-0.060643,-0.040037,0.999759,0.001015,-0.010395,0.019305,0.628618,-0.380281,-0.465729,-0.493277
39289,NaN,11.214478,-2.994837,-3.791173,-1.013851,-7.065378,0.093808,0.400614,-2.058087,3.479082,0.394775,0.785645,0.031250,0.113025,-0.027913,-0.036809,0.999794,0.002003,-0.010290,0.017394,0.633417,-0.393859,-0.465371,-0.476537
39290,NaN,10.530505,-0.303934,-3.375574,1.759145,-5.618526,-0.447735,0.530366,-2.028788,3.020776,0.418457,0.768555,0.015381,0.105669,-0.001357,-0.032690,0.999831,0.002652,-0.010143,0.015103,0.636839,-0.404000,-0.467013,-0.461647
39291,NaN,10.114615,1.996175,-3.142523,4.147815,-4.464688,-0.923484,0.564722,-2.012874,2.477070,0.431641,0.758057,0.009521,0.101197,0.021302,-0.030348,0.999869,0.002823,-0.010064,0.012385,0.639121,-0.414260,-0.468626,-0.447553
39292,NaN,10.008581,3.872603,-2.597277,5.987228,-3.179871,-1.097843,0.499542,-1.987894,1.944254,0.448486,0.762207,-0.009033,0.099954,0.039761,-0.024880,0.999900,0.002498,-0.009939,0.009721,0.639792,-0.421652,-0.472002,-0.435994
39293,NaN,9.798666,5.274829,-1.934149,7.274847,-1.886049,-1.381054,0.299379,-1.939007,1.492374,0.459229,0.753662,-0.010742,0.097770,0.053506,-0.018313,0.999924,0.001497,-0.009695,0.007462,0.639134,-0.429980,-0.474739,-0.425733
39294,NaN,9.263023,6.271465,-1.425775,8.070131,-0.840198,-1.981265,0.024652,-1.869552,1.105946,0.459473,0.745117,-0.020996,0.092409,0.063228,-0.013385,0.999941,0.000123,-0.009348,0.005530,0.637072,-0.436507,-0.478339,-0.418082
39295,NaN,8.685993,6.905329,-1.011849,8.512543,-0.027637,-2.623282,-0.198994,-1.817285,0.760977,0.467773,0.749512,-0.031250,0.086684,0.069374,-0.009399,0.999951,-0.000995,-0.009086,0.003805,0.633853,-0.444151,-0.481208,-0.411581
39296,NaN,8.312239,7.209584,-0.729159,8.668603,0.500822,-3.015164,-0.380502,-1.734281,0.455844,0.463867,0.743164,-0.033203,0.083018,0.072272,-0.006709,0.999958,-0.001902,-0.008671,0.002279,0.629752,-0.450032,-0.484868,-0.407169
39297,NaN,8.058502,7.346978,-0.585882,8.723587,0.804504,-3.292584,-0.433197,-1.638827,0.195178,0.469971,0.747314,-0.035156,0.080559,0.073536,-0.005358,0.999964,-0.002166,-0.008194,0.000976,0.625133,-0.456430,-0.487989,-0.403419
39298,NaN,7.806933,7.313770,-0.481965,8.598732,1.005347,-3.510142,-0.352060,-1.526564,-0.035414,0.461426,0.751709,-0.047607,0.078117,0.073116,-0.004352,0.999969,-0.001760,-0.007633,-0.000177,0.620520,-0.460538,-0.492095,-0.400878
39299,NaN,7.459158,7.247683,-0.446571,8.442304,1.121307,-3.826305,-0.204260,-1.410689,-0.243213,0.461426,0.749512,-0.043457,0.074709,0.072382,-0.004013,0.999974,-0.001021,-0.007053,-0.001216,0.615999,-0.464467,-0.496022,-0.398469
39300,NaN,7.077002,7.350581,-0.415364,8.420487,1.267739,-4.175764,-0.032813,-1.277026,-0.450961,0.452881,0.755859,-0.057861,0.070960,0.073345,-0.003713,0.999977,-0.000164,-0.006385,-0.002255,0.611848,-0.466012,-0.500904,-0.396950
39301,NaN,6.538364,7.656631,-0.366933,8.563751,1.469982,-4.712763,0.109309,-1.109901,-0.648541,0.448242,0.762451,-0.064209,0.065650,0.076356,-0.003264,0.999979,0.000547,-0.005549,-0.003243,0.607930,-0.467179,-0.505532,-0.395731
39302,NaN,5.935549,7.848945,-0.282458,8.568514,1.667386,-5.261231,0.217222,-0.942916,-0.875231,0.433594,0.760254,-0.068359,0.059710,0.078231,-0.002459,0.999979,0.001086,-0.004715,-0.004376,0.604315,-0.466191,-0.510839,-0.395617
39303,NaN,5.447989,7.819245,0.018076,8.334204,1.998766,-5.645413,0.269798,-0.750287,-1.144897,0.425049,0.762451,-0.068359,0.054925,0.077878,0.000491,0.999976,0.001349,-0.003751,-0.005724,0.600644,-0.464719,-0.515906,-0.396363
39304,NaN,5.216261,7.660849,0.320039,8.007167,2.284627,-5.730467,0.224103,-0.551103,-1.442161,0.409668,0.775391,-0.078857,0.052704,0.076226,0.003431,0.999970,0.001121,-0.002755,-0.007211,0.596872,-0.461434,-0.521319,-0.398810
39305,NaN,5.372717,7.282367,0.635174,7.518033,2.504442,-5.395986,0.114495,-0.335082,-1.743775,0.392822,0.777588,-0.081055,0.054349,0.072348,0.006484,0.999960,0.000572,-0.001675,-0.008719,0.592659,-0.457857,-0.526249,-0.402721
39306,NaN,5.549701,6.843070,0.704333,7.014450,2.446167,-5.023743,-0.083950,-0.103015,-2.030489,0.373291,0.790283,-0.077393,0.056184,0.067866,0.007044,0.999948,-0.000420,-0.000515,-0.010152,0.588083,-0.452978,-0.530984,-0.408688
39307,NaN,5.775780,6.432639,0.544961,6.589973,2.140986,-4.614557,-0.326188,0.152135,-2.299945,0.358154,0.796631,-0.075439,0.058497,0.063665,0.005301,0.999932,-0.001631,0.000761,-0.011499,0.582916,-0.448021,-0.534820,-0.416477
39308,NaN,5.992560,5.981342,0.310468,6.118263,1.720691,-4.210405,-0.556531,0.392772,-2.545576,0.334473,0.813721,-0.073730,0.060686,0.059052,0.002821,0.999913,-0.002783,0.001964,-0.012728,0.577375,-0.442010,-0.538151,-0.426215
39309,NaN,6.167937,5.349057,-0.064728,5.481598,1.090933,-3.861450,-0.772228,0.616910,-2.761854,0.306885,0.815918,-0.061768,0.062407,0.052629,-0.001043,0.999892,-0.003861,0.003084,-0.013809,0.571290,-0.435875,-0.540611,-0.437470
39310,NaN,6.647656,4.266283,-0.437814,4.379220,0.327148,-3.232845,-0.844872,0.840140,-2.947137,0.285400,0.824463,-0.049561,0.067076,0.041658,-0.004836,0.999874,-0.004224,0.004201,-0.014735,0.565209,-0.428461,-0.542696,-0.449934
39311,NaN,7.244312,2.482485,-0.587974,2.496482,-0.393003,-2.560371,-0.804406,1.031840,-3.095171,0.257324,0.835205,-0.043701,0.072783,0.023675,-0.006351,0.999859,-0.004022,0.005159,-0.015475,0.559137,-0.420324,-0.544415,-0.462932
39312,NaN,7.553568,0.538400,-0.557171,0.375377,-0.952652,-2.289234,-0.625232,1.229398,-3.235141,0.227539,0.843994,-0.031738,0.075573,0.004143,-0.006050,0.999845,-0.003126,0.006147,-0.016175,0.553604,-0.410386,-0.546223,-0.476178
39313,NaN,7.811731,-1.439791,-0.343106,-1.839827,-1.327638,-2.193044,-0.356328,1.479214,-3.433130,0.197754,0.846191,-0.033936,0.077827,-0.015742,-0.003980,0.999824,-0.001782,0.007396,-0.017165,0.548519,-0.398764,-0.548145,-0.489542
39314,NaN,9.460501,-4.716550,-0.859778,-5.323076,-2.843198,-1.091972,0.151358,1.633564,-3.851128,0.155029,0.856934,-0.030273,0.093599,-0.048967,-0.009402,0.999781,0.000757,0.008167,-0.019254,0.543762,-0.383741,-0.551572,-0.502826
39315,NaN,13.107079,-9.912356,-0.733221,-11.171608,-4.466452,1.402621,0.594412,1.726010,-4.397530,0.118896,0.863525,-0.032715,0.128778,-0.101947,-0.008750,0.999717,0.002972,0.008629,-0.021986,0.538327,-0.365960,-0.556576,-0.516237
39316,NaN,17.294974,-16.435770,0.115562,-18.784772,-5.960865,3.631099,0.675641,1.886873,-4.887359,0.070068,0.863770,-0.039062,0.168863,-0.168517,-0.001015,0.999651,0.003378,0.009433,-0.024434,0.532024,-0.345576,-0.561969,-0.530772
39317,NaN,20.868818,-23.039242,0.375411,-26.438592,-8.102434,4.384811,0.509787,2.034073,-5.159238,0.023682,0.859619,-0.047363,0.202674,-0.235678,0.001076,0.999612,0.002549,0.010169,-0.025793,0.524621,-0.324780,-0.566494,-0.546237
39318,NaN,24.429043,-30.429895,0.751003,-34.963405,-10.380005,4.071924,0.249052,2.120430,-5.087225,-0.014648,0.864014,-0.043457,0.236505,-0.310388,0.004591,0.999620,0.001245,0.010601,-0.025433,0.516953,-0.303837,-0.569638,-0.562099
39319,NaN,27.441280,-38.073101,1.746791,-43.701696,-11.848504,2.638599,-0.414287,2.333407,-4.489566,-0.048340,0.864258,-0.037354,0.265961,-0.386732,0.015129,0.999678,-0.002071,0.011666,-0.022445,0.510159,-0.286388,-0.568892,-0.577998
39320,NaN,26.312739,-41.388753,2.792569,-47.049523,-11.221622,-1.246932,-1.157096,2.651763,-3.542879,-0.075928,0.862061,-0.029297,0.256104,-0.418308,0.026911,0.999738,-0.005785,0.013258,-0.017713,0.505688,-0.271557,-0.563690,-0.593961
39321,NaN,21.262606,-39.668513,2.718641,-43.982243,-9.293203,-6.323360,-1.860637,2.839077,-2.664199,-0.092529,0.855713,-0.010986,0.207712,-0.399217,0.027921,0.999767,-0.009302,0.014194,-0.013320,0.503233,-0.261618,-0.554170,-0.609268
39322,NaN,16.937925,-36.188936,1.938159,-39.244594,-7.751171,-9.705322,-2.339317,2.789593,-2.047378,-0.109619,0.860107,-0.000977,0.165953,-0.363358,0.021295,0.999782,-0.011696,0.013947,-0.010236,0.501573,-0.253309,-0.542564,-0.624407
39323,NaN,13.910106,-32.311854,1.990862,-34.753389,-5.675769,-11.020983,-2.589167,2.735524,-1.616829,-0.118164,0.857910,0.025635,0.136778,-0.323953,0.022218,0.999790,-0.012945,0.013677,-0.008084,0.500780,-0.248485,-0.529155,-0.638333
39324,NaN,10.575474,-28.407924,2.334297,-30.118297,-3.306402,-12.308724,-2.612303,2.761138,-1.317170,-0.133057,0.860107,0.037842,0.104225,-0.284444,0.025611,0.999798,-0.013061,0.013805,-0.006585,0.500554,-0.242710,-0.515415,-0.651832
39325,NaN,7.338504,-24.820885,2.475698,-25.720268,-1.239778,-13.414356,-2.454335,2.737273,-1.139662,-0.137207,0.860107,0.060303,0.072328,-0.248302,0.026809,0.999815,-0.012271,0.013686,-0.005698,0.501135,-0.238755,-0.501379,-0.663686
39326,NaN,5.087851,-21.803465,2.170282,-22.080336,-0.122927,-14.104441,-2.197381,2.688140,-1.012514,-0.143311,0.855713,0.074707,0.050082,-0.218039,0.023422,0.999837,-0.010986,0.013440,-0.005062,0.501830,-0.232795,-0.488459,-0.674819
39327,NaN,3.614500,-19.080897,1.560574,-18.954940,0.292748,-14.306869,-1.924682,2.645803,-0.893417,-0.151611,0.851562,0.091064,0.035511,-0.190810,0.016969,0.999856,-0.009623,0.013228,-0.004467,0.503383,-0.228275,-0.475764,-0.684211
39328,NaN,2.026366,-16.378651,1.146807,-15.816353,0.840050,-14.589067,-1.687373,2.630837,-0.806417,-0.162109,0.849365,0.099365,0.019764,-0.163764,0.012588,0.999870,-0.008436,0.013154,-0.004032,0.504914,-0.221605,-0.464208,-0.693155
39329,NaN,0.260815,-13.732998,1.035566,-12.718640,1.690195,-14.823791,-1.518833,2.587533,-0.781834,-0.168701,0.853760,0.109375,0.002214,-0.137255,0.011368,0.999880,-0.007594,0.012937,-0.003909,0.506949,-0.216354,-0.452654,-0.700926
39330,NaN,-1.407779,-11.346841,0.682920,-9.830343,2.276633,-15.232695,-1.441376,2.505492,-0.840987,-0.183350,0.851562,0.119629,-0.014461,-0.113354,0.007826,0.999887,-0.007207,0.012527,-0.004205,0.508080,-0.209331,-0.442090,-0.708937
39331,NaN,-2.628358,-9.392812,0.021235,-7.472246,2.399952,-15.603662,-1.453551,2.394611,-0.952396,-0.187256,0.843018,0.129883,-0.026720,-0.093795,0.001213,0.999891,-0.007267,0.011973,-0.004762,0.508952,-0.204008,-0.431217,-0.716519
39332,NaN,-3.736811,-7.866627,-0.427116,-5.550819,2.688700,-15.975887,-1.504445,2.304748,-1.043373,-0.195801,0.843018,0.138184,-0.037819,-0.078497,-0.003246,0.999892,-0.007522,0.011523,-0.005217,0.508620,-0.197339,-0.420960,-0.724677
39333,NaN,-4.876712,-6.825008,-0.673126,-4.093681,3.218729,-16.422761,-1.574828,2.180211,-1.106711,-0.214844,0.843262,0.146240,-0.049210,-0.068026,-0.005660,0.999894,-0.007874,0.010901,-0.005533,0.508149,-0.192544,-0.410176,-0.732439
39334,NaN,-6.042497,-5.781375,-0.724139,-2.618571,3.922924,-16.755988,-1.688423,2.014589,-1.114286,-0.225098,0.830322,0.164795,-0.060812,-0.057531,-0.006144,0.999898,-0.008442,0.010073,-0.005571,0.506550,-0.187182,-0.399885,-0.740582
39335,NaN,-7.497160,-4.258095,-0.884858,-0.589199,4.613399,-17.126151,-1.798989,1.814407,-1.050150,-0.235596,0.830322,0.177002,-0.075268,-0.042259,-0.007786,0.999905,-0.008995,0.009072,-0.005251,0.505137,-0.184186,-0.389001,-0.748058
39336,NaN,-9.065191,-2.833022,-1.086713,1.433060,5.327070,-17.619719,-1.742170,1.562182,-0.949253,-0.246094,0.828369,0.187256,-0.090865,-0.027988,-0.009913,0.999920,-0.008711,0.007811,-0.004746,0.503009,-0.180913,-0.379362,-0.755207
39337,NaN,-10.140562,-2.272917,-0.965040,2.416217,6.115197,-17.917745,-1.594700,1.274175,-0.831508,-0.250244,0.822021,0.191406,-0.101557,-0.022380,-0.008824,0.999939,-0.007973,0.006371,-0.004157,0.501426,-0.179611,-0.370300,-0.761046
39338,NaN,-10.701222,-2.352715,-0.662062,2.611656,6.826855,-18.001773,-1.446093,0.969378,-0.663900,-0.262939,0.822021,0.201660,-0.107119,-0.023216,-0.005933,0.999957,-0.007230,0.004847,-0.003319,0.499404,-0.178340,-0.362926,-0.766209
39339,NaN,-11.002874,-2.632891,-0.511644,2.499905,7.284183,-18.116135,-1.246109,0.621605,-0.472264,-0.264893,0.817627,0.211914,-0.110105,-0.026099,-0.004611,0.999973,-0.006230,0.003108,-0.002361,0.498269,-0.179078,-0.356441,-0.769811
39340,NaN,-10.834630,-2.793079,-0.205337,2.288711,7.494984,-17.801389,-0.976590,0.259823,-0.269290,-0.262695,0.815674,0.218018,-0.108386,-0.027794,-0.001777,0.999986,-0.004883,0.001299,-0.001346,0.496845,-0.180058,-0.352249,-0.772428
39341,NaN,-10.508574,-2.798519,0.259083,2.099820,7.650401,-17.255203,-0.689025,-0.060821,-0.083230,-0.271240,0.817627,0.222168,-0.105098,-0.027932,0.002655,0.999994,-0.003445,-0.000304,-0.000416,0.496544,-0.182514,-0.349225,-0.773418
39342,NaN,-10.022853,-2.728521,0.783875,1.918212,7.695560,-16.566623,-0.395031,-0.351749,0.062892,-0.268799,0.813477,0.224121,-0.100234,-0.027301,0.007716,0.999996,-0.001975,-0.001759,0.000314,0.495842,-0.184993,-0.348490,-0.773611
39343,NaN,-9.459212,-2.624030,1.181356,1.714355,7.576093,-15.929989,-0.167225,-0.605590,0.176253,-0.258057,0.807129,0.228516,-0.094604,-0.026314,0.011549,0.999995,-0.000836,-0.003028,0.000881,0.496151,-0.188515,-0.348572,-0.772525
39344,NaN,-8.886348,-2.554609,1.135987,1.515045,7.121769,-15.623730,-0.025528,-0.838438,0.280474,-0.262451,0.809082,0.230469,-0.088874,-0.025669,0.010991,0.999990,-0.000128,-0.004192,0.001402,0.495776,-0.192333,-0.350262,-0.771058
39345,NaN,-8.320769,-2.650501,0.885536,1.155502,6.561968,-15.526632,0.049322,-1.059031,0.377035,-0.254150,0.815430,0.228271,-0.083203,-0.026664,0.008408,0.999984,0.000247,-0.005295,0.001885,0.496333,-0.197235,-0.352088,-0.768626
39346,NaN,-7.722571,-3.133602,0.613828,0.446231,6.050464,-15.559527,0.127978,-1.242236,0.471969,-0.253906,0.809082,0.220215,-0.077188,-0.031522,0.005639,0.999978,0.000640,-0.006211,0.002360,0.496107,-0.202548,-0.355166,-0.765970
39347,NaN,-7.054545,-4.211864,0.691421,-0.870414,5.900986,-15.505140,0.310781,-1.395301,0.561331,-0.239258,0.813232,0.224365,-0.070472,-0.042327,0.006357,0.999971,0.001554,-0.006976,0.002807,0.497060,-0.208254,-0.358616,-0.762205
39349,NaN,-5.819773,-6.100796,0.963621,-6.369912,11.348864,-20.706288,0.704352,-1.596459,0.742277,-0.222412,0.817627,0.212158,-0.115764,-0.123000,0.016557,0.999820,0.007043,-0.015964,0.007422,0.498402,-0.219575,-0.370285,-0.752510
39350,NaN,-4.437160,-7.695281,1.068079,-5.311320,5.118784,-14.875454,1.134846,-1.783892,1.006463,-0.209961,0.821777,0.212158,-0.044074,-0.077233,0.009849,0.999931,0.005674,-0.008919,0.005032,0.501212,-0.225288,-0.377214,-0.745481
39351,NaN,-3.426727,-8.510515,0.948852,-6.527196,4.451904,-14.571322,1.260447,-1.861343,1.225130,-0.193115,0.828125,0.197754,-0.033828,-0.085369,0.008635,0.999918,0.006302,-0.009306,0.006125,0.503677,-0.231391,-0.385141,-0.737858
39352,NaN,-2.226753,-9.448194,0.156006,-7.906185,3.127792,-14.498475,1.221089,-1.917654,1.450260,-0.174072,0.830078,0.185547,-0.021592,-0.094646,0.000773,0.999909,0.006105,-0.009588,0.007251,0.507871,-0.238070,-0.392102,-0.729141
39353,NaN,-1.393797,-10.906786,-0.532620,-9.609629,2.160173,-14.728833,0.969551,-1.969542,1.647200,-0.159424,0.830078,0.181396,-0.012982,-0.109149,-0.005986,0.999906,0.004848,-0.009847,0.008236,0.511150,-0.246028,-0.398614,-0.720626
39354,NaN,-0.941462,-13.793193,-0.832267,-12.545176,1.885781,-15.370279,0.808909,-2.016384,1.712675,-0.140625,0.836426,0.175293,-0.008145,-0.137970,-0.008967,0.999904,0.004044,-0.010082,0.008563,0.515442,-0.254508,-0.403882,-0.711635
39355,NaN,0.200935,-19.181086,-0.553210,-18.099651,2.002079,-15.866044,0.924802,-2.146930,1.665446,-0.121338,0.832031,0.167236,0.003672,-0.191757,-0.006385,0.999897,0.004624,-0.010734,0.008327,0.518185,-0.263133,-0.410518,-0.702652
39356,NaN,2.091148,-26.200135,-0.869302,-25.428130,1.225549,-16.405229,1.134045,-2.329560,1.646839,-0.104492,0.834229,0.156982,0.023178,-0.261763,-0.009917,0.999882,0.005670,-0.011647,0.008234,0.521868,-0.271645,-0.417651,-0.692409
39357,NaN,5.026043,-32.964313,-1.071815,-32.819837,-0.229710,-15.797147,1.499223,-2.582277,1.895137,-0.081299,0.836182,0.142822,0.053534,-0.329057,-0.012509,0.999844,0.007496,-0.012911,0.009475,0.525018,-0.280622,-0.426912,-0.680700
39358,NaN,8.074438,-38.709733,-1.592010,-39.202453,-2.510632,-14.602389,2.014108,-2.674770,2.213669,-0.057861,0.836182,0.124512,0.085259,-0.385991,-0.018691,0.999799,0.010070,-0.013373,0.011068,0.530925,-0.289121,-0.436853,-0.666098
39359,NaN,12.594802,-43.057882,-2.139433,-44.491679,-5.878650,-11.529266,2.501052,-2.735510,2.603726,-0.036865,0.833984,0.095947,0.131862,-0.428590,-0.024986,0.999744,0.012504,-0.013676,0.013018,0.537127,-0.297240,-0.448539,-0.649581
39360,NaN,17.801881,-45.127715,-3.555450,-47.358399,-10.747497,-7.081104,2.937979,-2.590389,3.000773,-0.007080,0.836182,0.067383,0.185254,-0.447970,-0.039783,0.999696,0.014688,-0.012951,0.015002,0.546728,-0.304621,-0.459589,-0.630137
39361,NaN,21.575195,-43.510532,-4.633686,-45.970376,-14.648017,-2.604342,3.242569,-2.265602,3.270695,0.022217,0.840332,0.042969,0.223379,-0.430694,-0.050842,0.999671,0.016211,-0.011327,0.016352,0.556609,-0.310348,-0.470836,-0.610069
39362,NaN,22.211149,-38.328457,-4.903600,-40.240114,-16.194730,0.415766,3.170792,-1.818385,3.466398,0.052002,0.838135,0.012451,0.229170,-0.378534,-0.053000,0.999683,0.015852,-0.009091,0.017330,0.569074,-0.315708,-0.479065,-0.589050
39363,NaN,20.308069,-32.155305,-4.858999,-33.169432,-15.802849,1.134246,2.514145,-1.456893,3.665363,0.086182,0.827393,-0.005615,0.209286,-0.317123,-0.051086,0.999727,0.012570,-0.007284,0.018325,0.580214,-0.321578,-0.484669,-0.570119
39364,NaN,18.165159,-26.683716,-4.559208,-26.861365,-14.635679,1.452027,1.534040,-1.210958,3.853904,0.120117,0.825195,-0.011475,0.187023,-0.262913,-0.046497,0.999767,0.007670,-0.006054,0.019268,0.591867,-0.330793,-0.485178,-0.552152
39365,NaN,16.521856,-22.493145,-4.511606,-22.017701,-13.602529,1.560486,0.561392,-1.089814,3.932370,0.150146,0.812256,-0.017334,0.169841,-0.221496,-0.044824,0.999788,0.002807,-0.005449,0.019660,0.600902,-0.341650,-0.483317,-0.537212
39366,NaN,15.119255,-19.260541,-4.257163,-18.248734,-12.359671,1.668703,-0.087379,-1.057200,3.891148,0.179932,0.807861,-0.012939,0.155123,-0.189631,-0.041675,0.999797,-0.000437,-0.005286,0.019454,0.609591,-0.355321,-0.478388,-0.522772
39367,NaN,13.698013,-16.487814,-3.743668,-15.150332,-10.836596,1.433359,-0.254948,-1.078696,3.762751,0.205811,0.799316,-0.008545,0.140248,-0.162307,-0.036478,0.999808,-0.001275,-0.005393,0.018813,0.616294,-0.367891,-0.474202,-0.509873
39368,NaN,12.257058,-13.889814,-3.136382,-12.294417,-9.217511,0.996719,-0.146279,-1.089371,3.562177,0.235840,0.782227,-0.016357,0.125187,-0.136706,-0.030586,0.999826,-0.000731,-0.005447,0.017810,0.623279,-0.380927,-0.469384,-0.496081
39369,NaN,11.070851,-11.142571,-2.835421,-9.359580,-7.939621,0.390030,0.152895,-1.094121,3.295617,0.261719,0.771484,-0.016113,0.112677,-0.109558,-0.027826,0.999849,0.000764,-0.005470,0.016477,0.629100,-0.390884,-0.466792,-0.483268
39370,NaN,10.186416,-8.074627,-2.814493,-6.076862,-6.914870,-0.214492,0.476233,-1.069876,2.993193,0.279297,0.756592,-0.011719,0.103206,-0.079142,-0.027785,0.999871,0.002381,-0.005349,0.014965,0.635387,-0.400421,-0.464206,-0.469531
39371,NaN,9.599551,-4.601691,-2.973470,-2.453458,-6.017031,-0.872016,0.709074,-1.035447,2.667855,0.296143,0.752197,-0.025879,0.096750,-0.044625,-0.029395,0.999891,0.003545,-0.005177,0.013339,0.640613,-0.406792,-0.463735,-0.457259
39372,NaN,9.192377,-1.064894,-3.006644,1.176282,-4.952785,-1.520851,0.751700,-0.978899,2.315597,0.311768,0.735107,-0.025391,0.092184,-0.009471,-0.029653,0.999914,0.003758,-0.004894,0.011578,0.645668,-0.413480,-0.462664,-0.445072
39373,NaN,8.776881,2.154368,-3.043798,4.380507,-3.927281,-2.307793,0.642923,-0.985176,1.931073,0.331055,0.726562,-0.035400,0.087703,0.022487,-0.029935,0.999936,0.003215,-0.004926,0.009655,0.648989,-0.418082,-0.463220,-0.435257
39374,NaN,8.521846,4.449559,-2.764176,6.604113,-2.841768,-2.857951,0.399887,-1.044231,1.548524,0.339600,0.722412,-0.037354,0.085013,0.045209,-0.027108,0.999954,0.001999,-0.005221,0.007743,0.651166,-0.424095,-0.463117,-0.426203
39375,NaN,8.496807,5.672855,-2.051597,7.670802,-1.685827,-2.964261,0.056166,-1.112632,1.216212,0.350342,0.716064,-0.037354,0.084733,0.057250,-0.020028,0.999966,0.000281,-0.005563,0.006081,0.651292,-0.429131,-0.464229,-0.419710
39376,NaN,8.218525,6.285388,-1.507815,8.131635,-0.840934,-3.294098,-0.274121,-1.140812,0.953326,0.352783,0.707520,-0.032959,0.081969,0.063225,-0.014697,0.999971,-0.001371,-0.005704,0.004767,0.650341,-0.435985,-0.464316,-0.413986
39377,NaN,7.579565,6.619293,-1.401148,8.310838,-0.475537,-3.987627,-0.451466,-1.149829,0.742152,0.359131,0.705322,-0.034912,0.075629,0.066443,-0.013726,0.999974,-0.002257,-0.005749,0.003711,0.648220,-0.441592,-0.465454,-0.410074
39378,NaN,6.809195,6.814307,-1.485662,8.371395,-0.346539,-4.832077,-0.444227,-1.130075,0.542388,0.359375,0.701172,-0.034912,0.067990,0.068295,-0.014624,0.999978,-0.002221,-0.005650,0.002712,0.645924,-0.447839,-0.466120,-0.406145
39379,NaN,6.054152,7.049427,-1.503952,8.427868,-0.168169,-5.623222,-0.294901,-1.085665,0.346771,0.365723,0.698975,-0.034912,0.060500,0.070577,-0.014815,0.999983,-0.001474,-0.005428,0.001734,0.643439,-0.451844,-0.468207,-0.403244
39380,NaN,5.290474,7.523169,-1.671529,8.741539,-0.085232,-6.502215,-0.103704,-1.045224,0.146873,0.364014,0.692627,-0.036865,0.052936,0.075262,-0.016478,0.999986,-0.000519,-0.005226,0.000734,0.641195,-0.455737,-0.470256,-0.400041
39381,NaN,4.722509,7.965261,-1.664128,9.014282,0.136612,-7.121863,0.122493,-1.024949,-0.092086,0.361816,0.692627,-0.040771,0.047346,0.079641,-0.016350,0.999987,0.000612,-0.005125,-0.000460,0.638883,-0.457221,-0.473953,-0.397677
39382,NaN,4.539663,8.226753,-1.384552,9.142099,0.538897,-7.295529,0.251605,-0.983050,-0.331995,0.351562,0.684082,-0.051025,0.045600,0.082209,-0.013518,0.999986,0.001258,-0.004915,-0.001660,0.636555,-0.458577,-0.477687,-0.395374
39383,NaN,4.567344,8.510204,-1.059462,9.315078,0.977563,-7.228176,0.219762,-0.915067,-0.582460,0.351318,0.688477,-0.051025,0.045969,0.084980,-0.010291,0.999985,0.001099,-0.004575,-0.002912,0.633723,-0.458338,-0.482324,-0.394569
39384,NaN,4.603355,8.826651,-0.710961,9.513471,1.429026,-7.156172,0.091818,-0.788106,-0.829180,0.344971,0.690674,-0.055176,0.046426,0.088078,-0.006887,0.999984,0.000459,-0.003941,-0.004146,0.630443,-0.458476,-0.486340,-0.394734
39385,NaN,4.654254,8.657939,-0.322876,9.236910,1.770287,-6.936787,-0.073370,-0.623214,-1.075865,0.327881,0.692871,-0.059326,0.047017,0.086326,-0.003114,0.999981,-0.000367,-0.003116,-0.005379,0.626635,-0.457363,-0.490579,-0.396838
39386,NaN,4.783090,7.851420,0.016794,8.384267,1.863925,-6.533720,-0.256517,-0.428847,-1.334129,0.325684,0.697021,-0.055420,0.048353,0.078193,0.000171,0.999975,-0.001283,-0.002144,-0.006671,0.622363,-0.456495,-0.493998,-0.400303
39387,NaN,5.129673,6.803020,0.315548,7.335143,1.826849,-5.869221,-0.429288,-0.203904,-1.612772,0.310547,0.701416,-0.057617,0.051840,0.067620,0.003063,0.999965,-0.002146,-0.001020,-0.008064,0.617641,-0.454290,-0.497399,-0.405874
39388,NaN,5.689792,5.802324,0.459743,6.387149,1.624785,-5.036248,-0.544005,0.044341,-1.924994,0.295898,0.697021,-0.053467,0.057454,0.057484,0.004428,0.999950,-0.002720,0.000222,-0.009625,0.612594,-0.451724,-0.500138,-0.412961
39389,NaN,6.220460,5.288966,0.302697,5.930430,1.237183,-4.330408,-0.643301,0.293376,-2.203068,0.280762,0.707764,-0.051758,0.062786,0.052209,0.002766,0.999933,-0.003216,0.001467,-0.011015,0.607298,-0.447601,-0.502815,-0.421924
39390,NaN,6.772816,4.911787,-0.031320,5.614187,0.684638,-3.647794,-0.691077,0.557217,-2.451897,0.259521,0.708008,-0.047852,0.068322,0.048281,-0.000671,0.999915,-0.003455,0.002786,-0.012259,0.601932,-0.442890,-0.504813,-0.432077
39391,NaN,7.530771,4.298139,-0.019772,4.961760,0.365931,-2.711367,-0.706530,0.814918,-2.670594,0.238281,0.716553,-0.043945,0.075871,0.041969,-0.000656,0.999896,-0.003533,0.004074,-0.013353,0.596608,-0.436521,-0.506657,-0.443629
39392,NaN,8.277214,3.358624,0.282860,3.880935,0.225113,-1.765718,-0.790266,1.120061,-2.857842,0.218994,0.722900,-0.035889,0.083254,0.032408,0.002234,0.999874,-0.003951,0.005600,-0.014289,0.591290,-0.429611,-0.507499,-0.456350
39393,NaN,8.819203,1.882315,0.169377,2.288337,-0.449163,-1.100419,-0.924538,1.468731,-3.103543,0.191162,0.727295,-0.036133,0.088479,0.017457,0.000962,0.999842,-0.004622,0.007343,-0.015517,0.585873,-0.421103,-0.507595,-0.470927
39394,NaN,10.443940,-1.124451,-0.582763,-0.718078,-2.201991,0.448948,-0.979449,1.735186,-3.532386,0.165527,0.733643,-0.026123,0.104163,-0.013117,-0.006671,0.999794,-0.004897,0.008675,-0.017661,0.579744,-0.411311,-0.507346,-0.487155
39395,NaN,13.185153,-5.513154,-0.967147,-5.343621,-4.043136,2.846074,-1.062275,1.968419,-4.055648,0.135986,0.733887,-0.022217,0.130595,-0.057843,-0.010659,0.999732,-0.005311,0.009841,-0.020276,0.572539,-0.399250,-0.507219,-0.505496
39396,NaN,16.312053,-10.775057,-1.154604,-11.146394,-5.902951,5.165881,-1.103345,2.174546,-4.527786,0.101807,0.744629,-0.018311,0.160491,-0.111472,-0.012693,0.999669,-0.005516,0.010872,-0.022636,0.564158,-0.385818,-0.506907,-0.525277
39397,NaN,19.659439,-17.559125,-0.852421,-18.830822,-7.545690,7.035581,-1.006971,2.365216,-4.747957,0.063477,0.749023,-0.018555,0.192240,-0.180237,-0.009915,0.999636,-0.005034,0.011825,-0.023737,0.555558,-0.370326,-0.506528,-0.545567
39398,NaN,22.799868,-26.776937,0.342817,-29.205230,-8.486519,7.844096,-0.768682,2.469082,-4.610066,0.027588,0.742676,-0.012451,0.221775,-0.272921,0.001707,0.999651,-0.003843,0.012344,-0.023048,0.547545,-0.354587,-0.505751,-0.564516
39399,NaN,26.757053,-37.926390,2.645764,-41.809645,-8.660682,8.572466,-0.783909,2.508754,-4.032675,0.004395,0.744873,-0.012695,0.260170,-0.384461,0.024663,0.999710,-0.003919,0.012543,-0.020161,0.540986,-0.339405,-0.503637,-0.581797
39400,NaN,28.193413,-43.763616,2.258577,-48.294703,-10.005260,6.995376,-0.736239,2.685797,-3.189916,-0.016602,0.736572,-0.008545,0.275192,-0.441983,0.020482,0.999776,-0.003681,0.013428,-0.015948,0.537108,-0.326384,-0.499270,-0.596421
39401,NaN,23.801505,-41.578506,0.825665,-45.445052,-9.904507,1.698009,-0.651477,2.834718,-2.377026,-0.031250,0.734619,-0.010498,0.233150,-0.418553,0.006289,0.999824,-0.003257,0.014173,-0.011884,0.535968,-0.313741,-0.493470,-0.608928
39402,NaN,18.398559,-36.519542,-0.091778,-39.402378,-8.585624,-3.039207,-0.805568,2.642918,-1.868091,-0.043945,0.732422,-0.002441,0.180544,-0.366899,-0.001843,0.999861,-0.004028,0.013214,-0.009340,0.535590,-0.304412,-0.486416,-0.619577
39403,NaN,15.275808,-32.154481,0.408219,-34.653754,-6.657784,-5.101638,-1.110931,2.361650,-1.563586,-0.048096,0.730225,0.007812,0.150286,-0.322704,0.004088,0.999884,-0.005554,0.011808,-0.007818,0.534768,-0.296285,-0.478939,-0.629965
39404,NaN,12.731506,-28.709516,1.182078,-30.899645,-4.610774,-6.397306,-1.414256,2.304957,-1.292138,-0.054199,0.721924,0.016113,0.125598,-0.287824,0.012400,0.999888,-0.007071,0.011524,-0.006460,0.534265,-0.291104,-0.469723,-0.639672
39405,NaN,9.827935,-26.126412,1.332900,-27.745077,-3.009098,-8.362638,-1.479111,2.327844,-1.060590,-0.058350,0.721680,0.026367,0.097054,-0.261678,0.014129,0.999891,-0.007395,0.011639,-0.005303,0.534163,-0.285138,-0.460231,-0.649272
39406,NaN,7.387161,-23.527812,1.498229,-24.654616,-1.582377,-9.690774,-1.331567,2.372795,-0.841066,-0.062256,0.711182,0.040771,0.073065,-0.235484,0.015680,0.999899,-0.006658,0.011864,-0.004205,0.535221,-0.280562,-0.450200,-0.657377
39407,NaN,5.222147,-19.996304,1.585636,-20.710815,-0.439672,-10.522955,-1.160037,2.436440,-0.632366,-0.064209,0.706787,0.049072,0.051787,-0.200033,0.016384,0.999904,-0.005800,0.012182,-0.003162,0.536984,-0.274259,-0.440675,-0.665008
39408,NaN,3.067480,-15.898433,0.953497,-16.142739,0.011561,-11.390493,-1.096109,2.482025,-0.546647,-0.068359,0.706787,0.052979,0.030363,-0.159014,0.010028,0.999904,-0.005480,0.012410,-0.002733,0.539442,-0.269287,-0.430492,-0.671687
39409,NaN,1.040707,-11.965465,-0.012974,-11.727250,0.112143,-12.403632,-1.215987,2.523130,-0.597335,-0.068115,0.700439,0.069580,0.010053,-0.119683,0.000470,0.999897,-0.006080,0.012615,-0.002987,0.541213,-0.262830,-0.420328,-0.679216
39410,NaN,-1.282488,-8.853483,-0.732186,-8.049101,0.662428,-13.728732,-1.478487,2.551082,-0.720645,-0.072266,0.696289,0.083984,-0.013230,-0.088538,-0.006500,0.999885,-0.007392,0.012755,-0.003603,0.542520,-0.258177,-0.408697,-0.687010
39411,NaN,-3.565192,-7.016243,-1.310064,-5.595046,1.458952,-15.309680,-1.755415,2.503904,-0.884625,-0.080566,0.689941,0.094238,-0.036117,-0.070112,-0.012035,0.999873,-0.008777,0.012519,-0.004423,0.542304,-0.252547,-0.396930,-0.696113
39412,NaN,-5.317006,-6.317155,-1.448968,-4.412611,2.487297,-16.491948,-1.981483,2.389578,-1.050711,-0.088867,0.687744,0.112549,-0.053664,-0.063026,-0.013226,0.999866,-0.009907,0.011947,-0.005253,0.541220,-0.248983,-0.384230,-0.705305
39413,NaN,-6.344583,-6.272943,-1.893474,-4.000853,2.981398,-17.447195,-2.104312,2.259012,-1.164017,-0.090576,0.675049,0.127197,-0.064014,-0.062548,-0.017555,0.999864,-0.010521,0.011295,-0.005820,0.538804,-0.244490,-0.372057,-0.715184
39414,NaN,-7.027530,-6.363438,-2.012801,-3.845048,3.578239,-17.957319,-2.029575,2.103236,-1.173763,-0.103027,0.668457,0.143555,-0.070850,-0.063415,-0.018741,0.999876,-0.010147,0.010516,-0.005869,0.536401,-0.241638,-0.359932,-0.724109
39415,NaN,-8.007888,-5.681874,-1.361164,-2.849655,4.830227,-17.986074,-1.914598,1.962553,-1.091540,-0.113525,0.666504,0.153809,-0.080513,-0.056502,-0.012281,0.999891,-0.009573,0.009812,-0.005458,0.533654,-0.237724,-0.348979,-0.732744
39416,NaN,-9.358070,-4.513213,-0.268594,-1.278490,6.497450,-17.822531,-1.715690,1.756066,-0.989729,-0.115479,0.662109,0.166260,-0.093819,-0.044684,-0.001478,0.999912,-0.008578,0.008780,-0.004949,0.531487,-0.235432,-0.338557,-0.739914
39417,NaN,-10.200513,-3.709570,0.328326,-0.156289,7.483685,-17.679371,-1.533909,1.493655,-0.900331,-0.123779,0.655762,0.176514,-0.102141,-0.036606,0.004328,0.999933,-0.007669,0.007468,-0.004502,0.528890,-0.232489,-0.329913,-0.746580
39418,NaN,-10.517703,-3.248214,0.177406,0.451124,7.606794,-17.758406,-1.412609,1.223253,-0.766833,-0.132080,0.649414,0.186768,-0.105286,-0.032062,0.002645,0.999949,-0.007063,0.006116,-0.003834,0.526952,-0.231540,-0.321659,-0.751829
39419,NaN,-10.545830,-2.971473,-0.244726,0.791299,7.362565,-17.891589,-1.304155,0.937223,-0.594760,-0.133789,0.640869,0.186768,-0.105555,-0.029414,-0.001760,0.999963,-0.006521,0.004686,-0.002974,0.524743,-0.230534,-0.314926,-0.756519
39420,NaN,-10.688447,-2.791128,-0.466284,1.029980,7.335900,-18.020820,-1.170846,0.646232,-0.379959,-0.133545,0.630371,0.197266,-0.106951,-0.027733,-0.004155,0.999976,-0.005854,0.003231,-0.001900,0.523634,-0.231554,-0.308587,-0.759582
39421,NaN,-10.641476,-2.735101,-0.367918,1.097780,7.419963,-17.849838,-1.018476,0.349172,-0.195982,-0.137939,0.634521,0.201172,-0.106448,-0.027264,-0.003354,0.999985,-0.005092,0.001746,-0.000980,0.522292,-0.232634,-0.303988,-0.762026
39422,NaN,-10.211515,-2.819023,-0.234135,0.859632,7.291140,-17.453170,-0.827210,0.054204,-0.025116,-0.131348,0.625977,0.203613,-0.102119,-0.028187,-0.002197,0.999991,-0.004136,0.000271,-0.000126,0.522073,-0.235380,-0.300059,-0.762889
39423,NaN,-9.653393,-3.076557,0.270243,0.442914,7.360682,-16.766133,-0.591048,-0.226636,0.127141,-0.128906,0.621826,0.209717,-0.096517,-0.030819,0.002684,0.999995,-0.002955,-0.001133,0.000636,0.521571,-0.238022,-0.298206,-0.763140
39424,NaN,-9.039151,-3.345527,0.927698,-0.026866,7.488542,-15.951117,-0.379397,-0.478611,0.280684,-0.128906,0.619629,0.207764,-0.090366,-0.033565,0.009124,0.999994,-0.001897,-0.002393,0.001403,0.522321,-0.241929,-0.296994,-0.761870
39425,NaN,-8.524508,-3.644797,1.325445,-0.491030,7.490764,-15.412293,-0.157817,-0.710457,0.435106,-0.122314,0.613281,0.203857,-0.085212,-0.036623,0.012981,0.999991,-0.000789,-0.003552,0.002176,0.522779,-0.245736,-0.297679,-0.760068
39426,NaN,-7.966422,-3.909417,1.543871,-0.979925,7.318981,-14.970452,0.066834,-0.923145,0.596211,-0.114014,0.613281,0.203857,-0.079617,-0.039337,0.015058,0.999985,0.000334,-0.004616,0.002981,0.524679,-0.250474,-0.298919,-0.756718
39427,NaN,-7.306459,-4.287906,1.476179,-1.617735,6.893137,-14.692862,0.318836,-1.113640,0.761779,-0.111816,0.611084,0.199707,-0.072981,-0.043180,0.014287,0.999976,0.001594,-0.005568,0.003809,0.526334,-0.255029,-0.302044,-0.752796
39428,NaN,-6.601414,-4.573911,1.135837,-2.226754,6.201623,-14.542325,0.534299,-1.293305,0.904912,-0.103027,0.606934,0.191650,-0.065877,-0.046067,0.010809,0.999965,0.002671,-0.006466,0.004525,0.529461,-0.260228,-0.305597,-0.747370
39429,NaN,-6.076372,-4.466023,0.601424,-2.401044,5.362386,-14.577918,0.736539,-1.468019,1.053057,-0.092773,0.611084,0.187500,-0.060569,-0.045000,0.005404,0.999952,0.003683,-0.007340,0.005265,0.532137,-0.265407,-0.310808,-0.741477
39430,NaN,-5.303728,-4.748006,0.389113,-3.012520,4.684299,-14.262920,0.942175,-1.605971,1.204564,-0.085938,0.602539,0.177490,-0.052778,-0.047815,0.003242,0.999939,0.004711,-0.008030,0.006023,0.536384,-0.270974,-0.316263,-0.734059
39431,NaN,-4.355183,-5.710694,0.544013,-4.278610,4.310856,-13.683520,1.082607,-1.699377,1.350652,-0.069092,0.600342,0.171387,-0.043207,-0.057427,0.004762,0.999926,0.005413,-0.008497,0.006753,0.540131,-0.276471,-0.322897,-0.726333
39432,NaN,-3.546666,-6.971151,0.302657,-5.820253,3.747375,-13.465969,1.102225,-1.804310,1.509373,-0.054443,0.606689,0.155029,-0.034962,-0.069991,0.002324,0.999916,0.005511,-0.009021,0.007547,0.545262,-0.282637,-0.328978,-0.717342
39433,NaN,-2.910749,-8.220003,-0.483462,-7.307720,2.820831,-13.674221,0.949091,-1.881648,1.636089,-0.045654,0.598145,0.147217,-0.028384,-0.082409,-0.005495,0.999911,0.004745,-0.009408,0.008180,0.549375,-0.289513,-0.335126,-0.708562
39434,NaN,-2.819357,-10.341865,-1.263069,-9.522008,2.299096,-14.344644,0.845404,-1.990833,1.693274,-0.032959,0.598145,0.132812,-0.027187,-0.103596,-0.013342,0.999906,0.004227,-0.009954,0.008466,0.554307,-0.297177,-0.340439,-0.698950
39435,NaN,-2.617995,-15.035973,-1.452120,-14.244019,2.482782,-14.909485,1.033507,-2.146746,1.519115,-0.022217,0.593994,0.126709,-0.024874,-0.150473,-0.015570,0.999900,0.005167,-0.010733,0.007595,0.557488,-0.304421,-0.347663,-0.689685
39436,NaN,-1.090061,-22.978085,-1.265977,-22.410123,2.444655,-14.563952,1.428701,-2.360255,1.251051,-0.018066,0.596191,0.116699,-0.009300,-0.229744,-0.014417,0.999885,0.007143,-0.011801,0.006255,0.560932,-0.310823,-0.356555,-0.679421
39437,NaN,1.179923,-32.163712,-2.418549,-31.923581,0.736855,-14.507923,1.825125,-2.704046,1.191318,-0.005371,0.591797,0.092285,0.014066,-0.321320,-0.026939,0.999849,0.009125,-0.013520,0.005956,0.562954,-0.317019,-0.368386,-0.668485
39438,NaN,5.440110,-40.662545,-2.923000,-41.009319,-2.068146,-12.144938,2.515778,-3.077657,1.428643,0.007568,0.589844,0.071777,0.057795,-0.405817,-0.033466,0.999777,0.012578,-0.015387,0.007143,0.567139,-0.322932,-0.382381,-0.654105
39439,NaN,11.797018,-47.199538,-3.018755,-48.293057,-6.137460,-7.361884,3.065365,-3.120681,1.870814,0.018066,0.587646,0.053467,0.122902,-0.470344,-0.035513,0.999717,0.015325,-0.015602,0.009353,0.572122,-0.327985,-0.398078,-0.637680
39440,NaN,18.661539,-49.310655,-4.188797,-50.845654,-11.948749,-1.505758,3.432113,-2.976627,2.416607,0.032959,0.585449,0.037354,0.193228,-0.490015,-0.047472,0.999669,0.017159,-0.014881,0.012082,0.580647,-0.332662,-0.412598,-0.618019
39441,NaN,24.317079,-46.277966,-5.708303,-47.642916,-17.354748,4.121896,3.510747,-2.450774,2.955025,0.052002,0.585449,0.014893,0.250703,-0.458051,-0.062110,0.999662,0.017552,-0.012252,0.014773,0.590404,-0.336084,-0.425458,-0.597876
39442,NaN,23.987112,-39.510539,-5.633517,-39.909767,-18.212103,5.789403,3.124222,-1.670561,3.349846,0.075684,0.579102,0.002686,0.246927,-0.390086,-0.060412,0.999703,0.015620,-0.008352,0.016748,0.603181,-0.339493,-0.433013,-0.577422
39443,NaN,18.949373,-32.371766,-5.090634,-31.786087,-15.992251,3.095269,2.124304,-1.227090,3.674070,0.098877,0.581055,-0.003418,0.195712,-0.319604,-0.053128,0.999756,0.010621,-0.006135,0.018369,0.614625,-0.344562,-0.436457,-0.559481
39444,NaN,15.664128,-26.834403,-4.548340,-25.564014,-14.092863,1.757754,0.974675,-1.144206,3.868074,0.122314,0.576660,-0.000977,0.162050,-0.265022,-0.045864,0.999785,0.004873,-0.005721,0.019339,0.625564,-0.354040,-0.434907,-0.542385
39445,NaN,14.943572,-22.721817,-4.353289,-20.920398,-13.229350,2.260348,0.071750,-1.158001,3.935412,0.145508,0.576660,0.005127,0.154116,-0.224201,-0.042730,0.999790,0.000359,-0.005790,0.019676,0.633745,-0.365501,-0.431618,-0.527715
39446,NaN,14.323823,-19.893222,-4.401941,-17.531837,-12.591189,2.609127,-0.367081,-1.155147,3.856389,0.175293,0.576416,0.017578,0.147289,-0.196197,-0.042815,0.999796,-0.001835,-0.005775,0.019281,0.641508,-0.379052,-0.426104,-0.513053
39447,NaN,12.902556,-17.359031,-4.255296,-14.685764,-11.456457,1.974384,-0.380291,-1.192170,3.718437,0.200928,0.565674,0.023926,0.132473,-0.171228,-0.041443,0.999808,-0.001901,-0.005960,0.018591,0.647691,-0.391242,-0.421773,-0.499534
39448,NaN,11.491292,-14.601041,-3.888078,-11.726986,-10.058343,1.215594,-0.145606,-1.292496,3.506984,0.224365,0.561279,0.032471,0.117697,-0.143991,-0.038021,0.999825,-0.000728,-0.006462,0.017534,0.654024,-0.403488,-0.417569,-0.484858
39449,NaN,10.711274,-11.745609,-3.490322,-8.725187,-8.803583,0.733124,0.165663,-1.383300,3.233487,0.247803,0.559082,0.034424,0.109231,-0.115673,-0.034249,0.999845,0.000828,-0.006916,0.016167,0.659234,-0.413051,-0.415854,-0.471026
39450,NaN,10.018275,-8.884981,-3.200295,-5.743992,-7.633948,0.100093,0.391645,-1.424194,2.952686,0.271240,0.550537,0.028564,0.101705,-0.087294,-0.031454,0.999864,0.001958,-0.007121,0.014763,0.664496,-0.422476,-0.414215,-0.456492
39451,NaN,9.303301,-5.990759,-3.357254,-2.801796,-6.845525,-0.925039,0.536275,-1.443879,2.636824,0.290527,0.550293,0.030762,0.094051,-0.058583,-0.033054,0.999883,0.002681,-0.007219,0.013184,0.668603,-0.429466,-0.414565,-0.443470
39452,NaN,8.623122,-3.252824,-3.173095,-0.133700,-5.733461,-1.931633,0.582668,-1.470351,2.312736,0.307373,0.548096,0.024658,0.086830,-0.031435,-0.031187,0.999902,0.002913,-0.007352,0.011563,0.672298,-0.436820,-0.414679,-0.430401
39453,NaN,8.349203,-1.019270,-2.998015,2.051111,-4.817170,-2.579448,0.505028,-1.538667,1.942588,0.322266,0.546143,0.022705,0.083813,-0.009305,-0.029360,0.999920,0.002525,-0.007693,0.009713,0.674359,-0.442492,-0.416608,-0.419379
39454,NaN,8.496914,0.697535,-2.905498,3.844532,-4.154979,-2.807101,0.393125,-1.632167,1.562903,0.335205,0.541748,0.027100,0.085144,0.007696,-0.028346,0.999934,0.001966,-0.008161,0.007814,0.675390,-0.449085,-0.418405,-0.408789
39455,NaN,8.832864,1.972085,-2.487522,5.151454,-3.313824,-2.701121,0.237006,-1.684266,1.234896,0.349854,0.543701,0.016846,0.088410,0.020295,-0.024107,0.999945,0.001185,-0.008421,0.006174,0.674905,-0.454353,-0.421726,-0.400267
39456,NaN,8.835615,3.054641,-1.997085,6.138282,-2.382826,-2.882443,0.092766,-1.703260,0.988235,0.356445,0.541748,0.016846,0.088369,0.030992,-0.019204,0.999951,0.000464,-0.008516,0.004941,0.673712,-0.460739,-0.424410,-0.392056
39457,NaN,8.388883,3.938155,-1.822711,6.807878,-1.754342,-3.505738,0.045662,-1.726219,0.798625,0.366943,0.543701,0.006592,0.083884,0.039721,-0.017494,0.999955,0.000228,-0.008631,0.003993,0.671706,-0.465712,-0.428400,-0.385223
39458,NaN,7.848096,4.525550,-1.732933,7.184783,-1.289059,-4.174290,0.177444,-1.732041,0.634851,0.371094,0.543701,0.002686,0.078483,0.045520,-0.016609,0.999957,0.000887,-0.008660,0.003174,0.669783,-0.470958,-0.432149,-0.377937
39459,NaN,7.496786,4.947268,-1.590544,7.432093,-0.850805,-4.592992,0.417470,-1.693639,0.508954,0.375488,0.539551,-0.003418,0.074972,0.049696,-0.015167,0.999959,0.002087,-0.008468,0.002545,0.668056,-0.473911,-0.437336,-0.371276
39460,NaN,7.285079,5.590494,-1.530693,7.948114,-0.443713,-4.985934,0.632165,-1.618471,0.408995,0.379639,0.539551,-0.017822,0.072856,0.056101,-0.014540,0.999960,0.003161,-0.008092,0.002045,0.666882,-0.476777,-0.442087,-0.364022
39461,NaN,7.106565,6.673076,-1.543025,8.868534,0.020366,-5.481341,0.809056,-1.513496,0.302658,0.388184,0.539551,-0.027832,0.071077,0.066899,-0.014622,0.999962,0.004045,-0.007567,0.001513,0.666005,-0.477556,-0.447810,-0.357551
39462,NaN,6.901932,7.972090,-1.536443,9.967142,0.571802,-6.087322,0.857330,-1.397951,0.161019,0.381836,0.539551,-0.040283,0.069059,0.079840,-0.014540,0.999966,0.004287,-0.006990,0.000805,0.665287,-0.478568,-0.452827,-0.351160
39463,NaN,6.539470,9.041329,-1.436628,10.757932,1.150252,-6.727875,0.764992,-1.251063,-0.028526,0.377441,0.541748,-0.040283,0.065494,0.090457,-0.013611,0.999973,0.003825,-0.006255,-0.000143,0.664230,-0.478216,-0.458331,-0.346469
39464,NaN,5.976043,9.731837,-1.155736,11.087657,1.763394,-7.423047,0.618542,-1.062371,-0.274419,0.379395,0.545898,-0.052490,0.059953,0.097271,-0.010938,0.999980,0.003093,-0.005312,-0.001372,0.662855,-0.478303,-0.462890,-0.342904
39465,NaN,5.268231,9.823204,-0.653071,10.758661,2.373557,-7.998170,0.467224,-0.845967,-0.570283,0.373047,0.548096,-0.062988,0.052989,0.098096,-0.006078,0.999984,0.002336,-0.004230,-0.002851,0.661039,-0.476952,-0.467794,-0.341634
39466,NaN,4.646051,9.252725,-0.245567,9.898870,2.640833,-8.297318,0.333990,-0.620711,-0.912467,0.366699,0.546143,-0.064941,0.046889,0.092318,-0.002156,0.999983,0.001670,-0.003104,-0.004562,0.658862,-0.475613,-0.471985,-0.341940
39467,NaN,4.431052,8.163705,0.198226,8.690067,2.751700,-8.015705,0.267509,-0.395048,-1.306194,0.360107,0.554688,-0.071289,0.044838,0.081343,0.002179,0.999976,0.001338,-0.001975,-0.006531,0.656330,-0.472390,-0.476781,-0.344614
39468,NaN,4.704131,7.020220,0.592038,7.590454,2.768822,-7.267172,0.254946,-0.173877,-1.730801,0.345215,0.556885,-0.079590,0.047641,0.069784,0.006051,0.999961,0.001275,-0.000869,-0.008654,0.653555,-0.468464,-0.481344,-0.348877
39469,NaN,5.254707,6.110320,0.753102,6.820618,2.615865,-6.327135,0.257251,0.071215,-2.104265,0.328125,0.563232,-0.081787,0.053189,0.060536,0.007590,0.999944,0.001286,0.000356,-0.010521,0.650635,-0.462487,-0.486405,-0.355232
39470,NaN,5.612051,5.513491,0.888954,6.261005,2.511765,-5.668814,0.254602,0.295832,-2.405846,0.310791,0.571777,-0.082031,0.056791,0.054443,0.008875,0.999926,0.001273,0.001479,-0.012029,0.647673,-0.455921,-0.490980,-0.362759
39471,NaN,5.986504,4.931621,0.731553,5.773542,2.105096,-5.024637,0.149270,0.502746,-2.637616,0.291504,0.576172,-0.090332,0.060527,0.048515,0.007200,0.999910,0.000746,0.002514,-0.013188,0.644422,-0.448089,-0.495535,-0.371998
39472,NaN,6.368473,4.455825,0.402571,5.415168,1.536841,-4.438330,-0.021361,0.703971,-2.821780,0.278809,0.580566,-0.092529,0.064319,0.043654,0.003795,0.999894,-0.000107,0.003520,-0.014108,0.640858,-0.440411,-0.499120,-0.382386
39473,NaN,6.766353,3.691610,0.289933,4.688988,1.045420,-3.778511,-0.192583,0.903907,-2.969262,0.250977,0.584961,-0.090576,0.068214,0.035909,0.002557,0.999879,-0.000963,0.004519,-0.014846,0.636954,-0.431917,-0.502278,-0.394277
39474,NaN,7.215787,2.513837,0.056200,3.588562,0.273190,-3.072351,-0.467392,1.139838,-3.156674,0.238281,0.589111,-0.090820,0.072544,0.023996,0.000092,0.999856,-0.002337,0.005699,-0.015783,0.632543,-0.423718,-0.504154,-0.407654
39475,NaN,7.741871,0.339109,-0.334050,1.538286,-0.990044,-2.275481,-0.570798,1.376122,-3.490801,0.206055,0.597900,-0.091064,0.077437,0.002029,-0.003880,0.999820,-0.002854,0.006880,-0.017453,0.627596,-0.413924,-0.505888,-0.422928
39476,NaN,9.904922,-3.496885,-0.756835,-1.988771,-2.982547,0.088861,-0.550215,1.547537,-4.032214,0.178467,0.602051,-0.085205,0.098255,-0.036977,-0.008231,0.999763,-0.002751,0.007737,-0.020159,0.621731,-0.402614,-0.507821,-0.439853
39477,NaN,12.731947,-8.254871,-0.978956,-6.653791,-5.208203,2.826973,-0.544589,1.752134,-4.573788,0.152832,0.606445,-0.079102,0.125296,-0.085458,-0.010663,0.999696,-0.002723,0.008760,-0.022867,0.614863,-0.388801,-0.510176,-0.458801
39478,NaN,15.859116,-14.476840,-0.253014,-13.273935,-7.041712,5.525794,-0.400042,1.875200,-5.022862,0.116699,0.610840,-0.085449,0.154858,-0.148696,-0.003699,0.999639,-0.002000,0.009375,-0.025111,0.607135,-0.373371,-0.512823,-0.478533
39479,NaN,19.743387,-22.316262,0.905736,-21.896647,-9.077007,8.258739,-0.397801,1.888272,-5.235607,0.084961,0.613281,-0.079590,0.191580,-0.228213,0.007681,0.999611,-0.001989,0.009440,-0.026175,0.598504,-0.356575,-0.515661,-0.498740
39480,NaN,24.398364,-30.715997,2.549059,-31.531990,-10.847527,10.995746,-0.789753,1.856223,-5.125543,0.044678,0.615479,-0.083984,0.236239,-0.313183,0.024503,0.999621,-0.003948,0.009280,-0.025624,0.588883,-0.341709,-0.516815,-0.518993
39481,NaN,28.627956,-37.794150,3.876406,-40.043447,-12.295441,12.725731,-1.391653,1.996810,-4.509982,0.032227,0.609131,-0.069580,0.278051,-0.384005,0.038619,0.999672,-0.006958,0.009983,-0.022547,0.579807,-0.328942,-0.514808,-0.539067
39482,NaN,27.982680,-41.686634,5.051531,-44.849359,-11.487845,10.254139,-1.895321,2.307860,-3.452706,0.008545,0.617676,-0.059570,0.273170,-0.421137,0.051315,0.999740,-0.009476,0.011538,-0.017262,0.573226,-0.320243,-0.508222,-0.557285
39483,NaN,21.489994,-41.836673,4.495614,-44.507518,-9.520468,2.863232,-2.089501,2.345466,-2.483135,0.004639,0.613525,-0.043213,0.210230,-0.420513,0.046858,0.999800,-0.010447,0.011727,-0.012415,0.568849,-0.313404,-0.499501,-0.573313
39484,NaN,16.848783,-39.083898,3.281049,-41.150075,-8.031409,-1.793423,-2.047522,2.088205,-1.841873,-0.008057,0.611328,-0.034912,0.165239,-0.392019,0.035083,0.999851,-0.010237,0.010441,-0.009209,0.565633,-0.309838,-0.490072,-0.586421
39485,NaN,14.288408,-33.513295,3.562360,-35.551876,-5.630710,-3.155007,-2.040584,2.010173,-1.268585,-0.008057,0.613525,-0.022705,0.141128,-0.335655,0.037622,0.999877,-0.010203,0.010050,-0.006343,0.563654,-0.306648,-0.480256,-0.598009
39486,NaN,10.911076,-27.317338,3.869326,-29.075357,-3.009418,-4.731784,-2.014620,1.962553,-0.878256,-0.006104,0.615479,-0.006348,0.108302,-0.273249,0.040380,0.999891,-0.010073,0.009812,-0.004391,0.562819,-0.305715,-0.469478,-0.607753
39487,NaN,7.949252,-22.626099,3.267172,-23.922379,-1.696414,-6.550879,-1.977092,1.916366,-0.680029,-0.005859,0.611084,0.011963,0.079046,-0.226198,0.034149,0.999899,-0.009885,0.009582,-0.003400,0.562220,-0.303907,-0.459016,-0.617133
39488,NaN,5.859843,-19.744300,2.654997,-20.655804,-0.938235,-7.895340,-1.839136,1.961170,-0.528792,-0.003906,0.613281,0.022217,0.058345,-0.197346,0.027792,0.999906,-0.009195,0.009806,-0.002644,0.562541,-0.303227,-0.448016,-0.625206
39489,NaN,3.969201,-17.541601,2.434985,-18.135205,-0.022099,-9.104425,-1.639549,2.016054,-0.421511,-0.006104,0.615479,0.036621,0.039575,-0.175294,0.025388,0.999913,-0.008198,0.010080,-0.002107,0.563256,-0.300643,-0.437767,-0.633022
39490,NaN,2.634161,-14.583458,2.016026,-14.948783,0.444889,-9.695576,-1.587806,2.067688,-0.364814,-0.006104,0.619629,0.044678,0.026290,-0.145718,0.021045,0.999913,-0.007939,0.010338,-0.001824,0.564543,-0.299184,-0.426820,-0.640003
39491,NaN,1.487767,-11.284421,1.395627,-11.445235,0.588895,-10.209155,-1.638309,2.125337,-0.359957,-0.001709,0.613037,0.061035,0.014828,-0.112752,0.014722,0.999908,-0.008191,0.010626,-0.001800,0.565478,-0.296288,-0.416023,-0.647590
39492,NaN,0.144834,-8.575989,0.715363,-8.485691,0.749101,-11.041648,-1.761778,2.163780,-0.428026,-0.008057,0.615234,0.073242,0.001348,-0.085695,0.007894,0.999900,-0.008809,0.010819,-0.002140,0.566307,-0.294745,-0.404172,-0.655032
39493,NaN,-1.269388,-6.928048,0.173489,-6.565704,1.088544,-12.124301,-1.957396,2.201969,-0.534735,-0.005859,0.613037,0.089844,-0.012854,-0.069224,0.002554,0.999888,-0.009787,0.011009,-0.002674,0.566113,-0.292037,-0.392213,-0.663626
39494,NaN,-2.635555,-5.969071,-0.194646,-5.347675,1.606491,-13.193859,-2.152925,2.202632,-0.684871,-0.014648,0.621582,0.107910,-0.026574,-0.059614,-0.001013,0.999876,-0.010764,0.011013,-0.003424,0.565326,-0.290791,-0.379175,-0.672364
39495,NaN,-3.815199,-5.490483,-0.451059,-4.624185,2.183023,-14.143056,-2.252005,2.168823,-0.809665,-0.016602,0.615234,0.122314,-0.038415,-0.054793,-0.003478,0.999870,-0.011260,0.010844,-0.004048,0.563427,-0.288365,-0.366546,-0.681938
39496,NaN,-4.822901,-5.357392,-0.667559,-4.272299,2.755592,-14.966073,-2.224137,2.099328,-0.910255,-0.027100,0.610840,0.145020,-0.048535,-0.053420,-0.005573,0.999873,-0.011120,0.010496,-0.004551,0.561274,-0.287048,-0.353721,-0.690982
39497,NaN,-5.749493,-5.179952,-0.388041,-3.861825,3.702575,-15.417296,-2.155783,2.021480,-0.924477,-0.031494,0.615234,0.148926,-0.057765,-0.051567,-0.002741,0.999880,-0.010778,0.010107,-0.004622,0.558556,-0.284515,-0.341827,-0.700157
39498,NaN,-6.930430,-4.301951,0.024799,-2.696411,4.795620,-15.834737,-2.088091,1.915739,-0.884013,-0.033203,0.606689,0.171631,-0.069484,-0.042702,0.001360,0.999890,-0.010440,0.009578,-0.004420,0.556109,-0.283295,-0.329804,-0.708319
39499,NaN,-8.208276,-3.246674,0.215754,-1.302476,5.713990,-16.416715,-1.942561,1.721065,-0.803485,-0.045898,0.606689,0.179688,-0.082188,-0.032109,0.003178,0.999908,-0.009713,0.008605,-0.004017,0.553363,-0.281319,-0.319189,-0.716078
39500,NaN,-9.155996,-2.410628,0.237342,-0.211384,6.300314,-16.880785,-1.817775,1.479736,-0.701133,-0.045898,0.602295,0.192139,-0.091622,-0.023758,0.003268,0.999925,-0.009089,0.007398,-0.003506,0.551069,-0.280999,-0.308969,-0.722427
39501,NaN,-9.861589,-1.929288,0.211470,0.492974,6.742476,-17.249862,-1.710623,1.212536,-0.573154,-0.050049,0.600342,0.194092,-0.098655,-0.018988,0.002876,0.999941,-0.008553,0.006063,-0.002866,0.548503,-0.280497,-0.300176,-0.728258
39502,NaN,-10.175608,-1.756594,0.258595,0.780458,7.031162,-17.339157,-1.588097,0.913202,-0.414881,-0.056396,0.602295,0.212402,-0.101779,-0.017331,0.003189,0.999956,-0.007940,0.004566,-0.002074,0.546625,-0.281855,-0.291877,-0.732507
39503,NaN,-10.232536,-1.662279,0.223506,0.926155,7.089926,-17.322177,-1.441976,0.605559,-0.242330,-0.053711,0.589600,0.220947,-0.102338,-0.016481,0.002664,0.999969,-0.007210,0.003028,-0.001212,0.544641,-0.283281,-0.285212,-0.736052
39504,NaN,-10.105938,-1.776107,0.069965,0.770186,6.971888,-17.301934,-1.192154,0.288659,-0.057511,-0.058105,0.593750,0.222900,-0.101063,-0.017727,0.000951,0.999981,-0.005961,0.001443,-0.000288,0.543724,-0.286213,-0.279528,-0.737774
39505,NaN,-9.874375,-2.194523,0.188959,0.325050,7.039150,-17.072136,-0.864787,-0.028631,0.108906,-0.055908,0.587402,0.224854,-0.098732,-0.021991,0.001970,0.999990,-0.004324,-0.000143,0.000545,0.542913,-0.288883,-0.276195,-0.738585
39506,NaN,-9.505477,-2.592744,0.436684,-0.153840,7.084834,-16.671878,-0.477713,-0.347467,0.237064,-0.053955,0.593750,0.222900,-0.095031,-0.026030,0.004264,0.999995,-0.002389,-0.001737,0.001185,0.543271,-0.292501,-0.274436,-0.737553
39507,NaN,-9.084441,-2.784905,1.113508,-0.381230,7.330823,-15.947509,-0.105677,-0.644243,0.340309,-0.045410,0.593750,0.216797,-0.090832,-0.027998,0.010857,0.999993,-0.000528,-0.003221,0.001702,0.543554,-0.295692,-0.275233,-0.735773
39508,NaN,-8.635850,-2.647942,1.709279,-0.336015,7.403796,-15.251561,0.157197,-0.899481,0.429686,-0.047363,0.583252,0.214844,-0.086377,-0.026678,0.016683,0.999987,0.000786,-0.004497,0.002148,0.544861,-0.299754,-0.277010,-0.732489
39509,NaN,-8.173277,-2.502903,1.844313,-0.338220,7.121448,-14.876083,0.358215,-1.136051,0.514362,-0.041016,0.585205,0.206543,-0.081771,-0.025272,0.017934,0.999979,0.001791,-0.005680,0.002572,0.545767,-0.303709,-0.280576,-0.728819
39510,NaN,-7.527621,-2.857788,1.469951,-0.954423,6.465283,-14.740226,0.534122,-1.328196,0.580473,-0.034668,0.585205,0.200439,-0.075288,-0.028835,0.014123,0.999970,0.002671,-0.006641,0.002902,0.547634,-0.308372,-0.284639,-0.723868
39511,NaN,-6.973800,-3.671948,0.782671,-2.021848,5.718019,-14.906244,0.754169,-1.520965,0.676535,-0.023926,0.585205,0.184326,-0.069669,-0.036983,0.007158,0.999958,0.003771,-0.007605,0.003383,0.549127,-0.312827,-0.290413,-0.718512
39512,NaN,-6.572100,-4.667053,-0.172609,-3.285043,4.858281,-15.345033,1.025471,-1.695595,0.764911,-0.021973,0.587402,0.176025,-0.065523,-0.046910,-0.002522,0.999944,0.005127,-0.008478,0.003824,0.551874,-0.317569,-0.296916,-0.711636
39513,NaN,-6.018844,-6.154882,-0.871008,-5.002621,4.140499,-15.530509,1.541061,-1.949983,0.855346,-0.017822,0.589600,0.151367,-0.059833,-0.061733,-0.009770,0.999914,0.007705,-0.009750,0.004277,0.554490,-0.321565,-0.306330,-0.703775
39514,NaN,-5.231510,-8.281350,-1.866930,-7.417683,3.066514,-15.728900,2.066008,-2.133332,0.907957,-0.009277,0.589600,0.137207,-0.051730,-0.082847,-0.020079,0.999879,0.010330,-0.010666,0.004540,0.558615,-0.324991,-0.317387,-0.693970
39515,NaN,-4.605813,-10.667830,-3.394247,-10.052460,1.548368,-16.375700,2.489273,-2.336311,0.963105,-0.011475,0.589600,0.114746,-0.045134,-0.106459,-0.035799,0.999843,0.012446,-0.011681,0.004815,0.562272,-0.327692,-0.330868,-0.683370
39516,NaN,-4.301137,-13.125076,-4.576711,-12.634291,0.288169,-17.022480,2.673477,-2.620550,1.101726,-0.000732,0.585449,0.094238,-0.041670,-0.130850,-0.048070,0.999810,0.013367,-0.013102,0.005508,0.566960,-0.331145,-0.344858,-0.670800
39517,NaN,-4.292969,-17.121716,-3.831319,-16.551152,0.772484,-17.001903,2.814345,-3.056068,1.119436,-0.000732,0.583496,0.071777,-0.041356,-0.170884,-0.041359,0.999769,0.014071,-0.015279,0.005597,0.570036,-0.335344,-0.360960,-0.657504
39518,NaN,-2.742746,-24.138965,-0.456434,-23.654386,2.760666,-14.631551,2.533039,-3.652048,1.016439,0.005615,0.583496,0.061768,-0.026074,-0.241437,-0.008107,0.999740,0.012664,-0.018259,0.005082,0.571920,-0.342126,-0.377235,-0.643080
39519,NaN,0.392008,-33.291925,0.205369,-33.145334,1.650321,-12.489076,2.045171,-4.116860,1.141628,0.008057,0.574951,0.039307,0.005823,-0.332888,-0.001244,0.999720,0.010225,-0.020582,0.005708,0.571222,-0.351650,-0.393456,-0.628681
39520,NaN,3.551459,-42.622438,-1.201099,-42.739604,-1.692364,-10.842104,2.467742,-4.254321,1.900681,0.020752,0.574951,0.020996,0.039880,-0.425674,-0.016449,0.999653,0.012337,-0.021269,0.009502,0.574142,-0.361846,-0.409156,-0.609934
39521,NaN,8.015866,-49.680464,-1.651432,-49.975649,-5.371156,-6.918483,3.430637,-4.165196,2.783351,0.037842,0.566406,-0.003418,0.087496,-0.495261,-0.023248,0.999539,0.017151,-0.020823,0.013915,0.580104,-0.370308,-0.426279,-0.587058
39522,NaN,13.300755,-52.527903,-1.039224,-52.678303,-8.981963,-0.817500,4.360523,-3.851372,3.492731,0.057129,0.564209,-0.025635,0.142462,-0.522492,-0.019123,0.999424,0.021798,-0.019253,0.017460,0.591193,-0.376538,-0.442679,-0.559237
39523,NaN,18.426521,-50.191114,-1.652456,-49.568961,-13.290072,5.254890,4.846769,-3.387696,3.961505,0.075928,0.566406,-0.048096,0.194531,-0.497582,-0.025382,0.999367,0.024229,-0.016935,0.019803,0.603567,-0.380300,-0.458433,-0.530017
39524,NaN,20.826909,-44.219046,-2.774002,-42.182545,-16.247615,8.971441,4.772965,-2.783202,4.155728,0.099609,0.555664,-0.074463,0.217841,-0.436949,-0.035223,0.999403,0.023860,-0.013913,0.020775,0.618260,-0.383074,-0.470288,-0.499839
39525,NaN,19.847850,-36.997851,-3.086292,-33.786194,-16.271530,9.308794,3.980238,-2.144708,4.323414,0.127441,0.549316,-0.082275,0.206771,-0.364886,-0.035971,0.999511,0.019898,-0.010722,0.021614,0.631380,-0.386201,-0.478284,-0.472708
39526,NaN,18.110011,-30.826236,-2.840592,-26.714232,-14.970484,8.849328,2.778174,-1.678370,4.483278,0.156982,0.549316,-0.096680,0.188196,-0.303677,-0.031086,0.999617,0.013889,-0.008391,0.022414,0.644325,-0.392675,-0.480172,-0.447310
39527,NaN,17.344405,-26.335699,-2.202900,-21.603103,-13.270391,9.062273,1.586424,-1.380944,4.596933,0.180420,0.544922,-0.094238,0.179588,-0.259097,-0.022870,0.999681,0.007931,-0.006904,0.022982,0.654231,-0.401658,-0.478922,-0.425778
39528,NaN,17.030113,-23.021574,-1.964007,-17.524402,-11.968894,9.510050,0.698418,-1.134815,4.556624,0.208252,0.534180,-0.100098,0.175596,-0.226187,-0.019448,0.999718,0.003492,-0.005674,0.022781,0.663512,-0.413440,-0.473631,-0.405577
39529,NaN,16.125326,-20.071610,-2.311074,-13.971620,-11.022979,8.933244,0.257063,-0.934539,4.457214,0.239990,0.536133,-0.087891,0.165778,-0.197026,-0.022598,0.999740,0.001285,-0.004672,0.022284,0.670722,-0.425025,-0.467847,-0.388079
39530,NaN,14.754875,-16.796248,-2.705959,-10.307841,-9.890874,7.593597,0.151247,-0.819360,4.351174,0.268066,0.520996,-0.079346,0.151265,-0.164678,-0.026570,0.999755,0.000756,-0.004096,0.021754,0.678315,-0.437126,-0.460285,-0.370063
39531,NaN,13.218784,-12.984926,-2.918583,-6.540904,-8.398765,5.630323,0.138205,-0.769214,4.196152,0.293701,0.514648,-0.076904,0.134984,-0.127017,-0.028759,0.999772,0.000691,-0.003846,0.020979,0.684477,-0.447734,-0.453802,-0.353680
39532,NaN,12.028512,-8.883531,-2.914327,-2.639119,-6.638731,3.641919,0.136668,-0.768925,3.957628,0.317139,0.510254,-0.072754,0.122122,-0.086411,-0.028736,0.999797,0.000683,-0.003844,0.019787,0.690645,-0.458499,-0.446471,-0.336827
39533,NaN,10.986246,-4.914778,-3.088290,0.970103,-5.129627,1.461987,0.089611,-0.718327,3.682669,0.347168,0.497314,-0.070312,0.110852,-0.047099,-0.030507,0.999824,0.000448,-0.003591,0.018412,0.695342,-0.467635,-0.440508,-0.322132
39534,NaN,10.113178,-1.245457,-3.462796,4.275876,-3.939749,-0.757108,-0.050579,-0.723316,3.341652,0.362061,0.497314,-0.066162,0.101445,-0.010770,-0.034259,0.999854,-0.000253,-0.003616,0.016707,0.699515,-0.477238,-0.433839,-0.307742
39535,NaN,9.641669,2.097476,-3.487091,7.148663,-2.592162,-2.623020,-0.173539,-0.732197,2.960927,0.383545,0.488770,-0.061768,0.096219,0.022370,-0.034537,0.999883,-0.000868,-0.003661,0.014804,0.701999,-0.485435,-0.428943,-0.295904
39536,NaN,9.444663,4.874215,-3.774473,9.640143,-1.728310,-4.219685,-0.331062,-0.761919,2.512863,0.400635,0.479980,-0.059570,0.093968,0.049863,-0.037468,0.999912,-0.001655,-0.003809,0.012564,0.703698,-0.493994,-0.423833,-0.284860
39537,NaN,9.378354,6.891940,-3.894452,11.400207,-1.024561,-5.385370,-0.559541,-0.820525,2.052348,0.417480,0.482178,-0.057373,0.093230,0.069769,-0.038756,0.999935,-0.002798,-0.004103,0.010262,0.703462,-0.501545,-0.420750,-0.276702
39538,NaN,9.183697,8.294172,-3.603449,12.419114,-0.202511,-6.371618,-0.774760,-0.886438,1.603600,0.426270,0.475830,-0.053223,0.091328,0.083536,-0.035952,0.999951,-0.003874,-0.004432,0.008018,0.702213,-0.509706,-0.417694,-0.269495
39539,NaN,8.727081,9.132348,-2.877198,12.667165,0.777272,-7.209286,-0.885483,-0.933068,1.182183,0.434814,0.473633,-0.051025,0.086864,0.091710,-0.028772,0.999962,-0.004427,-0.004665,0.005911,0.699580,-0.516618,-0.416670,-0.264727
39540,NaN,8.336047,9.469717,-2.054524,12.504522,1.654296,-7.742398,-0.875816,-0.975807,0.779915,0.443359,0.471436,-0.046875,0.083091,0.094932,-0.020555,0.999971,-0.004379,-0.004879,0.003900,0.696593,-0.523371,-0.415949,-0.260437
39541,NaN,8.056646,9.765410,-1.597213,12.462058,2.169972,-8.135745,-0.742789,-0.980930,0.384421,0.447510,0.471436,-0.042725,0.080457,0.097750,-0.015940,0.999979,-0.003714,-0.004905,0.001922,0.693099,-0.528121,-0.417303,-0.257992
39542,NaN,7.888270,10.126400,-1.491057,12.632521,2.381480,-8.493630,-0.514533,-0.962403,-0.014047,0.451904,0.471436,-0.051025,0.078961,0.101220,-0.014791,0.999985,-0.002573,-0.004812,-0.000070,0.689953,-0.531814,-0.419169,-0.255804
39543,NaN,7.798719,10.497060,-1.563569,12.895420,2.445664,-8.726705,-0.268520,-0.937480,-0.400388,0.443115,0.475586,-0.051025,0.078270,0.104793,-0.015410,0.999986,-0.001343,-0.004687,-0.002002,0.686756,-0.533190,-0.423037,-0.255174
39544,NaN,7.582697,10.665111,-1.486280,12.882907,2.588162,-8.928583,-0.073567,-0.899163,-0.784604,0.447510,0.477783,-0.055176,0.076310,0.106347,-0.014560,0.999982,-0.000368,-0.004496,-0.003923,0.683862,-0.533548,-0.427387,-0.254950
39545,NaN,7.275441,10.740044,-1.385004,12.737761,2.723417,-9.085549,0.037728,-0.846022,-1.168214,0.434570,0.482178,-0.059326,0.073438,0.106975,-0.013520,0.999974,0.000189,-0.004230,-0.005841,0.680651,-0.532087,-0.433351,-0.256524
39546,NaN,6.947128,10.617012,-1.150749,12.383425,2.914462,-9.133915,0.016931,-0.781658,-1.545590,0.429932,0.490479,-0.061523,0.070333,0.105630,-0.011225,0.999962,0.000085,-0.003908,-0.007728,0.677187,-0.530220,-0.439504,-0.259077
39547,NaN,6.821919,10.263332,-0.942749,11.945650,3.018185,-8.837815,-0.093054,-0.684649,-1.913472,0.412842,0.494873,-0.063721,0.069229,0.101970,-0.009239,0.999948,-0.000465,-0.003423,-0.009567,0.672926,-0.527291,-0.446670,-0.263857
39548,NaN,6.825230,9.507526,-0.603135,11.186296,3.112109,-8.226490,-0.260025,-0.562928,-2.282004,0.406250,0.507812,-0.066162,0.069348,0.094280,-0.005960,0.999930,-0.001300,-0.002815,-0.011410,0.668101,-0.524267,-0.453678,-0.270114
39549,NaN,7.189785,8.508805,-0.348987,10.382589,3.063159,-7.162021,-0.482576,-0.412382,-2.657213,0.384766,0.514160,-0.064209,0.073027,0.084114,-0.003544,0.999907,-0.002413,-0.002062,-0.013286,0.662256,-0.520463,-0.461245,-0.278905
39550,NaN,7.791367,7.369770,-0.386307,9.603214,2.687975,-5.848823,-0.722805,-0.249270,-3.022772,0.363525,0.518555,-0.072754,0.079020,0.072495,-0.004028,0.999878,-0.003614,-0.001246,-0.015113,0.655669,-0.516601,-0.468431,-0.289471
39551,NaN,8.363146,6.139316,-0.475769,8.667033,2.198735,-4.530894,-0.924775,-0.057535,-3.354355,0.343994,0.529297,-0.060547,0.084647,0.059956,-0.005013,0.999849,-0.004624,-0.000288,-0.016771,0.648202,-0.511888,-0.475792,-0.302369
39552,NaN,9.008560,4.721681,-0.677692,7.539558,1.528893,-3.125893,-1.036501,0.101803,-3.633836,0.320312,0.544189,-0.062988,0.090920,0.045534,-0.007062,0.999821,-0.005182,0.000509,-0.018168,0.640336,-0.506743,-0.482742,-0.316452
39553,NaN,9.658779,3.004630,-1.011210,6.065087,0.629888,-1.679620,-0.994796,0.252482,-3.860599,0.298828,0.550537,-0.057129,0.097130,0.028124,-0.010378,0.999801,-0.004974,0.001262,-0.019302,0.632203,-0.500217,-0.489962,-0.331721
39554,NaN,10.297367,0.618670,-1.132899,3.801557,-0.260974,-0.160373,-0.691567,0.409769,-3.996960,0.268799,0.559326,-0.051270,0.103046,0.004088,-0.011557,0.999792,-0.003458,0.002049,-0.019983,0.624856,-0.492192,-0.497099,-0.346692
39555,NaN,10.999229,-2.906663,-0.708025,0.221374,-0.954734,1.543120,-0.209377,0.580956,-4.048516,0.245361,0.565674,-0.057617,0.109353,-0.031292,-0.007367,0.999790,-0.001047,0.002905,-0.020241,0.618655,-0.481783,-0.504698,-0.361152
39556,NaN,11.883290,-7.352056,-0.391744,-4.257272,-2.055628,3.341780,0.358857,0.807832,-4.111299,0.219971,0.567871,-0.063965,0.117271,-0.075934,-0.004528,0.999779,0.001794,0.004039,-0.020555,0.614128,-0.469103,-0.512351,-0.374548
39557,NaN,14.006345,-13.157675,-0.536378,-9.807437,-4.108787,6.201643,0.863546,0.960242,-4.338145,0.194580,0.568115,-0.066162,0.137137,-0.134546,-0.006604,0.999744,0.004317,0.004801,-0.021689,0.610356,-0.453533,-0.520983,-0.387750
39558,NaN,18.601293,-19.795025,1.076401,-16.517930,-4.974433,11.194076,0.887549,1.087718,-4.547605,0.168945,0.570312,-0.066162,0.181500,-0.202154,0.008878,0.999717,0.004437,0.005438,-0.022736,0.606353,-0.437163,-0.529255,-0.401389
39559,NaN,22.454979,-25.406451,1.874486,-22.517049,-6.573137,14.739303,0.253504,1.416695,-4.519864,0.139404,0.572510,-0.072510,0.218856,-0.259076,0.016855,0.999719,0.001267,0.007083,-0.022597,0.601445,-0.421584,-0.535122,-0.417343
39560,NaN,23.428094,-28.747824,0.782351,-26.235038,-9.185395,14.744663,-0.496776,1.798198,-4.280578,0.116211,0.568359,-0.068359,0.228120,-0.292388,0.006476,0.999727,-0.002484,0.008990,-0.021401,0.596295,-0.408291,-0.537217,-0.434889
39561,NaN,22.786367,-32.071381,0.432113,-30.236801,-10.730901,12.955346,-1.444134,2.102354,-3.753313,0.103516,0.566406,-0.056152,0.221838,-0.324884,0.004304,0.999743,-0.007220,0.010511,-0.018765,0.590716,-0.397955,-0.535257,-0.454078
39562,NaN,22.227187,-35.339270,0.902488,-34.275000,-10.965863,11.366582,-2.699682,2.455231,-3.011347,0.084473,0.568359,-0.035889,0.217047,-0.356546,0.011138,0.999720,-0.013497,0.012275,-0.015055,0.585120,-0.392906,-0.527318,-0.474548
39563,NaN,19.635143,-36.728664,1.086583,-36.288660,-10.191494,7.931800,-3.577630,2.826565,-2.246484,0.078125,0.566406,-0.013428,0.192401,-0.369222,0.014721,0.999677,-0.017886,0.014131,-0.011231,0.580067,-0.390730,-0.514727,-0.495892
39564,NaN,16.260394,-36.626198,0.908716,-36.520434,-8.877431,4.117666,-3.779482,2.999643,-1.641101,0.075928,0.568359,0.013184,0.159774,-0.367352,0.013612,0.999675,-0.018895,0.014997,-0.008205,0.576379,-0.390838,-0.499217,-0.515573
39565,NaN,13.253476,-35.488944,0.740833,-35.591511,-7.380730,0.881968,-3.198005,3.029940,-1.279360,0.067383,0.572510,0.035645,0.130411,-0.355570,0.011104,0.999737,-0.015989,0.015148,-0.006396,0.574291,-0.389057,-0.484532,-0.532967
39566,NaN,10.395473,-33.355335,0.960530,-33.572720,-5.577631,-1.856176,-2.127769,2.998680,-1.093120,0.073730,0.570312,0.047852,0.102294,-0.333999,0.011615,0.999816,-0.010638,0.014992,-0.005465,0.574680,-0.385569,-0.471726,-0.546400
39567,NaN,8.173113,-30.095203,1.362947,-30.389396,-3.948213,-3.873980,-1.146583,2.932414,-0.976560,0.067383,0.570312,0.058105,0.080466,-0.301267,0.014170,0.999864,-0.005733,0.014661,-0.004883,0.576694,-0.378604,-0.461906,-0.557428
39568,NaN,6.791778,-25.694719,1.207769,-25.973419,-3.181195,-5.010162,-0.619096,2.900847,-0.805562,0.073975,0.568115,0.066406,0.067056,-0.257181,0.011897,0.999882,-0.003095,0.014504,-0.004028,0.580266,-0.371636,-0.452644,-0.565943
39569,NaN,5.565398,-20.671522,0.609414,-20.885163,-2.926115,-6.083913,-0.648500,2.928134,-0.559150,0.073730,0.570312,0.078613,0.055164,-0.206850,0.005955,0.999884,-0.003242,0.014640,-0.002796,0.584096,-0.364028,-0.443220,-0.574344
39570,NaN,3.755403,-16.250431,0.064006,-16.352119,-2.430139,-7.602294,-1.011665,2.975459,-0.297980,0.071777,0.570312,0.086670,0.037324,-0.162556,0.000906,0.999875,-0.005058,0.014877,-0.001490,0.588320,-0.359044,-0.431415,-0.582106
