// Start Time: Unknown
// Update Rate: 100.0Hz
// Filter Profile: human (46.1)
// Firmware Version: 4.4.0
PacketCounter,SampleTimeFine,Acc_X,Acc_Y,Acc_Z,FreeAcc_X,FreeAcc_Y,FreeAcc_Z,Gyr_X,Gyr_Y,Gyr_Z,Mag_X,Mag_Y,Mag_Z,VelInc_X,VelInc_Y,VelInc_Z,OriInc_q0,OriInc_q1,OriInc_q2,OriInc_q3,Quat_q0,Quat_q1,Quat_q2,Quat_q3
50343,NaN,9.860722,-2.938203,-1.960227,0.000000,0.000000,0.661515,0.255698,0.291386,-0.662027,-0.812256,0.139648,0.033936,0.098481,-0.029683,-0.019784,0.999993,0.001278,0.001457,-0.003310,0.563927,0.145949,-0.757059,0.295882
50344,NaN,9.617364,-2.569046,-1.976950,-0.000000,-0.000000,0.336283,0.235433,0.292988,-0.666086,-0.812012,0.131104,0.036133,0.096058,-0.025987,-0.019941,0.999993,0.001177,0.001465,-0.003330,0.578334,0.121259,-0.763896,0.259402
50345,NaN,9.190524,-2.460665,-2.071498,0.062703,0.250733,-0.079008,0.220817,0.307768,-0.647134,-0.812012,0.131104,0.025391,0.091793,-0.024881,-0.020884,0.999993,0.001104,0.001539,-0.003236,0.569747,0.142058,-0.758438,0.282808
50346,NaN,8.764951,-2.223934,-1.881437,-0.021435,0.257377,-0.579972,0.193675,0.306421,-0.609846,-0.816162,0.124512,0.021240,0.087552,-0.022488,-0.018970,0.999994,0.000968,0.001532,-0.003049,0.571630,0.144488,-0.756853,0.282021
50347,NaN,8.472511,-2.120602,-1.677157,-0.086551,0.175921,-0.921425,0.184992,0.298842,-0.579222,-0.811768,0.126709,0.025635,0.084638,-0.021436,-0.016918,0.999994,0.000925,0.001494,-0.002896,0.573836,0.146485,-0.754972,0.281554
50348,NaN,8.308688,-2.270045,-1.617721,0.049406,-0.015796,-1.049043,0.171069,0.298198,-0.559663,-0.809082,0.114014,0.017090,0.082999,-0.022919,-0.016321,0.999995,0.000855,0.001491,-0.002798,0.575621,0.148667,-0.753461,0.280811
50349,NaN,8.081757,-2.391581,-1.542796,0.175310,-0.201926,-1.248638,0.164430,0.313783,-0.540191,-0.815674,0.111816,0.019287,0.080728,-0.024121,-0.015574,0.999995,0.000822,0.001569,-0.002701,0.577428,0.150862,-0.751966,0.279937
50350,NaN,7.712868,-2.489608,-1.581784,0.414995,-0.308306,-1.571265,0.148832,0.315745,-0.510885,-0.817627,0.111816,0.010742,0.077040,-0.025081,-0.015958,0.999995,0.000744,0.001579,-0.002554,0.579215,0.152769,-0.750457,0.279258
50351,NaN,7.575097,-2.492652,-1.746063,0.616684,-0.229923,-1.675686,0.125533,0.317134,-0.499082,-0.815186,0.103271,0.010742,0.075661,-0.025104,-0.017596,0.999995,0.000628,0.001586,-0.002495,0.580426,0.153973,-0.749320,0.279136
50352,NaN,7.598935,-2.804119,-1.789770,0.863076,-0.463231,-1.575546,0.130262,0.310489,-0.486048,-0.817383,0.101074,0.008789,0.075893,-0.028214,-0.018034,0.999996,0.000651,0.001552,-0.002430,0.582165,0.155738,-0.747860,0.278452
50353,NaN,8.066080,-2.766801,-1.397953,0.394738,-0.607990,-1.201913,0.149976,0.293123,-0.464853,-0.815186,0.098877,0.006592,0.080576,-0.027845,-0.014119,0.999996,0.000750,0.001466,-0.002324,0.581502,0.155581,-0.747918,0.279764
50354,NaN,8.519996,-2.500185,-1.517727,0.260839,-0.293942,-0.813236,0.233499,0.277380,-0.436737,-0.823486,0.094727,0.008789,0.085124,-0.025170,-0.015325,0.999996,0.001167,0.001387,-0.002184,0.582966,0.157505,-0.746443,0.279582
50355,NaN,8.948732,-2.252505,-1.364195,-0.134602,-0.105940,-0.486107,0.245178,0.276607,-0.391160,-0.816895,0.088135,0.002441,0.089424,-0.022683,-0.013793,0.999996,0.001226,0.001383,-0.001956,0.582149,0.156690,-0.746212,0.282345
50356,NaN,9.243859,-1.796603,-1.534673,-0.295284,0.378642,-0.283720,0.216936,0.272411,-0.349832,-0.818848,0.086182,-0.001709,0.092386,-0.018111,-0.015492,0.999997,0.001085,0.001362,-0.001749,0.583488,0.158241,-0.744836,0.282348
50357,NaN,9.288808,-1.731439,-1.812814,-0.114629,0.622603,-0.212415,0.216785,0.254459,-0.303517,-0.818848,0.081787,-0.003906,0.092839,-0.017436,-0.018265,0.999997,0.001084,0.001272,-0.001518,0.583835,0.158523,-0.743997,0.283682
50358,NaN,9.295427,-1.643438,-1.629412,-0.274183,0.578536,-0.254922,0.192247,0.224211,-0.250211,-0.818848,0.086182,-0.003906,0.092915,-0.016535,-0.016414,0.999998,0.000961,0.001121,-0.001251,0.584871,0.159696,-0.742870,0.283844
50359,NaN,8.994184,-1.440906,-1.611494,-0.299470,0.676928,-0.592030,0.165457,0.189225,-0.178769,-0.818604,0.077637,-0.010254,0.089914,-0.014476,-0.016212,0.999999,0.000827,0.000946,-0.000894,0.585357,0.161151,-0.742400,0.283248
50360,NaN,8.634930,-1.599837,-1.927421,0.151748,0.715008,-0.851541,0.215839,0.157366,-0.089404,-0.820801,0.079590,-0.005859,0.086327,-0.016016,-0.019359,0.999999,0.001079,0.000787,-0.000447,0.585894,0.161892,-0.741561,0.283914
50361,NaN,8.664379,-1.527401,-1.570677,-0.160582,0.520879,-0.892244,0.225811,0.133665,0.026019,-0.818848,0.083984,-0.010254,0.086635,-0.015245,-0.015782,0.999999,0.001129,0.000668,0.000130,0.585823,0.163754,-0.741575,0.282952
50362,NaN,8.847393,-1.155168,-1.053015,-0.819616,0.529530,-0.881427,0.185427,0.101478,0.153124,-0.823242,0.086182,-0.010254,0.088477,-0.011474,-0.010586,0.999999,0.000927,0.000507,0.000766,0.585830,0.163586,-0.741140,0.284171
50363,NaN,9.331000,-0.684712,-1.615659,-0.762647,1.258294,-0.432830,0.152803,0.077463,0.304289,-0.816650,0.086182,-0.012451,0.093314,-0.006693,-0.016198,0.999998,0.000764,0.000387,0.001521,0.586067,0.164570,-0.741117,0.283174
50364,NaN,9.904240,-0.643660,-2.001492,-0.652496,1.613842,0.161469,0.125541,0.072732,0.470364,-0.819092,0.090332,-0.010498,0.099050,-0.006191,-0.020055,0.999997,0.000628,0.000364,0.002352,0.585566,0.163092,-0.741111,0.285076
50365,NaN,10.609151,-0.313345,-1.908613,-1.082053,1.842545,0.757498,0.142828,0.061192,0.666453,-0.819336,0.096924,-0.016846,0.106095,-0.002766,-0.019121,0.999994,0.000714,0.000306,0.003332,0.585724,0.163703,-0.741376,0.283708
50366,NaN,11.821260,-0.343427,-1.956508,-1.388851,2.031541,1.918939,0.206809,0.061762,0.852082,-0.817383,0.105469,-0.012695,0.118220,-0.002910,-0.019605,0.999990,0.001034,0.000309,0.004260,0.584569,0.161061,-0.741592,0.287018
50367,NaN,12.911369,-0.559270,-1.514848,-1.874095,1.624606,2.960636,0.238427,0.077846,1.045336,-0.822021,0.114014,-0.010742,0.129135,-0.004900,-0.015205,0.999986,0.001192,0.000389,0.005227,0.584208,0.164014,-0.741347,0.286714
50368,NaN,14.387607,0.041709,-0.432535,-3.530453,1.694636,4.038429,0.207728,0.080607,1.252320,-0.813721,0.122559,-0.015137,0.143868,0.001322,-0.004382,0.999980,0.001039,0.000403,0.006262,0.582529,0.159860,-0.741826,0.291202
50369,NaN,16.571952,1.063350,-1.569024,-3.683758,3.404068,6.095136,0.234955,0.059849,1.527599,-0.812256,0.139648,-0.015381,0.165627,0.011917,-0.015726,0.999970,0.001175,0.000299,0.007638,0.586229,0.156196,-0.741732,0.285959
50370,NaN,18.674590,0.703149,-2.999706,-3.077363,4.450511,8.324168,0.354143,0.086737,1.815642,-0.812500,0.152588,-0.019775,0.186658,0.008779,-0.030064,0.999957,0.001771,0.000434,0.009078,0.583653,0.150370,-0.742357,0.292650
50371,NaN,20.148019,0.471838,-1.869014,-4.228129,3.662062,9.638685,0.437989,-0.018563,2.054372,-0.802490,0.169678,-0.020020,0.201419,0.006828,-0.018658,0.999945,0.002190,-0.000093,0.010272,0.581963,0.156219,-0.740833,0.296784
50373,NaN,21.954950,0.110851,-0.253020,-12.428916,6.208973,31.840712,0.872818,-0.233139,2.310197,-0.803711,0.206055,-0.020752,0.438901,0.012396,-0.003958,0.999692,0.008727,-0.002331,0.023100,0.571838,0.144829,-0.742980,0.316237
50374,NaN,22.685651,0.181644,0.932224,-7.409322,2.501449,11.503033,1.601389,-0.393656,2.473852,-0.791504,0.227539,-0.025146,0.226793,0.004545,0.009798,0.999890,0.008007,-0.001968,0.012369,0.569969,0.158222,-0.737143,0.326684
50375,NaN,22.905454,2.075419,0.780580,-8.933411,4.338698,10.945872,2.227359,-0.567642,2.501381,-0.785645,0.246826,-0.033936,0.228748,0.023523,0.008707,0.999856,0.011136,-0.002838,0.012506,0.561947,0.156255,-0.736995,0.341525
50376,NaN,22.545778,4.570367,-0.676358,-9.899050,6.243599,10.002783,2.548430,-0.564023,2.369711,-0.784424,0.270508,-0.030029,0.224911,0.048446,-0.005523,0.999845,0.012741,-0.002820,0.011848,0.545217,0.196005,-0.722434,0.377372
50377,NaN,22.265211,4.363984,-1.627095,-9.535397,6.960932,9.630227,2.156220,-0.450733,2.169143,-0.774170,0.283203,-0.038818,0.222195,0.046220,-0.015281,0.999881,0.010781,-0.002254,0.010845,0.537319,0.194874,-0.721634,0.390586
50378,NaN,18.641182,0.880181,-4.631944,-3.779352,6.673838,7.819005,1.319436,-0.525966,2.434324,-0.776855,0.302490,-0.036865,0.186405,0.011374,-0.045760,0.999901,0.006597,-0.002630,0.012171,0.540672,0.206114,-0.710886,0.399790
50379,NaN,16.835550,-6.553237,-9.042662,4.448471,5.721219,9.044943,0.207956,-0.371077,2.455467,-0.758301,0.323975,-0.034912,0.169310,-0.063364,-0.090180,0.999922,0.001040,-0.001855,0.012277,0.534189,0.198674,-0.713948,0.406754
50380,NaN,17.029713,-8.900651,-9.025872,5.947384,4.369465,10.092489,-0.914719,-0.360915,2.675515,-0.754883,0.347412,-0.026855,0.171633,-0.087127,-0.089548,0.999898,-0.004573,-0.001805,0.013377,0.531956,0.196991,-0.716170,0.406593
50381,NaN,16.609397,-8.943054,-7.687431,4.901485,3.352666,9.672369,-1.441378,-0.049471,2.574831,-0.751221,0.368896,-0.024902,0.167251,-0.087833,-0.076196,0.999891,-0.007207,-0.000247,0.012874,0.527906,0.184017,-0.721690,0.408187
50382,NaN,15.013421,-16.261775,-5.623232,9.137298,-3.051177,10.890993,-0.883634,0.095898,2.649339,-0.736816,0.388184,-0.031494,0.152246,-0.160857,-0.055592,0.999902,-0.004418,0.000479,0.013246,0.527497,0.176505,-0.725293,0.405638
50383,NaN,12.490968,-25.524873,-4.173406,15.047144,-9.983627,12.521628,0.054754,0.006773,2.716139,-0.729004,0.409668,-0.036133,0.128359,-0.253510,-0.041808,0.999908,0.000274,0.000034,0.013580,0.521916,0.166769,-0.727494,0.412969
50384,NaN,15.048296,-23.456385,-6.164997,13.508186,-5.999767,14.603536,-0.180837,-0.637193,2.341197,-0.725098,0.424561,-0.030029,0.153410,-0.232835,-0.060953,0.999926,-0.000904,-0.003186,0.011706,0.502875,0.176499,-0.730401,0.427176
50385,NaN,17.217716,-8.594893,-6.227737,1.929573,3.075131,10.084941,-0.441795,-0.525100,1.838636,-0.715088,0.441650,-0.032227,0.173121,-0.084497,-0.061636,0.999952,-0.002209,-0.002625,0.009193,0.497395,0.169785,-0.734252,0.429703
50386,NaN,14.541491,-5.689259,-3.353610,-0.946708,1.881325,6.018439,0.184438,-0.414455,2.026249,-0.707031,0.456787,-0.030273,0.146050,-0.055384,-0.033285,0.999946,0.000922,-0.002072,0.010131,0.483480,0.175323,-0.737763,0.437281
50387,NaN,13.142764,-7.485412,-2.356038,0.086826,-0.012028,5.494114,0.045960,-0.331905,2.087327,-0.703125,0.469482,-0.034668,0.132238,-0.073471,-0.023358,0.999944,0.000230,-0.001659,0.010436,0.477625,0.168449,-0.740253,0.442182
50388,NaN,10.384230,-6.559692,-1.480799,0.006014,-0.696797,2.538979,0.014310,-0.376608,2.009131,-0.688721,0.488770,-0.037109,0.104522,-0.064548,-0.014616,0.999948,0.000072,-0.001883,0.010045,0.467481,0.165936,-0.745741,0.444744
50389,NaN,8.184479,-3.875994,-1.733940,-0.715249,0.699881,-0.646909,0.134621,-0.563272,1.847047,-0.686768,0.495361,-0.041504,0.082246,-0.037990,-0.017134,0.999953,0.000673,-0.002816,0.009235,0.461140,0.160607,-0.748255,0.449076
50390,NaN,7.248363,-1.675070,-1.887110,-1.763461,1.849604,-2.575736,0.016999,-0.675784,1.640463,-0.680908,0.512451,-0.035400,0.072681,-0.016153,-0.018627,0.999961,0.000085,-0.003379,0.008202,0.452349,0.156968,-0.754007,0.449684
50391,NaN,5.766666,-0.714619,-1.425611,-1.934066,1.766117,-4.433377,-0.172978,-0.710719,1.432201,-0.672607,0.520996,-0.033203,0.057766,-0.006745,-0.014045,0.999968,-0.000865,-0.003554,0.007161,0.446571,0.152769,-0.757102,0.451700
50392,NaN,3.662196,0.058174,-0.541297,-1.804546,1.085726,-6.767579,-0.417819,-0.702619,1.162522,-0.666504,0.527344,-0.029053,0.036637,0.000784,-0.005286,0.999975,-0.002089,-0.003513,0.005813,0.440131,0.149628,-0.762918,0.449280
50393,NaN,2.281622,1.625406,0.292735,-2.469801,1.041784,-8.947731,-0.689831,-0.652479,0.857199,-0.664551,0.538086,-0.031250,0.022737,0.016362,0.002945,0.999980,-0.003449,-0.003262,0.004286,0.436223,0.146301,-0.766529,0.448038
50394,NaN,1.043326,2.854770,0.928356,-2.847081,1.024748,-10.784299,-0.836309,-0.576724,0.576991,-0.662598,0.542236,-0.022705,0.010324,0.028616,0.009194,0.999983,-0.004182,-0.002884,0.002885,0.432784,0.144031,-0.771906,0.442848
50395,NaN,-0.045847,3.598208,1.351635,-2.872680,0.953033,-12.182377,-0.914332,-0.496292,0.312526,-0.662842,0.544434,-0.020752,-0.000548,0.036043,0.013350,0.999985,-0.004572,-0.002481,0.001563,0.430829,0.141942,-0.775218,0.439633
50396,NaN,-0.815587,3.980249,1.842290,-2.895378,0.719472,-13.129394,-1.035516,-0.413358,0.040813,-0.664795,0.542236,-0.014160,-0.008202,0.039895,0.018200,0.999984,-0.005178,-0.002067,0.000204,0.430266,0.140800,-0.779673,0.432615
50397,NaN,-1.266222,3.884677,2.203020,-2.757248,0.357334,-13.529806,-1.121946,-0.321308,-0.234315,-0.662842,0.544434,0.000732,-0.012652,0.038984,0.021791,0.999982,-0.005610,-0.001607,-0.001172,0.430303,0.139991,-0.782612,0.427505
50398,NaN,-1.177493,4.216820,2.482791,-3.161922,0.434780,-13.704369,-1.158333,-0.233061,-0.486012,-0.669189,0.540039,0.005127,-0.011701,0.042339,0.024569,0.999980,-0.005792,-0.001165,-0.002430,0.432380,0.140092,-0.786007,0.419064
50399,NaN,-1.554967,4.561018,2.565065,-3.193456,0.592672,-14.200228,-1.080481,-0.123416,-0.762664,-0.671143,0.533691,0.007324,-0.015391,0.045807,0.025394,0.999978,-0.005402,-0.000617,-0.003813,0.434240,0.141007,-0.787986,0.413074
50400,NaN,-1.244981,4.067590,2.249648,-2.934829,0.663435,-13.568009,-1.001865,-0.045569,-1.003526,-0.679443,0.527344,0.013672,-0.012250,0.040850,0.022289,0.999975,-0.005009,-0.000228,-0.005018,0.438647,0.142923,-0.789771,0.404258
50401,NaN,-1.500734,4.014118,2.122876,-2.708451,0.752586,-13.681719,-0.941000,0.041680,-1.243706,-0.689941,0.520996,0.018066,-0.014753,0.040333,0.021042,0.999970,-0.004705,0.000208,-0.006218,0.441985,0.145680,-0.790668,0.397833
50402,NaN,-1.664802,3.879084,1.848196,-2.422313,0.937645,-13.618916,-0.916102,0.053000,-1.486598,-0.698242,0.508057,0.016113,-0.016354,0.038997,0.018308,0.999962,-0.004580,0.000265,-0.007433,0.448038,0.149346,-0.791324,0.388284
50403,NaN,-1.496507,3.642788,1.599143,-2.268367,1.044984,-13.251973,-0.821288,0.095325,-1.706407,-0.704102,0.497314,0.018311,-0.014646,0.036619,0.015848,0.999955,-0.004106,0.000477,-0.008532,0.452322,0.154064,-0.791395,0.381267
50404,NaN,-1.496092,3.365171,1.309862,-1.984122,1.147550,-12.978797,-0.775858,0.132242,-1.923577,-0.716309,0.475830,0.022949,-0.014627,0.033844,0.012977,0.999946,-0.003879,0.000661,-0.009618,0.459509,0.159502,-0.790964,0.371195
50405,NaN,-1.631422,3.024628,1.385644,-1.803698,0.901146,-12.921376,-0.766224,0.190267,-2.139771,-0.731201,0.467285,0.027344,-0.015976,0.030471,0.013755,0.999935,-0.003831,0.000951,-0.010699,0.464814,0.165839,-0.790191,0.363377
50406,NaN,-1.470778,2.663957,1.478308,-1.786302,0.668563,-12.606759,-0.867307,0.208790,-2.311880,-0.737061,0.450195,0.020996,-0.014383,0.026871,0.014682,0.999923,-0.004336,0.001044,-0.011559,0.472965,0.172350,-0.789137,0.351940
50407,NaN,-1.290546,2.186457,1.908695,-1.903215,0.091407,-12.353967,-1.035696,0.258408,-2.454220,-0.751465,0.428711,0.027832,-0.012610,0.022119,0.018989,0.999910,-0.005178,0.001292,-0.012271,0.479153,0.179113,-0.788163,0.342242
50408,NaN,-1.048594,1.484630,1.943953,-1.669124,-0.350324,-11.855608,-1.275966,0.298776,-2.576453,-0.759277,0.411621,0.028076,-0.010264,0.015103,0.019359,0.999896,-0.006380,0.001494,-0.012882,0.488262,0.185379,-0.786947,0.328556
50409,NaN,-1.169017,-0.129412,1.573629,-0.426317,-1.207439,-11.302569,-1.507998,0.345815,-2.680467,-0.769287,0.385986,0.030518,-0.011678,-0.001019,0.015765,0.999880,-0.007540,0.001729,-0.013402,0.495365,0.191653,-0.786001,0.316361
50410,NaN,-0.967959,-2.140073,0.407856,1.448979,-1.852876,-10.200009,-1.605185,0.400897,-2.785529,-0.783691,0.371094,0.032715,-0.009968,-0.021229,0.004269,0.999869,-0.008026,0.002004,-0.013927,0.505094,0.197568,-0.784346,0.301079
50411,NaN,-0.660382,-4.143023,-1.145800,3.589016,-2.316675,-8.997863,-1.581500,0.427069,-2.841855,-0.785156,0.347412,0.031006,-0.007216,-0.041419,-0.011115,0.999866,-0.007907,0.002135,-0.014209,0.512541,0.204048,-0.782735,0.288083
50412,NaN,0.353091,-6.658930,-2.568999,5.733938,-3.377905,-7.210145,-1.436397,0.508871,-2.817663,-0.799561,0.328125,0.031250,0.002526,-0.066812,-0.025218,0.999872,-0.007182,0.002544,-0.014088,0.521537,0.210304,-0.780172,0.274049
50413,NaN,1.192215,-9.106842,-4.283184,8.179686,-4.277540,-5.630651,-1.342341,0.561837,-2.637137,-0.800781,0.300293,0.029297,0.010598,-0.091499,-0.042250,0.999887,-0.006711,0.002809,-0.013185,0.528695,0.216296,-0.777684,0.262497
50414,NaN,2.095839,-12.048941,-6.037707,10.993536,-5.626436,-4.024962,-1.201167,0.580362,-2.337987,-0.813232,0.287598,0.027344,0.019371,-0.121082,-0.059709,0.999909,-0.006006,0.002902,-0.011690,0.535576,0.221364,-0.775062,0.251863
50415,NaN,2.301224,-14.396049,-7.869228,13.765018,-6.469740,-3.245977,-1.048639,0.531650,-1.954053,-0.810303,0.272461,0.016846,0.021394,-0.144585,-0.077994,0.999935,-0.005243,0.002658,-0.009770,0.541223,0.225444,-0.772746,0.243140
50416,NaN,2.130428,-16.046381,-9.566227,16.131045,-6.791709,-2.943165,-0.872510,0.461394,-1.527011,-0.814209,0.255371,0.012939,0.019857,-0.161035,-0.095007,0.999959,-0.004362,0.002307,-0.007635,0.544391,0.228826,-0.771231,0.237654
50417,NaN,1.679997,-16.962428,-10.552403,17.604101,-6.979010,-3.233669,-0.571696,0.367738,-1.052926,-0.820557,0.253174,0.010742,0.015712,-0.170010,-0.105068,0.999980,-0.002858,0.001839,-0.005265,0.547704,0.230887,-0.769690,0.233001
50418,NaN,1.234320,-17.354986,-10.685162,18.115484,-7.075472,-3.595187,-0.078479,0.302843,-0.551534,-0.809570,0.249023,0.004395,0.011703,-0.173625,-0.106802,0.999995,-0.000392,0.001514,-0.002758,0.546124,0.233500,-0.769367,0.235160
50419,NaN,-1.868634,-17.878227,-11.878488,20.257562,-6.391070,-6.206299,0.393590,0.146041,-0.069291,-0.809570,0.249023,0.006592,-0.018835,-0.178542,-0.119123,0.999998,0.001968,0.000730,-0.000346,0.546307,0.234668,-0.768423,0.236656
50420,NaN,-4.879910,-39.718906,-47.466398,60.285377,1.061802,4.961797,4.522568,-1.023410,1.199158,-0.810059,0.263916,-0.008789,-0.044000,-0.386592,-0.483720,0.999713,0.022611,-0.005117,0.005995,0.529877,0.245177,-0.768555,0.261614
50421,NaN,23.481425,-66.838509,2.575378,33.983326,-53.866857,21.312518,-1.604133,1.337362,1.182977,-0.810059,0.266113,-0.008789,0.238950,-0.666753,0.029517,0.999928,-0.008020,0.006687,0.005915,0.535397,0.234613,-0.768505,0.260206
50422,NaN,9.798651,9.768841,4.385270,-12.539960,3.613047,-3.460098,-3.055717,0.754878,-1.511225,-0.807617,0.253174,-0.017090,0.098885,0.097595,0.041989,0.999848,-0.015278,0.003774,-0.007556,0.533259,0.234128,-0.771253,0.256880
50423,NaN,8.202655,27.089211,10.541478,-27.406837,12.677489,-9.238152,2.439281,-0.376915,-0.512995,-0.811768,0.255371,-0.019287,0.082516,0.269367,0.108862,0.999921,0.012196,-0.001885,-0.002565,0.529567,0.243073,-0.768464,0.264458
50424,NaN,16.920029,-1.136031,5.619792,-8.646308,-6.210064,4.534301,1.228264,-0.024114,0.011525,-0.809570,0.249023,-0.019043,0.169194,-0.011695,0.056147,0.999981,0.006141,-0.000121,0.000058,0.520870,0.248066,-0.768309,0.277234
50425,NaN,18.302500,-16.717990,7.836392,-0.098447,-19.062137,7.865038,0.272068,0.763744,0.502779,-0.809814,0.261963,-0.025879,0.183742,-0.166824,0.077436,0.999989,0.001360,0.003819,0.002514,0.522763,0.245780,-0.766558,0.280535
50426,NaN,20.689331,-1.471715,5.619601,-9.730527,-6.549126,8.193355,-0.049493,0.797877,0.146880,-0.809814,0.257568,-0.036377,0.207126,-0.014551,0.055374,0.999992,-0.000247,0.003989,0.000734,0.520141,0.244757,-0.765173,0.289926
50427,NaN,19.451446,-4.606778,-2.520818,-1.784769,-2.883960,10.047605,0.144059,0.718422,0.032117,-0.809814,0.261963,-0.038574,0.194430,-0.046018,-0.025940,0.999993,0.000720,0.003592,0.000161,0.522662,0.243964,-0.763131,0.291440
50428,NaN,15.138398,-3.910436,-4.372334,0.335930,-0.556301,6.409414,-0.164939,0.738544,0.040130,-0.807617,0.259766,-0.047119,0.151229,-0.039110,-0.044250,0.999993,-0.000825,0.003693,0.000201,0.521413,0.242532,-0.761413,0.299260
50429,NaN,10.303243,0.123724,-6.442579,0.640313,4.091706,1.612119,-0.084057,0.752444,0.061621,-0.807617,0.259766,-0.047119,0.102789,0.001242,-0.064813,0.999993,-0.000420,0.003762,0.000308,0.524283,0.240948,-0.759647,0.300013
50430,NaN,8.488553,-5.559745,-3.140855,2.944648,-1.997001,0.195910,0.105647,0.564542,0.037660,-0.803223,0.257568,-0.062012,0.084807,-0.055565,-0.031677,0.999996,0.000528,0.002823,0.000188,0.522342,0.240496,-0.758034,0.307741
50431,NaN,6.473047,-5.899083,-0.749187,2.350489,-3.834766,-2.260833,-0.034236,0.409030,-0.133243,-0.805420,0.261963,-0.064453,0.064676,-0.059035,-0.007614,0.999998,-0.000171,0.002045,-0.000666,0.524137,0.240279,-0.756857,0.307756
50432,NaN,6.147886,-5.519249,-1.093530,2.418928,-3.228556,-2.520258,-0.061801,0.296105,-0.356027,-0.807373,0.255615,-0.066406,0.061364,-0.055305,-0.011009,0.999997,-0.000309,0.001481,-0.001780,0.522130,0.241240,-0.755671,0.313280
50433,NaN,6.295968,-5.198017,-1.062703,2.160931,-3.047403,-2.475694,-0.195882,0.217759,-0.503905,-0.813477,0.247070,-0.066406,0.062817,-0.052149,-0.010644,0.999996,-0.000979,0.001089,-0.002520,0.523975,0.242288,-0.754799,0.311488
50434,NaN,6.851544,-4.508540,-1.838869,1.987434,-1.982669,-1.889879,-0.241433,0.101799,-0.628871,-0.811279,0.242676,-0.063965,0.068364,-0.045323,-0.018369,0.999994,-0.001207,0.000509,-0.003144,0.522079,0.244072,-0.753998,0.315198
50435,NaN,7.480882,-4.176563,-3.762755,2.810915,-0.412972,-0.896781,-0.190309,0.112235,-0.721084,-0.813232,0.236328,-0.068359,0.074636,-0.042071,-0.037630,0.999993,-0.000952,0.000561,-0.003605,0.523866,0.246113,-0.753120,0.312735
50436,NaN,8.166767,-3.435995,-4.755487,2.675094,0.835665,-0.155471,-0.108709,0.103273,-0.793873,-0.814941,0.225586,-0.070312,0.081506,-0.034710,-0.047578,0.999992,-0.000544,0.000516,-0.003969,0.522228,0.248896,-0.751899,0.316190
50437,NaN,9.316004,-3.544648,-4.458179,2.252547,0.448034,0.862165,0.001986,0.077006,-0.862915,-0.816895,0.221191,-0.065918,0.092989,-0.035847,-0.044618,0.999991,0.000010,0.000385,-0.004315,0.523873,0.252019,-0.750615,0.314040
50438,NaN,10.245493,-3.616850,-3.396055,1.334562,-0.397056,1.485337,0.031771,0.114045,-0.917824,-0.812256,0.210693,-0.072266,0.102268,-0.036633,-0.034025,0.999989,0.000159,0.000570,-0.004589,0.522416,0.255689,-0.749026,0.317277
50439,NaN,10.735336,-3.632838,-2.226343,0.552365,-1.353292,1.644365,0.007461,0.152241,-0.942607,-0.818359,0.201904,-0.072021,0.107164,-0.036833,-0.022346,0.999989,0.000037,0.000761,-0.004713,0.524465,0.258992,-0.747404,0.315036
50440,NaN,10.745748,-3.651313,-1.628039,0.223848,-1.796476,1.508763,-0.032092,0.195204,-0.944945,-0.818359,0.197754,-0.074219,0.107267,-0.037023,-0.016379,0.999988,-0.000160,0.000976,-0.004725,0.523708,0.262428,-0.745600,0.317714
50441,NaN,10.495781,-3.247979,-1.940952,0.298355,-1.330392,1.260622,-0.063747,0.209366,-0.925812,-0.820312,0.191406,-0.073975,0.104786,-0.032971,-0.019509,0.999989,-0.000319,0.001047,-0.004629,0.526035,0.265374,-0.743931,0.315326
50442,NaN,10.430337,-3.037570,-2.617757,0.610810,-0.662283,1.325483,-0.040077,0.214489,-0.898898,-0.823975,0.178467,-0.073975,0.104137,-0.030849,-0.026283,0.999989,-0.000200,0.001072,-0.004494,0.525595,0.268511,-0.742055,0.317816
50443,NaN,10.388728,-2.853118,-2.928874,0.768602,-0.346595,1.319813,0.030266,0.204631,-0.880391,-0.828369,0.178467,-0.078125,0.103730,-0.028984,-0.029399,0.999990,0.000151,0.001023,-0.004402,0.527705,0.271525,-0.740281,0.315889
50444,NaN,10.431904,-2.888694,-2.687547,0.663328,-0.534108,1.307836,0.108662,0.184725,-0.875234,-0.825684,0.165527,-0.080078,0.104166,-0.029328,-0.026988,0.999990,0.000543,0.000924,-0.004376,0.527139,0.274981,-0.738236,0.318619
50445,NaN,10.710658,-2.697572,-1.966885,0.092840,-1.016582,1.359640,0.140189,0.171139,-0.860275,-0.832031,0.161377,-0.077881,0.106972,-0.027422,-0.019780,0.999990,0.000701,0.000856,-0.004301,0.528941,0.278247,-0.736373,0.317105
50446,NaN,10.907514,-2.650174,-1.708624,-0.118573,-1.184753,1.478823,0.145903,0.158249,-0.856142,-0.833740,0.148438,-0.082031,0.108947,-0.026956,-0.017192,0.999990,0.000730,0.000791,-0.004281,0.528419,0.281726,-0.734304,0.319688
50447,NaN,11.255015,-2.547467,-1.524969,-0.315112,-1.325667,1.747287,0.157542,0.169086,-0.830216,-0.829590,0.150635,-0.086426,0.112430,-0.025929,-0.015365,0.999991,0.000788,0.000845,-0.004151,0.530138,0.284914,-0.732431,0.318312
50448,NaN,11.425889,-2.293129,-1.766766,-0.371621,-0.979199,1.927549,0.140214,0.183793,-0.809942,-0.833740,0.144287,-0.084229,0.114149,-0.023381,-0.017789,0.999991,0.000701,0.000919,-0.004050,0.529891,0.288102,-0.730288,0.320767
50449,NaN,11.306394,-2.157483,-2.086234,-0.166398,-0.670636,1.864791,0.153422,0.209586,-0.785220,-0.831299,0.135742,-0.083984,0.112956,-0.022002,-0.020998,0.999991,0.000767,0.001048,-0.003926,0.531688,0.291033,-0.728351,0.319550
50450,NaN,10.839783,-2.176763,-2.292805,0.132545,-0.463680,1.468401,0.165467,0.224516,-0.764307,-0.837402,0.127197,-0.090332,0.108288,-0.022163,-0.023068,0.999992,0.000827,0.001123,-0.003822,0.531695,0.294005,-0.726069,0.322003
50451,NaN,10.474444,-2.104086,-2.433191,0.334007,-0.300351,1.135338,0.222232,0.237954,-0.728575,-0.837158,0.125000,-0.090332,0.104638,-0.021395,-0.024480,0.999992,0.001111,0.001190,-0.003643,0.533399,0.296852,-0.724003,0.321224
50452,NaN,10.144111,-1.878513,-2.396912,0.256752,-0.134477,0.774689,0.284442,0.251500,-0.702029,-0.841064,0.114258,-0.090088,0.101344,-0.019107,-0.024124,0.999992,0.001422,0.001257,-0.003510,0.533378,0.299841,-0.721519,0.324058
50453,NaN,9.793974,-1.887063,-2.309550,0.371602,-0.188754,0.416821,0.345181,0.264063,-0.674046,-0.839111,0.114258,-0.092285,0.097845,-0.019160,-0.023258,0.999992,0.001726,0.001320,-0.003370,0.534898,0.302759,-0.719241,0.323903
50454,NaN,9.506595,-1.712323,-2.108353,0.220934,-0.186549,0.070055,0.375762,0.262881,-0.644525,-0.843018,0.107910,-0.098633,0.094982,-0.017390,-0.021241,0.999992,0.001879,0.001314,-0.003223,0.534812,0.305739,-0.716642,0.326993
50455,NaN,9.254347,-1.482911,-2.137191,0.178914,-0.008005,-0.201383,0.366085,0.278483,-0.610225,-0.840820,0.101318,-0.092041,0.092468,-0.015072,-0.021528,0.999993,0.001830,0.001392,-0.003051,0.536241,0.308443,-0.714362,0.327101
50456,NaN,8.730016,-1.633551,-2.112625,0.434995,-0.039047,-0.693815,0.344651,0.304300,-0.585027,-0.844727,0.092773,-0.102783,0.087220,-0.016554,-0.021287,0.999993,0.001723,0.001521,-0.002925,0.536369,0.311031,-0.711774,0.330070
50457,NaN,8.513891,-1.717426,-1.725640,0.391123,-0.378840,-0.974306,0.298151,0.301345,-0.558308,-0.844727,0.092773,-0.100586,0.085064,-0.017386,-0.017410,0.999994,0.001491,0.001507,-0.002792,0.537892,0.313314,-0.709603,0.330105
50458,NaN,8.363137,-1.633958,-1.556927,0.291656,-0.423827,-1.165665,0.277869,0.283733,-0.531219,-0.842285,0.086426,-0.100586,0.083565,-0.016540,-0.015711,0.999995,0.001389,0.001419,-0.002656,0.538054,0.315544,-0.707252,0.332754
50459,NaN,8.352363,-1.982778,-1.570375,0.632235,-0.613148,-1.130316,0.277170,0.263875,-0.520306,-0.842285,0.082031,-0.104736,0.083451,-0.020023,-0.015842,0.999995,0.001386,0.001319,-0.002602,0.539409,0.317684,-0.705259,0.332753
50460,NaN,8.180432,-2.123957,-1.402815,0.718896,-0.787486,-1.312016,0.229317,0.262189,-0.515286,-0.840088,0.082031,-0.106934,0.081731,-0.021434,-0.014160,0.999995,0.001147,0.001311,-0.002576,0.539627,0.319741,-0.703056,0.335082
50461,NaN,7.930473,-2.063180,-1.210348,0.665048,-0.888370,-1.604009,0.199926,0.232413,-0.497944,-0.843750,0.064941,-0.110840,0.079239,-0.020817,-0.012216,0.999996,0.001000,0.001162,-0.002490,0.540953,0.321636,-0.701297,0.334816
50462,NaN,7.974089,-1.833053,-1.365050,0.575536,-0.613143,-1.560281,0.220520,0.176395,-0.486636,-0.845703,0.062744,-0.113037,0.079684,-0.018509,-0.013741,0.999996,0.001103,0.000882,-0.002433,0.540902,0.323696,-0.699371,0.336936
50463,NaN,8.573722,-1.469002,-1.296158,0.158147,-0.522167,-1.034937,0.211328,0.161806,-0.440836,-0.847900,0.062744,-0.113037,0.085694,-0.014865,-0.013047,0.999997,0.001057,0.000809,-0.002204,0.541863,0.325531,-0.697864,0.336749
50464,NaN,9.118949,-0.580948,-1.294332,-0.663913,-0.058072,-0.608138,-0.070173,0.185050,-0.388107,-0.845947,0.064941,-0.110840,0.091166,-0.005991,-0.013026,0.999998,-0.000351,0.000925,-0.001941,0.542224,0.326432,-0.696556,0.338002
50465,NaN,9.600177,-0.027419,-1.740166,-0.935973,0.570423,-0.117804,-0.321655,0.186049,-0.325755,-0.843506,0.058594,-0.108643,0.095985,-0.000459,-0.017490,0.999997,-0.001608,0.000930,-0.001629,0.543942,0.326375,-0.696064,0.336306
50466,NaN,10.112833,-0.119437,-2.332885,-0.628348,0.977377,0.501176,-0.453765,0.163894,-0.264466,-0.843262,0.054199,-0.119385,0.101107,-0.001381,-0.023409,0.999996,-0.002269,0.000819,-0.001322,0.544762,0.325829,-0.695673,0.336317
50467,NaN,10.157211,-0.814687,-2.363859,-0.016922,0.604367,0.630247,-0.247946,0.152483,-0.168560,-0.843506,0.056396,-0.117188,0.101547,-0.008262,-0.023706,0.999999,-0.001240,0.000762,-0.000843,0.545975,0.325479,-0.695401,0.335249
50468,NaN,10.076144,-0.672239,-1.725986,-0.466218,0.190533,0.419905,0.072495,0.108205,-0.061498,-0.843018,0.047852,-0.114990,0.100750,-0.006747,-0.017317,1.000000,0.000362,0.000541,-0.000307,0.545480,0.325757,-0.694642,0.337352
50469,NaN,10.106731,-0.951851,-1.302533,-0.467097,-0.308350,0.406674,0.216740,0.055582,0.064693,-0.843262,0.056396,-0.119385,0.101067,-0.009472,-0.013064,0.999999,0.001084,0.000278,0.000323,0.545207,0.326025,-0.694232,0.338377
50470,NaN,10.408413,-0.944284,-1.107552,-0.663782,-0.456141,0.666086,0.223210,0.054728,0.193196,-0.843506,0.056396,-0.114990,0.104090,-0.009330,-0.011114,0.999999,0.001116,0.000274,0.000966,0.543928,0.325913,-0.693776,0.341464
50471,NaN,10.773444,-0.964051,-0.747974,-0.929762,-0.772994,0.962000,0.209584,0.046086,0.290622,-0.841309,0.060791,-0.119385,0.107747,-0.009476,-0.007515,0.999998,0.001048,0.000230,0.001453,0.543245,0.325391,-0.693768,0.343062
50472,NaN,11.070107,-0.984934,-1.100134,-0.831161,-0.471057,1.314521,0.212835,0.021539,0.374514,-0.841309,0.060791,-0.119385,0.110718,-0.009630,-0.011024,0.999998,0.001064,0.000108,0.001873,0.541635,0.324668,-0.693690,0.346433
50473,NaN,11.198424,-0.788277,-1.678149,-0.755325,0.138791,1.512162,0.278816,0.007674,0.459056,-0.835205,0.069336,-0.119385,0.112001,-0.007602,-0.016797,0.999996,0.001394,0.000038,0.002295,0.540408,0.323812,-0.693932,0.348661
50474,NaN,11.194266,-0.418049,-2.256492,-0.828252,0.879796,1.550307,0.354400,0.014181,0.577912,-0.843750,0.069336,-0.121582,0.111952,-0.003817,-0.022580,0.999994,0.001772,0.000071,0.002890,0.538249,0.322771,-0.693938,0.352928
50475,NaN,11.239794,0.253696,-2.039056,-1.570504,1.106924,1.450646,0.371801,0.073089,0.708715,-0.843994,0.075684,-0.117432,0.112380,0.002973,-0.020426,0.999992,0.001859,0.000365,0.003544,0.536643,0.321176,-0.694225,0.356246
50476,NaN,12.409293,0.256939,-2.102432,-1.890710,1.167682,2.578332,0.413817,0.130945,0.864568,-0.837891,0.086426,-0.119629,0.124066,0.003149,-0.021099,0.999988,0.002069,0.000655,0.004323,0.534337,0.319080,-0.694266,0.361479
50477,NaN,14.079868,-0.465210,-1.976077,-1.834130,0.669696,4.278069,0.478962,0.167684,1.026472,-0.838135,0.094971,-0.126221,0.140803,-0.003882,-0.019889,0.999984,0.002395,0.000838,0.005132,0.532287,0.316483,-0.694581,0.366151
50478,NaN,14.447946,-1.591210,-1.180338,-1.522970,-0.489797,4.682362,0.566941,0.211829,1.115187,-0.838623,0.103516,-0.130615,0.144552,-0.015072,-0.012000,0.999980,0.002835,0.001059,0.005576,0.529614,0.313752,-0.694484,0.372505
50479,NaN,14.429063,-1.806174,-0.963981,-1.572826,-0.664128,4.660460,0.681484,0.190429,1.127083,-0.841064,0.112305,-0.135254,0.144380,-0.017215,-0.009837,0.999978,0.003407,0.000952,0.005635,0.527091,0.311276,-0.694466,0.378153
50480,NaN,14.542966,-1.484146,-0.355137,-2.308689,-0.878823,4.599861,0.834861,0.228154,1.186561,-0.834961,0.125000,-0.128906,0.145510,-0.013963,-0.003777,0.999973,0.004174,0.001141,0.005933,0.523939,0.308942,-0.693838,0.385528
50481,NaN,15.307057,-0.798010,0.245392,-3.507935,-0.927496,5.081399,0.888168,0.264334,1.292148,-0.833008,0.131348,-0.135498,0.153121,-0.007001,0.002219,0.999968,0.004441,0.001322,0.006461,0.520972,0.306262,-0.693409,0.392396
50482,NaN,16.322122,-0.443845,-0.303012,-3.981266,-0.126533,6.024899,0.986562,0.256531,1.435096,-0.829346,0.146484,-0.137695,0.163243,-0.003251,-0.003257,0.999961,0.004933,0.001283,0.007175,0.517238,0.303369,-0.692643,0.400846
50483,NaN,16.972557,0.472847,-0.742405,-4.916144,0.870878,6.432585,1.157904,0.274526,1.597135,-0.831787,0.155029,-0.137939,0.169670,0.006127,-0.007624,0.999950,0.005789,0.001373,0.007986,0.513201,0.300262,-0.692003,0.409389
50484,NaN,16.766739,1.617769,-0.318073,-6.228751,1.233347,5.792326,1.271107,0.299424,1.680920,-0.825684,0.170166,-0.148682,0.167519,0.017607,-0.003323,0.999943,0.006355,0.001497,0.008404,0.508732,0.297115,-0.690742,0.419274
50485,NaN,17.512528,2.011609,-0.288355,-7.027891,1.568073,6.279550,1.512438,0.303453,1.744037,-0.824219,0.187256,-0.155518,0.174936,0.021664,-0.002989,0.999932,0.007562,0.001517,0.008720,0.503838,0.294277,-0.689345,0.429362
50486,NaN,18.732419,2.932436,-1.301587,-8.033577,3.102311,7.128925,1.824093,0.157384,2.178161,-0.824707,0.202148,-0.153564,0.186979,0.031480,-0.012883,0.999899,0.009120,0.000787,0.010890,0.497055,0.291055,-0.687751,0.441839
50487,NaN,18.627989,4.653562,-1.833472,-9.580867,4.484290,6.314881,2.091654,0.160835,2.258381,-0.818848,0.221436,-0.160156,0.185723,0.048824,-0.017982,0.999881,0.010458,0.000804,0.011291,0.489511,0.288092,-0.685938,0.454832
50488,NaN,18.973760,6.087480,-2.739293,-10.919030,6.053220,5.956720,1.935310,0.078529,2.374968,-0.810791,0.238770,-0.164795,0.188984,0.063384,-0.026862,0.999883,0.009676,0.000393,0.011874,0.481897,0.284562,-0.684272,0.467517
50489,NaN,21.305543,8.404498,-4.517171,-13.402622,8.899352,7.102267,0.500866,0.288295,2.138527,-0.807373,0.260010,-0.160645,0.212075,0.086429,-0.045263,0.999939,0.002504,0.001441,0.010692,0.477137,0.277755,-0.685409,0.474770
50490,NaN,16.344576,3.413232,-3.633167,-7.923265,5.961425,4.103626,-0.014811,0.258851,2.494179,-0.801758,0.283691,-0.167480,0.162956,0.036164,-0.036545,0.999921,-0.000074,0.001294,0.012471,0.472842,0.268656,-0.687890,0.480678
50491,NaN,17.541364,-6.109171,-6.772281,0.242712,5.383082,9.208842,-0.166830,-0.211545,3.257691,-0.794189,0.313721,-0.163574,0.176450,-0.058280,-0.067487,0.999866,-0.000834,-0.001058,0.016288,0.464441,0.257525,-0.693077,0.487463
50492,NaN,22.993850,-14.293555,-10.834223,5.489536,6.513372,18.076307,-1.404565,-0.238929,3.045561,-0.782227,0.341553,-0.157471,0.232215,-0.140166,-0.107075,0.999859,-0.007022,-0.001195,0.015227,0.458805,0.244364,-0.700649,0.488749
50493,NaN,22.301542,-13.334988,-7.618110,3.017602,3.934227,16.806644,-1.552102,-0.222907,2.935839,-0.770264,0.367188,-0.151367,0.225030,-0.130641,-0.074910,0.999862,-0.007760,-0.001114,0.014679,0.452678,0.231024,-0.708444,0.489712
50494,NaN,18.770324,-18.135887,-6.730254,7.313502,0.782237,16.117364,-0.893518,-0.365864,3.359395,-0.762939,0.403564,-0.145508,0.190839,-0.178468,-0.066154,0.999847,-0.004467,-0.001829,0.016796,0.444871,0.218001,-0.715190,0.493019
50495,NaN,16.403306,-23.218375,-5.689260,11.024716,-2.486367,16.884196,-0.796389,-0.434153,3.323444,-0.755127,0.427002,-0.128662,0.167985,-0.229637,-0.055613,0.999852,-0.003982,-0.002171,0.016616,0.435924,0.205378,-0.721636,0.497023
50496,NaN,17.908102,-19.769551,-7.032936,7.413930,0.356440,16.754890,-1.244817,-0.952297,3.007411,-0.740967,0.452637,-0.120361,0.182359,-0.195399,-0.068245,0.999856,-0.006224,-0.004761,0.015036,0.426677,0.194136,-0.729836,0.497592
50497,NaN,18.247679,-8.674888,-6.743124,-1.479500,4.855729,10.873201,-0.814794,-1.114610,2.583796,-0.732910,0.469727,-0.105713,0.183950,-0.084650,-0.066061,0.999893,-0.004074,-0.005573,0.012919,0.416922,0.185716,-0.736671,0.499001
50498,NaN,15.539642,-6.162620,-6.986722,-2.051432,5.767231,7.239656,-0.166637,-1.218502,2.582305,-0.725098,0.489014,-0.093018,0.156597,-0.059667,-0.068865,0.999898,-0.000833,-0.006092,0.012911,0.406479,0.178807,-0.742086,0.502108
50499,NaN,13.158968,-5.300687,-7.458021,-1.423752,6.239813,4.880981,-0.302059,-1.015805,2.289833,-0.715088,0.512695,-0.084717,0.132562,-0.051605,-0.073830,0.999920,-0.001510,-0.005079,0.011449,0.397194,0.172227,-0.746897,0.504698
50500,NaN,11.423976,-3.985665,-5.711436,-2.259397,5.010178,2.385612,-0.104045,-1.015066,2.199003,-0.702637,0.523193,-0.076172,0.114957,-0.038625,-0.056512,0.999927,-0.000520,-0.005075,0.010995,0.388397,0.166215,-0.751255,0.507087
50501,NaN,9.884790,-2.439078,-4.410388,-3.081611,4.311189,-0.064807,0.219859,-1.143021,2.121818,-0.692627,0.540283,-0.070068,0.099349,-0.023290,-0.043563,0.999927,0.001099,-0.005715,0.010609,0.378508,0.161552,-0.754626,0.511051
50502,NaN,7.642136,0.007836,-2.829886,-3.974721,3.619509,-3.688255,0.477983,-1.144460,1.811047,-0.688721,0.551025,-0.065918,0.076576,0.000838,-0.027860,0.999940,0.002390,-0.005722,0.009055,0.369748,0.158346,-0.757291,0.514513
50503,NaN,5.548886,2.212585,-0.933975,-4.790855,2.529846,-7.128604,0.659796,-1.158935,1.532420,-0.678467,0.566162,-0.061768,0.055370,0.022580,-0.008945,0.999948,0.003299,-0.005795,0.007662,0.360871,0.156731,-0.758910,0.518905
50504,NaN,3.415601,3.608080,0.264414,-4.674080,1.702441,-9.904759,0.642865,-1.121472,1.305563,-0.678711,0.574707,-0.059814,0.033904,0.036294,0.002951,0.999958,0.003214,-0.005607,0.006528,0.353432,0.155636,-0.760574,0.521910
50505,NaN,1.829640,4.429688,1.706378,-4.595299,0.479430,-11.942078,0.539581,-1.068416,1.045717,-0.670410,0.581055,-0.057617,0.017973,0.044345,0.017280,0.999968,0.002698,-0.005342,0.005229,0.346204,0.155391,-0.761844,0.524966
50506,NaN,0.194154,5.673740,2.645902,-4.490329,-0.104970,-14.177928,0.322430,-1.002464,0.737497,-0.664062,0.587402,-0.047119,0.001599,0.056701,0.026559,0.999979,0.001612,-0.005012,0.003687,0.341008,0.155586,-0.763580,0.525788
50507,NaN,-0.640932,6.323311,3.271013,-4.454463,-0.535155,-15.377367,0.103281,-0.929045,0.448795,-0.666504,0.593750,-0.040771,-0.006703,0.063201,0.032712,0.999987,0.000516,-0.004645,0.002244,0.336192,0.156484,-0.765231,0.526221
50508,NaN,-1.379197,6.571261,3.701085,-4.186467,-0.892525,-16.173379,-0.199218,-0.847515,0.134022,-0.666504,0.589600,-0.036377,-0.013993,0.065740,0.036886,0.999990,-0.000996,-0.004238,0.000670,0.333622,0.157727,-0.767511,0.524162
50509,NaN,-1.655180,6.468678,3.954765,-3.988236,-1.159545,-16.368050,-0.504303,-0.779104,-0.206471,-0.670898,0.595947,-0.030029,-0.016638,0.064803,0.039320,0.999989,-0.002522,-0.003896,-0.001032,0.331563,0.159713,-0.769961,0.521266
50510,NaN,-1.593629,6.841136,3.774139,-4.198250,-0.762314,-16.549008,-0.778856,-0.706674,-0.517220,-0.672852,0.587402,-0.014893,-0.015892,0.068599,0.037418,0.999983,-0.003894,-0.003533,-0.002586,0.331706,0.162163,-0.772902,0.516039
50511,NaN,-1.644064,7.056731,3.286154,-4.136295,-0.149628,-16.607319,-1.014618,-0.680437,-0.814931,-0.679199,0.585205,-0.008545,-0.016263,0.070799,0.032447,0.999973,-0.005073,-0.003402,-0.004075,0.331988,0.165376,-0.775967,0.510205
50512,NaN,-1.309973,6.026734,2.792300,-3.633678,-0.007008,-15.524948,-1.173750,-0.607242,-1.099761,-0.685547,0.578857,0.006592,-0.012851,0.060501,0.027529,0.999963,-0.005869,-0.003036,-0.005499,0.334323,0.169186,-0.779142,0.502536
50513,NaN,-1.509359,5.434759,2.284579,-2.999484,0.271564,-15.100628,-1.329521,-0.553822,-1.411645,-0.695801,0.568115,0.017334,-0.014771,0.054603,0.022442,0.999949,-0.006647,-0.002769,-0.007058,0.336816,0.173841,-0.782175,0.494506
50514,NaN,-1.153752,5.548804,1.723255,-3.183131,0.951316,-14.716903,-1.350047,-0.448968,-1.702473,-0.701904,0.555176,0.028320,-0.011102,0.055698,0.016832,0.999938,-0.006750,-0.002245,-0.008512,0.341357,0.179291,-0.784814,0.485177
50515,NaN,-0.961908,5.276897,1.555372,-3.152793,1.074179,-14.295405,-1.322203,-0.336527,-1.950738,-0.712646,0.548828,0.041260,-0.009129,0.052961,0.015188,0.999929,-0.006611,-0.001683,-0.009753,0.345927,0.185488,-0.786792,0.476326
50516,NaN,-1.072346,4.497499,1.397076,-2.605909,0.925890,-13.772489,-1.294677,-0.226821,-2.152232,-0.722656,0.529541,0.047852,-0.010254,0.045176,0.013667,0.999921,-0.006473,-0.001134,-0.010761,0.352276,0.192211,-0.788262,0.466476
50517,NaN,-1.079151,3.698818,1.501713,-2.203039,0.514341,-13.274197,-1.322898,-0.129398,-2.348688,-0.739502,0.516602,0.058594,-0.010365,0.037210,0.014765,0.999909,-0.006614,-0.000647,-0.011743,0.358480,0.199418,-0.789247,0.456962
50518,NaN,-1.071019,2.857555,1.551437,-1.757506,0.117932,-12.748012,-1.427057,-0.004603,-2.566284,-0.745117,0.492920,0.067627,-0.010342,0.028820,0.015309,0.999892,-0.007135,-0.000023,-0.012831,0.366635,0.206948,-0.789902,0.445876
50519,NaN,-1.122321,1.639590,1.758397,-1.071202,-0.633256,-12.155938,-1.520936,0.130765,-2.767973,-0.759521,0.475830,0.074219,-0.010982,0.016682,0.017465,0.999875,-0.007604,0.000654,-0.013839,0.374848,0.214771,-0.790091,0.434879
50520,NaN,-1.552107,-0.009150,1.362779,0.397447,-1.122678,-11.500151,-1.635879,0.227276,-2.925489,-0.778320,0.454346,0.089355,-0.015504,0.000247,0.013644,0.999859,-0.008179,0.001136,-0.014627,0.384688,0.222719,-0.789965,0.422335
50521,NaN,-1.610378,-2.508619,0.314026,2.534338,-1.588116,-10.010748,-1.660360,0.287725,-3.032764,-0.788330,0.433105,0.095947,-0.016477,-0.024811,0.003371,0.999850,-0.008301,0.001439,-0.015163,0.394017,0.230859,-0.789422,0.410204
50522,NaN,-1.873066,-5.042558,-0.893254,4.957963,-2.014640,-8.768357,-1.517503,0.351257,-3.106309,-0.798096,0.407227,0.096436,-0.019527,-0.050192,-0.008517,0.999849,-0.007587,0.001756,-0.015531,0.404236,0.239364,-0.788107,0.397725
50523,NaN,-1.815737,-6.836454,-2.794995,7.073360,-1.524110,-7.470548,-1.345233,0.386808,-3.129112,-0.814697,0.390137,0.100830,-0.019279,-0.068255,-0.027454,0.999853,-0.006726,0.001934,-0.015645,0.413531,0.248167,-0.786140,0.386508
50524,NaN,-0.860419,-8.461654,-4.646135,8.659688,-1.106271,-5.604955,-1.214626,0.457902,-3.028771,-0.822510,0.364502,0.101074,-0.009993,-0.084752,-0.045925,0.999864,-0.006073,0.002289,-0.015143,0.423222,0.256617,-0.783658,0.375381
50525,NaN,0.210259,-11.265631,-6.161415,10.987359,-1.709633,-3.388853,-0.979661,0.525448,-2.752160,-0.830322,0.340820,0.103760,0.000389,-0.112970,-0.061064,0.999890,-0.004898,0.002627,-0.013760,0.431655,0.264310,-0.780768,0.366355
50526,NaN,0.541422,-13.598279,-6.849867,13.029830,-2.676033,-2.384554,-0.782249,0.577766,-2.376900,-0.842773,0.330078,0.116699,0.003599,-0.136299,-0.067978,0.999918,-0.003911,0.002889,-0.011884,0.439624,0.270760,-0.777789,0.358419
50527,NaN,0.745691,-15.547256,-7.654295,14.928424,-3.293371,-1.618377,-0.554297,0.556660,-1.928946,-0.844482,0.312988,0.110352,0.005743,-0.155745,-0.076129,0.999946,-0.002771,0.002783,-0.009645,0.445970,0.276028,-0.774906,0.352761
50528,NaN,0.324919,-18.037627,-7.670728,17.120293,-4.772826,-1.541720,-0.245671,0.567239,-1.503750,-0.852783,0.308838,0.108398,0.001675,-0.180487,-0.076492,0.999967,-0.001228,0.002836,-0.007519,0.451229,0.280198,-0.772092,0.348935
50529,NaN,-3.280346,-19.388310,-7.773615,19.859074,-5.061466,-4.607977,-0.009324,0.462288,-1.188327,-0.850586,0.302246,0.114746,-0.034134,-0.193687,-0.077649,0.999980,-0.000047,0.002311,-0.005942,0.455090,0.283949,-0.769385,0.346861
50530,NaN,-7.882927,-40.259980,-52.622600,59.567421,19.907451,12.699777,4.330107,-1.212365,0.069944,-0.842285,0.315186,0.101807,-0.075465,-0.391103,-0.535241,0.999747,0.021649,-0.006061,0.000350,0.443800,0.295415,-0.764747,0.361848
50531,NaN,28.896405,-92.965634,-6.645580,62.275566,-49.927709,46.313938,1.284228,2.123216,1.999173,-0.844482,0.319580,0.101807,0.297464,-0.926246,-0.075539,0.999873,0.006421,0.010616,0.009995,0.446347,0.286739,-0.760568,0.374287
50532,NaN,17.079094,-10.425162,18.804329,-8.597828,-23.021017,2.435556,-6.121687,0.898663,-2.063018,-0.850098,0.289551,0.104248,0.170595,-0.100208,0.190385,0.999468,-0.030603,0.004493,-0.010313,0.460897,0.278760,-0.767197,0.348246
50533,NaN,9.883300,43.187295,21.453902,-47.613666,7.410332,-19.862586,2.180819,0.320284,-1.012173,-0.852295,0.291748,0.097900,0.101357,0.428992,0.219066,0.999926,0.010904,0.001601,-0.005061,0.460813,0.287087,-0.761196,0.354703
50534,NaN,19.628391,-0.369496,3.616402,-9.585012,-5.324463,6.868610,1.174275,-0.277887,-0.114327,-0.843506,0.291748,0.093506,0.196231,-0.004020,0.036414,0.999982,0.005871,-0.001389,-0.000572,0.457478,0.290634,-0.759707,0.359292
50535,NaN,25.798413,-23.030155,4.315263,4.929327,-19.540092,18.620564,-0.577066,0.821037,0.504689,-0.854492,0.293945,0.089111,0.258740,-0.229526,0.042754,0.999984,-0.002885,0.004105,0.002523,0.460519,0.285914,-0.759588,0.359446
50536,NaN,17.257808,5.190284,1.051984,-11.583208,0.419964,4.026684,-0.647242,0.761561,-0.222487,-0.854248,0.289551,0.093506,0.172674,0.051743,0.009695,0.999987,-0.003236,0.003808,-0.001112,0.463970,0.283963,-0.758598,0.358644
50537,NaN,18.259026,-3.454631,-7.910779,-0.833850,2.631290,10.194491,-0.126881,0.503109,0.129221,-0.854248,0.289551,0.082764,0.182413,-0.034479,-0.079545,0.999996,-0.000634,0.002516,0.000646,0.465822,0.282272,-0.757841,0.359179
50538,NaN,13.036586,-2.072461,-5.507906,-0.952496,2.079295,4.306565,-0.358892,0.688904,0.317693,-0.850098,0.295898,0.080566,0.130208,-0.020617,-0.055491,0.999991,-0.001794,0.003445,0.001588,0.467733,0.279070,-0.757228,0.360488
50539,NaN,9.258193,-5.776561,-3.075008,2.189585,-1.648782,1.188460,0.274151,0.548062,0.238952,-0.850098,0.296143,0.074219,0.092566,-0.057613,-0.031083,0.999995,0.001371,0.002740,0.001195,0.468989,0.277813,-0.755783,0.362851
50540,NaN,6.712010,-5.272714,-0.795600,1.686727,-2.927653,-1.934288,0.102989,0.590807,0.231342,-0.850098,0.293945,0.070068,0.067157,-0.052645,-0.008181,0.999995,0.000515,0.002954,0.001157,0.470044,0.276165,-0.754449,0.365511
50541,NaN,4.994866,-3.255991,-1.840121,1.391219,-0.749802,-3.776261,0.015771,0.537246,0.038509,-0.852295,0.296143,0.072021,0.049905,-0.032549,-0.018538,0.999996,0.000079,0.002686,0.000193,0.471974,0.275069,-0.753209,0.366406
50542,NaN,6.179192,-5.119094,-2.613298,2.733941,-1.256563,-1.928308,-0.061069,0.284731,-0.139918,-0.852051,0.289551,0.070068,0.061719,-0.051242,-0.026205,0.999999,-0.000305,0.001424,-0.000700,0.472771,0.274987,-0.752371,0.367160
50543,NaN,7.659730,-4.118905,-3.202764,1.703586,-0.292385,-0.707372,0.013441,0.193868,-0.261713,-0.858643,0.291748,0.063477,0.076512,-0.041287,-0.032105,0.999999,0.000067,0.000969,-0.001309,0.473959,0.275642,-0.751529,0.366863
50544,NaN,8.282019,-3.242727,-4.380566,1.403647,1.144525,-0.065060,0.096213,0.143365,-0.300107,-0.851807,0.285400,0.057129,0.082740,-0.032530,-0.043881,0.999999,0.000481,0.000717,-0.001501,0.474297,0.276776,-0.750527,0.367622
50545,NaN,9.766405,-3.927048,-3.428961,0.885798,-0.125075,1.221884,0.119679,0.094242,-0.328315,-0.852051,0.289551,0.057129,0.097583,-0.039410,-0.034359,0.999998,0.000598,0.000471,-0.001642,0.475084,0.278113,-0.749630,0.367428
50546,NaN,10.678695,-3.998589,-2.293037,0.031068,-1.144752,1.761839,0.165800,0.153828,-0.368134,-0.854004,0.285400,0.065674,0.106695,-0.040163,-0.023046,0.999998,0.000829,0.000769,-0.001841,0.475505,0.279624,-0.748396,0.368251
50547,NaN,10.594523,-3.783444,-1.796660,-0.304567,-1.421916,1.486495,0.134468,0.187036,-0.394062,-0.853760,0.281006,0.059326,0.105854,-0.038031,-0.018091,0.999997,0.000672,0.000935,-0.001970,0.476738,0.281067,-0.747153,0.368083
50548,NaN,10.424957,-3.671247,-2.086322,-0.139051,-1.100916,1.380119,0.079936,0.206741,-0.447017,-0.855957,0.276855,0.057373,0.104146,-0.036937,-0.020986,0.999997,0.000400,0.001034,-0.002235,0.477645,0.282573,-0.745816,0.368464
50549,NaN,9.647496,-3.347369,-2.978443,0.415112,-0.138817,0.815497,-0.019615,0.211517,-0.514711,-0.855713,0.272461,0.046631,0.096357,-0.033725,-0.029883,0.999996,-0.000098,0.001058,-0.002574,0.479404,0.284049,-0.744619,0.367465
50550,NaN,9.190293,-3.355436,-3.245259,0.775656,0.107211,0.465381,-0.048100,0.228240,-0.547559,-0.857666,0.266113,0.051025,0.091773,-0.033814,-0.032549,0.999996,-0.000241,0.001141,-0.002738,0.480777,0.285576,-0.743311,0.367136
50551,NaN,8.849418,-3.397479,-3.329704,1.039723,0.168038,0.178929,-0.006538,0.281047,-0.570417,-0.857422,0.261719,0.046875,0.088350,-0.034228,-0.033420,0.999995,-0.000033,0.001405,-0.002852,0.482871,0.287157,-0.741831,0.366146
50552,NaN,8.899187,-3.460901,-2.976325,0.944816,-0.155604,0.142945,0.043650,0.321214,-0.593128,-0.863770,0.259766,0.051025,0.088841,-0.034866,-0.029914,0.999994,0.000218,0.001606,-0.002966,0.484552,0.288882,-0.740067,0.366140
50553,NaN,9.125864,-3.303302,-2.636350,0.635756,-0.362023,0.217660,0.098279,0.371594,-0.607824,-0.865723,0.249023,0.042725,0.091109,-0.033297,-0.026549,0.999994,0.000491,0.001858,-0.003039,0.486890,0.290681,-0.738106,0.365572
50554,NaN,9.395794,-3.252363,-2.618831,0.552751,-0.352929,0.448233,0.134703,0.414028,-0.627515,-0.872070,0.246826,0.040527,0.093801,-0.032800,-0.026405,0.999993,0.000674,0.002070,-0.003138,0.488851,0.292563,-0.735889,0.365922
50555,NaN,9.553530,-3.322732,-2.720549,0.683529,-0.311105,0.634671,0.184267,0.451109,-0.656457,-0.869385,0.236084,0.030029,0.095364,-0.033515,-0.027452,0.999992,0.000921,0.002256,-0.003282,0.491433,0.294595,-0.733485,0.365660
50556,NaN,9.811060,-3.153692,-2.676604,0.511845,-0.250184,0.819418,0.244745,0.466607,-0.688315,-0.875732,0.229736,0.027832,0.097939,-0.031841,-0.027034,0.999991,0.001224,0.002333,-0.003442,0.493542,0.296852,-0.730829,0.366311
50557,NaN,9.988682,-3.097756,-2.604766,0.460256,-0.278670,0.951348,0.303233,0.461186,-0.728812,-0.875488,0.227539,0.021484,0.099713,-0.031301,-0.026325,0.999990,0.001516,0.002306,-0.003644,0.496102,0.299409,-0.728049,0.366309
50558,NaN,10.039320,-2.791892,-2.380190,0.166194,-0.280644,0.870983,0.307962,0.436887,-0.763048,-0.879395,0.217041,0.015137,0.100233,-0.028265,-0.024064,0.999989,0.001540,0.002184,-0.003815,0.498147,0.302126,-0.725214,0.366927
50559,NaN,9.958862,-2.596666,-2.212293,0.042089,-0.300456,0.709818,0.322785,0.422184,-0.768182,-0.875000,0.214844,0.013184,0.099441,-0.026313,-0.022375,0.999989,0.001614,0.002111,-0.003841,0.500588,0.304930,-0.722404,0.366825
50560,NaN,9.853514,-2.514799,-2.002535,-0.017501,-0.408190,0.543882,0.354732,0.415973,-0.754578,-0.878906,0.204102,0.006836,0.098397,-0.025484,-0.020275,0.999989,0.001774,0.002080,-0.003773,0.502475,0.307750,-0.719516,0.367567
50561,NaN,9.686350,-2.129903,-1.911658,-0.239730,-0.258030,0.281454,0.353775,0.384010,-0.735061,-0.885254,0.197754,0.004883,0.096747,-0.021621,-0.019340,0.999990,0.001769,0.001920,-0.003675,0.504652,0.310567,-0.716766,0.367588
50562,NaN,9.471110,-1.879725,-2.037795,-0.249776,0.009461,0.052654,0.366484,0.342327,-0.706609,-0.880615,0.191162,0.000732,0.094609,-0.019094,-0.020575,0.999991,0.001832,0.001712,-0.003533,0.506173,0.313362,-0.714083,0.368346
50563,NaN,9.493161,-1.855604,-1.934321,-0.256100,-0.063251,0.048093,0.369932,0.315333,-0.648390,-0.882812,0.189209,-0.003662,0.094840,-0.018828,-0.019527,0.999992,0.001850,0.001577,-0.003242,0.507904,0.316023,-0.711585,0.368525
50564,NaN,9.433491,-1.718708,-1.562671,-0.478983,-0.290170,-0.113578,0.365897,0.285421,-0.578716,-0.886719,0.182617,-0.010010,0.094262,-0.017431,-0.015793,0.999993,0.001829,0.001427,-0.002894,0.508997,0.318448,-0.709224,0.369478
50565,NaN,9.503183,-1.644630,-1.464160,-0.550627,-0.335345,-0.079077,0.386172,0.268209,-0.504799,-0.882568,0.182617,-0.005615,0.094970,-0.016658,-0.014801,0.999994,0.001931,0.001341,-0.002524,0.510257,0.320716,-0.707023,0.369996
50566,NaN,9.434762,-1.505992,-1.815246,-0.436256,0.055048,-0.097528,0.370343,0.266071,-0.430265,-0.888672,0.172119,-0.014160,0.094291,-0.015229,-0.018306,0.999995,0.001852,0.001330,-0.002151,0.511013,0.322655,-0.704916,0.371284
50567,NaN,9.298596,-1.484479,-1.963738,-0.303633,0.214247,-0.200945,0.373802,0.260343,-0.365116,-0.884033,0.165527,-0.024658,0.092933,-0.014978,-0.019786,0.999996,0.001869,0.001302,-0.001826,0.511997,0.324405,-0.702969,0.372096
50568,NaN,9.288390,-1.095304,-1.823119,-0.666940,0.313435,-0.312451,0.315465,0.257337,-0.282006,-0.888184,0.161377,-0.020508,0.092845,-0.011055,-0.018368,0.999997,0.001577,0.001287,-0.001410,0.512550,0.325688,-0.701214,0.373522
50569,NaN,9.552499,-1.248909,-2.283043,-0.359790,0.625990,0.061568,0.329647,0.243148,-0.212062,-0.890625,0.169922,-0.024902,0.095484,-0.012553,-0.022967,0.999997,0.001648,0.001216,-0.001060,0.513254,0.326813,-0.699632,0.374539
50570,NaN,10.075850,-1.406066,-1.946151,-0.507033,0.247242,0.529892,0.305323,0.293052,-0.125585,-0.890381,0.163574,-0.029053,0.100721,-0.014094,-0.019631,0.999998,0.001527,0.001465,-0.000628,0.513672,0.327446,-0.698056,0.376349
50571,NaN,10.089159,-0.867408,-1.663509,-1.077481,0.301455,0.388236,0.258334,0.318472,-0.047700,-0.884033,0.167725,-0.029053,0.100863,-0.008677,-0.016807,0.999998,0.001292,0.001592,-0.000238,0.514442,0.327668,-0.696676,0.377658
50572,NaN,10.035133,-0.773774,-2.443062,-0.771837,1.062963,0.460844,0.244198,0.318615,0.031322,-0.888184,0.165527,-0.037598,0.100313,-0.007692,-0.024600,0.999998,0.001221,0.001593,0.000157,0.514771,0.327544,-0.695399,0.379666
50573,NaN,10.577285,-1.309917,-3.215046,-0.089239,1.471014,1.221773,0.313653,0.365382,0.115556,-0.884033,0.163574,-0.033203,0.105721,-0.012987,-0.032364,0.999997,0.001568,0.001827,0.000578,0.515299,0.327247,-0.694054,0.381661
50574,NaN,11.335212,-1.709892,-2.891479,-0.100738,1.008497,1.966272,0.397408,0.412579,0.162436,-0.879639,0.163574,-0.041748,0.113306,-0.016949,-0.029182,0.999996,0.001987,0.002063,0.000812,0.515467,0.326867,-0.692464,0.384636
50575,NaN,11.683124,-2.019869,-2.281696,-0.207290,0.370483,2.253829,0.471251,0.406843,0.181141,-0.888672,0.174316,-0.041992,0.116803,-0.020039,-0.023102,0.999995,0.002356,0.002034,0.000906,0.515747,0.326662,-0.690805,0.387408
50576,NaN,11.839132,-2.316794,-1.992943,-0.134664,0.042288,2.413679,0.577408,0.438139,0.191413,-0.882080,0.172119,-0.054932,0.118369,-0.022996,-0.020255,0.999993,0.002887,0.002191,0.000957,0.515656,0.326579,-0.688842,0.391078
50577,NaN,11.741422,-2.300558,-1.494449,-0.348511,-0.306707,2.236003,0.657960,0.452865,0.202977,-0.882324,0.178467,-0.057129,0.117403,-0.022837,-0.015286,0.999992,0.003290,0.002264,0.001015,0.515732,0.326680,-0.686717,0.394614
50578,NaN,11.621906,-2.049563,-0.940966,-0.786339,-0.588274,1.985192,0.667054,0.465589,0.204550,-0.882080,0.174316,-0.061279,0.116217,-0.020345,-0.009748,0.999991,0.003335,0.002328,0.001023,0.515558,0.326715,-0.684502,0.398641
50579,NaN,11.676747,-1.803318,-0.626488,-1.148610,-0.680461,1.943507,0.689488,0.434976,0.216465,-0.882080,0.176514,-0.069824,0.116773,-0.017884,-0.006581,0.999991,0.003447,0.002175,0.001082,0.515476,0.326873,-0.682358,0.402276
50580,NaN,12.289239,-1.559622,-1.086991,-1.322183,-0.100429,2.551803,0.821524,0.418226,0.264898,-0.882080,0.176514,-0.072021,0.122890,-0.015388,-0.011190,0.999989,0.004108,0.002091,0.001324,0.514759,0.327190,-0.680009,0.406886
50581,NaN,12.811182,-1.083393,-1.428467,-1.733372,0.486008,2.997436,0.935333,0.421030,0.333385,-0.880127,0.182861,-0.080566,0.128099,-0.010553,-0.014604,0.999985,0.004677,0.002105,0.001667,0.513967,0.327593,-0.677562,0.411619
50582,NaN,13.006753,-0.520605,-1.269013,-2.377560,0.676530,3.030439,1.039574,0.365322,0.452718,-0.878174,0.185059,-0.087158,0.130055,-0.004845,-0.012954,0.999982,0.005198,0.001827,0.002264,0.512319,0.327929,-0.675159,0.417316
50583,NaN,13.003601,0.308731,-0.676720,-3.396669,0.581806,2.747977,1.099526,0.314942,0.621804,-0.878174,0.191406,-0.095703,0.130015,0.003529,-0.006953,0.999979,0.005498,0.001575,0.003109,0.510262,0.327973,-0.673067,0.423139
50584,NaN,14.123204,1.102304,0.914376,-5.113361,-0.452059,3.422272,1.101224,0.317421,0.844036,-0.875977,0.189453,-0.100098,0.141198,0.011569,0.008982,0.999975,0.005506,0.001587,0.004220,0.507512,0.327234,-0.671223,0.429895
50585,NaN,15.832048,1.554747,1.100875,-6.150428,-0.350852,4.895464,1.109744,0.327507,1.111618,-0.872314,0.206543,-0.106689,0.158249,0.016367,0.010839,0.999968,0.005549,0.001638,0.005558,0.504381,0.325596,-0.669807,0.436973
50586,NaN,16.563038,1.430762,0.419243,-6.133839,0.336225,5.640985,1.200944,0.300354,1.340065,-0.870361,0.212891,-0.108887,0.165536,0.015392,0.004034,0.999958,0.006005,0.001502,0.006700,0.500307,0.323488,-0.668455,0.445216
50587,NaN,16.406273,1.804970,1.137875,-6.871071,-0.068452,5.237155,1.267560,0.239800,1.479784,-0.864258,0.225830,-0.122070,0.163937,0.019191,0.011301,0.999952,0.006338,0.001199,0.007399,0.495731,0.321154,-0.667398,0.453531
50588,NaN,16.391800,2.941659,0.876840,-7.958567,0.706671,4.825295,1.080931,0.240861,1.467566,-0.864746,0.238770,-0.117920,0.163707,0.030571,0.008734,0.999958,0.005405,0.001204,0.007338,0.491315,0.318452,-0.666504,0.461487
50589,NaN,16.617017,4.848111,-0.912987,-9.233653,3.188431,4.506238,0.486198,0.382720,1.354074,-0.858887,0.255859,-0.130859,0.165819,0.049627,-0.009328,0.999972,0.002431,0.001914,0.006770,0.488669,0.314233,-0.666583,0.467042
50590,NaN,16.623166,4.598938,-1.971338,-8.835402,4.220367,4.521924,0.215675,0.369975,1.863321,-0.850830,0.268555,-0.126709,0.165757,0.047557,-0.019970,0.999954,0.001078,0.001850,0.009316,0.485115,0.307809,-0.667860,0.473159
50591,NaN,14.338386,1.035659,-2.727022,-4.944121,3.667926,3.460991,0.342818,0.107389,2.341336,-0.849609,0.298584,-0.131592,0.143234,0.012081,-0.027327,0.999930,0.001714,0.000537,0.011706,0.479364,0.300538,-0.670348,0.480126
50592,NaN,17.520813,-3.109147,-6.710882,-1.454101,6.210510,8.103229,-0.406120,-0.167168,2.644273,-0.841797,0.322266,-0.127686,0.175656,-0.028907,-0.066902,0.999910,-0.002031,-0.000836,0.013221,0.473009,0.291248,-0.675431,0.485005
50593,NaN,21.201589,-7.575764,-7.210718,0.637992,5.421678,13.188769,-0.884832,-0.159281,2.656298,-0.827637,0.347900,-0.125732,0.213057,-0.073250,-0.071610,0.999902,-0.004424,-0.000796,0.013281,0.467262,0.280533,-0.681758,0.488030
50594,NaN,21.928997,-11.303210,-5.274420,2.160990,2.435507,15.203740,-0.735116,-0.169835,2.877000,-0.819824,0.371338,-0.124023,0.220932,-0.110054,-0.052149,0.999889,-0.003675,-0.000849,0.014384,0.460666,0.269520,-0.687781,0.492040
50595,NaN,20.470528,-20.077019,-4.820164,9.069143,-1.185609,17.784980,-0.386340,-0.151315,3.356920,-0.803711,0.401367,-0.117920,0.208074,-0.197389,-0.047662,0.999857,-0.001932,-0.000757,0.016784,0.452333,0.257410,-0.693507,0.498179
50596,NaN,19.938155,-21.555273,-3.795999,9.219615,-2.554169,18.204483,-0.732051,-0.176661,3.371512,-0.798340,0.433594,-0.114014,0.203012,-0.212287,-0.037001,0.999851,-0.003660,-0.000883,0.016857,0.444189,0.244535,-0.699893,0.503039
50597,NaN,18.619498,-19.793244,-6.406554,8.527250,0.491320,16.766807,-0.525049,-0.626793,3.419824,-0.784180,0.459229,-0.112061,0.189743,-0.194874,-0.062960,0.999845,-0.002625,-0.003134,0.017098,0.433958,0.232930,-0.706680,0.507963
50598,NaN,20.713005,-13.120628,-6.962764,1.669472,3.819362,15.331571,-0.812373,-0.676625,3.112123,-0.771973,0.478516,-0.103760,0.209374,-0.128239,-0.068397,0.999865,-0.004062,-0.003383,0.015560,0.424483,0.221850,-0.713720,0.511078
50599,NaN,17.148705,-7.262310,-6.075597,-1.821306,4.858903,9.075839,-0.333019,-0.930871,3.009118,-0.764160,0.499756,-0.099854,0.172835,-0.070130,-0.059835,0.999875,-0.001665,-0.004654,0.015045,0.413779,0.212745,-0.719796,0.515190
50600,NaN,15.931632,-6.872032,-6.946770,-1.658372,5.695024,7.909919,-0.341785,-1.080764,2.870963,-0.756348,0.523438,-0.091553,0.160654,-0.066538,-0.068487,0.999881,-0.001709,-0.005404,0.014354,0.402775,0.204414,-0.725905,0.518699
50601,NaN,14.696977,-5.232467,-6.085177,-2.907653,5.386025,5.773513,-0.416796,-0.989825,2.572562,-0.742188,0.542725,-0.085449,0.147926,-0.050552,-0.060015,0.999903,-0.002084,-0.004949,0.012862,0.392888,0.196774,-0.731539,0.521315
50602,NaN,13.421876,-3.150400,-5.071716,-4.338076,5.093144,3.264931,-0.272652,-0.989823,2.408624,-0.733887,0.555420,-0.079102,0.134834,-0.029951,-0.050009,0.999914,-0.001363,-0.004949,0.012043,0.383250,0.189908,-0.736568,0.523949
50603,NaN,11.644872,-0.794215,-3.172430,-5.812390,4.028643,-0.000612,0.081281,-1.016455,2.303824,-0.721924,0.579102,-0.074951,0.116689,-0.006586,-0.031135,0.999921,0.000406,-0.005082,0.011519,0.373354,0.184215,-0.740432,0.527666
50604,NaN,9.739498,1.005013,-1.907128,-6.435642,3.302849,-2.944346,0.337709,-1.022858,2.098396,-0.713623,0.587646,-0.070801,0.097378,0.011104,-0.018555,0.999930,0.001689,-0.005114,0.010492,0.363787,0.179683,-0.743412,0.531706
50605,NaN,7.727283,3.062803,-0.887369,-6.924204,2.856675,-6.101741,0.485692,-1.029080,1.869145,-0.711914,0.604736,-0.073242,0.077026,0.031369,-0.008401,0.999940,0.002428,-0.005145,0.009346,0.354525,0.176333,-0.745628,0.535964
50606,NaN,5.683026,4.778254,0.309152,-7.091379,2.093512,-9.069675,0.457147,-0.963517,1.518655,-0.703613,0.608887,-0.066895,0.056449,0.048204,0.003474,0.999957,0.002286,-0.004818,0.007593,0.346597,0.174013,-0.747492,0.539301
50607,NaN,3.381251,5.951721,1.111172,-6.495757,1.461513,-11.751435,0.352619,-0.924379,1.228356,-0.695312,0.619629,-0.062744,0.033394,0.059703,0.011372,0.999969,0.001763,-0.004622,0.006142,0.339503,0.172509,-0.749189,0.541936
50608,NaN,1.935588,6.776979,1.728385,-6.158255,0.989729,-13.521735,0.098370,-0.897697,0.901049,-0.693604,0.632568,-0.060791,0.018972,0.067847,0.017403,0.999980,0.000492,-0.004488,0.004505,0.333806,0.171739,-0.751263,0.542847
50609,NaN,0.620189,7.397218,2.401554,-5.772112,0.432246,-15.043991,-0.132613,-0.781774,0.529361,-0.691406,0.632568,-0.052246,0.005912,0.074004,0.023990,0.999989,-0.000663,-0.003909,0.002647,0.329533,0.171638,-0.753375,0.542564
50610,NaN,-0.143422,7.244795,2.773130,-5.210180,-0.026647,-15.561690,-0.351880,-0.734087,0.188617,-0.693604,0.632568,-0.047852,-0.001604,0.072495,0.027598,0.999991,-0.001759,-0.003670,0.000943,0.326784,0.172401,-0.755725,0.540712
50611,NaN,-0.555107,6.589592,2.695420,-4.466741,-0.189410,-15.381197,-0.632654,-0.680669,-0.161077,-0.704590,0.636719,-0.041504,-0.005589,0.065985,0.026727,0.999989,-0.003163,-0.003403,-0.000805,0.325180,0.173803,-0.758401,0.537474
50612,NaN,-0.672258,6.797831,2.564083,-4.473391,0.061383,-15.576496,-0.926861,-0.614541,-0.534931,-0.706543,0.630371,-0.028564,-0.006619,0.068114,0.025305,0.999981,-0.004634,-0.003073,-0.002675,0.325330,0.176085,-0.761417,0.532353
50613,NaN,-0.829651,7.649195,2.281492,-4.817140,0.709233,-16.191948,-1.016146,-0.551783,-0.879353,-0.719482,0.630371,-0.018066,-0.008022,0.076642,0.022403,0.999974,-0.005081,-0.002759,-0.004397,0.326447,0.179233,-0.764225,0.526562
50614,NaN,-0.890743,6.827970,1.939692,-4.201176,0.801827,-15.547070,-1.153760,-0.503108,-1.135942,-0.723633,0.621826,-0.002930,-0.008567,0.068439,0.018981,0.999964,-0.005769,-0.002516,-0.005680,0.328799,0.183160,-0.767021,0.519637
50615,NaN,-0.807976,5.560647,1.454199,-3.363436,0.843097,-14.467130,-1.269084,-0.450178,-1.410413,-0.738281,0.613281,0.005859,-0.007719,0.055752,0.014171,0.999952,-0.006345,-0.002251,-0.007052,0.331875,0.187633,-0.769731,0.512023
50616,NaN,-0.755509,5.170262,1.099990,-3.095882,1.094348,-14.023293,-1.321289,-0.343749,-1.730975,-0.748779,0.604492,0.018799,-0.007125,0.051837,0.010645,0.999939,-0.006606,-0.001719,-0.008655,0.336479,0.193147,-0.771980,0.503511
50617,NaN,-0.779064,5.209704,0.998582,-3.132176,1.282025,-13.970768,-1.331539,-0.252511,-2.019581,-0.760986,0.585205,0.023193,-0.007276,0.052237,0.009629,0.999926,-0.006658,-0.001263,-0.010098,0.341842,0.199313,-0.773750,0.494701
50618,NaN,-0.734478,4.570094,1.084584,-2.848319,1.006284,-13.483486,-1.272379,-0.147850,-2.273980,-0.771484,0.574463,0.033936,-0.006832,0.045848,0.010549,0.999915,-0.006362,-0.000739,-0.011370,0.348422,0.206472,-0.774774,0.485487
50619,NaN,-0.749287,3.683505,1.430903,-2.441473,0.367863,-12.987587,-1.313342,-0.056501,-2.508734,-0.794678,0.561768,0.042725,-0.007033,0.037018,0.014064,0.999900,-0.006566,-0.000282,-0.012543,0.355606,0.214008,-0.775394,0.475930
50620,NaN,-0.772320,3.065685,1.958760,-2.268942,-0.319737,-12.741908,-1.498636,0.040140,-2.732876,-0.802246,0.531738,0.060303,-0.007298,0.030904,0.019358,0.999879,-0.007493,0.000201,-0.013664,0.364120,0.222016,-0.775809,0.465022
50621,NaN,-0.803431,2.556036,2.487695,-2.166927,-0.956689,-12.597560,-1.894019,0.129548,-2.923924,-0.825439,0.516846,0.068848,-0.007641,0.025908,0.024638,0.999848,-0.009470,0.000648,-0.014619,0.373460,0.229565,-0.776615,0.452434
50622,NaN,-0.894814,0.393321,2.542713,-0.703325,-1.991659,-11.532806,-2.174847,0.192365,-3.078525,-0.835449,0.493164,0.077881,-0.008859,0.004346,0.025390,0.999822,-0.010874,0.000962,-0.015392,0.383891,0.237198,-0.777414,0.438169
50623,NaN,-0.785962,-2.751957,1.264046,1.909019,-2.462930,-9.534659,-2.150498,0.261851,-3.199891,-0.856201,0.467529,0.086670,-0.008280,-0.027251,0.012945,0.999813,-0.010752,0.001309,-0.015998,0.394391,0.244881,-0.777684,0.423905
50624,NaN,-0.652289,-5.255017,-1.064854,4.591081,-1.838535,-7.641772,-1.968347,0.316736,-3.273235,-0.872314,0.437500,0.091309,-0.007399,-0.052535,-0.010120,0.999816,-0.009841,0.001584,-0.016365,0.405162,0.253233,-0.776965,0.409930
50625,NaN,-0.415393,-8.089892,-3.301641,7.549446,-1.589390,-5.690649,-1.733465,0.369940,-3.275962,-0.888672,0.413818,0.102295,-0.005541,-0.081098,-0.032305,0.999827,-0.008667,0.001850,-0.016379,0.415432,0.261636,-0.775487,0.396966
50626,NaN,0.295411,-11.044394,-5.455486,10.451173,-1.612760,-3.489316,-1.574400,0.463271,-3.202354,-0.896484,0.388184,0.102539,0.001056,-0.110896,-0.053687,0.999838,-0.007872,0.002316,-0.016011,0.425789,0.269995,-0.773233,0.384601
50627,NaN,1.558042,-14.100826,-6.900444,12.972432,-2.422975,-1.169809,-1.454125,0.596932,-2.981570,-0.912842,0.366699,0.107178,0.013267,-0.141714,-0.068018,0.999858,-0.007270,0.002985,-0.014907,0.435728,0.277231,-0.770625,0.373391
50628,NaN,2.239458,-16.839393,-7.370737,15.180881,-3.861485,0.062162,-1.266735,0.695203,-2.606869,-0.922852,0.345459,0.109619,0.019939,-0.169127,-0.072710,0.999889,-0.006333,0.003476,-0.013034,0.445113,0.283271,-0.767726,0.363632
50629,NaN,2.600632,-19.021611,-7.107534,16.776346,-5.551463,0.522511,-1.040716,0.688648,-2.123376,-0.932861,0.323975,0.107666,0.023740,-0.190843,-0.070168,0.999924,-0.005203,0.003443,-0.010617,0.453053,0.287824,-0.765022,0.355867
50630,NaN,2.734128,-19.642026,-6.325573,16.986934,-6.702281,0.177775,-0.757706,0.625225,-1.525057,-0.941406,0.317627,0.103516,0.025645,-0.196858,-0.062592,0.999959,-0.003788,0.003126,-0.007625,0.459256,0.290805,-0.762741,0.350348
50631,NaN,3.244013,-19.086716,-5.317128,15.966419,-7.329701,-0.094465,-0.375989,0.573399,-0.817076,-0.943359,0.315430,0.099121,0.031508,-0.191097,-0.052903,0.999986,-0.001880,0.002867,-0.004085,0.463410,0.292041,-0.760885,0.347875
50632,NaN,-2.641799,-22.215498,-15.173683,25.706791,-0.517013,-1.467629,0.522260,-0.071283,-0.071790,-0.941650,0.326172,0.105469,-0.026443,-0.221748,-0.152326,0.999996,0.002611,-0.000356,-0.000359,0.462415,0.293555,-0.760097,0.349643
50633,NaN,12.088344,-67.340800,-47.497781,70.019262,-0.298464,35.264015,5.803268,-0.569302,2.239994,-0.931396,0.345459,0.085938,0.129698,-0.657839,-0.493858,0.999512,0.029012,-0.002846,0.011198,0.447590,0.299303,-0.754188,0.375875
50634,NaN,32.538864,-43.564155,17.511736,11.605553,-42.649007,26.365991,-7.904736,2.021378,-0.819006,-0.937012,0.319824,0.092773,0.325484,-0.429689,0.188892,0.999160,-0.039513,0.010104,-0.004094,0.467863,0.280167,-0.763033,0.346975
50635,NaN,10.606893,45.202078,13.437398,-45.344799,15.399291,-16.369334,0.407582,0.992085,-0.711305,-0.939209,0.322021,0.083984,0.108343,0.451364,0.134761,0.999979,0.002038,0.004960,-0.003556,0.472296,0.282099,-0.758995,0.348257
50636,NaN,9.765186,19.537934,-2.957126,-17.228630,12.925454,-5.129792,1.651054,-0.426741,-0.399585,-0.947998,0.323975,0.090332,0.098103,0.195418,-0.027749,0.999962,0.008255,-0.002134,-0.001998,0.468750,0.288016,-0.756678,0.353211
50637,NaN,23.243439,-23.440662,-6.958463,12.260512,-10.364416,19.858625,0.780702,0.371420,0.873913,-0.943848,0.332764,0.075439,0.233324,-0.233113,-0.070929,0.999981,0.003903,0.001857,0.004370,0.467473,0.285869,-0.755676,0.358750
50638,NaN,14.847806,-4.479571,5.103000,-5.066703,-8.059590,3.451243,-0.373415,1.370892,0.453873,-0.941895,0.339111,0.062500,0.148925,-0.044364,0.050093,0.999972,-0.001867,0.006854,0.002269,0.472108,0.280594,-0.753904,0.360568
50639,NaN,11.635699,-0.512675,1.091501,-4.771494,-2.112058,0.657049,0.488323,0.543604,0.171916,-0.941895,0.334717,0.058105,0.116390,-0.005053,0.010586,0.999993,0.002442,0.002718,0.000860,0.473153,0.280108,-0.751979,0.363584
50640,NaN,12.039383,-6.388259,-0.193744,0.217673,-4.410255,3.082867,0.199785,0.685762,0.463443,-0.942139,0.345459,0.051514,0.120534,-0.063601,-0.002414,0.999991,0.000999,0.003429,0.002317,0.474369,0.277448,-0.750695,0.366680
50641,NaN,9.323409,-3.198226,-1.982308,-0.226803,-0.831223,0.204355,0.094540,0.849268,0.278874,-0.939941,0.347656,0.045166,0.093193,-0.031843,-0.020234,0.999990,0.000473,0.004246,0.001394,0.476903,0.275057,-0.748889,0.368880
50642,NaN,7.403868,-5.316873,-3.455317,2.916826,-0.661519,-0.534766,0.217604,0.611806,0.144811,-0.942139,0.347656,0.047363,0.073971,-0.053077,-0.034837,0.999994,0.001088,0.003059,0.000724,0.478387,0.273781,-0.747262,0.371200
50643,NaN,7.051497,-3.542284,-3.647684,1.815420,0.576864,-1.330448,0.117340,0.358960,0.005574,-0.942383,0.352051,0.030029,0.070450,-0.035399,-0.036624,0.999998,0.000587,0.001795,0.000028,0.479550,0.273364,-0.746194,0.372153
50644,NaN,7.979550,-3.674596,-4.271517,1.885609,0.991166,-0.279391,0.185137,0.219578,-0.143461,-0.937744,0.347656,0.030029,0.079722,-0.036764,-0.042837,0.999999,0.000926,0.001098,-0.000717,0.480140,0.273791,-0.745180,0.373110
50645,NaN,8.550600,-4.560993,-1.973344,1.191175,-1.418882,-0.097889,0.035266,0.084619,-0.262383,-0.944092,0.339111,0.038818,0.085438,-0.045719,-0.019778,0.999999,0.000176,0.000423,-0.001312,0.480889,0.274685,-0.744554,0.372737
50646,NaN,9.812474,-3.991326,-2.153028,0.378565,-1.019511,0.942219,0.080863,-0.086175,-0.374410,-0.941895,0.341309,0.036621,0.098059,-0.040088,-0.021504,0.999998,0.000404,-0.000431,-0.001872,0.480912,0.276280,-0.744156,0.372323
50647,NaN,10.567582,-3.844564,-2.475219,0.173086,-0.733863,1.676981,0.068093,-0.006480,-0.405707,-0.948486,0.343506,0.036621,0.105598,-0.038651,-0.024762,0.999998,0.000340,-0.000032,-0.002029,0.481541,0.277954,-0.743486,0.371602
50648,NaN,10.629987,-4.002098,-2.955285,0.546784,-0.450679,1.902467,0.126814,-0.048062,-0.449161,-0.944092,0.339111,0.036621,0.106217,-0.040241,-0.029553,0.999997,0.000634,-0.000240,-0.002246,0.481782,0.279868,-0.742796,0.371234
50649,NaN,10.957535,-3.850156,-3.280159,0.511885,-0.139621,2.244219,0.256273,-0.058936,-0.497712,-0.947998,0.332764,0.032471,0.109489,-0.038732,-0.032819,0.999996,0.001281,-0.000295,-0.002489,0.482119,0.282432,-0.741766,0.370914
50650,NaN,10.565674,-3.272020,-3.180356,0.197192,0.114131,1.693925,0.323533,-0.014025,-0.536402,-0.954346,0.324219,0.028320,0.105571,-0.032952,-0.031849,0.999995,0.001618,-0.000070,-0.002682,0.482369,0.285074,-0.740495,0.371105
50651,NaN,9.962980,-3.286199,-2.930829,0.355214,-0.076199,1.073892,0.332740,0.025400,-0.560584,-0.954102,0.319824,0.028320,0.099534,-0.033092,-0.029376,0.999995,0.001664,0.000127,-0.002803,0.483019,0.287893,-0.739017,0.371031
50652,NaN,9.685577,-3.117574,-2.591855,0.200135,-0.252161,0.682240,0.289510,0.071951,-0.581628,-0.953857,0.311279,0.032715,0.096755,-0.031420,-0.025999,0.999995,0.001448,0.000360,-0.002908,0.483718,0.290453,-0.737524,0.371097
50653,NaN,9.696750,-2.933292,-2.490707,0.055957,-0.246010,0.616639,0.266029,0.117374,-0.600909,-0.955811,0.309326,0.028564,0.096864,-0.029591,-0.025003,0.999994,0.001330,0.000587,-0.003005,0.484869,0.293081,-0.735873,0.370805
50654,NaN,10.124846,-3.044708,-2.655555,0.126338,-0.207054,1.085732,0.264877,0.160468,-0.616186,-0.955566,0.298584,0.024414,0.101133,-0.030724,-0.026677,0.999994,0.001324,0.000802,-0.003081,0.485992,0.295538,-0.734143,0.370814
50655,NaN,10.537658,-2.998307,-2.840990,0.101906,-0.063994,1.504928,0.308508,0.200328,-0.630237,-0.955322,0.294189,0.022217,0.105253,-0.030271,-0.028562,0.999993,0.001543,0.001002,-0.003151,0.487428,0.298217,-0.732152,0.370721
50656,NaN,10.685835,-2.884647,-3.098182,0.150303,0.205147,1.678260,0.386966,0.250445,-0.644438,-0.961426,0.281494,0.016113,0.106726,-0.029130,-0.031172,0.999992,0.001935,0.001252,-0.003222,0.488747,0.300899,-0.729915,0.371228
50657,NaN,10.617909,-2.809129,-2.848844,0.064621,0.047703,1.533686,0.441341,0.279964,-0.655634,-0.959229,0.281494,0.009521,0.106046,-0.028376,-0.028699,0.999991,0.002207,0.001400,-0.003278,0.490308,0.303836,-0.727423,0.371668
50658,NaN,10.542896,-2.657074,-2.703224,-0.035780,0.025612,1.390781,0.497533,0.295794,-0.657962,-0.963379,0.277100,0.005371,0.105301,-0.026850,-0.027255,0.999990,0.002488,0.001479,-0.003290,0.491642,0.306741,-0.724826,0.372593
50659,NaN,10.424185,-2.517333,-2.523500,-0.122524,-0.031517,1.203308,0.536887,0.304257,-0.661139,-0.962891,0.266357,0.001221,0.104119,-0.025450,-0.025462,0.999990,0.002684,0.001521,-0.003306,0.493139,0.309875,-0.722061,0.373390
50660,NaN,10.110750,-2.401211,-2.271093,-0.170559,-0.143299,0.822201,0.539567,0.318174,-0.654653,-0.964844,0.260010,0.001221,0.100992,-0.024281,-0.022937,0.999990,0.002698,0.001591,-0.003273,0.494473,0.312817,-0.719305,0.374489
50661,NaN,9.957706,-2.167021,-2.026095,-0.360059,-0.205979,0.569242,0.522068,0.298910,-0.648561,-0.968750,0.251465,-0.009277,0.099476,-0.021940,-0.020467,0.999990,0.002610,0.001495,-0.003243,0.495931,0.315865,-0.716572,0.375241
50662,NaN,9.760825,-2.038023,-1.927072,-0.390597,-0.196295,0.333710,0.528412,0.271784,-0.637000,-0.966553,0.247070,-0.004883,0.097516,-0.020640,-0.019458,0.999991,0.002642,0.001359,-0.003185,0.497073,0.318793,-0.713949,0.376253
50663,NaN,9.647753,-2.138114,-1.928853,-0.208914,-0.229453,0.250837,0.545415,0.255190,-0.601995,-0.972656,0.236572,-0.004883,0.096388,-0.021618,-0.019470,0.999991,0.002727,0.001276,-0.003010,0.498233,0.321802,-0.711327,0.377122
50664,NaN,9.507633,-2.030372,-1.727100,-0.297108,-0.323889,0.051739,0.575498,0.245727,-0.571418,-0.968018,0.232178,-0.017578,0.094997,-0.020525,-0.017447,0.999991,0.002877,0.001229,-0.002857,0.499073,0.324654,-0.708755,0.378407
50665,NaN,9.227200,-1.793229,-1.817841,-0.318015,-0.094489,-0.244451,0.592130,0.223721,-0.541880,-0.972168,0.228027,-0.023926,0.092203,-0.018128,-0.018335,0.999991,0.002961,0.001119,-0.002709,0.499916,0.327613,-0.706196,0.379528
50666,NaN,9.139215,-2.013925,-2.044459,0.040798,0.012922,-0.233600,0.624057,0.221182,-0.514879,-0.974365,0.223633,-0.026123,0.091317,-0.020310,-0.020609,0.999991,0.003120,0.001106,-0.002574,0.500474,0.330423,-0.703656,0.381071
50667,NaN,8.868012,-1.991281,-2.052818,0.147260,0.067922,-0.496335,0.644005,0.222541,-0.487811,-0.976074,0.217285,-0.028076,0.088608,-0.020063,-0.020691,0.999991,0.003220,0.001113,-0.002439,0.501107,0.333311,-0.701065,0.382495
50668,NaN,8.508036,-1.728284,-2.357472,0.194113,0.509520,-0.833049,0.685528,0.208182,-0.460031,-0.978271,0.212891,-0.032227,0.085016,-0.017397,-0.023723,0.999991,0.003428,0.001041,-0.002300,0.501402,0.336094,-0.698507,0.384350
50669,NaN,8.405107,-2.001843,-2.272205,0.452875,0.330947,-0.896334,0.725868,0.208736,-0.420417,-0.969482,0.208740,-0.040771,0.083985,-0.020112,-0.022883,0.999991,0.003629,0.001044,-0.002102,0.501704,0.338965,-0.695881,0.386194
50670,NaN,8.313905,-1.987368,-2.102587,0.418878,0.220017,-1.022492,0.716530,0.208598,-0.397889,-0.978027,0.206543,-0.036621,0.083077,-0.019963,-0.021184,0.999991,0.003583,0.001043,-0.001989,0.501817,0.341589,-0.693346,0.388288
50671,NaN,8.205277,-1.936260,-2.031071,0.403790,0.211523,-1.152837,0.761830,0.218234,-0.382230,-0.977783,0.200195,-0.040771,0.081993,-0.019442,-0.020474,0.999990,0.003809,0.001091,-0.001911,0.501999,0.344386,-0.690665,0.390355
50672,NaN,8.149823,-1.571075,-1.435966,-0.126333,-0.119923,-1.391319,0.699948,0.215758,-0.328197,-0.979736,0.200195,-0.049316,0.081457,-0.015794,-0.014503,0.999992,0.003500,0.001079,-0.001641,0.502018,0.346697,-0.688242,0.392558
50673,NaN,8.156506,-1.208696,-1.469639,-0.404351,0.090829,-1.447429,0.604890,0.211780,-0.262264,-0.975098,0.191650,-0.051270,0.081534,-0.012149,-0.014819,0.999994,0.003024,0.001059,-0.001311,0.502198,0.348686,-0.686071,0.394362
50674,NaN,8.676432,-1.474335,-1.662065,-0.207270,0.123300,-0.859567,0.558627,0.222802,-0.194720,-0.981689,0.191650,-0.051270,0.086731,-0.014781,-0.016759,0.999995,0.002793,0.001114,-0.000974,0.502219,0.350163,-0.684120,0.396412
50675,NaN,9.117185,-1.298750,-1.363445,-0.576205,-0.079470,-0.521272,0.487491,0.232333,-0.125132,-0.977295,0.191650,-0.055664,0.091148,-0.013011,-0.013772,0.999996,0.002437,0.001162,-0.000626,0.502394,0.351339,-0.682355,0.398187
50676,NaN,9.499327,-1.222173,-0.934182,-0.903393,-0.435050,-0.241994,0.410586,0.223794,-0.048462,-0.975098,0.189453,-0.059814,0.094980,-0.012225,-0.009473,0.999997,0.002053,0.001119,-0.000242,0.502386,0.351940,-0.680938,0.400088
50677,NaN,9.903167,-1.136438,-1.253375,-0.942935,-0.118511,0.188909,0.373234,0.191252,0.021291,-0.975098,0.191650,-0.068359,0.099021,-0.011330,-0.012650,0.999998,0.001866,0.000956,0.000106,0.502324,0.352408,-0.679753,0.401765
50678,NaN,10.224052,-1.161375,-1.660319,-0.843720,0.242111,0.573175,0.395658,0.177395,0.104749,-0.975342,0.195801,-0.066406,0.102232,-0.011527,-0.016717,0.999998,0.001978,0.000887,0.000524,0.501878,0.352547,-0.678736,0.403913
50679,NaN,10.401126,-1.080649,-1.303865,-1.110000,-0.029274,0.666733,0.344687,0.167355,0.186096,-0.977051,0.185059,-0.066162,0.104010,-0.010687,-0.013144,0.999998,0.001723,0.000837,0.000930,0.501449,0.352428,-0.677953,0.405861
50680,NaN,10.623239,-1.423716,-0.948467,-1.023004,-0.476455,0.888065,0.333307,0.166514,0.269646,-0.977295,0.193848,-0.068604,0.106243,-0.014078,-0.009597,0.999997,0.001667,0.000833,0.001348,0.500743,0.351878,-0.677367,0.408182
50681,NaN,10.721921,-1.172874,-1.050716,-1.255516,-0.250345,0.948355,0.381144,0.149895,0.359179,-0.973389,0.200195,-0.070801,0.107232,-0.011516,-0.010610,0.999996,0.001906,0.000749,0.001796,0.499832,0.351294,-0.676850,0.410651
50682,NaN,10.755146,-0.918031,-1.164001,-1.485823,-0.002222,0.941981,0.409213,0.155427,0.452309,-0.973389,0.200195,-0.074951,0.107563,-0.008913,-0.011742,0.999995,0.002046,0.000777,0.002262,0.498579,0.350343,-0.676435,0.413660
50683,NaN,11.168774,-0.805057,-1.258406,-1.701629,0.149771,1.325303,0.414473,0.186240,0.546024,-0.973389,0.204590,-0.074951,0.111697,-0.007719,-0.012704,0.999994,0.002072,0.000931,0.002730,0.497337,0.349127,-0.676072,0.416764
50684,NaN,11.989177,-0.938178,-1.190558,-1.884563,0.045105,2.123967,0.456463,0.227750,0.634451,-0.965088,0.213135,-0.079346,0.119907,-0.008974,-0.012063,0.999992,0.002282,0.001139,0.003172,0.495862,0.347530,-0.675668,0.420495
50685,NaN,12.553871,-1.785372,-0.590585,-1.575650,-0.807541,2.757134,0.522715,0.250974,0.694686,-0.965576,0.223877,-0.081787,0.125592,-0.017402,-0.006109,0.999990,0.002614,0.001255,0.003473,0.494322,0.345933,-0.675154,0.424433
50686,NaN,13.001838,-2.169066,-0.158232,-1.593252,-1.298508,3.208533,0.645442,0.240927,0.722943,-0.965576,0.228027,-0.092529,0.130094,-0.021215,-0.001808,0.999988,0.003227,0.001205,0.003615,0.492362,0.344478,-0.674427,0.429027
50687,NaN,13.097818,-2.197629,0.441495,-1.886920,-1.784507,3.219252,0.810470,0.235147,0.737894,-0.965820,0.236572,-0.096924,0.131063,-0.021510,0.004173,0.999984,0.004052,0.001176,0.003689,0.490154,0.343460,-0.673376,0.433992
50688,NaN,13.847413,-1.418928,1.143870,-3.119807,-2.074183,3.642284,0.911562,0.246751,0.758816,-0.961670,0.238770,-0.099121,0.138541,-0.013715,0.011205,0.999982,0.004558,0.001234,0.003794,0.487648,0.342523,-0.672055,0.439567
50689,NaN,14.928299,-0.498761,0.161553,-3.984871,-0.766900,4.562996,1.093904,0.282098,0.813457,-0.957520,0.243164,-0.105469,0.149304,-0.004388,0.001380,0.999976,0.005469,0.001410,0.004067,0.484909,0.341813,-0.670346,0.445716
50690,NaN,15.320630,0.419100,-0.762931,-4.698803,0.517036,4.786340,1.249602,0.373850,0.810710,-0.959717,0.249512,-0.114258,0.153173,0.004861,-0.007887,0.999971,0.006248,0.001869,0.004054,0.482095,0.341241,-0.667957,0.452739
50691,NaN,15.734060,1.470684,-0.928783,-5.804345,1.137522,4.870640,1.364508,0.480105,0.753654,-0.958008,0.260254,-0.120850,0.157261,0.015364,-0.009562,0.999967,0.006822,0.002400,0.003768,0.479634,0.340900,-0.664981,0.459934
50692,NaN,16.936440,2.129257,-0.897361,-6.906969,1.419566,5.758343,1.525661,0.353556,1.125570,-0.951660,0.264648,-0.129395,0.169225,0.022314,-0.009105,0.999954,0.007628,0.001768,0.005628,0.475503,0.339983,-0.662420,0.468517
50693,NaN,16.883006,4.007694,-1.249418,-8.642384,2.453773,5.085034,1.720468,0.374253,1.232860,-0.949951,0.275391,-0.140381,0.168555,0.041224,-0.012458,0.999942,0.008602,0.001871,0.006164,0.470887,0.339079,-0.659564,0.477773
50694,NaN,17.722136,5.428684,-1.607031,-10.305426,3.301083,5.320734,1.717407,0.301386,1.494127,-0.943604,0.283936,-0.146729,0.176785,0.055745,-0.015862,0.999934,0.008587,0.001507,0.007470,0.465295,0.337502,-0.657117,0.487638
50695,NaN,16.407739,5.929134,-1.712880,-10.527318,3.586572,3.737427,1.441456,0.268031,1.722131,-0.935791,0.301025,-0.155518,0.163535,0.060823,-0.016914,0.999936,0.007207,0.001340,0.008610,0.459499,0.334507,-0.655848,0.496819
50696,NaN,16.610323,5.823836,-2.529157,-10.539237,4.415226,3.812139,0.857542,0.345770,1.923121,-0.936523,0.322510,-0.157959,0.165489,0.059940,-0.025323,0.999943,0.004288,0.001729,0.009615,0.454350,0.329413,-0.655946,0.504766
50697,NaN,18.212521,3.424746,-3.897851,-8.900870,5.277183,6.046993,-0.500405,0.572336,2.224987,-0.930664,0.343994,-0.162598,0.181617,0.036171,-0.039588,0.999931,-0.002502,0.002862,0.011125,0.451388,0.319496,-0.659533,0.509104
50698,NaN,16.732724,-3.281810,-4.447279,-2.575213,4.076804,7.136291,-1.390753,0.560815,2.653461,-0.918701,0.367432,-0.156494,0.167621,-0.030906,-0.044723,0.999884,-0.006953,0.002804,0.013267,0.448643,0.306323,-0.665802,0.511462
50699,NaN,18.173649,-9.238461,-6.794915,2.268427,4.735478,11.025117,-2.126487,0.224016,2.724584,-0.911133,0.401611,-0.148438,0.182903,-0.090615,-0.067184,0.999850,-0.010632,0.001120,0.013622,0.445595,0.291849,-0.674814,0.510779
50700,NaN,19.649919,-8.996260,-6.254465,0.824095,4.346840,12.245875,-2.682807,0.279156,2.559263,-0.901367,0.425293,-0.140137,0.197550,-0.088270,-0.061628,0.999827,-0.013413,0.001396,0.012796,0.443849,0.276634,-0.684536,0.507822
50701,NaN,18.882368,-13.137308,-4.660786,3.570907,1.359198,13.343871,-2.321284,0.261553,2.794315,-0.889404,0.453125,-0.131836,0.190580,-0.129250,-0.045348,0.999834,-0.011606,0.001308,0.013971,0.440771,0.261193,-0.693603,0.506373
50702,NaN,16.981992,-17.626299,-3.856129,7.179685,-1.208672,13.870414,-2.001153,0.160472,2.963411,-0.875244,0.480957,-0.130127,0.172380,-0.174096,-0.036950,0.999840,-0.010005,0.000802,0.014816,0.436386,0.246185,-0.701988,0.506135
50703,NaN,15.973722,-18.487150,-3.808180,7.630900,-1.717878,13.643828,-1.342979,0.045206,3.044368,-0.859131,0.510742,-0.128418,0.162521,-0.182662,-0.036887,0.999862,-0.006715,0.000226,0.015221,0.430418,0.232404,-0.708941,0.508067
50704,NaN,15.938471,-21.623227,-7.328575,10.616895,0.355444,15.924434,-0.688268,-0.558080,3.082072,-0.851318,0.532227,-0.113525,0.162896,-0.213989,-0.072095,0.999871,-0.003441,-0.002790,0.015410,0.421351,0.221455,-0.715326,0.511595
50705,NaN,20.261958,-13.174515,-7.295648,1.213404,4.031788,15.078727,-1.139281,-0.373956,2.558972,-0.832764,0.551514,-0.111572,0.204422,-0.129549,-0.071833,0.999900,-0.005696,-0.001870,0.012794,0.414672,0.210820,-0.721791,0.512463
50706,NaN,16.509035,-6.420432,-5.805446,-2.674279,4.864845,7.981650,-0.329673,-0.485464,2.479088,-0.825195,0.581543,-0.105713,0.166010,-0.062245,-0.057549,0.999919,-0.001648,-0.002427,0.012395,0.406874,0.202421,-0.726188,0.515878
50707,NaN,14.565587,-6.813422,-5.891957,-1.639749,4.631014,6.592928,-0.010048,-0.598516,2.476326,-0.804199,0.598633,-0.107910,0.146660,-0.066325,-0.058478,0.999919,-0.000050,-0.002992,0.012381,0.398276,0.194919,-0.729880,0.520249
50708,NaN,14.522912,-5.668155,-4.387365,-3.382060,3.757490,5.573061,-0.111768,-0.703010,2.446880,-0.798584,0.622070,-0.097656,0.146061,-0.054922,-0.043330,0.999919,-0.000559,-0.003515,0.012234,0.389441,0.187577,-0.733907,0.523958
50709,NaN,10.488856,-3.914858,-5.165424,-2.081238,4.653609,1.413641,0.123319,-0.616234,2.116249,-0.788086,0.632812,-0.097656,0.105453,-0.038003,-0.051354,0.999939,0.000617,-0.003081,0.010581,0.381481,0.181637,-0.736724,0.527937
50710,NaN,10.494140,-1.081617,-2.604703,-5.147289,3.413088,-0.872125,0.228531,-0.560613,1.922148,-0.780273,0.649902,-0.100098,0.105111,-0.009777,-0.025764,0.999949,0.001143,-0.002803,0.009611,0.374160,0.176460,-0.738924,0.531843
50711,NaN,8.773573,0.718184,-1.527163,-5.752575,2.877989,-3.612218,0.495473,-0.629438,1.907112,-0.767578,0.660645,-0.097900,0.087709,0.008056,-0.014976,0.999947,0.002477,-0.003147,0.009535,0.366291,0.171988,-0.740427,0.536674
50712,NaN,6.887715,1.562415,-0.646293,-5.451841,2.117579,-5.801295,0.447374,-0.580039,1.736594,-0.763916,0.673584,-0.093750,0.068756,0.016236,-0.006228,0.999956,0.002237,-0.002900,0.008683,0.359154,0.167956,-0.741772,0.540900
50713,NaN,4.976243,2.819850,0.477935,-5.391240,1.257098,-8.297256,0.277264,-0.523520,1.459105,-0.757812,0.688477,-0.093994,0.049542,0.028554,0.004949,0.999969,0.001386,-0.002618,0.007295,0.353008,0.164435,-0.743165,0.544107
50714,NaN,3.264892,3.426352,0.857834,-4.724541,0.869049,-10.054372,0.133019,-0.527962,1.207413,-0.749512,0.697021,-0.089844,0.032418,0.034454,0.008687,0.999978,0.000665,-0.002640,0.006037,0.347734,0.161683,-0.744724,0.546192
50715,NaN,2.021375,3.700607,1.132209,-4.102937,0.529358,-11.208341,-0.101381,-0.527164,0.968901,-0.750000,0.705566,-0.087891,0.020004,0.037109,0.011356,0.999985,-0.000507,-0.002636,0.004844,0.343187,0.159319,-0.746689,0.547080
50716,NaN,0.735769,4.433915,1.371893,-3.698037,0.391335,-12.685718,-0.378484,-0.453327,0.657634,-0.754395,0.709961,-0.081543,0.007181,0.044389,0.013651,0.999990,-0.001892,-0.002267,0.003288,0.340096,0.157554,-0.749019,0.546335
50717,NaN,0.173172,5.102773,1.803006,-3.821779,0.174645,-13.644454,-0.700861,-0.414934,0.379166,-0.750488,0.718506,-0.072998,0.001598,0.051094,0.017854,0.999990,-0.003504,-0.002075,0.001896,0.338040,0.156057,-0.751930,0.544037
50718,NaN,-0.217184,4.929711,2.088386,-3.514896,-0.162395,-13.853665,-0.898425,-0.389097,0.105810,-0.754395,0.711914,-0.062256,-0.002238,0.049389,0.020658,0.999988,-0.004492,-0.001945,0.000529,0.337097,0.155328,-0.755092,0.540439
50719,NaN,-0.606146,4.618798,2.043167,-3.022137,-0.234562,-13.897616,-1.062583,-0.368991,-0.152759,-0.754639,0.718262,-0.053711,-0.006064,0.046300,0.020175,0.999984,-0.005313,-0.001845,-0.000764,0.336923,0.155091,-0.758455,0.535888
50720,NaN,-0.708006,4.875228,1.835744,-3.030782,0.102834,-14.107156,-1.250860,-0.345894,-0.408646,-0.761230,0.718262,-0.041016,-0.007012,0.048880,0.018040,0.999977,-0.006254,-0.001729,-0.002043,0.337785,0.155615,-0.762028,0.530093
50721,NaN,-0.710555,4.561048,1.545964,-2.746370,0.315082,-13.819655,-1.361542,-0.316306,-0.605955,-0.767578,0.714111,-0.032227,-0.006991,0.045736,0.015137,0.999971,-0.006808,-0.001582,-0.003030,0.339222,0.156441,-0.765677,0.523635
50722,NaN,-0.774324,3.703182,1.587510,-2.219092,-0.007443,-13.263560,-1.416509,-0.250132,-0.822383,-0.780518,0.711914,-0.015137,-0.007610,0.037174,0.015603,0.999966,-0.007082,-0.001251,-0.004112,0.341638,0.158015,-0.769102,0.516523
50723,NaN,-0.675731,2.943941,1.841110,-1.949707,-0.483664,-12.724304,-1.315101,-0.158225,-1.075831,-0.784424,0.705566,-0.008789,-0.006613,0.029595,0.018212,0.999964,-0.006575,-0.000791,-0.005379,0.344822,0.160291,-0.771891,0.509499
50724,NaN,-1.076942,2.858991,1.858886,-1.651247,-0.526104,-12.940845,-1.188460,-0.076542,-1.321644,-0.799316,0.696777,0.001953,-0.010587,0.028770,0.018414,0.999960,-0.005942,-0.000383,-0.006608,0.348960,0.163725,-0.773911,0.502477
50726,NaN,-1.351272,3.204251,1.070004,-2.862605,0.773435,-16.457363,-1.291541,-0.011878,-1.668668,-0.826660,0.675537,0.028076,-0.025951,0.064793,0.020563,0.999777,-0.012914,-0.000119,-0.016685,0.359276,0.172137,-0.777538,0.486543
50727,NaN,-1.167754,2.359017,0.650682,-0.934607,0.458007,-12.316360,-1.418950,0.072930,-1.977206,-0.841064,0.660400,0.034424,-0.011441,0.023749,0.006343,0.999926,-0.007095,0.000365,-0.009886,0.365699,0.177290,-0.779035,0.477428
50728,NaN,-0.899731,1.583579,0.748904,-0.704683,0.060131,-11.650535,-1.438431,0.158666,-2.150395,-0.857666,0.641113,0.043213,-0.008820,0.015985,0.007381,0.999916,-0.007192,0.000793,-0.010752,0.372683,0.182625,-0.780208,0.468008
50729,NaN,-0.662220,0.582512,0.845771,-0.295308,-0.476161,-10.898579,-1.446124,0.249943,-2.314031,-0.865967,0.632568,0.056152,-0.006543,0.005962,0.008423,0.999906,-0.007230,0.001250,-0.011570,0.380494,0.188560,-0.780868,0.458164
50730,NaN,-0.590975,-0.534093,0.615498,0.455609,-0.831104,-10.151753,-1.500013,0.342122,-2.457922,-0.888916,0.611084,0.054199,-0.005964,-0.005221,0.006205,0.999895,-0.007500,0.001711,-0.012289,0.388824,0.194483,-0.781255,0.447920
50731,NaN,-0.706645,-1.955433,-0.141623,1.779896,-0.944290,-9.280635,-1.544567,0.385814,-2.573979,-0.909912,0.592041,0.062988,-0.007320,-0.019471,-0.001252,0.999886,-0.007723,0.001929,-0.012869,0.397685,0.200849,-0.781292,0.437138
50732,NaN,-0.629186,-3.301211,-1.492398,3.246505,-0.563445,-8.180861,-1.604924,0.423138,-2.655695,-0.919922,0.570557,0.076172,-0.006762,-0.033043,-0.014645,0.999877,-0.008024,0.002116,-0.013278,0.406695,0.207066,-0.781197,0.425974
50733,NaN,-0.176919,-4.870571,-3.106242,4.832464,-0.145420,-6.646269,-1.606673,0.454024,-2.686601,-0.938477,0.549072,0.084961,-0.002495,-0.048923,-0.030665,0.999875,-0.008033,0.002270,-0.013432,0.415924,0.213477,-0.780738,0.414589
50734,NaN,0.367750,-6.914957,-4.441031,6.639772,-0.304448,-4.965989,-1.508975,0.514357,-2.640700,-0.955322,0.534180,0.089355,0.002648,-0.069522,-0.043894,0.999881,-0.007545,0.002572,-0.013203,0.424957,0.219540,-0.779886,0.403721
50735,NaN,0.917101,-9.107665,-5.556886,8.521954,-0.798983,-3.378406,-1.325815,0.578162,-2.509999,-0.963135,0.514893,0.098145,0.007865,-0.091547,-0.054987,0.999895,-0.006629,0.002891,-0.012550,0.433788,0.225449,-0.778439,0.393743
50736,NaN,1.038718,-11.008622,-6.341637,10.318867,-1.435210,-2.468515,-1.180656,0.632839,-2.318080,-0.979736,0.493408,0.092041,0.008908,-0.110567,-0.062794,0.999910,-0.005903,0.003164,-0.011590,0.442098,0.230629,-0.776710,0.384813
50737,NaN,1.297041,-12.834935,-7.057462,11.990160,-2.112802,-1.567242,-1.050897,0.626459,-2.097794,-0.991943,0.476318,0.098633,0.011401,-0.128843,-0.069936,0.999926,-0.005254,0.003132,-0.010489,0.449809,0.235289,-0.774849,0.376723
50738,NaN,1.164841,-14.041473,-7.241596,13.150111,-2.840601,-1.448680,-0.903981,0.580118,-1.857680,-0.991455,0.461182,0.092529,0.010133,-0.140839,-0.071811,0.999942,-0.004520,0.002901,-0.009288,0.456585,0.239332,-0.773019,0.369718
50739,NaN,1.073315,-14.118915,-6.918622,13.204196,-3.268016,-1.854940,-0.745054,0.468161,-1.573160,-1.001709,0.446289,0.101074,0.009460,-0.141523,-0.068683,0.999959,-0.003725,0.002341,-0.007866,0.462188,0.242811,-0.771440,0.363737
50740,NaN,1.324173,-13.176261,-6.490692,12.288007,-3.121190,-2.279015,-0.477885,0.355657,-1.197831,-1.005859,0.442139,0.094727,0.012337,-0.131993,-0.064614,0.999978,-0.002389,0.001778,-0.005989,0.466300,0.245660,-0.770018,0.359565
50741,NaN,0.692877,-12.760226,-5.666612,11.894331,-3.519603,-3.366765,-0.063023,0.320049,-0.835320,-1.007812,0.437744,0.099121,0.006305,-0.127647,-0.056636,0.999990,-0.000315,0.001600,-0.004177,0.469069,0.248046,-0.768426,0.357727
50742,NaN,-5.741620,-34.302074,-44.437717,50.867875,14.811261,9.602441,3.970224,-0.996982,0.355812,-0.995605,0.457031,0.081787,-0.054578,-0.334205,-0.451347,0.999789,0.019850,-0.004985,0.001779,0.459572,0.257707,-0.763945,0.372518
50743,NaN,29.431154,-80.913392,-12.928593,52.846239,-38.136234,47.918725,1.303613,0.998514,1.632445,-0.991211,0.452637,0.090332,0.300230,-0.805827,-0.136035,0.999933,0.006518,0.004992,0.008162,0.458507,0.252231,-0.761532,0.382387
50744,NaN,16.527328,-14.014742,6.616335,-0.657110,-14.304798,7.744232,-5.296328,0.676339,-1.807820,-0.994873,0.435547,0.088623,0.164239,-0.139827,0.069313,0.999603,-0.026478,0.003381,-0.009038,0.471025,0.245566,-0.767528,0.358795
50745,NaN,10.214046,38.098978,13.269710,-39.086244,12.533795,-16.671669,1.999959,0.380971,-0.926319,-0.999023,0.429199,0.077881,0.104157,0.379160,0.136298,0.999937,0.010000,0.001905,-0.004631,0.471404,0.252690,-0.762115,0.364839
50746,NaN,11.607763,15.396608,-5.083152,-13.607871,12.752084,-2.753495,1.857781,-0.629882,-0.615512,-0.996582,0.427002,0.073730,0.116708,0.154069,-0.049034,0.999947,0.009289,-0.003149,-0.003078,0.467745,0.260534,-0.759396,0.369668
50747,NaN,23.475607,-19.063873,-6.165048,7.305029,-7.298586,19.271664,1.351067,0.268181,0.329307,-0.994629,0.433594,0.067139,0.234985,-0.189828,-0.063250,0.999975,0.006755,0.001341,0.001647,0.466237,0.261650,-0.756865,0.375921
50748,NaN,19.489556,-0.804332,5.421242,-10.481804,-5.665727,6.555173,0.073290,1.073191,0.234351,-0.994629,0.431396,0.058594,0.195192,-0.007834,0.053163,0.999985,0.000366,0.005366,0.001172,0.469745,0.258898,-0.754524,0.378159
50749,NaN,18.062878,-3.733791,1.220619,-5.481015,-3.735677,7.441296,0.916072,0.647473,0.011469,-0.988281,0.433594,0.045654,0.180669,-0.037381,0.011450,0.999984,0.004580,0.003237,0.000057,0.470827,0.259523,-0.751415,0.382550
50750,NaN,14.449716,-7.574289,3.703887,-2.285309,-7.743992,4.839592,0.172472,0.789123,0.204110,-0.988037,0.431396,0.039307,0.144719,-0.075627,0.036403,0.999991,0.000862,0.003946,0.001021,0.473163,0.257635,-0.749490,0.384716
50751,NaN,9.142730,-3.149954,1.126275,-2.039421,-2.889969,-0.742485,-0.365782,0.946117,0.065579,-0.990479,0.435791,0.032715,0.091490,-0.031449,0.010888,0.999987,-0.001829,0.004731,0.000328,0.476908,0.254495,-0.748121,0.384846
50752,NaN,7.172300,-5.323588,-1.891654,1.997328,-1.593647,-1.047321,-0.387142,0.834165,-0.032922,-0.992432,0.435791,0.022217,0.071635,-0.053285,-0.019112,0.999989,-0.001936,0.004171,-0.000165,0.480568,0.252071,-0.746831,0.384393
50753,NaN,6.302334,-4.433022,-3.593604,2.616179,0.332962,-1.730010,-0.440596,0.634662,-0.137548,-0.992432,0.433594,0.022217,0.062879,-0.044453,-0.036038,0.999992,-0.002203,0.003173,-0.000688,0.483613,0.250107,-0.746054,0.383364
50754,NaN,8.019263,-3.575032,-3.942381,1.509517,1.113849,-0.372757,-0.336929,0.489189,-0.262088,-0.994629,0.433594,0.020020,0.080049,-0.035922,-0.039559,0.999995,-0.001685,0.002446,-0.001310,0.486348,0.249316,-0.745189,0.382101
50755,NaN,9.722767,-5.139136,-2.511311,1.267858,-0.956423,1.355444,-0.290178,0.442995,-0.303405,-0.994385,0.429443,0.015869,0.097094,-0.051575,-0.025254,0.999995,-0.001451,0.002215,-0.001517,0.488794,0.248681,-0.744379,0.380970
50756,NaN,10.161269,-4.046297,-1.737131,-0.084977,-0.946312,1.220834,-0.289063,0.289908,-0.358870,-0.994141,0.418701,0.011719,0.101515,-0.040670,-0.017460,0.999996,-0.001445,0.001450,-0.001794,0.490903,0.248741,-0.743776,0.379394
50757,NaN,11.417883,-3.891367,-2.092764,-0.458425,-0.572425,2.408293,-0.184490,0.232327,-0.386362,-0.996338,0.422852,0.005127,0.114079,-0.039153,-0.021024,0.999997,-0.000922,0.001162,-0.001932,0.492584,0.249073,-0.743166,0.378191
50758,NaN,11.410180,-3.490727,-2.835483,-0.294447,0.256013,2.445569,-0.084869,0.274687,-0.368431,-1.004639,0.412109,0.009521,0.113998,-0.035129,-0.028497,0.999997,-0.000424,0.001373,-0.001842,0.494394,0.249697,-0.742193,0.377328
50759,NaN,11.349967,-3.739493,-3.761228,0.468335,0.857071,2.677238,0.137023,0.207795,-0.411094,-1.004639,0.412109,0.009521,0.113383,-0.037602,-0.037756,0.999997,0.000685,0.001039,-0.002055,0.495628,0.250963,-0.740995,0.377222
50760,NaN,11.152522,-3.734384,-4.014802,0.731896,1.065668,2.547388,0.395917,0.138046,-0.471898,-1.006592,0.405762,0.003174,0.111409,-0.037527,-0.040299,0.999995,0.001980,0.000690,-0.002359,0.496519,0.253414,-0.739314,0.377710
50761,NaN,10.897054,-3.516585,-3.203435,0.274455,0.542394,2.061838,0.527021,0.147918,-0.534513,-1.004150,0.403564,-0.003174,0.108852,-0.035372,-0.032208,0.999993,0.002635,0.000740,-0.002673,0.497266,0.256208,-0.737366,0.378649
50762,NaN,10.538229,-3.012151,-1.269152,-0.953785,-0.735407,1.154864,0.510577,0.176953,-0.556203,-1.012695,0.397217,-0.005371,0.105287,-0.030382,-0.012862,0.999992,0.002553,0.000885,-0.002781,0.498302,0.259174,-0.735246,0.379391
50763,NaN,10.691080,-2.768313,-0.794113,-1.392847,-0.986962,1.127099,0.456298,0.107628,-0.551300,-1.012207,0.388672,-0.005127,0.106830,-0.027959,-0.008062,0.999993,0.002281,0.000538,-0.002756,0.499016,0.261927,-0.733487,0.379966
50764,NaN,11.410667,-3.241264,-1.454390,-0.882251,-0.730504,2.083196,0.509115,0.093809,-0.513620,-1.016357,0.382324,-0.013672,0.114016,-0.032668,-0.014680,0.999993,0.002546,0.000469,-0.002568,0.499653,0.264884,-0.731613,0.380691
50765,NaN,11.745632,-3.133072,-2.071540,-0.702825,-0.162676,2.497736,0.594269,0.160774,-0.524687,-1.016113,0.373779,-0.013428,0.117357,-0.031577,-0.020903,0.999992,0.002971,0.000804,-0.002623,0.500323,0.267786,-0.729463,0.381905
50766,NaN,11.361562,-2.858462,-2.580436,-0.448272,0.422832,2.167901,0.720716,0.182588,-0.537915,-1.016113,0.375977,-0.013428,0.113515,-0.028797,-0.026012,0.999989,0.003604,0.000913,-0.002690,0.501033,0.271182,-0.726907,0.383449
50767,NaN,11.100150,-2.740761,-2.578914,-0.394808,0.507812,1.890383,0.856973,0.201596,-0.513444,-1.026367,0.363037,-0.028320,0.110905,-0.027581,-0.026019,0.999987,0.004285,0.001008,-0.002567,0.501460,0.274617,-0.724134,0.385685
50768,NaN,10.816022,-2.470914,-2.320724,-0.585818,0.465543,1.497366,0.914032,0.221545,-0.478385,-1.026367,0.363037,-0.034912,0.108075,-0.024861,-0.023440,0.999986,0.004570,0.001108,-0.002392,0.501910,0.278193,-0.721154,0.388114
50769,NaN,10.445202,-2.027087,-2.257123,-0.796392,0.683901,1.013379,0.912500,0.254129,-0.448103,-1.026123,0.356689,-0.039062,0.104378,-0.020401,-0.022797,0.999986,0.004562,0.001271,-0.002241,0.502305,0.281417,-0.718192,0.390763
50770,NaN,10.236851,-1.794365,-2.359331,-0.812575,0.924680,0.773328,0.850835,0.334263,-0.418705,-1.030273,0.352295,-0.045410,0.102291,-0.018057,-0.023841,0.999987,0.004254,0.001671,-0.002094,0.503106,0.284383,-0.715097,0.393252
50771,NaN,9.663277,-1.435626,-2.088038,-1.003176,0.921711,0.083965,0.714007,0.360879,-0.371552,-1.028076,0.350342,-0.049561,0.096568,-0.014461,-0.021106,0.999990,0.003570,0.001804,-0.001858,0.503998,0.286616,-0.712328,0.395507
50772,NaN,9.194433,-1.441530,-2.078419,-0.809381,0.944421,-0.358154,0.687426,0.379937,-0.315022,-1.034180,0.341797,-0.062500,0.091882,-0.014488,-0.021008,0.999991,0.003437,0.001900,-0.001575,0.504970,0.288699,-0.709559,0.397723
50773,NaN,8.779556,-1.466632,-2.093596,-0.616894,0.982471,-0.742473,0.664496,0.393699,-0.238530,-1.036377,0.341797,-0.068848,0.087737,-0.014701,-0.021158,0.999992,0.003322,0.001968,-0.001193,0.505776,0.290265,-0.706971,0.400161
50774,NaN,8.354155,-1.548506,-2.433698,-0.222464,1.271793,-1.069374,0.634053,0.405895,-0.180492,-1.038330,0.339600,-0.068848,0.083478,-0.015483,-0.024556,0.999993,0.003170,0.002029,-0.000902,0.506633,0.291674,-0.704415,0.402553
50775,NaN,7.962677,-1.728542,-2.818617,0.252607,1.554007,-1.335790,0.548843,0.410961,-0.137699,-1.033936,0.337402,-0.085938,0.079557,-0.017262,-0.028397,0.999994,0.002744,0.002055,-0.000688,0.507457,0.292549,-0.702144,0.404841
50776,NaN,7.463993,-1.690511,-2.825676,0.400214,1.614452,-1.826028,0.398674,0.372819,-0.114944,-1.038086,0.335449,-0.083740,0.074577,-0.016891,-0.028429,0.999996,0.001993,0.001864,-0.000575,0.508398,0.293191,-0.700226,0.406514
50777,NaN,7.080591,-1.775043,-2.789066,0.585252,1.569139,-2.179887,0.240098,0.334821,-0.065868,-1.034180,0.341797,-0.090332,0.070753,-0.017740,-0.028030,0.999998,0.001200,0.001674,-0.000329,0.509256,0.293177,-0.698877,0.407769
50778,NaN,7.043093,-2.239886,-2.486543,0.850736,1.099985,-2.139920,0.124321,0.314459,-0.016549,-1.040283,0.335449,-0.092285,0.070390,-0.022389,-0.024990,0.999999,0.000622,0.001572,-0.000083,0.510191,0.292892,-0.697804,0.408643
50779,NaN,7.070726,-2.341825,-2.445463,0.916623,1.037187,-2.096238,0.065969,0.318421,-0.005057,-1.033936,0.337646,-0.096680,0.070668,-0.023412,-0.024575,0.999999,0.000330,0.001592,-0.000025,0.511120,0.292248,-0.696947,0.409405
50780,NaN,7.196724,-2.649727,-2.182944,1.018688,0.680265,-1.933690,0.003398,0.320097,0.054379,-1.040283,0.335449,-0.103027,0.071939,-0.026477,-0.021945,0.999999,0.000017,0.001600,0.000272,0.512103,0.291394,-0.696206,0.410045
50781,NaN,7.332191,-2.860415,-1.910231,1.026813,0.363801,-1.787400,-0.023588,0.307697,0.078113,-1.038330,0.337646,-0.103027,0.073304,-0.028578,-0.019212,0.999999,-0.000118,0.001538,0.000391,0.512953,0.290246,-0.695685,0.410680
50782,NaN,7.507658,-3.188242,-1.347772,0.982301,-0.261177,-1.608229,-0.025019,0.318337,0.098404,-1.038330,0.337646,-0.100830,0.075071,-0.031847,-0.013593,0.999999,-0.000125,0.001592,0.000492,0.513878,0.289167,-0.695068,0.411329
50783,NaN,7.413707,-3.242389,-0.856357,0.821857,-0.692265,-1.747035,-0.016237,0.306426,0.124153,-1.038574,0.346191,-0.118164,0.074144,-0.032379,-0.008675,0.999999,-0.000081,0.001532,0.000621,0.514614,0.287875,-0.694602,0.412101
50784,NaN,7.553455,-3.062960,-0.433505,0.430535,-0.943475,-1.716467,-0.015222,0.285504,0.141883,-1.038330,0.337646,-0.109619,0.075550,-0.030576,-0.004441,0.999999,-0.000076,0.001428,0.000709,0.515319,0.286736,-0.694109,0.412846
50785,NaN,8.007419,-2.830014,-0.237752,0.001407,-0.959917,-1.370960,-0.086148,0.292494,0.185292,-1.038574,0.346191,-0.114014,0.080097,-0.028227,-0.002482,0.999998,-0.000431,0.001462,0.000926,0.515976,0.285078,-0.693905,0.413516
50786,NaN,8.268217,-2.712751,-0.212750,-0.191838,-0.889983,-1.155969,-0.182149,0.286032,0.206151,-1.038574,0.348389,-0.118164,0.082707,-0.027044,-0.002221,0.999998,-0.000911,0.001430,0.001031,0.516785,0.283283,-0.693842,0.413845
50787,NaN,8.502722,-2.678132,-0.607792,-0.112754,-0.497437,-0.892044,-0.256882,0.253242,0.229443,-1.030029,0.352539,-0.118164,0.085050,-0.026692,-0.006151,0.999998,-0.001284,0.001266,0.001147,0.517454,0.281113,-0.694143,0.413983
50788,NaN,9.121917,-2.347309,-0.613249,-0.582707,-0.281164,-0.395860,-0.361409,0.237128,0.276905,-1.032227,0.354736,-0.124756,0.091244,-0.023358,-0.006198,0.999997,-0.001807,0.001186,0.001385,0.518193,0.278707,-0.694671,0.413800
50789,NaN,9.784912,-1.990002,-0.786403,-1.012876,0.102788,0.151573,-0.451439,0.254212,0.322570,-1.030273,0.354736,-0.122559,0.097871,-0.019760,-0.007944,0.999995,-0.002257,0.001271,0.001613,0.518939,0.275710,-0.695488,0.413501
50790,NaN,9.932876,-2.325057,-1.378733,-0.512204,0.479301,0.457494,-0.479345,0.268961,0.380525,-1.023926,0.361084,-0.122559,0.099354,-0.023095,-0.013865,0.999994,-0.002397,0.001345,0.001903,0.519729,0.272566,-0.696308,0.413213
50791,NaN,10.079972,-2.185709,-0.847476,-0.962444,0.135538,0.490542,-0.510048,0.275273,0.438963,-1.024170,0.367676,-0.125000,0.100836,-0.021658,-0.008558,0.999993,-0.002550,0.001376,0.002195,0.520378,0.268969,-0.697331,0.413028
50792,NaN,10.552379,-2.378696,-0.199413,-1.313801,-0.453509,0.916649,-0.491576,0.272901,0.504699,-1.024414,0.374023,-0.127197,0.105581,-0.023526,-0.002080,0.999993,-0.002458,0.001365,0.002523,0.520928,0.265346,-0.698316,0.413015
50793,NaN,10.791577,-2.824356,0.192396,-1.276917,-0.957733,1.229233,-0.449771,0.278357,0.552707,-1.018066,0.378174,-0.122803,0.107996,-0.027941,0.001837,0.999993,-0.002249,0.001392,0.002764,0.521260,0.261504,-0.699330,0.413328
50794,NaN,10.526675,-2.576446,0.261817,-1.471980,-0.855821,0.893290,-0.408948,0.267005,0.602855,-1.016357,0.388916,-0.125244,0.105347,-0.025442,0.002530,0.999992,-0.002045,0.001335,0.003014,0.521462,0.257757,-0.700269,0.413839
50795,NaN,10.772411,-2.735157,0.194833,-1.445201,-0.810922,1.179001,-0.394715,0.268157,0.653249,-1.020996,0.397705,-0.129639,0.107815,-0.026996,0.001857,0.999992,-0.001974,0.001341,0.003266,0.521466,0.253732,-0.701292,0.414588
50796,NaN,11.194411,-2.957222,-0.128165,-1.294364,-0.564738,1.679987,-0.352195,0.291817,0.682148,-1.012451,0.401855,-0.127441,0.112042,-0.029193,-0.001393,0.999992,-0.001761,0.001459,0.003411,0.521500,0.249795,-0.702127,0.415522
50797,NaN,11.404174,-2.893555,-0.695548,-1.174121,0.031186,1.914694,-0.279174,0.313423,0.712172,-1.010498,0.408203,-0.127686,0.114133,-0.028539,-0.007094,0.999991,-0.001396,0.001567,0.003561,0.521381,0.245772,-0.702832,0.416877
50798,NaN,11.999401,-2.374784,-1.255322,-1.537413,0.904478,2.353601,-0.237692,0.344483,0.754299,-1.006592,0.416748,-0.134033,0.120061,-0.023310,-0.012732,0.999991,-0.001188,0.001722,0.003771,0.521289,0.241761,-0.703355,0.418451
50799,NaN,12.842968,-2.289198,-1.686922,-1.720072,1.482379,3.143810,-0.192130,0.402594,0.801410,-1.006836,0.427490,-0.134277,0.128486,-0.022394,-0.017106,0.999989,-0.000961,0.002013,0.004007,0.521175,0.237465,-0.703721,0.420433
50800,NaN,13.852211,-2.450851,-2.061692,-1.799659,1.919635,4.159279,-0.109561,0.465282,0.827264,-1.000732,0.436279,-0.142822,0.138573,-0.023947,-0.020926,0.999989,-0.000548,0.002326,0.004136,0.521179,0.233268,-0.703719,0.422775
50801,NaN,14.612306,-2.501476,-1.771243,-2.240149,1.859490,4.830962,0.012354,0.544874,0.819743,-0.994629,0.446777,-0.153809,0.146175,-0.024415,-0.018112,0.999988,0.000062,0.002724,0.004099,0.521270,0.229139,-0.703270,0.425657
50802,NaN,15.044986,-2.327648,-1.331096,-2.815158,1.775198,5.102503,0.167608,0.582324,0.822129,-0.994629,0.448975,-0.151611,0.150504,-0.022646,-0.013768,0.999987,0.000838,0.002912,0.004111,0.521351,0.225423,-0.702333,0.429075
50803,NaN,15.213754,-2.314181,-0.547094,-3.360804,1.298939,5.158238,0.367797,0.608216,0.816648,-0.993164,0.466309,-0.162598,0.152213,-0.022510,-0.005976,0.999985,0.001839,0.003041,0.004083,0.521249,0.222099,-0.700913,0.433234
50804,NaN,15.169018,-1.911852,0.898314,-4.474338,0.445035,4.827716,0.542622,0.622293,0.798148,-0.986572,0.468262,-0.171143,0.151792,-0.018536,0.008460,0.999984,0.002713,0.003111,0.003991,0.521072,0.219344,-0.698996,0.437924
50805,NaN,15.314052,-1.043153,2.810782,-6.253538,-0.539300,4.474000,0.636071,0.639868,0.780373,-0.986816,0.474854,-0.179932,0.153269,-0.009922,0.027585,0.999982,0.003180,0.003199,0.003902,0.520841,0.216788,-0.696808,0.442930
50806,NaN,15.678826,0.074469,3.042371,-7.391402,0.045350,4.345362,0.830476,0.724258,0.797502,-0.987061,0.485596,-0.201416,0.156893,0.001245,0.029860,0.999977,0.004152,0.003621,0.003987,0.520667,0.214543,-0.693935,0.448699
50807,NaN,15.393369,1.020896,1.606149,-7.275753,1.842470,3.760978,1.106295,0.812299,0.822758,-0.976562,0.487793,-0.209961,0.153954,0.010756,0.015495,0.999968,0.005531,0.004061,0.004114,0.520402,0.212701,-0.690194,0.455600
50808,NaN,15.151841,2.596740,0.270122,-7.731500,3.862046,2.903465,1.424855,0.883000,0.902540,-0.976807,0.498535,-0.231689,0.151410,0.026634,0.002221,0.999955,0.007124,0.004415,0.004513,0.519835,0.211253,-0.685584,0.463809
50809,NaN,15.416901,4.280398,-0.802709,-8.637386,5.777038,2.380150,1.744098,0.925671,1.032393,-0.975098,0.511475,-0.242432,0.153907,0.043671,-0.008362,0.999938,0.008720,0.004628,0.005162,0.518726,0.210096,-0.680155,0.473468
50810,NaN,14.552106,5.543867,-1.807042,-8.876915,7.168150,0.938038,1.868674,0.989641,1.061832,-0.970703,0.513672,-0.268311,0.145133,0.056380,-0.018265,0.999930,0.009343,0.004948,0.005309,0.517559,0.208954,-0.674236,0.483608
50811,NaN,13.596594,4.552248,-3.402549,-7.057410,8.018560,0.339062,1.780022,1.002198,1.237243,-0.962646,0.532959,-0.287842,0.135508,0.046666,-0.034293,0.999929,0.008900,0.005011,0.006186,0.516063,0.207013,-0.668547,0.493832
50812,NaN,14.924321,1.904243,-4.020066,-5.340399,7.915240,2.489327,1.172907,0.880504,2.065837,-0.956787,0.552246,-0.302979,0.148856,0.020819,-0.040738,0.999920,0.005864,0.004402,0.010329,0.512629,0.200925,-0.665467,0.503978
50813,NaN,14.122007,-1.189791,-4.213079,-2.721270,6.858519,2.998954,0.298974,0.900130,2.656923,-0.938477,0.580078,-0.309814,0.141169,-0.009959,-0.042782,0.999901,0.001495,0.004501,0.013284,0.508615,0.190662,-0.664984,0.512596
50814,NaN,15.297471,-3.540223,-4.381795,-1.580468,6.655890,4.983579,-0.582943,0.806604,3.064547,-0.917969,0.610107,-0.314453,0.153316,-0.033183,-0.044337,0.999870,-0.002915,0.004033,0.015322,0.503912,0.176879,-0.667265,0.519176
50815,NaN,16.976786,-3.119599,-4.527547,-2.876321,7.714455,6.018809,-1.216636,0.738081,3.103669,-0.904053,0.644287,-0.308350,0.170059,-0.028836,-0.045723,0.999854,-0.006083,0.003690,0.015518,0.499377,0.161627,-0.671208,0.523430
50816,NaN,17.303070,-1.906034,-2.724716,-5.163368,7.032571,5.494621,-1.171889,0.686653,3.101522,-0.890381,0.682861,-0.313232,0.173206,-0.016537,-0.027740,0.999857,-0.005859,0.003433,0.015507,0.494419,0.146454,-0.674972,0.527744
50817,NaN,17.859300,-2.536036,0.391635,-6.914049,4.599886,6.204524,-0.975084,0.742696,2.977758,-0.878418,0.710693,-0.317871,0.178957,-0.022680,0.003367,0.999870,-0.004875,0.003713,0.014888,0.489801,0.132145,-0.677817,0.532163
50818,NaN,18.284450,-4.255427,1.920572,-7.099658,3.118975,7.390642,-0.743679,0.862631,3.066240,-0.864746,0.747070,-0.320557,0.183548,-0.039674,0.018566,0.999866,-0.003718,0.004313,0.015331,0.484971,0.117601,-0.679618,0.537672
50819,NaN,17.790257,-7.760402,0.259846,-4.009778,3.364041,8.878293,-0.618914,0.931529,3.354858,-0.838135,0.787842,-0.329590,0.179181,-0.074599,0.002000,0.999844,-0.003094,0.004657,0.016773,0.479516,0.102351,-0.680896,0.544030
50820,NaN,17.479310,-9.387565,-2.094032,-1.994193,4.988690,9.400288,-1.715063,1.079233,3.493194,-0.813477,0.819824,-0.312744,0.176286,-0.090986,-0.021100,0.999796,-0.008575,0.005396,0.017465,0.474448,0.083372,-0.684622,0.547029
50821,NaN,15.292867,-5.699112,-3.732297,-2.655812,7.203907,5.063952,-3.079048,1.475075,3.581481,-0.786865,0.860352,-0.296143,0.153647,-0.054821,-0.037599,0.999694,-0.015394,0.007375,0.017906,0.470975,0.059937,-0.690840,0.545281
50822,NaN,15.528718,-8.430130,-4.133301,-1.308202,6.825698,6.949313,-3.041544,1.441601,3.951586,-0.760254,0.898926,-0.290039,0.156623,-0.081843,-0.041202,0.999663,-0.015206,0.007207,0.019756,0.465914,0.035158,-0.696686,0.544349
50823,NaN,14.828976,-18.757339,-6.825651,5.821914,4.687142,13.902113,-3.132643,1.316774,4.284997,-0.727539,0.941650,-0.269043,0.151837,-0.185394,-0.066333,0.999626,-0.015661,0.006583,0.021422,0.459385,0.009529,-0.702668,0.543261
50824,NaN,15.855524,-14.661814,-5.512810,1.505891,6.088937,11.573469,-3.131459,1.360829,4.098831,-0.692139,0.978027,-0.250244,0.161157,-0.144184,-0.053948,0.999644,-0.015655,0.006803,0.020492,0.452999,-0.015780,-0.707990,0.541566
50825,NaN,13.988912,-12.397565,-4.617417,0.346587,5.693168,8.575979,-2.145751,1.189532,3.989861,-0.667480,1.005859,-0.239746,0.142059,-0.121648,-0.045701,0.999726,-0.010728,0.005947,0.019947,0.446301,-0.037824,-0.710655,0.542545
50826,NaN,13.245673,-11.453773,-3.820231,-0.635358,5.461552,7.245122,-1.281324,1.056104,3.780781,-0.635986,1.031494,-0.233643,0.134392,-0.112254,-0.038185,0.999787,-0.006406,0.005280,0.018903,0.439441,-0.056991,-0.710903,0.546133
50827,NaN,12.482338,-6.295694,-2.785356,-3.260718,6.693684,2.342378,-0.514841,1.002839,3.569618,-0.606445,1.050781,-0.239990,0.125780,-0.060790,-0.028324,0.999825,-0.002574,0.005014,0.017847,0.433247,-0.073390,-0.709039,0.551520
50828,NaN,11.837332,-2.202846,-2.810248,-4.535907,8.195662,-1.743291,-0.252407,0.981134,3.364825,-0.581055,1.063477,-0.246582,0.118582,-0.020070,-0.028658,0.999846,-0.001262,0.004905,0.016823,0.427269,-0.088577,-0.706260,0.557487
50829,NaN,10.253482,-0.442991,-2.997068,-4.094821,8.226446,-4.348141,-0.351923,1.063660,3.188419,-0.558105,1.082764,-0.255371,0.102427,-0.002850,-0.030510,0.999857,-0.001760,0.005318,0.015941,0.422172,-0.103372,-0.703547,0.562233
50830,NaN,8.331422,-1.231130,-3.675949,-2.173310,7.390736,-4.803667,-0.575267,1.016694,2.826645,-0.537109,1.093506,-0.255371,0.083290,-0.011240,-0.037150,0.999883,-0.002876,0.005083,0.014133,0.417437,-0.117392,-0.701469,0.565603
50831,NaN,5.455804,-0.191452,-3.634295,-0.710188,5.959888,-7.169794,-1.005351,1.151504,2.230159,-0.524658,1.106201,-0.246826,0.054366,-0.001491,-0.036648,0.999909,-0.005027,0.005757,0.011150,0.414829,-0.130377,-0.700642,0.565702
50832,NaN,3.824869,1.731255,-3.684362,-0.144333,5.582041,-9.669050,-1.653395,1.027703,1.626074,-0.520508,1.114746,-0.236328,0.037917,0.017315,-0.037182,0.999920,-0.008267,0.005138,0.008130,0.412701,-0.142415,-0.702065,0.562584
50833,NaN,3.202437,3.343057,-5.038773,0.938596,6.601637,-11.347706,-2.175307,1.001929,1.066591,-0.512207,1.119141,-0.217041,0.031593,0.033048,-0.050908,0.999914,-0.010876,0.005010,0.005333,0.411946,-0.153278,-0.705411,0.556059
50834,NaN,2.314316,4.806996,-5.067593,1.317028,6.502218,-12.995027,-2.321876,1.095078,0.693025,-0.522949,1.121094,-0.202148,0.022698,0.047556,-0.051355,0.999912,-0.011609,0.005475,0.003465,0.412048,-0.163552,-0.709011,0.548426
50835,NaN,2.319851,5.161762,-4.639656,1.081841,6.355261,-13.275299,-2.043869,1.133770,0.363213,-0.520996,1.125488,-0.187256,0.022840,0.051181,-0.047051,0.999930,-0.010219,0.005669,0.001816,0.413705,-0.171988,-0.712056,0.540596
50836,NaN,3.617398,4.703624,-4.843801,0.701337,7.218568,-12.276636,-1.252675,1.124262,0.272367,-0.531982,1.127686,-0.189453,0.035836,0.046780,-0.048934,0.999964,-0.006263,0.005621,0.001362,0.415862,-0.178597,-0.712851,0.535730
50837,NaN,0.369089,5.791239,1.847960,-2.773562,1.268582,-15.084029,-0.855069,1.670127,-0.618187,-0.542236,1.114746,-0.187256,0.004023,0.057979,0.018199,0.999951,-0.004275,0.008350,-0.003091,0.423036,-0.182483,-0.712319,0.529474
50838,NaN,-1.085450,9.523066,1.080652,-2.039683,2.207406,-18.977826,-0.919244,1.599648,-1.279957,-0.565674,1.108398,-0.189209,-0.010160,0.095346,0.010452,0.999937,-0.004596,0.007998,-0.006400,0.431240,-0.184107,-0.712486,0.522016
50839,NaN,0.916971,8.874649,-0.458814,-1.823219,4.418921,-17.359769,-0.398680,1.450203,-1.364032,-0.582520,1.099854,-0.193604,0.009740,0.088672,-0.004834,0.999948,-0.001993,0.007251,-0.006820,0.439928,-0.183707,-0.711741,0.515888
50840,NaN,2.047069,7.895451,0.201094,-2.805054,4.570376,-15.961703,-0.443974,1.620831,-1.673282,-0.605469,1.080566,-0.206299,0.021145,0.078783,0.001666,0.999930,-0.002220,0.008104,-0.008366,0.449557,-0.182911,-0.710803,0.509118
50841,NaN,1.868986,8.084511,0.349715,-2.887479,4.583224,-16.107768,-0.522546,1.819056,-2.109790,-0.644043,1.074219,-0.212891,0.019571,0.080650,0.003111,0.999900,-0.002613,0.009095,-0.010549,0.461228,-0.181003,-0.710019,0.500381
50842,NaN,1.692872,8.348994,0.105369,-2.671676,4.869191,-16.272666,-0.580552,2.001467,-2.506432,-0.677734,1.052979,-0.221191,0.017981,0.083271,0.000635,0.999867,-0.002903,0.010007,-0.012532,0.474001,-0.178440,-0.709026,0.490678
50843,NaN,1.700700,8.218514,-0.815929,-1.884741,5.488197,-15.930241,-0.757605,2.215539,-2.880885,-0.713379,1.029541,-0.233887,0.018094,0.081898,-0.008666,0.999828,-0.003788,0.011077,-0.014404,0.488529,-0.175203,-0.708187,0.478660
50844,NaN,1.583779,8.367541,-2.194631,-0.666452,6.357587,-15.851857,-1.099676,2.322695,-3.231491,-0.746826,0.999512,-0.239990,0.016926,0.083285,-0.022597,0.999787,-0.005498,0.011613,-0.016156,0.503403,-0.171981,-0.707823,0.464752
50845,NaN,1.765921,8.183516,-3.764342,0.727034,7.334886,-15.282791,-1.615386,2.322578,-3.645672,-0.791260,0.982422,-0.242188,0.018699,0.081192,-0.038514,0.999734,-0.008076,0.011612,-0.018227,0.518936,-0.168254,-0.708769,0.447261
50846,NaN,2.332363,6.797505,-4.659961,1.722659,7.521806,-13.528590,-1.974347,2.307941,-4.045907,-0.839600,0.946045,-0.239746,0.024141,0.067026,-0.047540,0.999680,-0.009871,0.011538,-0.020227,0.534320,-0.164158,-0.710372,0.427699
50847,NaN,3.157500,5.349403,-5.032208,2.238856,7.466973,-11.582319,-2.187997,2.261035,-4.366417,-0.887695,0.909912,-0.239502,0.032149,0.052239,-0.051260,0.999638,-0.010939,0.011304,-0.021829,0.550056,-0.159024,-0.712419,0.405720
50848,NaN,4.185335,4.904728,-5.316810,2.445353,7.978394,-10.253261,-2.352885,2.194450,-4.678225,-0.931641,0.871338,-0.243408,0.042385,0.047426,-0.054196,0.999597,-0.011763,0.010971,-0.023388,0.565255,-0.153231,-0.714590,0.382583
50849,NaN,4.884584,4.361878,-5.545411,2.793802,8.073891,-9.020459,-2.378884,2.221185,-4.933711,-0.979248,0.820068,-0.249268,0.049267,0.041739,-0.056504,0.999563,-0.011893,0.011104,-0.024665,0.580897,-0.146262,-0.716401,0.357681
50850,NaN,5.242324,3.789551,-5.419783,2.942965,7.707950,-8.044467,-2.243762,2.257856,-5.126633,-1.027100,0.770752,-0.257324,0.052742,0.035931,-0.055203,0.999545,-0.011217,0.011288,-0.025629,0.596232,-0.138399,-0.717281,0.332958
50851,NaN,6.172097,3.397570,-5.407445,3.045151,7.756206,-6.742434,-2.143890,2.258451,-5.341008,-1.065918,0.715332,-0.271729,0.061970,0.031736,-0.055122,0.999522,-0.010718,0.011290,-0.026701,0.611761,-0.129083,-0.717529,0.306982
50852,NaN,7.286902,2.927505,-5.418749,3.188796,7.736013,-5.231002,-1.986487,2.220558,-5.530886,-1.106689,0.648926,-0.292480,0.073022,0.026711,-0.055272,0.999507,-0.009931,0.011101,-0.027650,0.626618,-0.118673,-0.717005,0.281371
50853,NaN,8.646428,2.666080,-5.563465,3.445541,7.886304,-3.590087,-1.843314,2.198237,-5.719121,-1.138916,0.591064,-0.311035,0.086549,0.023666,-0.056813,0.999488,-0.009215,0.010989,-0.028591,0.641392,-0.106729,-0.715786,0.254707
50854,NaN,10.208779,2.405476,-5.576120,3.614806,7.933436,-1.747665,-1.867372,2.131297,-5.933821,-1.168457,0.514160,-0.340088,0.102128,0.020496,-0.057052,0.999460,-0.009335,0.010655,-0.029664,0.655219,-0.094150,-0.714114,0.227738
50855,NaN,12.124532,2.145277,-5.288624,3.543468,7.839976,0.458025,-1.976918,2.068847,-6.130745,-1.200195,0.439209,-0.358398,0.121259,0.017203,-0.054325,0.999428,-0.009883,0.010342,-0.030648,0.668489,-0.080788,-0.712102,0.198764
50856,NaN,13.987466,1.799421,-4.821720,3.400926,7.380199,2.677795,-2.150431,2.027194,-6.335947,-1.225586,0.364258,-0.385254,0.139841,0.013033,-0.049793,0.999389,-0.010750,0.010134,-0.031673,0.680713,-0.067395,-0.709594,0.169008
50857,NaN,15.968421,1.200614,-4.501084,3.515959,6.447893,5.108285,-2.330790,1.975466,-6.511420,-1.246094,0.280762,-0.409668,0.159495,0.006273,-0.046682,0.999353,-0.011651,0.009875,-0.032550,0.692146,-0.053597,-0.706597,0.137051
50858,NaN,18.184624,0.680738,-4.363947,3.852736,5.378388,7.687599,-2.555491,1.938285,-6.661375,-1.253906,0.195312,-0.436279,0.181491,0.000185,-0.045430,0.999317,-0.012775,0.009689,-0.033299,0.702387,-0.040212,-0.702951,0.104375
50859,NaN,20.666045,0.834394,-4.604775,4.579953,4.659081,10.339059,-2.871692,1.917047,-6.760968,-1.253174,0.118164,-0.471680,0.206315,0.000684,-0.048073,0.999280,-0.014355,0.009583,-0.033797,0.711653,-0.027252,-0.698571,0.069323
50860,NaN,23.876863,1.272978,-5.151460,5.702880,3.946088,13.636837,-3.286000,1.932079,-6.786103,-1.239746,0.043213,-0.504639,0.238484,0.003760,-0.053931,0.999243,-0.016426,0.009658,-0.033922,0.719755,-0.015905,-0.693242,0.033402
50861,NaN,27.565050,1.318513,-6.233050,7.505825,2.300062,17.360755,-3.797228,1.912949,-6.784613,-1.226562,-0.027588,-0.540039,0.275245,0.002623,-0.065082,0.999199,-0.018981,0.009562,-0.033914,0.726655,-0.006110,-0.686957,-0.005095
50862,NaN,30.281965,-0.518544,-8.162730,10.067113,-1.795123,19.832590,-4.214837,1.853031,-6.603884,-1.204834,-0.087402,-0.573242,0.301618,-0.016916,-0.084152,0.999190,-0.021068,0.009263,-0.033011,0.732123,0.001297,-0.679775,-0.043598
50863,NaN,30.917781,-2.678565,-10.756052,12.852079,-6.597208,19.675236,-4.610919,1.714954,-6.440925,-1.174805,-0.145264,-0.602295,0.307115,-0.039208,-0.109392,0.999179,-0.023048,0.008572,-0.032196,0.735920,0.006917,-0.671864,-0.083501
50864,NaN,30.596604,-4.009430,-14.329319,16.206515,-10.711931,18.108234,-4.929619,1.428934,-6.171134,-1.141357,-0.177490,-0.635986,0.303434,-0.053033,-0.144266,0.999195,-0.024641,0.007143,-0.030847,0.737712,0.010085,-0.663807,-0.122633
50866,NaN,27.525673,-12.041075,-15.800537,30.203207,-42.562767,33.522065,-4.445996,0.809457,-5.498645,-1.089600,-0.241699,-0.668945,0.533151,-0.284304,-0.308373,0.997468,-0.044422,0.008088,-0.054940,0.734780,0.014950,-0.650132,-0.192882
50867,NaN,21.415783,-21.538448,-11.730396,6.791988,-29.486408,2.199273,-3.125901,0.346424,-4.662418,-1.069336,-0.265381,-0.681396,0.208832,-0.222096,-0.114232,0.999605,-0.015627,0.001732,-0.023309,0.731345,0.018934,-0.645252,-0.220059
50868,NaN,15.279012,-25.042706,-12.783237,5.321409,-31.319739,-5.993584,-2.283667,-0.321227,-3.847109,-1.053467,-0.286865,-0.674561,0.148119,-0.254742,-0.124699,0.999749,-0.011417,-0.001606,-0.019234,0.725917,0.022743,-0.643448,-0.241873
50869,NaN,12.956024,-32.413663,-18.838852,7.608524,-38.826762,-12.618472,-1.905441,-0.840259,-2.668329,-1.046875,-0.293213,-0.674561,0.125986,-0.327605,-0.184744,0.999857,-0.009527,-0.004201,-0.013341,0.720092,0.023376,-0.643810,-0.257742
