// Start Time: Unknown
// Update Rate: 100.0Hz
// Filter Profile: human (46.1)
// Firmware Version: 4.4.0
PacketCounter,SampleTimeFine,Acc_X,Acc_Y,Acc_Z,FreeAcc_X,FreeAcc_Y,FreeAcc_Z,Gyr_X,Gyr_Y,Gyr_Z,Mag_X,Mag_Y,Mag_Z,VelInc_X,VelInc_Y,VelInc_Z,OriInc_q0,OriInc_q1,OriInc_q2,OriInc_q3,Quat_q0,Quat_q1,Quat_q2,Quat_q3
43079,NaN,2.364802,-5.413392,-5.873363,-0.000000,-0.000000,-1.484199,-4.359035,-5.572600,1.691891,0.810059,0.276123,0.070557,0.025713,-0.055175,-0.056841,0.999339,-0.021790,-0.027857,0.008458,0.381267,-0.908035,-0.129294,-0.115717
43080,NaN,2.418260,-5.771962,-4.092860,-0.000000,-0.000000,-2.336401,-4.075631,-5.303569,1.527201,0.816895,0.261475,0.042236,0.025679,-0.058336,-0.039076,0.999412,-0.020374,-0.026513,0.007635,0.471398,-0.862875,-0.129540,-0.128261
43081,NaN,2.646037,-5.090936,-2.428722,0.489462,1.511417,-3.789262,-3.818655,-5.005219,1.376057,0.814941,0.252930,0.007568,0.027392,-0.051166,-0.022634,0.999481,-0.019090,-0.025022,0.006879,0.416384,-0.892126,-0.138463,-0.107533
43082,NaN,2.788641,-4.048135,-1.415586,1.207102,1.953000,-5.242220,-3.507893,-4.676036,1.225372,0.817383,0.244629,-0.022949,0.028444,-0.040540,-0.012784,0.999554,-0.017537,-0.023377,0.006126,0.397975,-0.902392,-0.140784,-0.086508
43083,NaN,2.706944,-3.419698,-0.785972,1.450680,2.203021,-6.252184,-3.175655,-4.323014,1.097201,0.819824,0.231934,-0.053467,0.027410,-0.034160,-0.006727,0.999625,-0.015876,-0.021612,0.005485,0.381562,-0.910588,-0.143791,-0.067566
43084,NaN,2.190699,-3.123873,-0.706706,1.120306,2.108306,-6.754206,-2.804060,-3.969854,0.994306,0.815674,0.231934,-0.075928,0.022191,-0.031220,-0.006191,0.999692,-0.014019,-0.019847,0.004971,0.366161,-0.917712,-0.145845,-0.049592
43085,NaN,1.471125,-3.233681,-0.931771,0.443485,1.952058,-6.733706,-2.391666,-3.628881,0.907112,0.813721,0.225830,-0.100342,0.015019,-0.032375,-0.008660,0.999754,-0.011957,-0.018143,0.004535,0.357191,-0.921436,-0.148520,-0.036232
43086,NaN,0.683950,-3.278337,-1.248620,-0.253027,1.675437,-6.665917,-1.957505,-3.334431,0.834904,0.813965,0.221680,-0.128906,0.007180,-0.032873,-0.012047,0.999804,-0.009787,-0.016671,0.004174,0.345779,-0.925975,-0.150244,-0.020826
43087,NaN,0.065757,-3.232122,-1.191099,-0.795949,1.528334,-6.829445,-1.584955,-3.075930,0.774023,0.813965,0.219482,-0.151367,0.000963,-0.032411,-0.011641,0.999843,-0.007924,-0.015379,0.003870,0.345750,-0.925762,-0.152691,-0.010362
43088,NaN,-0.253533,-2.785935,-1.183068,-0.925522,1.183081,-7.172851,-1.385774,-2.818847,0.731268,0.805664,0.215332,-0.167725,-0.002268,-0.027949,-0.011670,0.999870,-0.006929,-0.014094,0.003656,0.337177,-0.928741,-0.154087,0.002893
43089,NaN,-0.468151,-2.310018,-0.846061,-0.990537,0.971912,-7.728166,-1.337491,-2.575340,0.682981,0.805420,0.217529,-0.182129,-0.004494,-0.023172,-0.008364,0.999889,-0.006687,-0.012876,0.003415,0.341548,-0.926851,-0.155215,0.014136
43090,NaN,-0.925396,-2.252170,-0.473747,-1.434247,1.056761,-8.086657,-1.407002,-2.330998,0.654260,0.801270,0.215332,-0.200439,-0.009125,-0.022585,-0.004686,0.999902,-0.007035,-0.011655,0.003271,0.333139,-0.929506,-0.156248,0.024962
43091,NaN,-1.610082,-2.636782,-0.352356,-2.169893,1.175381,-7.920834,-1.498013,-2.104854,0.629987,0.795166,0.207031,-0.210449,-0.015981,-0.026445,-0.003494,0.999912,-0.007490,-0.010524,0.003150,0.337133,-0.927697,-0.155867,0.037739
43092,NaN,-2.212891,-3.104363,-0.298206,-2.856946,1.379920,-7.678094,-1.476467,-1.887775,0.588296,0.795166,0.207031,-0.229004,-0.022009,-0.031130,-0.002961,0.999924,-0.007382,-0.009439,0.002941,0.328677,-0.930218,-0.156587,0.046333
43093,NaN,-2.833161,-3.985914,-0.305541,-3.587099,1.779553,-6.988953,-1.378877,-1.700140,0.580774,0.795166,0.209229,-0.237061,-0.028190,-0.039962,-0.003020,0.999936,-0.006894,-0.008501,0.002904,0.334212,-0.927668,-0.153893,0.063657
43094,NaN,-3.470358,-4.734290,-0.049493,-4.407201,2.297107,-6.688729,-1.201818,-1.532768,0.559611,0.791016,0.202881,-0.243164,-0.034567,-0.047443,-0.000475,0.999949,-0.006009,-0.007664,0.002798,0.327263,-0.929571,-0.154233,0.070774
43095,NaN,-4.042733,-5.099933,0.281122,-4.962442,2.501464,-6.414335,-1.008484,-1.356539,0.548201,0.791016,0.202881,-0.253418,-0.040306,-0.051096,0.002795,0.999961,-0.005042,-0.006783,0.002741,0.337226,-0.924828,-0.149001,0.093644
43096,NaN,-4.964939,-5.219788,0.350236,-5.851317,2.335566,-6.301764,-0.828634,-1.191690,0.536127,0.782471,0.205078,-0.265869,-0.049530,-0.052316,0.003424,0.999970,-0.004143,-0.005958,0.002681,0.332246,-0.926039,-0.148915,0.099439
43097,NaN,-5.926967,-5.090711,0.307849,-6.488796,1.790759,-5.834298,-0.661589,-1.036073,0.522662,0.786865,0.200928,-0.269775,-0.059152,-0.051052,0.002941,0.999978,-0.003308,-0.005180,0.002613,0.345724,-0.918924,-0.141216,0.126933
43098,NaN,-6.929419,-4.672695,-0.004384,-7.216659,0.966089,-5.709373,-0.532999,-0.892944,0.512747,0.778320,0.203125,-0.280029,-0.069173,-0.046905,-0.000228,0.999983,-0.002665,-0.004465,0.002564,0.342313,-0.919625,-0.140739,0.131544
43099,NaN,-7.770224,-4.471615,-0.122367,-7.607771,0.367357,-5.082648,-0.417830,-0.769856,0.482966,0.780762,0.198730,-0.284180,-0.077589,-0.044906,-0.001429,0.999987,-0.002089,-0.003849,0.002415,0.354839,-0.911321,-0.130512,0.162942
43100,NaN,-8.478940,-4.716811,0.071426,-8.329108,0.421489,-4.853470,-0.352284,-0.638694,0.488653,0.778809,0.190186,-0.285889,-0.084676,-0.047374,0.000527,0.999990,-0.001761,-0.003193,0.002443,0.352416,-0.911735,-0.129704,0.166488
43101,NaN,-8.973175,-5.170408,0.342807,-8.533262,0.700511,-3.976511,-0.270200,-0.513986,0.473459,0.776611,0.190430,-0.286133,-0.089618,-0.051912,0.003268,0.999993,-0.001351,-0.002570,0.002367,0.361516,-0.903460,-0.116424,0.198776
43102,NaN,-9.295892,-5.437143,0.475127,-8.867887,0.875899,-3.746798,-0.203072,-0.397259,0.446471,0.774658,0.190430,-0.292236,-0.092847,-0.054574,0.004622,0.999995,-0.001015,-0.001986,0.002232,0.359922,-0.903687,-0.115326,0.201258
43103,NaN,-9.549745,-5.358324,0.732003,-8.801029,0.794677,-3.304595,-0.141601,-0.296384,0.411556,0.776855,0.184082,-0.296143,-0.095398,-0.053774,0.007217,0.999997,-0.000708,-0.001482,0.002058,0.367049,-0.894846,-0.106223,0.230745
43104,NaN,-9.959167,-4.959869,0.869681,-9.193638,0.471230,-3.504242,-0.127498,-0.195872,0.363024,0.779053,0.186035,-0.291992,-0.099510,-0.049774,0.008631,0.999998,-0.000637,-0.000979,0.001815,0.365955,-0.895044,-0.105105,0.232219
43105,NaN,-10.340756,-4.856774,0.945486,-9.120283,0.360869,-2.877014,-0.109492,-0.113697,0.306239,0.785400,0.181885,-0.293945,-0.103338,-0.048721,0.009423,0.999999,-0.000547,-0.000568,0.001531,0.372029,-0.886640,-0.089652,0.259668
43106,NaN,-10.538167,-5.130234,1.043454,-9.316476,0.566371,-2.647249,-0.056188,-0.036661,0.235133,0.774902,0.179688,-0.300049,-0.105323,-0.051423,0.010430,0.999999,-0.000281,-0.000183,0.001176,0.371458,-0.886801,-0.088751,0.260243
43107,NaN,-10.709367,-5.227264,1.235438,-9.164678,0.619509,-2.120745,0.059953,0.048212,0.162128,0.779297,0.175537,-0.295898,-0.107048,-0.052363,0.012364,1.000000,0.000300,0.000241,0.000811,0.375893,-0.878329,-0.081084,0.284021
43108,NaN,-10.580155,-5.168451,1.668504,-9.298848,0.904653,-2.454054,0.190148,0.121949,0.075753,0.783447,0.177490,-0.291992,-0.105772,-0.051740,0.016700,0.999999,0.000951,0.000610,0.000379,0.376670,-0.878175,-0.080252,0.283704
43109,NaN,-10.247808,-4.924228,1.916672,-8.925862,1.049684,-2.590059,0.278344,0.203963,-0.007261,0.785645,0.173340,-0.291748,-0.102460,-0.049265,0.019203,0.999999,0.001392,0.001020,-0.000036,0.379039,-0.873184,-0.071375,0.297968
43110,NaN,-10.265556,-4.797536,1.871135,-8.930484,0.933885,-2.652141,0.343023,0.278820,-0.085067,0.785645,0.177490,-0.293945,-0.102650,-0.047964,0.018772,0.999997,0.001715,0.001394,-0.000425,0.380762,-0.872917,-0.070707,0.296711
43111,NaN,-10.167564,-4.444984,1.672330,-8.512268,0.560657,-2.521539,0.398385,0.342468,-0.148739,0.785645,0.177490,-0.285645,-0.101680,-0.044408,0.016809,0.999996,0.001992,0.001712,-0.000744,0.384789,-0.866253,-0.064409,0.312081
43112,NaN,-10.018109,-4.216058,1.423576,-8.290571,0.301226,-2.647505,0.417662,0.394172,-0.215777,0.790039,0.173340,-0.287598,-0.100198,-0.042082,0.014345,0.999995,0.002088,0.001971,-0.001079,0.387060,-0.865991,-0.063934,0.310092
43113,NaN,-9.953510,-4.598738,1.002818,-7.750859,0.334060,-1.999948,0.424705,0.439333,-0.253341,0.787842,0.177490,-0.285645,-0.099571,-0.045883,0.010149,0.999995,0.002124,0.002197,-0.001267,0.389860,-0.861667,-0.057859,0.319675
43114,NaN,-10.029763,-4.807545,0.391056,-7.440609,0.058762,-1.536497,0.480260,0.471656,-0.281643,0.790039,0.175293,-0.281494,-0.100356,-0.047944,0.004032,0.999993,0.002401,0.002358,-0.001408,0.392513,-0.861397,-0.057385,0.317230
43115,NaN,-9.840245,-4.950710,-0.210830,-6.740750,-0.200771,-1.100269,0.590013,0.498589,-0.297210,0.791992,0.179688,-0.275635,-0.098481,-0.049355,-0.002009,0.999991,0.002950,0.002493,-0.001486,0.397159,-0.856724,-0.053013,0.324774
43116,NaN,-9.724180,-4.762449,-0.632971,-6.458734,-0.575843,-1.118192,0.670626,0.524869,-0.302175,0.796143,0.177490,-0.281738,-0.097330,-0.047456,-0.006234,0.999990,0.003353,0.002624,-0.001511,0.400657,-0.856156,-0.052176,0.322100
43117,NaN,-9.589109,-4.312349,-0.966622,-6.059944,-1.003980,-1.224867,0.687385,0.542492,-0.310045,0.798584,0.173096,-0.277344,-0.095984,-0.042942,-0.009554,0.999989,0.003437,0.002712,-0.001550,0.405845,-0.851923,-0.042358,0.328210
43118,NaN,-9.398828,-3.951401,-1.505907,-5.699083,-1.554481,-1.367387,0.675779,0.568753,-0.327370,0.791992,0.175293,-0.267334,-0.094095,-0.039309,-0.014925,0.999989,0.003379,0.002844,-0.001637,0.409377,-0.851407,-0.041489,0.325263
43119,NaN,-9.138849,-4.078725,-2.145525,-4.936525,-1.985638,-1.069375,0.722180,0.562126,-0.356468,0.802490,0.177490,-0.269287,-0.091521,-0.040547,-0.021345,0.999988,0.003611,0.002811,-0.001782,0.409802,-0.846993,-0.049076,0.335048
43120,NaN,-8.840554,-4.321656,-2.337149,-4.584877,-1.875848,-0.994854,0.797100,0.542809,-0.354651,0.800537,0.175293,-0.267334,-0.088545,-0.042967,-0.023303,0.999987,0.003985,0.002714,-0.001773,0.413900,-0.846171,-0.048129,0.332214
43121,NaN,-8.636447,-4.272607,-2.304267,-4.341853,-1.642120,-1.060287,0.841110,0.517366,-0.347953,0.802490,0.179443,-0.265381,-0.086498,-0.042479,-0.022998,0.999986,0.004206,0.002587,-0.001740,0.417851,-0.844321,-0.030310,0.334072
43122,NaN,-8.305482,-4.191808,-1.875075,-4.391395,-1.324645,-1.504321,0.834338,0.495569,-0.342854,0.796143,0.177490,-0.261230,-0.083173,-0.041697,-0.018719,0.999987,0.004172,0.002478,-0.001714,0.422015,-0.843343,-0.029327,0.331386
43123,NaN,-8.062373,-4.029788,-1.847335,-4.162728,-1.473705,-1.740923,0.831719,0.481228,-0.347991,0.806641,0.179443,-0.263184,-0.080738,-0.040081,-0.018446,0.999987,0.004159,0.002406,-0.001740,0.424669,-0.839219,-0.034668,0.337885
43124,NaN,-7.891220,-4.061805,-1.898166,-4.022697,-1.463719,-1.809696,0.863434,0.439241,-0.363547,0.802490,0.181641,-0.255127,-0.079027,-0.040393,-0.018983,0.999987,0.004317,0.002196,-0.001818,0.428977,-0.838053,-0.033801,0.335415
43125,NaN,-7.752074,-3.907460,-1.278268,-4.246880,-0.929023,-2.190508,0.928267,0.369666,-0.372684,0.806641,0.183838,-0.255127,-0.077617,-0.038871,-0.012820,0.999986,0.004641,0.001848,-0.001863,0.434148,-0.836377,-0.016657,0.334234
43126,NaN,-7.431081,-3.828688,-0.376889,-4.553349,-0.265295,-2.797106,0.876702,0.323816,-0.369644,0.804443,0.181641,-0.252930,-0.074388,-0.038133,-0.003816,0.999987,0.004383,0.001619,-0.001848,0.438453,-0.834973,-0.016034,0.332146
43127,NaN,-7.284353,-4.127953,0.090727,-4.563887,0.160067,-2.794477,0.719960,0.288695,-0.339159,0.802490,0.181641,-0.255127,-0.072912,-0.041159,0.000864,0.999991,0.003600,0.001443,-0.001696,0.439495,-0.831219,-0.022420,0.339731
43128,NaN,-7.261410,-4.372926,0.771974,-4.891104,0.782874,-2.890934,0.566767,0.254507,-0.303671,0.806641,0.181641,-0.250977,-0.072671,-0.043641,0.007688,0.999994,0.002834,0.001273,-0.001518,0.442392,-0.830367,-0.022160,0.338068
43129,NaN,-7.170871,-4.494631,1.299789,-5.032509,1.289998,-3.006640,0.450268,0.242824,-0.273685,0.806641,0.181641,-0.255127,-0.071754,-0.044877,0.012984,0.999996,0.002251,0.001214,-0.001368,0.443848,-0.828849,-0.017915,0.340128
43130,NaN,-7.159169,-4.817703,1.313886,-4.952585,1.487837,-2.780726,0.392654,0.250286,-0.231381,0.806641,0.183594,-0.249023,-0.071631,-0.048120,0.013134,0.999997,0.001963,0.001251,-0.001157,0.445889,-0.828380,-0.017650,0.338611
43131,NaN,-7.373671,-4.942551,1.240037,-4.979610,1.385154,-2.489958,0.416742,0.244017,-0.169501,0.810791,0.183594,-0.250977,-0.073763,-0.049389,0.012387,0.999997,0.002084,0.001220,-0.000848,0.446917,-0.825796,-0.018042,0.343512
43132,NaN,-7.432983,-4.906428,1.312089,-5.078206,1.387995,-2.510007,0.498693,0.225630,-0.112149,0.806641,0.181641,-0.252930,-0.074343,-0.049055,0.013082,0.999996,0.002493,0.001128,-0.000561,0.449187,-0.825056,-0.017143,0.342374
43133,NaN,-7.359583,-4.456640,1.733139,-5.319602,1.422196,-2.978357,0.557761,0.208852,-0.038664,0.804443,0.181641,-0.249023,-0.073586,-0.044600,0.017284,0.999996,0.002789,0.001044,-0.000193,0.451339,-0.822128,-0.015114,0.346656
43134,NaN,-7.242980,-4.091733,2.031890,-5.500014,1.464968,-3.414616,0.542450,0.203172,0.027567,0.808838,0.177246,-0.250977,-0.072404,-0.040982,0.020281,0.999996,0.002712,0.001016,0.000138,0.453534,-0.821254,-0.013601,0.345923
43135,NaN,-7.284944,-4.119041,1.868533,-5.372222,1.365355,-3.270263,0.530511,0.200495,0.092358,0.811035,0.175293,-0.257080,-0.072812,-0.041274,0.018649,0.999996,0.002653,0.001002,0.000462,0.455790,-0.819415,-0.009549,0.347453
43136,NaN,-7.429050,-3.866642,1.565323,-5.366427,0.953296,-3.264054,0.528439,0.175488,0.149937,0.811279,0.173096,-0.250732,-0.074248,-0.038763,0.015616,0.999996,0.002642,0.000877,0.000750,0.457701,-0.818519,-0.007616,0.347101
43137,NaN,-7.533676,-3.582560,1.105596,-5.209308,0.353176,-3.213318,0.533463,0.132928,0.193165,0.811279,0.170898,-0.244629,-0.075295,-0.035928,0.011010,0.999996,0.002667,0.000665,0.000966,0.459694,-0.815460,-0.007978,0.351629
43138,NaN,-7.669990,-3.425031,0.854411,-5.195431,0.037309,-3.157190,0.529912,0.083401,0.244839,0.813477,0.166748,-0.254883,-0.076654,-0.034367,0.008485,0.999996,0.002650,0.000417,0.001224,0.461426,-0.814394,-0.005855,0.351872
43139,NaN,-7.757896,-2.856092,0.799318,-5.363322,-0.320955,-3.479219,0.505638,0.046158,0.281957,0.813477,0.164551,-0.252686,-0.077537,-0.028690,0.007939,0.999996,0.002528,0.000231,0.001410,0.463116,-0.812918,-0.000889,0.353112
43140,NaN,-7.676110,-2.421267,0.925356,-5.495288,-0.436802,-3.875312,0.435551,0.021125,0.318003,0.811523,0.160400,-0.250488,-0.076721,-0.024355,0.009209,0.999996,0.002178,0.000106,0.001590,0.464323,-0.811944,0.001223,0.353764
43141,NaN,-7.512918,-2.592465,1.094879,-5.378073,-0.121793,-3.860799,0.342015,-0.001974,0.347099,0.809814,0.154053,-0.256592,-0.075084,-0.026074,0.010904,0.999997,0.001710,-0.000010,0.001735,0.465487,-0.810840,0.005434,0.354726
43142,NaN,-7.476290,-2.771666,0.840632,-5.122056,-0.189025,-3.647266,0.332770,-0.023034,0.362014,0.816162,0.154053,-0.250488,-0.074714,-0.027866,0.008351,0.999997,0.001664,-0.000115,0.001810,0.466193,-0.810012,0.007440,0.355654
43143,NaN,-7.524339,-3.083002,0.677141,-4.922216,-0.147692,-3.306616,0.412480,-0.054594,0.372219,0.814209,0.145508,-0.254395,-0.075188,-0.030984,0.006687,0.999996,0.002062,-0.000273,0.001861,0.467299,-0.808576,0.009650,0.357413
43144,NaN,-7.678026,-2.814326,0.682169,-5.104207,-0.336698,-3.396189,0.462061,-0.080657,0.378569,0.812256,0.141357,-0.258545,-0.076730,-0.028304,0.006725,0.999995,0.002310,-0.000403,0.001893,0.468493,-0.807329,0.011819,0.358602
43145,NaN,-7.863710,-2.465664,0.717900,-5.350098,-0.576694,-3.529650,0.462634,-0.104638,0.361331,0.816650,0.134766,-0.256348,-0.078596,-0.024815,0.007081,0.999996,0.002313,-0.000523,0.001807,0.469455,-0.805752,0.012818,0.360848
43146,NaN,-8.112254,-2.208511,0.839517,-5.667897,-0.701645,-3.585849,0.409188,-0.127172,0.331453,0.814453,0.139160,-0.258301,-0.081091,-0.022237,0.008298,0.999996,0.002046,-0.000636,0.001657,0.470512,-0.804537,0.014595,0.362114
43147,NaN,-8.289276,-2.364597,0.837477,-5.709098,-0.656334,-3.333480,0.339289,-0.125431,0.289000,0.819092,0.128418,-0.260254,-0.082864,-0.023780,0.008283,0.999997,0.001696,-0.000627,0.001445,0.471146,-0.803536,0.016936,0.363407
43148,NaN,-8.884316,-2.760456,0.380088,-5.714735,-0.974276,-2.526527,0.236148,-0.159983,0.283692,0.810547,0.130615,-0.264404,-0.088807,-0.027735,0.003697,0.999998,0.001181,-0.000800,0.001418,0.471592,-0.802662,0.018130,0.364701
43149,NaN,-9.716215,-2.279034,-0.187641,-6.148127,-1.940807,-2.192469,0.106153,-0.211956,0.270047,0.821045,0.130615,-0.262207,-0.097129,-0.022920,-0.001991,0.999998,0.000531,-0.001060,0.001350,0.471415,-0.801904,0.019026,0.366547
43150,NaN,-9.886083,-2.150538,-0.365007,-6.191948,-2.203758,-2.112310,-0.101923,-0.256098,0.249243,0.819092,0.128418,-0.262207,-0.098829,-0.021630,-0.003766,0.999998,-0.000510,-0.001280,0.001246,0.470573,-0.801648,0.019237,0.368174
43151,NaN,-9.846800,-3.170686,-0.346648,-5.752906,-1.567414,-1.352186,-0.189309,-0.273367,0.228009,0.821533,0.119873,-0.268311,-0.098427,-0.031822,-0.003571,0.999998,-0.000947,-0.001367,0.001140,0.469364,-0.801669,0.021774,0.369526
43152,NaN,-10.026036,-3.959852,0.072627,-5.794247,-0.861735,-0.763316,-0.156131,-0.286706,0.224097,0.817139,0.122070,-0.268311,-0.100217,-0.039710,0.000614,0.999998,-0.000781,-0.001434,0.001120,0.468355,-0.801478,0.021713,0.371221
43153,NaN,-10.223798,-3.830170,0.438794,-6.151864,-0.713381,-0.810779,-0.153830,-0.282500,0.210729,0.817383,0.117920,-0.270264,-0.102204,-0.038406,0.004273,0.999998,-0.000769,-0.001412,0.001054,0.466715,-0.801203,0.021934,0.373858
43154,NaN,-10.468927,-3.866567,0.399631,-6.266099,-0.802642,-0.603986,-0.198762,-0.270064,0.201650,0.815186,0.117920,-0.272217,-0.104656,-0.038767,0.003893,0.999998,-0.000994,-0.001350,0.001008,0.465570,-0.801136,0.021744,0.375436
43155,NaN,-10.791463,-3.989046,0.387692,-6.407973,-0.851786,-0.287418,-0.281517,-0.256591,0.198298,0.815186,0.115723,-0.274414,-0.107880,-0.039992,0.003795,0.999998,-0.001408,-0.001283,0.000991,0.463296,-0.801311,0.020855,0.377919
43156,NaN,-10.930633,-3.821732,0.446068,-6.584263,-0.944891,-0.323853,-0.347672,-0.248108,0.194984,0.812988,0.120117,-0.278564,-0.109274,-0.038316,0.004392,0.999997,-0.001738,-0.001241,0.000975,0.461559,-0.801623,0.020408,0.379405
43157,NaN,-11.062220,-3.926185,0.535318,-6.663391,-0.847637,-0.171376,-0.404933,-0.233716,0.184452,0.815186,0.113770,-0.278320,-0.110592,-0.039353,0.005304,0.999997,-0.002025,-0.001169,0.000922,0.459371,-0.802075,0.020258,0.381109
43158,NaN,-11.290443,-4.123898,0.664479,-6.809845,-0.703474,0.089498,-0.460940,-0.236098,0.176074,0.810791,0.122070,-0.272461,-0.112876,-0.041323,0.006607,0.999996,-0.002305,-0.001180,0.000880,0.457209,-0.802661,0.019548,0.382511
43159,NaN,-11.420322,-4.671763,0.877347,-6.803686,-0.236333,0.515567,-0.534185,-0.221532,0.170129,0.813232,0.109375,-0.278320,-0.114173,-0.046791,0.008772,0.999995,-0.002671,-0.001108,0.000851,0.454330,-0.803708,0.019481,0.383743
43160,NaN,-11.668176,-4.807078,0.685168,-6.803846,-0.364681,0.831487,-0.667071,-0.199055,0.173632,0.812988,0.117920,-0.282471,-0.116647,-0.048149,0.006896,0.999994,-0.003335,-0.000995,0.000868,0.451332,-0.804817,0.018451,0.385005
43161,NaN,-11.863376,-5.115116,0.181856,-6.504969,-0.613135,1.333907,-0.814074,-0.185858,0.174898,0.817139,0.122070,-0.278564,-0.118591,-0.051247,0.001917,0.999991,-0.004070,-0.000929,0.000874,0.446914,-0.806187,0.016029,0.387392
43162,NaN,-12.202056,-5.481318,-0.035113,-6.472293,-0.627783,1.877113,-0.925652,-0.196146,0.195099,0.817139,0.124268,-0.280518,-0.121967,-0.054933,-0.000217,0.999988,-0.004628,-0.000981,0.000975,0.442815,-0.807848,0.014590,0.388694
43163,NaN,-12.430673,-5.803979,0.182551,-6.626598,-0.236307,2.198698,-0.928913,-0.221736,0.204766,0.812988,0.120117,-0.286621,-0.124249,-0.058158,0.001958,0.999988,-0.004645,-0.001109,0.001024,0.438916,-0.809595,0.016640,0.389399
43164,NaN,-12.215671,-5.758958,0.669702,-6.791441,0.188665,1.878223,-0.869727,-0.268611,0.204094,0.816895,0.128662,-0.291016,-0.122107,-0.057685,0.006784,0.999989,-0.004349,-0.001343,0.001020,0.435015,-0.810953,0.015189,0.391008
43165,NaN,-11.710100,-5.096261,1.236094,-7.001471,0.426297,0.930865,-0.806620,-0.337640,0.172626,0.808350,0.128662,-0.288818,-0.117078,-0.051014,0.012369,0.999990,-0.004033,-0.001688,0.000863,0.432346,-0.811779,0.017320,0.392163
43166,NaN,-11.228299,-3.647892,1.645398,-7.447005,-0.039026,-0.505179,-0.757621,-0.396493,0.108307,0.814697,0.130615,-0.295166,-0.112296,-0.036478,0.016370,0.999991,-0.003788,-0.001982,0.000542,0.429088,-0.812620,0.015422,0.394074
43167,NaN,-10.811560,-1.818312,1.802284,-7.906663,-0.905639,-2.059708,-0.733862,-0.444911,0.003972,0.808350,0.132812,-0.295166,-0.108155,-0.018120,0.017849,0.999991,-0.003669,-0.002225,0.000020,0.427289,-0.813117,0.016843,0.394944
43168,NaN,-10.457655,-0.720819,2.132530,-8.260191,-1.301209,-3.141428,-0.727254,-0.464105,-0.108790,0.808105,0.139160,-0.297363,-0.104630,-0.007074,0.021108,0.999991,-0.003636,-0.002321,-0.000544,0.424582,-0.813753,0.013978,0.396662
43169,NaN,-10.344387,-0.042113,2.168550,-8.440040,-1.686194,-3.678121,-0.692948,-0.445652,-0.218661,0.803955,0.137207,-0.305420,-0.103492,-0.000233,0.021456,0.999991,-0.003465,-0.002228,-0.001093,0.423059,-0.814121,0.013091,0.397563
43170,NaN,-10.364776,-0.086537,1.866629,-8.238624,-1.934778,-3.543575,-0.673889,-0.409080,-0.301593,0.805664,0.145752,-0.307617,-0.103687,-0.000647,0.018457,0.999991,-0.003369,-0.002045,-0.001508,0.420939,-0.814743,0.009663,0.398637
43171,NaN,-10.097118,-0.471864,1.495678,-7.685723,-1.826206,-3.331493,-0.624273,-0.347592,-0.349890,0.805664,0.147705,-0.307617,-0.101005,-0.004496,0.014796,0.999992,-0.003121,-0.001738,-0.001749,0.420666,-0.815178,0.011192,0.397995
43172,NaN,-9.531837,-0.964787,0.905855,-6.750710,-1.786445,-3.191232,-0.584625,-0.278614,-0.362644,0.803223,0.154053,-0.311768,-0.095348,-0.009449,0.008954,0.999993,-0.002923,-0.001393,-0.001813,0.419017,-0.815864,0.007968,0.398405
43173,NaN,-8.696102,-1.473810,0.311672,-5.636670,-1.524505,-3.194894,-0.546630,-0.181885,-0.338414,0.801025,0.158447,-0.305908,-0.086989,-0.014582,0.003078,0.999994,-0.002733,-0.000909,-0.001692,0.419224,-0.816765,0.012593,0.396215
43174,NaN,-7.654543,-1.623875,-0.662719,-4.259780,-1.799416,-3.465677,-0.485765,-0.068301,-0.297652,0.796875,0.160645,-0.312012,-0.076567,-0.016141,-0.006614,0.999996,-0.002429,-0.000342,-0.001488,0.417833,-0.817660,0.010275,0.395907
43175,NaN,-6.468833,-1.753497,-1.578982,-2.818332,-1.993847,-3.854895,-0.373826,0.068477,-0.246050,0.804932,0.171143,-0.303955,-0.064715,-0.017485,-0.015735,0.999997,-0.001869,0.000342,-0.001230,0.416967,-0.818111,0.008084,0.395939
43176,NaN,-5.207083,-2.530232,-1.881450,-1.507490,-1.293915,-4.058657,-0.188083,0.205202,-0.178567,0.802734,0.168945,-0.305908,-0.052113,-0.025273,-0.018737,0.999999,-0.000940,0.001026,-0.000893,0.416543,-0.818911,0.007411,0.394742
43177,NaN,-3.816241,-3.467471,-1.577187,-0.432962,-0.013083,-4.438032,0.071512,0.362208,-0.106354,0.802734,0.168945,-0.297852,-0.038209,-0.034649,-0.015715,0.999998,0.000358,0.001811,-0.000532,0.417553,-0.819604,0.011853,0.392121
43178,NaN,-2.633589,-3.373208,-0.955795,-0.052921,0.721327,-5.487789,0.257575,0.548517,-0.056465,0.809326,0.164795,-0.295654,-0.026372,-0.033712,-0.009529,0.999995,0.001288,0.002743,-0.000282,0.418685,-0.820137,0.013273,0.389746
43179,NaN,-1.712118,-2.704334,-0.596091,0.127337,0.823636,-6.665387,0.285032,0.758083,-0.014566,0.807129,0.168945,-0.285400,-0.017146,-0.027034,-0.005934,0.999992,0.001425,0.003790,-0.000073,0.419708,-0.821092,0.017190,0.386468
43180,NaN,-1.088846,-2.338058,-0.323549,0.259424,0.964573,-7.412879,0.214981,0.977192,0.018036,0.815674,0.166748,-0.283447,-0.010902,-0.023378,-0.003207,0.999987,0.001075,0.004886,0.000090,0.420467,-0.822513,0.019730,0.382479
43181,NaN,-0.526711,-2.323900,-0.002163,0.456901,1.349591,-7.902770,0.184881,1.211306,0.030125,0.817627,0.166748,-0.273193,-0.005264,-0.023240,-0.000011,0.999981,0.000924,0.006056,0.000151,0.420778,-0.824540,0.024270,0.377480
43182,NaN,0.624970,-1.669751,0.892750,0.514927,1.883557,-9.409337,0.249696,1.511145,-0.055409,0.819824,0.166748,-0.260986,0.006312,-0.016710,0.008859,0.999971,0.001248,0.007556,-0.000277,0.421717,-0.826846,0.027692,0.371099
43183,NaN,1.871705,-1.443090,1.581825,0.972483,2.548896,-10.615905,0.346581,1.893536,-0.171001,0.826416,0.164551,-0.240479,0.018853,-0.014474,0.015615,0.999953,0.001733,0.009468,-0.000855,0.423287,-0.829731,0.034250,0.362218
43184,NaN,2.577417,-2.306327,1.436615,1.944460,3.144964,-10.407539,0.581005,2.286546,-0.298988,0.828369,0.166504,-0.224121,0.025901,-0.023143,0.014003,0.999929,0.002905,0.011432,-0.001495,0.425819,-0.832631,0.038898,0.351981
43185,NaN,2.775638,-3.536173,0.997779,2.848440,3.603240,-9.486789,1.079310,2.632006,-0.461771,0.838867,0.168457,-0.197510,0.027801,-0.035478,0.009421,0.999896,0.005396,0.013160,-0.002309,0.429958,-0.835049,0.043914,0.340444
43186,NaN,2.947004,-4.232009,0.631201,3.511784,3.716149,-8.891613,1.853938,2.950432,-0.679912,0.844971,0.174805,-0.183105,0.029411,-0.042474,0.005485,0.999842,0.009269,0.014751,-0.003399,0.438140,-0.836100,0.050566,0.326210
43187,NaN,2.938481,-4.555071,0.437494,3.835973,3.617182,-8.481609,2.744196,3.283060,-0.939625,0.849365,0.170410,-0.156494,0.029230,-0.045738,0.003268,0.999760,0.013720,0.016414,-0.004698,0.449737,-0.835898,0.061061,0.308680
43188,NaN,2.732027,-4.476100,0.395661,3.759407,3.330296,-8.255130,3.629143,3.599354,-1.213691,0.849121,0.176758,-0.127930,0.027103,-0.044982,0.002653,0.999655,0.018144,0.017995,-0.006068,0.465523,-0.833373,0.069660,0.289700
43189,NaN,2.488106,-3.916647,0.341120,3.469291,2.733487,-8.352301,4.427070,3.883313,-1.548068,0.861572,0.187256,-0.099609,0.024625,-0.039413,0.002061,0.999537,0.022132,0.019414,-0.007739,0.484087,-0.829236,0.080381,0.267518
43190,NaN,2.511307,-2.674158,0.896578,2.893454,2.381844,-9.353361,4.906964,4.184176,-1.970449,0.856934,0.197754,-0.069092,0.025018,-0.027189,0.007778,0.999432,0.024530,0.020917,-0.009850,0.505107,-0.823277,0.088855,0.243284
43191,NaN,2.647211,-0.727058,0.806386,2.390984,1.237063,-10.780462,4.831217,4.487043,-2.405230,0.858398,0.216797,-0.044922,0.026550,-0.007772,0.007285,0.999384,0.024151,0.022431,-0.012024,0.524371,-0.818075,0.101450,0.213300
43192,NaN,2.796896,1.194943,0.461918,1.960964,0.052344,-12.182100,4.519054,4.680935,-2.944123,0.855713,0.238037,-0.006348,0.028242,0.011437,0.004223,0.999363,0.022590,0.023400,-0.014717,0.543282,-0.812191,0.106435,0.184013
43193,NaN,3.527331,1.776594,-0.095234,2.608019,-0.770335,-12.677982,3.954116,4.830850,-3.530865,0.843994,0.271973,0.025879,0.035549,0.017165,-0.001466,0.999357,0.019766,0.024149,-0.017651,0.557843,-0.808446,0.116292,0.147317
43194,NaN,4.301119,1.101401,-1.606757,3.796962,-2.054284,-11.724061,3.302888,4.991275,-4.115324,0.832031,0.310059,0.059814,0.042814,0.010407,-0.016963,0.999341,0.016511,0.024951,-0.020572,0.570952,-0.804771,0.115938,0.113652
43195,NaN,4.867789,-0.198434,-2.925225,4.727445,-3.141167,-10.071145,3.016072,5.121340,-4.722847,0.811523,0.352539,0.095703,0.047849,-0.002667,-0.030522,0.999280,0.015077,0.025601,-0.023609,0.579650,-0.802831,0.118992,0.072865
43196,NaN,5.196976,-1.329797,-3.738921,5.168653,-3.808876,-8.580780,3.004676,5.251712,-5.318292,0.788818,0.401367,0.129639,0.050593,-0.014078,-0.038938,0.999189,0.015019,0.026251,-0.026584,0.590049,-0.798551,0.113869,0.034531
43197,NaN,5.393967,-2.245165,-4.517359,5.144198,-4.592982,-7.174672,3.287419,5.309444,-5.911548,0.761719,0.452393,0.155273,0.052029,-0.023247,-0.046950,0.999076,0.016432,0.026539,-0.029549,0.597841,-0.793853,0.110799,-0.010334
43198,NaN,5.773951,-3.266934,-4.855788,5.191558,-4.965556,-5.819631,3.767100,5.284284,-6.465841,0.719482,0.510010,0.174561,0.055344,-0.033543,-0.050668,0.998951,0.018829,0.026412,-0.032318,0.608898,-0.785073,0.100630,-0.052703
43199,NaN,6.346052,-4.497546,-5.199986,5.157677,-5.425016,-4.204507,4.176331,5.248573,-7.050533,0.675293,0.563232,0.189697,0.060440,-0.046020,-0.054567,0.998816,0.020873,0.026233,-0.035239,0.618594,-0.774180,0.090066,-0.099373
43200,NaN,6.812043,-5.834565,-6.377333,4.509782,-6.669070,-2.315022,4.625084,5.177715,-7.656540,0.612061,0.620850,0.192627,0.064157,-0.059331,-0.066834,0.998665,0.023115,0.025877,-0.038266,0.629528,-0.759723,0.074039,-0.145031
43201,NaN,7.325003,-7.523976,-7.159066,3.560130,-7.553091,-0.238638,5.157374,4.967295,-8.307542,0.548584,0.684814,0.187012,0.068256,-0.076235,-0.075286,0.998497,0.025774,0.024824,-0.041517,0.640023,-0.741971,0.054368,-0.192075
43202,NaN,8.142677,-9.639165,-7.008359,2.674831,-7.681772,2.102517,5.605810,4.648547,-8.948610,0.474609,0.738281,0.173584,0.075370,-0.097806,-0.074612,0.998337,0.028014,0.023230,-0.044718,0.649890,-0.720777,0.030592,-0.239140
43203,NaN,9.165019,-12.358856,-5.873765,1.622364,-6.962018,5.014580,5.615172,4.245032,-9.488541,0.392334,0.791748,0.151855,0.084386,-0.125958,-0.064096,0.998256,0.028060,0.021213,-0.047415,0.656573,-0.697894,0.003464,-0.286082
43204,NaN,10.299514,-14.664559,-5.247141,-0.013930,-6.858825,7.543201,5.284664,3.864842,-9.950355,0.304443,0.828125,0.126221,0.094496,-0.150000,-0.058288,0.998227,0.026408,0.019313,-0.049722,0.659547,-0.673965,-0.026110,-0.331795
43205,NaN,11.139903,-16.815956,-5.370825,-2.710318,-7.271907,9.552186,5.023198,3.454570,-10.277918,0.216553,0.856445,0.090576,0.101621,-0.172100,-0.059812,0.998216,0.025101,0.017263,-0.051359,0.658117,-0.649485,-0.057616,-0.376474
43206,NaN,12.371171,-19.022827,-4.955519,-5.413378,-7.284933,11.553172,4.725892,2.905530,-10.363209,0.124512,0.882324,0.051025,0.112905,-0.194997,-0.055820,0.998273,0.023616,0.014519,-0.051786,0.653659,-0.624370,-0.090479,-0.417978
43207,NaN,14.938795,-21.477201,-3.362078,-7.442355,-6.585722,14.606411,3.624889,2.416687,-10.085202,0.037598,0.889160,0.031982,0.137884,-0.221242,-0.039306,0.998492,0.018115,0.012077,-0.050401,0.643362,-0.602428,-0.121552,-0.456499
43208,NaN,16.643368,-21.641361,-3.159004,-9.233171,-6.823074,15.144654,2.154266,2.240102,-9.739022,-0.051270,0.885254,0.011230,0.155268,-0.223788,-0.035756,0.998694,0.010767,0.011196,-0.048674,0.628149,-0.583685,-0.148421,-0.492657
43209,NaN,17.151426,-20.608921,-2.930208,-10.613725,-6.406008,14.129122,1.205697,2.072168,-9.546619,-0.135498,0.870850,0.004883,0.161106,-0.213758,-0.032281,0.998789,0.006026,0.010357,-0.047714,0.608240,-0.567570,-0.172672,-0.527345
43210,NaN,17.897796,-21.447308,-2.065572,-13.013278,-5.036408,14.462988,0.330713,1.871142,-9.121548,-0.207031,0.856201,0.004883,0.168751,-0.222290,-0.022630,0.998915,0.001653,0.009352,-0.045591,0.586092,-0.553143,-0.193537,-0.559529
43211,NaN,18.296805,-23.407438,-2.017387,-16.649407,-3.565346,14.606370,-1.343145,1.810875,-8.465240,-0.280518,0.839600,0.012939,0.172662,-0.241665,-0.020162,0.999041,-0.006714,0.009051,-0.042313,0.559253,-0.543909,-0.207886,-0.590070
43212,NaN,18.286455,-24.963275,-2.904107,-20.164369,-2.430980,13.701650,-2.417790,1.871328,-8.043427,-0.340820,0.810059,0.029785,0.172361,-0.257046,-0.027609,0.999075,-0.012085,0.009354,-0.040205,0.530384,-0.536284,-0.217192,-0.619612
43213,NaN,17.139097,-25.358757,-3.474990,-22.369054,-0.593478,11.344712,-2.831919,1.867497,-7.767615,-0.401367,0.782715,0.044189,0.161051,-0.260450,-0.032630,0.999102,-0.014155,0.009335,-0.038826,0.499846,-0.529727,-0.224326,-0.647473
43214,NaN,16.249494,-23.997640,-3.641856,-22.444109,0.773568,8.853086,-2.944299,1.722268,-7.478734,-0.453125,0.753174,0.056641,0.153060,-0.246333,-0.034168,0.999156,-0.014717,0.008609,-0.037383,0.469356,-0.522673,-0.230101,-0.673477
43215,NaN,16.382247,-21.541799,-3.461193,-21.085317,1.374958,7.437692,-3.408629,1.664207,-6.945230,-0.498779,0.719238,0.079590,0.155925,-0.221488,-0.032191,0.999217,-0.017039,0.008319,-0.034717,0.438544,-0.517287,-0.232935,-0.697019
43216,NaN,16.033993,-18.695675,-4.213370,-19.725457,0.954128,5.487682,-3.672257,1.754863,-6.400059,-0.537598,0.679199,0.094482,0.153877,-0.192698,-0.039999,0.999281,-0.018357,0.008772,-0.031993,0.408479,-0.511395,-0.232669,-0.719365
43217,NaN,15.318155,-16.939402,-3.946187,-18.553681,1.739143,3.960527,-3.712670,1.763158,-5.876130,-0.576660,0.647461,0.111084,0.147767,-0.174498,-0.037573,0.999357,-0.018559,0.008814,-0.029374,0.379914,-0.506145,-0.230825,-0.739055
43218,NaN,14.434150,-15.762709,-3.785275,-17.734413,2.612935,2.420373,-3.897736,1.799852,-5.376533,-0.603271,0.617676,0.121826,0.139693,-0.162138,-0.035993,0.999408,-0.019485,0.008997,-0.026877,0.352042,-0.500391,-0.226468,-0.757884
43219,NaN,13.570748,-14.384311,-3.900669,-16.769455,2.952951,0.968673,-4.042774,1.819223,-4.918158,-0.625488,0.585938,0.140625,0.131759,-0.147881,-0.037255,0.999452,-0.020210,0.009094,-0.024586,0.325764,-0.495456,-0.220359,-0.774495
43220,NaN,13.002390,-13.122161,-3.845550,-15.808910,3.238347,-0.038033,-4.083002,1.769479,-4.476909,-0.654053,0.556152,0.147217,0.126701,-0.134846,-0.036858,0.999502,-0.020412,0.008846,-0.022381,0.300106,-0.490072,-0.212642,-0.790284
43221,NaN,12.602015,-12.093217,-3.484956,-14.806986,3.659355,-0.620650,-4.100321,1.660221,-4.166085,-0.672119,0.526611,0.159912,0.123174,-0.124212,-0.033356,0.999538,-0.020498,0.008300,-0.020827,0.276094,-0.485750,-0.204279,-0.803797
43222,NaN,12.289743,-11.329302,-3.111000,-13.977643,4.149036,-1.070515,-4.049477,1.619047,-3.819504,-0.694580,0.501221,0.172607,0.120452,-0.116221,-0.029758,0.999580,-0.020245,0.008094,-0.019095,0.252451,-0.480725,-0.194956,-0.816801
43223,NaN,11.716153,-10.455182,-3.248663,-13.290526,4.169165,-1.871043,-3.978279,1.557974,-3.494421,-0.712646,0.471436,0.181152,0.115057,-0.107205,-0.031273,0.999619,-0.019889,0.007789,-0.017470,0.231079,-0.476544,-0.185294,-0.827753
43224,NaN,11.321977,-9.425150,-3.451486,-12.652911,3.914792,-2.499864,-3.877359,1.440185,-3.202749,-0.735107,0.448242,0.185547,0.111441,-0.096701,-0.033463,0.999658,-0.019385,0.007200,-0.016012,0.209844,-0.471929,-0.175147,-0.838196
43225,NaN,10.734182,-8.499796,-3.446787,-11.846251,3.765133,-3.118406,-3.754405,1.308463,-2.925992,-0.753174,0.422852,0.196045,0.105855,-0.087189,-0.033541,0.999695,-0.018770,0.006542,-0.014628,0.191005,-0.468475,-0.165100,-0.846634
43226,NaN,10.169196,-7.774988,-3.442073,-11.165594,3.719200,-3.714514,-3.609361,1.174072,-2.655665,-0.765137,0.399414,0.200439,0.100443,-0.079700,-0.033586,0.999732,-0.018045,0.005870,-0.013277,0.172230,-0.464631,-0.154872,-0.854675
43227,NaN,9.516516,-7.387439,-3.248309,-10.445819,3.952192,-4.250326,-3.302572,1.006637,-2.416412,-0.779053,0.376221,0.200928,0.094098,-0.075544,-0.031720,0.999778,-0.016512,0.005033,-0.012081,0.156321,-0.462066,-0.145651,-0.860723
43228,NaN,9.062295,-7.087874,-2.980548,-9.806420,4.213037,-4.585830,-2.853352,0.833320,-2.266371,-0.793213,0.352783,0.209473,0.089686,-0.072318,-0.029156,0.999825,-0.014266,0.004166,-0.011331,0.140557,-0.458974,-0.137927,-0.866350
43229,NaN,8.867096,-7.049663,-2.550873,-9.279549,4.643164,-4.601878,-2.281968,0.684341,-2.180072,-0.805176,0.331543,0.209717,0.087807,-0.071744,-0.024996,0.999870,-0.011409,0.003422,-0.010900,0.127817,-0.456976,-0.132684,-0.870190
43230,NaN,8.742393,-7.146941,-2.010523,-8.756193,5.200019,-4.537011,-1.731363,0.555008,-2.085114,-0.812988,0.312500,0.212158,0.086616,-0.072547,-0.019721,0.999904,-0.008657,0.002775,-0.010425,0.115147,-0.454236,-0.129543,-0.873859
43231,NaN,8.752504,-7.172466,-1.632151,-8.414975,5.544487,-4.413032,-1.183250,0.458573,-1.975410,-0.818848,0.295654,0.210205,0.086773,-0.072680,-0.016093,0.999931,-0.005916,0.002293,-0.009877,0.105759,-0.452571,-0.128660,-0.876037
43232,NaN,8.704648,-6.991876,-1.233185,-7.977001,5.696178,-4.326787,-0.769218,0.363652,-1.828281,-0.828857,0.278564,0.206543,0.086380,-0.070758,-0.012218,0.999949,-0.003846,0.001818,-0.009141,0.096240,-0.450181,-0.129225,-0.878280
43233,NaN,8.462461,-6.542733,-0.900613,-7.418381,5.518946,-4.359454,-0.544503,0.303869,-1.662954,-0.834473,0.261719,0.206787,0.084063,-0.066152,-0.008955,0.999961,-0.002722,0.001519,-0.008315,0.089681,-0.448995,-0.130416,-0.879405
43234,NaN,8.092248,-5.922558,-0.688687,-6.843101,5.145703,-4.547030,-0.418260,0.235979,-1.511306,-0.836182,0.249023,0.207031,0.080464,-0.059849,-0.006857,0.999969,-0.002091,0.001180,-0.007556,0.082250,-0.447141,-0.131856,-0.880860
43235,NaN,7.679558,-5.341570,-0.366521,-6.177475,4.792126,-4.663396,-0.411632,0.140369,-1.384674,-0.840088,0.236328,0.209229,0.076421,-0.053953,-0.003608,0.999974,-0.002058,0.000702,-0.006923,0.077153,-0.446723,-0.132994,-0.881362
43236,NaN,7.285413,-4.938661,-0.123906,-5.628541,4.590925,-4.840283,-0.523377,0.031893,-1.273488,-0.845947,0.223633,0.215576,0.072538,-0.049852,-0.001121,0.999976,-0.002617,0.000159,-0.006367,0.070394,-0.445923,-0.133512,-0.882254
43237,NaN,6.954466,-4.702571,0.206708,-5.086909,4.534500,-4.905314,-0.601821,-0.031444,-1.168100,-0.847656,0.212891,0.211670,0.069268,-0.047424,0.002220,0.999978,-0.003009,-0.000157,-0.005840,0.065690,-0.446401,-0.133332,-0.882402
43238,NaN,6.640190,-4.795776,0.523138,-4.639963,4.795337,-5.033560,-0.618234,-0.058367,-1.066304,-0.849609,0.204346,0.211670,0.066143,-0.048294,0.005400,0.999981,-0.003091,-0.000292,-0.005331,0.059567,-0.446138,-0.132996,-0.883020
43239,NaN,6.424102,-5.064031,0.768477,-4.342136,5.169707,-5.130440,-0.599638,-0.077460,-0.982103,-0.849121,0.189453,0.214111,0.063988,-0.050932,0.007862,0.999983,-0.002998,-0.000387,-0.004910,0.055601,-0.446862,-0.132373,-0.883007
43240,NaN,6.192410,-5.334279,0.890438,-4.123449,5.519414,-5.326475,-0.589373,-0.074622,-0.878548,-0.853027,0.181152,0.216309,0.061686,-0.053588,0.009085,0.999986,-0.002947,-0.000373,-0.004393,0.050358,-0.446763,-0.131748,-0.883464
43241,NaN,5.859681,-5.418080,0.831905,-3.948250,5.607384,-5.647149,-0.562366,-0.080779,-0.750167,-0.854980,0.178955,0.220215,0.058390,-0.054376,0.008495,0.999989,-0.002812,-0.000404,-0.003751,0.047447,-0.447569,-0.130713,-0.883371
43242,NaN,5.690009,-5.286691,0.767940,-3.828377,5.500323,-5.812096,-0.493550,-0.146273,-0.624348,-0.858887,0.170410,0.222412,0.056729,-0.053025,0.007852,0.999992,-0.002468,-0.000731,-0.003122,0.043491,-0.447917,-0.129959,-0.883510
43243,NaN,5.697120,-5.211131,1.180048,-3.461460,5.557535,-5.553879,-0.356886,-0.249346,-0.532201,-0.854736,0.166260,0.220459,0.056817,-0.052241,0.011965,0.999994,-0.001784,-0.001247,-0.002661,0.041849,-0.449498,-0.129327,-0.882879
43244,NaN,5.936440,-5.374702,1.672523,-3.211260,5.887137,-5.127038,-0.206881,-0.310720,-0.457164,-0.854492,0.161865,0.228760,0.059215,-0.053865,0.016873,0.999996,-0.001034,-0.001554,-0.002286,0.039168,-0.450612,-0.129501,-0.882408
43245,NaN,6.190884,-5.751255,2.062267,-3.096632,6.374673,-4.769753,-0.068178,-0.341943,-0.351081,-0.858643,0.161865,0.230957,0.061772,-0.057614,0.020748,0.999997,-0.000341,-0.001710,-0.001755,0.038874,-0.452595,-0.129705,-0.881376
43246,NaN,6.421544,-6.018383,2.352332,-3.023932,6.742112,-4.484434,0.013066,-0.337836,-0.244736,-0.854492,0.159912,0.224854,0.064102,-0.060264,0.023628,0.999998,0.000065,-0.001689,-0.001224,0.037609,-0.453918,-0.130377,-0.880651
43247,NaN,6.737073,-6.128819,2.568140,-3.038190,6.920407,-4.118549,0.047862,-0.351650,-0.142901,-0.860596,0.157715,0.237061,0.067282,-0.061342,0.025785,0.999998,0.000239,-0.001758,-0.000715,0.038477,-0.455996,-0.130562,-0.879512
43248,NaN,7.110582,-6.130976,2.695317,-3.130998,6.987355,-3.747405,0.071164,-0.366103,-0.031117,-0.862793,0.157715,0.245117,0.071047,-0.061330,0.027061,0.999998,0.000356,-0.001831,-0.000156,0.038266,-0.457567,-0.131011,-0.878638
43249,NaN,7.491184,-5.994601,2.814470,-3.212820,6.891528,-3.319698,0.073544,-0.358874,0.082460,-0.854248,0.157715,0.243164,0.074886,-0.059926,0.028257,0.999998,0.000368,-0.001794,0.000412,0.040182,-0.459765,-0.130734,-0.877445
43250,NaN,7.905924,-5.826706,2.779655,-3.425820,6.739785,-2.955602,0.066359,-0.334762,0.162279,-0.854248,0.155518,0.241211,0.079060,-0.058212,0.027910,0.999998,0.000332,-0.001674,0.000811,0.040831,-0.461321,-0.130715,-0.876601
43251,NaN,8.317240,-5.782886,2.869484,-3.563361,6.710056,-2.523672,0.058973,-0.322020,0.214386,-0.854492,0.161865,0.251221,0.083188,-0.057748,0.028812,0.999998,0.000295,-0.001610,0.001072,0.043321,-0.463400,-0.130010,-0.875489
43252,NaN,8.676686,-5.750117,2.754702,-3.831551,6.651732,-2.262146,0.014630,-0.316354,0.271544,-0.856445,0.159668,0.245117,0.086801,-0.057385,0.027680,0.999998,0.000073,-0.001582,0.001358,0.044341,-0.464954,-0.129508,-0.874688
43253,NaN,8.993212,-5.716654,2.576296,-4.127996,6.538575,-2.040825,0.015623,-0.281441,0.348545,-0.850342,0.166016,0.253418,0.089995,-0.057012,0.025885,0.999997,0.000078,-0.001407,0.001743,0.047356,-0.466917,-0.128246,-0.873670
43254,NaN,9.183565,-5.786966,2.556451,-4.248114,6.581920,-1.875813,0.061654,-0.265712,0.417277,-0.852539,0.166016,0.251221,0.091922,-0.057686,0.025669,0.999997,0.000308,-0.001329,0.002086,0.049156,-0.468325,-0.127599,-0.872911
43255,NaN,9.548132,-5.925210,2.706797,-4.344956,6.704025,-1.459315,0.071853,-0.277355,0.495429,-0.852783,0.176758,0.249023,0.095590,-0.059025,0.027179,0.999996,0.000359,-0.001387,0.002477,0.052963,-0.470323,-0.126197,-0.871817
43256,NaN,10.112226,-6.255423,2.805164,-4.630988,7.020778,-0.951615,0.017769,-0.253150,0.570310,-0.846436,0.172363,0.253174,0.101264,-0.062268,0.028174,0.999995,0.000089,-0.001266,0.002852,0.055334,-0.471776,-0.124995,-0.871058
43257,NaN,10.848705,-6.440708,2.617119,-5.209908,7.072103,-0.385706,-0.055496,-0.234295,0.679297,-0.848877,0.183105,0.252930,0.108674,-0.064031,0.026316,0.999994,-0.000277,-0.001171,0.003396,0.059701,-0.473710,-0.122545,-0.870068
43258,NaN,11.826645,-6.584645,2.392549,-5.935414,7.087320,0.360368,-0.105684,-0.206014,0.804958,-0.847168,0.193604,0.256836,0.118505,-0.065357,0.024082,0.999991,-0.000528,-0.001030,0.004025,0.062829,-0.475123,-0.120235,-0.869399
43259,NaN,12.876574,-6.575853,2.102915,-6.710135,6.864335,1.202015,-0.167592,-0.192292,0.915872,-0.845215,0.202148,0.262939,0.129045,-0.065150,0.021208,0.999989,-0.000838,-0.000961,0.004579,0.068035,-0.477037,-0.116673,-0.868444
43260,NaN,13.892547,-6.557818,1.618237,-7.616017,6.589282,1.900633,-0.232615,-0.160317,1.044350,-0.845459,0.206299,0.260742,0.139252,-0.064833,0.016370,0.999985,-0.001163,-0.000802,0.005222,0.071924,-0.478411,-0.113220,-0.867831
43261,NaN,14.760238,-6.520164,1.023930,-8.513663,6.178181,2.466157,-0.256013,-0.162917,1.178090,-0.843750,0.221191,0.264648,0.147975,-0.064317,0.010442,0.999982,-0.001280,-0.000815,0.005890,0.078126,-0.480374,-0.108595,-0.866801
43262,NaN,15.419109,-6.559765,0.516481,-9.247350,5.885530,2.871512,-0.239514,-0.161618,1.331793,-0.839844,0.233887,0.266602,0.154619,-0.064563,0.005367,0.999977,-0.001198,-0.000808,0.006659,0.083237,-0.481876,-0.104414,-0.866005
43263,NaN,15.655800,-6.513390,-0.164949,-9.866877,5.386015,2.883205,-0.182781,-0.181079,1.487960,-0.831787,0.244629,0.260254,0.157038,-0.063968,-0.001449,0.999971,-0.000914,-0.000905,0.007440,0.090996,-0.484051,-0.099332,-0.864608
43264,NaN,15.523598,-6.441821,-0.781887,-10.244726,4.932901,2.588763,-0.037505,-0.229792,1.652778,-0.826172,0.267822,0.270020,0.155770,-0.063134,-0.007628,0.999965,-0.000188,-0.001149,0.008264,0.097937,-0.485862,-0.095266,-0.863291
43265,NaN,15.279394,-6.327874,-1.081493,-10.278329,4.444237,2.404853,0.145376,-0.316278,1.835054,-0.822754,0.286865,0.271729,0.153383,-0.061865,-0.010618,0.999956,0.000727,-0.001581,0.009175,0.107951,-0.488615,-0.090797,-0.861021
43266,NaN,14.936197,-6.188136,-1.298735,-10.197975,4.001002,2.147815,0.359911,-0.384624,2.026201,-0.812744,0.305908,0.279785,0.150003,-0.060341,-0.012809,0.999945,0.001800,-0.001923,0.010131,0.117377,-0.490966,-0.087594,-0.858780
43267,NaN,14.692149,-5.948126,-1.361736,-9.986882,3.407256,2.092577,0.569671,-0.484549,2.244919,-0.800781,0.331543,0.281250,0.147609,-0.057789,-0.013427,0.999930,0.002848,-0.002423,0.011224,0.130115,-0.494314,-0.084017,-0.855374
43268,NaN,14.573089,-5.498853,-1.404080,-9.754785,2.637719,2.122847,0.749898,-0.561717,2.477010,-0.793457,0.365234,0.291016,0.146436,-0.053126,-0.013832,0.999912,0.003749,-0.002809,0.012385,0.142318,-0.497222,-0.081455,-0.851987
43269,NaN,14.588823,-4.736550,-1.445193,-9.427311,1.463210,2.283855,0.906833,-0.613067,2.715363,-0.775391,0.390625,0.294678,0.146557,-0.045314,-0.014212,0.999893,0.004534,-0.003065,0.013576,0.157783,-0.500925,-0.078214,-0.847385
43270,NaN,14.672004,-3.875286,-1.577713,-9.147443,0.189370,2.395718,1.070797,-0.611139,2.921422,-0.757568,0.428955,0.300293,0.147312,-0.036520,-0.015527,0.999874,0.005354,-0.003056,0.014606,0.172587,-0.503745,-0.075901,-0.843026
43271,NaN,14.688291,-3.273554,-1.912859,-9.017356,-0.969669,2.346580,1.225451,-0.604293,3.097964,-0.735107,0.454346,0.312256,0.147423,-0.030339,-0.018874,0.999857,0.006127,-0.003021,0.015489,0.190311,-0.507048,-0.073027,-0.837467
43272,NaN,14.667918,-2.956624,-2.206822,-8.939229,-1.811581,2.251530,1.343979,-0.587209,3.248334,-0.714844,0.479492,0.322021,0.147196,-0.027031,-0.021824,0.999841,0.006720,-0.002936,0.016241,0.207079,-0.509329,-0.070961,-0.832266
43273,NaN,14.499756,-2.829180,-2.547491,-8.853428,-2.522756,2.018019,1.401610,-0.566459,3.351268,-0.688232,0.504883,0.332031,0.145514,-0.025679,-0.025249,0.999831,0.007008,-0.002832,0.016755,0.226061,-0.512079,-0.068143,-0.825850
43274,NaN,14.302490,-2.723424,-2.678507,-8.614862,-3.084967,1.823285,1.441100,-0.555190,3.390170,-0.673828,0.519775,0.327637,0.143531,-0.024612,-0.026571,0.999827,0.007205,-0.002776,0.016950,0.243525,-0.513805,-0.066023,-0.819964
43275,NaN,14.034246,-2.688304,-2.946318,-8.446875,-3.641502,1.511374,1.511969,-0.513398,3.361983,-0.653076,0.528076,0.331787,0.140841,-0.024296,-0.029292,0.999827,0.007559,-0.002567,0.016809,0.262523,-0.515872,-0.063571,-0.812967
43276,NaN,13.629464,-2.567434,-2.996807,-8.056898,-4.076520,1.131803,1.561786,-0.466884,3.296017,-0.634521,0.545166,0.317139,0.136760,-0.023190,-0.029837,0.999831,0.007808,-0.002334,0.016479,0.279760,-0.516677,-0.062013,-0.806804
43277,NaN,13.133529,-2.521076,-2.971044,-7.585320,-4.380942,0.719339,1.559884,-0.404512,3.231097,-0.624512,0.559814,0.308838,0.131777,-0.022853,-0.029629,0.999837,0.007799,-0.002022,0.016155,0.298017,-0.517878,-0.059951,-0.799621
43278,NaN,12.553025,-2.405320,-2.997955,-7.150520,-4.650429,0.166214,1.557059,-0.351288,3.139992,-0.616699,0.581055,0.296143,0.125937,-0.021845,-0.029934,0.999845,0.007785,-0.001756,0.015699,0.314455,-0.517820,-0.058553,-0.793443
43279,NaN,11.875674,-2.326300,-2.855145,-6.560185,-4.751958,-0.380617,1.487349,-0.300365,3.038781,-0.602539,0.598145,0.281738,0.119133,-0.021242,-0.028536,0.999856,0.007436,-0.001502,0.015193,0.331404,-0.518377,-0.056548,-0.786295
43280,NaN,11.054783,-2.119725,-2.692562,-5.911125,-4.793135,-1.093488,1.380161,-0.245539,2.946001,-0.596680,0.617188,0.269043,0.110875,-0.019380,-0.026928,0.999867,0.006901,-0.001228,0.014729,0.346454,-0.517816,-0.054731,-0.780282
43281,NaN,10.126904,-1.830300,-2.414991,-5.097244,-4.742617,-1.859487,1.206325,-0.217430,2.842274,-0.582764,0.638428,0.252441,0.101540,-0.016716,-0.024144,0.999880,0.006031,-0.001087,0.014211,0.361551,-0.518232,-0.052006,-0.773312
43282,NaN,9.299940,-1.509855,-2.188576,-4.388827,-4.699602,-2.587466,1.017315,-0.199551,2.729662,-0.568604,0.661865,0.248047,0.093215,-0.013716,-0.021865,0.999893,0.005086,-0.000998,0.013648,0.374655,-0.517817,-0.049214,-0.767514
43283,NaN,8.507060,-1.214469,-1.915954,-3.668867,-4.580541,-3.249980,0.827895,-0.199798,2.608883,-0.556396,0.676758,0.233398,0.085238,-0.010954,-0.019121,0.999906,0.004139,-0.000999,0.013044,0.387517,-0.518599,-0.045624,-0.760792
43284,NaN,7.756752,-1.119655,-1.670172,-3.160760,-4.292503,-3.830151,0.665772,-0.198678,2.497812,-0.546631,0.699951,0.227051,0.077715,-0.010171,-0.016660,0.999916,0.003329,-0.000993,0.012489,0.398671,-0.518588,-0.042054,-0.755221
43285,NaN,7.103837,-1.037128,-1.493159,-2.734500,-4.046333,-4.343074,0.509531,-0.208815,2.389909,-0.525879,0.710449,0.226807,0.071171,-0.009483,-0.014882,0.999925,0.002548,-0.001044,0.011949,0.409539,-0.519796,-0.037876,-0.748769
43286,NaN,6.592480,-0.947772,-1.273350,-2.335672,-3.826112,-4.725062,0.402952,-0.221064,2.271380,-0.515625,0.725342,0.220459,0.066041,-0.008703,-0.012679,0.999933,0.002015,-0.001105,0.011357,0.419025,-0.520191,-0.033924,-0.743416
43287,NaN,6.173404,-0.863741,-1.139779,-2.017858,-3.673494,-5.059988,0.375584,-0.235263,2.143799,-0.499268,0.738037,0.218262,0.061835,-0.007954,-0.011340,0.999940,0.001878,-0.001176,0.010719,0.428331,-0.521556,-0.029975,-0.737301
43288,NaN,5.829240,-0.643686,-1.086054,-1.709499,-3.666160,-5.429819,0.373522,-0.232342,1.997343,-0.484863,0.750732,0.212158,0.058365,-0.005834,-0.010804,0.999948,0.001868,-0.001162,0.009987,0.436616,-0.521883,-0.026632,-0.732322
43289,NaN,5.533040,-0.333698,-1.082549,-1.382191,-3.746897,-5.819300,0.407549,-0.226944,1.854554,-0.470459,0.763428,0.211914,0.055370,-0.002802,-0.010769,0.999954,0.002038,-0.001135,0.009273,0.444698,-0.522950,-0.023573,-0.726781
43290,NaN,5.163743,-0.134528,-1.066898,-1.140416,-3.688667,-6.219213,0.465385,-0.238750,1.711268,-0.462402,0.773926,0.207764,0.051659,-0.000879,-0.010610,0.999960,0.002327,-0.001194,0.008556,0.452092,-0.522962,-0.021312,-0.722267
43291,NaN,4.911715,0.027587,-0.965126,-0.867210,-3.620889,-6.466987,0.536178,-0.265196,1.557477,-0.451904,0.780273,0.205566,0.049126,0.000684,-0.009585,0.999965,0.002681,-0.001326,0.007787,0.459224,-0.523712,-0.019620,-0.717254
43292,NaN,4.708582,0.073818,-0.956601,-0.761494,-3.552162,-6.667355,0.628730,-0.292927,1.390077,-0.439453,0.788818,0.197266,0.047093,0.001095,-0.009494,0.999970,0.003144,-0.001465,0.006950,0.465817,-0.523438,-0.018899,-0.713211
43293,NaN,4.848184,0.097926,-0.785763,-0.557181,-3.597417,-6.514252,0.621643,-0.342786,1.214774,-0.429443,0.799316,0.195068,0.048488,0.001298,-0.007771,0.999975,0.003108,-0.001714,0.006074,0.471775,-0.524123,-0.018628,-0.708785
43294,NaN,5.322835,0.266680,-0.748954,-0.359880,-4.004543,-6.235202,0.591355,-0.391122,1.046972,-0.420898,0.801514,0.195068,0.053228,0.002967,-0.007377,0.999980,0.002957,-0.001956,0.005235,0.476993,-0.524200,-0.018895,-0.705220
43295,NaN,5.855254,0.514843,-0.629957,-0.034275,-4.439100,-5.908993,0.574452,-0.415169,0.854854,-0.412598,0.803467,0.190918,0.058543,0.005417,-0.006163,0.999985,0.002872,-0.002076,0.004274,0.481413,-0.525131,-0.019612,-0.701494
43296,NaN,6.253142,0.756797,-0.444562,0.327699,-4.739755,-5.653449,0.544643,-0.413748,0.663496,-0.412842,0.810059,0.186768,0.062515,0.007787,-0.004295,0.999989,0.002723,-0.002069,0.003317,0.485129,-0.525330,-0.020768,-0.698747
43297,NaN,6.603154,1.039205,-0.467710,0.572351,-5.128364,-5.538056,0.496135,-0.409458,0.436259,-0.408691,0.816406,0.186768,0.066018,0.010547,-0.004516,0.999992,0.002481,-0.002047,0.002181,0.487753,-0.526330,-0.022350,-0.696114
43298,NaN,7.137923,1.144303,-0.476860,0.695992,-5.532521,-5.187381,0.464308,-0.400890,0.204883,-0.406494,0.814209,0.184814,0.071377,0.011527,-0.004599,0.999995,0.002322,-0.002004,0.001024,0.489645,-0.526612,-0.024398,-0.694501
43299,NaN,7.765685,1.172396,-0.677753,0.630982,-6.048946,-4.797536,0.353598,-0.387406,-0.056826,-0.406494,0.814209,0.178711,0.077673,0.011714,-0.006606,0.999997,0.001768,-0.001937,-0.000284,0.490066,-0.527791,-0.026792,-0.693220
43300,NaN,8.509607,1.192519,-0.837882,0.574666,-6.609690,-4.288273,0.258870,-0.368997,-0.331489,-0.406494,0.812012,0.180664,0.085131,0.011795,-0.008206,0.999996,0.001294,-0.001845,-0.001657,0.489553,-0.528389,-0.029461,-0.693019
43301,NaN,9.312423,1.143267,-1.174850,0.331916,-7.249077,-3.750602,0.176208,-0.327873,-0.665010,-0.419189,0.810059,0.178711,0.093181,0.011133,-0.011586,0.999993,0.000881,-0.001639,-0.003325,0.487282,-0.529694,-0.032775,-0.693474
43302,NaN,10.129614,0.912951,-1.458901,-0.037099,-7.759694,-3.078021,0.135472,-0.292633,-1.039964,-0.425293,0.801514,0.178711,0.101363,0.008612,-0.014435,0.999985,0.000677,-0.001463,-0.005200,0.483984,-0.530200,-0.036704,-0.695198
43303,NaN,11.090544,0.389067,-1.662950,-0.589472,-8.116104,-2.086357,0.090896,-0.274177,-1.426285,-0.444092,0.797363,0.182861,0.110952,0.003107,-0.016476,0.999974,0.000454,-0.001371,-0.007131,0.478699,-0.531371,-0.041691,-0.697677
43304,NaN,12.043285,-0.281638,-1.700720,-1.182865,-8.255414,-0.955067,-0.046076,-0.258892,-1.796047,-0.454346,0.791016,0.180908,0.120423,-0.003902,-0.016850,0.999959,-0.000230,-0.001294,-0.008980,0.472241,-0.531988,-0.046913,-0.701267
43305,NaN,12.714522,-0.851909,-1.719845,-1.745468,-8.187257,-0.052652,-0.217794,-0.207174,-2.163615,-0.466797,0.780518,0.187012,0.127061,-0.009913,-0.017057,0.999940,-0.001089,-0.001036,-0.010818,0.463371,-0.533431,-0.052703,-0.705663
43306,NaN,13.119504,-1.153229,-1.658989,-2.117194,-8.020482,0.549893,-0.405907,-0.184095,-2.552594,-0.493652,0.763672,0.191406,0.131049,-0.013239,-0.016443,0.999916,-0.002029,-0.000920,-0.012763,0.453200,-0.534304,-0.058494,-0.711131
43307,NaN,13.448017,-1.338287,-1.578783,-2.434940,-7.782076,1.079019,-0.578907,-0.167662,-2.938852,-0.510254,0.750977,0.195557,0.134277,-0.015402,-0.015633,0.999888,-0.002894,-0.000838,-0.014694,0.440373,-0.536060,-0.065050,-0.717273
43308,NaN,13.628159,-1.569003,-1.455959,-2.796891,-7.371478,1.506717,-0.754214,-0.129312,-3.312888,-0.537109,0.729736,0.201904,0.136006,-0.017999,-0.014407,0.999855,-0.003771,-0.000647,-0.016564,0.426369,-0.537030,-0.071493,-0.724360
43309,NaN,13.961589,-1.881911,-1.304286,-3.234876,-6.885602,2.115007,-0.925808,-0.107101,-3.628898,-0.557373,0.706543,0.210449,0.139250,-0.021408,-0.012873,0.999825,-0.004629,-0.000535,-0.018143,0.409818,-0.538782,-0.078560,-0.731841
43310,NaN,14.618998,-2.292040,-1.266672,-3.891712,-6.518733,2.950715,-1.081030,-0.031457,-3.909767,-0.590576,0.683105,0.218994,0.145706,-0.025840,-0.012509,0.999794,-0.005405,-0.000157,-0.019547,0.392507,-0.539466,-0.085178,-0.740040
43312,NaN,15.567545,-2.906058,-1.981947,-11.071611,-12.321996,17.460692,-1.215521,0.165783,-4.213409,-0.639160,0.621826,0.236084,0.308456,-0.071641,-0.039336,0.999037,-0.012151,0.001657,-0.042121,0.353687,-0.539673,-0.098715,-0.757571
43313,NaN,15.854955,-3.140030,-2.635117,-6.862979,-5.620789,3.951189,-1.287786,0.345631,-4.337545,-0.670166,0.594238,0.242676,0.157771,-0.034998,-0.026407,0.999743,-0.006438,0.001728,-0.021686,0.333868,-0.538362,-0.104897,-0.766613
43314,NaN,15.797536,-3.042919,-2.431241,-7.063250,-4.936947,3.986776,-1.247748,0.432260,-4.331228,-0.684082,0.566650,0.242920,0.157212,-0.033992,-0.024448,0.999744,-0.006238,0.002161,-0.021654,0.313140,-0.537228,-0.111649,-0.775154
43315,NaN,15.547586,-3.010434,-2.000483,-7.079341,-4.072939,3.900261,-1.252084,0.525402,-4.265407,-0.708008,0.528564,0.251709,0.154732,-0.033536,-0.020209,0.999750,-0.006260,0.002627,-0.021325,0.293466,-0.534637,-0.117396,-0.783747
43316,NaN,15.030727,-3.027209,-1.459114,-6.917586,-3.022873,3.610749,-1.330581,0.593477,-4.160880,-0.719971,0.503174,0.256104,0.149589,-0.033487,-0.014820,0.999757,-0.006652,0.002967,-0.020803,0.273018,-0.532548,-0.123061,-0.791650
43317,NaN,14.350540,-3.188159,-0.760230,-6.619178,-1.823506,3.206954,-1.473133,0.647244,-4.023511,-0.739990,0.471436,0.260742,0.142800,-0.034816,-0.007816,0.999765,-0.007365,0.003236,-0.020116,0.253509,-0.529398,-0.127024,-0.799585
43318,NaN,13.677064,-3.329585,-0.089592,-6.240096,-0.687013,2.785742,-1.708361,0.698850,-3.872652,-0.749512,0.441650,0.255127,0.136088,-0.035944,-0.001073,0.999770,-0.008541,0.003494,-0.019362,0.233115,-0.527033,-0.130194,-0.806811
43319,NaN,13.066714,-3.485323,0.383916,-5.983633,0.254276,2.317653,-1.979139,0.754990,-3.695193,-0.765869,0.420410,0.261475,0.130008,-0.037222,0.003708,0.999773,-0.009895,0.003775,-0.018475,0.213437,-0.523771,-0.131031,-0.814211
43320,NaN,12.728539,-3.536333,0.598015,-5.896550,0.902739,1.988919,-2.240444,0.812284,-3.504505,-0.779785,0.397217,0.265869,0.126665,-0.037520,0.005877,0.999775,-0.011201,0.004061,-0.017521,0.193134,-0.521255,-0.130836,-0.820899
43321,NaN,12.707347,-3.600569,0.689883,-6.007635,1.385291,1.887371,-2.476672,0.880898,-3.303923,-0.793701,0.369629,0.266357,0.126487,-0.038014,0.006803,0.999777,-0.012382,0.004404,-0.016518,0.173658,-0.517755,-0.128395,-0.827821
43322,NaN,12.846122,-3.578978,0.496644,-6.335096,1.656673,1.814320,-2.653355,0.945866,-3.091187,-0.822510,0.342285,0.262695,0.127911,-0.037705,0.004852,0.999781,-0.013266,0.004729,-0.015455,0.154034,-0.514836,-0.125175,-0.833995
43323,NaN,12.991107,-3.543084,0.225345,-6.730721,1.854294,1.703381,-2.769250,1.001441,-2.885980,-0.836182,0.312500,0.259033,0.129393,-0.037271,0.002112,0.999788,-0.013845,0.005007,-0.014429,0.135471,-0.510879,-0.120252,-0.840351
43324,NaN,12.996747,-3.463840,-0.046541,-7.022558,2.040546,1.475568,-2.852448,1.028988,-2.668115,-0.847900,0.280762,0.259521,0.129487,-0.036376,-0.000622,0.999796,-0.014261,0.005145,-0.013340,0.117171,-0.507562,-0.114937,-0.845838
43325,NaN,12.787858,-3.512770,-0.211471,-7.171538,2.367249,1.090029,-2.882305,1.038449,-2.491448,-0.859619,0.255371,0.251709,0.127416,-0.036749,-0.002255,0.999805,-0.014411,0.005192,-0.012456,0.099899,-0.503330,-0.108433,-0.851423
43326,NaN,12.432412,-3.688114,-0.320444,-7.193007,2.836377,0.602549,-2.856553,1.028915,-2.338622,-0.869141,0.219238,0.256348,0.123864,-0.038378,-0.003301,0.999816,-0.014282,0.005144,-0.011692,0.083042,-0.499811,-0.102162,-0.856070
43327,NaN,11.937778,-4.049040,-0.497618,-7.226908,3.438659,-0.061122,-2.798409,0.995935,-2.230598,-0.881104,0.197998,0.252686,0.118891,-0.041888,-0.004989,0.999828,-0.013991,0.004979,-0.011152,0.067001,-0.495486,-0.095320,-0.860766
43328,NaN,11.436602,-4.532043,-0.643457,-7.188299,4.160722,-0.715466,-2.679651,0.942976,-2.140450,-0.890625,0.170410,0.250977,0.113842,-0.046626,-0.006353,0.999842,-0.013398,0.004715,-0.010702,0.051485,-0.492047,-0.089248,-0.864450
43329,NaN,11.006425,-5.020725,-0.699562,-7.075082,4.879509,-1.270669,-2.522635,0.887491,-2.049238,-0.898438,0.147217,0.247314,0.109511,-0.051418,-0.006839,0.999858,-0.012613,0.004437,-0.010246,0.036815,-0.487878,-0.083138,-0.868164
43330,NaN,10.541844,-5.344732,-0.599256,-6.731805,5.443005,-1.743787,-2.308437,0.837666,-1.945729,-0.891357,0.123779,0.243652,0.104867,-0.054537,-0.005807,0.999877,-0.011542,0.004188,-0.009728,0.023143,-0.484651,-0.078119,-0.870905
43331,NaN,10.049484,-5.469545,-0.414047,-6.268331,5.783000,-2.174604,-2.085694,0.783390,-1.834404,-0.899170,0.106934,0.235596,0.099972,-0.055656,-0.003956,0.999896,-0.010428,0.003917,-0.009172,0.010410,-0.480716,-0.073377,-0.873739
43332,NaN,9.505480,-5.354488,-0.225148,-5.732721,5.844587,-2.598194,-1.803121,0.731496,-1.734642,-0.904785,0.085693,0.236084,0.094578,-0.054386,-0.002110,0.999915,-0.009015,0.003657,-0.008673,-0.000998,-0.477824,-0.069958,-0.875665
43333,NaN,8.993283,-5.154093,-0.149423,-5.320653,5.775163,-3.044989,-1.527871,0.677901,-1.655756,-0.908447,0.066650,0.226074,0.089497,-0.052294,-0.001400,0.999931,-0.007639,0.003389,-0.008279,-0.011656,-0.474238,-0.067216,-0.877750
43334,NaN,8.458333,-4.971615,-0.136783,-4.947360,5.683844,-3.528219,-1.282157,0.607603,-1.577545,-0.907715,0.047607,0.224365,0.084184,-0.050390,-0.001302,0.999944,-0.006411,0.003038,-0.007888,-0.021020,-0.471848,-0.065605,-0.878984
43335,NaN,8.090147,-4.847067,-0.020427,-4.596501,5.656033,-3.827313,-1.022206,0.525661,-1.509698,-0.913574,0.030518,0.220703,0.080532,-0.049080,-0.000166,0.999955,-0.005111,0.002628,-0.007548,-0.029888,-0.468916,-0.064720,-0.880361
43336,NaN,7.893221,-4.826785,0.172855,-4.276233,5.733445,-3.941515,-0.781803,0.442799,-1.438109,-0.913330,0.024170,0.220703,0.078586,-0.048827,0.001744,0.999964,-0.003909,0.002214,-0.007190,-0.037379,-0.467275,-0.064870,-0.880936
43337,NaN,7.674441,-4.903133,0.178777,-4.109504,5.879555,-4.199196,-0.573603,0.383142,-1.354791,-0.912598,0.005127,0.220947,0.076413,-0.049545,0.001783,0.999971,-0.002868,0.001916,-0.006774,-0.044557,-0.465030,-0.065572,-0.881738
43338,NaN,7.461148,-4.914652,0.128706,-3.991292,5.938671,-4.461070,-0.360218,0.330015,-1.266176,-0.912598,0.000732,0.212891,0.074300,-0.049615,0.001253,0.999977,-0.001801,0.001650,-0.006331,-0.050225,-0.463961,-0.067069,-0.881884
43339,NaN,7.229212,-4.938471,0.122434,-3.837224,6.005303,-4.725828,-0.133158,0.278892,-1.183498,-0.911865,-0.018311,0.219482,0.072000,-0.049811,0.001157,0.999981,-0.000666,0.001394,-0.005917,-0.055653,-0.462294,-0.069288,-0.882262
43340,NaN,7.099359,-4.981746,0.242027,-3.639453,6.097461,-4.827525,0.056740,0.224698,-1.092372,-0.909668,-0.022461,0.207275,0.070723,-0.050205,0.002327,0.999984,0.000284,0.001123,-0.005462,-0.059518,-0.461802,-0.072110,-0.882041
43341,NaN,7.156431,-5.074611,0.446432,-3.484815,6.276887,-4.750916,0.234561,0.159352,-1.010239,-0.919922,-0.028809,0.207275,0.071310,-0.051112,0.004348,0.999986,0.001173,0.000797,-0.005051,-0.063369,-0.460800,-0.075517,-0.882012
43342,NaN,7.226318,-5.143501,0.693502,-3.306599,6.425928,-4.623332,0.386946,0.115135,-0.928455,-0.911133,-0.041504,0.205566,0.072027,-0.051783,0.006794,0.999987,0.001935,0.000576,-0.004642,-0.065695,-0.460895,-0.079303,-0.881460
43343,NaN,7.257763,-5.074735,0.886510,-3.164958,6.435133,-4.541494,0.492407,0.086359,-0.839834,-0.913330,-0.041504,0.209473,0.072367,-0.051073,0.008708,0.999988,0.002462,0.000432,-0.004199,-0.068222,-0.460340,-0.083428,-0.881177
43344,NaN,7.283488,-4.904559,1.098354,-3.011801,6.332981,-4.415264,0.557341,0.063011,-0.754876,-0.910889,-0.045898,0.211670,0.072652,-0.049350,0.010823,0.999989,0.002787,0.000315,-0.003774,-0.069327,-0.460731,-0.087471,-0.880494
43345,NaN,7.295941,-4.752220,1.290562,-2.870999,6.251727,-4.321535,0.576455,0.041163,-0.668215,-0.914795,-0.058594,0.209961,0.072803,-0.047803,0.012753,0.999990,0.002882,0.000206,-0.003341,-0.070917,-0.460455,-0.091554,-0.880096
43346,NaN,7.422600,-4.655299,1.377444,-2.878588,6.223646,-4.187406,0.552049,0.018354,-0.569124,-0.912598,-0.060791,0.209961,0.074094,-0.046802,0.013639,0.999992,0.002760,0.000092,-0.002846,-0.071169,-0.461065,-0.095062,-0.879385
43347,NaN,7.433265,-4.562235,1.304821,-2.953273,6.164480,-4.240692,0.483663,0.004062,-0.463220,-0.912598,-0.058594,0.213867,0.074227,-0.045826,0.012936,0.999994,0.002418,0.000020,-0.002316,-0.072083,-0.460999,-0.098250,-0.878994
43348,NaN,7.442309,-4.377693,1.275959,-2.992674,6.001102,-4.226026,0.428594,-0.004299,-0.358950,-0.918945,-0.062744,0.216064,0.074344,-0.043938,0.012667,0.999996,0.002143,-0.000021,-0.001795,-0.071652,-0.461716,-0.100666,-0.878380
43349,NaN,7.485866,-4.320492,1.290065,-3.012479,5.978754,-4.195881,0.363233,-0.019687,-0.247285,-0.912598,-0.062744,0.209961,0.074804,-0.043321,0.012829,0.999998,0.001816,-0.000098,-0.001236,-0.071904,-0.461810,-0.102817,-0.878060
43350,NaN,7.662503,-4.343480,1.404346,-3.019495,6.054679,-4.001023,0.275382,-0.049585,-0.141162,-0.910400,-0.064941,0.209961,0.076591,-0.043508,0.014003,0.999999,0.001377,-0.000248,-0.000706,-0.070853,-0.462744,-0.103993,-0.877516
43351,NaN,7.932335,-4.478501,1.462907,-3.120450,6.259376,-3.795876,0.184476,-0.072633,-0.023103,-0.914551,-0.067139,0.209961,0.079313,-0.044808,0.014617,1.000000,0.000922,-0.000363,-0.000116,-0.070560,-0.463118,-0.104822,-0.877243
43352,NaN,8.311466,-4.671487,1.612558,-3.204702,6.531406,-3.442898,0.131894,-0.080791,0.099391,-0.912598,-0.062988,0.214111,0.083131,-0.046684,0.016128,1.000000,0.000659,-0.000404,0.000497,-0.068764,-0.464235,-0.104758,-0.876803
43353,NaN,8.801924,-4.878418,1.717413,-3.389599,6.840735,-3.034984,0.089823,-0.090943,0.230448,-0.912354,-0.064941,0.208008,0.088068,-0.048690,0.017192,0.999999,0.000449,-0.000455,0.001152,-0.067587,-0.464788,-0.104577,-0.876623
43354,NaN,9.352241,-4.932484,1.753454,-3.668165,6.975032,-2.548957,0.021104,-0.102536,0.376306,-0.914795,-0.056396,0.211914,0.093606,-0.049151,0.017577,0.999998,0.000106,-0.000513,0.001882,-0.064800,-0.466084,-0.103329,-0.876293
43355,NaN,9.898476,-4.847367,1.553176,-4.142443,6.945629,-2.164991,-0.073504,-0.116483,0.528005,-0.917236,-0.050049,0.211670,0.099103,-0.048206,0.015607,0.999996,-0.000368,-0.000582,0.002640,-0.062712,-0.466845,-0.101730,-0.876227
43356,NaN,10.412145,-4.731469,1.410895,-4.547363,6.844172,-1.733801,-0.148451,-0.138089,0.693693,-0.917236,-0.048096,0.215820,0.104275,-0.046943,0.014216,0.999993,-0.000742,-0.000690,0.003468,-0.058898,-0.468387,-0.098939,-0.875988
43357,NaN,10.782046,-4.642219,1.218499,-4.912678,6.733957,-1.457693,-0.215501,-0.168827,0.858207,-0.915527,-0.033203,0.215576,0.108008,-0.045946,0.012326,0.999990,-0.001077,-0.000844,0.004291,-0.055720,-0.469486,-0.095926,-0.875943
43358,NaN,11.289329,-4.763326,1.142606,-5.250117,6.818957,-1.016075,-0.251692,-0.217781,1.032908,-0.922119,-0.028809,0.213379,0.113125,-0.047035,0.011609,0.999985,-0.001258,-0.001089,0.005165,-0.050652,-0.471494,-0.091822,-0.875612
43359,NaN,12.097696,-4.862121,1.016468,-5.792971,6.925528,-0.352035,-0.269449,-0.290514,1.204097,-0.920166,-0.020264,0.221436,0.121252,-0.047878,0.010406,0.999980,-0.001347,-0.001453,0.006020,-0.046142,-0.473244,-0.087720,-0.875338
43360,NaN,13.119980,-5.039549,0.879483,-6.452426,7.073210,0.513831,-0.220586,-0.349187,1.361275,-0.918701,-0.007568,0.225342,0.131523,-0.049491,0.009079,0.999975,-0.001103,-0.001746,0.006806,-0.039566,-0.475951,-0.082902,-0.874661
43361,NaN,14.031598,-5.208713,0.796602,-7.006236,7.187431,1.318342,-0.136511,-0.387835,1.530142,-0.916992,0.007324,0.220947,0.140693,-0.051006,0.008274,0.999969,-0.000683,-0.001939,0.007651,-0.033353,-0.478242,-0.078576,-0.874070
43362,NaN,14.629945,-5.289212,0.700567,-7.391567,7.084060,1.920870,-0.035050,-0.441438,1.721013,-0.917725,0.026367,0.222656,0.146731,-0.051629,0.007338,0.999961,-0.000175,-0.002207,0.008605,-0.024733,-0.481486,-0.073648,-0.873004
43363,NaN,14.953100,-5.254509,0.501581,-7.716943,6.818232,2.245889,0.098026,-0.486351,1.903527,-0.918213,0.043213,0.224365,0.150009,-0.051121,0.005355,0.999952,0.000490,-0.002432,0.009517,-0.016360,-0.484302,-0.069421,-0.871989
43364,NaN,14.858119,-5.038051,0.369962,-7.745043,6.260917,2.315318,0.232594,-0.529230,2.088583,-0.916748,0.064453,0.236328,0.149086,-0.048830,0.004036,0.999941,0.001163,-0.002646,0.010443,-0.005457,-0.488009,-0.064718,-0.870419
43365,NaN,14.516986,-4.724716,0.042847,-7.808404,5.586910,2.056281,0.382027,-0.588898,2.287455,-0.919678,0.090088,0.241943,0.145696,-0.045584,0.000769,0.999928,0.001910,-0.002944,0.011437,0.005246,-0.491290,-0.060769,-0.868858
43366,NaN,14.127387,-4.454322,-0.170019,-7.733620,4.904795,1.830987,0.572085,-0.661855,2.501248,-0.907715,0.109131,0.241699,0.141821,-0.042768,-0.001355,0.999912,0.002860,-0.003309,0.012506,0.018775,-0.495563,-0.056492,-0.866530
43367,NaN,13.855847,-4.113108,-0.414465,-7.739894,4.176596,1.663828,0.728390,-0.735409,2.728455,-0.902344,0.140869,0.245361,0.139117,-0.039222,-0.003779,0.999894,0.003642,-0.003677,0.013642,0.032198,-0.499402,-0.052941,-0.864152
43368,NaN,13.815267,-3.811909,-0.753984,-7.914896,3.407012,1.663003,0.898125,-0.802834,2.949812,-0.905518,0.166260,0.250977,0.138724,-0.036043,-0.007149,0.999873,0.004490,-0.004014,0.014748,0.048441,-0.504140,-0.048943,-0.860872
43369,NaN,13.946064,-3.612276,-0.953735,-8.057007,2.755719,1.845903,1.080943,-0.864727,3.162259,-0.891846,0.200195,0.252441,0.140048,-0.033861,-0.009120,0.999851,0.005404,-0.004323,0.015811,0.064564,-0.508303,-0.045818,-0.857532
43370,NaN,14.226468,-3.474710,-1.074742,-8.166325,2.078268,2.211908,1.267389,-0.906164,3.365129,-0.886719,0.238525,0.260010,0.142869,-0.032280,-0.010311,0.999828,0.006337,-0.004531,0.016825,0.083456,-0.513155,-0.042357,-0.853178
43371,NaN,14.594537,-3.274917,-1.102085,-8.209219,1.338543,2.666558,1.416042,-0.921722,3.544880,-0.875244,0.274414,0.265625,0.146544,-0.030079,-0.010566,0.999807,0.007080,-0.004608,0.017723,0.102006,-0.517151,-0.039669,-0.848868
43372,NaN,14.930526,-3.056504,-1.192174,-8.225348,0.480215,3.062405,1.542331,-0.901841,3.703096,-0.863770,0.312744,0.271240,0.149888,-0.027704,-0.011468,0.999789,0.007711,-0.004509,0.018514,0.122937,-0.521503,-0.036479,-0.843558
43373,NaN,15.125537,-2.818853,-1.314935,-8.190755,-0.376953,3.271447,1.657337,-0.850649,3.822681,-0.850342,0.353027,0.268555,0.151811,-0.025184,-0.012721,0.999774,0.008286,-0.004253,0.019112,0.143205,-0.524655,-0.034006,-0.838495
43374,NaN,15.105560,-2.605299,-1.383150,-7.964840,-1.222582,3.298843,1.716679,-0.785150,3.912977,-0.830566,0.391113,0.271973,0.151578,-0.022974,-0.013443,0.999764,0.008583,-0.003925,0.019563,0.165306,-0.527940,-0.030903,-0.832465
43375,NaN,14.893909,-2.321554,-1.569212,-7.748565,-2.071902,3.044790,1.722912,-0.712148,3.951215,-0.806152,0.424805,0.281738,0.149412,-0.020134,-0.015343,0.999761,0.008614,-0.003560,0.019755,0.186156,-0.529968,-0.028216,-0.826852
43376,NaN,14.405141,-2.089563,-1.669187,-7.322315,-2.788722,2.566186,1.656537,-0.639623,3.958105,-0.790527,0.460938,0.277100,0.144478,-0.017902,-0.016387,0.999765,0.008282,-0.003198,0.019789,0.208038,-0.532186,-0.024606,-0.820301
43377,NaN,13.800355,-1.911543,-1.777936,-6.911227,-3.335230,1.949468,1.607237,-0.585342,3.910772,-0.770508,0.494873,0.278564,0.138392,-0.016270,-0.017513,0.999772,0.008036,-0.002926,0.019552,0.228241,-0.533279,-0.021385,-0.814287
43378,NaN,13.210675,-1.870860,-1.812547,-6.470745,-3.715572,1.394754,1.489542,-0.531660,3.851398,-0.748047,0.518066,0.274170,0.132480,-0.016026,-0.017900,0.999783,0.007447,-0.002658,0.019256,0.248926,-0.534727,-0.017261,-0.807344
43379,NaN,12.573604,-1.786975,-1.918551,-6.104276,-4.048662,0.736922,1.317357,-0.489700,3.782925,-0.725586,0.545654,0.269775,0.126089,-0.015361,-0.018984,0.999796,0.006586,-0.002448,0.018913,0.267632,-0.535286,-0.013061,-0.801044
43380,NaN,11.944916,-1.717410,-1.955966,-5.674449,-4.315303,0.117901,1.131245,-0.453076,3.704665,-0.707275,0.566650,0.269531,0.119783,-0.014847,-0.019377,0.999810,0.005656,-0.002265,0.018522,0.286418,-0.536426,-0.007800,-0.793821
43381,NaN,11.245921,-1.607005,-1.863283,-5.146268,-4.458666,-0.531217,0.952096,-0.424985,3.628969,-0.688965,0.587891,0.265137,0.112764,-0.013938,-0.018463,0.999822,0.004760,-0.002125,0.018144,0.303314,-0.536799,-0.002443,-0.787300
43382,NaN,10.623311,-1.511625,-1.701707,-4.581493,-4.556436,-1.079339,0.791986,-0.401390,3.536132,-0.670898,0.615479,0.260742,0.106511,-0.013168,-0.016858,0.999834,0.003960,-0.002007,0.017680,0.320163,-0.537846,0.003762,-0.779874
43383,NaN,10.018000,-1.265431,-1.583485,-4.031162,-4.720410,-1.693217,0.672716,-0.389711,3.428403,-0.656738,0.638672,0.258301,0.100407,-0.010881,-0.015678,0.999846,0.003363,-0.001948,0.017141,0.335305,-0.538146,0.009744,-0.773224
43384,NaN,9.325753,-0.989664,-1.419463,-3.407723,-4.795764,-2.373372,0.585675,-0.377266,3.325638,-0.640625,0.659912,0.253906,0.093431,-0.008303,-0.014044,0.999856,0.002928,-0.001886,0.016627,0.350417,-0.539104,0.016190,-0.765711
43385,NaN,8.743172,-0.742775,-1.320412,-2.919733,-4.861612,-2.988388,0.537174,-0.370342,3.220862,-0.615723,0.678955,0.253662,0.087560,-0.005983,-0.013059,0.999865,0.002686,-0.001852,0.016104,0.364185,-0.539252,0.022174,-0.759003
43386,NaN,8.272502,-0.652364,-1.246849,-2.554037,-4.845297,-3.455913,0.514028,-0.369151,3.113358,-0.601807,0.702393,0.247070,0.082836,-0.005203,-0.012330,0.999874,0.002570,-0.001846,0.015566,0.377938,-0.540019,0.028291,-0.751493
43387,NaN,7.877691,-0.673191,-1.240573,-2.352771,-4.777832,-3.839248,0.487394,-0.378471,3.008610,-0.579102,0.723389,0.252930,0.078889,-0.005516,-0.012271,0.999882,0.002437,-0.001892,0.015042,0.390574,-0.540036,0.033874,-0.744758
43388,NaN,7.577673,-0.731225,-1.246445,-2.192966,-4.726748,-4.124642,0.484506,-0.391836,2.890277,-0.560791,0.746582,0.248535,0.075896,-0.006186,-0.012332,0.999891,0.002422,-0.001959,0.014451,0.403082,-0.540703,0.039407,-0.737300
43389,NaN,7.393086,-0.750183,-1.244110,-2.044945,-4.748800,-4.332580,0.512860,-0.409080,2.767076,-0.548828,0.765869,0.246338,0.074050,-0.006446,-0.012307,0.999899,0.002564,-0.002045,0.013835,0.414716,-0.540583,0.044178,-0.730636
43390,NaN,7.271031,-0.581408,-1.202482,-1.758590,-4.903441,-4.567485,0.521922,-0.426666,2.636815,-0.528076,0.778320,0.244141,0.072804,-0.004823,-0.011883,0.999907,0.002610,-0.002133,0.013184,0.426099,-0.541114,0.048769,-0.723365
43391,NaN,7.232712,-0.251561,-1.129300,-1.379038,-5.178464,-4.819741,0.549570,-0.431345,2.484177,-0.507324,0.791016,0.235840,0.072375,-0.001586,-0.011142,0.999917,0.002748,-0.002157,0.012421,0.436647,-0.540858,0.052588,-0.716970
43392,NaN,7.282018,-0.004824,-0.999629,-0.994283,-5.416012,-4.944148,0.607933,-0.426975,2.308633,-0.486816,0.805908,0.233643,0.072835,0.000823,-0.009839,0.999926,0.003040,-0.002135,0.011543,0.446810,-0.541084,0.055930,-0.710253
43393,NaN,7.347019,0.298730,-0.976516,-0.679639,-5.720097,-5.139590,0.641582,-0.414945,2.110245,-0.472412,0.820801,0.229248,0.073453,0.003793,-0.009601,0.999937,0.003208,-0.002075,0.010551,0.456135,-0.540506,0.058439,-0.704542
43394,NaN,7.486431,0.708173,-0.835865,-0.201289,-6.067607,-5.297322,0.679448,-0.364769,1.905269,-0.458008,0.831299,0.231201,0.074807,0.007823,-0.008196,0.999947,0.003397,-0.001824,0.009526,0.464813,-0.540310,0.060526,-0.698821
43395,NaN,7.659938,0.867234,-0.770153,0.055708,-6.311193,-5.320022,0.779017,-0.320673,1.660801,-0.443604,0.843994,0.218750,0.076536,0.009338,-0.007543,0.999957,0.003895,-0.001603,0.008304,0.472804,-0.539100,0.061551,-0.694290
43396,NaN,8.039314,0.838706,-0.765786,0.160683,-6.614163,-5.106714,0.820408,-0.269955,1.406017,-0.424805,0.850342,0.212646,0.080342,0.008983,-0.007513,0.999966,0.004102,-0.001350,0.007030,0.479900,-0.538288,0.061966,-0.690002
43397,NaN,8.427707,0.857085,-0.974380,0.106885,-7.038655,-5.000699,0.838918,-0.195285,1.126719,-0.418701,0.860840,0.208496,0.084236,0.009086,-0.009624,0.999975,0.004195,-0.000976,0.005634,0.486100,-0.536592,0.061643,-0.687005
43398,NaN,8.910304,0.860971,-1.046987,0.154458,-7.457003,-4.753078,0.808148,-0.126656,0.812420,-0.418945,0.865234,0.206299,0.089074,0.009014,-0.010378,0.999983,0.004041,-0.000633,0.004062,0.490921,-0.535440,0.060793,-0.684547
43399,NaN,9.486477,0.773063,-1.261089,0.016308,-7.956159,-4.438654,0.798065,-0.068679,0.458419,-0.414795,0.867188,0.196045,0.094851,0.007998,-0.012547,0.999989,0.003990,-0.000343,0.002292,0.494649,-0.533578,0.059128,-0.683463
43400,NaN,10.004047,0.618578,-1.408440,-0.126950,-8.334669,-4.071220,0.776361,-0.022235,0.088141,-0.419189,0.871582,0.189941,0.100039,0.006284,-0.014049,0.999992,0.003882,-0.000111,0.000441,0.496749,-0.532346,0.056649,-0.683110
43401,NaN,10.444109,0.367227,-1.593270,-0.396808,-8.615918,-3.700302,0.675782,0.002402,-0.292662,-0.418945,0.869385,0.183838,0.104446,0.003573,-0.015922,0.999993,0.003379,0.000012,-0.001463,0.497551,-0.530745,0.053575,-0.684020
43402,NaN,10.768123,0.028182,-1.694671,-0.688435,-8.703732,-3.286131,0.535465,0.020878,-0.675076,-0.429443,0.863037,0.181641,0.107680,-0.000036,-0.016958,0.999991,0.002677,0.000104,-0.003375,0.496273,-0.530175,0.049931,-0.685663
43403,NaN,10.898882,-0.312738,-1.683221,-0.943625,-8.580121,-2.941970,0.394025,0.046637,-1.060895,-0.435791,0.863037,0.175537,0.108966,-0.003672,-0.016865,0.999984,0.001970,0.000233,-0.005304,0.493668,-0.529301,0.045891,-0.688496
43404,NaN,10.817951,-0.620560,-1.480776,-1.068208,-8.192798,-2.647433,0.216602,0.047220,-1.449759,-0.452393,0.854736,0.171631,0.108127,-0.006973,-0.014841,0.999973,0.001083,0.000236,-0.007249,0.488751,-0.529599,0.041286,-0.692057
43405,NaN,10.846930,-0.851835,-1.160216,-1.081872,-7.847580,-2.264886,-0.027830,0.047958,-1.838645,-0.469238,0.850586,0.173584,0.108382,-0.009517,-0.011627,0.999958,-0.000139,0.000240,-0.009193,0.482292,-0.529865,0.036638,-0.696631
43406,NaN,10.890964,-0.881714,-0.888086,-1.028283,-7.596961,-1.976674,-0.232686,0.053348,-2.204232,-0.487549,0.833740,0.177979,0.108801,-0.010027,-0.008899,0.999939,-0.001163,0.000267,-0.011021,0.473405,-0.531298,0.031537,-0.701866
43407,NaN,10.993710,-1.222420,-0.538230,-1.138769,-7.160231,-1.441712,-0.358300,0.070388,-2.551371,-0.510742,0.825195,0.184082,0.109767,-0.013635,-0.005397,0.999917,-0.001791,0.000352,-0.012757,0.463456,-0.532265,0.026189,-0.707967
43408,NaN,11.596425,-1.605568,-0.272911,-1.367388,-7.017130,-0.538529,-0.509395,0.116129,-2.872405,-0.535645,0.810547,0.184326,0.115716,-0.017726,-0.002753,0.999893,-0.002547,0.000581,-0.014362,0.451250,-0.534038,0.020361,-0.714676
43409,NaN,12.380585,-2.003863,-0.409180,-1.971248,-7.118287,0.330922,-0.723960,0.222690,-3.138072,-0.560303,0.789307,0.186523,0.123466,-0.021993,-0.004152,0.999870,-0.003620,0.001113,-0.015690,0.438030,-0.535133,0.015077,-0.722174
43410,NaN,12.781645,-2.272212,-0.687022,-2.633119,-7.026405,0.802661,-0.871094,0.356723,-3.331653,-0.582764,0.766113,0.192871,0.127402,-0.024877,-0.006992,0.999850,-0.004355,0.001784,-0.016657,0.422904,-0.536603,0.009781,-0.730146
43411,NaN,12.817758,-2.564162,-0.993035,-3.341496,-6.669958,0.966175,-0.870573,0.428636,-3.491454,-0.611572,0.744873,0.199463,0.127682,-0.027917,-0.010086,0.999836,-0.004353,0.002143,-0.017456,0.407739,-0.536970,0.004505,-0.738506
43412,NaN,12.750507,-2.902551,-1.083131,-3.898801,-6.062803,1.150683,-0.803736,0.466565,-3.632511,-0.638428,0.723877,0.203613,0.126924,-0.031378,-0.011005,0.999824,-0.004018,0.002333,-0.018161,0.391370,-0.537553,-0.001684,-0.746902
43413,NaN,12.740466,-3.120799,-0.980847,-4.239634,-5.479280,1.367791,-0.727128,0.476739,-3.738907,-0.662842,0.694092,0.206055,0.126768,-0.033618,-0.009992,0.999816,-0.003635,0.002384,-0.018693,0.375393,-0.537073,-0.008076,-0.755359
43414,NaN,12.627653,-3.128417,-0.715980,-4.300245,-4.876280,1.477394,-0.725450,0.477962,-3.811375,-0.687500,0.668701,0.204346,0.125632,-0.033709,-0.007341,0.999809,-0.003627,0.002390,-0.019056,0.358264,-0.537053,-0.015065,-0.763540
43415,NaN,12.315178,-3.131412,-0.292499,-4.187034,-4.127227,1.455378,-0.754208,0.469753,-3.861197,-0.709961,0.645508,0.208740,0.122509,-0.033695,-0.003089,0.999804,-0.003771,0.002349,-0.019305,0.341471,-0.536224,-0.021700,-0.771616
43416,NaN,12.042693,-3.285322,0.219285,-4.056537,-3.231648,1.542894,-0.802814,0.454115,-3.894803,-0.729980,0.613770,0.213379,0.119762,-0.035181,0.002059,0.999800,-0.004014,0.002270,-0.019473,0.323545,-0.535985,-0.028686,-0.779241
43417,NaN,11.974819,-3.497813,0.725388,-3.982264,-2.415971,1.782251,-0.880418,0.437205,-3.902196,-0.750244,0.582031,0.213867,0.119052,-0.037274,0.007154,0.999798,-0.004402,0.002186,-0.019510,0.305987,-0.535047,-0.034990,-0.786685
43418,NaN,11.947715,-3.594259,1.058566,-3.962980,-1.752452,1.934323,-0.977855,0.438453,-3.874587,-0.772461,0.556641,0.216309,0.118775,-0.038197,0.010508,0.999798,-0.004889,0.002192,-0.019372,0.287446,-0.534685,-0.041267,-0.793589
43419,NaN,11.922113,-3.593753,1.229971,-4.017237,-1.257771,1.969785,-1.059026,0.458903,-3.825948,-0.788330,0.522705,0.218750,0.118534,-0.038145,0.012225,0.999800,-0.005295,0.002294,-0.019128,0.269479,-0.533499,-0.046615,-0.800366
43420,NaN,12.000731,-3.474220,1.305146,-4.097543,-0.923403,2.025030,-1.132277,0.472471,-3.747278,-0.808350,0.488770,0.223389,0.119360,-0.036909,0.012974,0.999806,-0.005661,0.002362,-0.018735,0.250870,-0.532785,-0.051873,-0.806544
43421,NaN,12.189967,-3.356532,1.209630,-4.357882,-0.712704,2.095670,-1.202836,0.478352,-3.668372,-0.824707,0.467529,0.227783,0.121286,-0.035721,0.012016,0.999811,-0.006014,0.002392,-0.018341,0.232956,-0.531323,-0.056175,-0.812571
43422,NaN,12.410019,-3.254263,1.140649,-4.598195,-0.462331,2.209216,-1.256619,0.483634,-3.591268,-0.840576,0.437988,0.228271,0.123518,-0.034693,0.011321,0.999816,-0.006283,0.002418,-0.017955,0.214525,-0.530322,-0.060474,-0.817973
43423,NaN,12.704601,-3.253020,1.049318,-4.932913,-0.162996,2.382115,-1.316856,0.479418,-3.520222,-0.858643,0.410400,0.226562,0.126473,-0.034691,0.010413,0.999821,-0.006584,0.002397,-0.017600,0.196750,-0.528624,-0.063887,-0.823264
43424,NaN,13.072133,-3.426424,0.896568,-5.394789,0.297075,2.605672,-1.361816,0.479900,-3.455869,-0.872559,0.382812,0.222900,0.130125,-0.036456,0.008896,0.999825,-0.006809,0.002399,-0.017278,0.178512,-0.527385,-0.067366,-0.827925
43425,NaN,13.123037,-3.758470,0.768763,-5.770721,0.982462,2.542383,-1.374499,0.480818,-3.389103,-0.884033,0.348877,0.225342,0.130587,-0.039749,0.007641,0.999830,-0.006872,0.002404,-0.016945,0.160997,-0.525401,-0.070162,-0.832533
43426,NaN,12.976516,-4.100254,0.676955,-5.996300,1.747965,2.296526,-1.383988,0.483644,-3.320202,-0.897949,0.319336,0.223877,0.129078,-0.043102,0.006750,0.999835,-0.006920,0.002418,-0.016600,0.143229,-0.523839,-0.073145,-0.836497
43427,NaN,12.690244,-4.422659,0.713910,-6.025523,2.521781,1.952961,-1.377274,0.475878,-3.242056,-0.911621,0.285400,0.224365,0.126181,-0.046227,0.007152,0.999842,-0.006886,0.002379,-0.016209,0.126221,-0.521577,-0.075513,-0.840431
43428,NaN,12.339566,-4.643170,0.725828,-5.967026,3.191076,1.525243,-1.359740,0.460250,-3.155710,-0.925293,0.251465,0.224854,0.122660,-0.048321,0.007300,0.999850,-0.006798,0.002301,-0.015778,0.109214,-0.519822,-0.078127,-0.843655
43429,NaN,11.914341,-4.788212,0.767807,-5.811482,3.754646,1.030985,-1.338602,0.444737,-3.049438,-0.928467,0.223877,0.227295,0.118413,-0.049640,0.007743,0.999859,-0.006693,0.002224,-0.015246,0.093037,-0.517423,-0.080142,-0.846874
43430,NaN,11.482965,-4.869040,0.826513,-5.581543,4.232545,0.539636,-1.285023,0.420569,-2.930890,-0.940430,0.196289,0.225830,0.114118,-0.050313,0.008344,0.999870,-0.006425,0.002103,-0.014654,0.077218,-0.515592,-0.082444,-0.849356
43431,NaN,10.967619,-4.873875,0.939589,-5.241855,4.598130,0.000443,-1.196636,0.387592,-2.798987,-0.941406,0.162354,0.220215,0.108999,-0.050211,0.009482,0.999882,-0.005983,0.001938,-0.013994,0.062405,-0.513205,-0.084407,-0.851823
43432,NaN,10.350163,-4.901422,1.016382,-4.861223,4.939832,-0.639779,-1.091483,0.360167,-2.657704,-0.951172,0.138916,0.218506,0.102857,-0.050328,0.010250,0.999895,-0.005457,0.001801,-0.013288,0.048311,-0.511435,-0.086783,-0.853562
43433,NaN,9.654331,-4.893397,1.165486,-4.373364,5.201660,-1.308536,-0.961786,0.335045,-2.506922,-0.952393,0.111328,0.221191,0.095940,-0.050083,0.011733,0.999908,-0.004809,0.001675,-0.012534,0.035300,-0.509114,-0.088988,-0.855358
43434,NaN,9.051046,-4.881353,1.279837,-3.939728,5.408933,-1.900385,-0.814923,0.304492,-2.358406,-0.953369,0.083740,0.215332,0.089946,-0.049824,0.012863,0.999921,-0.004075,0.001522,-0.011792,0.023273,-0.507466,-0.091723,-0.856460
43435,NaN,8.553579,-4.858099,1.323683,-3.622678,5.551684,-2.425647,-0.661538,0.281937,-2.208974,-0.959229,0.069092,0.217773,0.085011,-0.049478,0.013279,0.999933,-0.003308,0.001410,-0.011045,0.012270,-0.505299,-0.094444,-0.857673
43436,NaN,8.133326,-4.856016,1.248183,-3.440820,5.667504,-2.933222,-0.478330,0.257048,-2.053807,-0.960693,0.047852,0.211914,0.080845,-0.049362,0.012495,0.999944,-0.002392,0.001285,-0.010269,0.002491,-0.503819,-0.097782,-0.858253
43437,NaN,7.852214,-4.821034,1.260139,-3.259467,5.750161,-3.270770,-0.281419,0.228923,-1.901084,-0.957764,0.026611,0.212402,0.078074,-0.048936,0.012580,0.999953,-0.001407,0.001145,-0.009505,-0.006257,-0.501898,-0.101344,-0.858946
43438,NaN,7.578619,-4.785520,1.082446,-3.244945,5.778798,-3.682256,-0.094851,0.204745,-1.741010,-0.959229,0.007324,0.212646,0.075377,-0.048507,0.010770,0.999961,-0.000474,0.001024,-0.008705,-0.013644,-0.500693,-0.105472,-0.859067
43439,NaN,7.322392,-4.660655,1.110659,-3.066220,5.737182,-3.959984,0.062123,0.177228,-1.584094,-0.958984,-0.000977,0.210693,0.072861,-0.047188,0.011027,0.999968,0.000311,0.000886,-0.007920,-0.020192,-0.499096,-0.109701,-0.859338
43440,NaN,7.189208,-4.602948,1.093347,-2.994624,5.752475,-4.155198,0.198223,0.143593,-1.443572,-0.958740,-0.011719,0.208740,0.071565,-0.046558,0.010836,0.999973,0.000991,0.000718,-0.007218,-0.025499,-0.498257,-0.114273,-0.859087
43441,NaN,7.107500,-4.579485,1.241634,-2.817576,5.827027,-4.232739,0.283386,0.111558,-1.300287,-0.962402,-0.028564,0.209229,0.070782,-0.046273,0.012311,0.999978,0.001417,0.000558,-0.006501,-0.030307,-0.497072,-0.118728,-0.859014
43442,NaN,7.114065,-4.550873,1.338052,-2.728773,5.889682,-4.247140,0.337299,0.089911,-1.159604,-0.966553,-0.032959,0.207031,0.070881,-0.045943,0.013271,0.999982,0.001686,0.000450,-0.005798,-0.033987,-0.496586,-0.123122,-0.858539
43443,NaN,7.027852,-4.533572,1.505708,-2.539391,5.953750,-4.306801,0.361865,0.079576,-1.017669,-0.961914,-0.043457,0.203369,0.070052,-0.045720,0.014947,0.999985,0.001809,0.000398,-0.005088,-0.037401,-0.495684,-0.127201,-0.858323
43444,NaN,6.905326,-4.465847,1.595171,-2.394780,5.934603,-4.407424,0.340365,0.073234,-0.879954,-0.957275,-0.054199,0.211670,0.068862,-0.044989,0.015850,0.999989,0.001702,0.000366,-0.004400,-0.039801,-0.495395,-0.130853,-0.857833
43445,NaN,6.758969,-4.353863,1.671969,-2.250028,5.859950,-4.518042,0.302504,0.063286,-0.739771,-0.959473,-0.054199,0.205566,0.067433,-0.043813,0.016632,0.999992,0.001513,0.000316,-0.003699,-0.042176,-0.494707,-0.133981,-0.857633
43446,NaN,6.726696,-4.261361,1.844034,-2.080211,5.831607,-4.476682,0.254786,0.052114,-0.604812,-0.957031,-0.062744,0.207764,0.067142,-0.042840,0.018368,0.999995,0.001274,0.000261,-0.003024,-0.043552,-0.494636,-0.136528,-0.857204
43447,NaN,6.845679,-4.205676,1.943884,-2.053520,5.853876,-4.349651,0.185480,0.048635,-0.465246,-0.958984,-0.064697,0.207764,0.068363,-0.042234,0.019383,0.999997,0.000927,0.000243,-0.002326,-0.045047,-0.494161,-0.138471,-0.857089
43448,NaN,7.106263,-4.167602,2.027796,-2.111128,5.907531,-4.100947,0.106699,0.048518,-0.330453,-0.956787,-0.066895,0.205811,0.070999,-0.041804,0.020238,0.999998,0.000533,0.000243,-0.001652,-0.045558,-0.494232,-0.139658,-0.856829
43449,NaN,7.349633,-4.224957,2.123830,-2.157042,6.049464,-3.885703,0.024142,0.054994,-0.194300,-0.958740,-0.071045,0.203857,0.073461,-0.042324,0.021213,0.999999,0.000121,0.000275,-0.000972,-0.046286,-0.493878,-0.140240,-0.856898
43450,NaN,7.615334,-4.349360,2.155505,-2.271858,6.232021,-3.684309,-0.057572,0.063759,-0.052218,-0.958740,-0.071045,0.203857,0.076149,-0.043507,0.021543,1.000000,-0.000288,0.000319,-0.000261,-0.045949,-0.494021,-0.139997,-0.856874
43451,NaN,7.952219,-4.500070,2.203184,-2.412276,6.455022,-3.420814,-0.144442,0.069622,0.093979,-0.965088,-0.073242,0.199707,0.079551,-0.044947,0.022037,1.000000,-0.000722,0.000348,0.000470,-0.045847,-0.493768,-0.139148,-0.857164
43452,NaN,8.465674,-4.626512,2.248849,-2.641391,6.671969,-2.983530,-0.214606,0.078060,0.236872,-0.965332,-0.066895,0.201660,0.084720,-0.046141,0.022505,0.999999,-0.001073,0.000390,0.001184,-0.044597,-0.494000,-0.137477,-0.857365
43453,NaN,8.977000,-4.699300,2.259942,-2.897791,6.825111,-2.546479,-0.287628,0.079090,0.381845,-0.963135,-0.069092,0.205811,0.089868,-0.046789,0.022631,0.999997,-0.001438,0.000395,0.001909,-0.043610,-0.493870,-0.135304,-0.857836
43454,NaN,9.443794,-4.745428,2.172824,-3.212699,6.898041,-2.162801,-0.358399,0.080658,0.516958,-0.969727,-0.058350,0.197266,0.094569,-0.047171,0.021775,0.999995,-0.001792,0.000403,0.002585,-0.041458,-0.494237,-0.132280,-0.858203
43455,NaN,9.809200,-4.720986,2.036973,-3.514662,6.868273,-1.867198,-0.434023,0.072430,0.660016,-0.968018,-0.052002,0.195312,0.098254,-0.046841,0.020436,0.999992,-0.002170,0.000362,0.003300,-0.039644,-0.494282,-0.128787,-0.858794
43456,NaN,10.242569,-4.643759,1.941196,-3.809482,6.776953,-1.457877,-0.511173,0.050021,0.797063,-0.963867,-0.043457,0.195068,0.102614,-0.045979,0.019504,0.999989,-0.002556,0.000250,0.003985,-0.036634,-0.494915,-0.124363,-0.859215
43457,NaN,10.705681,-4.609713,1.779719,-4.177062,6.715334,-1.067193,-0.567367,0.017097,0.931715,-0.968262,-0.041260,0.192871,0.107271,-0.045547,0.017918,0.999985,-0.002837,0.000085,0.004659,-0.034017,-0.495323,-0.119607,-0.859763
43458,NaN,11.223570,-4.669398,1.718705,-4.485019,6.733483,-0.578574,-0.612007,-0.021411,1.066830,-0.972900,-0.028564,0.190674,0.112481,-0.046042,0.017341,0.999981,-0.003060,-0.000107,0.005334,-0.030091,-0.496386,-0.114025,-0.860055
43459,NaN,11.865821,-4.769969,1.676794,-4.839180,6.805860,0.016969,-0.637885,-0.078320,1.216550,-0.975342,-0.022217,0.194580,0.118939,-0.046923,0.016965,0.999976,-0.003189,-0.000392,0.006083,-0.026479,-0.497321,-0.108234,-0.860381
43460,NaN,12.648542,-4.903265,1.596390,-5.287905,6.872347,0.741060,-0.647044,-0.151849,1.376828,-0.975830,-0.009521,0.200684,0.126806,-0.048108,0.016217,0.999971,-0.003235,-0.000759,0.006884,-0.021329,-0.499076,-0.101669,-0.860309
43461,NaN,13.593330,-5.033625,1.528894,-5.800117,6.941578,1.616310,-0.626936,-0.229094,1.525840,-0.971924,0.003174,0.196289,0.136294,-0.049249,0.015600,0.999965,-0.003135,-0.001145,0.007629,-0.016438,-0.500765,-0.095122,-0.860184
43462,NaN,14.521386,-5.098105,1.394174,-6.341022,6.862923,2.495464,-0.553476,-0.301391,1.668231,-0.972656,0.028809,0.197754,0.145611,-0.049728,0.014300,0.999960,-0.002767,-0.001507,0.008341,-0.009821,-0.503261,-0.088172,-0.859568
43463,NaN,15.411153,-5.219657,1.005443,-7.082329,6.778705,3.211953,-0.435439,-0.372524,1.806345,-0.975342,0.041504,0.199707,0.154555,-0.050780,0.010454,0.999955,-0.002177,-0.001863,0.009032,-0.003309,-0.505627,-0.081718,-0.858867
43464,NaN,16.053814,-5.277148,0.561973,-7.727940,6.524670,3.736741,-0.289772,-0.451347,1.942198,-0.975830,0.056396,0.207520,0.161027,-0.051201,0.006058,0.999949,-0.001449,-0.002257,0.009711,0.005139,-0.508821,-0.075161,-0.857569
43465,NaN,16.378985,-5.295732,0.130144,-8.206335,6.202720,3.989626,-0.088344,-0.534202,2.076522,-0.974609,0.079590,0.213379,0.164324,-0.051252,0.001763,0.999942,-0.000442,-0.002671,0.010382,0.013626,-0.511878,-0.069494,-0.856134
43466,NaN,16.358425,-5.316928,-0.126032,-8.351805,5.823328,4.051190,0.175705,-0.620616,2.209757,-0.968994,0.103027,0.217041,0.164161,-0.051357,-0.000797,0.999934,0.000879,-0.003103,0.011049,0.024395,-0.515774,-0.064218,-0.853966
43467,NaN,16.115670,-5.306427,-0.275153,-8.305110,5.433497,3.950917,0.471834,-0.708955,2.360357,-0.971924,0.126465,0.218750,0.161777,-0.051152,-0.002301,0.999921,0.002359,-0.003545,0.011801,0.035469,-0.519473,-0.060213,-0.851624
43468,NaN,15.615553,-5.209288,-0.422307,-8.117364,4.905189,3.648094,0.771311,-0.786578,2.539997,-0.964355,0.153809,0.228516,0.156816,-0.050089,-0.003803,0.999904,0.003856,-0.003933,0.012700,0.049166,-0.523934,-0.056608,-0.848452
43469,NaN,15.058119,-4.873337,-0.476985,-7.800093,4.182354,3.316431,1.053187,-0.856138,2.740357,-0.965332,0.181396,0.236084,0.151249,-0.046640,-0.004373,0.999883,0.005266,-0.004281,0.013701,0.063311,-0.528035,-0.054086,-0.845131
43470,NaN,14.599275,-4.289220,-0.671326,-7.581915,3.146037,3.016411,1.299858,-0.903070,2.960950,-0.956055,0.221680,0.239502,0.146635,-0.040682,-0.006321,0.999859,0.006499,-0.004515,0.014804,0.080144,-0.532702,-0.051604,-0.840918
43471,NaN,14.384745,-3.713820,-0.850116,-7.439717,2.122694,2.897959,1.522245,-0.941922,3.181023,-0.944336,0.255615,0.243164,0.144452,-0.034781,-0.008092,0.999833,0.007611,-0.004709,0.015904,0.097325,-0.536797,-0.049886,-0.836593
43472,NaN,14.371949,-3.158944,-1.100661,-7.389259,1.027498,2.917724,1.686188,-0.953443,3.387814,-0.935303,0.300293,0.250488,0.144277,-0.029058,-0.010572,0.999810,0.008430,-0.004767,0.016938,0.116903,-0.541237,-0.047863,-0.831327
43473,NaN,14.485575,-2.695344,-1.292974,-7.327680,0.017539,3.034386,1.822776,-0.948159,3.575256,-0.919922,0.342529,0.264160,0.145365,-0.024243,-0.012471,0.999787,0.009113,-0.004740,0.017875,0.136453,-0.544866,-0.046294,-0.826050
43474,NaN,14.525716,-2.381502,-1.367960,-7.106478,-0.870940,3.119832,1.938787,-0.925437,3.746682,-0.908691,0.385010,0.263672,0.145730,-0.020958,-0.013218,0.999767,0.009693,-0.004627,0.018732,0.158064,-0.548625,-0.044286,-0.819796
43475,NaN,14.774184,-2.189977,-1.313614,-6.862664,-1.644490,3.414793,1.957450,-0.869735,3.885433,-0.884766,0.429443,0.269043,0.148184,-0.018898,-0.012687,0.999754,0.009786,-0.004348,0.019426,0.179136,-0.551381,-0.042314,-0.813694
43476,NaN,15.002081,-1.973480,-1.307445,-6.582022,-2.500715,3.643034,1.937993,-0.798429,3.977781,-0.864746,0.463379,0.270508,0.150423,-0.016622,-0.012646,0.999747,0.009689,-0.003992,0.019887,0.201486,-0.554106,-0.039521,-0.806727
43477,NaN,15.164206,-2.065236,-1.507144,-6.568790,-3.101532,3.740397,1.907242,-0.719909,4.027447,-0.836426,0.503662,0.276123,0.152068,-0.017451,-0.014701,0.999745,0.009535,-0.003599,0.020136,0.222828,-0.555757,-0.036758,-0.800082
43478,NaN,14.969128,-2.044469,-1.654378,-6.323956,-3.712279,3.498354,1.800381,-0.624664,4.028025,-0.814209,0.539551,0.277588,0.150112,-0.017277,-0.016240,0.999752,0.009001,-0.003123,0.020138,0.244727,-0.557360,-0.033056,-0.792695
43479,NaN,14.426285,-1.969574,-1.861608,-6.047074,-4.215443,2.879586,1.700537,-0.539736,3.996642,-0.796143,0.567139,0.269043,0.144666,-0.016650,-0.018376,0.999761,0.008502,-0.002698,0.019982,0.265166,-0.557959,-0.029297,-0.785818
43480,NaN,13.711373,-1.922014,-1.983159,-5.656013,-4.570480,2.133911,1.575191,-0.470056,3.932972,-0.775879,0.592529,0.266602,0.137501,-0.016363,-0.019645,0.999773,0.007875,-0.002350,0.019663,0.285737,-0.558680,-0.024753,-0.778215
43481,NaN,12.888300,-1.934862,-2.056756,-5.283187,-4.724707,1.314925,1.419874,-0.420179,3.840859,-0.751709,0.630615,0.260010,0.129264,-0.016723,-0.020421,0.999788,0.007099,-0.002101,0.019203,0.304543,-0.558658,-0.020131,-0.771200
43482,NaN,12.113930,-1.967961,-2.050809,-4.871675,-4.801414,0.580559,1.249309,-0.373497,3.733387,-0.733643,0.656006,0.251465,0.121515,-0.017286,-0.020394,0.999805,0.006246,-0.001867,0.018666,0.323077,-0.558985,-0.014728,-0.763505
43483,NaN,11.332565,-1.974521,-1.930879,-4.409533,-4.768162,-0.124617,1.075854,-0.332526,3.618894,-0.715576,0.685791,0.240723,0.113689,-0.017587,-0.019218,0.999820,0.005379,-0.001663,0.018093,0.339824,-0.558697,-0.009243,-0.756499
43484,NaN,10.608079,-1.928546,-1.892983,-4.009762,-4.783334,-0.820337,0.899179,-0.306197,3.522006,-0.691162,0.713379,0.238281,0.106426,-0.017328,-0.018848,0.999834,0.004496,-0.001531,0.017609,0.356223,-0.558930,-0.002990,-0.748794
43485,NaN,9.895557,-1.720638,-1.813049,-3.540920,-4.836138,-1.552374,0.749839,-0.288573,3.416317,-0.674805,0.736572,0.229980,0.099256,-0.015445,-0.018048,0.999846,0.003749,-0.001443,0.017081,0.371058,-0.558655,0.003248,-0.741761
43486,NaN,9.311777,-1.477398,-1.638820,-2.995090,-4.894849,-2.155096,0.627575,-0.276273,3.326280,-0.648438,0.764160,0.225342,0.093368,-0.013171,-0.016302,0.999856,0.003138,-0.001381,0.016631,0.385624,-0.558919,0.010009,-0.734033
43487,NaN,8.799240,-1.160693,-1.495181,-2.480022,-4.997174,-2.750120,0.523678,-0.268080,3.229569,-0.625977,0.793701,0.216797,0.088184,-0.010145,-0.014862,0.999865,0.002618,-0.001340,0.016147,0.398910,-0.558671,0.016605,-0.726968
43488,NaN,8.319609,-0.902774,-1.396692,-2.041223,-5.053987,-3.311440,0.456335,-0.270152,3.133840,-0.594971,0.814941,0.218750,0.083342,-0.007691,-0.013873,0.999874,0.002282,-0.001351,0.015669,0.411963,-0.558949,0.023443,-0.719245
43489,NaN,7.818532,-0.790201,-1.280886,-1.705546,-4.947658,-3.812577,0.423632,-0.275094,3.034331,-0.572266,0.833984,0.212402,0.078310,-0.006688,-0.012716,0.999882,0.002118,-0.001375,0.015171,0.424051,-0.558659,0.029841,-0.712173
43490,NaN,7.417190,-0.721232,-1.121967,-1.369494,-4.827076,-4.190113,0.409000,-0.282753,2.927445,-0.545654,0.861328,0.209961,0.074282,-0.006103,-0.011128,0.999890,0.002045,-0.001414,0.014637,0.435923,-0.558831,0.036215,-0.704533
43491,NaN,7.044047,-0.593592,-1.091140,-1.135906,-4.785632,-4.619854,0.409909,-0.293071,2.804822,-0.522705,0.871826,0.205811,0.070530,-0.004925,-0.010819,0.999898,0.002049,-0.001465,0.014024,0.446966,-0.558420,0.041976,-0.697586
43492,NaN,6.711325,-0.320112,-1.095145,-0.851878,-4.846584,-5.108886,0.435575,-0.303215,2.676363,-0.502441,0.893066,0.201416,0.067164,-0.002279,-0.010855,0.999907,0.002178,-0.001516,0.013381,0.457755,-0.558412,0.047476,-0.690204
43493,NaN,6.371724,0.125561,-1.099948,-0.494423,-4.969383,-5.703798,0.468518,-0.312136,2.517687,-0.477539,0.907959,0.199219,0.063712,0.002083,-0.010896,0.999917,0.002343,-0.001561,0.012588,0.467796,-0.557788,0.052180,-0.683605
43494,NaN,6.112955,0.452070,-1.063574,-0.174220,-5.029800,-6.155824,0.558170,-0.324352,2.331468,-0.454346,0.916260,0.197021,0.061088,0.005262,-0.010523,0.999927,0.002791,-0.001622,0.011657,0.477503,-0.557452,0.056214,-0.676815
43495,NaN,6.060978,0.730782,-0.945820,0.181075,-5.147932,-6.402632,0.601826,-0.333182,2.147960,-0.435791,0.931152,0.196777,0.060542,0.007986,-0.009334,0.999936,0.003009,-0.001666,0.010740,0.486521,-0.556519,0.059374,-0.670864
43496,NaN,6.056326,0.987847,-0.881198,0.485384,-5.292693,-6.621778,0.655442,-0.343197,1.936635,-0.419434,0.943848,0.186523,0.060479,0.010493,-0.008674,0.999946,0.003277,-0.001716,0.009683,0.494968,-0.555969,0.061899,-0.664886
43497,NaN,6.310149,1.138145,-0.884049,0.690393,-5.588392,-6.620987,0.743946,-0.342693,1.696808,-0.402588,0.949951,0.182373,0.063017,0.011949,-0.008689,0.999956,0.003720,-0.001713,0.008484,0.502769,-0.554732,0.063301,-0.659915
43498,NaN,6.582092,1.268529,-0.861227,0.910748,-5.865845,-6.582168,0.744582,-0.318911,1.456401,-0.385986,0.954346,0.172119,0.065740,0.013196,-0.008459,0.999965,0.003723,-0.001595,0.007282,0.509702,-0.553921,0.064220,-0.655173
43499,NaN,6.930407,1.525496,-0.890057,1.167169,-6.277165,-6.590259,0.709457,-0.294863,1.182195,-0.377686,0.960693,0.172119,0.069225,0.015696,-0.008743,0.999975,0.003547,-0.001474,0.005911,0.515630,-0.552701,0.064426,-0.651535
43500,NaN,7.278278,1.602871,-0.990191,1.260291,-6.629565,-6.498623,0.724989,-0.285162,0.871938,-0.367432,0.973389,0.157715,0.072726,0.016381,-0.009739,0.999983,0.003625,-0.001426,0.004360,0.520462,-0.551952,0.063842,-0.648377
43501,NaN,7.822326,1.493571,-1.020482,1.313051,-7.005884,-6.117538,0.738084,-0.265474,0.529377,-0.361328,0.975342,0.151367,0.078197,0.015180,-0.010045,0.999989,0.003690,-0.001327,0.002647,0.524302,-0.550732,0.062226,-0.646474
43502,NaN,8.487908,1.310724,-1.166043,1.242290,-7.490383,-5.632617,0.726094,-0.236988,0.155302,-0.361328,0.979736,0.145264,0.084883,0.013215,-0.011512,0.999992,0.003630,-0.001185,0.000777,0.526705,-0.550025,0.059749,-0.645356
43503,NaN,9.108330,1.094914,-1.228789,1.185631,-7.879921,-5.104027,0.701685,-0.206243,-0.237938,-0.372070,0.979736,0.139160,0.091109,0.010884,-0.012156,0.999993,0.003508,-0.001031,-0.001190,0.527933,-0.548925,0.056295,-0.645600
43504,NaN,9.727260,0.817969,-1.275538,1.081406,-8.216555,-4.499106,0.655757,-0.193372,-0.632783,-0.375977,0.975586,0.135010,0.097310,0.007913,-0.012635,0.999989,0.003279,-0.000967,-0.003164,0.527495,-0.548480,0.051949,-0.646699
43505,NaN,10.326432,0.482005,-1.263299,0.947255,-8.465966,-3.821636,0.534445,-0.197622,-1.032758,-0.386475,0.969238,0.133057,0.103300,0.004320,-0.012519,0.999983,0.002672,-0.000988,-0.005164,0.525672,-0.547985,0.046874,-0.648988
43506,NaN,10.919759,0.275031,-1.243687,0.864605,-8.730837,-3.188000,0.306175,-0.194178,-1.442880,-0.405273,0.962891,0.128906,0.109226,0.001981,-0.012327,0.999972,0.001531,-0.000971,-0.007214,0.521539,-0.548635,0.041385,-0.652138
43507,NaN,11.413157,0.280724,-1.115263,0.939744,-8.936201,-2.682453,0.014701,-0.177153,-1.844663,-0.419922,0.960938,0.126953,0.114161,0.001755,-0.011051,0.999957,0.000074,-0.000886,-0.009223,0.515587,-0.549549,0.035821,-0.656416
43508,NaN,11.642280,0.353769,-1.011627,0.963316,-8.958019,-2.362097,-0.277735,-0.162344,-2.247219,-0.445068,0.948242,0.137207,0.116461,0.002215,-0.010025,0.999936,-0.001389,-0.000812,-0.011236,0.507045,-0.551679,0.030055,-0.661553
43509,NaN,12.013379,0.182654,-0.808784,0.882643,-8.885674,-1.733952,-0.603925,-0.150356,-2.622885,-0.473877,0.929199,0.139404,0.120150,0.000227,-0.008000,0.999909,-0.003020,-0.000752,-0.013114,0.496688,-0.554069,0.024442,-0.667616
43510,NaN,12.328696,-0.139304,-0.965766,0.385478,-8.828734,-1.161558,-0.937623,-0.101518,-2.960319,-0.501221,0.918701,0.153809,0.123253,-0.003263,-0.009583,0.999879,-0.004688,-0.000508,-0.014801,0.483682,-0.557551,0.018980,-0.674410
43511,NaN,12.695375,-0.735962,-0.973603,-0.206719,-8.532924,-0.336757,-1.173769,-0.047818,-3.280085,-0.528076,0.901855,0.164307,0.126812,-0.009497,-0.009654,0.999848,-0.005869,-0.000239,-0.016400,0.469289,-0.560795,0.013684,-0.681975
43512,NaN,13.433698,-1.474319,-1.004081,-0.915853,-8.315473,0.847516,-1.336309,0.046266,-3.545639,-0.563232,0.876465,0.172852,0.134044,-0.017188,-0.009962,0.999821,-0.006681,0.000231,-0.017727,0.452811,-0.564437,0.008219,-0.690149
43513,NaN,14.255111,-2.193062,-1.285816,-1.857934,-8.195034,1.978578,-1.452748,0.172995,-3.787129,-0.593994,0.851074,0.187256,0.142090,-0.024717,-0.012808,0.999794,-0.007263,0.000865,-0.018934,0.435552,-0.567186,0.002944,-0.698989
43514,NaN,15.003157,-2.560287,-1.703773,-2.752977,-8.183938,2.834981,-1.500297,0.312712,-3.986605,-0.633301,0.823486,0.201904,0.149453,-0.028714,-0.017064,0.999772,-0.007501,0.001563,-0.019932,0.416645,-0.569813,-0.002670,-0.708317
43515,NaN,15.493551,-2.821559,-1.890842,-3.457216,-7.908266,3.493502,-1.449428,0.438312,-4.155171,-0.664062,0.791748,0.208496,0.154261,-0.031563,-0.019026,0.999756,-0.007247,0.002191,-0.020774,0.397713,-0.571104,-0.008450,-0.718048
43516,NaN,15.807990,-2.988213,-1.963629,-4.043100,-7.453149,3.998129,-1.385921,0.543075,-4.281049,-0.694824,0.764404,0.212891,0.157336,-0.033392,-0.019841,0.999743,-0.006929,0.002715,-0.021403,0.377640,-0.572113,-0.014893,-0.727910
43517,NaN,15.854337,-2.938192,-1.951455,-4.443917,-6.948086,4.177724,-1.378924,0.620117,-4.376830,-0.723389,0.732666,0.221680,0.157787,-0.032976,-0.019785,0.999732,-0.006894,0.003100,-0.021882,0.357720,-0.571999,-0.021208,-0.737837
43518,NaN,15.583605,-2.926365,-1.765305,-4.687471,-6.133681,4.147592,-1.412549,0.666316,-4.441498,-0.756104,0.692383,0.230225,0.155074,-0.032839,-0.017947,0.999723,-0.007062,0.003331,-0.022205,0.336566,-0.571973,-0.027818,-0.747527
43519,NaN,15.098306,-2.947884,-1.377193,-4.726614,-5.136414,3.963364,-1.560170,0.680733,-4.468602,-0.781982,0.645752,0.235107,0.150225,-0.032950,-0.014036,0.999714,-0.007800,0.003403,-0.022341,0.315410,-0.571289,-0.033601,-0.756978
43520,NaN,14.709550,-2.987401,-1.085524,-4.812101,-4.199249,3.812432,-1.798632,0.671233,-4.464598,-0.806152,0.614014,0.243652,0.146342,-0.033245,-0.011058,0.999705,-0.008992,0.003356,-0.022321,0.292681,-0.571198,-0.038827,-0.765874
43521,NaN,14.438235,-2.978202,-0.789592,-4.844372,-3.390245,3.713452,-2.063802,0.665590,-4.435741,-0.834717,0.575928,0.250488,0.143647,-0.033056,-0.008045,0.999695,-0.010318,0.003328,-0.022176,0.269851,-0.570654,-0.042594,-0.774416
43522,NaN,14.294850,-3.189495,-0.411190,-4.876958,-2.400670,3.792514,-2.312545,0.682743,-4.369891,-0.850098,0.533447,0.255127,0.142191,-0.035056,-0.004205,0.999689,-0.011562,0.003413,-0.021847,0.245690,-0.570540,-0.045548,-0.782333
43523,NaN,14.286235,-3.400018,-0.123675,-4.971717,-1.526286,3.920170,-2.565142,0.714849,-4.265820,-0.867920,0.495361,0.261963,0.142089,-0.037053,-0.001283,0.999684,-0.012824,0.003574,-0.021327,0.221781,-0.569763,-0.046777,-0.789933
43524,NaN,14.303229,-3.453903,-0.010887,-5.106418,-0.842591,3.960316,-2.756196,0.752780,-4.131721,-0.889893,0.461426,0.266357,0.142278,-0.037485,-0.000142,0.999685,-0.013780,0.003764,-0.020656,0.197044,-0.569198,-0.047203,-0.796844
43525,NaN,14.457959,-3.533107,0.124395,-5.243512,-0.204204,4.114483,-2.886057,0.798879,-3.968688,-0.909912,0.421143,0.279297,0.143846,-0.038173,0.001206,0.999691,-0.014429,0.003994,-0.019841,0.173156,-0.567766,-0.046183,-0.803447
43526,NaN,14.668308,-3.581399,0.131815,-5.461440,0.373108,4.258891,-2.960172,0.833860,-3.809253,-0.931641,0.378662,0.273926,0.145971,-0.038580,0.001266,0.999700,-0.014799,0.004169,-0.019044,0.148965,-0.566407,-0.044768,-0.809314
43527,NaN,14.699263,-3.621863,-0.055209,-5.785034,0.900659,4.147469,-2.963502,0.866897,-3.640754,-0.943115,0.338379,0.280518,0.146298,-0.038895,-0.000624,0.999715,-0.014816,0.004334,-0.018202,0.126001,-0.564150,-0.042413,-0.814899
43528,NaN,14.353637,-3.801803,-0.249363,-5.984165,1.629486,3.680068,-2.901602,0.889838,-3.477202,-0.965088,0.304443,0.279053,0.142835,-0.040542,-0.002554,0.999734,-0.014507,0.004449,-0.017384,0.103238,-0.561929,-0.040228,-0.819731
43529,NaN,13.786171,-4.016745,-0.536038,-6.165478,2.349322,2.951612,-2.796616,0.897488,-3.330481,-0.976318,0.260010,0.275635,0.137142,-0.042531,-0.005393,0.999754,-0.013982,0.004487,-0.016651,0.081895,-0.558906,-0.037634,-0.824319
43530,NaN,13.018162,-4.344839,-0.684894,-6.104918,3.196131,2.074979,-2.616281,0.897597,-3.188561,-0.985596,0.221924,0.272217,0.129435,-0.045606,-0.006844,0.999777,-0.013080,0.004488,-0.015942,0.061102,-0.556014,-0.035781,-0.828151
43531,NaN,12.144908,-4.737701,-0.783344,-5.924918,4.041158,1.100982,-2.406113,0.891013,-3.037689,-0.990723,0.183594,0.270752,0.120675,-0.049308,-0.007787,0.999802,-0.012030,0.004455,-0.015187,0.041992,-0.552427,-0.033967,-0.831810
43532,NaN,11.357688,-4.978752,-0.774016,-5.599808,4.688897,0.238623,-2.207708,0.863505,-2.870595,-1.000244,0.151855,0.269287,0.112813,-0.051495,-0.007666,0.999827,-0.011038,0.004317,-0.014352,0.023696,-0.549181,-0.032906,-0.834719
43533,NaN,10.710829,-5.095745,-0.538307,-5.091922,5.147644,-0.402945,-2.018810,0.832816,-2.683042,-1.007568,0.117920,0.261719,0.106389,-0.052442,-0.005303,0.999850,-0.010094,0.004164,-0.013415,0.007098,-0.545441,-0.031726,-0.837519
43534,NaN,10.136432,-4.969613,-0.331800,-4.601206,5.306715,-0.968759,-1.864589,0.791998,-2.508162,-1.008789,0.090332,0.253906,0.100717,-0.050992,-0.003246,0.999870,-0.009323,0.003960,-0.012540,-0.008661,-0.542192,-0.031079,-0.839635
43535,NaN,9.596536,-4.663366,-0.210245,-4.206753,5.217337,-1.508347,-1.805123,0.750501,-2.310731,-1.009766,0.060547,0.246338,0.095410,-0.047757,-0.002034,0.999885,-0.009025,0.003752,-0.011553,-0.023128,-0.538562,-0.029776,-0.841742
43536,NaN,9.062951,-4.302693,-0.014600,-3.744462,5.032854,-1.983511,-1.757095,0.700533,-2.133539,-1.015381,0.037354,0.244629,0.090163,-0.043991,-0.000079,0.999898,-0.008785,0.003503,-0.010667,-0.036929,-0.535510,-0.028524,-0.843239
43537,NaN,8.741237,-4.111395,0.088673,-3.466552,4.987262,-2.300839,-1.700783,0.648295,-1.985028,-1.014648,0.013916,0.240967,0.087002,-0.041971,0.000959,0.999909,-0.008504,0.003241,-0.009925,-0.049747,-0.532151,-0.026766,-0.844763
43538,NaN,8.411333,-4.079959,0.109118,-3.243233,5.075357,-2.662287,-1.718589,0.598923,-1.846165,-1.016113,-0.007324,0.237061,0.083735,-0.041564,0.001195,0.999916,-0.008593,0.002995,-0.009231,-0.062144,-0.529374,-0.024852,-0.845745
43539,NaN,8.156536,-4.000592,-0.100063,-3.263915,5.104064,-3.042378,-1.762456,0.545556,-1.713470,-1.013184,-0.028564,0.229248,0.081216,-0.040711,-0.000866,0.999921,-0.008812,0.002728,-0.008567,-0.073973,-0.526284,-0.022082,-0.846797
43540,NaN,7.974381,-4.093548,-0.145800,-3.140541,5.295104,-3.296077,-1.738816,0.495213,-1.580369,-1.014648,-0.049805,0.223633,0.079414,-0.041576,-0.001295,0.999928,-0.008694,0.002476,-0.007902,-0.085211,-0.523802,-0.019311,-0.847348
43541,NaN,7.739914,-4.424873,-0.099487,-2.879804,5.686329,-3.578386,-1.716487,0.453356,-1.444535,-1.007812,-0.062500,0.219727,0.077075,-0.044814,-0.000787,0.999935,-0.008582,0.002267,-0.007223,-0.095768,-0.520996,-0.015994,-0.848019
43542,NaN,7.470312,-4.662287,-0.170166,-2.701881,5.967463,-3.925472,-1.682067,0.417206,-1.310543,-1.007324,-0.079346,0.218018,0.074392,-0.047124,-0.001462,0.999941,-0.008410,0.002086,-0.006553,-0.105624,-0.518756,-0.012688,-0.848278
43543,NaN,7.171418,-4.760007,-0.147776,-2.450305,6.079356,-4.231909,-1.588046,0.373486,-1.178883,-1.008789,-0.094238,0.209961,0.071429,-0.048032,-0.001231,0.999949,-0.007940,0.001867,-0.005894,-0.114705,-0.516252,-0.009186,-0.848671
43544,NaN,6.977877,-4.756569,-0.051974,-2.196825,6.089064,-4.389145,-1.464699,0.328559,-1.057334,-1.006348,-0.104980,0.208252,0.069525,-0.047936,-0.000284,0.999958,-0.007323,0.001643,-0.005287,-0.122835,-0.514418,-0.006060,-0.848675
43545,NaN,6.844956,-4.685134,-0.013589,-2.045005,6.038648,-4.506454,-1.322005,0.283357,-0.938834,-1.010254,-0.115479,0.204346,0.068229,-0.047172,0.000078,0.999966,-0.006610,0.001417,-0.004694,-0.130197,-0.512377,-0.003017,-0.848828
43546,NaN,6.691522,-4.622417,-0.023599,-1.930415,5.987385,-4.658272,-1.152713,0.238716,-0.825523,-1.007812,-0.126221,0.198242,0.066724,-0.046500,-0.000048,0.999974,-0.005764,0.001194,-0.004128,-0.136462,-0.511057,-0.000525,-0.848645
43547,NaN,6.647009,-4.569842,0.019863,-1.827329,5.956825,-4.689864,-0.986911,0.195240,-0.720944,-1.009766,-0.132568,0.196289,0.066305,-0.045936,0.000360,0.999981,-0.004935,0.000976,-0.003605,-0.142030,-0.509563,0.001709,-0.848628
43548,NaN,6.599053,-4.508817,-0.020942,-1.804247,5.921872,-4.757667,-0.803803,0.154126,-0.619242,-1.005127,-0.138916,0.194580,0.065850,-0.045293,-0.000078,0.999987,-0.004019,0.000771,-0.003096,-0.146460,-0.508804,0.003342,-0.848326
43549,NaN,6.624293,-4.411525,0.040238,-1.745509,5.851636,-4.708200,-0.641766,0.102979,-0.531594,-1.009277,-0.147217,0.190430,0.066126,-0.044290,0.000510,0.999991,-0.003209,0.000515,-0.002658,-0.150338,-0.507921,0.004659,-0.848170
43550,NaN,6.947467,-4.365763,0.202724,-1.722043,5.882229,-4.353557,-0.492762,0.048594,-0.439402,-1.007080,-0.149414,0.192627,0.069379,-0.043805,0.002118,0.999995,-0.002464,0.000243,-0.002197,-0.153154,-0.507817,0.005545,-0.847724
43551,NaN,7.315935,-4.313504,0.457669,-1.647967,5.901816,-3.914268,-0.414376,0.007396,-0.350283,-1.004639,-0.155762,0.192627,0.073084,-0.043253,0.004664,0.999996,-0.002072,0.000037,-0.001751,-0.155680,-0.507495,0.006429,-0.847450
43552,NaN,7.644687,-4.241811,0.577633,-1.678612,5.907630,-3.563690,-0.368238,-0.022673,-0.264546,-1.006836,-0.155762,0.190674,0.076390,-0.042508,0.005863,0.999997,-0.001841,-0.000113,-0.001323,-0.157384,-0.507774,0.007320,-0.846961
43553,NaN,7.778902,-4.227714,0.742555,-1.575711,5.908705,-3.367491,-0.341423,-0.046212,-0.177508,-1.002197,-0.162109,0.194824,0.077750,-0.042333,0.007516,0.999998,-0.001707,-0.000231,-0.000888,-0.158991,-0.507726,0.008375,-0.846680
43554,NaN,8.010010,-4.136695,0.899497,-1.542368,5.852138,-3.070645,-0.366296,-0.072964,-0.084199,-1.008789,-0.157959,0.196777,0.080079,-0.041384,0.009100,0.999998,-0.001831,-0.000365,-0.000421,-0.159877,-0.508205,0.009789,-0.846210
43556,NaN,8.500658,-4.027106,1.032996,-3.278491,11.673708,4.718597,-0.477045,-0.106752,0.057630,-1.008789,-0.155762,0.188721,0.170037,-0.080344,0.021225,0.999988,-0.004770,-0.001068,0.000576,-0.161791,-0.508353,0.014312,-0.845692
43557,NaN,9.019273,-3.928359,1.093081,-1.804596,5.829913,-2.019775,-0.626482,-0.144868,0.215175,-1.010986,-0.157959,0.196777,0.090227,-0.039152,0.011119,0.999994,-0.003132,-0.000724,0.001076,-0.161991,-0.508912,0.017692,-0.845254
43558,NaN,9.308363,-3.860791,1.120571,-1.902642,5.797002,-1.714452,-0.747818,-0.178460,0.337709,-1.013184,-0.155762,0.194824,0.093138,-0.038408,0.011433,0.999991,-0.003739,-0.000892,0.001689,-0.162439,-0.509045,0.021880,-0.844990
43559,NaN,9.609934,-3.839424,1.199844,-1.944133,5.776714,-1.363957,-0.859708,-0.221753,0.463811,-1.013428,-0.149414,0.194580,0.096174,-0.038119,0.012269,0.999987,-0.004299,-0.001109,0.002319,-0.162135,-0.509699,0.026967,-0.844507
43560,NaN,9.875232,-3.897714,1.246158,-1.975936,5.819099,-1.066359,-0.978882,-0.271384,0.596215,-1.015625,-0.147217,0.196533,0.098851,-0.038621,0.012785,0.999983,-0.004894,-0.001357,0.002981,-0.162062,-0.509981,0.032863,-0.844142
43561,NaN,10.147562,-4.037069,1.324572,-1.952489,5.904025,-0.737748,-1.063022,-0.334998,0.718090,-1.013672,-0.138916,0.200684,0.101597,-0.039934,0.013629,0.999978,-0.005315,-0.001675,0.003590,-0.161145,-0.510880,0.039572,-0.843486
43562,NaN,10.485591,-4.197102,1.369798,-1.978835,6.020190,-0.363901,-1.079876,-0.407023,0.834811,-1.011719,-0.132568,0.198486,0.105001,-0.041457,0.014136,0.999975,-0.005399,-0.002035,0.004174,-0.160286,-0.511568,0.046609,-0.842873
43563,NaN,10.821779,-4.349700,1.499368,-1.929883,6.076261,0.068174,-1.063919,-0.469190,0.954879,-1.016113,-0.132568,0.204590,0.108388,-0.042898,0.015477,0.999972,-0.005320,-0.002346,0.004774,-0.158300,-0.512935,0.054055,-0.841972
43564,NaN,11.152242,-4.501760,1.611241,-1.896796,6.121977,0.490486,-1.015244,-0.540589,1.077613,-1.023193,-0.111328,0.208252,0.111718,-0.044332,0.016640,0.999969,-0.005076,-0.002703,0.005388,-0.156204,-0.514119,0.061543,-0.841127
43565,NaN,11.442733,-4.539950,1.660353,-1.933631,6.033417,0.871875,-0.928095,-0.611058,1.190596,-1.019287,-0.098633,0.218262,0.114643,-0.044639,0.017162,0.999967,-0.004640,-0.003055,0.005953,-0.152789,-0.516064,0.069152,-0.839971
43566,NaN,11.697792,-4.484743,1.657026,-2.035370,5.856020,1.199018,-0.809046,-0.696282,1.302097,-1.021729,-0.090088,0.222168,0.117207,-0.044016,0.017157,0.999965,-0.004045,-0.003481,0.006510,-0.149150,-0.517920,0.076463,-0.838848
43567,NaN,12.046098,-4.489308,1.786043,-2.041351,5.678590,1.677943,-0.662253,-0.771219,1.412615,-1.022217,-0.075195,0.228027,0.120703,-0.043981,0.018472,0.999962,-0.003311,-0.003856,0.007063,-0.144009,-0.520587,0.083663,-0.837408
43569,NaN,12.666179,-4.557797,1.910335,-4.280932,10.953532,14.703233,-0.405988,-0.872070,1.573215,-1.019043,-0.041260,0.241943,0.254366,-0.086997,0.040781,0.999830,-0.004060,-0.008720,0.015731,-0.132182,-0.525918,0.096518,-0.834639
43570,NaN,13.249542,-4.634716,1.972005,-2.271240,5.228976,3.164709,-0.111490,-0.945049,1.735533,-1.021729,-0.026367,0.251709,0.132796,-0.045184,0.020372,0.999951,-0.000557,-0.004725,0.008678,-0.124084,-0.529421,0.102391,-0.832966
43571,NaN,13.352739,-4.632214,1.940781,-2.332356,4.986095,3.348311,0.109425,-0.980831,1.861767,-1.024658,0.001221,0.267578,0.133854,-0.045088,0.020039,0.999944,0.000547,-0.004904,0.009309,-0.115519,-0.532610,0.107491,-0.831521
43572,NaN,13.162376,-4.526677,1.926672,-2.293476,4.585440,3.270037,0.338942,-0.999465,2.002477,-1.017090,0.026611,0.273438,0.131970,-0.043980,0.019850,0.999936,0.001695,-0.004997,0.010012,-0.105040,-0.536341,0.112225,-0.829886
43573,NaN,12.878764,-4.281313,1.877690,-2.302287,4.070669,3.065187,0.539105,-1.023899,2.154291,-1.024170,0.043701,0.281250,0.129141,-0.041475,0.019324,0.999925,0.002695,-0.005119,0.010771,-0.094059,-0.539642,0.116318,-0.828499
43574,NaN,12.639557,-3.927838,1.796914,-2.381796,3.440396,2.871876,0.735182,-1.047702,2.307658,-1.018799,0.075439,0.292969,0.126742,-0.037885,0.018492,0.999913,0.003676,-0.005238,0.011538,-0.081179,-0.543417,0.120233,-0.826833
43575,NaN,12.603214,-3.617899,1.667378,-2.577728,2.875988,2.827954,0.914837,-1.055331,2.464748,-1.011475,0.107178,0.302734,0.126376,-0.034701,0.017179,0.999900,0.004574,-0.005276,0.012323,-0.067848,-0.546633,0.123588,-0.825418
43576,NaN,12.770447,-3.476299,1.557455,-2.784071,2.422609,2.992187,1.074020,-1.055765,2.628987,-1.004150,0.141113,0.314453,0.128063,-0.033167,0.016069,0.999885,0.005370,-0.005279,0.013144,-0.052681,-0.550129,0.126944,-0.823692
43577,NaN,13.172810,-3.330305,1.433740,-3.102453,1.940674,3.350385,1.199611,-1.037523,2.796831,-1.000977,0.177246,0.317871,0.132101,-0.031545,0.014829,0.999871,0.005998,-0.005187,0.013984,-0.037184,-0.552890,0.129976,-0.822214
43578,NaN,13.623513,-3.147797,1.263685,-3.475933,1.361885,3.720784,1.289519,-0.998446,2.975828,-0.987305,0.208984,0.327637,0.136619,-0.029531,0.013124,0.999856,0.006447,-0.004992,0.014878,-0.020019,-0.555667,0.133330,-0.820400
43579,NaN,13.999589,-2.939370,1.198057,-3.735722,0.707727,4.028945,1.350712,-0.942160,3.162138,-0.984375,0.251465,0.328857,0.140380,-0.027259,0.012452,0.999841,0.006753,-0.004711,0.015810,-0.002650,-0.557489,0.136671,-0.818853
43580,NaN,14.429232,-2.648780,1.077627,-4.057741,-0.092926,4.325445,1.366242,-0.875228,3.337496,-0.968750,0.289551,0.336426,0.144660,-0.024151,0.011238,0.999828,0.006831,-0.004376,0.016687,0.016114,-0.559146,0.140629,-0.816896
43581,NaN,14.714853,-2.415067,0.958245,-4.316358,-0.842107,4.467217,1.368390,-0.797638,3.488839,-0.957520,0.327637,0.346191,0.147501,-0.021647,0.010016,0.999816,0.006842,-0.003988,0.017443,0.034761,-0.559757,0.144725,-0.815180
43582,NaN,14.751068,-2.225108,0.881437,-4.413642,-1.557196,4.378633,1.350199,-0.714155,3.600243,-0.935547,0.372314,0.339355,0.147848,-0.019653,0.009203,0.999809,0.006751,-0.003571,0.018000,0.054381,-0.560145,0.149401,-0.812994
43583,NaN,14.781310,-2.051599,0.852615,-4.467003,-2.255294,4.271287,1.304161,-0.624270,3.673228,-0.920166,0.412354,0.348877,0.148130,-0.017854,0.008866,0.999805,0.006520,-0.003121,0.018365,0.073435,-0.559494,0.154209,-0.811045
43584,NaN,14.862944,-2.012678,0.831246,-4.501321,-2.867936,4.227857,1.246068,-0.524761,3.714300,-0.894043,0.454834,0.346191,0.148947,-0.017415,0.008589,0.999805,0.006230,-0.002624,0.018570,0.092979,-0.558610,0.159568,-0.808609
43585,NaN,15.077747,-1.922001,0.879208,-4.531827,-3.569731,4.276293,1.164947,-0.417578,3.716793,-0.876221,0.490967,0.341553,0.151082,-0.016466,0.009006,0.999808,0.005824,-0.002088,0.018583,0.111590,-0.556703,0.165035,-0.806469
43586,NaN,15.141589,-1.817555,0.807996,-4.598111,-4.232487,4.120791,1.057537,-0.301081,3.692319,-0.849854,0.526855,0.349365,0.151705,-0.015420,0.008222,0.999814,0.005287,-0.001505,0.018460,0.130191,-0.554594,0.171079,-0.803871
43587,NaN,14.856753,-1.542711,0.675451,-4.608675,-4.870050,3.550622,0.981019,-0.182111,3.637180,-0.825684,0.560791,0.344727,0.148810,-0.012756,0.006823,0.999822,0.004905,-0.000910,0.018185,0.147677,-0.551497,0.177092,-0.801674
43588,NaN,14.331718,-1.372866,0.574571,-4.487909,-5.284053,2.817796,0.909333,-0.074026,3.555191,-0.803223,0.588135,0.336182,0.143529,-0.011205,0.005744,0.999832,0.004546,-0.000370,0.017775,0.164938,-0.548301,0.183374,-0.799084
43589,NaN,13.684086,-1.297292,0.510471,-4.313005,-5.491635,2.037170,0.810573,0.029424,3.463376,-0.782959,0.613525,0.335938,0.137039,-0.010621,0.005038,0.999842,0.004053,0.000147,0.017316,0.180959,-0.544272,0.189644,-0.796904
43590,NaN,13.100479,-1.302473,0.437294,-4.162877,-5.612024,1.352879,0.693044,0.115431,3.345252,-0.764648,0.639160,0.329346,0.131201,-0.010846,0.004257,0.999854,0.003465,0.000577,0.016725,0.196415,-0.540357,0.196249,-0.794306
43591,NaN,12.456329,-1.381694,0.341915,-4.040747,-5.571520,0.666015,0.566395,0.190777,3.209502,-0.746338,0.658203,0.320801,0.124767,-0.011825,0.003265,0.999867,0.002832,0.000954,0.016047,0.210494,-0.535842,0.202849,-0.792097
43592,NaN,11.810291,-1.523670,0.324039,-3.845530,-5.441083,0.061770,0.445265,0.250392,3.067930,-0.726074,0.683594,0.316406,0.118322,-0.013430,0.003061,0.999879,0.002226,0.001252,0.015339,0.223850,-0.531633,0.209706,-0.789481
43593,NaN,11.140011,-1.642190,0.387476,-3.583243,-5.268029,-0.520439,0.321858,0.294994,2.931121,-0.705566,0.706787,0.312012,0.111630,-0.014793,0.003686,0.999890,0.001609,0.001475,0.014655,0.235959,-0.526997,0.216551,-0.787213
43594,NaN,10.611064,-1.468347,0.499032,-3.271446,-5.375287,-1.129590,0.153313,0.319996,2.784122,-0.687256,0.729980,0.307617,0.106309,-0.013208,0.004810,0.999902,0.000767,0.001600,0.013920,0.247168,-0.522922,0.223779,-0.784464
43595,NaN,9.966923,-0.945094,0.636675,-2.850668,-5.629108,-2.014024,0.039023,0.337830,2.615903,-0.673096,0.744873,0.303467,0.099792,-0.008147,0.006197,0.999913,0.000195,0.001689,0.013079,0.257148,-0.518596,0.230879,-0.782066
43596,NaN,9.276969,-0.506821,0.734923,-2.448089,-5.728727,-2.881364,-0.070335,0.347737,2.452390,-0.652344,0.761719,0.303223,0.092835,-0.003928,0.007189,0.999923,-0.000352,0.001739,0.012262,0.266277,-0.514890,0.238058,-0.779303
43597,NaN,8.497892,-0.183770,0.814019,-2.059169,-5.626419,-3.729067,-0.182323,0.340344,2.321250,-0.642578,0.782959,0.304932,0.085006,-0.000844,0.007997,0.999931,-0.000912,0.001702,0.011606,0.274447,-0.511028,0.245196,-0.776794
43598,NaN,7.804013,-0.047941,0.952391,-1.666112,-5.407874,-4.354813,-0.281168,0.324642,2.184109,-0.619629,0.795654,0.300781,0.078054,0.000386,0.009397,0.999938,-0.001406,0.001623,0.010920,0.281870,-0.507873,0.252388,-0.773895
43599,NaN,7.178481,-0.169255,0.942465,-1.486854,-5.004323,-4.793570,-0.357772,0.290299,2.059661,-0.605225,0.808350,0.304688,0.071811,-0.000936,0.009323,0.999944,-0.001789,0.001451,0.010298,0.288568,-0.504647,0.259412,-0.771210
43600,NaN,6.771341,-0.314317,0.926621,-1.382723,-4.717340,-5.054356,-0.422447,0.254243,1.935045,-0.588623,0.814697,0.312744,0.067751,-0.002468,0.009186,0.999950,-0.002112,0.001271,0.009675,0.294635,-0.502163,0.266344,-0.768169
43601,NaN,6.371738,-0.383357,0.933680,-1.252112,-4.475070,-5.338034,-0.461116,0.217970,1.803093,-0.578125,0.820801,0.310547,0.063758,-0.003237,0.009275,0.999956,-0.002306,0.001090,0.009015,0.300118,-0.499601,0.272966,-0.765387
43602,NaN,6.057145,-0.305858,0.955478,-1.103323,-4.378894,-5.653055,-0.442614,0.190996,1.652660,-0.563721,0.831543,0.318604,0.060603,-0.002537,0.009503,0.999963,-0.002213,0.000955,0.008263,0.305032,-0.497672,0.279111,-0.762479
