// Start Time: Unknown
// Update Rate: 100.0Hz
// Filter Profile: human (46.1)
// Firmware Version: 4.4.0
PacketCounter,SampleTimeFine,Acc_X,Acc_Y,Acc_Z,FreeAcc_X,FreeAcc_Y,FreeAcc_Z,Gyr_X,Gyr_Y,Gyr_Z,Mag_X,Mag_Y,Mag_Z,VelInc_X,VelInc_Y,VelInc_Z,OriInc_q0,OriInc_q1,OriInc_q2,OriInc_q3,Quat_q0,Quat_q1,Quat_q2,Quat_q3
11098,NaN,11.385047,-0.332825,0.409316,0.000000,-0.000000,1.584392,0.188207,0.167205,1.966171,-0.981689,0.000732,-0.005615,0.113879,-0.002213,0.003996,0.999951,0.000941,0.000836,0.009831,-0.201332,-0.662943,0.207311,-0.690648
11099,NaN,13.091472,0.091028,-1.928186,0.000000,0.000000,3.420072,0.277832,0.279936,2.137995,-0.986572,0.020020,-0.010254,0.130868,0.002336,-0.019462,0.999941,0.001389,0.001400,0.010690,0.646856,-0.090569,-0.751888,-0.089658
11100,NaN,14.303501,-0.033856,-4.066334,2.864006,-1.351475,4.716144,0.480640,0.326746,2.311856,-0.985352,0.047852,-0.017090,0.142959,0.001412,-0.040895,0.999929,0.002403,0.001634,0.011559,0.670400,-0.159817,-0.710495,-0.142194
11101,NaN,14.789613,-0.637967,-3.740628,2.487938,-1.429934,5.183465,0.702589,0.271128,2.457116,-0.981934,0.071533,-0.017334,0.147908,-0.004431,-0.037625,0.999917,0.003513,0.001356,0.012285,0.673616,-0.165984,-0.708064,-0.131667
11102,NaN,15.939280,-0.740967,-2.284856,1.274593,-0.468272,6.248770,1.014544,0.298075,2.580202,-0.976318,0.097168,-0.021973,0.159435,-0.005236,-0.023116,0.999903,0.005073,0.001490,0.012901,0.676559,-0.172232,-0.706017,-0.118930
11103,NaN,17.627843,0.606834,-1.441273,1.244181,1.638798,7.763778,1.391296,0.377008,2.684418,-0.977539,0.129395,-0.026855,0.176147,0.008535,-0.014691,0.999884,0.006956,0.001885,0.013422,0.680606,-0.176758,-0.703175,-0.105249
11104,NaN,19.290674,2.795709,-2.033547,2.851516,4.077052,9.142510,1.694889,0.461948,2.806886,-0.976074,0.152832,-0.037842,0.192440,0.030834,-0.020527,0.999863,0.008474,0.002310,0.014034,0.684352,-0.181102,-0.700557,-0.089909
11105,NaN,19.458875,5.592525,-3.886029,5.865681,6.514543,8.845865,1.793374,0.451670,2.993009,-0.961914,0.182861,-0.042480,0.193632,0.059176,-0.038777,0.999845,0.008966,0.002258,0.014964,0.688798,-0.185218,-0.696999,-0.073782
11106,NaN,18.300280,7.878072,-5.053953,7.888306,8.511996,7.151474,1.622523,0.361012,3.239656,-0.960938,0.217285,-0.047363,0.181600,0.082138,-0.050211,0.999834,0.008112,0.001805,0.016197,0.690820,-0.190563,-0.694835,-0.060483
11107,NaN,17.682499,8.713240,-4.877551,8.156592,9.828276,5.973655,1.307090,0.146574,3.524628,-0.945068,0.251465,-0.049805,0.175214,0.090547,-0.048320,0.999823,0.006535,0.000733,0.017622,0.693518,-0.198215,-0.691243,-0.043897
11108,NaN,18.585175,7.642371,-5.080018,8.080281,9.265210,6.873453,1.145839,-0.025319,3.888361,-0.933594,0.292236,-0.052490,0.184322,0.080307,-0.050324,0.999795,0.005729,-0.000127,0.019440,0.692352,-0.206382,-0.690427,-0.036958
11109,NaN,20.273352,3.287776,-6.354498,8.091251,6.024039,9.170584,1.047718,-0.201565,4.323026,-0.921875,0.330811,-0.055176,0.202019,0.037581,-0.063152,0.999752,0.005238,-0.001008,0.021613,0.693364,-0.217664,-0.686687,-0.018160
11110,NaN,21.483178,-1.507740,-8.891617,8.822605,1.450307,11.700327,0.936393,-0.466357,4.906426,-0.897949,0.380127,-0.051514,0.215315,-0.009384,-0.088467,0.999685,0.004681,-0.002332,0.024530,0.688180,-0.229406,-0.688150,-0.015199
11111,NaN,23.463345,0.178762,-10.108632,10.941207,4.242477,12.878976,0.356114,-0.522184,5.031955,-0.877930,0.425049,-0.047852,0.234749,0.007873,-0.100463,0.999679,0.001780,-0.002611,0.025157,0.686953,-0.245458,-0.683981,0.003942
11112,NaN,20.837258,-3.005842,-7.652901,7.019311,1.732238,11.386820,1.033645,-0.396328,4.877034,-0.859863,0.463623,-0.052734,0.209168,-0.024569,-0.076251,0.999687,0.005168,-0.001981,0.024383,0.678163,-0.256661,-0.688625,0.004064
11113,NaN,18.725515,-4.404251,-6.278531,5.479266,1.209068,9.626860,2.121569,-0.517819,4.447596,-0.830811,0.495605,-0.065918,0.188325,-0.039197,-0.062732,0.999693,0.010607,-0.002589,0.022236,0.678804,-0.264690,-0.684419,0.027111
11114,NaN,18.417361,1.403980,-7.186933,7.866997,6.059655,7.337917,2.494458,-0.616158,3.939902,-0.814941,0.530029,-0.068359,0.184058,0.018557,-0.071089,0.999723,0.012471,-0.003081,0.019698,0.668962,-0.267975,-0.692697,0.029159
11115,NaN,17.143265,5.522050,-6.813514,8.951610,9.882474,4.078552,1.901438,-0.374298,3.423998,-0.793945,0.547119,-0.074951,0.170573,0.058788,-0.067268,0.999807,0.009507,-0.001871,0.017119,0.669584,-0.273367,-0.688950,0.047692
11116,NaN,15.103074,8.427497,-6.177932,8.997568,11.445079,1.382073,1.120354,-0.052470,2.675970,-0.777588,0.576904,-0.079590,0.149898,0.086630,-0.061259,0.999895,0.005602,-0.000262,0.013379,0.658807,-0.276966,-0.698752,0.031770
11117,NaN,12.809280,7.485257,-5.795003,8.325593,10.074259,-0.709392,0.876807,0.058051,2.281777,-0.760986,0.592041,-0.088379,0.127209,0.076560,-0.057654,0.999925,0.004384,0.000290,0.011409,0.659812,-0.282038,-0.695209,0.042267
11118,NaN,7.969517,1.113649,-1.914298,2.211988,3.528910,-2.666533,2.304794,0.376527,2.276807,-0.752686,0.604980,-0.109863,0.079524,0.012263,-0.019156,0.999867,0.011523,0.001883,0.011384,0.652276,-0.280452,-0.703965,0.017741
11119,NaN,0.785844,-13.469241,-1.371849,-3.527056,-11.469992,-3.496063,3.008615,-0.172383,1.894756,-0.738037,0.617676,-0.116455,0.009146,-0.134383,-0.015734,0.999842,0.015042,-0.000862,0.009473,0.655617,-0.277250,-0.701493,0.034748
11120,NaN,5.375287,-12.343450,-3.649597,-1.298435,-9.497671,0.320217,2.134930,-1.348906,0.916134,-0.736084,0.624268,-0.118652,0.054567,-0.122789,-0.037443,0.999910,0.010674,-0.006744,0.004581,0.642442,-0.270688,-0.716601,0.021890
11121,NaN,8.608576,4.735986,-3.864635,5.014278,6.444579,-3.119763,1.390774,-0.760590,-0.048652,-0.731445,0.613525,-0.122803,0.086243,0.047605,-0.037988,0.999969,0.006954,-0.003803,-0.000243,0.641584,-0.265954,-0.718936,0.027745
11122,NaN,4.666546,10.342969,0.574896,2.965743,10.951540,-9.220788,1.161132,-0.419114,-0.563194,-0.740234,0.615723,-0.118652,0.046943,0.103262,0.006447,0.999977,0.005806,-0.002096,-0.002816,0.630604,-0.258517,-0.731688,0.011835
11123,NaN,2.818716,11.123699,2.560809,1.439890,11.542558,-11.525795,0.161087,-0.441682,-0.958200,-0.746094,0.600586,-0.116211,0.028663,0.111080,0.025761,0.999986,0.000805,-0.002208,-0.004791,0.629244,-0.254473,-0.734299,0.009974
11124,NaN,2.579155,9.576694,2.639629,1.256843,10.149562,-10.671923,-0.555912,-0.412229,-1.277411,-0.748291,0.598389,-0.111816,0.026349,0.095673,0.026184,0.999974,-0.002780,-0.002061,-0.006387,0.620010,-0.252770,-0.742235,-0.027974
11125,NaN,1.958442,7.513658,2.060196,1.039345,7.941375,-10.435321,-1.154427,-0.314088,-1.592039,-0.758789,0.589844,-0.103271,0.020150,0.075095,0.020200,0.999950,-0.005772,-0.001570,-0.007960,0.617131,-0.250471,-0.745023,-0.036795
11126,NaN,0.365886,5.433205,1.087096,1.569058,5.240978,-10.763628,-1.261863,-0.374071,-1.996282,-0.773193,0.572754,-0.090332,0.004181,0.054359,0.010536,0.999929,-0.006309,-0.001870,-0.009981,0.608708,-0.250212,-0.748261,-0.083517
11127,NaN,0.351803,3.710492,-1.192676,2.762292,2.771747,-9.798729,-1.180509,-0.520926,-2.429736,-0.779053,0.551270,-0.079346,0.003999,0.036987,-0.012135,0.999905,-0.005902,-0.002605,-0.012148,0.604210,-0.244908,-0.752322,-0.094669
11128,NaN,1.098137,3.594839,-2.829058,4.023421,1.962541,-8.366616,-1.271252,-0.614796,-2.883975,-0.791504,0.536377,-0.066162,0.011584,0.035604,-0.028483,0.999871,-0.006356,-0.003074,-0.014419,0.593883,-0.234313,-0.758216,-0.132323
11129,NaN,2.359928,3.416930,-3.130063,3.910567,1.839678,-6.920958,-1.553241,-0.621093,-3.302805,-0.807617,0.508301,-0.048828,0.024254,0.033528,-0.031488,0.999829,-0.007766,-0.003105,-0.016513,0.587422,-0.226775,-0.762772,-0.147268
11130,NaN,3.505278,2.683728,-2.184629,2.431730,1.499062,-5.800457,-1.889027,-0.595314,-3.643451,-0.828125,0.478516,-0.033447,0.035597,0.025985,-0.021989,0.999785,-0.009444,-0.002976,-0.018216,0.572492,-0.224260,-0.764469,-0.193769
11131,NaN,4.469721,2.936883,-1.129444,1.399097,2.250242,-5.032166,-2.076386,-0.563773,-4.044368,-0.844238,0.444092,-0.020020,0.045309,0.028338,-0.011465,0.999738,-0.010381,-0.002819,-0.020220,0.563941,-0.215233,-0.768406,-0.212598
11132,NaN,4.549817,3.033466,-0.472593,0.720487,2.389709,-4.924866,-1.995556,-0.495856,-4.473919,-0.864502,0.409912,-0.011230,0.046173,0.029258,-0.004908,0.999697,-0.009977,-0.002479,-0.022367,0.547789,-0.198633,-0.773823,-0.248336
11133,NaN,5.221431,2.303098,-0.570586,-0.002884,1.570085,-4.297156,-1.745691,-0.459541,-4.855913,-0.885010,0.375488,0.010742,0.052765,0.021704,-0.005778,0.999665,-0.008727,-0.002297,-0.024277,0.538065,-0.185131,-0.777476,-0.267848
11134,NaN,6.186054,2.550228,-0.945948,-0.223292,1.121966,-3.153400,-1.513902,-0.429426,-5.198166,-0.894043,0.324219,0.013672,0.062514,0.023811,-0.009510,0.999631,-0.007569,-0.002147,-0.025988,0.520157,-0.167979,-0.780293,-0.303912
11135,NaN,7.310792,2.926200,-1.109557,-0.612317,0.942142,-1.941063,-1.331898,-0.438322,-5.437161,-0.916016,0.274902,0.029297,0.073890,0.027186,-0.011120,0.999606,-0.006659,-0.002191,-0.027182,0.508862,-0.150832,-0.783668,-0.322759
11136,NaN,8.604121,2.013912,-0.921264,-2.261544,-0.231237,-1.225166,-1.230105,-0.455914,-5.662742,-0.925049,0.227783,0.034180,0.086585,0.017636,-0.009129,0.999578,-0.006150,-0.002279,-0.028310,0.490303,-0.130960,-0.785368,-0.354471
11137,NaN,9.666774,1.436401,-0.596786,-3.675420,-0.956313,-0.789691,-1.173559,-0.429753,-5.873515,-0.934326,0.180664,0.036865,0.097046,0.011483,-0.005833,0.999549,-0.005867,-0.002148,-0.029363,0.477217,-0.111478,-0.787833,-0.373035
11138,NaN,10.404875,0.801730,-0.046858,-5.232301,-1.638994,-0.935223,-1.097071,-0.384805,-6.085662,-0.945312,0.124756,0.046387,0.104229,0.004845,-0.000301,0.999520,-0.005484,-0.001924,-0.030423,0.458279,-0.091089,-0.787489,-0.401924
11139,NaN,11.560030,0.251106,0.442277,-6.869154,-2.343494,-0.803162,-0.996329,-0.335111,-6.327498,-0.953857,0.064697,0.055664,0.115595,-0.001124,0.004616,0.999486,-0.004981,-0.001675,-0.031632,0.443557,-0.069087,-0.788732,-0.419984
11140,NaN,13.135017,0.670376,0.951941,-8.396360,-2.606405,0.012363,-0.899089,-0.278416,-6.536595,-0.962646,0.004883,0.058594,0.131463,0.002451,0.009685,0.999455,-0.004495,-0.001392,-0.032677,0.424873,-0.049105,-0.786114,-0.446201
11141,NaN,15.035006,0.502625,1.213192,-10.304432,-3.625350,0.597291,-0.883083,-0.243608,-6.733098,-0.967041,-0.051025,0.061768,0.150392,0.000017,0.012308,0.999423,-0.004415,-0.001218,-0.033659,0.408435,-0.025035,-0.785861,-0.463655
11142,NaN,17.255733,0.353730,1.237016,-12.354739,-4.917685,1.254127,-0.850026,-0.134292,-6.957795,-0.968994,-0.119385,0.060547,0.172534,-0.002413,0.012488,0.999386,-0.004249,-0.000671,-0.034782,0.389916,-0.007753,-0.780459,-0.488661
11143,NaN,19.666065,-0.041363,1.210385,-14.691694,-6.703241,1.469091,-0.748225,-0.013098,-7.159082,-0.962646,-0.181641,0.059326,0.196478,-0.007404,0.012136,0.999352,-0.003740,-0.000065,-0.035788,0.372096,0.018693,-0.778428,-0.505218
11144,NaN,22.695135,0.085906,1.102358,-17.283305,-8.327391,2.353137,-0.737872,0.127365,-7.297117,-0.949219,-0.254639,0.058350,0.226789,-0.007378,0.010896,0.999327,-0.003689,0.000637,-0.036477,0.354400,0.032086,-0.770787,-0.528449
11145,NaN,26.135633,-0.173178,0.603647,-20.195438,-11.113380,2.507852,-0.846197,0.259226,-7.360581,-0.931396,-0.333984,0.059570,0.261065,-0.011320,0.005732,0.999313,-0.004230,0.001296,-0.036794,0.335847,0.059611,-0.766382,-0.544345
11146,NaN,30.100553,-2.461821,-0.353806,-23.900003,-14.686693,1.363611,-0.826230,0.433775,-7.328568,-0.911621,-0.406738,0.045898,0.299826,-0.035637,-0.004057,0.999318,-0.004130,0.002168,-0.036635,0.320199,0.066635,-0.757013,-0.565653
11147,NaN,33.095753,-5.527643,-0.742342,-27.120114,-18.261708,-2.265998,-0.686214,0.713553,-7.198448,-0.881104,-0.477539,0.040527,0.328654,-0.067162,-0.008382,0.999340,-0.003430,0.003567,-0.035984,0.302561,0.094751,-0.751033,-0.579161
11148,NaN,34.756236,-6.712719,-2.045965,-28.516632,-20.102321,-3.534107,-0.999847,0.898605,-6.958619,-0.838379,-0.531250,0.024414,0.344849,-0.079265,-0.021637,0.999372,-0.004998,0.004492,-0.034786,0.291704,0.093465,-0.741136,-0.597404
11149,NaN,34.716274,-9.158380,-3.717595,-28.006320,-22.693399,-8.061498,-1.503537,1.050955,-6.650274,-0.799805,-0.591309,0.010498,0.343657,-0.103336,-0.038241,0.999405,-0.007516,0.005254,-0.033245,0.276266,0.118995,-0.731565,-0.611825
11150,NaN,30.056881,-14.532635,-8.382701,-23.491740,-24.707410,-14.519857,-1.740823,0.872052,-6.138024,-0.761230,-0.644775,-0.007812,0.295541,-0.155179,-0.083801,0.999482,-0.008703,0.004360,-0.030685,0.270017,0.106777,-0.721757,-0.628297
11151,NaN,21.490332,-23.366001,-13.183376,-14.898171,-25.884512,-26.822678,-1.179022,0.328902,-5.528814,-0.719238,-0.674805,-0.015625,0.208106,-0.240249,-0.130776,0.999599,-0.005894,0.001644,-0.027640,0.254358,0.126125,-0.714369,-0.639587
11152,NaN,14.603090,-36.413830,-9.845400,-14.240569,-21.409445,-41.033612,0.289995,-0.349718,-4.475284,-0.688232,-0.702881,-0.008545,0.138010,-0.367143,-0.098739,0.999747,0.001450,-0.001748,-0.022375,0.251288,0.107937,-0.716944,-0.641245
11153,NaN,8.942727,-42.724762,-1.997684,-13.125447,-12.541281,-49.557531,1.389426,-0.700796,-2.918978,-0.674805,-0.718018,0.008789,0.083257,-0.428342,-0.022651,0.999863,0.006947,-0.003504,-0.014594,0.238634,0.117885,-0.720606,-0.640222
11154,NaN,6.020489,-36.994404,0.435504,-12.334298,-8.979746,-44.050409,0.923981,-0.705035,-1.364111,-0.666260,-0.715820,0.008789,0.057668,-0.370359,0.002851,0.999960,0.004620,-0.003525,-0.006820,0.244507,0.089202,-0.728940,-0.633171
11155,NaN,11.530545,-28.017323,1.073219,-15.596062,-9.182993,-34.133603,-0.423781,-0.425891,0.502129,-0.673096,-0.702881,0.015137,0.115984,-0.279859,0.011572,0.999992,-0.002119,-0.002129,0.002511,0.244733,0.085505,-0.728338,-0.634286
11156,NaN,11.843508,-24.081104,0.928661,-16.912990,-8.590042,-28.816192,-2.157464,-0.100461,2.414570,-0.688721,-0.687744,-0.006592,0.121324,-0.239239,0.011934,0.999869,-0.010787,-0.000502,0.012072,0.262333,0.038475,-0.726749,-0.633669
11157,NaN,10.714586,-24.611728,-2.322856,-15.516932,-10.808162,-29.001705,-3.153531,-0.197492,3.552885,-0.717285,-0.666260,-0.026367,0.111519,-0.244486,-0.019256,0.999717,-0.015766,-0.000987,0.017763,0.273404,0.020793,-0.717496,-0.640326
11158,NaN,13.183537,-21.099122,-4.609483,-17.829460,-12.421072,-22.771305,-3.191710,-0.560400,4.146768,-0.740234,-0.629883,-0.040039,0.136304,-0.208892,-0.042372,0.999654,-0.015957,-0.002802,0.020731,0.289592,-0.038931,-0.710168,-0.640532
11159,NaN,21.075245,-13.568713,-5.355864,-21.528770,-13.797484,-11.537553,-2.557664,-1.163796,4.629621,-0.764893,-0.597656,-0.047119,0.214128,-0.131416,-0.050620,0.999633,-0.012787,-0.005818,0.023145,0.299682,-0.062784,-0.702502,-0.642449
11160,NaN,27.234125,23.503832,4.641237,-9.904976,1.892491,25.027081,-3.400890,-0.865428,3.227777,-0.778564,-0.573975,-0.060303,0.268300,0.240147,0.043524,0.999716,-0.017003,-0.004327,0.016137,0.305907,-0.124403,-0.691038,-0.642971
11161,NaN,20.741028,65.805808,13.617893,18.248775,17.321040,55.858102,-2.528866,-0.486426,1.644720,-0.787842,-0.554688,-0.079834,0.201662,0.661388,0.128325,0.999883,-0.012644,-0.002432,0.008223,0.307906,-0.135503,-0.682549,-0.648814
11162,NaN,13.481997,21.160453,11.096726,1.465712,10.981332,15.283804,-2.121401,-0.304338,3.236907,-0.810547,-0.518066,-0.082764,0.131193,0.214910,0.108901,0.999812,-0.010606,-0.001522,0.016184,0.311515,-0.187615,-0.670736,-0.646431
11163,NaN,9.067440,-31.106335,1.368422,-27.708273,-2.578204,-26.457293,-2.979907,0.105758,4.576743,-0.833252,-0.481689,-0.096191,0.097765,-0.308631,0.018245,0.999627,-0.014898,0.000529,0.022881,0.323752,-0.207192,-0.656397,-0.649153
11164,NaN,13.423898,-34.149768,-1.104540,-34.135573,-3.287561,-22.902342,-2.949252,-0.611381,3.601725,-0.845215,-0.449463,-0.105225,0.140383,-0.339116,-0.005610,0.999724,-0.014745,-0.003057,0.018007,0.321269,-0.263144,-0.636667,-0.649766
11165,NaN,18.341772,-9.353403,3.293934,-19.158670,1.698087,-1.763568,-0.859315,-0.582469,2.697922,-0.861084,-0.425781,-0.093018,0.184558,-0.090905,0.033870,0.999896,-0.004296,-0.002912,0.013489,0.327018,-0.274979,-0.631195,-0.647333
11166,NaN,12.763632,-1.473182,-0.867292,-8.735796,-0.942574,-0.399062,0.583759,-0.950665,2.999716,-0.868652,-0.397949,-0.086914,0.127877,-0.012791,-0.008105,0.999872,0.002919,-0.004753,0.014998,0.321974,-0.327859,-0.618225,-0.637682
11167,NaN,7.343751,-1.541209,-7.516239,-5.586280,-7.468385,-4.732436,0.546641,-1.291267,2.877831,-0.882080,-0.378662,-0.072266,0.074131,-0.014144,-0.074725,0.999872,0.002733,-0.006456,0.014389,0.328015,-0.339951,-0.617249,-0.629160
11168,NaN,8.610907,-1.481354,-14.038730,-7.002379,-13.267951,-2.859344,-0.471283,-1.302870,2.572151,-0.891602,-0.353027,-0.068359,0.087205,-0.014027,-0.139788,0.999893,-0.002356,-0.006514,0.012860,0.317913,-0.390821,-0.599930,-0.621510
11169,NaN,15.924597,-3.364867,-6.223439,-11.279528,-4.686184,2.614957,-1.345356,-0.637230,2.565575,-0.894775,-0.322998,-0.073242,0.159860,-0.032016,-0.061507,0.999890,-0.006727,-0.003186,0.012827,0.321313,-0.402594,-0.591682,-0.620153
11170,NaN,10.606400,-3.895471,0.323071,-7.813300,2.297608,-1.974202,-0.851013,-0.505338,2.288155,-0.908203,-0.307861,-0.067139,0.106491,-0.037723,0.003662,0.999922,-0.004255,-0.002527,0.011440,0.309552,-0.448771,-0.570510,-0.614248
11171,NaN,6.896133,-5.868519,-0.963253,-8.181653,0.918771,-5.922031,-0.350662,-0.641582,2.035781,-0.909180,-0.286377,-0.062988,0.069584,-0.057996,-0.009308,0.999942,-0.001753,-0.003208,0.010179,0.313173,-0.457067,-0.565823,-0.610621
11172,NaN,10.288739,-4.700273,-1.223870,-8.003814,1.708474,-1.909228,-0.354993,-0.460089,1.858304,-0.918213,-0.271484,-0.061279,0.103346,-0.046065,-0.011919,0.999953,-0.001775,-0.002300,0.009291,0.300757,-0.497497,-0.545172,-0.604011
11173,NaN,12.172455,-3.337946,-0.409327,-6.995728,2.541189,0.389114,-0.100086,-0.313655,1.584015,-0.912354,-0.254395,-0.054932,0.121990,-0.032416,-0.003886,0.999967,-0.000500,-0.001568,0.007920,0.304431,-0.502898,-0.541381,-0.601101
11174,NaN,9.995277,-3.128738,-0.805024,-5.687541,2.263806,-1.276425,0.334181,-0.314707,1.403088,-0.925537,-0.243652,-0.053223,0.100181,-0.030572,-0.007944,0.999973,0.001671,-0.001574,0.007015,0.293226,-0.536948,-0.522706,-0.593704
11175,NaN,9.907368,-1.623184,-0.555431,-4.093580,2.045906,-0.859772,0.381111,-0.314202,1.218811,-0.926025,-0.232910,-0.049072,0.099179,-0.015617,-0.005429,0.999978,0.001906,-0.001571,0.006094,0.297043,-0.540497,-0.521011,-0.590064
11176,NaN,9.947489,-1.941419,-0.713228,-3.941389,2.375937,-0.754561,0.510138,-0.300541,1.055927,-0.926270,-0.228516,-0.042725,0.099586,-0.018871,-0.007031,0.999982,0.002551,-0.001503,0.005280,0.286611,-0.569518,-0.503770,-0.582854
11177,NaN,10.101240,-0.940855,-1.192011,-3.143244,1.638337,-0.232699,0.484428,-0.297190,0.889228,-0.930908,-0.215820,-0.036377,0.101070,-0.008931,-0.011792,0.999986,0.002422,-0.001486,0.004446,0.289833,-0.571924,-0.503065,-0.579504
11178,NaN,10.236834,0.062546,-1.482354,-1.938163,1.319925,0.261767,0.444173,-0.295168,0.798714,-0.928955,-0.213623,-0.036377,0.102386,0.001067,-0.014670,0.999988,0.002221,-0.001476,0.003994,0.280166,-0.596721,-0.487016,-0.572928
11179,NaN,10.183021,-0.535605,-1.879131,-2.545754,1.166329,0.170804,0.416539,-0.254015,0.746418,-0.937744,-0.202881,-0.036621,0.101873,-0.004937,-0.018673,0.999990,0.002083,-0.001270,0.003732,0.282930,-0.598679,-0.486330,-0.570103
11180,NaN,10.166168,-0.433617,-2.493261,-2.348590,0.800419,0.365635,0.354541,-0.237287,0.670746,-0.931396,-0.200684,-0.032471,0.101705,-0.003951,-0.024819,0.999992,0.001773,-0.001186,0.003354,0.274305,-0.619924,-0.471311,-0.564195
11181,NaN,10.242118,-0.276508,-1.894544,-1.875733,1.270546,0.357545,0.271426,-0.205989,0.630391,-0.934082,-0.192139,-0.023926,0.102449,-0.002417,-0.018843,0.999994,0.001357,-0.001030,0.003152,0.276442,-0.621617,-0.470399,-0.562048
11182,NaN,9.905461,0.018836,-1.101071,-0.891265,1.877930,-0.065402,0.203725,-0.191045,0.587312,-0.936279,-0.183594,-0.030518,0.099064,0.000490,-0.010916,0.999995,0.001019,-0.000955,0.002937,0.268783,-0.639903,-0.456302,-0.556838
11183,NaN,10.003793,-0.553263,-2.184701,-1.843229,1.223729,0.200280,0.329779,-0.202895,0.562582,-0.934326,-0.179443,-0.026367,0.100075,-0.005215,-0.021754,0.999994,0.001649,-0.001014,0.002813,0.270945,-0.641307,-0.455686,-0.554675
11184,NaN,10.139831,-1.392841,-3.026960,-2.687176,1.069417,0.461242,0.625968,-0.153230,0.544255,-0.940918,-0.177246,-0.020020,0.101459,-0.013558,-0.030235,0.999991,0.003130,-0.000766,0.002721,0.266415,-0.656117,-0.444214,-0.548824
11185,NaN,9.865676,-1.196688,-2.608067,-2.247836,1.222079,0.138139,0.828972,-0.111260,0.508112,-0.938965,-0.175049,-0.015625,0.098701,-0.011608,-0.026074,0.999988,0.004145,-0.000556,0.002541,0.270284,-0.656441,-0.444960,-0.545933
11186,NaN,9.811905,-0.463250,-2.241109,-1.160594,1.247310,0.117445,0.856539,-0.110275,0.466219,-0.941406,-0.166504,-0.013672,0.098142,-0.004308,-0.022376,0.999988,0.004283,-0.000551,0.002331,0.268185,-0.668437,-0.435582,-0.539942
11187,NaN,9.866367,-0.169441,-1.941989,-0.697534,1.348491,0.129140,0.796508,-0.099573,0.459532,-0.941406,-0.162354,-0.009521,0.098677,-0.001390,-0.019377,0.999989,0.003983,-0.000498,0.002298,0.271874,-0.668634,-0.436320,-0.537251
11188,NaN,10.014544,-0.392253,-1.705987,-0.521662,1.728034,0.192152,0.704041,-0.083456,0.467281,-0.937256,-0.157959,-0.007324,0.100161,-0.003629,-0.017031,0.999991,0.003520,-0.000417,0.002336,0.271000,-0.678695,-0.427858,-0.531855
11189,NaN,9.914207,-0.742872,-1.609436,-0.734290,1.926221,0.045501,0.642594,-0.083307,0.439485,-0.941895,-0.153564,-0.007324,0.099165,-0.007159,-0.016076,0.999992,0.003213,-0.000417,0.002197,0.274174,-0.678983,-0.428179,-0.529597
11190,NaN,9.687273,-0.876478,-1.506697,-0.599964,2.023783,-0.198857,0.618179,-0.100604,0.418176,-0.944092,-0.149414,-0.007568,0.096898,-0.008516,-0.015045,0.999993,0.003091,-0.000503,0.002091,0.274698,-0.687047,-0.421190,-0.524506
11191,NaN,9.949550,-1.212846,-1.750823,-0.939032,2.045866,0.110132,0.628940,-0.113263,0.418503,-0.942383,-0.140869,-0.005371,0.099530,-0.011865,-0.017489,0.999993,0.003145,-0.000566,0.002093,0.277721,-0.687359,-0.421549,-0.522212
11192,NaN,9.973218,-1.280982,-1.955220,-0.894757,1.915058,0.210315,0.687045,-0.142687,0.413187,-0.944580,-0.138672,-0.007568,0.099772,-0.012537,-0.019524,0.999992,0.003435,-0.000713,0.002066,0.280187,-0.693557,-0.416290,-0.516891
11193,NaN,9.873883,-0.827853,-2.042866,-0.501380,1.570818,0.168948,0.749148,-0.185712,0.445256,-0.937988,-0.138672,0.003174,0.098776,-0.007982,-0.020367,0.999990,0.003746,-0.000929,0.002226,0.283552,-0.693910,-0.416933,-0.514057
11194,NaN,9.407832,-0.183203,-2.147708,0.133066,1.007306,-0.214732,0.776983,-0.184982,0.534312,-0.944824,-0.130127,-0.003418,0.094102,-0.001497,-0.021396,0.999988,0.003885,-0.000925,0.002672,0.288032,-0.698773,-0.412831,-0.508256
11195,NaN,8.919438,0.436147,-2.283103,0.607969,0.431189,-0.625570,0.724619,-0.156459,0.647930,-0.947266,-0.123779,0.000732,0.089197,0.004733,-0.022745,0.999988,0.003623,-0.000782,0.003240,0.291890,-0.699458,-0.412623,-0.505272
11196,NaN,8.658561,0.901429,-1.932218,1.306600,0.376380,-0.999782,0.561601,-0.118983,0.788953,-0.941162,-0.115234,0.007080,0.086560,0.009410,-0.019245,0.999988,0.002808,-0.000595,0.003945,0.296985,-0.703981,-0.407822,-0.499891
11197,NaN,8.663855,0.928649,-1.572100,1.575326,0.629587,-1.122603,0.346635,-0.082452,0.954849,-0.945557,-0.108643,0.002686,0.086599,0.009727,-0.015669,0.999987,0.001733,-0.000412,0.004774,0.300426,-0.705613,-0.405438,-0.497468
11198,NaN,9.316979,0.841369,-1.313485,1.909054,1.002193,-0.615437,0.144719,-0.081489,1.122930,-0.950439,-0.093750,0.004639,0.093126,0.008946,-0.013091,0.999984,0.000724,-0.000407,0.005615,0.305228,-0.710518,-0.399055,-0.492702
11199,NaN,10.212526,0.227779,-1.535584,1.554730,1.307620,0.315352,-0.027333,-0.061694,1.251364,-0.948730,-0.080811,0.004395,0.102113,0.002915,-0.015325,0.999980,-0.000137,-0.000308,0.006257,0.308091,-0.713197,-0.394622,-0.490615
11200,NaN,10.938953,-0.868629,-1.398357,0.681540,2.212656,1.004363,-0.153637,-0.061295,1.314892,-0.955566,-0.067871,0.010498,0.109448,-0.007978,-0.013944,0.999978,-0.000768,-0.000306,0.006574,0.351169,-0.684212,-0.444469,-0.459327
11201,NaN,11.444776,-1.821674,-1.291162,0.063362,2.755071,1.517454,-0.139426,-0.070950,1.329096,-0.949463,-0.059326,0.010498,0.114570,-0.017465,-0.012859,0.999978,-0.000697,-0.000355,0.006645,0.353585,-0.687561,-0.439710,-0.457047
11202,NaN,11.633539,-2.776104,-1.136280,-1.089509,3.080107,1.748495,-0.011360,-0.053271,1.323899,-0.947998,-0.042236,0.008057,0.116519,-0.026991,-0.011330,0.999978,-0.000057,-0.000266,0.006619,0.399652,-0.648364,-0.496246,-0.416704
11203,NaN,11.577103,-2.964449,-0.699472,-1.063188,3.491994,1.588193,0.160223,-0.057372,1.306647,-0.950439,-0.031494,0.010010,0.115963,-0.028882,-0.006985,0.999978,0.000801,-0.000287,0.006533,0.402749,-0.651395,-0.492441,-0.413497
11204,NaN,11.716965,-2.252580,-0.793999,-0.799487,3.169095,1.689809,0.282577,-0.062429,1.301302,-0.953125,-0.016602,0.007568,0.117315,-0.021752,-0.007934,0.999978,0.001413,-0.000312,0.006506,0.450045,-0.599752,-0.553771,-0.362068
11205,NaN,11.608449,-1.906844,-0.860430,-0.308142,3.087512,1.567237,0.318614,-0.026574,1.332085,-0.951660,0.000732,0.013916,0.116209,-0.018281,-0.008618,0.999977,0.001593,-0.000133,0.006660,0.453334,-0.602762,-0.550394,-0.358096
11206,NaN,11.526091,-1.232586,-1.205543,-0.014046,2.801782,1.499736,0.315166,0.006220,1.389680,-0.949707,0.009277,0.002930,0.115342,-0.011506,-0.012078,0.999975,0.001576,0.000031,0.006948,0.497020,-0.540309,-0.610609,-0.296975
11207,NaN,11.568054,-1.053037,-1.654837,0.454047,2.497299,1.642530,0.300876,0.029385,1.467409,-0.952393,0.026367,0.009033,0.115751,-0.009656,-0.016580,0.999972,0.001504,0.000147,0.007337,0.500092,-0.543987,-0.606996,-0.292475
11208,NaN,12.036983,-0.918525,-1.891168,0.355077,2.678713,2.103876,0.266928,0.059872,1.552911,-0.952881,0.039307,0.013184,0.120431,-0.008225,-0.018959,0.999969,0.001335,0.000299,0.007764,0.535813,-0.474878,-0.660953,-0.224804
11209,NaN,12.158546,-1.174307,-2.749557,0.741700,2.005567,2.523972,0.323548,0.085158,1.652480,-0.951416,0.058594,0.000000,0.121665,-0.010693,-0.027565,0.999964,0.001618,0.000426,0.008262,0.538705,-0.479365,-0.657136,-0.219496
11210,NaN,11.281339,-1.309477,-1.886333,-0.122672,2.428554,1.440097,0.405726,0.051322,1.739835,-0.945557,0.073486,0.004150,0.112917,-0.012074,-0.018917,0.999960,0.002029,0.000257,0.008699,0.564343,-0.407994,-0.702120,-0.148613
11211,NaN,11.400490,-1.355957,0.321275,-1.484187,4.058823,0.828384,0.376916,-0.007130,1.859403,-0.944092,0.094971,0.006104,0.114124,-0.012505,0.003193,0.999955,0.001885,-0.000036,0.009297,0.566446,-0.413451,-0.698590,-0.142016
11212,NaN,11.514889,-1.113063,1.754770,-3.124049,4.819669,0.381311,0.302933,0.064532,2.003772,-0.942383,0.109863,0.001465,0.115259,-0.010003,0.017495,0.999949,0.001515,0.000323,0.010019,0.581562,-0.344761,-0.733282,-0.072268
11213,NaN,12.222381,-0.487029,0.912366,-1.985486,5.344890,1.047352,0.239982,0.133809,2.158473,-0.936768,0.135742,0.001221,0.122273,-0.003562,0.009037,0.999941,0.001200,0.000669,0.010792,0.583215,-0.351915,-0.729211,-0.065331
11214,NaN,13.871971,-0.182708,-2.098700,-0.198622,5.062494,3.271354,0.349629,0.205000,2.315566,-0.935547,0.159180,-0.005615,0.138707,-0.000184,-0.021130,0.999931,0.001748,0.001025,0.011578,0.589949,-0.288701,-0.754062,0.001152
11215,NaN,14.727239,-0.261231,-4.076644,1.592963,4.989231,4.544757,0.596688,0.189033,2.476481,-0.940430,0.176270,-0.001709,0.147250,-0.000667,-0.040910,0.999918,0.002983,0.000945,0.012382,0.591463,-0.296263,-0.749861,0.010441
11216,NaN,15.423895,-0.709967,-3.144557,-0.199281,5.665125,4.889002,0.868055,0.079276,2.641943,-0.926514,0.208496,-0.010498,0.154301,-0.004925,-0.031531,0.999903,0.004340,0.000396,0.013209,0.590244,-0.240977,-0.766992,0.072558
11217,NaN,16.917017,-0.093810,-1.931254,-1.298566,7.501919,5.416831,1.284295,0.077377,2.799649,-0.920654,0.229980,-0.015137,0.169153,0.001554,-0.019373,0.999881,0.006421,0.000387,0.013998,0.591003,-0.247931,-0.762830,0.085651
11218,NaN,18.773845,2.562426,-2.191580,-1.990049,10.951417,5.676100,1.686290,0.175451,2.967476,-0.915283,0.262207,-0.024170,0.187310,0.028590,-0.021848,0.999854,0.008431,0.000877,0.014837,0.584805,-0.200998,-0.772727,0.143161
11219,NaN,20.122555,5.439178,-3.234298,-0.803541,14.613820,5.376435,1.790555,0.189144,3.186438,-0.903320,0.287842,-0.035156,0.200292,0.057876,-0.032025,0.999833,0.008952,0.000946,0.015931,0.584957,-0.208183,-0.767557,0.159189
11220,NaN,20.332138,7.089761,-4.599281,-1.106504,16.658058,4.541482,1.758659,0.083606,3.429439,-0.891602,0.322021,-0.035645,0.202042,0.074771,-0.045431,0.999814,0.008793,0.000418,0.017146,0.573952,-0.172977,-0.772716,0.208729
11221,NaN,20.204880,7.729791,-4.288496,-1.369505,17.628728,3.365624,1.553097,-0.061942,3.672719,-0.875488,0.356445,-0.036133,0.200593,0.081320,-0.042202,0.999801,0.007765,-0.000310,0.018362,0.571108,-0.182619,-0.767939,0.225288
11222,NaN,21.130157,6.046122,-4.075024,-3.393146,16.985485,4.313579,1.535060,-0.190557,3.960943,-0.861572,0.388428,-0.045166,0.210083,0.064939,-0.040063,0.999774,0.007675,-0.000953,0.019803,0.556204,-0.159531,-0.771082,0.265743
11223,NaN,22.158694,1.744474,-5.173506,-2.585958,15.008693,7.180653,1.415778,-0.268395,4.449294,-0.841797,0.435547,-0.052002,0.221189,0.022733,-0.051290,0.999727,0.007078,-0.001342,0.022244,0.550234,-0.172355,-0.766184,0.283722
11224,NaN,20.469841,-0.160649,-8.611033,0.281461,14.155088,7.294235,0.967604,-0.467958,4.853162,-0.817383,0.480713,-0.056885,0.204851,0.003779,-0.085622,0.999691,0.004838,-0.002340,0.024263,0.532628,-0.163160,-0.768283,0.315321
11225,NaN,22.272452,-2.604075,-8.567621,-0.449429,14.239435,9.504958,0.518222,-0.425368,4.952507,-0.792969,0.519043,-0.053223,0.223456,-0.020292,-0.085259,0.999688,0.002591,-0.002127,0.024760,0.523441,-0.180090,-0.764316,0.330755
11226,NaN,19.952756,-1.028423,-5.842779,-2.889240,13.657011,5.626508,0.737093,-0.391093,4.600661,-0.764160,0.557617,-0.060059,0.199804,-0.005475,-0.058063,0.999727,0.003685,-0.001955,0.023001,0.508299,-0.180213,-0.765177,0.351654
11227,NaN,16.853949,-0.803783,-6.618916,-1.088936,12.756538,3.014578,1.682667,-0.639571,4.234242,-0.739258,0.585449,-0.064453,0.168862,-0.003911,-0.065694,0.999735,0.008413,-0.003198,0.021169,0.499787,-0.190971,-0.759823,0.369341
11228,NaN,16.731747,3.559141,-6.896273,-1.610729,15.982556,-0.752192,1.925336,-0.454042,3.634498,-0.716309,0.606934,-0.073242,0.166781,0.039285,-0.068217,0.999786,0.009626,-0.002270,0.018171,0.489295,-0.190742,-0.758183,0.386479
11229,NaN,15.912391,10.477614,-5.995945,-2.779351,19.636096,-7.446879,1.566106,-0.198310,2.991702,-0.700195,0.636963,-0.088623,0.157587,0.107606,-0.058967,0.999857,0.007830,-0.000992,0.014958,0.484183,-0.197849,-0.752677,0.399874
11230,NaN,14.012972,11.226577,-4.439661,-3.436014,18.173730,-9.820539,0.823597,0.050764,2.466451,-0.681396,0.654053,-0.093018,0.138718,0.114164,-0.043964,0.999915,0.004118,0.000254,0.012332,0.479459,-0.202476,-0.752101,0.404311
11231,NaN,11.600495,6.427065,-2.743690,-3.402087,12.993444,-8.082616,0.909289,0.412127,2.343600,-0.662354,0.662598,-0.105957,0.115184,0.065748,-0.027378,0.999919,0.004546,0.002061,0.011718,0.477150,-0.209933,-0.746837,0.412904
11232,NaN,4.562023,-5.154687,-1.494517,-0.324879,0.931064,-2.838528,2.498990,0.696631,2.440554,-0.643311,0.677490,-0.129639,0.046189,-0.050792,-0.015743,0.999841,0.012494,0.003483,0.012202,0.479530,-0.216352,-0.740108,0.418907
11233,NaN,1.368648,-20.982915,-2.074666,3.121751,-9.536891,8.780949,2.791680,-0.461331,1.662854,-0.641357,0.684082,-0.142578,0.015481,-0.209389,-0.023637,0.999865,0.013958,-0.002307,0.008314,0.477293,-0.214824,-0.733465,0.433671
11234,NaN,7.357650,-9.287363,-4.933387,1.933048,2.448981,2.636923,1.149126,-1.201072,0.409584,-0.643555,0.684082,-0.142578,0.074063,-0.092438,-0.049422,0.999963,0.005746,-0.006005,0.002048,0.475592,-0.212777,-0.735603,0.432927
11235,NaN,9.283422,7.410230,-4.560589,-1.031670,12.664907,-10.465056,1.321366,-0.706766,-0.427921,-0.643799,0.688477,-0.151367,0.093152,0.074201,-0.044787,0.999970,0.006607,-0.003534,-0.002140,0.475308,-0.206532,-0.734854,0.437513
11236,NaN,4.961979,11.535576,2.119837,-5.368353,8.922539,-17.144232,0.807439,-0.246391,-0.877068,-0.654053,0.675537,-0.155518,0.050098,0.115050,0.021725,0.999981,0.004037,-0.001232,-0.004385,0.480324,-0.204011,-0.736543,0.430317
11237,NaN,2.078702,10.290843,2.547739,-4.384951,6.033144,-17.628391,-0.116529,-0.342025,-1.392779,-0.666748,0.669189,-0.157471,0.021460,0.102775,0.025454,0.999974,-0.000583,-0.001710,-0.006964,0.481928,-0.198427,-0.739014,0.426885
11238,NaN,2.018576,6.806057,1.480159,-2.951603,4.705944,-14.474117,-0.578741,-0.328532,-1.681096,-0.672852,0.658447,-0.151123,0.020733,0.067930,0.014639,0.999959,-0.002894,-0.001643,-0.008405,0.487341,-0.196623,-0.744238,0.412248
11239,NaN,2.198510,4.985898,0.573508,-2.038602,4.221721,-12.648467,-0.945012,-0.242903,-1.985077,-0.687500,0.645508,-0.146484,0.022472,0.049664,0.005527,0.999939,-0.004725,-0.001214,-0.009925,0.489568,-0.191032,-0.748681,0.404112
11240,NaN,0.836059,4.460082,-0.697991,-0.175970,3.612824,-12.640042,-0.793300,-0.331210,-2.384015,-0.704102,0.628418,-0.135742,0.008903,0.044469,-0.007142,0.999920,-0.003966,-0.001656,-0.011920,0.496468,-0.188273,-0.754286,0.386167
11241,NaN,0.473867,3.292473,-2.398039,1.598181,3.371626,-11.513401,-0.701595,-0.552163,-2.828841,-0.722900,0.615479,-0.125000,0.005269,0.032768,-0.024081,0.999890,-0.003508,-0.002761,-0.014144,0.499132,-0.178265,-0.759589,0.376980
11242,NaN,1.632746,3.576443,-3.517199,2.126317,4.766383,-10.577932,-0.898283,-0.659106,-3.249349,-0.745850,0.594238,-0.122559,0.017020,0.035333,-0.035276,0.999853,-0.004491,-0.003295,-0.016246,0.505642,-0.171977,-0.766568,0.356544
11243,NaN,3.004730,3.547807,-2.953166,1.004805,5.411330,-9.611001,-1.294229,-0.621222,-3.661657,-0.764404,0.566406,-0.109375,0.030780,0.034727,-0.029663,0.999807,-0.006471,-0.003106,-0.018307,0.508577,-0.160080,-0.773444,0.342795
11244,NaN,4.326173,3.734466,-1.729749,-0.565733,5.865394,-8.850684,-1.595289,-0.589728,-4.048999,-0.787109,0.536377,-0.093994,0.044055,0.036319,-0.017461,0.999759,-0.007976,-0.002948,-0.020243,0.515667,-0.154127,-0.781284,0.316113
11245,NaN,4.964273,2.901459,-0.842379,-1.584018,5.231067,-7.839654,-1.591987,-0.550334,-4.428651,-0.816162,0.506348,-0.076660,0.050291,0.027838,-0.008511,0.999719,-0.007959,-0.002751,-0.022141,0.519145,-0.140025,-0.788411,0.298815
11246,NaN,5.143193,2.321783,-0.627246,-1.716055,4.693115,-7.118278,-1.485382,-0.548390,-4.784842,-0.834229,0.467773,-0.065430,0.051984,0.021932,-0.006296,0.999682,-0.007426,-0.002742,-0.023922,0.526086,-0.130834,-0.795690,0.270172
11247,NaN,5.740438,2.842833,-0.735842,-1.930776,5.284457,-6.664178,-1.194528,-0.502015,-5.065310,-0.865234,0.433594,-0.056396,0.058117,0.026918,-0.007377,0.999658,-0.005972,-0.002510,-0.025324,0.529970,-0.113108,-0.801663,0.252336
11248,NaN,6.967380,3.047686,-0.796738,-2.295245,5.820272,-5.418445,-1.025515,-0.510506,-5.361283,-0.887207,0.379883,-0.047119,0.070477,0.028554,-0.007938,0.999624,-0.005127,-0.002552,-0.026803,0.536636,-0.101138,-0.807497,0.223029
11249,NaN,8.354701,2.855888,-0.635613,-3.031423,5.856645,-3.909268,-0.963459,-0.542375,-5.598710,-0.911621,0.343506,-0.040283,0.084319,0.026175,-0.006258,0.999593,-0.004817,-0.002712,-0.027990,0.539984,-0.080479,-0.812526,0.204305
11250,NaN,9.720750,2.336863,-0.314624,-3.739583,5.381026,-2.257264,-0.928660,-0.534785,-5.814930,-0.927246,0.292236,-0.031006,0.097840,0.020516,-0.002985,0.999563,-0.004643,-0.002674,-0.029070,0.545145,-0.066328,-0.817461,0.173711
11251,NaN,10.486988,1.864354,0.129986,-4.443370,4.550160,-1.269357,-0.923160,-0.517081,-5.968331,-0.946777,0.236328,-0.019775,0.105360,0.015511,0.001495,0.999541,-0.004615,-0.002585,-0.029837,0.547659,-0.043977,-0.821274,0.153767
11252,NaN,11.487319,0.780821,0.547103,-5.049594,3.096110,0.073752,-0.894856,-0.482744,-6.160446,-0.968750,0.187256,-0.016846,0.115028,0.004292,0.005724,0.999513,-0.004474,-0.002413,-0.030797,0.551362,-0.029148,-0.824830,0.121680
11253,NaN,12.681419,0.529627,0.781765,-5.703344,2.300822,1.315396,-0.869068,-0.422051,-6.379900,-0.981689,0.127197,-0.013916,0.126881,0.001284,0.008074,0.999480,-0.004345,-0.002110,-0.031894,0.553090,-0.004968,-0.827021,0.100511
11254,NaN,14.398639,0.793005,1.181039,-6.686382,1.912074,2.872224,-0.818212,-0.356501,-6.587016,-1.000977,0.064941,0.001953,0.144123,0.003233,0.012048,0.999448,-0.004090,-0.001782,-0.032929,0.555312,0.011494,-0.828797,0.067767
11255,NaN,16.228201,0.946338,1.394735,-7.561486,1.136600,4.596659,-0.812198,-0.292505,-6.743960,-1.009521,-0.005615,0.009277,0.162459,0.004044,0.014161,0.999422,-0.004060,-0.001462,-0.033713,0.556113,0.037271,-0.829016,0.045625
11256,NaN,18.203669,0.804537,1.453101,-8.271981,-0.132608,6.483334,-0.791772,-0.215567,-6.884337,-1.020020,-0.070068,0.012451,0.182155,0.001834,0.014712,0.999399,-0.003958,-0.001078,-0.034415,0.556633,0.056724,-0.828700,0.014075
11257,NaN,20.509979,0.602721,1.394674,-8.949828,-1.837400,8.608033,-0.830994,-0.085468,-7.001759,-1.028076,-0.149170,0.013428,0.205139,-0.001097,0.014029,0.999379,-0.004154,-0.000427,-0.035002,0.556663,0.083386,-0.826495,-0.008883
11258,NaN,22.863973,0.008235,1.307420,-9.525027,-4.213525,10.577906,-0.920296,0.067088,-7.069363,-1.019043,-0.224365,0.006104,0.228458,-0.007936,0.013022,0.999365,-0.004601,0.000335,-0.035339,0.556356,0.104532,-0.823398,-0.039463
11259,NaN,25.783613,-0.627123,0.696713,-9.669687,-7.094879,13.024920,-1.163284,0.225769,-7.097519,-1.007324,-0.310059,0.007568,0.257406,-0.015373,0.006748,0.999353,-0.005815,0.001129,-0.035480,0.556136,0.130487,-0.818297,-0.063847
11260,NaN,29.902752,-1.873978,-0.524557,-9.449472,-11.305396,16.273371,-1.512586,0.412527,-7.042660,-0.989502,-0.389404,-0.001953,0.298108,-0.029291,-0.005666,0.999349,-0.007561,0.002062,-0.035206,0.556181,0.153503,-0.811472,-0.092800
11261,NaN,33.747442,-5.659391,-1.169805,-9.058157,-18.184399,17.738757,-1.544258,0.659509,-6.964212,-0.958740,-0.472900,-0.015625,0.335190,-0.068387,-0.012308,0.999359,-0.007720,0.003297,-0.034814,0.556457,0.177666,-0.803056,-0.117861
11262,NaN,34.914928,-8.685955,-1.356554,-7.863545,-23.487129,16.308950,-1.519677,0.914206,-6.845108,-0.925781,-0.548096,-0.035645,0.345838,-0.098843,-0.014431,0.999375,-0.007597,0.004570,-0.034218,0.558341,0.204878,-0.791501,-0.140737
11263,NaN,34.017888,-10.973319,-2.391891,-5.465202,-26.779899,13.335466,-1.496995,1.115225,-6.591992,-0.886963,-0.610107,-0.053955,0.336176,-0.121043,-0.024923,0.999413,-0.007484,0.005575,-0.032954,0.559325,0.227446,-0.780117,-0.163834
11264,NaN,31.043447,-14.890470,-3.664620,-1.714039,-29.805857,7.712655,-1.459162,1.177382,-6.046113,-0.846191,-0.667969,-0.078613,0.305521,-0.158462,-0.037322,0.999499,-0.007295,0.005886,-0.030226,0.562271,0.250690,-0.766583,-0.182636
11265,NaN,19.490498,-19.187779,-15.422188,13.556644,-27.150043,-1.766644,-1.736136,0.484039,-5.338119,-0.801758,-0.710938,-0.094727,0.189297,-0.198312,-0.152982,0.999603,-0.008680,0.002420,-0.026687,0.561208,0.266610,-0.756641,-0.203616
11266,NaN,12.260859,-33.672831,-15.566308,18.516505,-33.531713,-17.494792,-0.663309,-0.164146,-4.712358,-0.772461,-0.747559,-0.093994,0.114750,-0.340008,-0.154443,0.999717,-0.003316,-0.000821,-0.023560,0.559159,0.285956,-0.747736,-0.215551
11267,NaN,9.555877,-45.857062,-4.476286,11.163328,-40.125157,-31.707901,0.845834,-0.570356,-3.066423,-0.748047,-0.771240,-0.078613,0.088646,-0.459771,-0.046446,0.999869,0.004229,-0.002852,-0.015331,0.552442,0.299133,-0.745758,-0.221748
11268,NaN,5.251320,-41.961791,-0.831110,8.953365,-33.718723,-33.726668,1.511902,-0.631643,-1.556421,-0.736816,-0.781982,-0.065430,0.049279,-0.419932,-0.011326,0.999936,0.007559,-0.003158,-0.007782,0.549206,0.312723,-0.744259,-0.215997
11269,NaN,9.178756,-29.437294,-1.673976,6.547380,-27.345847,-22.577476,0.806863,-0.656100,0.033783,-0.737061,-0.779785,-0.054932,0.091894,-0.294288,-0.017626,0.999986,0.004034,-0.003280,0.000169,0.545535,0.314101,-0.746973,-0.213924
11270,NaN,14.748366,-21.121916,1.066970,1.156773,-25.452480,-13.761714,-0.815393,-0.271990,2.012917,-0.760986,-0.766846,-0.070068,0.149584,-0.209674,0.011729,0.999940,-0.004077,-0.001360,0.010064,0.551261,0.308895,-0.747267,-0.205639
11271,NaN,12.063677,-20.959042,0.173119,1.941401,-23.594881,-14.739434,-2.641182,-0.090986,3.405983,-0.783691,-0.734619,-0.094238,0.124180,-0.207448,0.004536,0.999768,-0.013205,-0.000455,0.017029,0.558377,0.288726,-0.749886,-0.206211
11272,NaN,11.853900,-22.363233,-3.327820,5.162651,-24.645971,-13.995235,-3.338105,-0.316486,4.060483,-0.814697,-0.708740,-0.107666,0.123102,-0.221676,-0.029375,0.999653,-0.016689,-0.001582,0.020300,0.569348,0.268868,-0.750468,-0.200876
11273,NaN,15.511083,-18.335777,-6.233082,5.532679,-24.054187,-7.300793,-3.043604,-0.790051,4.445964,-0.852783,-0.661621,-0.119385,0.159386,-0.180760,-0.058943,0.999629,-0.015216,-0.003950,0.022227,0.574732,0.242631,-0.755356,-0.200626
11274,NaN,28.794116,3.569050,-3.250243,-3.611860,-13.851872,15.630824,-2.617890,-1.266139,4.176130,-0.877441,-0.633545,-0.126221,0.287318,0.041281,-0.031198,0.999676,-0.013088,-0.006330,0.020878,0.580274,0.223225,-0.759149,-0.192733
11275,NaN,26.822865,61.082204,14.591657,-26.435085,36.396411,41.564290,-2.729507,-0.532883,1.368817,-0.882080,-0.625000,-0.141602,0.263656,0.614559,0.138253,0.999880,-0.013647,-0.002664,0.006844,0.582551,0.209569,-0.759499,-0.199692
11276,NaN,9.675079,50.442914,14.852405,-21.206860,37.750430,21.552211,-0.717023,-0.239714,1.978326,-0.891357,-0.603516,-0.141846,0.091575,0.505880,0.146824,0.999944,-0.003585,-0.001199,0.009891,0.586911,0.204032,-0.759874,-0.191044
11277,NaN,10.003049,-14.222885,7.286615,-8.314260,-16.901692,-10.584824,-1.376777,-0.104430,4.235209,-0.920898,-0.558350,-0.155518,0.102966,-0.139563,0.073886,0.999752,-0.006883,-0.000522,0.021174,0.591822,0.183751,-0.762995,-0.183905
11278,NaN,10.132584,-44.537241,-5.467883,5.478453,-44.178350,-21.387060,-2.529586,-0.447828,4.241211,-0.941406,-0.524170,-0.166748,0.110862,-0.443731,-0.048818,0.999693,-0.012647,-0.002239,0.021204,0.598194,0.163238,-0.764426,-0.176550
11279,NaN,21.676971,-16.528513,-0.480931,-4.231647,-24.469142,1.439020,-2.926697,-0.294170,2.657195,-0.953125,-0.498291,-0.167236,0.218945,-0.162430,-0.002097,0.999804,-0.014633,-0.001471,0.013285,0.601690,0.144037,-0.764739,-0.179992
11280,NaN,16.225313,-1.691505,2.785617,-6.415075,-8.181757,3.062596,0.017234,-0.697004,2.462485,-0.969238,-0.468262,-0.159180,0.162347,-0.014919,0.028421,0.999918,0.000086,-0.003485,0.012312,0.603479,0.138471,-0.767314,-0.166938
11281,NaN,11.169442,-2.971104,-3.580750,0.830253,-7.492315,-0.348656,0.818615,-1.332038,2.966895,-0.980713,-0.444824,-0.146729,0.112353,-0.027903,-0.035177,0.999859,0.004093,-0.006660,0.014834,0.600197,0.128426,-0.773960,-0.155742
11282,NaN,6.970958,-1.044731,-8.802823,6.839304,-4.203891,-1.893084,0.507001,-1.281351,2.618786,-0.994385,-0.427490,-0.130127,0.070399,-0.009306,-0.087603,0.999891,0.002535,-0.006407,0.013093,0.598827,0.123073,-0.778694,-0.141048
11283,NaN,11.435925,-0.797295,-10.610136,7.315001,-5.557545,2.820187,-0.580991,-1.050952,2.276503,-1.003906,-0.401855,-0.124023,0.114998,-0.006973,-0.105477,0.999917,-0.002905,-0.005255,0.011382,0.596652,0.111718,-0.782765,-0.137127
11284,NaN,14.136763,-1.612405,-1.682091,-2.020919,-6.280091,2.905245,-0.552827,-0.402033,2.172983,-1.011230,-0.378174,-0.122314,0.141565,-0.014633,-0.016495,0.999935,-0.002764,-0.002010,0.010865,0.598363,0.105017,-0.783926,-0.128036
11285,NaN,8.774122,-5.910851,-0.251295,-2.034315,-8.326048,-3.606182,-0.207054,-0.561541,2.060848,-1.016113,-0.356934,-0.118408,0.088351,-0.058203,-0.002205,0.999942,-0.001035,-0.002808,0.010304,0.597560,0.095952,-0.786508,-0.122967
11286,NaN,7.794006,-3.327035,-2.268136,0.155700,-5.585510,-3.049864,-0.066707,-0.597357,1.775530,-1.023193,-0.343994,-0.116455,0.078299,-0.032584,-0.022437,0.999956,-0.000334,-0.002987,0.008878,0.597652,0.091998,-0.788339,-0.113449
11287,NaN,10.538166,-1.597377,-1.451171,-1.445398,-4.513326,-0.156144,-0.180644,-0.405245,1.531014,-1.028076,-0.326904,-0.114502,0.105529,-0.015179,-0.014284,0.999968,-0.000903,-0.002026,0.007655,0.596991,0.085189,-0.790124,-0.109766
11288,NaN,11.178302,-3.380904,-0.697703,-2.307578,-6.198697,-0.162776,0.097624,-0.313550,1.352666,-1.037109,-0.313965,-0.110596,0.112019,-0.033049,-0.006818,0.999976,0.000488,-0.001568,0.006763,0.597599,0.083330,-0.791026,-0.101043
11289,NaN,10.474497,-2.977739,-0.819589,-2.044462,-5.513171,-0.610659,0.171136,-0.298173,1.203671,-1.037354,-0.303223,-0.108398,0.104934,-0.029139,-0.008065,0.999980,0.000856,-0.001491,0.006018,0.596949,0.078927,-0.792487,-0.096888
11290,NaN,10.075817,-0.969183,-0.847510,-1.915315,-3.356305,-0.418785,0.213168,-0.300517,1.061486,-1.041992,-0.294678,-0.097900,0.100820,-0.009148,-0.008334,0.999984,0.001066,-0.001503,0.005307,0.597219,0.078453,-0.793282,-0.088758
11291,NaN,10.052669,-1.063920,-1.070990,-1.723891,-3.353733,-0.372621,0.325704,-0.293514,0.961655,-1.044678,-0.283936,-0.098145,0.100592,-0.010138,-0.010579,0.999986,0.001629,-0.001468,0.004808,0.596349,0.075478,-0.794667,-0.084705
11292,NaN,9.965857,-0.908503,-1.544283,-1.236362,-3.099169,-0.252651,0.390704,-0.266246,0.857167,-1.042725,-0.277588,-0.089600,0.099717,-0.008628,-0.015327,0.999988,0.001954,-0.001331,0.004286,0.596412,0.076173,-0.795362,-0.076747
11293,NaN,9.903288,-0.457137,-1.670481,-1.137400,-2.565426,-0.158730,0.424765,-0.230155,0.759614,-1.049561,-0.266846,-0.092041,0.099068,-0.004160,-0.016600,0.999990,0.002124,-0.001151,0.003798,0.595624,0.074327,-0.796490,-0.072876
11294,NaN,9.960429,-0.014399,-1.558581,-1.269768,-2.051713,-0.024062,0.401003,-0.201635,0.690094,-1.047607,-0.258301,-0.089844,0.099620,0.000231,-0.015485,0.999992,0.002005,-0.001008,0.003450,0.595717,0.075556,-0.796936,-0.065622
11295,NaN,9.975124,0.204001,-1.383953,-1.473323,-1.768061,-0.006419,0.327240,-0.192273,0.636727,-1.047852,-0.253906,-0.083496,0.099757,0.002380,-0.013740,0.999993,0.001636,-0.000961,0.003184,0.595036,0.073927,-0.797849,-0.062490
11296,NaN,10.047881,-0.067687,-1.687103,-1.186606,-1.974416,0.112235,0.285347,-0.174549,0.597178,-1.052490,-0.245361,-0.081543,0.100495,-0.000353,-0.016784,0.999994,0.001427,-0.000873,0.002986,0.595121,0.075006,-0.798150,-0.056227
11297,NaN,10.026213,-0.189866,-1.958033,-0.933317,-2.028849,0.157631,0.275227,-0.137195,0.563589,-1.054688,-0.243408,-0.077393,0.100280,-0.001589,-0.019514,0.999995,0.001376,-0.000686,0.002818,0.594629,0.073534,-0.798841,-0.053499
11298,NaN,9.643134,0.004188,-1.561931,-1.208429,-1.701175,-0.269359,0.319056,-0.105981,0.524571,-1.056885,-0.239014,-0.079590,0.096439,0.000320,-0.015568,0.999995,0.001595,-0.000530,0.002623,0.594851,0.074861,-0.798931,-0.047514
11299,NaN,9.622046,0.040941,-1.187248,-1.578357,-1.611885,-0.383724,0.447930,-0.128320,0.521091,-1.059326,-0.232666,-0.077637,0.096227,0.000687,-0.011809,0.999994,0.002240,-0.000642,0.002605,0.594295,0.074078,-0.799607,-0.044219
11300,NaN,9.748412,-0.421687,-1.539206,-1.241077,-2.015635,-0.222322,0.655771,-0.168719,0.538732,-1.055176,-0.228271,-0.073242,0.097508,-0.003904,-0.015323,0.999991,0.003279,-0.000844,0.002694,0.594043,0.076196,-0.799958,-0.037067
11301,NaN,9.980512,-0.855395,-2.430684,-0.438210,-2.386471,0.205435,0.933584,-0.159835,0.541339,-1.055420,-0.224121,-0.069092,0.099847,-0.008170,-0.024266,0.999985,0.004668,-0.000799,0.002707,0.593144,0.076770,-0.800797,-0.031781
11302,NaN,10.070473,-0.638094,-2.700345,-0.217679,-2.079868,0.421551,1.172836,-0.126717,0.526115,-1.057617,-0.221924,-0.062744,0.100738,-0.005958,-0.026975,0.999979,0.005864,-0.000634,0.002631,0.592730,0.080346,-0.801060,-0.022773
11303,NaN,9.891099,-0.377955,-2.358238,-0.534122,-1.735304,0.199349,1.273643,-0.101297,0.507267,-1.058105,-0.211182,-0.056396,0.098932,-0.003379,-0.023555,0.999976,0.006368,-0.000506,0.002536,0.591861,0.082073,-0.801687,-0.016204
11304,NaN,9.831908,-0.007841,-1.872627,-1.022967,-1.311277,0.056803,1.209630,-0.119649,0.505530,-1.057861,-0.213379,-0.060791,0.098330,0.000283,-0.018666,0.999978,0.006048,-0.000598,0.002528,0.591301,0.085666,-0.801855,-0.007343
11305,NaN,10.141739,0.162741,-1.562574,-1.449163,-1.149053,0.281975,1.079256,-0.115000,0.489866,-1.064697,-0.202637,-0.050049,0.101422,0.001960,-0.015557,0.999982,0.005396,-0.000575,0.002449,0.590389,0.086883,-0.802427,-0.001612
11306,NaN,9.712282,0.150989,-1.445694,-1.443858,-1.042921,-0.155125,0.946504,-0.117388,0.497754,-1.060791,-0.196289,-0.054443,0.097127,0.001820,-0.014392,0.999986,0.004732,-0.000587,0.002489,0.589821,0.089545,-0.802532,0.005920
11307,NaN,9.862755,-0.366597,-1.501327,-1.377839,-1.505135,-0.040376,0.839500,-0.136787,0.536618,-1.062988,-0.194092,-0.052490,0.098647,-0.003338,-0.014960,0.999987,0.004197,-0.000684,0.002683,0.588877,0.089867,-0.803138,0.010815
11308,NaN,9.845048,-0.361977,-1.456011,-1.423368,-1.433080,-0.060976,0.776970,-0.114884,0.584040,-1.063477,-0.181152,-0.041992,0.098469,-0.003276,-0.014517,0.999988,0.003885,-0.000574,0.002920,0.588292,0.091511,-0.803259,0.017693
11309,NaN,9.516856,0.047184,-1.539424,-1.341167,-0.909745,-0.309227,0.734995,-0.140994,0.660714,-1.065674,-0.178955,-0.041992,0.095177,0.000843,-0.015325,0.999988,0.003675,-0.000705,0.003304,0.587327,0.091027,-0.803899,0.022528
11310,NaN,9.339232,0.423506,-1.960005,-0.980194,-0.374832,-0.318462,0.702943,-0.152906,0.769994,-1.067871,-0.177002,-0.037598,0.093390,0.004663,-0.019513,0.999986,0.003515,-0.000765,0.003850,0.586512,0.091550,-0.804212,0.029424
11311,NaN,9.299478,0.882562,-2.095451,-0.956461,0.189268,-0.289103,0.606614,-0.120279,0.919406,-1.068115,-0.168457,-0.040039,0.092965,0.009316,-0.020871,0.999985,0.003033,-0.000601,0.004597,0.585610,0.089644,-0.804881,0.034509
11312,NaN,9.289165,1.095485,-1.899598,-1.203375,0.473058,-0.356247,0.437386,-0.077806,1.069483,-1.068848,-0.151123,-0.033691,0.092839,0.011493,-0.018935,0.999983,0.002187,-0.000389,0.005347,0.585073,0.087991,-0.805149,0.041014
11313,NaN,9.519604,0.966415,-1.583756,-1.572115,0.382403,-0.249942,0.253136,-0.082873,1.219415,-1.069336,-0.131836,-0.036133,0.095141,0.010264,-0.015785,0.999981,0.001266,-0.000414,0.006097,0.584370,0.083833,-0.805858,0.045568
11314,NaN,10.075337,0.088253,-1.657821,-1.530892,-0.383114,0.275751,0.123542,-0.074144,1.340750,-1.076172,-0.125488,-0.031982,0.100751,0.001568,-0.016540,0.999977,0.000618,-0.000371,0.006704,0.583830,0.080002,-0.806289,0.051390
11315,NaN,10.696308,-0.735356,-1.414787,-1.827467,-1.137743,0.785302,0.018926,-0.069012,1.406098,-1.076904,-0.104004,-0.041016,0.107016,-0.006600,-0.014112,0.999975,0.000095,-0.000345,0.007030,0.583172,0.074400,-0.807025,0.055547
11316,NaN,11.217144,-1.677831,-1.635286,-1.638261,-1.899425,1.368534,0.038056,-0.070119,1.413859,-1.074951,-0.093262,-0.032471,0.112292,-0.015982,-0.016317,0.999975,0.000190,-0.000351,0.007069,0.582570,0.069915,-0.807459,0.061101
11317,NaN,11.563988,-2.363053,-1.589334,-1.707887,-2.438155,1.718659,0.158076,-0.077682,1.410277,-1.073486,-0.078369,-0.039307,0.115809,-0.022802,-0.015867,0.999975,0.000790,-0.000388,0.007051,0.581759,0.064699,-0.808107,0.065824
11318,NaN,11.553644,-2.482320,-1.716922,-1.598012,-2.365565,1.782330,0.250409,-0.095242,1.410902,-1.076172,-0.061279,-0.035156,0.115716,-0.023986,-0.017145,0.999974,0.001252,-0.000476,0.007054,0.580893,0.060799,-0.808494,0.072145
11319,NaN,11.510106,-1.644251,-1.878695,-1.628127,-1.346019,1.773967,0.363403,-0.037733,1.424899,-1.076660,-0.050537,-0.035400,0.115218,-0.015588,-0.018794,0.999973,0.001817,-0.000189,0.007124,0.580104,0.056101,-0.808881,0.077745
11320,NaN,11.084292,-1.090010,-1.874223,-1.625876,-0.630603,1.346110,0.375062,-0.026035,1.479206,-1.077393,-0.029053,-0.040039,0.110922,-0.010045,-0.018747,0.999971,0.001875,-0.000130,0.007396,0.579357,0.052206,-0.808977,0.084713
11321,NaN,11.206422,-0.798801,-1.647942,-1.963445,-0.215516,1.369147,0.324289,0.000873,1.556902,-1.077637,-0.016113,-0.038086,0.112122,-0.007089,-0.016492,0.999968,0.001621,0.000004,0.007784,0.578602,0.046841,-0.809215,0.090537
11322,NaN,11.744295,-0.810890,-1.383175,-2.411325,-0.076744,1.792291,0.292797,0.041868,1.652813,-1.071777,-0.005371,-0.038086,0.117502,-0.007118,-0.013867,0.999965,0.001464,0.000209,0.008264,0.577970,0.041893,-0.809119,0.097580
11323,NaN,12.719067,-1.183275,-1.812666,-2.299814,-0.095901,2.882105,0.337167,0.081082,1.759425,-1.074707,0.022461,-0.036377,0.127281,-0.010683,-0.018197,0.999960,0.001686,0.000405,0.008797,0.577349,0.035704,-0.809053,0.104047
11324,NaN,12.414805,-1.611473,-2.002773,-1.976727,-0.256275,2.707590,0.461058,0.075361,1.848163,-1.073242,0.041748,-0.041016,0.124282,-0.014920,-0.020110,0.999955,0.002305,0.000377,0.009241,0.576602,0.030365,-0.808709,0.112239
11325,NaN,11.733626,-1.211515,0.267969,-3.962908,-0.182178,1.299260,0.421016,0.008517,1.946368,-1.069580,0.061035,-0.039062,0.117447,-0.010978,0.002651,0.999950,0.002105,0.000043,0.009732,0.575456,0.023697,-0.808700,0.119554
11326,NaN,11.915387,-0.934886,2.372186,-6.059464,-0.136679,0.757885,0.295192,0.001477,2.097822,-1.068115,0.080322,-0.043701,0.119244,-0.008133,0.023708,0.999944,0.001476,0.000007,0.010489,0.574145,0.016867,-0.808558,0.127697
11327,NaN,12.520968,-0.178112,2.380566,-6.446201,0.923254,1.144541,0.143218,0.123405,2.284372,-1.060547,0.105957,-0.041992,0.125234,-0.000368,0.023728,0.999934,0.000716,0.000617,0.011422,0.573139,0.007958,-0.808249,0.134841
11328,NaN,14.179513,0.125419,-0.387100,-4.540542,2.385447,3.412557,0.125979,0.200310,2.455503,-1.057129,0.131592,-0.048584,0.141761,0.002997,-0.004011,0.999924,0.000630,0.001002,0.012277,0.572245,-0.000935,-0.807468,0.143280
11329,NaN,15.633947,-0.174255,-3.406250,-2.235960,3.410142,5.660183,0.271739,0.206378,2.638301,-1.055908,0.159668,-0.046875,0.156309,0.000366,-0.034224,0.999912,0.001359,0.001032,0.013191,0.571143,-0.010962,-0.806596,0.151918
11330,NaN,16.161893,-0.608047,-3.975829,-1.874692,3.668198,6.324063,0.520170,0.087358,2.812326,-1.043945,0.191650,-0.051758,0.161665,-0.003704,-0.039841,0.999898,0.002601,0.000437,0.014061,0.569324,-0.020181,-0.805583,0.162788
11331,NaN,16.750291,-0.189585,-3.063190,-3.060366,4.451825,6.336110,0.882124,-0.011039,2.979307,-1.042725,0.217529,-0.054199,0.167507,0.000735,-0.030623,0.999879,0.004410,-0.000055,0.014896,0.566878,-0.029663,-0.804494,0.174808
11332,NaN,18.237842,1.024636,-2.296551,-4.572633,6.289429,6.874018,1.367479,-0.025503,3.159852,-1.028809,0.249512,-0.058838,0.182187,0.013282,-0.022858,0.999852,0.006837,-0.000128,0.015798,0.564125,-0.037897,-0.802675,0.189839
11333,NaN,20.598225,3.575984,-1.836640,-6.349808,9.761869,7.645505,1.735642,0.003730,3.358828,-1.019043,0.281738,-0.072266,0.205341,0.039370,-0.018039,0.999821,0.008678,0.000019,0.016793,0.561184,-0.046483,-0.800234,0.206248
11334,NaN,22.065793,6.628844,-2.880967,-6.561906,13.907445,7.582717,1.832812,-0.037493,3.574301,-1.009521,0.315918,-0.072510,0.219429,0.070477,-0.028135,0.999798,0.009163,-0.000187,0.017870,0.557684,-0.055183,-0.797364,0.223952
11335,NaN,22.844952,8.924174,-4.368666,-6.044596,17.318571,7.041398,1.771161,-0.113882,3.826462,-0.987061,0.350342,-0.077393,0.226706,0.093972,-0.042739,0.999778,0.008855,-0.000569,0.019131,0.553314,-0.065365,-0.794461,0.241668
11336,NaN,22.630278,7.831578,-4.259557,-6.076400,16.919232,6.568163,1.640872,-0.185231,4.053339,-0.975342,0.382324,-0.088379,0.224688,0.083225,-0.041718,0.999761,0.008204,-0.000926,0.020265,0.548214,-0.076587,-0.791404,0.259374
11337,NaN,22.953745,4.053720,-4.943704,-5.182182,14.789921,8.132994,1.637162,-0.313251,4.401184,-0.948730,0.425293,-0.088867,0.228642,0.045976,-0.048717,0.999723,0.008185,-0.001566,0.022004,0.541746,-0.089092,-0.788231,0.277967
11338,NaN,20.982570,2.149849,-8.965893,-0.703681,14.547559,7.880107,1.485717,-0.519618,4.934044,-0.924316,0.465820,-0.093750,0.209431,0.027331,-0.088926,0.999665,0.007428,-0.002598,0.024667,0.533592,-0.103957,-0.785051,0.296930
11339,NaN,22.135320,-1.698078,-10.539200,0.523092,13.521032,10.698449,0.879200,-0.507311,5.213003,-0.893799,0.510742,-0.094238,0.221954,-0.010738,-0.104886,0.999647,0.004395,-0.002536,0.026062,0.524134,-0.121288,-0.782109,0.314450
11340,NaN,21.570890,-2.240549,-7.535395,-2.122979,12.657405,9.221090,0.770349,-0.366174,4.861026,-0.869141,0.547363,-0.101074,0.216301,-0.016863,-0.075030,0.999696,0.003851,-0.001831,0.024303,0.515795,-0.138173,-0.778609,0.329595
11341,NaN,18.874661,-0.295769,-6.088782,-2.738721,12.854877,5.039617,1.578738,-0.526315,4.458428,-0.842041,0.572998,-0.103516,0.188902,0.001730,-0.060389,0.999717,0.007893,-0.002631,0.022290,0.507347,-0.150557,-0.774059,0.347511
11342,NaN,16.732686,2.558797,-7.895757,-0.707078,14.902030,1.423134,2.272943,-0.591291,3.860771,-0.823486,0.598633,-0.116699,0.167012,0.029705,-0.078141,0.999745,0.011364,-0.002956,0.019302,0.500521,-0.159390,-0.768434,0.365491
11343,NaN,17.395762,10.946161,-8.213982,-1.911632,21.476864,-4.818570,1.768849,-0.159615,2.991345,-0.800293,0.613525,-0.131592,0.172352,0.112767,-0.081014,0.999849,0.008844,-0.000798,0.014956,0.495778,-0.166146,-0.763096,0.379848
11344,NaN,14.727617,12.209093,-5.525295,-3.194520,19.618728,-8.642061,0.703150,0.337124,2.563209,-0.787842,0.624268,-0.138184,0.145601,0.124158,-0.055065,0.999910,0.003516,0.001686,0.012816,0.493560,-0.175868,-0.758632,0.387228
11345,NaN,10.021446,4.198017,-0.571183,-4.503436,9.463763,-6.892498,1.761121,0.396420,2.691821,-0.760498,0.643555,-0.155518,0.099626,0.043373,-0.005532,0.999869,0.008805,0.001982,0.013459,0.491339,-0.182483,-0.751773,0.400154
11346,NaN,2.805443,-11.100691,-5.634458,5.088160,-2.359993,1.648764,2.716833,0.234175,2.710117,-0.739014,0.650146,-0.179199,0.029481,-0.109835,-0.057876,0.999815,0.013583,0.001171,0.013550,0.490208,-0.187658,-0.743042,0.415175
11347,NaN,2.766894,-21.239865,-4.886902,5.957827,-8.114824,9.713824,2.724388,-0.709201,1.476465,-0.734619,0.647949,-0.185547,0.029412,-0.211495,-0.051652,0.999874,0.013621,-0.003546,0.007382,0.487005,-0.184976,-0.737641,0.429530
11348,NaN,11.486543,-0.561026,-5.454214,-0.416887,10.109366,-2.090720,1.161189,-1.045531,0.228753,-0.732178,0.641602,-0.189697,0.115155,-0.005164,-0.053972,0.999969,0.005806,-0.005228,0.001144,0.484638,-0.181837,-0.737389,0.433957
11349,NaN,8.463303,16.209761,-0.353405,-6.175164,15.005304,-18.251540,1.011233,0.060851,-0.477204,-0.731934,0.635010,-0.196045,0.085019,0.161910,-0.002741,0.999984,0.005056,0.000304,-0.002386,0.486813,-0.177762,-0.735465,0.436469
11350,NaN,2.249912,12.292930,2.891586,-5.568719,7.080350,-18.944863,0.163040,0.041387,-0.787222,-0.733887,0.624268,-0.193604,0.022989,0.122816,0.029011,0.999992,0.000815,0.000207,-0.003936,0.489864,-0.175805,-0.735640,0.433543
11351,NaN,2.047588,8.017304,2.589501,-4.524093,4.752013,-15.480574,-0.844499,0.096621,-1.270977,-0.744141,0.611572,-0.187012,0.020998,0.080149,0.025546,0.999971,-0.004222,0.000483,-0.006355,0.492221,-0.173409,-0.738325,0.427228
11352,NaN,0.963142,5.872990,1.010222,-2.256465,3.632070,-14.073572,-1.507500,0.125123,-1.669594,-0.747803,0.594238,-0.184814,0.010128,0.058721,0.009653,0.999937,-0.007537,0.000626,-0.008348,0.495919,-0.172440,-0.742566,0.415842
11353,NaN,-0.100157,4.429877,-1.170658,0.400319,3.134494,-13.131962,-1.929647,0.087505,-2.170610,-0.764648,0.577148,-0.171631,-0.000527,0.044191,-0.012133,0.999894,-0.009648,0.000438,-0.010853,0.499045,-0.169335,-0.748149,0.403178
11354,NaN,0.162428,4.283084,-3.488622,2.402525,4.293597,-12.329140,-1.833378,-0.113878,-2.640958,-0.779053,0.557861,-0.154297,0.002207,0.042482,-0.035276,0.999871,-0.009166,-0.000569,-0.013204,0.503256,-0.165010,-0.754194,0.388195
11355,NaN,1.608774,5.162402,-4.761924,2.799359,6.380203,-11.647430,-1.842897,-0.186788,-3.167436,-0.789062,0.538574,-0.147705,0.016943,0.050919,-0.048075,0.999832,-0.009214,-0.000934,-0.015836,0.507099,-0.157318,-0.760723,0.373367
11356,NaN,2.226117,5.594467,-3.788573,1.663128,6.708348,-11.495613,-2.040387,-0.077318,-3.668297,-0.811768,0.506592,-0.138672,0.023292,0.055133,-0.038442,0.999780,-0.010201,-0.000387,-0.018340,0.512808,-0.149699,-0.767387,0.354592
11357,NaN,3.167578,5.301228,-2.526034,0.203792,6.616503,-10.643424,-2.128349,0.018178,-4.045229,-0.827637,0.472168,-0.127686,0.032733,0.052084,-0.025821,0.999739,-0.010641,0.000091,-0.020224,0.518327,-0.139634,-0.773936,0.335950
11358,NaN,3.928357,4.097439,-1.723356,-0.618798,5.866642,-9.193312,-2.052340,0.081676,-4.403299,-0.843506,0.431396,-0.122803,0.040163,0.039917,-0.017663,0.999705,-0.010261,0.000408,-0.022014,0.525253,-0.129459,-0.779980,0.314613
11359,NaN,4.334469,3.760437,-1.738920,-0.703952,5.780823,-8.387516,-1.745602,0.110720,-4.788026,-0.859619,0.401611,-0.113770,0.044216,0.036399,-0.017735,0.999675,-0.008727,0.000554,-0.023938,0.531920,-0.115508,-0.785276,0.295060
11360,NaN,5.449663,3.277903,-1.777707,-1.010910,5.850873,-6.924956,-1.332386,0.115338,-5.102853,-0.875244,0.352295,-0.111084,0.055297,0.031255,-0.018020,0.999652,-0.006661,0.000577,-0.025511,0.539646,-0.100651,-0.789611,0.274164
11361,NaN,6.953131,2.838989,-1.640186,-1.646959,5.924683,-5.201075,-1.193477,0.089474,-5.348408,-0.899658,0.311523,-0.110596,0.070248,0.026419,-0.016595,0.999625,-0.005967,0.000447,-0.026739,0.546532,-0.082846,-0.793396,0.254876
11362,NaN,7.619012,2.460541,-1.108293,-2.268352,5.423852,-4.267366,-1.208953,0.062706,-5.590186,-0.910889,0.264404,-0.107666,0.076833,0.022396,-0.011247,0.999591,-0.006044,0.000313,-0.027947,0.553768,-0.065567,-0.796813,0.232660
11363,NaN,8.735215,2.456312,-0.693753,-3.014967,5.338326,-3.089097,-1.317596,0.049098,-5.842356,-0.922119,0.217285,-0.100586,0.088017,0.021952,-0.007109,0.999552,-0.006587,0.000245,-0.029207,0.560084,-0.045973,-0.799764,0.211118
11364,NaN,9.637777,2.312948,-0.266421,-3.619040,4.922892,-2.005997,-1.344066,0.067704,-6.079891,-0.937500,0.161621,-0.102051,0.097020,0.020168,-0.002839,0.999515,-0.006719,0.000338,-0.030395,0.566646,-0.027029,-0.802116,0.186527
11365,NaN,11.075162,1.891647,-0.050289,-4.163529,4.283381,-0.298719,-1.361637,0.080759,-6.316048,-0.950928,0.114502,-0.097168,0.111275,0.015403,-0.000661,0.999478,-0.006807,0.000404,-0.031575,0.572385,-0.005624,-0.803587,0.163068
11366,NaN,12.380592,1.650128,-0.076762,-4.401456,3.636181,1.293948,-1.366578,0.101627,-6.544003,-0.955566,0.060791,-0.098633,0.124257,0.012434,-0.000925,0.999441,-0.006832,0.000508,-0.032714,0.578075,0.015170,-0.804311,0.136686
11367,NaN,13.705029,1.210840,-0.261805,-4.429064,2.618705,2.947243,-1.314118,0.129562,-6.748978,-0.964111,-0.001221,-0.097656,0.137353,0.007458,-0.002766,0.999409,-0.006569,0.000648,-0.033738,0.582972,0.038409,-0.803843,0.111829
11368,NaN,15.473747,0.274076,-0.819874,-4.080868,0.982304,5.102651,-1.202777,0.157402,-6.957674,-0.970459,-0.067627,-0.101074,0.154700,-0.002692,-0.008315,0.999377,-0.006013,0.000787,-0.034781,0.587513,0.061361,-0.802427,0.084698
11369,NaN,17.408174,-0.659576,-1.584765,-3.503812,-0.912378,7.297208,-0.998356,0.187456,-7.170111,-0.972168,-0.138428,-0.097900,0.173679,-0.012907,-0.015957,0.999345,-0.004991,0.000937,-0.035843,0.591228,0.087069,-0.799569,0.059638
11370,NaN,19.554971,-1.251152,-2.218719,-3.077025,-2.847456,9.452053,-0.743987,0.199722,-7.386102,-0.969727,-0.209229,-0.096680,0.194886,-0.019801,-0.022317,0.999311,-0.003719,0.000998,-0.036922,0.594160,0.113071,-0.795672,0.033098
11371,NaN,22.008407,-1.432893,-2.665893,-2.869338,-4.785743,11.685204,-0.530065,0.226941,-7.536370,-0.952148,-0.279785,-0.095459,0.219304,-0.022675,-0.026855,0.999286,-0.002650,0.001134,-0.037673,0.596191,0.141353,-0.790253,0.008711
11372,NaN,24.502980,-1.274906,-3.444599,-2.329411,-6.717431,13.915786,-0.454731,0.220363,-7.616614,-0.940674,-0.365479,-0.111328,0.244268,-0.022141,-0.034672,0.999272,-0.002273,0.001102,-0.038074,0.597201,0.169026,-0.783893,-0.017109
11373,NaN,27.681112,-2.047908,-5.000445,-0.839027,-9.924543,16.566458,-0.484544,0.187638,-7.628837,-0.907715,-0.442871,-0.107910,0.275712,-0.031133,-0.050197,0.999269,-0.002422,0.000938,-0.038135,0.597263,0.197366,-0.776268,-0.041610
11374,NaN,31.242529,-4.819237,-5.366279,0.123513,-15.665580,18.155314,-0.477263,0.249638,-7.526921,-0.866455,-0.517822,-0.119385,0.310247,-0.060026,-0.053917,0.999288,-0.002386,0.001248,-0.037626,0.596602,0.224416,-0.767626,-0.066730
11375,NaN,34.150994,-10.275070,-1.764249,-1.515328,-24.248441,16.343267,-0.002860,0.572956,-7.260039,-0.822998,-0.588623,-0.120361,0.337429,-0.115051,-0.018612,0.999337,-0.000014,0.002864,-0.036292,0.595993,0.252310,-0.757258,-0.087705
11376,NaN,34.308326,-10.150626,-0.286345,-2.010899,-26.157558,14.506339,-0.399842,0.726272,-6.830310,-0.771729,-0.642334,-0.132080,0.339338,-0.113146,-0.003882,0.999408,-0.001999,0.003631,-0.034145,0.595907,0.276974,-0.745854,-0.109003
11377,NaN,30.899520,-14.653774,-3.283564,3.462769,-28.812579,8.564901,-0.509892,0.690070,-6.353032,-0.726807,-0.693848,-0.137451,0.304018,-0.156334,-0.033500,0.999486,-0.002549,0.003450,-0.031760,0.595424,0.299378,-0.734336,-0.128817
11378,NaN,24.779531,-23.716561,-7.242914,11.255881,-32.273275,-2.041788,-0.109304,0.354972,-5.589784,-0.680664,-0.723877,-0.147461,0.240910,-0.244003,-0.072729,0.999608,-0.000546,0.001775,-0.027945,0.593308,0.320019,-0.724275,-0.144914
11379,NaN,15.644925,-35.467266,-10.162487,18.880991,-34.625848,-16.903399,0.839154,-0.200074,-4.525246,-0.642822,-0.756104,-0.138184,0.148481,-0.357662,-0.102970,0.999735,0.004195,-0.001000,-0.022624,0.587810,0.338666,-0.718039,-0.155578
11380,NaN,8.438517,-42.084102,-6.874636,19.102664,-34.362262,-28.351524,1.698168,-0.622718,-3.150101,-0.618896,-0.771240,-0.116455,0.077971,-0.421500,-0.072074,0.999835,0.008490,-0.003113,-0.015750,0.580615,0.355154,-0.715230,-0.158736
11381,NaN,7.132991,-36.979042,-5.369318,16.756602,-29.519494,-26.986337,1.431810,-0.813812,-1.492897,-0.614258,-0.777832,-0.107910,0.068794,-0.369915,-0.056058,0.999938,0.007159,-0.004069,-0.007464,0.573947,0.363984,-0.716029,-0.159383
11382,NaN,10.583966,-32.309381,-1.290561,11.447209,-29.313217,-22.746262,0.278597,-0.620467,0.345177,-0.618896,-0.767090,-0.097168,0.106437,-0.322892,-0.013026,0.999993,0.001393,-0.003102,0.001726,0.572094,0.364088,-0.717990,-0.156966
11383,NaN,10.595833,-29.083199,1.150091,7.807787,-27.770670,-21.091263,-1.124294,-0.547879,2.145240,-0.636963,-0.747803,-0.114746,0.109034,-0.289602,0.013427,0.999923,-0.005621,-0.002739,0.010726,0.573819,0.352714,-0.722520,-0.155849
11384,NaN,12.702201,-25.950240,-1.411844,8.477430,-26.904714,-16.209163,-1.981311,-0.684844,3.373852,-0.661377,-0.719727,-0.124023,0.131418,-0.257430,-0.011116,0.999803,-0.009906,-0.003424,0.016868,0.578077,0.335580,-0.727989,-0.152464
11385,NaN,16.065042,-20.410452,-3.332556,7.387813,-25.108504,-9.013852,-2.212203,-0.918654,4.144704,-0.694580,-0.693848,-0.130859,0.164982,-0.201062,-0.030339,0.999714,-0.011060,-0.004593,0.020722,0.581444,0.313307,-0.735698,-0.150032
11386,NaN,18.624641,-15.332182,-3.224311,4.793955,-22.929692,-3.219282,-2.225886,-1.123629,4.623993,-0.728271,-0.655273,-0.138184,0.189900,-0.149298,-0.029506,0.999655,-0.011128,-0.005617,0.023117,0.584835,0.290483,-0.743531,-0.144046
11387,NaN,24.553220,-10.247645,-1.697027,0.248767,-22.336679,4.733754,-2.063871,-1.381744,4.981840,-0.763916,-0.618652,-0.145264,0.248090,-0.096474,-0.014246,0.999613,-0.010318,-0.006908,0.024906,0.586063,0.264823,-0.753027,-0.139100
11388,NaN,29.130076,18.214564,8.822234,-17.755428,-1.499756,20.853512,-2.903161,-1.233899,4.146777,-0.780029,-0.584473,-0.152344,0.286883,0.189396,0.087287,0.999661,-0.014514,-0.006169,0.020732,0.588742,0.241607,-0.759159,-0.136699
11389,NaN,23.596425,73.784977,26.141622,-43.456607,49.034375,39.080881,-3.863051,-0.560656,1.810480,-0.789307,-0.569336,-0.167480,0.228535,0.744814,0.247722,0.999769,-0.019314,-0.002803,0.009052,0.592388,0.222926,-0.760176,-0.146675
11390,NaN,10.040848,42.833049,15.890550,-24.072310,31.382015,15.157223,-2.229858,-0.260276,2.378497,-0.809814,-0.534912,-0.183105,0.095089,0.431219,0.154234,0.999866,-0.011149,-0.001301,0.011892,0.596297,0.208610,-0.761284,-0.146144
11391,NaN,8.982164,-27.046054,5.031590,-3.198510,-28.167838,-15.614836,-1.770049,0.048897,4.496524,-0.832520,-0.494141,-0.194580,0.095877,-0.267891,0.052672,0.999708,-0.008849,0.000244,0.022480,0.601447,0.186194,-0.764308,-0.139380
11392,NaN,11.701833,-44.728787,-9.504526,11.455576,-45.346926,-16.130270,-2.633078,-0.508442,4.238508,-0.844727,-0.453369,-0.203857,0.126709,-0.445868,-0.088855,0.999686,-0.013164,-0.002542,0.021190,0.605421,0.163180,-0.767215,-0.134974
11393,NaN,19.548445,-16.307414,-3.527577,0.377582,-22.873035,1.898572,-2.429055,-0.472508,2.371716,-0.858398,-0.431885,-0.197754,0.197483,-0.161149,-0.032846,0.999853,-0.012145,-0.002362,0.011858,0.607109,0.146387,-0.768824,-0.137475
11394,NaN,15.650275,3.328401,-0.404137,-3.285825,-2.854573,5.588894,0.046789,-0.885671,2.836281,-0.872314,-0.404053,-0.194092,0.156026,0.035500,-0.003342,0.999890,0.000234,-0.004428,0.014181,0.606337,0.136905,-0.773042,-0.126566
11395,NaN,7.312344,-0.095445,-3.338505,1.542402,-2.751784,-2.418875,0.701190,-1.016375,2.948485,-0.885986,-0.380615,-0.183838,0.073294,0.000241,-0.033013,0.999872,0.003506,-0.005082,0.014742,0.603723,0.126973,-0.778482,-0.115593
11396,NaN,6.668299,-3.230970,-7.857984,6.203064,-5.385948,-2.801109,0.151163,-0.820421,2.502041,-0.895508,-0.356934,-0.175537,0.067401,-0.031410,-0.078328,0.999913,0.000756,-0.004102,0.012510,0.602488,0.119032,-0.782136,-0.105368
11397,NaN,13.327029,-6.380764,-5.633535,2.462539,-10.242126,1.980701,-0.510787,-0.687869,2.391328,-0.904785,-0.339844,-0.171631,0.134214,-0.062349,-0.055714,0.999919,-0.002554,-0.003439,0.011956,0.601320,0.107769,-0.785295,-0.100560
11398,NaN,13.105784,-7.974113,-3.567912,0.515192,-11.392636,1.050517,0.026362,-0.561149,2.275977,-0.911865,-0.320557,-0.165527,0.132053,-0.078237,-0.035320,0.999931,0.000132,-0.002806,0.011380,0.600769,0.100405,-0.787811,-0.091376
11399,NaN,7.716950,-2.840186,-3.669167,1.656617,-4.818038,-2.388406,0.503864,-0.623215,1.935085,-0.921143,-0.301270,-0.157227,0.077553,-0.027561,-0.036521,0.999945,0.002519,-0.003116,0.009675,0.598920,0.094004,-0.790836,-0.083883
11400,NaN,10.296488,-4.690751,-1.726349,-0.820782,-7.047981,-0.832176,0.475703,-0.439523,1.783172,-0.926025,-0.288330,-0.153076,0.103415,-0.045946,-0.017147,0.999955,0.002378,-0.002198,0.008916,0.598173,0.089970,-0.792822,-0.074352
11401,NaN,11.157062,-4.600727,0.475705,-3.218860,-6.982962,-0.498847,0.624696,-0.309122,1.483936,-0.926270,-0.279785,-0.144775,0.111901,-0.045193,0.004788,0.999966,0.003123,-0.001546,0.007420,0.597205,0.085836,-0.794615,-0.067569
11402,NaN,9.769098,-2.222460,-0.536410,-2.003500,-4.229690,-0.938194,0.817950,-0.344585,1.251167,-0.930908,-0.266846,-0.146973,0.097837,-0.021591,-0.005285,0.999971,0.004090,-0.001723,0.006256,0.596337,0.084978,-0.796097,-0.058225
11403,NaN,10.179389,-1.899308,-1.196707,-1.535930,-3.874761,-0.258357,0.739464,-0.322765,1.131075,-0.933594,-0.256348,-0.138672,0.101918,-0.018373,-0.011871,0.999976,0.003697,-0.001614,0.005655,0.595060,0.082582,-0.797732,-0.052040
11404,NaN,10.414690,-0.623265,-1.751001,-1.175779,-2.534897,0.390787,0.679347,-0.309057,0.993092,-0.936035,-0.249756,-0.134521,0.104203,-0.005656,-0.017369,0.999981,0.003397,-0.001545,0.004965,0.594191,0.082311,-0.798886,-0.044074
11405,NaN,10.224066,0.160964,-1.707293,-1.264668,-1.626014,0.347433,0.587677,-0.288934,0.895250,-0.943115,-0.232666,-0.132568,0.102256,0.002117,-0.016919,0.999985,0.002938,-0.001445,0.004476,0.592990,0.080413,-0.800226,-0.039179
11406,NaN,9.988911,-0.400834,-2.105506,-0.791591,-2.015493,0.171424,0.571728,-0.265560,0.857169,-0.940918,-0.230469,-0.128418,0.099933,-0.003520,-0.020933,0.999986,0.002859,-0.001328,0.004286,0.592207,0.080303,-0.801130,-0.032144
11407,NaN,9.934941,-0.711514,-2.688281,-0.223293,-2.196008,0.265165,0.499179,-0.212022,0.794200,-0.938965,-0.228516,-0.126221,0.099405,-0.006654,-0.026794,0.999988,0.002496,-0.001060,0.003971,0.591285,0.078562,-0.802143,-0.027872
11408,NaN,10.409200,-0.599277,-2.660016,-0.407814,-2.060377,0.740707,0.440994,-0.154998,0.725337,-0.945557,-0.221924,-0.122070,0.104133,-0.005557,-0.026532,0.999991,0.002205,-0.000775,0.003627,0.590893,0.078540,-0.802621,-0.021812
11409,NaN,10.250768,-0.573588,-1.365171,-1.616542,-2.007841,0.218556,0.329506,-0.082278,0.675569,-0.950195,-0.213379,-0.126465,0.102532,-0.005367,-0.013619,0.999993,0.001648,-0.000411,0.003378,0.590510,0.076789,-0.803155,-0.018520
11410,NaN,10.042590,-0.380499,-1.629431,-1.326073,-1.693420,0.138540,0.249069,-0.080486,0.618988,-0.948242,-0.209229,-0.117920,0.100444,-0.003474,-0.016258,0.999994,0.001245,-0.000402,0.003095,0.590422,0.076575,-0.803339,-0.013605
11411,NaN,10.259245,-1.086384,-2.989291,-0.034042,-2.260807,0.687568,0.395185,-0.060939,0.577818,-0.944092,-0.200439,-0.120361,0.102632,-0.010508,-0.029883,0.999994,0.001976,-0.000305,0.002889,0.590069,0.075412,-0.803757,-0.010329
11412,NaN,9.997006,-1.343394,-3.369701,0.439664,-2.361614,0.547269,0.638166,-0.020433,0.559751,-0.946289,-0.198486,-0.124512,0.100010,-0.013046,-0.033729,0.999991,0.003191,-0.000102,0.002799,0.590015,0.076528,-0.803747,-0.004084
11413,NaN,9.684026,-1.218126,-3.173463,0.328275,-2.136686,0.220325,0.885843,0.025545,0.527829,-0.950928,-0.194092,-0.114014,0.096868,-0.011785,-0.031800,0.999987,0.004429,0.000128,0.002639,0.589788,0.077015,-0.803876,0.001050
11414,NaN,9.291899,-0.878012,-2.315462,-0.400336,-1.745350,-0.364686,0.989394,0.022331,0.506639,-0.946777,-0.189941,-0.111816,0.092938,-0.008430,-0.023207,0.999985,0.004947,0.000112,0.002533,0.589692,0.079322,-0.803678,0.008489
11415,NaN,9.835113,-0.712105,-1.797836,-1.073214,-1.633373,0.018320,0.972223,0.006096,0.486005,-0.948975,-0.185547,-0.107666,0.098367,-0.006795,-0.018015,0.999985,0.004861,0.000030,0.002430,0.589309,0.080229,-0.803795,0.013838
11416,NaN,9.939147,-0.667045,-1.587206,-1.302475,-1.553939,0.068574,0.906482,-0.007708,0.472218,-0.953369,-0.185547,-0.109863,0.099407,-0.006364,-0.015898,0.999987,0.004532,-0.000039,0.002361,0.589050,0.082371,-0.803620,0.020748
11417,NaN,9.599744,-0.745971,-1.458577,-1.318620,-1.553995,-0.289816,0.816621,-0.039094,0.454099,-0.949219,-0.181396,-0.107666,0.096017,-0.007182,-0.014597,0.999989,0.004083,-0.000195,0.002270,0.588510,0.082949,-0.803823,0.025358
11418,NaN,9.408152,-0.613497,-1.344813,-1.391347,-1.359840,-0.489974,0.692893,-0.064895,0.455296,-0.955811,-0.179199,-0.107910,0.094099,-0.005874,-0.013438,0.999991,0.003464,-0.000324,0.002276,0.588051,0.084473,-0.803794,0.031242
11419,NaN,9.274440,-0.492865,-1.636329,-1.111120,-1.132982,-0.516599,0.568414,-0.064197,0.474326,-0.953857,-0.170654,-0.103760,0.092761,-0.004662,-0.016347,0.999993,0.002842,-0.000321,0.002372,0.587482,0.084242,-0.804083,0.034902
11420,NaN,9.306159,-0.738398,-2.008983,-0.731941,-1.257350,-0.375055,0.458686,-0.059219,0.502627,-0.958252,-0.166260,-0.105957,0.093086,-0.007104,-0.020079,0.999994,0.002293,-0.000296,0.002513,0.587091,0.084814,-0.804078,0.039881
11421,NaN,9.276874,-0.969456,-2.495058,-0.238282,-1.345238,-0.254508,0.416347,-0.038788,0.542680,-0.954102,-0.166260,-0.099365,0.092799,-0.009391,-0.024952,0.999994,0.002082,-0.000194,0.002713,0.586654,0.083856,-0.804329,0.043139
11422,NaN,9.098889,-0.656467,-2.786669,0.021943,-0.900532,-0.316664,0.404514,-0.059492,0.604209,-0.956787,-0.151367,-0.101807,0.091016,-0.006233,-0.027852,0.999993,0.002023,-0.000297,0.003021,0.586219,0.083782,-0.804373,0.048089
11423,NaN,8.937602,-0.161321,-2.991841,0.147762,-0.298851,-0.392164,0.396599,-0.095209,0.681200,-0.952393,-0.149170,-0.097412,0.089395,-0.001249,-0.029879,0.999992,0.001983,-0.000476,0.003406,0.585509,0.082221,-0.804830,0.051649
11424,NaN,8.740855,-0.085311,-2.942629,0.127688,-0.134625,-0.591304,0.372468,-0.072325,0.789975,-0.957031,-0.138428,-0.104248,0.087421,-0.000453,-0.029396,0.999990,0.001862,-0.000362,0.003950,0.584939,0.081216,-0.804994,0.056882
11425,NaN,8.613966,-0.281082,-2.504298,-0.225248,-0.320032,-0.846241,0.304155,-0.042171,0.900102,-0.957275,-0.132080,-0.097900,0.086156,-0.002385,-0.025029,0.999989,0.001521,-0.000211,0.004500,0.584390,0.078488,-0.805382,0.060729
11426,NaN,9.004636,-0.504941,-2.059632,-0.730460,-0.550266,-0.607070,0.256135,-0.018388,0.999322,-0.959717,-0.123291,-0.097900,0.090072,-0.004573,-0.020594,0.999987,0.001281,-0.000092,0.004997,0.583965,0.076192,-0.805496,0.066001
11427,NaN,9.780060,-0.757533,-1.450227,-1.507108,-0.852407,-0.049100,0.185469,-0.012077,1.082671,-0.962402,-0.114746,-0.091553,0.097841,-0.007032,-0.014503,0.999985,0.000927,-0.000060,0.005413,0.583487,0.072369,-0.805865,0.069913
11428,NaN,10.678743,-1.324410,-0.951944,-2.154844,-1.421594,0.676845,0.113248,-0.018688,1.124375,-0.969238,-0.102051,-0.096191,0.106861,-0.012638,-0.009517,0.999984,0.000566,-0.000093,0.005622,0.583012,0.069084,-0.806050,0.074877
11429,NaN,11.493216,-1.981151,-1.018840,-2.245750,-1.946892,1.510816,0.105594,-0.007972,1.141077,-0.965332,-0.086914,-0.100586,0.115043,-0.019150,-0.010194,0.999984,0.000528,-0.000040,0.005705,0.582514,0.064788,-0.806410,0.078634
11430,NaN,11.860979,-2.620133,-1.216885,-2.073383,-2.400400,1.975708,0.169467,-0.004360,1.134709,-0.961182,-0.086914,-0.098389,0.118756,-0.025518,-0.012188,0.999984,0.000847,-0.000022,0.005674,0.582020,0.061583,-0.806497,0.083801
11431,NaN,12.052843,-3.189027,-1.217335,-2.051718,-2.821853,2.218470,0.325334,-0.000047,1.100312,-0.963867,-0.072021,-0.094482,0.120701,-0.031207,-0.012224,0.999984,0.001627,-0.000000,0.005502,0.581456,0.058085,-0.806681,0.088322
11432,NaN,12.276583,-2.831410,-0.887911,-2.514558,-2.399485,2.329701,0.481761,-0.005675,1.072137,-0.966309,-0.056885,-0.098877,0.122915,-0.027634,-0.008943,0.999983,0.002409,-0.000028,0.005361,0.580832,0.056020,-0.806573,0.094528
11433,NaN,12.196132,-2.042432,-1.307345,-2.280254,-1.400265,2.330800,0.610196,0.039577,1.097383,-0.964600,-0.046143,-0.092773,0.122068,-0.019715,-0.013158,0.999980,0.003051,0.000198,0.005487,0.580298,0.053339,-0.806456,0.100195
11434,NaN,11.722658,-1.435340,-1.541159,-2.049170,-0.622211,1.903457,0.635567,0.056778,1.153597,-0.966797,-0.044189,-0.099121,0.117302,-0.013628,-0.015489,0.999978,0.003178,0.000284,0.005768,0.579777,0.051336,-0.806056,0.107225
11435,NaN,11.887072,-0.993076,-1.716258,-2.052709,0.007495,2.062430,0.634297,0.086406,1.247542,-0.963379,-0.022705,-0.103760,0.118922,-0.009134,-0.017244,0.999975,0.003171,0.000432,0.006238,0.579286,0.048092,-0.805760,0.113427
11436,NaN,12.130381,-0.634992,-2.073163,-1.895513,0.627310,2.347006,0.649506,0.140310,1.371231,-0.968262,-0.005615,-0.101807,0.121329,-0.005451,-0.020835,0.999971,0.003247,0.000702,0.006856,0.578897,0.045154,-0.805095,0.121083
11437,NaN,12.125413,-0.736338,-2.339403,-1.648265,0.783910,2.422754,0.704965,0.158595,1.498233,-0.966309,0.003174,-0.102051,0.121286,-0.006372,-0.023514,0.999965,0.003525,0.000793,0.007491,0.578456,0.041058,-0.804514,0.128299
11438,NaN,11.735544,-0.798703,-0.984029,-2.777117,0.547876,1.646515,0.684719,0.130741,1.644192,-0.960449,0.015869,-0.097900,0.117409,-0.006988,-0.009942,0.999960,0.003424,0.000654,0.008221,0.577747,0.037066,-0.803819,0.136781
11439,NaN,11.432540,-0.503554,0.891738,-4.494529,0.507500,0.736719,0.541836,0.121952,1.806786,-0.958984,0.039551,-0.100342,0.114370,-0.004026,0.008836,0.999955,0.002709,0.000610,0.009034,0.576882,0.031276,-0.803389,0.144205
11440,NaN,11.964131,-0.367827,1.773805,-5.540716,0.671592,0.923562,0.395494,0.172085,1.990932,-0.959473,0.054443,-0.104980,0.119685,-0.002522,0.017629,0.999948,0.001977,0.000860,0.009954,0.576021,0.024989,-0.802704,0.152449
11441,NaN,13.441196,-0.321401,0.059196,-4.505516,1.642857,2.747836,0.437237,0.259564,2.164479,-0.949463,0.075928,-0.105225,0.134437,-0.001760,0.000413,0.999938,0.002186,0.001298,0.010822,0.575330,0.017353,-0.801838,0.160470
11442,NaN,14.880354,-0.368731,-2.786258,-2.404416,2.940360,4.846298,0.663894,0.310603,2.333964,-0.954590,0.099609,-0.116211,0.148789,-0.001858,-0.028102,0.999925,0.003319,0.001553,0.011670,0.574572,0.010328,-0.800388,0.170704
11443,NaN,15.467514,-0.482716,-3.398265,-2.059358,3.494768,5.502544,0.899452,0.262730,2.488872,-0.944580,0.118896,-0.114258,0.154673,-0.002749,-0.034201,0.999912,0.004497,0.001314,0.012444,0.573409,0.002718,-0.798916,0.181461
11444,NaN,16.154649,-0.192279,-1.832785,-3.845750,3.864053,5.504991,1.148937,0.215769,2.639673,-0.943115,0.142334,-0.123291,0.161532,0.000315,-0.018505,0.999896,0.005744,0.001079,0.013198,0.571762,-0.004130,-0.797060,0.194336
11445,NaN,17.991914,1.637436,-1.020314,-5.685683,6.179805,6.215143,1.466589,0.274929,2.813754,-0.935791,0.176758,-0.125977,0.179650,0.018979,-0.010317,0.999873,0.007333,0.001375,0.014068,0.570087,-0.011426,-0.794683,0.208204
11446,NaN,19.702509,4.597516,-1.606130,-6.487298,10.003748,6.610213,1.645219,0.401329,3.022861,-0.923584,0.200195,-0.136963,0.196267,0.049078,-0.016060,0.999850,0.008226,0.002007,0.015114,0.568508,-0.018632,-0.791397,0.223924
11447,NaN,20.015246,6.804795,-3.983812,-5.033046,13.413401,6.233708,1.627821,0.374399,3.287217,-0.917969,0.226074,-0.145752,0.198920,0.071647,-0.039638,0.999830,0.008139,0.001872,0.016435,0.566370,-0.027437,-0.788063,0.239645
11448,NaN,19.310155,7.707612,-4.919448,-4.269062,14.867423,4.924000,1.420488,0.249203,3.570959,-0.901855,0.258057,-0.146240,0.191619,0.080854,-0.048869,0.999815,0.007102,0.001246,0.017854,0.563166,-0.037385,-0.784905,0.255678
11449,NaN,19.520760,7.823042,-4.806557,-4.613438,15.553348,4.403797,1.237142,0.046537,3.883284,-0.892334,0.294434,-0.150879,0.193625,0.082296,-0.047610,0.999792,0.006185,0.000233,0.019415,0.558505,-0.049202,-0.782295,0.271414
11450,NaN,20.869010,3.573028,-5.760187,-3.482229,13.458913,7.161174,1.258205,-0.111087,4.330781,-0.869873,0.328857,-0.159912,0.207878,0.040599,-0.057241,0.999746,0.006290,-0.000555,0.021652,0.552435,-0.062254,-0.779551,0.288515
11451,NaN,22.685072,-0.150909,-8.908480,-0.818034,13.195008,10.659085,1.367630,-0.392704,4.854020,-0.856445,0.373779,-0.156250,0.226963,0.004606,-0.088622,0.999680,0.006837,-0.001963,0.024268,0.544157,-0.076818,-0.776894,0.307290
11452,NaN,23.882296,-1.116539,-12.861461,2.035452,15.552479,12.342323,0.941655,-0.650791,5.245685,-0.834473,0.418701,-0.154785,0.239412,-0.004287,-0.127867,0.999640,0.004708,-0.003254,0.026225,0.533889,-0.093560,-0.774866,0.325256
11453,NaN,25.774314,0.678256,-9.821745,-2.223988,17.680778,11.247458,0.626510,-0.384054,5.058955,-0.812012,0.455078,-0.150879,0.257644,0.013608,-0.097687,0.999673,0.003132,-0.001920,0.025292,0.524299,-0.110841,-0.772245,0.341267
11454,NaN,20.606722,-1.155083,-6.228768,-3.178985,12.989413,7.094236,1.508683,-0.500731,4.663316,-0.785156,0.487305,-0.159668,0.206410,-0.006273,-0.061832,0.999697,0.007543,-0.002503,0.023314,0.515363,-0.124181,-0.768128,0.359109
11455,NaN,18.831059,2.641840,-6.889383,-2.787663,15.631649,2.711599,2.129254,-0.527145,4.156140,-0.756104,0.517090,-0.168701,0.187878,0.031054,-0.068084,0.999724,0.010645,-0.002635,0.020779,0.507061,-0.133685,-0.762862,0.378230
11456,NaN,18.754854,9.698919,-7.778179,-3.423030,21.150677,-2.943513,1.248322,-0.323772,3.553120,-0.737305,0.536377,-0.170898,0.185905,0.100783,-0.076859,0.999821,0.006241,-0.001619,0.017765,0.500248,-0.143758,-0.758782,0.391580
11457,NaN,17.126630,11.833313,-6.790975,-3.947104,21.276113,-6.468901,0.240418,0.124202,2.913929,-0.718506,0.555664,-0.171143,0.169475,0.120893,-0.067871,0.999893,0.001202,0.000621,0.014569,0.495139,-0.154450,-0.755816,0.399656
11458,NaN,13.427526,5.951223,-1.499410,-5.825600,12.967228,-5.829982,0.889862,0.381795,2.808014,-0.701904,0.570557,-0.181885,0.133393,0.061456,-0.014979,0.999890,0.004449,0.001909,0.014040,0.492183,-0.164141,-0.750809,0.408778
11459,NaN,7.494461,-4.360673,-3.774661,0.509326,4.047250,-1.281438,1.628189,0.334332,2.965860,-0.683105,0.589844,-0.195068,0.075514,-0.042180,-0.038220,0.999856,0.008141,0.001672,0.014829,0.488647,-0.171938,-0.744107,0.421860
11460,NaN,4.026161,-19.204893,-4.170412,4.839696,-6.360585,8.586150,2.333937,-0.393366,2.118433,-0.668213,0.592041,-0.203613,0.042374,-0.191104,-0.043856,0.999874,0.011669,-0.001967,0.010592,0.485316,-0.173839,-0.738202,0.435093
11461,NaN,10.293932,-7.079964,-5.100325,0.724734,5.509356,2.484584,1.225935,-1.093016,0.866223,-0.666016,0.589844,-0.199219,0.103522,-0.070040,-0.050869,0.999957,0.006130,-0.005465,0.004331,0.480447,-0.171687,-0.737393,0.442657
11462,NaN,8.796810,13.684785,-1.828075,-5.044465,14.361670,-15.837021,1.081664,-0.180651,-0.105391,-0.663818,0.589844,-0.214111,0.088056,0.136897,-0.017461,0.999985,0.005408,-0.000903,-0.000527,0.481564,-0.168858,-0.735500,0.445671
11463,NaN,2.206680,13.615793,1.910913,-5.221355,7.976112,-19.962983,0.746663,-0.124891,-0.569027,-0.665771,0.583496,-0.214111,0.022442,0.136022,0.019631,0.999989,0.003733,-0.000624,-0.002845,0.483003,-0.164698,-0.734601,0.447152
11464,NaN,1.168187,9.841436,2.671209,-4.725179,4.884812,-17.504521,-0.163669,-0.155695,-1.077589,-0.671875,0.572754,-0.209717,0.012191,0.098371,0.026641,0.999985,-0.000818,-0.000778,-0.005388,0.485390,-0.161400,-0.736214,0.443097
11465,NaN,1.147846,6.768084,1.690162,-3.301676,3.726972,-14.831542,-0.695417,-0.147889,-1.389731,-0.684570,0.566406,-0.209717,0.011936,0.067657,0.016675,0.999970,-0.003477,-0.000739,-0.006949,0.487354,-0.157650,-0.739204,0.437275
11466,NaN,0.895677,4.978368,0.344951,-1.676400,3.292593,-13.284433,-0.946566,-0.105041,-1.821202,-0.684082,0.555664,-0.198730,0.009408,0.049715,0.003219,0.999947,-0.004733,-0.000525,-0.009106,0.490848,-0.153585,-0.742920,0.428427
11467,NaN,0.164793,4.280685,-1.233842,0.154368,3.251201,-12.858774,-0.872758,-0.240748,-2.321699,-0.700684,0.538574,-0.190186,0.002159,0.042729,-0.012523,0.999922,-0.004364,-0.001204,-0.011608,0.494225,-0.146586,-0.747097,0.419643
11468,NaN,0.720347,4.257635,-2.788810,1.228474,4.411554,-12.147464,-0.794771,-0.408586,-2.820822,-0.715088,0.514893,-0.187744,0.007859,0.042357,-0.028041,0.999891,-0.003974,-0.002043,-0.014104,0.498620,-0.137746,-0.751763,0.408970
11469,NaN,1.646134,4.790196,-3.077261,0.915163,5.522565,-11.758399,-1.060503,-0.407177,-3.311212,-0.733887,0.497803,-0.174561,0.017312,0.047456,-0.030990,0.999847,-0.005302,-0.002036,-0.016555,0.503060,-0.127100,-0.757104,0.396951
11470,NaN,2.405531,4.489043,-2.218545,-0.114847,5.428003,-10.987307,-1.422190,-0.344183,-3.649174,-0.752197,0.467773,-0.169922,0.024906,0.044282,-0.022459,0.999807,-0.007110,-0.001721,-0.018245,0.508608,-0.116818,-0.762985,0.381477
11471,NaN,3.365313,3.717428,-1.574800,-0.944153,5.168532,-9.690021,-1.721072,-0.304161,-4.008841,-0.764160,0.442139,-0.144043,0.034412,0.036353,-0.016011,0.999761,-0.008605,-0.001521,-0.020043,0.513974,-0.105303,-0.769192,0.364809
11472,NaN,4.050246,2.709463,-1.475871,-1.095498,4.739772,-8.311513,-1.684476,-0.277021,-4.395153,-0.782715,0.416504,-0.152344,0.041104,0.026070,-0.014925,0.999722,-0.008422,-0.001385,-0.021974,0.520462,-0.092898,-0.775112,0.345964
11473,NaN,4.435496,1.982646,-1.651787,-0.933415,4.375060,-7.299729,-1.514574,-0.266616,-4.785228,-0.796387,0.373535,-0.136719,0.044832,0.018632,-0.016602,0.999684,-0.007572,-0.001333,-0.023924,0.526845,-0.077813,-0.780395,0.327662
11474,NaN,5.425164,2.262645,-1.572051,-1.452903,4.869112,-6.466749,-1.367769,-0.285537,-5.161561,-0.820801,0.337158,-0.125488,0.054832,0.021108,-0.015790,0.999643,-0.006838,-0.001428,-0.025805,0.533973,-0.061508,-0.785174,0.307557
11475,NaN,6.399235,2.676101,-1.204198,-2.249605,5.256836,-5.707362,-1.231068,-0.315972,-5.487898,-0.834717,0.300781,-0.118652,0.064712,0.024917,-0.012097,0.999603,-0.006155,-0.001580,-0.027436,0.540589,-0.042750,-0.789279,0.288054
11476,NaN,7.611694,2.598747,-0.904936,-2.933683,5.254528,-4.402028,-1.111727,-0.339842,-5.724802,-0.847900,0.249268,-0.115723,0.076833,0.023744,-0.009055,0.999573,-0.005558,-0.001699,-0.028620,0.547465,-0.023400,-0.792771,0.266925
11477,NaN,8.750115,1.864729,-0.612889,-3.389943,4.509675,-2.843895,-1.035249,-0.343613,-5.972845,-0.871826,0.195801,-0.106445,0.088016,0.015992,-0.006065,0.999539,-0.005175,-0.001718,-0.029860,0.553709,-0.002099,-0.795418,0.246397
11478,NaN,9.667381,1.490784,-0.066431,-4.013228,3.749103,-1.719952,-1.004580,-0.321004,-6.224637,-0.881348,0.155029,-0.099609,0.097076,0.011887,-0.000573,0.999502,-0.005022,-0.001605,-0.031118,0.560180,0.019531,-0.797327,0.223800
11479,NaN,10.772612,1.236845,0.109599,-4.374103,3.126725,-0.397736,-1.055280,-0.325326,-6.435885,-0.890137,0.099365,-0.092285,0.108048,0.008901,0.001219,0.999467,-0.005275,-0.001626,-0.032174,0.565897,0.042576,-0.798358,0.201424
11480,NaN,12.224173,0.544829,0.317366,-4.683508,1.959055,1.322824,-1.055116,-0.299109,-6.674344,-0.898926,0.043701,-0.087158,0.122328,0.001384,0.003342,0.999428,-0.005275,-0.001495,-0.033365,0.571605,0.065812,-0.798522,0.176917
11481,NaN,14.180546,0.335318,0.622404,-5.314609,1.007021,3.311689,-1.033599,-0.263796,-6.919036,-0.903320,-0.018555,-0.082031,0.141801,-0.001520,0.006411,0.999387,-0.005167,-0.001319,-0.034588,0.576671,0.090666,-0.797417,0.152830
11482,NaN,16.354827,0.412183,0.829341,-5.905203,0.063961,5.463135,-1.000617,-0.198467,-7.129513,-0.911621,-0.084961,-0.074707,0.163549,-0.001667,0.008454,0.999352,-0.005002,-0.000992,-0.035640,0.581598,0.115682,-0.795141,0.126934
11483,NaN,18.729144,-0.472336,0.833091,-5.925189,-2.052853,7.857048,-0.856928,-0.141800,-7.347688,-0.911621,-0.151367,-0.069336,0.186944,-0.011561,0.008503,0.999316,-0.004284,-0.000709,-0.036730,0.585805,0.142403,-0.791296,0.102003
11484,NaN,21.523260,-0.912935,0.705834,-5.915276,-4.129732,10.492970,-0.775558,-0.036251,-7.524622,-0.905029,-0.218018,-0.066162,0.214686,-0.017187,0.007154,0.999285,-0.003877,-0.000181,-0.037614,0.589750,0.169320,-0.785993,0.075765
11485,NaN,24.684897,-0.782311,0.072199,-5.535202,-5.981284,13.495064,-0.948032,0.076875,-7.632543,-0.887207,-0.299316,-0.060547,0.246311,-0.017228,0.000694,0.999261,-0.004739,0.000384,-0.038153,0.593319,0.196357,-0.779077,0.049553
11486,NaN,28.426140,-2.646140,-0.262294,-4.588791,-10.349569,16.389363,-1.026735,0.212104,-7.648081,-0.869385,-0.376465,-0.067871,0.282970,-0.037314,-0.002751,0.999255,-0.005132,0.001060,-0.038231,0.596677,0.222562,-0.770681,0.022205
11487,NaN,31.907555,-6.248651,-0.272545,-2.930128,-16.621470,17.969486,-0.788583,0.494619,-7.549040,-0.836670,-0.449463,-0.073242,0.316407,-0.074477,-0.003232,0.999277,-0.003942,0.002472,-0.037736,0.599876,0.249075,-0.760330,-0.002809
11488,NaN,34.669256,-8.080246,-0.823775,-1.009744,-21.047788,18.880952,-0.812810,0.839028,-7.312795,-0.797607,-0.518066,-0.078369,0.343392,-0.093437,-0.009320,0.999315,-0.004063,0.004194,-0.036556,0.603641,0.274151,-0.748140,-0.027290
11489,NaN,35.279127,-8.823123,-3.457544,2.861958,-22.978115,18.430369,-1.290429,1.050143,-6.976588,-0.754883,-0.571777,-0.090088,0.349238,-0.100685,-0.035793,0.999357,-0.006451,0.005250,-0.034875,0.608007,0.296315,-0.734746,-0.051705
11490,NaN,33.538641,-11.486489,-8.648888,9.951894,-24.375643,15.443233,-1.822127,0.996061,-6.466544,-0.708008,-0.623291,-0.104248,0.330991,-0.126407,-0.087028,0.999423,-0.009109,0.004979,-0.032327,0.612487,0.314720,-0.721068,-0.076631
11491,NaN,27.636241,-22.162532,-13.405351,19.339240,-29.287669,4.415425,-1.323768,0.675208,-5.855173,-0.667725,-0.664062,-0.107666,0.269250,-0.230463,-0.133465,0.999544,-0.006618,0.003376,-0.029271,0.614491,0.331889,-0.708944,-0.098228
11492,NaN,18.649856,-34.583053,-13.682700,24.682993,-33.441027,-11.582832,0.066060,0.056624,-5.096932,-0.629883,-0.698486,-0.102539,0.177568,-0.350387,-0.136993,0.999675,0.000330,0.000283,-0.025482,0.612084,0.350321,-0.699863,-0.113222
11493,NaN,10.336569,-42.597175,-7.373118,22.199396,-35.051625,-25.751338,1.742615,-0.588454,-3.845760,-0.596924,-0.719971,-0.084961,0.095382,-0.427195,-0.077162,0.999773,0.008712,-0.002942,-0.019227,0.604667,0.368698,-0.695748,-0.119891
11494,NaN,5.889463,-40.172964,-1.590964,16.672332,-31.167847,-29.852207,1.850818,-0.868644,-2.138309,-0.590332,-0.728516,-0.065674,0.054676,-0.402161,-0.019386,0.999891,0.009254,-0.004343,-0.010691,0.597159,0.381560,-0.695144,-0.120780
11495,NaN,8.871043,-32.786129,-0.099208,12.874239,-28.184205,-23.724422,0.703572,-0.782578,-0.403990,-0.588135,-0.728760,-0.054932,0.088054,-0.328034,-0.001800,0.999984,0.003518,-0.003913,-0.002020,0.592853,0.384587,-0.697116,-0.121024
11496,NaN,12.615670,-27.416048,2.099441,8.732222,-27.772882,-18.034279,-0.741703,-0.335867,1.547279,-0.599609,-0.711426,-0.059326,0.128236,-0.273093,0.022223,0.999962,-0.003708,-0.001679,0.007736,0.594369,0.377319,-0.700212,-0.118572
11497,NaN,11.569635,-24.662373,-0.365983,9.431566,-24.805474,-15.966182,-2.406984,-0.269881,3.099539,-0.621582,-0.694336,-0.081299,0.119502,-0.244810,-0.000547,0.999807,-0.012034,-0.001349,0.015497,0.599697,0.359083,-0.705292,-0.118266
11498,NaN,13.181877,-23.013569,-4.474995,11.884490,-24.026495,-11.995159,-3.081212,-0.544051,3.937849,-0.644287,-0.659912,-0.090332,0.136439,-0.228129,-0.040858,0.999684,-0.015404,-0.002720,0.019687,0.605846,0.336211,-0.711520,-0.116841
11499,NaN,15.925443,-17.999416,-6.634613,11.243429,-21.861629,-5.671606,-2.957938,-0.953757,4.439876,-0.677490,-0.629883,-0.101807,0.163517,-0.177343,-0.062937,0.999633,-0.014788,-0.004768,0.022197,0.609806,0.310778,-0.719875,-0.115467
11500,NaN,23.208151,-11.700575,-5.760365,7.200321,-21.367947,4.333713,-2.457052,-1.431434,4.874847,-0.706543,-0.597656,-0.106689,0.235250,-0.111980,-0.054531,0.999602,-0.012284,-0.007156,0.024371,0.611423,0.285586,-0.729732,-0.109968
11501,NaN,27.925891,18.529960,7.721895,-15.088866,-1.001411,21.073496,-3.332832,-1.079057,3.852735,-0.722656,-0.567383,-0.120117,0.275194,0.191896,0.075550,0.999661,-0.016662,-0.005395,0.019261,0.614166,0.260652,-0.736445,-0.111845
11502,NaN,25.766565,74.942431,25.958547,-45.034733,46.537914,42.713899,-4.426493,-0.442493,1.517145,-0.729492,-0.556641,-0.137451,0.251392,0.756855,0.243449,0.999724,-0.022130,-0.002212,0.007585,0.619402,0.242020,-0.736763,-0.122261
11503,NaN,9.197509,37.084136,15.631289,-23.372293,25.700873,12.484147,-2.821213,-0.299139,2.688357,-0.745605,-0.522461,-0.153076,0.086731,0.374188,0.151182,0.999809,-0.014105,-0.001496,0.013441,0.623249,0.223151,-0.739070,-0.124658
11504,NaN,7.627928,-27.441404,3.860445,-0.368128,-28.055712,-16.029813,-2.957880,-0.105442,4.629872,-0.770752,-0.481445,-0.160156,0.082572,-0.271940,0.042681,0.999623,-0.014788,-0.000527,0.023146,0.629187,0.197366,-0.742144,-0.119972
11505,NaN,10.162327,-45.102991,-9.976353,13.990154,-44.511386,-17.533415,-3.199815,-0.773454,3.959831,-0.784668,-0.449463,-0.169434,0.110912,-0.450410,-0.092137,0.999669,-0.015997,-0.003867,0.019797,0.631651,0.172079,-0.746311,-0.120104
11506,NaN,19.698624,-16.563792,-2.287662,0.941858,-22.934811,2.048021,-2.638852,-0.604346,2.604900,-0.800537,-0.432129,-0.167480,0.199187,-0.163331,-0.020112,0.999824,-0.013193,-0.003022,0.013024,0.633567,0.154561,-0.748461,-0.120457
11507,NaN,14.279156,2.657441,-0.564606,-1.876993,-2.824189,4.320960,0.329030,-1.082016,2.788838,-0.809814,-0.408691,-0.155029,0.142430,0.028571,-0.004829,0.999887,0.001645,-0.005410,0.013944,0.630883,0.144497,-0.754149,-0.111206
11508,NaN,7.321280,-0.390186,-7.138421,5.802103,-2.743322,-1.843252,0.649870,-1.560696,3.034692,-0.823730,-0.382812,-0.140625,0.073812,-0.002554,-0.070820,0.999849,0.003249,-0.007803,0.015173,0.626537,0.135229,-0.761234,-0.098427
11509,NaN,9.560383,-2.132790,-11.343652,9.497021,-4.888876,0.700428,-0.739492,-1.336376,2.744788,-0.831055,-0.357178,-0.138672,0.096643,-0.020424,-0.112716,0.999877,-0.003697,-0.006682,0.013723,0.623235,0.121789,-0.766811,-0.093527
11510,NaN,14.314677,-1.520466,-2.600107,-0.157753,-5.599716,3.699923,-1.169878,-0.539511,2.513235,-0.846680,-0.340088,-0.132812,0.143393,-0.013554,-0.025532,0.999900,-0.005849,-0.002697,0.012566,0.623316,0.109188,-0.769208,-0.088739
11511,NaN,8.488917,-6.247358,0.401498,-1.783834,-8.287111,-3.536668,-0.382404,-0.657731,2.364051,-0.856201,-0.314209,-0.131104,0.085606,-0.061456,0.004414,0.999923,-0.001912,-0.003289,0.011820,0.622007,0.098602,-0.772311,-0.083185
11512,NaN,7.820363,-6.425984,-2.072716,0.701287,-8.151768,-3.503975,-0.156127,-0.731964,2.127631,-0.854736,-0.299316,-0.118408,0.078956,-0.063439,-0.020389,0.999936,-0.000781,-0.003660,0.010638,0.620396,0.090554,-0.775351,-0.075754
11513,NaN,11.009426,-3.760268,-1.174591,-1.076891,-6.149979,0.073687,-0.098583,-0.536122,1.893860,-0.865723,-0.288574,-0.120605,0.110475,-0.036563,-0.011432,0.999951,-0.000493,-0.002681,0.009469,0.619061,0.082695,-0.777789,-0.070492
11514,NaN,11.041298,-3.837779,-2.168085,-0.159919,-6.044552,0.423207,0.463035,-0.474159,1.661728,-0.877197,-0.271484,-0.108154,0.110778,-0.037408,-0.021506,0.999960,0.002315,-0.002371,0.008309,0.617848,0.078475,-0.779915,-0.061957
11515,NaN,9.836553,-1.818752,-2.064459,-0.133789,-3.665529,-0.280038,0.580110,-0.395606,1.468925,-0.871094,-0.260742,-0.099609,0.098536,-0.017405,-0.020501,0.999967,0.002901,-0.001978,0.007345,0.616524,0.074410,-0.781859,-0.055301
11516,NaN,9.492039,-0.776729,-0.829893,-1.335108,-2.440518,-0.666607,0.608268,-0.364417,1.279545,-0.875977,-0.247803,-0.104248,0.094982,-0.007135,-0.008148,0.999973,0.003041,-0.001822,0.006398,0.615438,0.072150,-0.783446,-0.047355
11517,NaN,10.034710,-1.347872,-1.341722,-0.971331,-2.971172,-0.089531,0.530172,-0.356813,1.106846,-0.878418,-0.239258,-0.095703,0.100443,-0.012888,-0.013273,0.999980,0.002651,-0.001784,0.005534,0.614110,0.069355,-0.785045,-0.041990
11518,NaN,10.015681,-0.234773,-1.539536,-0.870440,-1.746883,0.133612,0.334341,-0.351439,0.988494,-0.880859,-0.228516,-0.098145,0.100194,-0.001827,-0.015223,0.999985,0.001672,-0.001757,0.004942,0.613015,0.067377,-0.786367,-0.036057
11519,NaN,10.206754,0.156332,-2.178768,-0.360527,-1.272676,0.540991,0.247439,-0.306301,0.937426,-0.880859,-0.226562,-0.089600,0.102092,0.002069,-0.021629,0.999987,0.001237,-0.001531,0.004687,0.611900,0.064388,-0.787648,-0.032303
11520,NaN,9.949110,-0.825404,-2.681588,0.224802,-2.084618,0.309568,0.198794,-0.237266,0.871941,-0.887939,-0.209229,-0.087646,0.099557,-0.007794,-0.026706,0.999989,0.000994,-0.001186,0.004360,0.611214,0.062439,-0.788526,-0.027289
11521,NaN,10.019705,-1.274346,-2.277520,-0.181665,-2.466995,0.241458,0.158883,-0.185780,0.805727,-0.887939,-0.209229,-0.083496,0.100268,-0.012322,-0.022692,0.999991,0.000794,-0.000929,0.004029,0.610549,0.059716,-0.789352,-0.024248
11522,NaN,10.028013,-0.644277,-1.396737,-1.091342,-1.784798,0.114546,0.083475,-0.160475,0.760085,-0.890381,-0.200684,-0.083496,0.100315,-0.006056,-0.013889,0.999992,0.000417,-0.000802,0.003800,0.610136,0.057837,-0.789929,-0.020058
11523,NaN,10.044067,-0.425721,-1.200684,-1.321745,-1.503302,0.111967,0.079101,-0.178782,0.728322,-0.886475,-0.192139,-0.081543,0.100466,-0.003887,-0.011919,0.999993,0.000396,-0.000894,0.003642,0.609487,0.055177,-0.790678,-0.017564
11524,NaN,10.162235,-0.818307,-2.669341,0.078756,-1.759794,0.577810,0.261809,-0.156141,0.688254,-0.893066,-0.189941,-0.079346,0.101670,-0.007798,-0.026624,0.999993,0.001309,-0.000781,0.003441,0.608998,0.054102,-0.791219,-0.012935
11525,NaN,10.182901,-1.736340,-3.712101,1.129225,-2.547474,0.804311,0.518579,-0.083036,0.648958,-0.893311,-0.183594,-0.075195,0.101900,-0.016937,-0.037123,0.999991,0.002593,-0.000415,0.003245,0.608578,0.053101,-0.791665,-0.008919
11526,NaN,9.910216,-1.491983,-3.470088,0.950582,-2.191160,0.520489,0.623355,-0.020998,0.617480,-0.895508,-0.177246,-0.079590,0.099151,-0.014506,-0.034736,0.999990,0.003117,-0.000105,0.003087,0.608473,0.053383,-0.791771,-0.003085
11527,NaN,9.615476,-1.041063,-2.230456,-0.206366,-1.716828,-0.038964,0.573636,0.018097,0.561653,-0.893799,-0.170654,-0.071289,0.096181,-0.010077,-0.022342,0.999992,0.002868,0.000090,0.002808,0.608407,0.052898,-0.791860,0.000912
11528,NaN,9.954454,-0.836697,-1.310107,-1.190883,-1.530388,0.074022,0.431793,0.004462,0.531769,-0.897949,-0.170654,-0.073242,0.099566,-0.008074,-0.013121,0.999994,0.002159,0.000022,0.002659,0.608407,0.052905,-0.791839,0.005685
11529,NaN,9.944319,-0.919811,-0.808594,-1.667788,-1.593421,-0.062374,0.281707,-0.028053,0.511661,-0.895996,-0.164307,-0.071289,0.099467,-0.008932,-0.008085,0.999996,0.001409,-0.000140,0.002558,0.608216,0.051729,-0.792040,0.008361
11530,NaN,9.933515,-1.107618,-0.670101,-1.782162,-1.733259,-0.108560,0.174720,-0.063440,0.466562,-0.898193,-0.166504,-0.073486,0.099363,-0.010839,-0.006679,0.999997,0.000874,-0.000317,0.002333,0.607994,0.051190,-0.792201,0.011852
11531,NaN,9.658570,-1.461605,-0.693085,-1.668620,-2.020535,-0.376713,0.149518,-0.125825,0.439970,-0.902832,-0.157959,-0.073486,0.096622,-0.014398,-0.006881,0.999997,0.000748,-0.000629,0.002200,0.607442,0.049901,-0.792676,0.013762
11532,NaN,10.104778,-1.663202,-1.403975,-1.089450,-2.136663,0.241738,0.261758,-0.164612,0.442790,-0.900879,-0.153564,-0.064941,0.101096,-0.016390,-0.013978,0.999996,0.001309,-0.000823,0.002214,0.606783,0.049707,-0.793120,0.017455
11533,NaN,10.070586,-1.252133,-2.129786,-0.446035,-1.610861,0.420905,0.397910,-0.216430,0.487844,-0.907471,-0.145020,-0.067383,0.100759,-0.012233,-0.021213,0.999994,0.001990,-0.001082,0.002439,0.605791,0.048989,-0.793850,0.020472
11534,NaN,9.767527,-0.653876,-2.641920,0.041568,-0.880763,0.288500,0.479285,-0.227972,0.559825,-0.901123,-0.142822,-0.067383,0.097723,-0.006202,-0.026323,0.999993,0.002396,-0.001140,0.002799,0.604787,0.048969,-0.794477,0.025312
11535,NaN,9.176877,-0.294084,-2.718994,0.204271,-0.419704,-0.248372,0.481361,-0.221427,0.655820,-0.903564,-0.136475,-0.058838,0.091808,-0.002575,-0.027095,0.999991,0.002407,-0.001107,0.003279,0.603713,0.047839,-0.795230,0.029166
11536,NaN,8.840449,-0.188422,-2.369357,-0.077485,-0.253731,-0.662170,0.433279,-0.198895,0.776575,-0.901367,-0.134277,-0.061035,0.088434,-0.001490,-0.023609,0.999990,0.002166,-0.000994,0.003883,0.602762,0.046770,-0.795806,0.034404
11537,NaN,8.818493,-0.061549,-1.954554,-0.508223,-0.091744,-0.794788,0.377396,-0.158594,0.914008,-0.908447,-0.121582,-0.059082,0.088202,-0.000176,-0.019476,0.999987,0.001887,-0.000793,0.004570,0.601889,0.044288,-0.796414,0.038637
11538,NaN,9.233778,-0.249883,-1.611826,-0.947718,-0.228078,-0.486808,0.294362,-0.120752,1.043618,-0.899902,-0.114990,-0.057129,0.092359,-0.001993,-0.016066,0.999985,0.001472,-0.000604,0.005218,0.601179,0.041680,-0.796809,0.044062
11539,NaN,10.003863,-0.793754,-1.493879,-1.230228,-0.684386,0.234998,0.201280,-0.104303,1.154920,-0.911133,-0.104248,-0.052979,0.100090,-0.007345,-0.014894,0.999983,0.001006,-0.000522,0.005775,0.600468,0.037696,-0.797296,0.048327
11540,NaN,10.609025,-1.331863,-1.460053,-1.388734,-1.093387,0.833038,0.208189,-0.112751,1.210247,-0.900635,-0.093750,-0.052979,0.106176,-0.012661,-0.014554,0.999981,0.001041,-0.000564,0.006051,0.599710,0.034128,-0.797674,0.053844
11541,NaN,11.375685,-1.668094,-1.459963,-1.593648,-1.283631,1.594812,0.221771,-0.132238,1.230284,-0.911865,-0.080811,-0.053223,0.113866,-0.015965,-0.014542,0.999980,0.001109,-0.000661,0.006151,0.598813,0.029911,-0.798196,0.058408
11542,NaN,11.853247,-2.529666,-1.287994,-1.818521,-1.997414,2.072554,0.271593,-0.138050,1.234073,-0.907959,-0.072266,-0.047119,0.118694,-0.024547,-0.012832,0.999980,0.001358,-0.000690,0.006170,0.597873,0.026422,-0.798580,0.064193
11543,NaN,11.897755,-2.788162,-1.249989,-1.871153,-2.108722,2.143191,0.389856,-0.143056,1.206785,-0.908447,-0.059326,-0.047119,0.119152,-0.027139,-0.012468,0.999980,0.001949,-0.000715,0.006034,0.596862,0.022804,-0.799016,0.069351
11544,NaN,11.951487,-2.414888,-1.266668,-1.942255,-1.579709,2.187497,0.502513,-0.150745,1.193777,-0.911133,-0.046387,-0.043213,0.119666,-0.023403,-0.012636,0.999979,0.002513,-0.000754,0.005969,0.595791,0.020159,-0.799291,0.075902
11545,NaN,11.892084,-2.045182,-1.478955,-1.799783,-1.036463,2.165469,0.573146,-0.126326,1.216751,-0.915527,-0.037842,-0.045410,0.119051,-0.019685,-0.014772,0.999977,0.002866,-0.000632,0.006084,0.594764,0.017040,-0.799544,0.081817
11546,NaN,11.607402,-1.866077,-1.695657,-1.557963,-0.685416,1.942743,0.622274,-0.101038,1.258365,-0.907471,-0.022949,-0.045654,0.116197,-0.017877,-0.016954,0.999975,0.003111,-0.000505,0.006292,0.593783,0.014458,-0.799557,0.088997
11547,NaN,11.563779,-1.631366,-1.809648,-1.493796,-0.279368,1.906758,0.658542,-0.072658,1.319647,-0.912109,-0.014404,-0.047852,0.115748,-0.015491,-0.018106,0.999973,0.003293,-0.000363,0.006598,0.592853,0.011158,-0.799544,0.095555
11548,NaN,11.529795,-1.534731,-2.223805,-1.127071,0.059327,1.975460,0.694972,-0.037616,1.401608,-0.916748,-0.003662,-0.041748,0.115406,-0.014461,-0.022268,0.999969,0.003475,-0.000188,0.007008,0.591971,0.008166,-0.799258,0.103395
11549,NaN,11.344260,-1.230809,-2.388539,-0.982233,0.546776,1.791001,0.705863,-0.031157,1.494208,-0.913086,0.013428,-0.041992,0.113534,-0.011376,-0.023909,0.999966,0.003529,-0.000156,0.007471,0.591036,0.004288,-0.799009,0.110648
11550,NaN,11.552561,-1.112341,-1.786596,-1.656780,0.775209,1.786525,0.688831,-0.048734,1.604771,-0.915771,0.028564,-0.046387,0.115614,-0.010134,-0.017874,0.999962,0.003444,-0.000244,0.008024,0.589899,0.000441,-0.798662,0.118989
11551,NaN,11.655888,-0.917593,-0.819873,-2.657766,0.995508,1.559009,0.647231,-0.025452,1.745803,-0.916504,0.047852,-0.042480,0.116634,-0.008131,-0.008211,0.999957,0.003236,-0.000127,0.008729,0.588742,-0.004619,-0.798311,0.126733
11552,NaN,11.539745,-0.517788,0.413509,-3.871104,1.332116,0.996607,0.507826,-0.002053,1.910658,-0.910645,0.067139,-0.044922,0.115440,-0.004086,0.004125,0.999951,0.002539,-0.000010,0.009553,0.587481,-0.010273,-0.797802,0.135174
11553,NaN,12.572478,-0.154791,0.046831,-3.929155,2.171617,1.931819,0.404420,0.051956,2.090951,-0.909180,0.088623,-0.045166,0.125732,-0.000234,0.000434,0.999943,0.002022,0.000260,0.010455,0.586273,-0.017473,-0.797213,0.142934
11554,NaN,14.013567,-0.133431,-2.179058,-2.322816,3.227682,3.800676,0.502189,0.107773,2.277393,-0.905518,0.105713,-0.049561,0.140127,0.000316,-0.021867,0.999932,0.002511,0.000539,0.011387,0.585053,-0.024696,-0.796177,0.152336
11555,NaN,14.878424,-0.524284,-3.624402,-1.221272,3.699744,5.005760,0.703906,0.056333,2.445181,-0.902100,0.127197,-0.045654,0.148822,-0.003296,-0.036300,0.999919,0.003519,0.000282,0.012226,0.583464,-0.032425,-0.795098,0.162286
11556,NaN,15.671663,-0.820535,-2.944494,-2.127350,3.862608,5.532772,1.001450,-0.042160,2.592767,-0.903076,0.159180,-0.046143,0.156810,-0.006025,-0.029446,0.999903,0.005007,-0.000211,0.012963,0.581266,-0.039359,-0.793812,0.174480
11557,NaN,17.220636,0.025006,-1.833126,-3.857514,5.247254,6.233388,1.388149,-0.058785,2.742364,-0.897217,0.178467,-0.048584,0.172186,0.002738,-0.018267,0.999882,0.006940,-0.000294,0.013711,0.578855,-0.046167,-0.792127,0.187965
11558,NaN,19.364907,1.884015,-1.888684,-4.867355,8.102917,7.296873,1.842505,0.029384,2.943919,-0.889404,0.202148,-0.053223,0.193339,0.021861,-0.018723,0.999849,0.009212,0.000147,0.014719,0.576507,-0.052140,-0.789415,0.204317
11559,NaN,20.565933,4.302363,-3.282826,-4.456129,11.611738,7.435792,2.154182,0.056260,3.155200,-0.884277,0.236328,-0.062256,0.204934,0.046611,-0.032397,0.999818,0.010770,0.000281,0.015775,0.573972,-0.058446,-0.786073,0.221876
11560,NaN,20.637257,6.491820,-4.884346,-3.535342,14.635905,6.470073,2.259413,-0.055038,3.377205,-0.876465,0.262207,-0.058350,0.205244,0.068936,-0.048023,0.999794,0.011296,-0.000275,0.016885,0.570535,-0.064852,-0.782482,0.240843
11561,NaN,20.038883,7.739220,-4.408522,-4.219149,15.920635,4.663310,2.132535,-0.271550,3.591825,-0.864746,0.291992,-0.062988,0.199009,0.081437,-0.042960,0.999781,0.010662,-0.001358,0.017958,0.565723,-0.072494,-0.779340,0.259481
11562,NaN,20.467102,5.505950,-4.761445,-3.909066,14.868788,5.531836,2.045755,-0.408045,3.894237,-0.848633,0.324219,-0.065430,0.203637,0.059512,-0.046605,0.999756,0.010228,-0.002040,0.019470,0.559716,-0.081129,-0.776161,0.278765
11563,NaN,21.203828,0.211480,-6.497621,-1.896913,12.107624,8.669133,2.006517,-0.535596,4.404725,-0.836914,0.362793,-0.063965,0.212087,0.007433,-0.064351,0.999704,0.010032,-0.002678,0.022021,0.552155,-0.091852,-0.772834,0.299025
11564,NaN,22.572924,-0.704624,-8.812966,-0.491053,13.752233,10.142478,1.615850,-0.738475,4.801497,-0.818848,0.401367,-0.064453,0.226124,-0.000913,-0.087319,0.999672,0.008078,-0.003692,0.024005,0.542769,-0.104695,-0.769938,0.318804
11565,NaN,23.219499,0.818753,-9.479341,-0.813385,16.428040,9.134791,1.051857,-0.663778,4.784553,-0.803223,0.439941,-0.060547,0.232215,0.014239,-0.093958,0.999695,0.005259,-0.003319,0.023920,0.532981,-0.119184,-0.767310,0.336099
11566,NaN,21.577561,0.941010,-6.831789,-2.881203,15.385122,6.559698,1.098437,-0.613299,4.468616,-0.780518,0.469727,-0.058838,0.215696,0.014603,-0.067586,0.999731,0.005492,-0.003066,0.022341,0.523790,-0.132340,-0.764189,0.352344
11567,NaN,18.561245,1.365320,-5.529500,-3.138859,14.059875,3.201363,1.696381,-0.614732,4.051845,-0.768799,0.504150,-0.061279,0.185447,0.017877,-0.054585,0.999754,0.008481,-0.003073,0.020258,0.515304,-0.142279,-0.759928,0.369768
11568,NaN,16.681792,5.155022,-5.428918,-3.262134,15.901040,-1.398289,1.810224,-0.483187,3.481264,-0.745605,0.521240,-0.065674,0.166011,0.054931,-0.053400,0.999805,0.009051,-0.002416,0.017405,0.508465,-0.150011,-0.755174,0.385580
11569,NaN,16.632320,10.233313,-5.638715,-4.030261,19.498530,-5.727994,0.989300,-0.119262,2.750648,-0.737793,0.540527,-0.068115,0.164926,0.104885,-0.055774,0.999893,0.004946,-0.000596,0.013753,0.503407,-0.157653,-0.751412,0.396367
11570,NaN,13.206717,6.900989,-2.236872,-5.019929,13.807150,-6.467027,1.368253,0.020710,2.506579,-0.720947,0.553223,-0.070312,0.131185,0.070809,-0.021902,0.999898,0.006841,0.000104,0.012532,0.499899,-0.163838,-0.746580,0.407278
11571,NaN,8.014853,-3.546477,-2.396052,-0.905107,4.242044,-1.829286,2.289235,-0.057838,2.739324,-0.708496,0.563965,-0.081299,0.080629,-0.034085,-0.024333,0.999841,0.011446,-0.000289,0.013696,0.495908,-0.168215,-0.739686,0.422663
11572,NaN,4.550399,-18.146675,-4.448863,5.063477,-5.238339,7.982706,3.268155,-0.618495,2.096063,-0.695801,0.572510,-0.089844,0.047541,-0.180218,-0.047296,0.999807,0.016340,-0.003092,0.010480,0.492258,-0.166735,-0.732407,0.439843
11573,NaN,8.119068,-12.241958,-7.552638,5.130167,2.491991,5.688474,2.466724,-1.548025,0.902534,-0.695801,0.572510,-0.089844,0.082328,-0.121111,-0.076391,0.999884,0.012333,-0.007740,0.004512,0.486610,-0.160563,-0.729940,0.452346
11574,NaN,13.000568,10.768661,-1.556008,-7.182469,15.300857,-11.111476,2.150687,-0.706530,0.209778,-0.691406,0.570557,-0.093994,0.129944,0.107979,-0.013941,0.999935,0.010753,-0.003533,0.001049,0.485645,-0.154717,-0.726601,0.460720
11575,NaN,4.108222,16.554566,2.972815,-8.320016,9.862151,-21.357159,1.842852,-0.479857,-0.306316,-0.699707,0.562012,-0.096191,0.041261,0.165199,0.031350,0.999953,0.009214,-0.002399,-0.001532,0.486016,-0.148034,-0.723710,0.467031
11576,NaN,2.057481,11.700453,3.413407,-6.716097,5.653907,-18.513915,0.599317,-0.492337,-0.827271,-0.703613,0.551270,-0.091797,0.020974,0.116815,0.034536,0.999984,0.002997,-0.002462,-0.004136,0.487062,-0.142674,-0.724142,0.466939
11577,NaN,1.714915,7.899741,2.788469,-5.141352,3.799109,-15.492041,-0.346736,-0.456226,-1.207007,-0.714111,0.544678,-0.081055,0.017562,0.078940,0.027788,0.999978,-0.001734,-0.002281,-0.006035,0.487977,-0.138097,-0.726894,0.463069
11578,NaN,2.004635,5.392577,0.891085,-3.071798,3.738701,-13.049657,-0.847043,-0.519611,-1.573264,-0.719971,0.525391,-0.065674,0.020447,0.053803,0.008736,0.999957,-0.004235,-0.002598,-0.007866,0.489586,-0.133453,-0.731208,0.455883
11579,NaN,1.260675,5.037722,-1.062839,-0.995446,4.175996,-12.921800,-0.790001,-0.684166,-1.981935,-0.728271,0.512451,-0.048340,0.013142,0.050206,-0.010783,0.999937,-0.003950,-0.003421,-0.009909,0.491052,-0.126590,-0.735947,0.448581
11580,NaN,1.469065,4.635582,-2.555950,0.235449,4.946230,-12.191175,-0.764299,-0.837818,-2.453239,-0.738281,0.493164,-0.028809,0.015364,0.046072,-0.025673,0.999909,-0.003821,-0.004189,-0.012266,0.493396,-0.117773,-0.741239,0.439609
11581,NaN,1.799625,4.119010,-2.942674,0.504851,5.109965,-11.392288,-1.130040,-0.852564,-2.924164,-0.757080,0.469727,-0.009277,0.018720,0.040753,-0.029579,0.999868,-0.005650,-0.004263,-0.014620,0.495940,-0.107850,-0.747437,0.428661
11582,NaN,2.505215,3.549092,-2.458261,-0.098893,4.955664,-10.399182,-1.484387,-0.821748,-3.302598,-0.769043,0.443848,0.010254,0.025733,0.034886,-0.024738,0.999828,-0.007422,-0.004109,-0.016512,0.499504,-0.097671,-0.754352,0.414618
11583,NaN,3.703533,3.082688,-1.626020,-1.247262,4.890683,-9.192174,-1.760664,-0.748588,-3.647382,-0.783203,0.413818,0.027832,0.037649,0.030000,-0.016387,0.999788,-0.008803,-0.003743,-0.018236,0.503285,-0.086756,-0.761480,0.399156
11584,NaN,4.160233,2.491329,-1.156097,-1.683385,4.452166,-8.332409,-1.719785,-0.697998,-4.083825,-0.790283,0.375244,0.043457,0.042139,0.023957,-0.011623,0.999748,-0.008598,-0.003490,-0.020417,0.508327,-0.074411,-0.768300,0.381813
11585,NaN,4.570854,2.285329,-0.924832,-2.002353,4.313353,-7.726708,-1.566839,-0.689875,-4.490730,-0.806641,0.345215,0.062988,0.046237,0.021746,-0.009263,0.999711,-0.007833,-0.003449,-0.022451,0.513529,-0.059820,-0.774481,0.364538
11586,NaN,5.165347,2.335980,-0.780701,-2.391455,4.434507,-7.100433,-1.353961,-0.682091,-4.857106,-0.824707,0.304443,0.078613,0.052226,0.022043,-0.007782,0.999676,-0.006769,-0.003410,-0.024283,0.519562,-0.043528,-0.779960,0.346155
11587,NaN,6.442049,2.133737,-0.640138,-3.007289,4.573723,-5.752027,-1.232801,-0.694455,-5.195876,-0.831787,0.263916,0.092041,0.064967,0.019615,-0.006301,0.999638,-0.006163,-0.003472,-0.025976,0.525400,-0.025267,-0.784733,0.327888
11588,NaN,7.036875,2.557747,-0.276173,-3.660940,4.713110,-5.284326,-1.191867,-0.682014,-5.421419,-0.838867,0.218750,0.116211,0.071036,0.023642,-0.002665,0.999609,-0.005959,-0.003410,-0.027104,0.531612,-0.006304,-0.788922,0.308140
11589,NaN,8.349368,1.737479,0.086355,-4.214106,3.999114,-3.570312,-1.064531,-0.646061,-5.651536,-0.852539,0.173828,0.121094,0.083937,0.015012,0.001050,0.999581,-0.005322,-0.003230,-0.028254,0.537525,0.014141,-0.792116,0.288823
11590,NaN,9.268288,1.179762,0.683273,-4.810468,3.101664,-2.398233,-1.028471,-0.574764,-5.904188,-0.861816,0.128662,0.136719,0.092958,0.009092,0.007048,0.999547,-0.005142,-0.002873,-0.029516,0.543922,0.035288,-0.794439,0.267898
11591,NaN,10.400172,0.727917,1.148631,-5.360710,2.259410,-1.087014,-0.907875,-0.510507,-6.149388,-0.868652,0.081543,0.145996,0.104131,0.004131,0.011729,0.999514,-0.004539,-0.002552,-0.030742,0.550038,0.057897,-0.795562,0.247362
11592,NaN,11.338793,0.451131,1.750214,-5.934107,1.313813,-0.073422,-0.849234,-0.420097,-6.375408,-0.873535,0.034424,0.155029,0.113419,0.000971,0.017731,0.999481,-0.004245,-0.002100,-0.031872,0.556485,0.081149,-0.795573,0.225395
11593,NaN,12.862460,0.450479,2.201362,-6.627008,0.599485,1.419298,-0.805377,-0.333308,-6.597122,-0.877930,-0.025635,0.168945,0.128645,0.000350,0.022221,0.999447,-0.004026,-0.001666,-0.032980,0.562624,0.105466,-0.794281,0.203591
11594,NaN,14.557863,0.509338,2.676184,-7.314412,-0.271993,3.059793,-0.792537,-0.215663,-6.761330,-0.874023,-0.079346,0.176025,0.145613,0.000277,0.026911,0.999420,-0.003962,-0.001078,-0.033800,0.568969,0.130042,-0.791713,0.180426
11595,NaN,16.412826,0.150859,2.811251,-7.468435,-1.599736,4.981435,-0.793459,-0.087608,-6.942605,-0.876221,-0.137207,0.177002,0.164039,-0.004076,0.028193,0.999390,-0.003966,-0.000438,-0.034706,0.575065,0.155253,-0.787672,0.157384
11596,NaN,18.705124,-0.186666,2.699901,-7.373412,-3.106391,7.305880,-0.794497,0.055658,-7.136150,-0.869873,-0.199219,0.182129,0.186836,-0.008429,0.026972,0.999356,-0.003972,0.000278,-0.035673,0.581336,0.180801,-0.782096,0.132987
11597,NaN,21.378340,-0.294415,2.425514,-7.130378,-4.695498,9.933640,-0.867755,0.239546,-7.265501,-0.860840,-0.267822,0.185547,0.213520,-0.010601,0.024034,0.999330,-0.004338,0.001197,-0.036319,0.587510,0.206396,-0.774877,0.108621
11598,NaN,24.905264,-0.446858,1.930344,-6.596994,-6.770941,13.307827,-0.979402,0.452366,-7.342874,-0.856201,-0.338623,0.180176,0.248710,-0.013513,0.018792,0.999312,-0.004896,0.002261,-0.036706,0.594020,0.231540,-0.765917,0.083070
11599,NaN,28.703376,-1.354064,0.710931,-4.814273,-9.697658,16.807380,-1.133442,0.640800,-7.367999,-0.826172,-0.402832,0.174805,0.286297,-0.024061,0.006308,0.999300,-0.005666,0.003203,-0.036831,0.600442,0.255950,-0.755412,0.057549
11600,NaN,32.521737,-3.580980,-0.703794,-1.884665,-14.080817,19.660708,-1.292816,0.878126,-7.267504,-0.797852,-0.469482,0.158691,0.323595,-0.047640,-0.008179,0.999309,-0.006463,0.004390,-0.036329,0.607245,0.279139,-0.743197,0.031512
11601,NaN,35.268935,-6.254934,-1.865137,1.447372,-18.733281,20.730991,-1.517369,1.131800,-7.058861,-0.767578,-0.533691,0.149170,0.350075,-0.075086,-0.020100,0.999332,-0.007585,0.005658,-0.035286,0.614287,0.300388,-0.729645,0.006020
11602,NaN,35.926320,-9.089058,-4.017328,6.031747,-22.231320,19.483609,-1.887966,1.318074,-6.738046,-0.720459,-0.589600,0.130859,0.355651,-0.103303,-0.041589,0.999366,-0.009438,0.006589,-0.033683,0.621913,0.319078,-0.714858,-0.019767
11603,NaN,30.514094,-12.185721,-10.714680,14.716514,-21.037154,13.313353,-2.289413,1.112811,-6.279521,-0.677734,-0.640869,0.108398,0.300493,-0.132570,-0.107351,0.999426,-0.011445,0.005563,-0.031392,0.628578,0.334325,-0.700736,-0.045670
11604,NaN,23.843508,-22.457492,-13.913576,22.480982,-25.175919,1.450338,-1.446566,0.611707,-5.712748,-0.633789,-0.671143,0.104736,0.231450,-0.232255,-0.138189,0.999561,-0.007232,0.003058,-0.028560,0.631743,0.349959,-0.688376,-0.067581
11605,NaN,16.681688,-35.236354,-9.731181,23.770000,-32.125969,-13.959940,0.332281,-0.083967,-4.788374,-0.589844,-0.696777,0.111816,0.158362,-0.356060,-0.097834,0.999712,0.001661,-0.000420,-0.023940,0.629087,0.367356,-0.680168,-0.081673
11606,NaN,11.181934,-41.016595,-3.416572,20.440633,-34.496910,-24.338743,1.740095,-0.580592,-3.459372,-0.568115,-0.701172,0.129150,0.104812,-0.411703,-0.037432,0.999808,0.008700,-0.002903,-0.017296,0.622569,0.384464,-0.675992,-0.087350
11607,NaN,7.610007,-37.431164,-1.851798,17.861801,-29.614832,-26.130709,1.652199,-0.717007,-2.012178,-0.557129,-0.709961,0.150635,0.072403,-0.374884,-0.021349,0.999909,0.008261,-0.003585,-0.010061,0.616048,0.396058,-0.675007,-0.089383
11608,NaN,9.988484,-31.823830,-2.666524,16.723225,-26.742566,-20.984260,0.467869,-0.516640,-0.265259,-0.555176,-0.707764,0.148682,0.099532,-0.318307,-0.027152,0.999993,0.002339,-0.002583,-0.001326,0.613481,0.398386,-0.676025,-0.088993
11609,NaN,11.445810,-26.431969,-2.092477,13.854018,-24.419420,-16.577567,-1.296706,-0.199662,1.607868,-0.566162,-0.697021,0.144043,0.116598,-0.263516,-0.019099,0.999946,-0.006483,-0.000998,0.008039,0.616084,0.388862,-0.679219,-0.088821
11610,NaN,10.380840,-25.613304,-3.866815,14.568352,-22.976566,-16.017485,-2.597976,-0.310590,3.038364,-0.588135,-0.681885,0.122314,0.107745,-0.254988,-0.035185,0.999799,-0.012989,-0.001553,0.015191,0.621540,0.370582,-0.684555,-0.087982
11611,NaN,13.067536,-22.901766,-5.996334,14.839474,-22.560188,-11.194029,-2.847431,-0.663306,3.892288,-0.610596,-0.658203,0.115479,0.135300,-0.227233,-0.056276,0.999704,-0.014236,-0.003316,0.019460,0.626087,0.348009,-0.692363,-0.086818
11612,NaN,17.992361,-17.927324,-6.701699,13.006586,-21.907162,-3.425284,-2.510028,-1.090942,4.482931,-0.641357,-0.638916,0.112793,0.184247,-0.175990,-0.063797,0.999655,-0.012549,-0.005454,0.022412,0.628616,0.324325,-0.702060,-0.082262
11613,NaN,30.310031,5.857912,2.115608,-4.330609,-12.420239,18.192823,-2.931054,-1.104612,4.298947,-0.663330,-0.621582,0.095215,0.301624,0.065391,0.021900,0.999646,-0.014654,-0.005522,0.021492,0.631051,0.299453,-0.711039,-0.080785
11614,NaN,25.097034,61.132900,19.767894,-38.333199,31.951976,37.799237,-3.719649,-0.531216,1.702643,-0.666016,-0.606689,0.086426,0.245228,0.616976,0.186895,0.999787,-0.018597,-0.002656,0.008513,0.635499,0.281714,-0.713443,-0.088189
11615,NaN,11.155521,45.735152,14.478901,-27.005740,29.356967,19.073168,-2.572107,-0.369377,2.422865,-0.681396,-0.593750,0.071289,0.105729,0.460469,0.139079,0.999842,-0.012860,-0.001847,0.012114,0.638786,0.264689,-0.716773,-0.090155
11616,NaN,8.975230,-12.595332,6.758994,-3.810251,-16.403095,-8.698840,-2.820332,-0.143793,4.217039,-0.706299,-0.559326,0.057617,0.092318,-0.123054,0.069405,0.999678,-0.014100,-0.000719,0.021083,0.643933,0.240744,-0.721103,-0.086045
