// Start Time: Unknown
// Update Rate: 100.0Hz
// Filter Profile: human (46.1)
// Firmware Version: 4.4.0
PacketCounter,SampleTimeFine,Acc_X,Acc_Y,Acc_Z,FreeAcc_X,FreeAcc_Y,FreeAcc_Z,Gyr_X,Gyr_Y,Gyr_Z,Mag_X,Mag_Y,Mag_Z,VelInc_X,VelInc_Y,VelInc_Z,OriInc_q0,OriInc_q1,OriInc_q2,OriInc_q3,Quat_q0,Quat_q1,Quat_q2,Quat_q3
52526,NaN,9.695335,1.407518,-0.085358,-0.053807,0.137098,-0.016452,0.005249,-0.001944,-0.029510,-0.496338,0.060791,-0.426270,0.096955,0.014061,-0.000852,1.000000,0.000026,-0.000010,-0.000148,0.684219,-0.060239,-0.710940,-0.150933
52527,NaN,9.683300,1.401299,-0.172338,0.026924,0.103825,-0.027590,-0.007631,-0.003036,-0.036013,-0.498535,0.060791,-0.415527,0.096836,0.013995,-0.001722,1.000000,-0.000038,-0.000015,-0.000180,0.684179,-0.060140,-0.710955,-0.151082
52528,NaN,9.731688,1.365296,-0.202479,0.041231,0.052390,0.016165,-0.008058,-0.006345,-0.020037,-0.493896,0.056396,-0.421875,0.097318,0.013643,-0.002022,1.000000,-0.000040,-0.000032,-0.000100,0.684136,-0.060102,-0.710979,-0.151178
52529,NaN,9.743138,1.322460,-0.165295,-0.008518,0.019581,0.021157,-0.005906,-0.005174,-0.023157,-0.500488,0.060791,-0.421875,0.097433,0.013213,-0.001651,1.000000,-0.000030,-0.000026,-0.000116,0.684098,-0.060044,-0.710999,-0.151277
52530,NaN,9.794747,1.211753,-0.174054,-0.036391,-0.096127,0.057730,-0.005171,-0.002490,-0.020339,-0.498291,0.056396,-0.430420,0.097949,0.012108,-0.001740,1.000000,-0.000026,-0.000012,-0.000102,0.684072,-0.059990,-0.711010,-0.151365
52531,NaN,9.742760,1.272338,-0.214777,0.022458,-0.046523,0.015012,-0.001620,0.000131,-0.022366,-0.502930,0.062988,-0.417725,0.097429,0.012712,-0.002148,1.000000,-0.000008,0.000001,-0.000112,0.684056,-0.059916,-0.711015,-0.151447
52532,NaN,9.754923,1.354207,-0.218042,0.048404,0.026677,0.038043,-0.002295,0.002847,-0.017127,-0.502686,0.058594,-0.428223,0.097550,0.013534,-0.002182,1.000000,-0.000011,0.000014,-0.000086,0.684052,-0.059862,-0.711009,-0.151513
52533,NaN,9.737388,1.297624,-0.250115,0.063443,-0.036167,0.013694,-0.001394,0.007446,-0.019290,-0.498291,0.058594,-0.413330,0.097375,0.012967,-0.002505,1.000000,-0.000007,0.000037,-0.000096,0.684063,-0.059793,-0.710988,-0.151587
52534,NaN,9.726553,1.271968,-0.230782,0.038672,-0.055377,-0.000836,-0.003820,0.016740,-0.016352,-0.500244,0.054443,-0.430420,0.097266,0.012712,-0.002316,1.000000,-0.000019,0.000084,-0.000082,0.684107,-0.059736,-0.710935,-0.151660
52535,NaN,9.703727,1.345251,-0.199328,0.032733,0.024261,-0.014213,-0.001688,0.020874,-0.012442,-0.498291,0.058594,-0.413330,0.097038,0.013446,-0.002004,1.000000,-0.000008,0.000104,-0.000062,0.684171,-0.059682,-0.710866,-0.151715
52536,NaN,9.694740,1.371318,-0.164439,0.009152,0.058985,-0.020243,-0.008639,0.020505,-0.006336,-0.498291,0.054443,-0.423828,0.096948,0.013710,-0.001655,1.000000,-0.000043,0.000103,-0.000032,0.684232,-0.059675,-0.710796,-0.151771
52537,NaN,9.690472,1.517849,-0.239061,0.125835,0.175276,-0.003523,-0.024377,0.025386,0.006063,-0.500488,0.056396,-0.411133,0.096904,0.015181,-0.002405,1.000000,-0.000122,0.000127,0.000030,0.684320,-0.059760,-0.710689,-0.151845
52538,NaN,9.750209,1.505708,-0.283770,0.164664,0.142927,0.054770,-0.039360,0.029986,0.014254,-0.493896,0.056396,-0.428223,0.097501,0.015063,-0.002855,1.000000,-0.000197,0.000150,0.000071,0.684417,-0.059916,-0.710559,-0.151951
52539,NaN,9.796375,1.539232,-0.331053,0.221254,0.155703,0.105710,-0.053853,0.032912,0.029224,-0.496338,0.062988,-0.413330,0.097961,0.015406,-0.003331,1.000000,-0.000269,0.000165,0.000146,0.684540,-0.060179,-0.710397,-0.152052
52540,NaN,9.784619,1.455928,-0.323599,0.194676,0.082088,0.082694,-0.054706,0.035177,0.042980,-0.504639,0.056396,-0.428223,0.097842,0.014579,-0.003257,1.000000,-0.000274,0.000176,0.000215,0.684660,-0.060472,-0.710240,-0.152128
52541,NaN,9.893490,1.312560,-0.201779,0.035983,-0.027444,0.169427,-0.027888,0.045357,0.052398,-0.502441,0.054443,-0.417480,0.098931,0.013151,-0.002042,1.000000,-0.000139,0.000227,0.000262,0.684852,-0.060719,-0.710048,-0.152061
52542,NaN,9.916675,1.289424,-0.177242,0.010048,-0.041510,0.188945,-0.009399,0.050754,0.059797,-0.498291,0.054199,-0.417480,0.099162,0.012924,-0.001798,1.000000,-0.000047,0.000254,0.000299,0.685045,-0.060901,-0.709875,-0.151926
52543,NaN,9.774209,1.271202,-0.110507,-0.044258,-0.017445,0.044343,-0.000145,0.060117,0.059700,-0.502441,0.054199,-0.415283,0.097738,0.012741,-0.001134,1.000000,-0.000001,0.000301,0.000298,0.685304,-0.061067,-0.709651,-0.151740
52544,NaN,9.628809,1.327095,-0.064704,-0.057126,0.070447,-0.093063,-0.009808,0.059280,0.064667,-0.500244,0.054443,-0.419678,0.096284,0.013302,-0.000676,1.000000,-0.000049,0.000296,0.000323,0.685532,-0.061265,-0.709445,-0.151589
52545,NaN,9.550476,1.239465,-0.163616,0.023064,-0.028113,-0.180797,-0.030459,0.057135,0.070986,-0.500488,0.056396,-0.413330,0.095500,0.012428,-0.001665,1.000000,-0.000152,0.000286,0.000355,0.685780,-0.061578,-0.709205,-0.151471
52546,NaN,9.666192,1.267650,-0.135147,0.005015,-0.002561,-0.062793,-0.028453,0.054901,0.069359,-0.500244,0.052246,-0.421875,0.096657,0.012710,-0.001380,1.000000,-0.000142,0.000275,0.000347,0.685993,-0.061859,-0.708995,-0.151370
52547,NaN,9.794739,1.411418,0.044925,-0.122803,0.176693,0.080984,-0.047841,0.064158,0.070614,-0.506836,0.052246,-0.411133,0.097943,0.014149,0.000414,1.000000,-0.000239,0.000321,0.000353,0.686259,-0.062224,-0.708717,-0.151317
52548,NaN,9.716072,1.395869,-0.108303,0.031309,0.129510,0.002835,-0.086071,0.065674,0.077959,-0.502441,0.054199,-0.415283,0.097155,0.013996,-0.001121,1.000000,-0.000430,0.000328,0.000390,0.686507,-0.062718,-0.708416,-0.151401
52549,NaN,9.675129,1.421851,-0.174099,0.113636,0.144464,-0.033817,-0.095638,0.068732,0.087539,-0.500244,0.052246,-0.408936,0.096744,0.014260,-0.001781,1.000000,-0.000478,0.000344,0.000438,0.686786,-0.063304,-0.708080,-0.151461
52550,NaN,9.712034,1.401749,-0.093654,0.039356,0.150941,-0.000810,-0.090955,0.077201,0.111853,-0.500244,0.050049,-0.417480,0.097112,0.014071,-0.000980,1.000000,-0.000455,0.000386,0.000559,0.687093,-0.063912,-0.707727,-0.151464
52551,NaN,10.034698,1.223637,-0.143493,0.029618,-0.061778,0.297126,-0.066476,0.066372,0.126554,-0.507080,0.060791,-0.404785,0.100339,0.012299,-0.001472,1.000000,-0.000332,0.000332,0.000633,0.687402,-0.064538,-0.707408,-0.151285
52552,NaN,10.159912,1.254438,0.008878,-0.101542,0.008427,0.423870,-0.035103,0.074138,0.144193,-0.500244,0.052246,-0.413330,0.101590,0.012618,0.000049,1.000000,-0.000176,0.000371,0.000721,0.687736,-0.065066,-0.707099,-0.150983
52553,NaN,9.737198,1.381117,0.138026,-0.155155,0.228489,0.019060,-0.027751,0.077642,0.161633,-0.502441,0.054199,-0.404785,0.097361,0.013890,0.001341,1.000000,-0.000139,0.000388,0.000808,0.688124,-0.065674,-0.706758,-0.150550
52554,NaN,9.749023,1.646403,0.150308,-0.076087,0.494695,0.062845,-0.049688,0.056109,0.188804,-0.504639,0.050049,-0.415283,0.097475,0.016556,0.001472,0.999999,-0.000248,0.000281,0.000944,0.688440,-0.066416,-0.706466,-0.150149
52555,NaN,9.720877,1.597087,0.224646,-0.148942,0.490873,0.027710,-0.108125,0.037651,0.209861,-0.509277,0.058594,-0.398438,0.097192,0.016074,0.002219,0.999999,-0.000541,0.000188,0.001049,0.688694,-0.067501,-0.706185,-0.149821
52556,NaN,9.845488,1.477561,0.155661,-0.113132,0.359058,0.137151,-0.155248,0.024832,0.225724,-0.509033,0.056396,-0.411133,0.098438,0.014888,0.001533,0.999999,-0.000776,0.000124,0.001129,0.688908,-0.068706,-0.705884,-0.149710
52557,NaN,9.890717,1.296221,-0.124325,0.108355,0.117804,0.162094,-0.170289,0.027906,0.245363,-0.507080,0.058594,-0.396240,0.098891,0.013082,-0.001268,0.999999,-0.000851,0.000140,0.001227,0.689130,-0.070137,-0.705576,-0.149475
52558,NaN,9.659439,1.115186,0.026628,-0.069067,0.036466,-0.089367,-0.125365,0.031181,0.263547,-0.504639,0.054199,-0.404785,0.096580,0.011279,0.000244,0.999999,-0.000627,0.000156,0.001318,0.689404,-0.071346,-0.705255,-0.149154
52559,NaN,9.498656,0.888785,0.390839,-0.466797,-0.024248,-0.275990,-0.081625,0.024937,0.281741,-0.509521,0.064941,-0.394043,0.094974,0.009023,0.003893,0.999999,-0.000408,0.000125,0.001409,0.689672,-0.072602,-0.705007,-0.148480
52560,NaN,9.685801,0.653139,0.327014,-0.474321,-0.263271,-0.114548,-0.050183,0.004094,0.296681,-0.509033,0.056396,-0.400391,0.096848,0.006676,0.003266,0.999999,-0.000251,0.000020,0.001483,0.689929,-0.073706,-0.704792,-0.147760
52561,NaN,9.968858,0.746909,-0.143073,0.000237,-0.321128,0.179973,0.000856,-0.000895,0.291561,-0.513916,0.067139,-0.387695,0.099678,0.007614,-0.001430,0.999999,0.000004,-0.000004,0.001458,0.690141,-0.074731,-0.704688,-0.146751
52562,NaN,10.020752,0.993210,-0.392088,0.322666,-0.144367,0.258590,0.072406,0.025951,0.307527,-0.511475,0.064941,-0.389893,0.100192,0.010088,-0.003930,0.999999,0.000362,0.000130,0.001538,0.690546,-0.075478,-0.704466,-0.145524
52563,NaN,9.984261,1.055641,-0.743373,0.689054,-0.159269,0.229831,0.096417,0.024433,0.345903,-0.511719,0.069336,-0.385742,0.099823,0.010733,-0.007441,0.999998,0.000482,0.000122,0.001730,0.690918,-0.076345,-0.704321,-0.144000
52564,NaN,9.934275,1.355223,-0.360311,0.431610,0.280129,0.206863,0.132538,0.051896,0.381913,-0.509521,0.064941,-0.394043,0.099316,0.013744,-0.003620,0.999998,0.000663,0.000259,0.001910,0.691420,-0.077143,-0.704088,-0.142290
52565,NaN,9.452564,1.035842,0.331181,-0.294001,0.268207,-0.306104,0.165990,0.043629,0.412500,-0.515869,0.067139,-0.379150,0.094505,0.010551,0.003300,0.999998,0.000830,0.000218,0.002063,0.691929,-0.077990,-0.703895,-0.140296
52566,NaN,9.607431,0.570585,0.153863,-0.259142,-0.206375,-0.192807,0.148961,0.001765,0.395171,-0.513672,0.062744,-0.383545,0.096063,0.005895,0.001542,0.999998,0.000745,0.000009,0.001976,0.692264,-0.078782,-0.703836,-0.138487
52567,NaN,9.587278,0.389020,-0.084437,-0.076713,-0.415331,-0.226453,0.130819,-0.009937,0.346739,-0.514160,0.073486,-0.370850,0.095866,0.004057,-0.000837,0.999998,0.000654,-0.000050,0.001734,0.692519,-0.079556,-0.703824,-0.136823
52568,NaN,9.343141,0.589297,0.129193,-0.203912,-0.111698,-0.452981,0.129774,0.007031,0.330072,-0.513916,0.067139,-0.379150,0.093422,0.006046,0.001293,0.999998,0.000649,0.000035,0.001650,0.692832,-0.080228,-0.703741,-0.135262
52569,NaN,9.011406,0.586992,0.571482,-0.609657,0.072471,-0.784975,0.138800,-0.016519,0.316714,-0.516113,0.069336,-0.379150,0.090104,0.006009,0.005726,0.999999,0.000694,-0.000083,0.001584,0.693042,-0.080873,-0.703765,-0.133670
52570,NaN,9.690700,0.449463,0.342567,-0.444389,-0.149769,-0.116860,0.061338,-0.051389,0.268346,-0.518555,0.075684,-0.375000,0.096900,0.004624,0.003452,0.999999,0.000307,-0.000257,0.001342,0.693121,-0.081617,-0.703816,-0.132529
52571,NaN,10.442268,1.118533,-0.063198,0.126388,0.339316,0.683260,-0.066719,-0.044155,0.241765,-0.516357,0.073486,-0.362061,0.104409,0.011311,-0.000613,0.999999,-0.000334,-0.000221,0.001209,0.693098,-0.082728,-0.703827,-0.131908
52572,NaN,10.004422,1.438799,-0.562779,0.717532,0.545639,0.270105,-0.167115,-0.019385,0.240601,-0.520508,0.071533,-0.379395,0.100027,0.014504,-0.005630,0.999999,-0.000836,-0.000097,0.001203,0.693189,-0.084140,-0.703611,-0.131686
52573,NaN,9.986571,0.921851,-0.747925,0.745725,0.022676,0.216476,-0.189420,-0.033515,0.269970,-0.516357,0.075684,-0.360107,0.099854,0.009346,-0.007471,0.999999,-0.000947,-0.000168,0.001350,0.693168,-0.085768,-0.703488,-0.131402
52574,NaN,9.555326,0.669619,-0.020774,-0.004713,0.055079,-0.234068,-0.099201,0.015571,0.318186,-0.520752,0.077881,-0.368652,0.095542,0.006848,-0.000219,0.999999,-0.000496,0.000078,0.001591,0.693377,-0.087150,-0.703239,-0.130724
52575,NaN,9.761900,0.121815,0.224141,-0.400659,-0.372544,-0.062797,0.018246,-0.045092,0.340228,-0.520752,0.079834,-0.355957,0.097616,0.001384,0.002264,0.999999,0.000091,-0.000225,0.001701,0.693447,-0.088312,-0.703258,-0.129461
52576,NaN,10.771255,0.294692,-0.277671,0.113846,-0.383860,0.958731,0.041429,-0.031765,0.337181,-0.520752,0.075684,-0.362305,0.107708,0.003129,-0.002759,0.999999,0.000207,-0.000159,0.001686,0.693580,-0.089331,-0.703234,-0.128176
52577,NaN,9.985544,0.854149,-0.133019,0.173604,0.266782,0.205144,0.096125,0.041440,0.336702,-0.518555,0.075684,-0.351562,0.099841,0.008710,-0.001347,0.999998,0.000481,0.000207,0.001684,0.693982,-0.090155,-0.703001,-0.126688
52578,NaN,10.001094,0.728936,-0.022405,0.041542,0.212344,0.212621,0.153335,0.004940,0.359498,-0.523193,0.084229,-0.360352,0.099998,0.007469,-0.000221,0.999998,0.000767,0.000025,0.001797,0.694288,-0.090848,-0.702923,-0.124940
52579,NaN,10.068233,1.000965,-0.083621,0.193811,0.483650,0.292096,0.011130,0.056132,0.360244,-0.527100,0.077881,-0.343018,0.100664,0.010191,-0.000864,0.999998,0.000056,0.000281,0.001801,0.694713,-0.092040,-0.702571,-0.123675
52580,NaN,8.954557,0.978531,-0.326766,0.452993,0.467127,-0.822422,-0.115267,0.022716,0.389403,-0.529297,0.079834,-0.353760,0.089526,0.009958,-0.003284,0.999998,-0.000576,0.000114,0.001947,0.694966,-0.093724,-0.702251,-0.122807
52581,NaN,9.615824,0.627790,-0.598036,0.604406,0.061074,-0.176990,-0.113155,-0.071635,0.419899,-0.529541,0.082031,-0.338867,0.096147,0.006476,-0.005950,0.999998,-0.000566,-0.000358,0.002099,0.694917,-0.095635,-0.702233,-0.121711
52582,NaN,10.148743,0.520093,-0.094995,0.091800,0.129555,0.348570,-0.187262,0.002140,0.405342,-0.527100,0.075684,-0.347168,0.101477,0.005406,-0.000956,0.999998,-0.000936,0.000011,0.002027,0.695019,-0.097609,-0.701973,-0.121057
52583,NaN,9.430622,0.055562,0.035881,-0.150442,-0.211144,-0.385405,-0.245772,0.007282,0.438415,-0.538330,0.088379,-0.328125,0.094305,0.000763,0.000355,0.999997,-0.001229,0.000036,0.002192,0.695187,-0.099997,-0.701584,-0.120400
52584,NaN,9.964198,0.109331,-0.384640,0.270130,-0.265417,0.152330,-0.282933,-0.016181,0.451493,-0.538086,0.084229,-0.343262,0.099639,0.001313,-0.003840,0.999996,-0.001415,-0.000081,0.002257,0.695206,-0.102489,-0.701291,-0.119897
52585,NaN,9.564261,0.591591,0.089292,-0.008766,0.390274,-0.237695,-0.285889,0.066011,0.463113,-0.538330,0.088379,-0.326172,0.095629,0.006139,0.000853,0.999996,-0.001429,0.000330,0.002316,0.695565,-0.105067,-0.700651,-0.119323
52586,NaN,9.741681,0.252204,0.065575,-0.077559,0.096944,-0.068321,-0.225425,0.009208,0.473701,-0.536133,0.086426,-0.325928,0.097411,0.002753,0.000648,0.999997,-0.001127,0.000046,0.002369,0.695701,-0.107420,-0.700290,-0.118553
52587,NaN,10.675751,0.228155,-0.061356,0.046103,0.064851,0.865371,-0.236729,0.059688,0.468638,-0.540771,0.092773,-0.323975,0.106752,0.002531,-0.000648,0.999997,-0.001184,0.000298,0.002343,0.696057,-0.109849,-0.699689,-0.117783
52588,NaN,9.879527,0.246777,-0.088282,0.106635,0.123747,0.068955,-0.253271,0.129026,0.498870,-0.542969,0.092773,-0.321777,0.098788,0.002713,-0.000950,0.999996,-0.001266,0.000645,0.002494,0.696611,-0.112316,-0.698862,-0.117086
52589,NaN,9.790706,0.228132,-0.688459,0.698104,-0.041343,-0.020107,-0.277153,0.119401,0.559252,-0.545166,0.099121,-0.324219,0.097896,0.002545,-0.006946,0.999995,-0.001386,0.000597,0.002796,0.697196,-0.115165,-0.697967,-0.116173
52590,NaN,9.182432,1.174642,-0.572580,0.925181,0.935691,-0.631569,-0.255489,0.194696,0.595969,-0.544922,0.090576,-0.319824,0.091783,0.012013,-0.005830,0.999994,-0.001277,0.000973,0.002980,0.697993,-0.117937,-0.696872,-0.115183
52591,NaN,9.226384,0.906943,0.162821,0.176378,0.968673,-0.592845,-0.102533,0.122636,0.618338,-0.551758,0.096924,-0.306885,0.092236,0.009355,0.001567,0.999995,-0.000513,0.000613,0.003092,0.698711,-0.120378,-0.696017,-0.113454
52592,NaN,10.507872,-0.287522,0.121184,-0.143205,-0.111697,0.698230,-0.191488,0.042328,0.614295,-0.551758,0.099121,-0.311279,0.105087,-0.002551,0.001192,0.999995,-0.000957,0.000212,0.003071,0.698987,-0.122997,-0.695492,-0.112163
52593,NaN,10.151128,-0.640766,0.250526,-0.355459,-0.348919,0.349511,-0.387264,0.132574,0.635661,-0.553955,0.103516,-0.302734,0.101533,-0.006080,0.002450,0.999993,-0.001936,0.000663,0.003178,0.699560,-0.126486,-0.694416,-0.111368
52594,NaN,9.476710,-0.688167,-0.427182,0.289953,-0.578207,-0.323464,-0.421178,0.148375,0.673550,-0.553711,0.094971,-0.304932,0.094786,-0.006572,-0.004328,0.999992,-0.002106,0.000742,0.003368,0.700104,-0.130088,-0.693309,-0.110694
52595,NaN,9.874940,-0.032240,-0.141859,0.279204,0.200962,0.057313,-0.433332,0.128705,0.659506,-0.562744,0.105713,-0.300781,0.098749,0.000000,-0.001482,0.999992,-0.002167,0.000644,0.003298,0.700627,-0.133819,-0.692185,-0.109971
52596,NaN,10.033000,-0.053651,0.018554,0.153966,0.297380,0.214863,-0.384760,0.096669,0.698625,-0.562744,0.105713,-0.304932,0.100331,-0.000186,0.000138,0.999992,-0.001924,0.000483,0.003493,0.700992,-0.137427,-0.691258,-0.109024
52597,NaN,9.681741,0.113949,0.208331,0.060828,0.568424,-0.144943,-0.388685,0.137140,0.711594,-0.569336,0.107666,-0.290039,0.096814,0.001488,0.002014,0.999992,-0.001943,0.000686,0.003558,0.701581,-0.141173,-0.690071,-0.107967
52598,NaN,9.062221,0.653307,0.530772,-0.037005,1.215746,-0.793121,-0.430880,0.096169,0.719993,-0.569336,0.107666,-0.296631,0.090600,0.006871,0.005250,0.999991,-0.002154,0.000481,0.003600,0.701909,-0.144989,-0.689077,-0.107124
52599,NaN,9.679722,-0.719321,-0.325764,0.329037,-0.276320,-0.110339,-0.492597,0.010326,0.714427,-0.571533,0.109863,-0.285889,0.096822,-0.006855,-0.003245,0.999991,-0.002463,0.000052,0.003572,0.701963,-0.149172,-0.688253,-0.106321
52600,NaN,9.820163,-1.387977,-0.697570,0.460285,-0.965826,0.071829,-0.517327,0.021005,0.673422,-0.573730,0.112061,-0.285889,0.098247,-0.013567,-0.006951,0.999991,-0.002587,0.000105,0.003367,0.701925,-0.153142,-0.687483,-0.105906
52601,NaN,9.857714,-1.395891,-0.453893,0.251413,-0.824530,0.116346,-0.415608,0.061991,0.628677,-0.582520,0.118408,-0.268799,0.098619,-0.013658,-0.004541,0.999993,-0.002078,0.000310,0.003143,0.702147,-0.156728,-0.686560,-0.105175
52602,NaN,9.610969,-0.835270,0.296613,-0.230920,0.005225,-0.163711,-0.360353,0.106153,0.589115,-0.575928,0.114258,-0.279541,0.096135,-0.008064,0.002930,0.999994,-0.001802,0.000531,0.002946,0.702428,-0.159881,-0.685646,-0.104511
52603,NaN,9.951073,-1.215055,0.343647,-0.374126,-0.251719,0.208025,-0.345174,0.074727,0.593157,-0.584717,0.118408,-0.264648,0.099547,-0.011849,0.003420,0.999994,-0.001726,0.000374,0.002966,0.702713,-0.163087,-0.684725,-0.103670
52604,NaN,10.031720,-1.825858,-0.380701,0.098014,-1.026662,0.338676,-0.422760,0.093298,0.586951,-0.582520,0.118408,-0.270996,0.100368,-0.017972,-0.003816,0.999993,-0.002114,0.000466,0.002935,0.702910,-0.166474,-0.683780,-0.103196
52605,NaN,9.633922,-1.782260,-0.374146,0.114662,-0.962223,-0.056174,-0.384303,0.086651,0.640995,-0.589355,0.122803,-0.262451,0.096394,-0.017521,-0.003749,0.999993,-0.001922,0.000433,0.003205,0.703211,-0.169970,-0.682739,-0.102328
52606,NaN,9.910567,-1.691607,0.054859,-0.210066,-0.634267,0.219117,-0.270622,0.114970,0.648834,-0.584961,0.124756,-0.271240,0.099160,-0.016594,0.000514,0.999994,-0.001353,0.000575,0.003244,0.703609,-0.173087,-0.681734,-0.101067
52607,NaN,9.824852,-1.275261,0.343094,-0.291843,-0.092042,0.095780,-0.246975,0.108841,0.647138,-0.589600,0.129150,-0.262695,0.098291,-0.012430,0.003393,0.999994,-0.001235,0.000544,0.003236,0.704088,-0.176105,-0.680663,-0.099726
52608,NaN,9.211757,-0.626785,0.505590,-0.199831,0.560989,-0.585011,-0.288962,0.081912,0.631448,-0.593750,0.126953,-0.271240,0.092139,-0.005970,0.005027,0.999994,-0.001445,0.000410,0.003157,0.704348,-0.179265,-0.679742,-0.098531
52609,NaN,9.574384,-1.144016,0.580317,-0.419866,0.209186,-0.164164,-0.288760,0.035090,0.629873,-0.595947,0.131348,-0.254150,0.095780,-0.011130,0.005803,0.999994,-0.001444,0.000175,0.003149,0.704514,-0.182404,-0.678909,-0.097326
52610,NaN,9.759882,-1.999557,0.278071,-0.438933,-0.612068,0.125283,-0.331809,0.020043,0.605798,-0.600342,0.129150,-0.264893,0.097659,-0.019695,0.002804,0.999994,-0.001659,0.000100,0.003029,0.704525,-0.185629,-0.678164,-0.096330
52611,NaN,9.746531,-2.003155,0.082640,-0.243981,-0.636806,0.114497,-0.315313,-0.015765,0.571194,-0.604492,0.129150,-0.250000,0.097522,-0.019752,0.000865,0.999995,-0.001577,-0.000079,0.002856,0.704450,-0.188683,-0.677535,-0.095372
52612,NaN,9.833156,-2.156455,0.150489,-0.345455,-0.684529,0.226025,-0.245537,-0.001292,0.523611,-0.600342,0.135498,-0.262939,0.098388,-0.021305,0.001532,0.999996,-0.001228,-0.000006,0.002618,0.704429,-0.191371,-0.676950,-0.094313
52613,NaN,9.572569,-1.745577,0.245074,-0.272028,-0.258747,-0.086432,-0.191514,0.008443,0.483031,-0.606934,0.137695,-0.247803,0.095768,-0.017222,0.002463,0.999997,-0.000958,0.000042,0.002415,0.704499,-0.193676,-0.676367,-0.093267
52614,NaN,9.725714,-2.137215,0.347939,-0.493906,-0.507779,0.125940,-0.136029,0.004402,0.446186,-0.604980,0.139893,-0.258545,0.097305,-0.021153,0.003492,0.999997,-0.000680,0.000022,0.002231,0.704569,-0.195735,-0.675863,-0.092089
52615,NaN,9.524790,-2.113581,-0.032898,-0.135017,-0.626454,-0.077230,-0.132441,0.003796,0.402506,-0.602783,0.142090,-0.248047,0.095290,-0.020944,-0.000317,0.999998,-0.000662,0.000019,0.002013,0.704635,-0.197559,-0.675394,-0.091122
52616,NaN,9.253422,-1.898397,-0.153539,0.053685,-0.479300,-0.377616,-0.091714,-0.028151,0.381788,-0.607178,0.142090,-0.254395,0.092570,-0.018808,-0.001514,0.999998,-0.000459,-0.000141,0.001909,0.704611,-0.199285,-0.675067,-0.089959
52617,NaN,9.878089,-2.230144,0.284238,-0.422619,-0.479306,0.297828,-0.030849,-0.038324,0.362890,-0.600830,0.146240,-0.243652,0.098821,-0.022122,0.002865,0.999998,-0.000154,-0.000192,0.001814,0.704612,-0.200635,-0.674827,-0.088747
52618,NaN,9.784242,-1.811307,0.603076,-0.544125,0.050223,0.141068,-0.000356,-0.026254,0.326781,-0.603027,0.144043,-0.254395,0.097871,-0.017953,0.006044,0.999999,-0.000002,-0.000131,0.001634,0.704659,-0.201868,-0.674579,-0.087453
52619,NaN,9.581384,-1.623667,0.746296,-0.607530,0.277234,-0.088998,-0.014348,-0.059163,0.304520,-0.607422,0.148438,-0.241699,0.095836,-0.016090,0.007492,0.999999,-0.000072,-0.000296,0.001523,0.704577,-0.202971,-0.674474,-0.086368
52620,NaN,9.657900,-1.864653,0.529989,-0.492704,0.015322,0.025493,-0.034373,-0.075484,0.265660,-0.604980,0.144043,-0.258789,0.096602,-0.018517,0.005340,0.999999,-0.000172,-0.000377,0.001328,0.704424,-0.204124,-0.674414,-0.085364
52621,NaN,9.267517,-1.800102,0.405154,-0.380478,-0.011236,-0.370948,-0.061518,-0.088629,0.241946,-0.607422,0.148438,-0.241699,0.092695,-0.017888,0.004098,0.999999,-0.000308,-0.000443,0.001210,0.704164,-0.205194,-0.674453,-0.084629
52622,NaN,9.730316,-2.268660,0.225185,-0.365610,-0.406154,0.166185,-0.084649,-0.114105,0.207544,-0.611572,0.148438,-0.252441,0.097325,-0.022585,0.002317,0.999999,-0.000423,-0.000571,0.001038,0.703820,-0.206336,-0.674547,-0.083961
52623,NaN,9.763813,-2.359367,0.142835,-0.327985,-0.492490,0.215717,-0.090985,-0.116885,0.180937,-0.611816,0.148438,-0.237305,0.097659,-0.023505,0.001496,0.999999,-0.000455,-0.000584,0.000905,0.703407,-0.207316,-0.674734,-0.083511
52624,NaN,9.599238,-2.051725,0.129848,-0.209386,-0.224773,-0.000582,-0.096380,-0.106604,0.140963,-0.615967,0.146240,-0.241699,0.096006,-0.020449,0.001360,0.999999,-0.000482,-0.000533,0.000705,0.703052,-0.208286,-0.674854,-0.083108
52625,NaN,9.629455,-2.113784,0.118937,-0.227409,-0.264229,0.040591,-0.079327,-0.094314,0.105724,-0.614014,0.154785,-0.230957,0.096305,-0.021086,0.001243,1.000000,-0.000397,-0.000472,0.000529,0.702694,-0.208961,-0.675043,-0.082906
52626,NaN,9.654528,-2.117921,-0.010255,-0.112551,-0.301140,0.066191,-0.071490,-0.084196,0.070524,-0.611572,0.146240,-0.241699,0.096553,-0.021145,-0.000054,1.000000,-0.000357,-0.000421,0.000353,0.702412,-0.209599,-0.675165,-0.082686
52627,NaN,9.599946,-2.279167,-0.307699,0.084645,-0.567220,0.042226,-0.062608,-0.075388,0.041339,-0.609863,0.156982,-0.233154,0.096005,-0.022773,-0.003034,1.000000,-0.000313,-0.000377,0.000207,0.702108,-0.209989,-0.675362,-0.082673
52628,NaN,9.594586,-2.260401,-0.245776,0.031131,-0.517130,0.034013,-0.049879,-0.064423,0.016302,-0.612061,0.156982,-0.243896,0.095948,-0.022597,-0.002421,1.000000,-0.000249,-0.000322,0.000082,0.701884,-0.210370,-0.675487,-0.082583
52629,NaN,9.698382,-2.179306,0.020449,-0.176967,-0.316276,0.120945,-0.005815,-0.036319,-0.014716,-0.618408,0.152832,-0.237549,0.096982,-0.021800,0.000223,1.000000,-0.000029,-0.000182,-0.000074,0.701749,-0.210356,-0.675628,-0.082616
52630,NaN,9.752989,-2.081739,0.043472,-0.156556,-0.208313,0.156686,0.002124,-0.018166,-0.046653,-0.611572,0.146240,-0.245850,0.097525,-0.020840,0.000443,1.000000,0.000011,-0.000091,-0.000233,0.701704,-0.210330,-0.675683,-0.082613
52631,NaN,9.627309,-1.921555,-0.029740,-0.037784,-0.119995,0.003753,0.002209,-0.000427,-0.062457,-0.609619,0.152588,-0.235352,0.096267,-0.019246,-0.000297,1.000000,0.000011,-0.000002,-0.000312,0.701678,-0.210112,-0.675752,-0.082824
52632,NaN,9.665808,-1.985876,-0.099638,0.001918,-0.202886,0.053432,0.002772,-0.006646,-0.085657,-0.609619,0.150635,-0.239502,0.096650,-0.019900,-0.000993,1.000000,0.000014,-0.000033,-0.000428,0.701656,-0.209944,-0.675809,-0.082971
52633,NaN,9.663289,-2.026980,-0.067474,-0.047862,-0.235706,0.058204,0.015646,0.004129,-0.104011,-0.616211,0.150635,-0.237305,0.096622,-0.020320,-0.000678,1.000000,0.000078,0.000021,-0.000520,0.701643,-0.209536,-0.675911,-0.083287
52634,NaN,9.550650,-1.971213,0.099714,-0.188283,-0.143286,-0.063095,0.016446,0.005650,-0.117431,-0.616211,0.152832,-0.241699,0.095495,-0.019768,0.000993,1.000000,0.000082,0.000028,-0.000587,0.701659,-0.209207,-0.675968,-0.083514
52635,NaN,9.711770,-1.890622,0.097556,-0.147762,-0.056639,0.080612,-0.011057,-0.009552,-0.141650,-0.616211,0.150635,-0.237305,0.097104,-0.018975,0.000981,1.000000,-0.000055,-0.000048,-0.000708,0.701555,-0.208770,-0.676146,-0.084038
52636,NaN,9.538418,-1.910019,-0.108978,0.016089,-0.196280,-0.086297,-0.036996,0.003592,-0.152909,-0.612061,0.154785,-0.243896,0.095370,-0.019173,-0.001088,1.000000,-0.000185,0.000018,-0.000765,0.701496,-0.208504,-0.676223,-0.084573
52637,NaN,9.696872,-1.923656,-0.116275,0.021559,-0.199576,0.071794,-0.038907,-0.003021,-0.164163,-0.616211,0.150635,-0.235352,0.096953,-0.019316,-0.001158,1.000000,-0.000195,-0.000015,-0.000821,0.701375,-0.208087,-0.676389,-0.085277
52638,NaN,9.712117,-1.862582,-0.027033,-0.039904,-0.118152,0.075668,-0.040465,0.011232,-0.181019,-0.609619,0.148438,-0.241699,0.097104,-0.018714,-0.000272,1.000000,-0.000202,0.000056,-0.000905,0.701319,-0.207732,-0.676472,-0.085933
52639,NaN,9.730908,-1.966006,-0.048502,-0.067860,-0.233901,0.111966,-0.007102,0.003307,-0.193379,-0.611816,0.152588,-0.233154,0.097290,-0.019754,-0.000486,1.000000,-0.000036,0.000017,-0.000967,0.701239,-0.207101,-0.676658,-0.086639
52640,NaN,9.694481,-1.757148,0.096877,-0.124515,-0.007752,0.039435,0.017713,0.017172,-0.201092,-0.613770,0.144043,-0.243652,0.096927,-0.017669,0.000959,0.999999,0.000089,0.000086,-0.001005,0.701253,-0.206469,-0.676768,-0.087177
52641,NaN,9.767401,-1.714812,0.104714,-0.116564,0.026030,0.103933,0.012451,0.006887,-0.205886,-0.611816,0.148438,-0.237305,0.097656,-0.017249,0.001043,0.999999,0.000062,0.000034,-0.001029,0.701198,-0.205726,-0.676962,-0.087864
52642,NaN,9.742381,-1.665853,0.034648,-0.041289,0.021419,0.071040,-0.007196,-0.004404,-0.215367,-0.613525,0.142090,-0.250244,0.097406,-0.016763,0.000349,0.999999,-0.000036,-0.000022,-0.001077,0.701108,-0.205133,-0.677149,-0.088523
52643,NaN,9.754730,-1.602234,0.158005,-0.136742,0.111844,0.072435,-0.003602,-0.006889,-0.211854,-0.609375,0.144043,-0.237305,0.097530,-0.016126,0.001584,0.999999,-0.000018,-0.000034,-0.001059,0.700986,-0.204432,-0.677390,-0.089270
52644,NaN,9.740322,-1.702175,0.131666,-0.162645,-0.006928,0.074783,-0.015326,-0.031047,-0.215549,-0.613525,0.139893,-0.250000,0.097385,-0.017127,0.001333,0.999999,-0.000077,-0.000155,-0.001078,0.700798,-0.203869,-0.677666,-0.089940
52645,NaN,9.731073,-1.654124,0.076415,-0.105369,-0.005516,0.057702,-0.011588,-0.036905,-0.214784,-0.611572,0.142090,-0.232910,0.097293,-0.016646,0.000783,0.999999,-0.000058,-0.000185,-0.001074,0.700563,-0.203198,-0.678009,-0.090693
52646,NaN,9.769972,-1.778342,0.032880,-0.124500,-0.144548,0.116033,-0.006506,-0.056499,-0.216714,-0.609375,0.139893,-0.243652,0.097680,-0.017889,0.000357,0.999999,-0.000033,-0.000282,-0.001084,0.700298,-0.202605,-0.678377,-0.091317
52647,NaN,9.786043,-1.881481,0.074154,-0.216874,-0.235912,0.147703,0.013289,-0.062133,-0.222350,-0.607178,0.144043,-0.239502,0.097839,-0.018924,0.000771,0.999999,0.000066,-0.000311,-0.001112,0.699998,-0.201833,-0.678826,-0.091987
52648,NaN,9.805915,-1.909005,0.084606,-0.249028,-0.269527,0.170935,0.039714,-0.064176,-0.231806,-0.613525,0.137695,-0.243652,0.098037,-0.019204,0.000874,0.999999,0.000199,-0.000321,-0.001159,0.699745,-0.201030,-0.679255,-0.092499
52649,NaN,9.821488,-1.865382,0.168195,-0.321023,-0.213762,0.178346,0.084493,-0.057967,-0.244416,-0.606934,0.135498,-0.239258,0.098191,-0.018775,0.001702,0.999999,0.000422,-0.000290,-0.001222,0.699519,-0.199931,-0.679743,-0.093008
52650,NaN,9.807831,-1.768682,0.183983,-0.308843,-0.140557,0.149262,0.117495,-0.052099,-0.245341,-0.608887,0.131348,-0.245605,0.098056,-0.017808,0.001855,0.999999,0.000587,-0.000260,-0.001227,0.699382,-0.198806,-0.680172,-0.093312
52651,NaN,9.812216,-1.744435,0.181656,-0.308859,-0.140549,0.149262,0.147831,-0.042827,-0.244066,-0.611328,0.133301,-0.237061,0.098100,-0.017565,0.001825,0.999999,0.000739,-0.000214,-0.001220,0.699268,-0.197479,-0.680634,-0.093620
52652,NaN,9.752706,-1.741227,0.105042,-0.250512,-0.196336,0.089677,0.185853,-0.052892,-0.250417,-0.604736,0.133301,-0.245605,0.097505,-0.017535,0.001060,0.999999,0.000929,-0.000264,-0.001252,0.699195,-0.196096,-0.681096,-0.093708
52653,NaN,9.727778,-1.737562,0.031028,-0.194482,-0.248850,0.064050,0.208631,-0.052608,-0.263427,-0.609131,0.135498,-0.241455,0.097255,-0.017504,0.000318,0.999999,0.001043,-0.000263,-0.001317,0.699096,-0.194494,-0.681635,-0.093867
52654,NaN,9.723754,-1.706364,-0.092053,-0.079553,-0.291869,0.055441,0.232250,-0.054575,-0.280408,-0.604492,0.126953,-0.247803,0.097214,-0.017199,-0.000914,0.999998,0.001161,-0.000273,-0.001402,0.699047,-0.192847,-0.682148,-0.093899
52655,NaN,9.717415,-1.537448,0.050366,-0.155880,-0.108250,0.023895,0.263088,-0.043906,-0.293092,-0.602539,0.133301,-0.241455,0.097151,-0.015518,0.000505,0.999998,0.001315,-0.000220,-0.001465,0.699011,-0.190948,-0.682707,-0.093983
52656,NaN,9.663745,-1.462880,0.133167,-0.216469,-0.039009,-0.040417,0.257795,-0.064785,-0.307910,-0.604492,0.126953,-0.249756,0.096614,-0.014779,0.001344,0.999998,0.001289,-0.000324,-0.001540,0.698934,-0.189120,-0.683291,-0.094015
52657,NaN,9.706276,-1.652246,0.126682,-0.295703,-0.235681,0.026759,0.252399,-0.052587,-0.300309,-0.602295,0.122803,-0.241211,0.097037,-0.016670,0.001271,0.999998,0.001262,-0.000263,-0.001502,0.698850,-0.187237,-0.683876,-0.094152
52658,NaN,9.660812,-1.499631,0.074028,-0.201054,-0.147722,-0.039083,0.278707,-0.057010,-0.310207,-0.600098,0.122803,-0.251953,0.096584,-0.015147,0.000747,0.999998,0.001394,-0.000285,-0.001551,0.698815,-0.185322,-0.684437,-0.094129
52659,NaN,10.082915,-1.336157,0.001341,-0.064718,-0.003163,0.358164,0.289842,-0.042214,-0.307534,-0.597900,0.124756,-0.243408,0.100808,-0.013517,0.000015,0.999998,0.001449,-0.000211,-0.001538,0.698792,-0.183276,-0.685005,-0.094172
52660,NaN,9.801463,-1.186498,-0.170482,0.128990,0.008176,0.060952,0.307937,-0.034211,-0.305016,-0.599854,0.116211,-0.256104,0.097997,-0.012012,-0.001706,0.999998,0.001540,-0.000171,-0.001525,0.698859,-0.181260,-0.685488,-0.094055
52661,NaN,9.837992,-1.107663,-0.166645,0.146161,0.058885,0.087609,0.350135,-0.032723,-0.300001,-0.604248,0.120605,-0.243408,0.098363,-0.011221,-0.001670,0.999997,0.001751,-0.000164,-0.001500,0.698921,-0.179024,-0.686038,-0.093873
52662,NaN,9.766149,-0.960200,-0.133945,0.160141,0.174113,-0.001389,0.370626,-0.029343,-0.285182,-0.593262,0.114014,-0.249512,0.097648,-0.009739,-0.001343,0.999997,0.001853,-0.000147,-0.001426,0.699057,-0.176846,-0.686517,-0.093483
52663,NaN,9.738017,-0.909037,-0.204405,0.233671,0.166543,-0.034410,0.343166,-0.031419,-0.275527,-0.595459,0.116211,-0.245361,0.097368,-0.009221,-0.002045,0.999998,0.001716,-0.000157,-0.001378,0.699122,-0.174715,-0.687029,-0.093240
52664,NaN,9.758686,-0.882865,-0.220628,0.251092,0.165157,-0.016274,0.319474,-0.032211,-0.258865,-0.593262,0.114014,-0.253906,0.097576,-0.008951,-0.002205,0.999998,0.001597,-0.000161,-0.001294,0.699204,-0.172796,-0.687472,-0.092942
52665,NaN,9.747857,-0.884232,-0.274043,0.290820,0.121564,-0.026049,0.281445,-0.030877,-0.231172,-0.599854,0.116211,-0.247559,0.097469,-0.008951,-0.002738,0.999998,0.001407,-0.000154,-0.001156,0.699232,-0.171032,-0.687910,-0.092755
52666,NaN,9.721963,-0.864242,-0.380156,0.389021,0.080941,-0.053073,0.268357,-0.028977,-0.210712,-0.593262,0.114014,-0.253906,0.097211,-0.008740,-0.003799,0.999999,0.001342,-0.000145,-0.001054,0.699291,-0.169446,-0.688279,-0.092476
52667,NaN,9.732043,-0.772391,-0.292632,0.334561,0.181693,-0.053082,0.271787,-0.013945,-0.185456,-0.593262,0.112061,-0.247314,0.097313,-0.007810,-0.002930,0.999999,0.001359,-0.000070,-0.000927,0.699386,-0.167863,-0.688610,-0.092177
52668,NaN,9.697849,-0.684435,-0.327794,0.394274,0.232660,-0.095971,0.268234,0.005556,-0.166212,-0.588867,0.107666,-0.255859,0.096973,-0.006921,-0.003290,0.999999,0.001341,0.000028,-0.000831,0.699572,-0.166406,-0.688828,-0.091781
52669,NaN,9.842550,-0.590155,-0.195440,0.306309,0.368579,0.037825,0.239694,0.002798,-0.131955,-0.588867,0.107666,-0.251709,0.098422,-0.005964,-0.001963,0.999999,0.001198,0.000014,-0.000660,0.699719,-0.165112,-0.689038,-0.091419
52670,NaN,9.844443,-0.602981,-0.193613,0.298170,0.347264,0.041480,0.193147,0.005326,-0.111485,-0.590820,0.107666,-0.253906,0.098441,-0.006083,-0.001945,0.999999,0.000966,0.000027,-0.000557,0.699858,-0.164094,-0.689183,-0.091102
52671,NaN,9.901594,-0.712207,-0.170144,0.237771,0.249576,0.109959,0.173322,0.010711,-0.099502,-0.591064,0.109863,-0.245361,0.099012,-0.007170,-0.001713,0.999999,0.000867,0.000054,-0.000498,0.699991,-0.163140,-0.689306,-0.090861
52672,NaN,9.946227,-0.848295,-0.198375,0.217546,0.109193,0.168652,0.170548,0.015433,-0.082102,-0.584473,0.105469,-0.258057,0.099459,-0.008522,-0.001999,1.000000,0.000853,0.000077,-0.000411,0.700152,-0.162287,-0.689386,-0.090537
52673,NaN,10.051788,-1.007449,-0.342522,0.300448,-0.088523,0.290411,0.170693,0.022115,-0.093554,-0.588867,0.107666,-0.249512,0.100513,-0.010119,-0.003445,1.000000,0.000853,0.000111,-0.000468,0.700324,-0.161357,-0.689462,-0.090294
52674,NaN,9.950364,-1.201306,-0.463903,0.344515,-0.330244,0.209305,0.191346,0.027130,-0.093542,-0.586182,0.096924,-0.260010,0.099497,-0.012055,-0.004664,0.999999,0.000957,0.000136,-0.000468,0.700530,-0.160384,-0.689524,-0.089952
52675,NaN,9.987378,-1.215279,-0.454972,0.335427,-0.346953,0.247070,0.240970,0.047707,-0.098329,-0.586426,0.101318,-0.251465,0.099867,-0.012196,-0.004588,0.999999,0.001205,0.000239,-0.000492,0.700843,-0.159179,-0.689544,-0.089503
52676,NaN,9.706652,-1.051812,-0.502446,0.431513,-0.246830,-0.048943,0.265218,0.052809,-0.094890,-0.586182,0.099121,-0.257812,0.097060,-0.010557,-0.005064,0.999999,0.001326,0.000264,-0.000474,0.701186,-0.157935,-0.689556,-0.088928
52677,NaN,9.588132,-1.008504,-0.816274,0.740319,-0.334391,-0.171331,0.282864,0.016191,-0.093202,-0.588623,0.101318,-0.251465,0.095876,-0.010118,-0.008185,0.999999,0.001414,0.000081,-0.000466,0.701422,-0.156615,-0.689698,-0.088291
52678,NaN,9.827705,-0.868089,-0.868329,0.846047,-0.204847,0.053092,0.317717,0.005418,-0.087090,-0.590332,0.092773,-0.262207,0.098273,-0.008710,-0.008700,0.999999,0.001589,0.000027,-0.000435,0.701630,-0.155236,-0.689903,-0.087469
52679,NaN,9.573457,-1.076375,-1.016405,0.907399,-0.479488,-0.179959,0.344796,-0.018542,-0.093264,-0.590332,0.088379,-0.260010,0.095730,-0.010791,-0.010174,0.999998,0.001724,-0.000093,-0.000466,0.701792,-0.153712,-0.690191,-0.086592
52680,NaN,9.670242,-1.268308,-1.245225,1.061506,-0.731730,-0.065352,0.428706,-0.033342,-0.104189,-0.585693,0.082031,-0.261963,0.096698,-0.012707,-0.012463,0.999998,0.002144,-0.000167,-0.000521,0.701922,-0.151903,-0.690605,-0.085415
52681,NaN,9.617955,-1.020231,-1.184517,1.084954,-0.488348,-0.141421,0.511635,-0.030840,-0.107527,-0.585693,0.084229,-0.255615,0.096176,-0.010224,-0.011856,0.999997,0.002558,-0.000154,-0.000538,0.702155,-0.149749,-0.691011,-0.084001
52682,NaN,9.516139,-1.069654,-1.152681,1.034886,-0.537006,-0.238223,0.564941,-0.043204,-0.116947,-0.594238,0.079834,-0.270508,0.095158,-0.010720,-0.011537,0.999996,0.002825,-0.000216,-0.000585,0.702320,-0.147428,-0.691538,-0.082384
52683,NaN,9.529523,-1.025916,-0.839459,0.753274,-0.399261,-0.229256,0.613483,-0.037789,-0.104353,-0.594238,0.079834,-0.264160,0.095291,-0.010283,-0.008408,0.999995,0.003067,-0.000189,-0.000522,0.702594,-0.144928,-0.691998,-0.080601
52684,NaN,9.399883,-1.091241,-0.616360,0.517011,-0.406263,-0.352446,0.651086,-0.036442,-0.099646,-0.593750,0.064941,-0.270264,0.093995,-0.010939,-0.006182,0.999995,0.003255,-0.000182,-0.000498,0.702824,-0.142363,-0.692524,-0.078626
52685,NaN,9.147344,-1.068190,-0.456862,0.366938,-0.363436,-0.606336,0.668940,-0.039063,-0.095546,-0.597900,0.064941,-0.263916,0.091469,-0.010710,-0.004587,0.999994,0.003345,-0.000195,-0.000478,0.703122,-0.139696,-0.692989,-0.076616
52686,NaN,9.216608,-0.994143,-0.228208,0.172428,-0.223290,-0.544102,0.691308,-0.048605,-0.092127,-0.597412,0.052002,-0.278809,0.092162,-0.009976,-0.002294,0.999994,0.003457,-0.000243,-0.000461,0.703320,-0.137021,-0.693558,-0.074461
52687,NaN,9.240134,-0.995172,-0.016096,-0.030036,-0.166988,-0.520652,0.666383,-0.052962,-0.082206,-0.595459,0.052002,-0.274414,0.092397,-0.009989,-0.000170,0.999994,0.003332,-0.000265,-0.000411,0.703557,-0.134412,-0.694045,-0.072402
52688,NaN,9.138206,-1.062723,0.054772,-0.121430,-0.225813,-0.616305,0.642149,-0.037872,-0.078662,-0.597168,0.045654,-0.278564,0.091378,-0.010665,0.000531,0.999995,0.003211,-0.000189,-0.000393,0.703750,-0.131950,-0.694530,-0.070375
52689,NaN,9.180626,-0.882740,0.324600,-0.327356,0.017965,-0.589836,0.619755,-0.025369,-0.061253,-0.601562,0.045654,-0.270020,0.091803,-0.008866,0.003230,0.999995,0.003099,-0.000127,-0.000306,0.704045,-0.129565,-0.694875,-0.068420
52690,NaN,9.194210,-0.577061,0.631307,-0.539101,0.391085,-0.602831,0.550551,-0.033688,-0.034077,-0.596924,0.037109,-0.287109,0.091940,-0.005804,0.006313,0.999996,0.002753,-0.000168,-0.000170,0.704203,-0.127577,-0.695264,-0.066555
52691,NaN,9.776810,-0.367961,0.803861,-0.637642,0.682229,-0.040504,0.415790,-0.054771,-0.015541,-0.607666,0.034912,-0.278564,0.097766,-0.003704,0.008058,0.999998,0.002079,-0.000274,-0.000078,0.704271,-0.126077,-0.695604,-0.065129
52692,NaN,10.541660,-0.145203,1.732219,-1.458839,1.206598,0.702262,0.307943,-0.007639,0.009717,-0.607422,0.030762,-0.299805,0.105416,-0.001474,0.017324,0.999999,0.001540,-0.000038,0.000049,0.704389,-0.125075,-0.695773,-0.063978
52693,NaN,10.629280,-0.213406,2.426217,-2.141038,1.329229,0.796872,0.171060,0.069251,0.032725,-0.607422,0.028564,-0.286865,0.106302,-0.002137,0.024224,1.000000,0.000855,0.000346,0.000164,0.704746,-0.124564,-0.695564,-0.063310
52694,NaN,10.442103,0.131518,2.807236,-2.412733,1.744912,0.582955,0.036838,0.121058,0.040444,-0.603027,0.026367,-0.289062,0.104438,0.001331,0.028009,1.000000,0.000184,0.000605,0.000202,0.705187,-0.124562,-0.695137,-0.063092
52695,NaN,10.231391,0.209794,2.102161,-1.704460,1.618373,0.366710,-0.109905,0.110953,0.040297,-0.609619,0.032715,-0.287109,0.102325,0.002130,0.020964,1.000000,-0.000550,0.000555,0.000201,0.705516,-0.125055,-0.694687,-0.063400
52696,NaN,9.924468,0.047181,1.291409,-0.960381,1.226544,0.073579,-0.240120,0.101293,0.062334,-0.603271,0.030762,-0.293457,0.099251,0.000518,0.012863,0.999999,-0.001201,0.000506,0.000312,0.705759,-0.126085,-0.694191,-0.064076
52697,NaN,9.486114,-0.443910,0.480495,-0.313198,0.510392,-0.322920,-0.389509,0.031436,0.107811,-0.603516,0.039307,-0.278564,0.094864,-0.004379,0.004799,0.999998,-0.001948,0.000157,0.000539,0.705655,-0.127824,-0.693886,-0.065066
52698,NaN,9.461505,-0.703659,-0.282145,0.352230,0.064452,-0.327616,-0.459403,-0.026997,0.137669,-0.601318,0.039307,-0.293457,0.094620,-0.006978,-0.002793,0.999997,-0.002297,-0.000135,0.000688,0.705345,-0.129917,-0.693709,-0.066167
52699,NaN,9.612271,-1.219454,-0.808545,0.716552,-0.548749,-0.131677,-0.431559,-0.055158,0.130670,-0.603760,0.043457,-0.274414,0.096133,-0.012149,-0.008033,0.999997,-0.002158,-0.000276,0.000653,0.704914,-0.131910,-0.693675,-0.067166
52700,NaN,9.953401,-1.654444,-1.160528,0.935825,-1.021697,0.248851,-0.359831,-0.058464,0.121535,-0.607910,0.041260,-0.287109,0.099547,-0.016505,-0.011546,0.999998,-0.001799,-0.000292,0.000608,0.704537,-0.133609,-0.693656,-0.067954
52701,NaN,9.920289,-1.557160,-1.057663,0.858244,-0.892107,0.208445,-0.211093,-0.010798,0.113336,-0.608154,0.049805,-0.276611,0.099212,-0.015527,-0.010555,0.999999,-0.001055,-0.000054,0.000567,0.704396,-0.134750,-0.693547,-0.068279
52702,NaN,9.992703,-1.343480,-0.795399,0.669707,-0.597480,0.261349,-0.117711,0.008115,0.098256,-0.607910,0.045654,-0.285156,0.099933,-0.013390,-0.007950,1.000000,-0.000589,0.000041,0.000491,0.704384,-0.135506,-0.693405,-0.068342
52703,NaN,9.935707,-1.373287,-0.413744,0.298041,-0.514447,0.208384,-0.010237,0.046800,0.081463,-0.606201,0.052002,-0.282959,0.099362,-0.013693,-0.004160,1.000000,-0.000051,0.000234,0.000407,0.704566,-0.135809,-0.693182,-0.068122
52704,NaN,9.937424,-1.295491,0.036837,-0.103717,-0.305260,0.203704,0.076688,0.063697,0.073688,-0.603516,0.041260,-0.287109,0.099379,-0.012918,0.000332,1.000000,0.000383,0.000318,0.000368,0.704861,-0.135784,-0.692936,-0.067628
52705,NaN,9.810922,-1.033004,0.414321,-0.385828,0.044868,0.053520,0.084790,0.073234,0.055705,-0.608154,0.047852,-0.276611,0.098114,-0.010304,0.004103,1.000000,0.000424,0.000366,0.000279,0.705191,-0.135653,-0.692669,-0.067187
52706,NaN,9.712136,-0.960042,0.530196,-0.471382,0.140700,-0.051214,0.065579,0.054726,0.037853,-0.608154,0.047852,-0.291504,0.097125,-0.009584,0.005272,1.000000,0.000328,0.000274,0.000189,0.705438,-0.135548,-0.692470,-0.066851
52707,NaN,9.668940,-0.932452,0.634193,-0.558965,0.193869,-0.096205,0.037603,0.041140,0.027528,-0.608154,0.047852,-0.278809,0.096692,-0.009312,0.006320,1.000000,0.000188,0.000206,0.000138,0.705614,-0.135497,-0.692320,-0.066651
52708,NaN,9.651744,-0.845597,0.541670,-0.442905,0.250741,-0.122199,-0.006360,0.009225,0.023232,-0.603760,0.047852,-0.289307,0.096519,-0.008445,0.005413,1.000000,-0.000032,0.000046,0.000116,0.705658,-0.135608,-0.692260,-0.066585
52709,NaN,9.763997,-0.852547,0.409917,-0.315058,0.219544,-0.010491,-0.055545,-0.020517,0.017404,-0.603760,0.049805,-0.282959,0.097640,-0.008516,0.004112,1.000000,-0.000278,-0.000103,0.000087,0.705554,-0.135871,-0.692303,-0.066701
52710,NaN,9.741418,-0.915864,0.270694,-0.202926,0.120306,-0.027410,-0.108265,-0.042228,0.011634,-0.603760,0.045654,-0.289307,0.097414,-0.009152,0.002732,1.000000,-0.000541,-0.000211,0.000058,0.705351,-0.136315,-0.692394,-0.066997
52711,NaN,9.645500,-0.976895,0.193699,-0.154987,0.033614,-0.117206,-0.122760,-0.058024,0.000249,-0.608154,0.049805,-0.280762,0.096454,-0.009768,0.001971,1.000000,-0.000614,-0.000290,0.000001,0.705066,-0.136768,-0.692558,-0.067381
52712,NaN,9.595544,-1.207942,0.096729,-0.136028,-0.216651,-0.144311,-0.124549,-0.069578,0.001248,-0.612305,0.045654,-0.285156,0.095955,-0.012078,0.001008,1.000000,-0.000623,-0.000348,0.000006,0.704756,-0.137241,-0.692744,-0.067752
52713,NaN,9.620642,-1.215795,-0.031080,-0.023428,-0.256292,-0.118894,-0.116580,-0.079249,-0.008551,-0.606201,0.052002,-0.276611,0.096206,-0.012162,-0.000266,1.000000,-0.000583,-0.000396,-0.000043,0.704397,-0.137650,-0.692990,-0.068131
52714,NaN,9.713071,-1.194548,-0.157191,0.097735,-0.261632,-0.029161,-0.086082,-0.083464,-0.007460,-0.605957,0.050049,-0.285156,0.097131,-0.011950,-0.001526,1.000000,-0.000430,-0.000417,-0.000037,0.704061,-0.137964,-0.693244,-0.068386
52715,NaN,9.857890,-1.059194,-0.114970,0.091657,-0.104833,0.101631,-0.054340,-0.084166,-0.006026,-0.608154,0.049805,-0.274414,0.098579,-0.010595,-0.001105,1.000000,-0.000272,-0.000421,-0.000030,0.703729,-0.138164,-0.693526,-0.068537
52716,NaN,9.953597,-0.952325,-0.090382,0.093879,0.014953,0.186320,-0.034844,-0.073833,-0.012149,-0.601562,0.047852,-0.287354,0.099536,-0.009529,-0.000865,1.000000,-0.000174,-0.000369,-0.000061,0.703458,-0.138281,-0.693769,-0.068637
52717,NaN,9.923467,-0.958262,-0.168167,0.158652,-0.015163,0.157084,-0.009084,-0.064204,-0.010922,-0.608154,0.052002,-0.281006,0.099235,-0.009588,-0.001649,1.000000,-0.000045,-0.000321,-0.000055,0.703224,-0.138297,-0.693999,-0.068662
52718,NaN,9.888308,-0.981091,-0.139823,0.118358,-0.031024,0.124402,0.010950,-0.055794,-0.009607,-0.605957,0.049805,-0.278809,0.098883,-0.009816,-0.001371,1.000000,0.000055,-0.000279,-0.000048,0.703045,-0.138255,-0.694194,-0.068607
52719,NaN,9.866588,-0.953709,-0.096239,0.078934,0.006805,0.100037,0.023668,-0.051563,0.002705,-0.606201,0.056396,-0.274414,0.098666,-0.009536,-0.000938,1.000000,0.000118,-0.000258,0.000014,0.702883,-0.138199,-0.694383,-0.068479
52720,NaN,9.861761,-0.902688,-0.070039,0.064533,0.064180,0.090130,0.022267,-0.042506,-0.000664,-0.608398,0.054199,-0.282959,0.098618,-0.009027,-0.000680,1.000000,0.000111,-0.000213,-0.000003,0.702759,-0.138143,-0.694530,-0.068363
52721,NaN,9.786058,-0.853619,-0.012335,0.018262,0.121843,0.009765,0.015969,-0.031641,0.010486,-0.604004,0.054199,-0.274414,0.097861,-0.008531,-0.000109,1.000000,0.000080,-0.000158,0.000052,0.702663,-0.138135,-0.694640,-0.068248
52722,NaN,9.805495,-0.879713,-0.029709,0.025717,0.096410,0.031730,-0.011207,-0.030320,0.021118,-0.601807,0.049805,-0.287354,0.098056,-0.008787,-0.000282,1.000000,-0.000056,-0.000152,0.000106,0.702566,-0.138266,-0.694719,-0.068182
52723,NaN,9.822137,-0.858158,-0.050787,0.050407,0.115733,0.046189,-0.037879,-0.025603,0.030154,-0.604248,0.060547,-0.274658,0.098223,-0.008567,-0.000494,1.000000,-0.000189,-0.000128,0.000151,0.702460,-0.138513,-0.694776,-0.068189
52724,NaN,9.774578,-0.892563,-0.106172,0.090734,0.066463,0.002488,-0.059632,-0.024411,0.036810,-0.606201,0.054199,-0.282959,0.097748,-0.008908,-0.001047,1.000000,-0.000298,-0.000122,0.000184,0.702354,-0.138866,-0.694808,-0.068242
52725,NaN,9.798377,-0.972307,-0.154239,0.112607,-0.016280,0.034363,-0.073788,-0.024054,0.048196,-0.610840,0.060547,-0.270264,0.097986,-0.009700,-0.001527,1.000000,-0.000369,-0.000120,0.000241,0.702235,-0.139301,-0.694834,-0.068312
52726,NaN,9.855116,-1.026373,-0.202448,0.143124,-0.070590,0.096513,-0.075067,-0.023957,0.050901,-0.604248,0.058594,-0.283203,0.098554,-0.010239,-0.002009,1.000000,-0.000375,-0.000120,0.000255,0.702123,-0.139756,-0.694851,-0.068370
52727,NaN,9.807892,-1.040483,-0.293679,0.224174,-0.109697,0.051455,-0.054622,-0.013191,0.053324,-0.604248,0.062744,-0.274658,0.098082,-0.010379,-0.002927,1.000000,-0.000273,-0.000066,0.000267,0.702056,-0.140138,-0.694842,-0.068362
52728,NaN,9.892300,-1.107207,-0.199044,0.116627,-0.131999,0.141814,-0.040879,-0.004068,0.047222,-0.606201,0.056396,-0.281006,0.098926,-0.011049,-0.001986,1.000000,-0.000204,-0.000020,0.000236,0.702033,-0.140453,-0.694805,-0.068328
52729,NaN,9.768359,-1.114684,-0.154045,0.069443,-0.134102,0.019112,-0.016906,0.008638,0.040772,-0.606689,0.064941,-0.272461,0.097686,-0.011127,-0.001544,1.000000,-0.000085,0.000043,0.000204,0.702064,-0.140652,-0.694741,-0.068249
52730,NaN,9.753577,-1.190899,-0.131737,0.027312,-0.198144,0.012172,-0.000789,0.007240,0.031465,-0.599854,0.056396,-0.278809,0.097538,-0.011894,-0.001321,1.000000,-0.000004,0.000036,0.000157,0.702102,-0.140769,-0.694690,-0.068138
52731,NaN,9.712358,-1.141762,-0.067235,-0.019299,-0.134671,-0.034164,0.007859,0.015966,0.018056,-0.604248,0.058594,-0.274658,0.097125,-0.011409,-0.000681,1.000000,0.000039,0.000080,0.000090,0.702168,-0.140799,-0.694625,-0.068058
52732,NaN,9.744653,-1.138587,-0.029824,-0.051767,-0.116432,-0.002524,0.008054,0.006163,0.006148,-0.604004,0.054199,-0.285156,0.097447,-0.011383,-0.000302,1.000000,0.000040,0.000031,0.000031,0.702199,-0.140800,-0.694599,-0.068003
52733,NaN,9.698515,-1.194016,-0.079603,-0.020464,-0.188334,-0.042462,0.023787,0.010641,-0.000955,-0.606445,0.062744,-0.274658,0.096985,-0.011941,-0.000803,1.000000,0.000119,0.000053,-0.000005,0.702251,-0.140710,-0.694571,-0.067930
52734,NaN,9.723239,-1.111086,0.020971,-0.091096,-0.078309,-0.026887,0.017565,0.004156,-0.014428,-0.604004,0.056396,-0.283203,0.097232,-0.011118,0.000207,1.000000,0.000088,0.000021,-0.000072,0.702275,-0.140608,-0.694570,-0.067911
52735,NaN,9.724158,-1.087601,-0.014812,-0.050124,-0.067973,-0.028250,0.014788,0.000449,-0.018791,-0.606689,0.064941,-0.272461,0.097241,-0.010885,-0.000149,1.000000,0.000074,0.000002,-0.000094,0.702280,-0.140491,-0.694588,-0.067925
52736,NaN,9.788635,-1.031030,0.019671,-0.065381,0.001090,0.029900,0.014192,-0.003978,-0.014432,-0.606201,0.056396,-0.283203,0.097886,-0.010317,0.000198,1.000000,0.000071,-0.000020,-0.000072,0.702273,-0.140403,-0.694614,-0.067912
52737,NaN,9.840893,-0.981514,-0.033206,-0.000035,0.036555,0.077020,0.014672,-0.008831,-0.019385,-0.606445,0.058350,-0.272461,0.098408,-0.009825,-0.000328,1.000000,0.000073,-0.000044,-0.000097,0.702245,-0.140288,-0.694664,-0.067922
52738,NaN,9.858005,-0.955616,-0.051596,0.024792,0.056156,0.091472,0.005814,0.000372,-0.018072,-0.610596,0.058594,-0.285400,0.098579,-0.009565,-0.000516,1.000000,0.000029,0.000002,-0.000090,0.702246,-0.140215,-0.694674,-0.067954
52739,NaN,9.792604,-0.984734,-0.087499,0.048907,0.009895,0.029566,0.006187,0.006355,-0.013876,-0.608398,0.058594,-0.274658,0.097925,-0.009854,-0.000878,1.000000,0.000031,0.000032,-0.000069,0.702268,-0.140144,-0.694664,-0.067985
52740,NaN,9.812237,-1.008056,-0.101018,0.056197,-0.015476,0.051540,0.007004,0.011097,-0.011586,-0.606201,0.056396,-0.285156,0.098122,-0.010086,-0.001016,1.000000,0.000035,0.000055,-0.000058,0.702309,-0.140085,-0.694633,-0.067999
52741,NaN,9.844885,-0.934981,-0.137318,0.114357,0.045636,0.076683,0.012965,0.020886,-0.001711,-0.606201,0.054199,-0.276611,0.098449,-0.009351,-0.001384,1.000000,0.000065,0.000104,-0.000009,0.702389,-0.140027,-0.694566,-0.067974
52742,NaN,9.823949,-0.954099,-0.048219,0.025273,0.050907,0.057438,0.007210,0.023277,0.001462,-0.606445,0.060547,-0.283203,0.098240,-0.009540,-0.000494,1.000000,0.000036,0.000116,0.000007,0.702476,-0.140008,-0.694484,-0.067950
52743,NaN,9.840140,-0.952067,-0.026995,0.008980,0.059920,0.073255,0.006184,0.038329,0.002280,-0.606201,0.056396,-0.274414,0.098401,-0.009520,-0.000289,1.000000,0.000031,0.000192,0.000011,0.702614,-0.139982,-0.694350,-0.067947
52744,NaN,9.805663,-0.954752,-0.024733,0.009378,0.054329,0.039223,0.000707,0.045676,0.012403,-0.610352,0.054199,-0.285156,0.098057,-0.009541,-0.000270,1.000000,0.000004,0.000228,0.000062,0.702778,-0.140015,-0.694180,-0.067924
52745,NaN,9.806805,-0.980585,-0.018154,0.000604,0.031874,0.042986,-0.005082,0.051676,0.018635,-0.610596,0.056396,-0.274658,0.098069,-0.009797,-0.000207,1.000000,-0.000025,0.000258,0.000093,0.702959,-0.140081,-0.693984,-0.067911
52746,NaN,9.772209,-0.984411,-0.014896,0.000997,0.026261,0.008955,-0.013992,0.056234,0.019657,-0.606201,0.056396,-0.281006,0.097723,-0.009835,-0.000176,1.000000,-0.000070,0.000281,0.000098,0.703152,-0.140187,-0.693766,-0.067922
52747,NaN,9.755023,-1.010496,0.007850,-0.023724,0.006973,-0.005495,-0.018723,0.043573,0.022012,-0.606201,0.056396,-0.274414,0.097551,-0.010094,0.000058,1.000000,-0.000094,0.000218,0.000110,0.703297,-0.140315,-0.693592,-0.067939
52748,NaN,9.727131,-1.068004,-0.055726,0.023601,-0.067922,-0.027206,-0.025317,0.032974,0.019533,-0.606201,0.054199,-0.287354,0.097272,-0.010671,-0.000572,1.000000,-0.000127,0.000165,0.000098,0.703401,-0.140468,-0.693452,-0.067974
