// Start Time: Unknown
// Update Rate: 100.0Hz
// Filter Profile: human (46.1)
// Firmware Version: 4.4.0
PacketCounter,SampleTimeFine,Acc_X,Acc_Y,Acc_Z,FreeAcc_X,FreeAcc_Y,FreeAcc_Z,Gyr_X,Gyr_Y,Gyr_Z,Mag_X,Mag_Y,Mag_Z,VelInc_X,VelInc_Y,VelInc_Z,OriInc_q0,OriInc_q1,OriInc_q2,OriInc_q3,Quat_q0,Quat_q1,Quat_q2,Quat_q3
47486,NaN,9.924630,-1.105670,0.012893,-0.000000,-0.000000,0.173351,0.014969,0.007900,-0.019317,-0.748047,-0.025146,-0.154053,0.099245,-0.011066,0.000124,1.000000,0.000075,0.000040,-0.000097,0.664028,0.169012,-0.686158,0.244313
47487,NaN,9.805558,-1.187927,0.112568,-0.027285,-0.119549,0.064446,0.013013,0.018626,-0.023054,-0.750000,-0.027344,-0.151855,0.098054,-0.011891,0.001116,1.000000,0.000065,0.000093,-0.000115,0.661309,0.176555,-0.683893,0.252565
47488,NaN,9.684675,-1.192506,0.058547,0.030165,-0.103963,-0.055295,0.020850,0.020598,-0.027082,-0.752197,-0.029297,-0.156250,0.096845,-0.011938,0.000574,1.000000,0.000104,0.000103,-0.000135,0.661395,0.176690,-0.683775,0.252565
47489,NaN,9.703558,-1.168735,0.113664,-0.026122,-0.115747,-0.039058,0.026151,0.021473,-0.028519,-0.752441,-0.020752,-0.152100,0.097034,-0.011701,0.001125,1.000000,0.000131,0.000107,-0.000143,0.661483,0.176847,-0.683644,0.252579
47490,NaN,9.656481,-1.134264,0.097513,-0.026221,-0.083983,-0.089727,0.015857,0.021158,-0.033936,-0.750000,-0.027344,-0.151855,0.096563,-0.011359,0.000964,1.000000,0.000079,0.000106,-0.000170,0.661584,0.176989,-0.683524,0.252540
47491,NaN,9.748274,-1.094205,0.120444,-0.070072,-0.058119,-0.002878,0.008971,0.014784,-0.038582,-0.747559,-0.033691,-0.156006,0.097481,-0.010961,0.001197,1.000000,0.000045,0.000074,-0.000193,0.661677,0.177130,-0.683428,0.252458
47492,NaN,9.745451,-1.114405,0.121664,-0.055542,-0.077731,-0.003438,0.001602,0.018899,-0.043190,-0.745850,-0.025146,-0.156250,0.097452,-0.011165,0.001207,1.000000,0.000008,0.000094,-0.000216,0.661794,0.177259,-0.683325,0.252337
47493,NaN,9.799850,-1.092978,0.143102,-0.084439,-0.070164,0.048351,0.002598,0.021292,-0.046942,-0.749756,-0.033691,-0.153809,0.097996,-0.010953,0.001420,1.000000,0.000013,0.000106,-0.000235,0.661927,0.177398,-0.683207,0.252213
47494,NaN,9.865526,-1.121535,0.147287,-0.070653,-0.092294,0.116795,0.001266,0.026169,-0.051096,-0.751953,-0.031494,-0.156006,0.098653,-0.011241,0.001460,1.000000,0.000006,0.000131,-0.000255,0.662080,0.177544,-0.683073,0.252071
47495,NaN,9.846395,-1.137868,0.131875,-0.041910,-0.100812,0.099512,0.005235,0.031926,-0.056684,-0.750000,-0.027344,-0.154053,0.098461,-0.011407,0.001303,1.000000,0.000026,0.000160,-0.000283,0.662263,0.177710,-0.682903,0.251935
47496,NaN,9.816042,-1.103035,0.134631,-0.056068,-0.079941,0.065569,0.008517,0.036724,-0.066814,-0.747803,-0.025146,-0.160400,0.098157,-0.011063,0.001328,1.000000,0.000043,0.000184,-0.000334,0.662465,0.177920,-0.682711,0.251776
47497,NaN,9.849034,-1.124598,0.104558,-0.013941,-0.079953,0.100563,0.012569,0.036514,-0.068291,-0.747803,-0.029297,-0.151855,0.098487,-0.011280,0.001027,1.000000,0.000063,0.000183,-0.000341,0.662675,0.178141,-0.682501,0.251634
47498,NaN,9.814302,-1.113501,0.141953,-0.041314,-0.099221,0.065015,0.017024,0.043464,-0.075774,-0.743408,-0.031494,-0.160400,0.098139,-0.011172,0.001397,1.000000,0.000085,0.000217,-0.000379,0.662903,0.178401,-0.682268,0.251480
47499,NaN,9.747983,-1.096282,0.109829,-0.012562,-0.075698,-0.002938,0.024243,0.050199,-0.082098,-0.754150,-0.031494,-0.156006,0.097476,-0.011003,0.001072,1.000000,0.000121,0.000251,-0.000410,0.663170,0.178685,-0.681983,0.251350
47500,NaN,9.727983,-1.109991,0.131517,-0.011718,-0.104945,-0.021270,0.029977,0.057153,-0.092230,-0.754150,-0.033691,-0.158203,0.097275,-0.011145,0.001286,1.000000,0.000150,0.000286,-0.000461,0.663454,0.179027,-0.681673,0.251197
47501,NaN,9.667656,-1.166970,0.151316,0.018838,-0.171508,-0.075208,0.026502,0.056376,-0.098001,-0.749756,-0.035889,-0.158203,0.096671,-0.011717,0.001484,1.000000,0.000133,0.000282,-0.000490,0.663761,0.179360,-0.681347,0.251033
47502,NaN,9.619786,-1.126701,0.173300,-0.009011,-0.160279,-0.126925,0.025266,0.065869,-0.102595,-0.745605,-0.031494,-0.162598,0.096193,-0.011317,0.001700,1.000000,0.000126,0.000329,-0.000513,0.664091,0.179711,-0.681005,0.250837
47503,NaN,9.608850,-1.089542,0.127674,0.018521,-0.108253,-0.142044,0.015560,0.060720,-0.105840,-0.745361,-0.035889,-0.158203,0.096083,-0.010946,0.001247,1.000000,0.000078,0.000304,-0.000529,0.664435,0.180015,-0.680666,0.250626
47504,NaN,9.718486,-1.066697,0.068919,0.058374,-0.051340,-0.035904,0.014483,0.056380,-0.113867,-0.747559,-0.038086,-0.158203,0.097179,-0.010722,0.000661,1.000000,0.000072,0.000282,-0.000569,0.664757,0.180380,-0.680358,0.250348
47505,NaN,9.861170,-1.024667,0.115470,0.000258,-0.036452,0.102181,0.016914,0.058529,-0.113900,-0.747559,-0.035889,-0.156006,0.098606,-0.010303,0.001125,1.000000,0.000085,0.000293,-0.000570,0.665099,0.180713,-0.680019,0.250119
47506,NaN,9.844446,-1.011290,0.138092,-0.013430,-0.046092,0.084411,0.015097,0.061087,-0.118922,-0.745361,-0.033691,-0.156006,0.098439,-0.010172,0.001350,1.000000,0.000075,0.000305,-0.000595,0.665442,0.181091,-0.679690,0.249830
47507,NaN,9.917017,-0.983304,0.147702,-0.028530,-0.027700,0.153973,0.027439,0.064071,-0.126378,-0.745361,-0.037842,-0.164551,0.099164,-0.009896,0.001444,1.000000,0.000137,0.000320,-0.000632,0.665809,0.181492,-0.679306,0.249603
47508,NaN,10.060888,-0.915460,0.231012,-0.129075,-0.014882,0.291570,0.035314,0.077492,-0.125970,-0.742920,-0.044434,-0.160156,0.100604,-0.009218,0.002270,1.000000,0.000177,0.000387,-0.000630,0.666198,0.181940,-0.678890,0.249374
47509,NaN,10.115372,-0.884409,0.259567,-0.157604,-0.006117,0.343365,0.028162,0.089707,-0.134164,-0.749512,-0.044434,-0.160156,0.101149,-0.008912,0.002549,1.000000,0.000141,0.000449,-0.000671,0.666669,0.182340,-0.678404,0.249142
47510,NaN,10.077375,-0.868258,0.371680,-0.240470,-0.066457,0.305773,0.026260,0.105843,-0.129410,-0.742920,-0.042236,-0.162354,0.100770,-0.008748,0.003662,1.000000,0.000131,0.000529,-0.000647,0.667165,0.182735,-0.677900,0.248896
47511,NaN,10.062236,-0.782248,0.539040,-0.407721,-0.098016,0.285589,0.020902,0.121182,-0.130424,-0.738770,-0.040039,-0.164551,0.100620,-0.007889,0.005329,1.000000,0.000105,0.000606,-0.000652,0.667765,0.183063,-0.677301,0.248679
47512,NaN,9.889439,-0.820316,0.404289,-0.251345,-0.068586,0.115528,-0.012043,0.122945,-0.131920,-0.742920,-0.046631,-0.168701,0.098891,-0.008268,0.003983,1.000000,-0.000060,0.000615,-0.000660,0.668356,0.183317,-0.676784,0.248310
47513,NaN,10.024636,-0.769871,0.232675,-0.127086,0.080704,0.243031,-0.010926,0.112537,-0.136570,-0.742676,-0.050781,-0.162109,0.100242,-0.007767,0.002271,1.000000,-0.000055,0.000563,-0.000683,0.668997,0.183577,-0.676212,0.247951
47514,NaN,10.091239,-0.788099,0.247071,-0.113264,0.058638,0.311489,-0.011219,0.119493,-0.138264,-0.747070,-0.046631,-0.164307,0.100908,-0.007951,0.002411,1.000000,-0.000056,0.000597,-0.000691,0.669583,0.183859,-0.675699,0.247560
47515,NaN,10.111784,-0.775233,0.208278,-0.069526,0.090024,0.330270,-0.017148,0.122163,-0.141968,-0.742676,-0.052979,-0.164307,0.101114,-0.007824,0.002022,1.000000,-0.000086,0.000611,-0.000710,0.670275,0.184117,-0.675090,0.247157
47516,NaN,10.099823,-0.711276,0.237815,-0.112282,0.119596,0.313613,-0.028038,0.123488,-0.131316,-0.744873,-0.050781,-0.168701,0.100995,-0.007179,0.002317,1.000000,-0.000140,0.000617,-0.000657,0.670879,0.184314,-0.674589,0.246736
47517,NaN,9.872525,-0.746184,0.185687,-0.022374,0.100234,0.089203,-0.033398,0.128217,-0.127795,-0.744629,-0.055176,-0.168457,0.098722,-0.007525,0.001795,1.000000,-0.000167,0.000641,-0.000639,0.671591,0.184477,-0.673991,0.246312
47518,NaN,9.869211,-0.805761,0.128000,0.076706,0.082446,0.089547,-0.025168,0.133358,-0.122075,-0.742676,-0.048584,-0.166504,0.098688,-0.008118,0.001215,1.000000,-0.000126,0.000667,-0.000610,0.672214,0.184640,-0.673461,0.245940
47519,NaN,9.649567,-0.894463,0.162203,0.125768,-0.028414,-0.121254,-0.025259,0.140980,-0.108162,-0.740479,-0.050781,-0.168701,0.096492,-0.008997,0.001555,1.000000,-0.000126,0.000705,-0.000541,0.672923,0.184757,-0.672840,0.245614
47520,NaN,9.305847,-1.020670,0.171902,0.216748,-0.164385,-0.453409,-0.000786,0.153194,-0.094070,-0.740234,-0.057129,-0.170654,0.093055,-0.010250,0.001648,1.000000,-0.000004,0.000766,-0.000470,0.673554,0.184883,-0.672238,0.245436
47521,NaN,9.092138,-1.017005,0.277954,0.151243,-0.237699,-0.663965,0.027164,0.165156,-0.076825,-0.742432,-0.055176,-0.175049,0.090920,-0.010205,0.002703,1.000000,0.000136,0.000826,-0.000384,0.674229,0.185025,-0.671525,0.245429
47522,NaN,8.989905,-0.976426,0.321780,0.109950,-0.234966,-0.767908,0.023014,0.157753,-0.056403,-0.740234,-0.057129,-0.172852,0.089899,-0.009790,0.003146,1.000000,0.000115,0.000789,-0.000282,0.674806,0.185098,-0.670913,0.245461
47523,NaN,8.994769,-0.924037,0.336504,0.081782,-0.194449,-0.766780,-0.020062,0.147356,-0.028531,-0.742432,-0.059326,-0.174805,0.089949,-0.009253,0.003300,1.000000,-0.000100,0.000737,-0.000143,0.675401,0.184906,-0.670364,0.245470
47524,NaN,8.742473,-0.918948,0.212264,0.195848,-0.133135,-1.022679,-0.058721,0.144789,0.000900,-0.740234,-0.057129,-0.179199,0.087426,-0.009188,0.002062,1.000000,-0.000294,0.000724,0.000005,0.675939,0.184528,-0.669947,0.245410
47525,NaN,8.504048,-0.919267,0.138968,0.268600,-0.101635,-1.262792,-0.062498,0.126461,0.039049,-0.738037,-0.057129,-0.175049,0.085043,-0.009176,0.001339,1.000000,-0.000312,0.000632,0.000195,0.676410,0.183970,-0.669592,0.245501
47526,NaN,8.582260,-1.053248,0.064468,0.409811,-0.151408,-1.176844,-0.078450,0.097154,0.076956,-0.740479,-0.055176,-0.179199,0.085827,-0.010499,0.000607,1.000000,-0.000392,0.000486,0.000385,0.676713,0.183328,-0.669431,0.245587
47527,NaN,8.445087,-1.194442,0.077890,0.483528,-0.273390,-1.301301,-0.099359,0.098407,0.104074,-0.740479,-0.048584,-0.185791,0.084457,-0.011900,0.000743,1.000000,-0.000497,0.000492,0.000520,0.676997,0.182441,-0.669318,0.245771
47528,NaN,8.254351,-1.137815,0.159331,0.386897,-0.278893,-1.492420,-0.127652,0.089292,0.140521,-0.744629,-0.052979,-0.183594,0.082552,-0.011319,0.001564,0.999999,-0.000638,0.000446,0.000703,0.677240,0.181429,-0.669300,0.245900
47529,NaN,8.290484,-0.857551,0.068523,0.294262,0.020804,-1.482911,-0.144052,0.066027,0.167456,-0.736328,-0.048584,-0.179443,0.082912,-0.008506,0.000664,0.999999,-0.000720,0.000330,0.000837,0.677355,0.180161,-0.669428,0.246169
47530,NaN,9.277558,0.222252,-0.689014,0.268932,1.437223,-0.622515,-0.230600,-0.032647,0.167903,-0.744873,-0.050781,-0.183594,0.092775,0.002292,-0.006878,0.999999,-0.001153,-0.000163,0.000840,0.677246,0.178858,-0.669972,0.245936
47531,NaN,10.466889,1.292136,-0.255847,-0.734382,2.185854,0.481658,-0.157723,-0.016249,0.187767,-0.742920,-0.044434,-0.185791,0.104657,0.013018,-0.002560,0.999999,-0.000789,-0.000081,0.000939,0.677010,0.177666,-0.670481,0.246063
47532,NaN,10.731122,0.923093,-0.336671,-0.479028,1.972102,0.770493,-0.277025,-0.105405,0.256899,-0.742920,-0.040039,-0.186035,0.107301,0.009364,-0.003323,0.999998,-0.001385,-0.000527,0.001284,0.676586,0.175997,-0.671405,0.245909
47533,NaN,10.926459,0.500118,-0.275739,-0.319508,1.622216,1.003036,-0.333592,-0.140770,0.310885,-0.743164,-0.033691,-0.181641,0.109259,0.005166,-0.002689,0.999997,-0.001668,-0.000704,0.001554,0.675958,0.174179,-0.672656,0.245515
47534,NaN,10.811644,0.867586,-0.163328,-0.647505,1.869635,0.852963,-0.368884,-0.137496,0.348729,-0.749756,-0.033691,-0.175293,0.108102,0.008861,-0.001575,0.999997,-0.001844,-0.000687,0.001744,0.675387,0.171928,-0.673874,0.245332
47535,NaN,10.461586,0.887461,0.602029,-1.311066,1.436385,0.522328,-0.346264,-0.105631,0.401302,-0.749756,-0.033691,-0.181885,0.104595,0.009095,0.006060,0.999996,-0.001731,-0.000528,0.002007,0.674760,0.169909,-0.675113,0.245054
47536,NaN,10.070132,-0.658712,1.065243,-0.852592,-0.101768,0.298628,-0.386434,-0.134713,0.464443,-0.747559,-0.031494,-0.183838,0.100709,-0.006333,0.010733,0.999995,-0.001932,-0.000674,0.002322,0.674062,0.167201,-0.676432,0.245201
47537,NaN,9.337183,-1.922582,1.526286,-0.545528,-1.452894,-0.283781,-0.505462,-0.085491,0.521885,-0.750000,-0.022949,-0.179688,0.093415,-0.018943,0.015351,0.999993,-0.002527,-0.000427,0.002609,0.673594,0.164317,-0.677776,0.244727
47538,NaN,9.065771,-2.543500,0.719599,0.430874,-1.513202,-0.501422,-0.624953,-0.095533,0.556523,-0.752441,-0.016357,-0.179932,0.090725,-0.025160,0.007318,0.999991,-0.003125,-0.000478,0.002783,0.673097,0.160441,-0.679313,0.244403
47539,NaN,10.216207,-1.934161,0.023837,0.584910,-0.469533,0.557921,-0.585604,-0.068237,0.583208,-0.754639,-0.018555,-0.173340,0.102218,-0.019043,0.000329,0.999991,-0.002928,-0.000341,0.002916,0.672691,0.156885,-0.680672,0.244049
47540,NaN,11.508261,-1.041778,0.267695,-0.205431,0.336404,1.738992,-0.461283,0.025997,0.566696,-0.761230,-0.012207,-0.177979,0.115112,-0.010085,0.002686,0.999993,-0.002306,0.000130,0.002833,0.672446,0.153371,-0.681587,0.244404
47541,NaN,10.681950,-1.505968,0.351018,-0.014549,-0.148477,0.979562,-0.375394,0.107571,0.551096,-0.763428,-0.007812,-0.180176,0.106862,-0.014759,0.003481,0.999994,-0.001877,0.000538,0.002755,0.672478,0.150445,-0.682075,0.244772
47542,NaN,10.483999,-1.919750,0.185737,0.330110,-0.374761,0.835526,-0.321828,0.149208,0.557310,-0.757080,-0.005859,-0.175781,0.104894,-0.018902,0.001810,0.999995,-0.001609,0.000746,0.002787,0.672543,0.147279,-0.682383,0.245659
47543,NaN,9.642495,-1.973721,0.004368,0.538745,-0.385622,0.007399,-0.255018,0.190335,0.540275,-0.761719,0.000732,-0.182373,0.096478,-0.019477,-0.000023,0.999995,-0.001275,0.000952,0.002701,0.672758,0.144681,-0.682425,0.246495
47544,NaN,10.028879,-2.008660,0.499030,0.102002,-0.570836,0.411089,-0.156326,0.210179,0.546761,-0.761719,0.004883,-0.178223,0.100348,-0.019808,0.004900,0.999995,-0.000782,0.001051,0.002734,0.672912,0.142030,-0.682303,0.247952
47545,NaN,9.925866,-1.974299,0.846815,-0.216464,-0.690581,0.317156,-0.094468,0.209339,0.520842,-0.760010,0.013428,-0.178223,0.099318,-0.019480,0.008373,0.999996,-0.000472,0.001047,0.002604,0.673066,0.139964,-0.682075,0.249331
47546,NaN,9.805374,-1.875286,0.797931,-0.232526,-0.545949,0.184632,-0.074318,0.187610,0.489648,-0.761963,0.007080,-0.184570,0.098107,-0.018510,0.007894,0.999996,-0.000372,0.000938,0.002448,0.673146,0.137810,-0.681876,0.250855
47547,NaN,9.658926,-2.034409,0.672932,-0.044515,-0.591458,0.063269,-0.064510,0.139237,0.454783,-0.759766,0.011475,-0.182617,0.096640,-0.020122,0.006669,0.999997,-0.000323,0.000696,0.002274,0.673143,0.136087,-0.681761,0.252112
47548,NaN,9.647636,-2.234263,0.775920,-0.040787,-0.772106,0.090489,-0.041030,0.092289,0.419172,-0.760010,0.015625,-0.186768,0.096526,-0.022139,0.007719,0.999998,-0.000205,0.000461,0.002096,0.672955,0.134405,-0.681786,0.253444
47549,NaN,9.622854,-2.265879,1.319609,-0.496877,-1.054475,0.092664,-0.020743,0.052478,0.370535,-0.758057,0.017822,-0.180420,0.096274,-0.022479,0.013173,0.999998,-0.000104,0.000262,0.001853,0.672744,0.133177,-0.681808,0.254591
47550,NaN,9.457205,-2.118337,1.599887,-0.819238,-1.074504,-0.083355,-0.038839,0.002914,0.339203,-0.762451,0.020020,-0.178467,0.094608,-0.021020,0.016002,0.999999,-0.000194,0.000015,0.001696,0.672347,0.131888,-0.682073,0.255599
47551,NaN,9.470183,-1.977712,1.297529,-0.652824,-0.770812,-0.103986,-0.085249,-0.052074,0.304789,-0.764648,0.022217,-0.184814,0.094728,-0.019627,0.013008,0.999999,-0.000426,-0.000260,0.001524,0.671971,0.130673,-0.682432,0.256254
47552,NaN,9.612194,-1.947112,0.557588,-0.071597,-0.313374,0.005307,-0.125032,-0.097114,0.270600,-0.760498,0.026367,-0.182617,0.096145,-0.019338,0.005635,0.999999,-0.000625,-0.000486,0.001353,0.671373,0.129457,-0.683095,0.256671
47553,NaN,9.616866,-2.289829,0.157620,0.427896,-0.373253,0.057966,-0.103135,-0.125084,0.233380,-0.764893,0.028564,-0.182861,0.096194,-0.022785,0.001648,0.999999,-0.000516,-0.000625,0.001167,0.670882,0.128538,-0.683607,0.257056
47554,NaN,9.619833,-2.362099,0.419229,0.220310,-0.558648,0.083563,-0.046550,-0.108910,0.201244,-0.762451,0.026367,-0.182861,0.096220,-0.023523,0.004250,0.999999,-0.000233,-0.000545,0.001006,0.670279,0.127838,-0.684162,0.257499
47555,NaN,9.611038,-2.423365,0.630392,0.058748,-0.710343,0.093577,-0.001017,-0.105916,0.158119,-0.764893,0.028564,-0.176270,0.096126,-0.024158,0.006355,1.000000,-0.000005,-0.000530,0.000791,0.669862,0.127446,-0.684443,0.258032
47556,NaN,9.530958,-2.450006,0.683426,0.018242,-0.768326,0.021849,0.018944,-0.098618,0.104575,-0.762695,0.028564,-0.182861,0.095319,-0.024451,0.006879,1.000000,0.000095,-0.000493,0.000523,0.669376,0.127284,-0.684816,0.258381
47557,NaN,9.661171,-2.488714,0.421571,0.243773,-0.635142,0.149581,0.036915,-0.102650,0.063881,-0.760742,0.034912,-0.182861,0.096617,-0.024857,0.004261,1.000000,0.000185,-0.000513,0.000319,0.669068,0.127250,-0.684980,0.258760
47558,NaN,9.667360,-2.369447,0.145608,0.407701,-0.391184,0.125827,0.061311,-0.081498,0.006560,-0.760742,0.032959,-0.182861,0.096674,-0.023692,0.001488,1.000000,0.000307,-0.000407,0.000033,0.668740,0.127544,-0.685179,0.258936
47559,NaN,9.610899,-2.382085,0.152380,0.411285,-0.413193,0.073012,0.095897,-0.071106,-0.030376,-0.762695,0.030762,-0.180664,0.096105,-0.023836,0.001547,1.000000,0.000479,-0.000356,-0.000152,0.668588,0.127935,-0.685105,0.259332
47560,NaN,9.733547,-2.209016,0.221800,0.252887,-0.290805,0.163402,0.116303,-0.046625,-0.068229,-0.764893,0.032959,-0.176514,0.097327,-0.022125,0.002228,1.000000,0.000582,-0.000233,-0.000341,0.668441,0.128625,-0.685068,0.259469
47561,NaN,9.621051,-1.980358,0.280118,0.097392,-0.153020,0.012382,0.128945,-0.028400,-0.106677,-0.762939,0.034912,-0.172119,0.096200,-0.019857,0.002802,1.000000,0.000645,-0.000142,-0.000533,0.668493,0.129284,-0.684799,0.259717
47562,NaN,9.502857,-2.099042,0.349182,0.115769,-0.318749,-0.080412,0.123738,-0.029634,-0.129345,-0.762451,0.026367,-0.178467,0.095014,-0.021054,0.003493,1.000000,0.000619,-0.000148,-0.000647,0.668477,0.130186,-0.684656,0.259685
47563,NaN,9.602644,-2.206702,0.364832,0.160026,-0.406294,0.037323,0.129584,-0.031287,-0.159506,-0.758301,0.028564,-0.176270,0.096008,-0.022146,0.003649,0.999999,0.000648,-0.000156,-0.000798,0.668563,0.130990,-0.684394,0.259749
47564,NaN,9.598309,-2.158543,0.314229,0.187179,-0.355395,0.022160,0.121216,-0.026911,-0.191818,-0.760498,0.028564,-0.174072,0.095962,-0.021679,0.003142,0.999999,0.000606,-0.000135,-0.000959,0.668638,0.132094,-0.684203,0.259500
47565,NaN,9.550298,-2.033466,0.387366,0.073716,-0.308970,-0.045789,0.122461,-0.015984,-0.215550,-0.764404,0.017822,-0.176270,0.095481,-0.020440,0.003869,0.999999,0.000612,-0.000080,-0.001078,0.668827,0.133020,-0.683879,0.259395
47566,NaN,9.726137,-1.890561,0.304803,0.068954,-0.135183,0.099012,0.137339,0.001755,-0.223182,-0.753662,0.017822,-0.180420,0.097240,-0.019016,0.003034,0.999999,0.000687,0.000009,-0.001116,0.669028,0.134248,-0.683549,0.259115
47567,NaN,9.706254,-2.025276,0.158373,0.282012,-0.184303,0.098147,0.162645,0.019271,-0.255274,-0.762451,0.022217,-0.176270,0.097037,-0.020378,0.001558,0.999999,0.000813,0.000096,-0.001276,0.669378,0.135416,-0.683017,0.259004
47568,NaN,9.716387,-1.975023,0.165908,0.267478,-0.164914,0.098801,0.174075,0.029421,-0.282450,-0.764404,0.017822,-0.174072,0.097136,-0.019889,0.001628,0.999999,0.000870,0.000147,-0.001412,0.669723,0.136935,-0.682503,0.258667
47569,NaN,9.714947,-1.932368,0.346787,0.113542,-0.241765,0.095041,0.197329,0.044108,-0.306920,-0.760254,0.020020,-0.169678,0.097120,-0.019476,0.003427,0.999998,0.000987,0.000221,-0.001535,0.670163,0.138343,-0.681836,0.258540
47570,NaN,9.587696,-1.832221,0.453632,0.001985,-0.259306,-0.044402,0.204030,0.043701,-0.328860,-0.762207,0.017822,-0.182617,0.095848,-0.018484,0.004497,0.999998,0.001020,0.000219,-0.001644,0.670592,0.140101,-0.681200,0.258158
47571,NaN,9.591233,-1.800940,0.495637,-0.026922,-0.273282,-0.045125,0.207090,0.037249,-0.343782,-0.755615,0.013428,-0.178223,0.095882,-0.018179,0.004920,0.999998,0.001035,0.000186,-0.001719,0.671023,0.141675,-0.680520,0.257971
47572,NaN,9.663027,-1.723120,0.422912,0.013054,-0.184825,0.010125,0.210015,0.032182,-0.362448,-0.757812,0.011475,-0.180420,0.096600,-0.017411,0.004195,0.999998,0.001050,0.000161,-0.001812,0.671447,0.143580,-0.679886,0.257486
47573,NaN,9.640132,-1.676495,0.358368,0.067707,-0.136093,-0.022489,0.209801,0.023729,-0.379529,-0.755615,0.009277,-0.180420,0.096370,-0.016952,0.003555,0.999998,0.001049,0.000119,-0.001898,0.671874,0.145316,-0.679211,0.257178
47574,NaN,9.615614,-1.765137,0.493587,0.029414,-0.316496,-0.029120,0.206572,0.010890,-0.397595,-0.753418,0.011475,-0.180420,0.096121,-0.017848,0.004912,0.999997,0.001033,0.000054,-0.001988,0.672267,0.147356,-0.678622,0.256545
47575,NaN,9.775989,-1.730540,0.559976,-0.028890,-0.326447,0.125660,0.199774,-0.000541,-0.416250,-0.755371,0.002930,-0.177979,0.097724,-0.017514,0.005583,0.999997,0.000999,-0.000003,-0.002081,0.672647,0.149217,-0.678011,0.256090
47576,NaN,9.477414,-1.514268,0.601983,-0.141345,-0.247993,-0.200449,0.177682,-0.002646,-0.437437,-0.755127,0.000732,-0.182373,0.094741,-0.015355,0.006008,0.999997,0.000888,-0.000013,-0.002187,0.673060,0.151309,-0.677467,0.255213
47577,NaN,9.644500,-1.606520,0.763359,-0.210074,-0.419070,-0.016765,0.138167,-0.034916,-0.437676,-0.752930,-0.005859,-0.182129,0.096408,-0.016281,0.007639,0.999997,0.000691,-0.000175,-0.002188,0.673404,0.153082,-0.677023,0.254427
47578,NaN,9.670027,-1.593575,0.379782,0.124065,-0.232482,-0.008427,0.102061,-0.053526,-0.459231,-0.748535,-0.003662,-0.182129,0.096662,-0.016160,0.003815,0.999997,0.000510,-0.000268,-0.002296,0.673723,0.155056,-0.676723,0.253180
47579,NaN,9.523781,-1.322843,0.324873,0.049806,-0.032110,-0.192180,0.156496,-0.037808,-0.483225,-0.746338,-0.010010,-0.179932,0.095205,-0.013461,0.003256,0.999997,0.000782,-0.000189,-0.002416,0.674104,0.157059,-0.676212,0.252295
47580,NaN,9.861222,-1.666237,0.224526,0.334315,-0.257867,0.181910,0.182546,-0.050815,-0.497567,-0.750732,-0.003662,-0.184326,0.098570,-0.016910,0.002255,0.999996,0.000913,-0.000254,-0.002488,0.674411,0.159427,-0.675763,0.251190
47581,NaN,9.936071,-1.482161,0.320040,0.176249,-0.186482,0.235132,0.208455,-0.032456,-0.514560,-0.748291,-0.012207,-0.186279,0.099322,-0.015081,0.003201,0.999996,0.001042,-0.000162,-0.002573,0.674778,0.161704,-0.675143,0.250416
47582,NaN,9.608134,-1.311670,0.371006,0.079186,-0.157531,-0.109953,0.223266,-0.048803,-0.518400,-0.743652,-0.018555,-0.181885,0.096046,-0.013370,0.003719,0.999996,0.001116,-0.000244,-0.002592,0.675077,0.164274,-0.674609,0.249377
47583,NaN,9.816088,-1.560468,0.405751,0.209174,-0.395105,0.124876,0.234309,-0.050744,-0.528438,-0.748047,-0.020752,-0.181885,0.098118,-0.015869,0.004064,0.999996,0.001172,-0.000254,-0.002642,0.675385,0.166705,-0.673990,0.248601
47584,NaN,9.907047,-1.485496,0.237363,0.332824,-0.275070,0.198603,0.245726,-0.051193,-0.546881,-0.741455,-0.025146,-0.184082,0.099029,-0.015129,0.002381,0.999995,0.001229,-0.000256,-0.002734,0.675682,0.169444,-0.673401,0.247536
47585,NaN,9.664011,-1.247554,0.157507,0.301535,-0.100898,-0.072413,0.272976,-0.037291,-0.571371,-0.745361,-0.031494,-0.183838,0.096604,-0.012754,0.001576,0.999995,0.001365,-0.000186,-0.002857,0.676034,0.172127,-0.672651,0.246761
47586,NaN,9.804758,-1.287563,0.352317,0.191679,-0.277745,0.076754,0.296579,-0.055689,-0.594773,-0.741211,-0.031494,-0.188232,0.098008,-0.013172,0.003531,0.999994,0.001483,-0.000278,-0.002974,0.676320,0.175200,-0.671959,0.245698
47587,NaN,9.821194,-1.130968,0.389494,0.104973,-0.213050,0.078213,0.290922,-0.032207,-0.618669,-0.743164,-0.035889,-0.183838,0.098176,-0.011619,0.003894,0.999994,0.001455,-0.000161,-0.003093,0.676746,0.178062,-0.671104,0.244802
47588,NaN,9.638263,-0.877451,0.417191,-0.023310,-0.090005,-0.126041,0.300058,-0.033103,-0.630805,-0.740723,-0.042236,-0.183838,0.096354,-0.009085,0.004174,0.999994,0.001500,-0.000166,-0.003154,0.677135,0.181234,-0.670284,0.243643
47589,NaN,9.832884,-0.880921,0.339236,0.072774,-0.076838,0.064821,0.266307,-0.048617,-0.632418,-0.738770,-0.042236,-0.179443,0.098299,-0.009125,0.003404,0.999994,0.001332,-0.000243,-0.003162,0.677513,0.184088,-0.669495,0.242619
47590,NaN,9.649919,-0.854084,0.531378,-0.063399,-0.234136,-0.113534,0.263133,-0.064114,-0.641891,-0.729736,-0.048584,-0.181396,0.096469,-0.008857,0.005333,0.999994,0.001316,-0.000321,-0.003209,0.677831,0.187203,-0.668798,0.241266
47591,NaN,10.094023,-0.872487,0.326273,0.141578,-0.146185,0.322164,0.266607,-0.082400,-0.645854,-0.731934,-0.046387,-0.187988,0.100910,-0.009055,0.003292,0.999994,0.001333,-0.000412,-0.003229,0.678061,0.190202,-0.668101,0.240202
47592,NaN,9.865362,-0.808754,0.169787,0.268565,-0.076249,0.083270,0.247805,-0.045397,-0.656181,-0.736328,-0.048584,-0.185791,0.098626,-0.008413,0.001710,0.999994,0.001239,-0.000227,-0.003281,0.678458,0.193283,-0.667329,0.238763
47593,NaN,9.722386,-0.682820,0.106587,0.280952,0.006924,-0.069840,0.237973,-0.064492,-0.655859,-0.731689,-0.057129,-0.187744,0.097200,-0.007148,0.001089,0.999994,0.001190,-0.000322,-0.003279,0.678831,0.196067,-0.666553,0.237599
47594,NaN,9.813412,-0.134491,0.062295,0.031046,0.428378,-0.007576,0.210203,-0.031041,-0.655554,-0.729248,-0.063721,-0.189697,0.098129,-0.001667,0.000637,0.999994,0.001051,-0.000155,-0.003278,0.679297,0.198993,-0.665761,0.236048
47595,NaN,9.389750,0.024824,0.312787,-0.231891,0.341600,-0.426790,0.205434,-0.031914,-0.649697,-0.727051,-0.067871,-0.189697,0.093897,-0.000060,0.003143,0.999994,0.001027,-0.000160,-0.003248,0.679823,0.201609,-0.664903,0.234730
47596,NaN,9.892423,-0.379232,0.158975,0.165191,0.077484,0.086580,0.201492,-0.080293,-0.635472,-0.722412,-0.074463,-0.187500,0.098911,-0.004108,0.001625,0.999994,0.001007,-0.000401,-0.003177,0.680097,0.204488,-0.664294,0.233166
47597,NaN,9.868510,-0.364533,0.272455,0.097326,-0.027299,0.065776,0.184579,-0.049472,-0.642191,-0.722656,-0.070068,-0.187500,0.098672,-0.003965,0.002745,0.999994,0.000923,-0.000247,-0.003211,0.680558,0.207077,-0.663525,0.231723
47598,NaN,9.842935,-0.371719,0.092701,0.279810,0.018025,0.033692,0.142050,-0.061068,-0.637916,-0.724609,-0.076416,-0.185303,0.098417,-0.004032,0.000954,0.999995,0.000710,-0.000305,-0.003190,0.680947,0.209733,-0.662901,0.229968
47599,NaN,9.625761,-0.081352,0.130795,0.107425,0.174962,-0.187901,0.133692,-0.005043,-0.647110,-0.724365,-0.083008,-0.191650,0.096254,-0.001126,0.001310,0.999995,0.000668,-0.000025,-0.003236,0.681540,0.212145,-0.662063,0.228410
47600,NaN,9.505880,0.032454,0.139988,0.065273,0.207469,-0.308226,0.162414,-0.031829,-0.631390,-0.715820,-0.083008,-0.185059,0.095059,0.000023,0.001415,0.999995,0.000812,-0.000159,-0.003157,0.681984,0.214808,-0.661309,0.226772
47601,NaN,9.922383,0.059321,0.090595,0.131142,0.221604,0.106928,0.174452,-0.025891,-0.624224,-0.713379,-0.089355,-0.191406,0.099225,0.000283,0.000919,0.999995,0.000872,-0.000129,-0.003121,0.682415,0.217346,-0.660531,0.225320
47602,NaN,9.890973,0.366159,0.087444,-0.014157,0.418885,0.076554,0.172551,-0.004718,-0.626614,-0.717529,-0.093750,-0.191406,0.098921,0.003351,0.000880,0.999995,0.000863,-0.000024,-0.003133,0.682919,0.219992,-0.659665,0.223756
47603,NaN,9.587456,0.259774,0.191086,-0.008582,0.220070,-0.222353,0.186826,-0.004464,-0.622513,-0.719727,-0.093750,-0.189209,0.095882,0.002298,0.001915,0.999995,0.000934,-0.000022,-0.003113,0.683379,0.222571,-0.658802,0.222339
47604,NaN,9.591078,0.220378,0.085958,0.132781,0.203760,-0.221789,0.192216,-0.023754,-0.590176,-0.710938,-0.095703,-0.193604,0.095917,0.001920,0.000873,0.999995,0.000961,-0.000119,-0.002951,0.683745,0.225181,-0.658007,0.220939
47605,NaN,9.648621,0.473199,0.259312,-0.124109,0.258163,-0.153251,0.194672,-0.007154,-0.586805,-0.704346,-0.100098,-0.199951,0.096499,0.004446,0.002601,0.999995,0.000973,-0.000036,-0.002934,0.684128,0.227685,-0.657177,0.219653
47606,NaN,9.582852,0.433208,0.478833,-0.245730,0.047792,-0.211382,0.225639,-0.020515,-0.581465,-0.706543,-0.097900,-0.199951,0.095840,0.004048,0.004803,0.999995,0.001128,-0.000103,-0.002907,0.684444,0.230373,-0.656331,0.218392
47607,NaN,10.012826,-0.017888,0.293115,0.222036,-0.249015,0.198872,0.223230,-0.066322,-0.579293,-0.706299,-0.104492,-0.197754,0.100126,-0.000472,0.002964,0.999995,0.001116,-0.000332,-0.002896,0.684586,0.233023,-0.655662,0.217141
47608,NaN,9.928759,0.504029,0.384512,-0.137121,0.063830,0.135126,0.229671,-0.002308,-0.579426,-0.703857,-0.110840,-0.193359,0.099302,0.004748,0.003852,0.999995,0.001148,-0.000012,-0.002897,0.684941,0.235695,-0.654739,0.215918
47609,NaN,9.301072,0.232427,0.592634,-0.138454,-0.317223,-0.496299,0.216002,-0.068264,-0.610749,-0.697510,-0.113037,-0.199707,0.093015,0.002034,0.005960,0.999995,0.001080,-0.000341,-0.003054,0.685107,0.238423,-0.654034,0.214528
47610,NaN,10.239331,-0.078259,0.051081,0.558907,-0.303482,0.407285,0.225805,-0.083770,-0.594810,-0.692871,-0.119385,-0.195312,0.102390,-0.001088,0.000553,0.999995,0.001129,-0.000419,-0.002974,0.685203,0.241214,-0.653363,0.213139
47611,NaN,9.646164,1.070824,0.656602,-0.619928,0.202906,-0.106995,0.277297,0.007260,-0.610826,-0.695068,-0.121582,-0.201660,0.096494,0.010404,0.006577,0.999994,0.001386,0.000036,-0.003054,0.685528,0.244061,-0.652323,0.212041
47612,NaN,9.443578,0.679328,0.491975,-0.231562,-0.051340,-0.334916,0.261823,-0.090932,-0.607485,-0.692871,-0.121582,-0.201660,0.094454,0.006500,0.004971,0.999994,0.001309,-0.000455,-0.003037,0.685557,0.247019,-0.651609,0.210712
47613,NaN,9.887912,0.410953,0.165545,0.245453,-0.128484,0.081252,0.238975,-0.082831,-0.600436,-0.694824,-0.123779,-0.201660,0.098890,0.003811,0.001701,0.999995,0.001195,-0.000414,-0.003002,0.685621,0.249802,-0.650903,0.209400
47614,NaN,9.575084,0.946342,0.269397,-0.154352,0.188493,-0.190281,0.217442,-0.067429,-0.628529,-0.694580,-0.130127,-0.203613,0.095779,0.009159,0.002736,0.999994,0.001087,-0.000337,-0.003143,0.685789,0.252647,-0.650115,0.207879
47615,NaN,9.686238,0.176606,0.024365,0.547159,-0.323176,-0.145690,0.214100,-0.125328,-0.638118,-0.690186,-0.132324,-0.201416,0.096867,0.001457,0.000306,0.999994,0.001070,-0.000627,-0.003191,0.685769,0.255510,-0.649521,0.206295
47616,NaN,10.154221,0.024240,-0.063377,0.772324,-0.468118,0.301503,0.292917,-0.117101,-0.637409,-0.687988,-0.134521,-0.205566,0.101543,-0.000080,-0.000574,0.999994,0.001465,-0.000586,-0.003187,0.685673,0.258688,-0.648799,0.204921
47617,NaN,9.750587,0.807761,0.319585,-0.009393,-0.127123,-0.024331,0.331258,-0.063843,-0.680929,-0.681152,-0.145264,-0.205566,0.097532,0.007740,0.003240,0.999993,0.001656,-0.000319,-0.003405,0.685718,0.262011,-0.647816,0.203656
47618,NaN,9.604954,0.518850,0.243614,0.251102,-0.355816,-0.200526,0.333952,-0.117643,-0.699787,-0.678955,-0.147217,-0.207520,0.096065,0.004848,0.002501,0.999992,0.001670,-0.000588,-0.003499,0.685612,0.265524,-0.646955,0.202195
47619,NaN,9.697176,0.691900,0.197713,0.218593,-0.257300,-0.094732,0.315914,-0.095968,-0.690776,-0.679199,-0.143066,-0.205566,0.096994,0.006581,0.002034,0.999993,0.001580,-0.000480,-0.003454,0.685565,0.268849,-0.646065,0.200802
47620,NaN,9.236613,1.180492,0.114073,-0.026837,0.146045,-0.501450,0.318001,-0.117366,-0.735583,-0.674805,-0.147217,-0.201172,0.092408,0.011463,0.001213,0.999992,0.001590,-0.000587,-0.003678,0.685496,0.272415,-0.645151,0.199160
47621,NaN,9.772476,0.781059,-0.102700,0.467689,-0.131237,-0.020575,0.363042,-0.177018,-0.733959,-0.678711,-0.155762,-0.207520,0.097753,0.007454,-0.000927,0.999991,0.001815,-0.000885,-0.003670,0.685145,0.276115,-0.644415,0.197653
47622,NaN,10.129422,1.437645,0.455675,-0.312853,-0.079526,0.423276,0.391691,-0.154449,-0.720774,-0.674561,-0.149414,-0.209717,0.101342,0.014002,0.004663,0.999991,0.001958,-0.000772,-0.003604,0.684818,0.279914,-0.643554,0.196243
47623,NaN,9.536454,1.649109,0.214677,-0.287851,0.225526,-0.139244,0.062121,-0.177029,-0.667180,-0.672119,-0.157959,-0.207275,0.095417,0.016172,0.002236,0.999994,0.000311,-0.000885,-0.003336,0.684802,0.282362,-0.643185,0.193988
47624,NaN,9.281405,1.873583,-0.411362,0.054482,0.757652,-0.365646,0.168574,-0.218228,-0.697655,-0.669922,-0.160156,-0.211670,0.092883,0.018415,-0.003997,0.999993,0.000843,-0.001091,-0.003488,0.684539,0.285377,-0.642777,0.191844
47625,NaN,9.657724,1.542099,-0.055632,0.049793,0.172967,-0.034142,0.245990,-0.221365,-0.705556,-0.665527,-0.164551,-0.213623,0.096631,0.015081,-0.000431,0.999992,0.001230,-0.001107,-0.003528,0.684138,0.288630,-0.642309,0.189966
47626,NaN,9.542104,1.890025,0.333088,-0.456398,0.133120,-0.091144,0.272436,-0.224300,-0.701295,-0.663330,-0.166504,-0.219971,0.095483,0.018561,0.003463,0.999992,0.001362,-0.001121,-0.003506,0.683691,0.292009,-0.641798,0.188129
47627,NaN,9.474770,1.729825,0.368066,-0.367145,-0.070773,-0.181550,0.312646,-0.230022,-0.680444,-0.665283,-0.168701,-0.215820,0.094801,0.016970,0.003816,0.999992,0.001563,-0.001150,-0.003402,0.683125,0.295417,-0.641310,0.186524
47628,NaN,9.736383,1.614774,0.358685,-0.238280,-0.252408,0.057084,0.381477,-0.239994,-0.647080,-0.656494,-0.173096,-0.215576,0.097411,0.015826,0.003734,0.999992,0.001907,-0.001200,-0.003235,0.682395,0.299002,-0.640811,0.185193
47629,NaN,9.679190,1.763881,0.253220,-0.241342,-0.130637,0.025321,0.386448,-0.237621,-0.614239,-0.660889,-0.173096,-0.215576,0.096842,0.017336,0.002681,0.999993,0.001932,-0.001188,-0.003071,0.681623,0.302449,-0.640349,0.184033
47630,NaN,9.863759,2.140925,0.000090,-0.251684,0.222825,0.275120,0.363568,-0.256106,-0.640092,-0.658447,-0.177246,-0.215576,0.098705,0.021093,0.000166,0.999992,0.001818,-0.001281,-0.003200,0.680842,0.305956,-0.639913,0.182639
47631,NaN,9.459714,2.131797,-0.055630,-0.234841,0.243558,-0.121505,0.356652,-0.256334,-0.602630,-0.649902,-0.179443,-0.215576,0.094661,0.021034,-0.000397,0.999993,0.001783,-0.001282,-0.003013,0.680030,0.309278,-0.639536,0.181383
47632,NaN,9.307588,2.280657,-0.148473,-0.264994,0.375569,-0.239649,0.318712,-0.242738,-0.555573,-0.652100,-0.177246,-0.213379,0.093140,0.022550,-0.001336,0.999994,0.001594,-0.001214,-0.002778,0.679266,0.312341,-0.639208,0.180149
47633,NaN,9.159810,2.397526,-0.273283,-0.253075,0.509204,-0.357460,0.284361,-0.260616,-0.528630,-0.652100,-0.179443,-0.217773,0.091664,0.023737,-0.002580,0.999995,0.001422,-0.001303,-0.002643,0.678471,0.315188,-0.639007,0.178893
47634,NaN,9.805559,2.579908,-0.180115,-0.355948,0.422343,0.313122,0.263153,-0.257674,-0.474035,-0.649902,-0.177246,-0.215576,0.098119,0.025569,-0.001641,0.999995,0.001316,-0.001288,-0.002370,0.677660,0.317809,-0.638894,0.177731
47635,NaN,10.217129,2.970764,-0.022234,-0.672010,0.484862,0.795270,0.220903,-0.220984,-0.389716,-0.650146,-0.175293,-0.211182,0.102229,0.029509,-0.000077,0.999997,0.001105,-0.001105,-0.001949,0.676958,0.319970,-0.638821,0.176789
47636,NaN,10.138560,3.256870,-0.155540,-0.762624,0.752727,0.783231,0.138714,-0.168685,-0.279415,-0.641357,-0.179443,-0.213379,0.101432,0.032428,-0.001447,0.999998,0.000694,-0.000843,-0.001397,0.676449,0.321465,-0.638820,0.176028
47637,NaN,9.978977,3.416116,-0.550717,-0.586476,1.128641,0.672316,0.056461,-0.123746,-0.162043,-0.645508,-0.181641,-0.211182,0.099821,0.034082,-0.005436,0.999999,0.000282,-0.000619,-0.000810,0.676124,0.322271,-0.638912,0.175468
47638,NaN,9.791906,3.623803,-1.030584,-0.384935,1.615150,0.546781,0.005654,-0.070999,-0.040752,-0.643555,-0.177246,-0.217773,0.097930,0.036218,-0.010270,1.000000,0.000028,-0.000355,-0.000204,0.675929,0.322468,-0.639080,0.175246
47639,NaN,9.566181,3.772222,-1.378745,-0.250220,1.990837,0.366525,-0.054159,-0.025602,0.071372,-0.647705,-0.181641,-0.213379,0.095650,0.037753,-0.013785,1.000000,-0.000271,-0.000128,0.000357,0.675886,0.322097,-0.639312,0.175251
47640,NaN,9.740100,3.270942,-1.680017,0.317381,1.803281,0.436142,-0.114319,0.026766,0.169737,-0.649902,-0.177246,-0.221924,0.097371,0.032782,-0.016832,0.999999,-0.000572,0.000134,0.000849,0.676012,0.321129,-0.639593,0.175514
47641,NaN,9.824735,2.610854,-1.463425,0.586448,1.181211,0.372810,-0.079299,0.079704,0.237032,-0.645752,-0.177246,-0.211182,0.098210,0.026219,-0.014684,0.999999,-0.000396,0.000399,0.001185,0.676182,0.320083,-0.639766,0.176136
47642,NaN,9.737400,2.008815,-0.956676,0.576904,0.448473,0.148914,-0.063697,0.126434,0.278583,-0.647705,-0.177246,-0.213379,0.097340,0.020221,-0.009635,0.999999,-0.000318,0.000632,0.001393,0.676448,0.318850,-0.639838,0.177088
47643,NaN,9.653485,1.637719,-0.656375,0.574173,0.021614,-0.016133,-0.018676,0.160033,0.289097,-0.649902,-0.177246,-0.215576,0.096506,0.016516,-0.006643,0.999999,-0.000093,0.000800,0.001445,0.676713,0.317779,-0.639782,0.178201
47644,NaN,9.594803,1.576615,-0.292317,0.326562,-0.221279,-0.092826,0.037670,0.176299,0.278031,-0.654297,-0.175293,-0.215576,0.095923,0.015900,-0.003005,0.999999,0.000188,0.000881,0.001390,0.676973,0.316844,-0.639591,0.179554
47645,NaN,9.613590,1.566439,-0.120959,0.201616,-0.315718,-0.078774,0.067637,0.183628,0.255160,-0.652100,-0.179443,-0.211182,0.096115,0.015787,-0.001293,0.999999,0.000338,0.000918,0.001276,0.677199,0.316142,-0.639328,0.180874
47646,NaN,9.605800,1.602248,0.028187,0.061578,-0.358378,-0.080930,0.115590,0.169355,0.223487,-0.647705,-0.177246,-0.215576,0.096040,0.016130,0.000210,0.999999,0.000578,0.000847,0.001117,0.677360,0.315650,-0.639001,0.182280
47647,NaN,9.636032,1.711167,0.326540,-0.232825,-0.457180,-0.033906,0.116253,0.156572,0.196758,-0.651855,-0.181641,-0.211182,0.096346,0.017205,0.003200,0.999999,0.000581,0.000783,0.000984,0.677474,0.315313,-0.638691,0.183524
47648,NaN,9.401826,1.929546,0.400843,-0.460594,-0.288210,-0.221915,0.064746,0.136929,0.175779,-0.652344,-0.173096,-0.213379,0.094004,0.019377,0.003950,0.999999,0.000324,0.000685,0.000879,0.677653,0.314830,-0.638443,0.184554
47649,NaN,9.471734,2.026538,0.420891,-0.533312,-0.223012,-0.134694,-0.017593,0.095563,0.158551,-0.652100,-0.175293,-0.211182,0.094703,0.020341,0.004162,1.000000,-0.000088,0.000478,0.000793,0.677826,0.314208,-0.638392,0.185151
47650,NaN,9.562055,1.920268,0.335279,-0.392569,-0.240933,-0.064838,-0.102251,0.060791,0.136779,-0.649902,-0.177246,-0.215576,0.095608,0.019270,0.003314,1.000000,-0.000511,0.000304,0.000684,0.678059,0.313354,-0.638493,0.185396
47651,NaN,9.583112,1.806170,0.282161,-0.278641,-0.279005,-0.064744,-0.167516,0.041841,0.119470,-0.654053,-0.179443,-0.217773,0.095821,0.018121,0.002786,0.999999,-0.000838,0.000209,0.000597,0.678341,0.312394,-0.638692,0.185300
47652,NaN,9.631302,1.642249,0.145355,-0.066773,-0.304100,-0.046258,-0.181403,0.013337,0.097398,-0.650146,-0.173096,-0.211426,0.096305,0.016471,0.001432,0.999999,-0.000907,0.000067,0.000487,0.678582,0.311440,-0.638965,0.185084
47653,NaN,9.627086,1.573841,0.032410,0.059860,-0.271527,-0.061713,-0.159827,0.006521,0.065635,-0.656738,-0.168701,-0.215820,0.096266,0.015770,0.000308,1.000000,-0.000799,0.000033,0.000328,0.678793,0.310705,-0.639186,0.184780
47654,NaN,9.618393,1.432444,-0.093346,0.243756,-0.286110,-0.095032,-0.131951,0.000521,0.038053,-0.658691,-0.177246,-0.209229,0.096181,0.014342,-0.000943,1.000000,-0.000660,0.000003,0.000190,0.678969,0.310120,-0.639363,0.184500
47655,NaN,9.751437,1.487013,-0.300767,0.380120,-0.127120,0.047919,-0.102455,-0.008261,0.002423,-0.654297,-0.175293,-0.217773,0.097514,0.014870,-0.003011,1.000000,-0.000512,-0.000041,0.000012,0.679102,0.309788,-0.639485,0.184150
47656,NaN,9.766703,1.595333,-0.238877,0.266151,-0.090234,0.082344,-0.077470,-0.015462,-0.023832,-0.650146,-0.173096,-0.215576,0.097669,0.015941,-0.002387,1.000000,-0.000387,-0.000077,-0.000119,0.679200,0.309600,-0.639570,0.183809
47657,NaN,9.742132,1.528996,-0.130735,0.227007,-0.210265,0.044711,-0.051660,-0.012422,-0.054919,-0.654297,-0.175293,-0.217773,0.097426,0.015263,-0.001305,1.000000,-0.000258,-0.000062,-0.000275,0.679289,0.309623,-0.639575,0.183424
47658,NaN,9.595015,1.564033,-0.067702,0.143584,-0.208612,-0.094100,-0.018652,-0.008911,-0.070979,-0.654297,-0.175293,-0.217773,0.095956,0.015606,-0.000674,1.000000,-0.000093,-0.000045,-0.000355,0.679360,0.309779,-0.639510,0.183122
47659,NaN,9.443803,1.721847,-0.031496,0.001195,-0.099639,-0.213665,-0.005891,-0.017167,-0.084284,-0.652100,-0.175293,-0.213379,0.094445,0.017179,-0.000307,1.000000,-0.000029,-0.000086,-0.000421,0.679389,0.310050,-0.639445,0.182782
47660,NaN,9.608682,1.782496,-0.068136,0.012890,-0.063059,-0.040044,-0.005596,-0.033594,-0.100996,-0.656250,-0.179443,-0.211182,0.096096,0.017776,-0.000666,1.000000,-0.000028,-0.000168,-0.000505,0.679388,0.310370,-0.639406,0.182381
47661,NaN,9.806337,1.853344,-0.070857,-0.003386,-0.048354,0.167382,-0.021808,-0.036631,-0.109858,-0.654297,-0.175293,-0.217773,0.098074,0.018479,-0.000693,1.000000,-0.000109,-0.000183,-0.000549,0.679403,0.310683,-0.639381,0.181875
47662,NaN,9.742364,1.822478,-0.142158,0.067160,-0.024850,0.099434,-0.021618,-0.044253,-0.102110,-0.652100,-0.175293,-0.215576,0.097433,0.018175,-0.001402,1.000000,-0.000108,-0.000221,-0.000511,0.679394,0.310962,-0.639391,0.181402
47663,NaN,9.614134,1.854630,-0.202503,0.080670,0.047885,-0.019658,-0.006603,-0.039189,-0.095865,-0.654297,-0.175293,-0.215576,0.096151,0.018500,-0.002007,1.000000,-0.000033,-0.000196,-0.000479,0.679364,0.311283,-0.639382,0.180990
47664,NaN,9.664453,1.869240,-0.257197,0.121791,0.077930,0.033172,0.020203,-0.032233,-0.091918,-0.652100,-0.177246,-0.215576,0.096654,0.018648,-0.002555,1.000000,0.000101,-0.000161,-0.000460,0.679318,0.311659,-0.639328,0.180704
47665,NaN,9.738626,1.844845,-0.221672,0.122530,0.016480,0.100846,0.059230,-0.019489,-0.085599,-0.652100,-0.179443,-0.217773,0.097394,0.018407,-0.002202,1.000000,0.000296,-0.000097,-0.000428,0.679238,0.312153,-0.639211,0.180569
47666,NaN,9.669713,1.935092,-0.283724,0.106336,0.127321,0.051435,0.078492,-0.005629,-0.075885,-0.649902,-0.177246,-0.219727,0.096705,0.019315,-0.002827,1.000000,0.000392,-0.000028,-0.000379,0.679172,0.312652,-0.639039,0.180565
47667,NaN,9.618243,2.026068,-0.362125,0.103806,0.247554,0.019638,0.091899,0.004227,-0.066938,-0.654297,-0.175293,-0.213379,0.096189,0.020230,-0.003614,1.000000,0.000459,0.000021,-0.000335,0.679098,0.313176,-0.638841,0.180635
47668,NaN,9.739863,2.031125,-0.343260,0.103435,0.215294,0.139758,0.104270,0.009512,-0.055625,-0.649902,-0.179443,-0.215576,0.097404,0.020286,-0.003427,1.000000,0.000521,0.000048,-0.000278,0.679021,0.313684,-0.638626,0.180806
47669,NaN,9.693272,1.990200,-0.185592,0.008061,0.084575,0.084163,0.106907,0.022064,-0.046767,-0.652100,-0.175293,-0.217773,0.096937,0.019880,-0.001856,1.000000,0.000535,0.000110,-0.000234,0.678959,0.314179,-0.638388,0.181018
47670,NaN,9.594245,1.954166,-0.149887,-0.004282,0.047169,-0.020419,0.094102,0.024623,-0.046140,-0.649902,-0.177246,-0.213379,0.095947,0.019520,-0.001501,1.000000,0.000471,0.000123,-0.000231,0.678937,0.314608,-0.638145,0.181212
47671,NaN,9.584010,2.103246,-0.178023,-0.077966,0.174519,-0.000855,0.085713,0.028393,-0.034370,-0.652100,-0.179443,-0.215576,0.095843,0.021017,-0.001785,1.000000,0.000429,0.000142,-0.000172,0.678917,0.314986,-0.637923,0.181409
47672,NaN,9.569109,2.180596,-0.148638,-0.149368,0.213163,-0.000593,0.064900,0.024905,-0.028645,-0.649902,-0.179443,-0.217773,0.095694,0.021793,-0.001491,1.000000,0.000325,0.000125,-0.000143,0.678926,0.315260,-0.637733,0.181570
47673,NaN,9.645408,2.147968,-0.143238,-0.120940,0.172163,0.067794,0.029527,0.012120,-0.023064,-0.654053,-0.181641,-0.215576,0.096456,0.021469,-0.001435,1.000000,0.000148,0.000061,-0.000115,0.678933,0.315428,-0.637634,0.181597
47674,NaN,9.715446,2.049299,-0.011545,-0.145734,0.001385,0.115476,0.010390,0.011486,-0.012647,-0.654297,-0.177246,-0.217773,0.097156,0.020487,-0.000120,1.000000,0.000052,0.000057,-0.000063,0.678970,0.315478,-0.637564,0.181618
47675,NaN,9.560764,1.941199,-0.074850,-0.045207,-0.012584,-0.056671,-0.008859,0.011312,-0.011104,-0.654053,-0.183838,-0.217529,0.095609,0.019407,-0.000755,1.000000,-0.000044,0.000057,-0.000056,0.679027,0.315479,-0.637520,0.181561
47676,NaN,9.618915,1.918422,-0.191777,0.065912,0.038979,-0.002755,-0.012140,0.005165,-0.011698,-0.647705,-0.177246,-0.217773,0.096190,0.019178,-0.001921,1.000000,-0.000061,0.000026,-0.000058,0.679078,0.315456,-0.637493,0.181503
47677,NaN,9.713728,1.884025,-0.237821,0.135830,0.028446,0.083946,-0.004593,0.006343,-0.018851,-0.647949,-0.175293,-0.221924,0.097139,0.018831,-0.002382,1.000000,-0.000023,0.000032,-0.000094,0.679119,0.315499,-0.637449,0.181427
47678,NaN,9.704966,1.836483,-0.215764,0.151166,-0.020261,0.065689,0.009808,0.015145,-0.024972,-0.649658,-0.183838,-0.215332,0.097052,0.018353,-0.002164,1.000000,0.000049,0.000076,-0.000125,0.679180,0.315583,-0.637348,0.181410
47679,NaN,9.613043,1.853684,-0.131167,0.067949,-0.050259,-0.022039,0.030319,0.022331,-0.027857,-0.651855,-0.183838,-0.219727,0.096133,0.018524,-0.001320,1.000000,0.000152,0.000112,-0.000139,0.679223,0.315759,-0.637206,0.181441
47680,NaN,9.626931,1.782111,-0.158470,0.139277,-0.088129,-0.022301,0.047402,0.013825,-0.033515,-0.654297,-0.177246,-0.215576,0.096272,0.017805,-0.001587,1.000000,0.000237,0.000069,-0.000168,0.679228,0.315999,-0.637061,0.181512
47681,NaN,9.607347,1.883742,-0.131617,0.053249,-0.030388,-0.021714,0.072783,0.021421,-0.035849,-0.654297,-0.175049,-0.219971,0.096077,0.018821,-0.001320,1.000000,0.000364,0.000107,-0.000179,0.679209,0.316342,-0.636872,0.181652
47682,NaN,9.593928,1.956240,-0.171386,0.037305,0.049376,-0.020044,0.065954,0.022816,-0.040915,-0.645508,-0.181641,-0.221924,0.095943,0.019543,-0.001718,1.000000,0.000330,0.000114,-0.000205,0.679219,0.316661,-0.636668,0.181771
47683,NaN,9.601403,2.010001,-0.191930,0.021803,0.098373,-0.001789,0.049990,0.014040,-0.047366,-0.645752,-0.177246,-0.217773,0.096019,0.020078,-0.001921,1.000000,0.000250,0.000070,-0.000237,0.679223,0.316970,-0.636506,0.181789
47684,NaN,9.615203,2.024666,-0.105352,-0.047704,0.046969,0.013707,0.041747,0.013615,-0.044688,-0.649902,-0.181641,-0.221924,0.096156,0.020225,-0.001056,1.000000,0.000209,0.000068,-0.000223,0.679246,0.317226,-0.636349,0.181804
47685,NaN,9.600576,2.006001,-0.051269,-0.074726,-0.003189,-0.004929,0.025843,0.012461,-0.043743,-0.651855,-0.181641,-0.219727,0.096010,0.020039,-0.000516,1.000000,0.000129,0.000062,-0.000219,0.679279,0.317443,-0.636220,0.181754
47686,NaN,9.656555,1.991563,-0.099682,-0.019069,0.007257,0.047581,0.032693,0.011062,-0.038631,-0.647705,-0.181641,-0.221924,0.096569,0.019897,-0.000999,1.000000,0.000163,0.000055,-0.000193,0.679303,0.317652,-0.636090,0.181756
47687,NaN,9.627423,2.056302,-0.191473,0.006664,0.117781,0.033043,0.032579,0.017207,-0.034839,-0.649658,-0.181641,-0.226074,0.096278,0.020547,-0.001920,1.000000,0.000163,0.000086,-0.000174,0.679333,0.317858,-0.635951,0.181766
47688,NaN,9.664359,2.139192,-0.213670,-0.023588,0.186094,0.086123,0.029622,0.013057,-0.025565,-0.645508,-0.179443,-0.219727,0.096646,0.021380,-0.002140,1.000000,0.000148,0.000065,-0.000128,0.679356,0.318013,-0.635838,0.181806
47689,NaN,9.668467,2.117639,-0.210392,-0.009141,0.166374,0.085805,0.012337,0.020068,-0.023571,-0.651855,-0.185791,-0.217529,0.096687,0.021165,-0.002112,1.000000,0.000062,0.000100,-0.000118,0.679417,0.318113,-0.635726,0.181794
47690,NaN,9.624175,2.068825,-0.118969,-0.048969,0.077325,0.031629,0.002842,0.019317,-0.009549,-0.651611,-0.190186,-0.221680,0.096243,0.020684,-0.001199,1.000000,0.000014,0.000097,-0.000048,0.679488,0.318121,-0.635641,0.181813
47691,NaN,9.557205,2.053501,-0.152273,-0.020732,0.099315,-0.036700,-0.010319,0.017516,-0.004822,-0.649658,-0.183838,-0.219727,0.095572,0.020533,-0.001532,1.000000,-0.000052,0.000088,-0.000024,0.679560,0.318088,-0.635588,0.181787
47692,NaN,9.764350,1.987353,-0.225760,0.105099,0.068384,0.153623,-0.005457,0.017937,-0.004284,-0.645508,-0.179443,-0.219727,0.097644,0.019871,-0.002267,1.000000,-0.000027,0.000090,-0.000021,0.679635,0.318052,-0.635523,0.181796
47693,NaN,9.712114,1.981862,-0.172494,0.063853,0.038578,0.100795,-0.001834,0.027051,0.003562,-0.649902,-0.181641,-0.217529,0.097121,0.019820,-0.001738,1.000000,-0.000009,0.000135,0.000018,0.679715,0.318012,-0.635444,0.181841
47694,NaN,9.594080,1.957136,-0.188308,0.078719,0.051974,-0.019663,0.003289,0.030867,0.002497,-0.643311,-0.183838,-0.219727,0.095940,0.019573,-0.001898,1.000000,0.000016,0.000154,0.000012,0.679811,0.317972,-0.635339,0.181921
47695,NaN,9.533634,1.996325,-0.173210,0.036097,0.081948,-0.071154,0.010775,0.030121,0.000614,-0.651855,-0.183838,-0.226074,0.095336,0.019964,-0.001745,1.000000,0.000054,0.000151,0.000003,0.679884,0.317981,-0.635233,0.182001
47696,NaN,9.552836,1.982559,-0.082330,-0.018871,0.010939,-0.055971,0.013487,0.028521,0.007045,-0.649658,-0.183838,-0.219727,0.095528,0.019829,-0.000836,1.000000,0.000067,0.000143,0.000035,0.679952,0.317964,-0.635134,0.182125
47697,NaN,9.562127,1.934439,-0.075733,0.010103,-0.028394,-0.056604,0.023642,0.027564,0.000128,-0.647461,-0.185791,-0.219727,0.095621,0.019345,-0.000768,1.000000,0.000118,0.000138,0.000001,0.679996,0.318021,-0.635024,0.182241
47698,NaN,9.527244,1.930766,-0.039641,-0.017367,-0.047793,-0.091822,0.020073,0.026080,-0.000312,-0.651855,-0.185791,-0.223877,0.095272,0.019308,-0.000407,1.000000,0.000100,0.000130,-0.000002,0.680053,0.318051,-0.634915,0.182357
