// Start Time: Unknown
// Update Rate: 100.0Hz
// Filter Profile: human (46.1)
// Firmware Version: 4.4.0
PacketCounter,SampleTimeFine,Acc_X,Acc_Y,Acc_Z,FreeAcc_X,FreeAcc_Y,FreeAcc_Z,Gyr_X,Gyr_Y,Gyr_Z,Mag_X,Mag_Y,Mag_Z,VelInc_X,VelInc_Y,VelInc_Z,OriInc_q0,OriInc_q1,OriInc_q2,OriInc_q3,Quat_q0,Quat_q1,Quat_q2,Quat_q3
54561,NaN,6.422352,-5.820233,-3.220131,0.000000,0.000000,-0.566556,-0.155054,0.085534,-0.114815,-0.666992,0.715576,0.101074,0.064176,-0.058264,-0.032184,0.999999,-0.000775,0.000428,-0.000574,0.559782,-0.421543,-0.704514,0.112277
54562,NaN,6.632628,-6.487715,-3.191258,-0.000000,0.000000,-0.001150,-0.040704,0.149108,-0.235639,-0.677979,0.722168,0.107422,0.066226,-0.064962,-0.031949,0.999999,-0.000204,0.000746,-0.001178,0.556984,-0.382508,-0.718679,0.164186
54563,NaN,7.373745,-6.183463,-2.947527,-0.283220,0.658620,0.226293,0.092685,0.163304,-0.357487,-0.673096,0.711426,0.096680,0.073603,-0.061953,-0.029564,0.999998,0.000463,0.000817,-0.001787,0.559712,-0.399079,-0.712785,0.139271
54564,NaN,8.778141,-5.757575,-2.324257,-0.742768,2.060397,0.713966,0.207038,0.135250,-0.457572,-0.686279,0.717773,0.100830,0.087634,-0.057752,-0.023362,0.999997,0.001035,0.000676,-0.002288,0.560924,-0.396962,-0.713173,0.138458
54565,NaN,10.066580,-5.515796,-1.849332,-1.141155,3.208671,1.304055,0.269366,0.085533,-0.529942,-0.681641,0.705078,0.094727,0.100511,-0.055399,-0.018611,0.999995,0.001347,0.000428,-0.002650,0.562142,-0.394351,-0.713799,0.137745
54566,NaN,10.919278,-5.792838,-0.904196,-2.163842,3.809655,1.780805,0.319675,0.025293,-0.576295,-0.696533,0.705078,0.096680,0.109024,-0.058228,-0.009149,0.999995,0.001598,0.000126,-0.002881,0.563257,-0.391411,-0.714641,0.137215
54567,NaN,11.320320,-6.197381,-0.210489,-2.989920,3.924562,2.114556,0.419450,-0.078976,-0.613943,-0.689697,0.689941,0.082031,0.113013,-0.062316,-0.002191,0.999993,0.002097,-0.000395,-0.003070,0.564294,-0.387883,-0.715775,0.137059
54568,NaN,11.805757,-6.372470,0.039440,-3.334066,4.134280,2.507089,0.571382,-0.242226,-0.651791,-0.694336,0.698486,0.090332,0.117849,-0.064110,0.000354,0.999990,0.002857,-0.001211,-0.003259,0.564976,-0.383769,-0.717324,0.137733
54569,NaN,12.258351,-6.440045,0.246349,-3.604274,4.363209,2.827439,0.691980,-0.388819,-0.712218,-0.695801,0.683594,0.077881,0.122348,-0.064845,0.002478,0.999986,0.003460,-0.001944,-0.003561,0.565614,-0.378800,-0.719252,0.138810
54570,NaN,13.522099,-6.901198,0.644324,-4.282396,4.927298,3.908477,0.868508,-0.517293,-0.786999,-0.708984,0.690186,0.086182,0.134931,-0.069571,0.006491,0.999979,0.004343,-0.002586,-0.003935,0.565933,-0.373147,-0.721588,0.140685
54571,NaN,16.047904,-7.590953,0.572964,-4.722642,6.055308,6.203358,1.081208,-0.552881,-0.891327,-0.706299,0.679443,0.073486,0.160123,-0.076655,0.005760,0.999972,0.005406,-0.002764,-0.004457,0.567023,-0.366134,-0.723894,0.142857
54572,NaN,18.812121,-8.795156,-0.503531,-4.462360,6.740133,9.322584,1.308571,-0.494461,-1.018435,-0.719482,0.683594,0.069092,0.187683,-0.088875,-0.005150,0.999963,0.006543,-0.002472,-0.005092,0.568335,-0.358371,-0.726198,0.145606
54573,NaN,22.198604,-9.312799,-1.119948,-4.397752,8.295879,12.381683,1.524296,-0.285983,-1.365755,-0.720947,0.662354,0.058594,0.221360,-0.094554,-0.011600,0.999947,0.007621,-0.001430,-0.006829,0.571775,-0.348310,-0.728036,0.147367
54574,NaN,25.104239,-9.613187,-0.271810,-5.542695,9.811261,14.594355,1.789715,0.343244,-1.766833,-0.742188,0.656006,0.039307,0.250174,-0.098312,-0.004021,0.999919,0.008948,0.001716,-0.008834,0.577397,-0.336987,-0.728754,0.148221
54575,NaN,27.640979,-8.890273,0.457148,-6.005349,11.488768,16.171077,2.299488,1.072232,-2.257573,-0.745361,0.632568,0.001221,0.275398,-0.092049,0.002047,0.999856,0.011497,0.005361,-0.011287,0.588010,-0.321889,-0.727249,0.147445
54576,NaN,28.861065,-3.788369,0.993581,-4.865707,15.434481,14.401245,2.755780,1.375755,-2.974299,-0.779297,0.615479,-0.028809,0.288060,-0.042284,0.007391,0.999771,0.013778,0.006878,-0.014870,0.599505,-0.303914,-0.725793,0.146473
54577,NaN,30.930109,3.081026,-0.083880,-1.975750,20.877078,13.128243,2.649671,1.554120,-3.800793,-0.790527,0.572754,-0.062500,0.309795,0.024955,-0.002888,0.999701,0.013247,0.007770,-0.019002,0.613545,-0.281615,-0.724182,0.140772
54578,NaN,23.745814,10.358101,3.354812,-3.145833,22.246211,3.509690,4.346187,1.163635,-4.249670,-0.826172,0.549316,-0.103027,0.239775,0.097762,0.034324,0.999521,0.021727,0.005817,-0.021245,0.626573,-0.253583,-0.723190,0.141767
54579,NaN,26.275632,17.749465,2.194890,-1.532152,28.923502,3.268165,5.677846,0.709686,-4.387736,-0.836914,0.493652,-0.145020,0.266643,0.170974,0.025923,0.999350,0.028383,0.003548,-0.021934,0.641040,-0.217987,-0.721509,0.144827
54580,NaN,26.415584,19.103549,2.978586,-3.237221,29.585720,3.808972,5.863174,0.725911,-4.088452,-0.867920,0.457520,-0.181152,0.268093,0.184620,0.034293,0.999355,0.029310,0.003629,-0.020438,0.652594,-0.184837,-0.718927,0.151988
54581,NaN,39.971569,6.803014,1.771366,-4.441262,23.669613,22.851766,5.388144,0.681373,-3.606721,-0.870605,0.412598,-0.217041,0.400911,0.060323,0.018044,0.999469,0.026936,0.003406,-0.018030,0.664411,-0.151966,-0.715224,0.154657
54582,NaN,37.896907,-16.079428,-6.821288,4.436802,1.118883,31.662058,5.006308,0.475072,-3.096410,-0.888428,0.371826,-0.242188,0.376268,-0.164843,-0.073202,0.999564,0.025028,0.002375,-0.015480,0.672018,-0.124567,-0.711816,0.161844
54583,NaN,20.875404,-47.130874,-10.696979,12.003964,-34.962072,27.667013,3.111619,0.739473,-2.537621,-0.889404,0.342041,-0.269531,0.202351,-0.472155,-0.115068,0.999792,0.015557,0.003697,-0.012687,0.680123,-0.103511,-0.708022,0.159447
54584,NaN,-14.033108,-71.338178,-7.864692,15.152962,-70.447281,2.614078,4.423172,0.436400,-2.262593,-0.896729,0.303467,-0.290527,-0.148569,-0.709765,-0.094054,0.999689,0.022114,0.002182,-0.011312,0.685549,-0.080778,-0.703963,0.167135
54585,NaN,-27.034437,-45.401069,-0.823778,8.454240,-51.148174,-20.038446,4.624414,-1.380028,-2.165068,-0.895264,0.260498,-0.291992,-0.275122,-0.450669,-0.020572,0.999650,0.023119,-0.006899,-0.010824,0.684294,-0.056563,-0.705429,0.175819
54586,NaN,-11.991993,-9.546646,-0.460477,2.915477,-12.546208,-18.132822,3.638784,-1.412332,-1.395097,-0.907471,0.243408,-0.300293,-0.120537,-0.094512,-0.007180,0.999785,0.018193,-0.007061,-0.006975,0.681422,-0.037940,-0.707305,0.184241
54587,NaN,-2.498720,8.892848,-1.702996,-0.018488,7.843497,-14.980128,2.575462,-1.419381,0.012226,-0.895752,0.215576,-0.297607,-0.024876,0.089138,-0.016060,0.999892,0.012877,-0.007097,0.000061,0.676462,-0.028927,-0.709623,0.194931
54588,NaN,-2.927331,15.083104,-4.614552,1.212349,14.078802,-17.406734,2.222125,-0.535585,1.320309,-0.894043,0.226318,-0.306396,-0.030150,0.151135,-0.044547,0.999913,0.011110,-0.002678,0.006601,0.673538,-0.025571,-0.709016,0.207341
54589,NaN,1.043881,5.539083,-4.589634,2.971849,6.575672,-10.686077,0.636343,-0.081991,2.378004,-0.875000,0.239014,-0.310791,0.009797,0.055656,-0.045715,0.999924,0.003182,-0.000410,0.011890,0.670521,-0.031958,-0.708466,0.217845
54590,NaN,1.884704,1.456378,-1.945253,1.342741,2.473932,-8.574310,-1.302069,0.484592,2.528253,-0.875977,0.264893,-0.309082,0.018615,0.014673,-0.019593,0.999896,-0.006510,0.002423,0.012641,0.669206,-0.045803,-0.707782,0.221608
54591,NaN,1.582725,0.303060,1.496510,-1.677068,0.509012,-8.484502,-3.155197,0.811787,2.542307,-0.852783,0.281982,-0.313477,0.015845,0.003467,0.014848,0.999787,-0.015775,0.004059,0.012711,0.668049,-0.066324,-0.708185,0.218598
54592,NaN,3.103166,0.358324,2.091507,-2.411913,1.138753,-7.163953,-4.453363,0.851442,2.472819,-0.847412,0.313965,-0.301025,0.031069,0.004430,0.020690,0.999667,-0.022264,0.004257,0.012363,0.666662,-0.090861,-0.709152,0.210734
54593,NaN,4.039414,0.545622,2.140469,-2.557654,1.859128,-6.466873,-4.997009,0.798246,2.386976,-0.831055,0.333252,-0.296875,0.040406,0.006468,0.021090,0.999609,-0.024982,0.003991,0.011933,0.664233,-0.116794,-0.710645,0.200345
54594,NaN,3.916407,1.491570,2.309088,-2.749422,2.816976,-7.093148,-4.911664,0.666029,2.331083,-0.830078,0.369629,-0.280273,0.039058,0.015930,0.022578,0.999625,-0.024555,0.003330,0.011654,0.661147,-0.142010,-0.711725,0.190172
54595,NaN,3.661799,1.627211,2.101328,-2.440945,3.004803,-7.471368,-4.549499,0.441104,2.210409,-0.809082,0.380371,-0.271729,0.036477,0.017147,0.020549,0.999678,-0.022745,0.002205,0.011051,0.657159,-0.165182,-0.712917,0.180572
54596,NaN,3.988426,3.406972,1.883858,-2.136983,4.862503,-8.124686,-3.782287,0.245752,2.074365,-0.807861,0.410400,-0.255127,0.039548,0.034829,0.018136,0.999767,-0.018910,0.001229,0.010371,0.652886,-0.185186,-0.713644,0.173661
54597,NaN,3.928988,6.329025,2.841033,-2.796510,7.465807,-9.821605,-2.922686,0.093194,1.886352,-0.799805,0.420898,-0.253174,0.038701,0.064063,0.027460,0.999849,-0.014613,0.000466,0.009431,0.648988,-0.201258,-0.714046,0.168665
54598,NaN,3.746715,9.472589,3.305414,-2.798098,10.149471,-11.773349,-2.493587,-0.037476,1.611870,-0.800537,0.442383,-0.238525,0.036694,0.095426,0.031874,0.999890,-0.012467,-0.000187,0.008059,0.644914,-0.215050,-0.714570,0.165012
54599,NaN,2.879929,11.308832,2.567934,-1.577144,11.253061,-13.507663,-1.840643,-0.179123,1.418743,-0.785645,0.444580,-0.236328,0.027973,0.113519,0.024661,0.999932,-0.009203,-0.000896,0.007094,0.641674,-0.225346,-0.715017,0.161939
54600,NaN,0.148999,11.014661,2.999541,-1.662969,9.538921,-15.861057,-0.949731,-0.278029,1.315690,-0.783936,0.461670,-0.221436,0.000724,0.110294,0.029473,0.999966,-0.004749,-0.001390,0.006578,0.638523,-0.232864,-0.715171,0.163072
54601,NaN,-2.073994,9.349818,2.636974,-1.249436,6.885595,-16.862553,-0.491192,-0.212844,1.020610,-0.775635,0.465820,-0.221436,-0.021245,0.093455,0.026118,0.999983,-0.002456,-0.001064,0.005103,0.637294,-0.237043,-0.714956,0.162801
54602,NaN,-3.014560,7.540848,1.720167,-0.481450,4.744939,-16.607132,0.026777,-0.067568,0.607599,-0.782471,0.480957,-0.226074,-0.030380,0.075314,0.017202,0.999995,0.000134,-0.000338,0.003038,0.636587,-0.239074,-0.714426,0.164912
54603,NaN,-2.204147,4.761522,0.476421,0.313894,2.791866,-14.269620,0.412315,-0.041982,0.259250,-0.773682,0.476562,-0.226074,-0.022104,0.047577,0.004858,0.999997,0.002062,-0.000210,0.001296,0.637825,-0.237633,-0.713812,0.164869
54604,NaN,-1.052088,1.239200,-0.834599,1.058775,0.400655,-11.247095,0.544722,0.122861,-0.211075,-0.786865,0.483154,-0.219727,-0.010513,0.012426,-0.008306,0.999996,0.002724,0.000614,-0.001055,0.639082,-0.235242,-0.713219,0.165993
54605,NaN,0.184606,-1.200970,-1.173911,1.001883,-0.983826,-8.873121,0.382587,0.105239,-0.614049,-0.782471,0.476562,-0.234619,0.001803,-0.011993,-0.011763,0.999993,0.001913,0.000526,-0.003070,0.641454,-0.230894,-0.713237,0.162842
54606,NaN,0.354623,-2.165373,-1.465763,1.167207,-1.729639,-8.197450,0.057411,0.184176,-0.924875,-0.795410,0.478760,-0.219727,0.003433,-0.021666,-0.014667,0.999989,0.000287,0.000921,-0.004624,0.642923,-0.227558,-0.713659,0.159866
54607,NaN,-0.109527,-2.599577,-2.237502,1.908567,-2.421466,-8.306048,-0.204117,0.147638,-1.327341,-0.792969,0.470215,-0.226074,-0.001284,-0.026010,-0.022348,0.999977,-0.001021,0.000738,-0.006637,0.645127,-0.222673,-0.714828,0.152477
54608,NaN,-0.156824,-2.644123,-2.781111,2.440987,-2.546303,-8.293383,-0.252693,0.167749,-1.617650,-0.812256,0.466064,-0.217529,-0.001806,-0.026462,-0.027776,0.999966,-0.001263,0.000839,-0.008088,0.646656,-0.217827,-0.716256,0.146164
54609,NaN,-0.223102,-2.550752,-2.540241,2.213270,-2.516067,-8.478687,-0.090321,0.214079,-1.808367,-0.811523,0.448730,-0.217041,-0.002489,-0.025497,-0.025388,0.999958,-0.000452,0.001070,-0.009042,0.649211,-0.211023,-0.717637,0.137808
54610,NaN,0.146024,-2.670328,-2.811264,2.448633,-2.485058,-8.114563,0.318961,0.134055,-1.828707,-0.824219,0.444580,-0.217041,0.001197,-0.026670,-0.028156,0.999957,0.001595,0.000670,-0.009143,0.651261,-0.203509,-0.718880,0.132869
54611,NaN,-0.342618,0.070651,-1.450269,1.468955,-0.198332,-9.981424,0.717658,-0.062419,-1.675010,-0.832520,0.431641,-0.212646,-0.003415,0.000787,-0.014501,0.999958,0.003588,-0.000312,-0.008375,0.653181,-0.194477,-0.720453,0.128377
54612,NaN,-0.587289,3.347094,-0.707732,1.104011,2.691902,-11.705649,0.918802,-0.206594,-1.599740,-0.847168,0.423096,-0.208496,-0.005598,0.033549,-0.006929,0.999957,0.004594,-0.001033,-0.007999,0.654329,-0.185573,-0.722062,0.126657
54613,NaN,1.033632,1.209913,0.759866,-0.718178,1.573593,-9.469758,1.518826,-0.371476,-1.277806,-0.846924,0.412354,-0.216797,0.010399,0.011975,0.007709,0.999949,0.007594,-0.001857,-0.006389,0.655398,-0.175127,-0.723712,0.126589
54614,NaN,1.740724,-0.897753,1.617326,-1.819536,-0.034027,-8.040757,1.797832,-0.366657,-1.073160,-0.859863,0.414551,-0.208252,0.017329,-0.009216,0.016123,0.999944,0.008989,-0.001833,-0.005366,0.656288,-0.165110,-0.724674,0.129891
54615,NaN,0.853822,-3.081775,2.396585,-2.641785,-2.422481,-8.045816,2.123588,-0.392064,-0.781103,-0.846436,0.399658,-0.212402,0.008371,-0.031103,0.023653,0.999934,0.010618,-0.001960,-0.003905,0.657305,-0.155306,-0.725194,0.133877
54616,NaN,-0.395385,-4.958881,2.454814,-2.594683,-4.708392,-8.445150,2.258581,-0.470651,-0.556917,-0.866211,0.408203,-0.210449,-0.004149,-0.049850,0.023977,0.999930,0.011293,-0.002353,-0.002785,0.657679,-0.145538,-0.725611,0.140592
54617,NaN,-0.939664,-4.250482,1.540222,-1.526880,-4.305502,-9.140029,1.851358,-0.452872,-0.403581,-0.861328,0.395264,-0.210205,-0.009517,-0.042626,0.014987,0.999953,0.009257,-0.002264,-0.002018,0.657890,-0.138536,-0.725848,0.145371
54618,NaN,-0.408144,-3.018523,0.907988,-0.876586,-2.966720,-9.082919,1.116596,-0.259943,-0.204442,-0.874756,0.410400,-0.197510,-0.004124,-0.030231,0.008906,0.999983,0.005583,-0.001300,-0.001022,0.657858,-0.133930,-0.726021,0.148928
54619,NaN,0.154089,-2.692600,0.282115,-0.294360,-2.425858,-8.637107,0.248337,0.066174,0.049984,-0.870361,0.406006,-0.208252,0.001549,-0.026929,0.002787,0.999999,0.001242,0.000331,0.000250,0.658437,-0.134492,-0.725284,0.149455
54620,NaN,0.429009,-3.761825,1.370096,-1.409524,-3.335592,-8.052139,-0.574256,0.444273,0.415516,-0.877686,0.427490,-0.191406,0.004399,-0.037570,0.013799,0.999991,-0.002871,0.002221,0.002078,0.659346,-0.138220,-0.723964,0.148440
54622,NaN,1.733580,-7.212352,2.375707,-5.308869,-11.865612,-1.229698,-1.394537,0.703702,1.018058,-0.863770,0.463867,-0.170410,0.036476,-0.143203,0.049264,0.999826,-0.013945,0.007037,0.010180,0.661185,-0.155619,-0.719750,0.143448
54623,NaN,7.794822,-57.327107,7.291839,-10.533716,-48.502291,20.790775,-2.435628,1.077373,2.352297,-0.840820,0.485107,-0.175049,0.085092,-0.571357,0.079439,0.999842,-0.012178,0.005387,0.011761,0.661376,-0.172884,-0.715991,0.141598
54624,NaN,-15.387464,-101.730200,5.199587,-12.601324,-97.269535,21.645748,-4.402378,2.164576,3.489174,-0.827881,0.540771,-0.156494,-0.135378,-1.018276,0.075937,0.999547,-0.022009,0.010821,0.017443,0.662618,-0.201730,-0.708091,0.137295
54625,NaN,21.725867,-78.916327,5.498341,-16.246744,-57.611374,46.268832,-4.462226,0.225872,3.827662,-0.811035,0.547119,-0.128662,0.232364,-0.783328,0.072249,0.999567,-0.022308,0.001129,0.019136,0.656004,-0.230129,-0.706239,0.133891
54626,NaN,79.557670,79.528746,-25.246696,33.145657,105.656498,22.266832,-1.037106,-1.413125,-2.009262,-0.813232,0.553711,-0.128662,0.805280,0.785926,-0.250892,0.999911,-0.005185,-0.007065,-0.010046,0.650170,-0.227086,-0.712742,0.133077
54627,NaN,12.982359,67.248471,7.655927,2.245676,64.899449,-32.883343,-0.833998,-0.150656,2.496097,-0.796875,0.570557,-0.094727,0.121359,0.674346,0.073843,0.999913,-0.004170,-0.000753,0.012480,0.646969,-0.238573,-0.710890,0.138378
54628,NaN,4.582727,26.020555,8.016180,-3.265104,25.275474,-20.424276,-5.556682,-2.519218,1.957769,-0.797852,0.596191,-0.041504,0.042310,0.262734,0.073433,0.999487,-0.027779,-0.012594,0.009787,0.629780,-0.261743,-0.719937,0.128676
54629,NaN,17.652350,-6.944622,-13.432286,10.074209,1.891522,11.047710,-3.429514,-1.682587,1.838199,-0.782959,0.600342,-0.015625,0.178281,-0.070086,-0.131630,0.999775,-0.017146,-0.008412,0.009190,0.617912,-0.278017,-0.724874,0.124292
54630,NaN,5.508592,-16.841323,-19.958897,14.547253,-14.078859,7.579413,-0.958768,1.209163,-0.184512,-0.798340,0.606934,-0.009521,0.053725,-0.169418,-0.199106,0.999970,-0.004794,0.006046,-0.000923,0.621294,-0.280965,-0.721851,0.118254
54631,NaN,6.031452,-1.120208,-16.974965,15.570357,-0.732878,-0.713322,-1.755865,-0.416008,-0.990988,-0.795654,0.587646,0.008057,0.060606,-0.012991,-0.169515,0.999947,-0.008779,-0.002080,-0.004955,0.617879,-0.282582,-0.725535,0.109417
54632,NaN,58.487312,-6.409749,1.312284,-8.194369,27.077320,41.792617,1.800632,-2.376955,0.209684,-0.791748,0.604736,0.011963,0.584734,-0.063641,0.019499,0.999888,0.009003,-0.011884,0.001048,0.610968,-0.276564,-0.732012,0.119952
54633,NaN,139.048717,16.429868,40.295694,-47.718928,98.445265,86.404467,-1.054379,-0.019157,3.126405,-0.766602,0.621826,0.020508,1.387632,0.188127,0.402140,0.999864,-0.005272,-0.000096,0.015631,0.607482,-0.291178,-0.728280,0.125653
54634,NaN,5.416276,17.433104,-5.738944,9.838518,15.973619,-13.582421,0.127738,0.769330,2.491504,-0.759033,0.649658,0.018066,0.051764,0.175023,-0.057480,0.999915,0.000639,0.003847,0.012457,0.610926,-0.299430,-0.721454,0.128901
54635,NaN,-9.359702,-10.773022,-11.111006,8.168724,-16.096212,-8.690619,-2.484000,0.024493,3.061831,-0.731445,0.660156,0.030762,-0.091933,-0.110515,-0.109738,0.999806,-0.012419,0.000122,0.015308,0.605204,-0.318019,-0.718256,0.129231
54636,NaN,0.276366,-30.515022,-0.523445,-8.934846,-23.132703,7.978521,-1.085146,-0.183597,1.871266,-0.727783,0.677246,0.045654,0.005622,-0.305129,-0.003575,0.999941,-0.005426,-0.000918,0.009356,0.603108,-0.327170,-0.716133,0.127962
54637,NaN,-3.765617,-6.944318,-1.106743,-0.963242,-7.801007,-8.454815,-1.230168,0.119822,0.638396,-0.714600,0.670898,0.039307,-0.037441,-0.069629,-0.010617,0.999976,-0.006151,0.000599,0.003192,0.601102,-0.333234,-0.715497,0.125283
54638,NaN,-5.888349,-4.667222,-4.864115,3.377853,-8.259073,-10.514836,-0.134616,-0.323114,-0.066246,-0.723389,0.677246,0.052002,-0.058820,-0.046685,-0.048705,0.999998,-0.000673,-0.001616,-0.000331,0.601040,-0.332700,-0.716173,0.123118
54639,NaN,-1.561457,-8.731861,1.115348,-3.826951,-7.269299,-6.285765,-0.015517,-0.635898,-0.293256,-0.718994,0.668701,0.047852,-0.015778,-0.087295,0.011110,0.999994,-0.000078,-0.003179,-0.001466,0.598915,-0.331302,-0.718577,0.123238
54640,NaN,-0.405681,-9.826562,-2.509739,-0.814243,-8.206717,-3.895674,0.558600,-0.772900,-0.617245,-0.734131,0.675293,0.056396,-0.004262,-0.098182,-0.025388,0.999984,0.002793,-0.003864,-0.003086,0.598530,-0.326529,-0.721101,0.123101
54641,NaN,4.349677,-6.341421,-1.775375,-0.683075,-2.509847,-2.361571,0.493383,-0.618439,-0.823710,-0.733398,0.653809,0.048096,0.043290,-0.063549,-0.017776,0.999984,0.002467,-0.003092,-0.004119,0.597604,-0.321696,-0.723981,0.123422
54642,NaN,6.336104,-5.150045,-1.503768,-0.723775,-0.415112,-1.552323,0.448174,-0.589199,-1.241886,-0.744385,0.657959,0.060791,0.063084,-0.051859,-0.014968,0.999974,0.002241,-0.002946,-0.006209,0.597926,-0.315153,-0.726993,0.121012
54643,NaN,10.592082,-6.046654,-1.236455,-1.675674,1.391300,2.251184,0.272326,-0.461825,-1.427481,-0.745605,0.634521,0.054688,0.105514,-0.061204,-0.012204,0.999971,0.001362,-0.002309,-0.007137,0.597523,-0.308861,-0.730437,0.118458
54644,NaN,13.866133,-3.211881,-0.628924,-1.737025,5.473224,3.225902,0.162038,-0.299161,-1.345148,-0.767334,0.638916,0.061035,0.138450,-0.033045,-0.006109,0.999976,0.000810,-0.001496,-0.006726,0.598445,-0.302952,-0.732825,0.114242
54645,NaN,14.686241,-2.245455,0.118384,-2.308811,6.704820,3.243117,0.124365,-0.176616,-1.157324,-0.766602,0.619629,0.059082,0.146728,-0.023305,0.001299,0.999983,0.000622,-0.000883,-0.005787,0.598638,-0.298232,-0.735023,0.111499
54646,NaN,13.916559,-3.301073,-0.436816,-2.054022,5.141998,3.381921,0.153437,-0.085776,-0.992008,-0.777344,0.617432,0.059082,0.139001,-0.033697,-0.004334,0.999987,0.000767,-0.000429,-0.004960,0.600181,-0.293706,-0.736143,0.107762
54647,NaN,12.323547,-3.640768,-2.168622,-0.383543,3.518741,2.729167,0.155077,-0.031708,-0.954280,-0.770508,0.604492,0.052979,0.123063,-0.036978,-0.021695,0.999988,0.000775,-0.000159,-0.004771,0.600800,-0.289707,-0.737547,0.105514
54648,NaN,9.723496,-4.098578,-3.025887,0.581366,1.395608,1.059940,0.183679,0.168282,-1.034582,-0.789795,0.604492,0.054932,0.096996,-0.041460,-0.030378,0.999986,0.000918,0.000841,-0.005173,0.603330,-0.285038,-0.737895,0.101278
54649,NaN,7.844717,-4.442793,-2.685074,0.364551,0.053604,-0.413171,0.158631,0.263150,-1.138632,-0.791260,0.587402,0.046631,0.078157,-0.044852,-0.026989,0.999983,0.000793,0.001316,-0.005693,0.605094,-0.280486,-0.738630,0.098050
54650,NaN,7.815938,-4.574817,-2.132402,-0.176861,-0.103977,-0.510981,0.103562,0.301144,-1.244023,-0.804199,0.583252,0.044434,0.077841,-0.046222,-0.021465,0.999979,0.000518,0.001506,-0.006220,0.607964,-0.275348,-0.738896,0.092714
54651,NaN,8.296465,-3.923367,-1.733866,-0.413646,0.642053,-0.504321,0.000466,0.328399,-1.365180,-0.805908,0.570312,0.040283,0.082666,-0.039799,-0.017475,0.999975,0.000002,0.001642,-0.006826,0.609797,-0.270448,-0.739758,0.088110
54652,NaN,8.329852,-3.867176,-1.194069,-0.902882,0.653726,-0.619039,-0.072593,0.348245,-1.437411,-0.818359,0.557617,0.040527,0.082997,-0.039273,-0.012071,0.999973,-0.000363,0.001741,-0.007187,0.612557,-0.265142,-0.740156,0.081506
54653,NaN,8.627431,-3.171080,-1.244868,-0.690334,1.240113,-0.646342,-0.189413,0.344177,-1.484864,-0.824219,0.542480,0.038574,0.086014,-0.032362,-0.012566,0.999971,-0.000947,0.001721,-0.007424,0.614168,-0.260358,-0.741125,0.075797
54654,NaN,8.391618,-2.892886,-0.777494,-1.023914,1.299662,-1.057490,-0.136261,0.305187,-1.487458,-0.839111,0.538330,0.040771,0.083686,-0.029557,-0.007883,0.999971,-0.000681,0.001526,-0.007437,0.616591,-0.255025,-0.741644,0.068862
54655,NaN,8.652177,-3.060754,-1.243629,-0.670404,1.043068,-0.634668,-0.088147,0.274455,-1.429757,-0.836182,0.519043,0.032471,0.086283,-0.031230,-0.012541,0.999973,-0.000441,0.001372,-0.007149,0.617973,-0.250081,-0.742631,0.063773
54656,NaN,8.834078,-2.487685,-1.739864,-0.047877,1.357132,-0.570873,-0.041657,0.265187,-1.368918,-0.853271,0.512695,0.030273,0.088145,-0.025484,-0.017510,0.999976,-0.000208,0.001326,-0.006845,0.620228,-0.244862,-0.742995,0.057597
54657,NaN,9.094149,-2.088927,-2.022337,0.300001,1.633203,-0.410644,0.057751,0.259025,-1.275081,-0.856934,0.495605,0.021973,0.090780,-0.021463,-0.020347,0.999979,0.000289,0.001295,-0.006375,0.621617,-0.240014,-0.743720,0.053537
54658,NaN,9.475480,-1.516735,-1.963691,0.378092,2.166902,-0.267960,0.114412,0.257865,-1.156038,-0.867432,0.489014,0.032715,0.094640,-0.015703,-0.019768,0.999982,0.000572,0.001289,-0.005780,0.623859,-0.235082,-0.743758,0.048587
54659,NaN,9.553012,-0.925819,-1.964750,0.538885,2.618079,-0.387622,0.165219,0.256579,-1.034678,-0.862793,0.480469,0.015625,0.095455,-0.009736,-0.019778,0.999985,0.000826,0.001283,-0.005173,0.625251,-0.230776,-0.744122,0.045670
54660,NaN,9.286447,-0.710004,-1.972233,0.652826,2.582034,-0.672766,0.187569,0.268580,-0.939804,-0.878174,0.484863,0.021973,0.092803,-0.007518,-0.019854,0.999988,0.000938,0.001343,-0.004699,0.627467,-0.226404,-0.743839,0.041589
54661,NaN,8.889197,-0.823405,-1.992320,0.687256,2.241646,-0.971457,0.164565,0.271104,-0.845171,-0.873047,0.463379,0.011719,0.088829,-0.008593,-0.020051,0.999990,0.000823,0.001356,-0.004226,0.628833,-0.222796,-0.743903,0.039240
54662,NaN,9.051650,-1.223569,-1.859049,0.449761,1.871895,-0.692445,0.141568,0.300294,-0.754840,-0.885986,0.467773,0.009277,0.090441,-0.012564,-0.018735,0.999992,0.000708,0.001501,-0.003774,0.630991,-0.219238,-0.743321,0.035475
54663,NaN,9.612532,-1.501616,-1.557350,0.036307,1.824308,-0.130175,0.113987,0.329865,-0.713539,-0.876953,0.452637,0.005371,0.096045,-0.015350,-0.015741,0.999992,0.000570,0.001649,-0.003568,0.632465,-0.216281,-0.743036,0.033283
54664,NaN,10.639150,-1.311875,-1.881005,0.312949,2.179088,0.845810,-0.268345,0.323639,-0.794890,-0.889893,0.457031,0.009521,0.106308,-0.013567,-0.018964,0.999990,-0.001342,0.001618,-0.003974,0.634201,-0.213864,-0.742481,0.027827
54665,NaN,11.002790,-0.975139,-1.280756,-0.193895,2.650856,0.984858,-0.532341,0.409551,-0.855750,-0.885010,0.437744,-0.000977,0.109958,-0.010256,-0.013006,0.999985,-0.002662,0.002048,-0.004279,0.635263,-0.212426,-0.742159,0.022696
54666,NaN,10.072217,-1.720459,-0.297993,-1.228047,1.759665,0.181969,-0.446398,0.373635,-0.809687,-0.902100,0.437744,0.005371,0.100646,-0.017619,-0.003129,0.999988,-0.002232,0.001868,-0.004048,0.636921,-0.210513,-0.741448,0.016458
54667,NaN,9.643114,-1.698959,0.061362,-1.517558,1.644054,-0.279926,-0.289405,0.261334,-0.716659,-0.888916,0.427002,0.003418,0.096370,-0.017334,0.000513,0.999992,-0.001447,0.001307,-0.003583,0.637641,-0.208794,-0.741387,0.012824
54668,NaN,9.455494,-0.827780,-0.443482,-0.752165,2.158534,-0.589732,-0.195775,0.185735,-0.645693,-0.903809,0.424805,0.005615,0.094523,-0.008587,-0.004514,0.999994,-0.000979,0.000929,-0.003228,0.638835,-0.206673,-0.741018,0.008246
54669,NaN,9.230629,-0.868494,-0.999338,-0.217513,1.851563,-0.675860,-0.179860,0.138922,-0.566246,-0.899414,0.418457,-0.000732,0.092274,-0.008955,-0.010050,0.999995,-0.000899,0.000695,-0.002831,0.639186,-0.205151,-0.741163,0.005625
54670,NaN,9.403972,-1.404586,-1.161315,-0.233556,1.291328,-0.324067,-0.163126,0.133614,-0.517110,-0.903564,0.414062,0.003662,0.093995,-0.014298,-0.011664,0.999996,-0.000816,0.000668,-0.002586,0.640186,-0.203391,-0.740804,0.001624
54671,NaN,9.574601,-1.523004,-1.081147,-0.364878,1.204293,-0.139128,-0.131328,0.149096,-0.486094,-0.898926,0.405518,-0.002686,0.095701,-0.015470,-0.010873,0.999997,-0.000657,0.000745,-0.002430,0.640608,-0.202008,-0.740819,-0.000573
54672,NaN,9.854173,-1.564736,-1.106739,-0.372479,1.161477,0.151748,-0.165303,0.139122,-0.505687,-0.916016,0.405518,0.003662,0.098494,-0.015906,-0.011123,0.999996,-0.000827,0.000696,-0.002528,0.641587,-0.200306,-0.740421,-0.004523
54673,NaN,10.575044,-1.329549,-1.372806,-0.124919,1.454681,0.833988,-0.383659,0.167882,-0.621922,-0.911377,0.396973,-0.006836,0.105697,-0.013651,-0.013791,0.999993,-0.001918,0.000839,-0.003110,0.641808,-0.199226,-0.740491,-0.008110
54674,NaN,10.008657,-1.688864,-1.224062,-0.317521,0.897896,0.366520,-0.402502,0.236108,-0.697408,-0.924316,0.390625,0.003906,0.100012,-0.017262,-0.012324,0.999991,-0.002013,0.001181,-0.003487,0.642855,-0.197564,-0.739947,-0.013618
54675,NaN,9.733646,-2.358747,-0.974662,-0.743152,0.194295,0.220604,-0.437797,0.228131,-0.754490,-0.913086,0.382080,-0.004639,0.097235,-0.023976,-0.009805,0.999990,-0.002189,0.001141,-0.003772,0.643210,-0.196158,-0.739920,-0.017892
54676,NaN,9.583933,-2.774107,-0.667710,-1.151813,-0.249275,0.117264,-0.336532,0.213664,-0.757996,-0.921875,0.384277,-0.000244,0.095726,-0.028115,-0.006732,0.999991,-0.001683,0.001068,-0.003790,0.644177,-0.194080,-0.739478,-0.023270
54677,NaN,9.467403,-2.140350,-0.564639,-1.046540,0.259583,-0.149947,-0.195337,0.189035,-0.732824,-0.914795,0.367188,-0.006348,0.094589,-0.021756,-0.005715,0.999992,-0.000977,0.000945,-0.003664,0.644598,-0.191972,-0.739551,-0.026540
54678,NaN,9.663033,-1.373710,-0.526331,-0.854022,0.931950,-0.120422,-0.054698,0.172318,-0.696199,-0.929932,0.369141,-0.002197,0.096577,-0.014075,-0.005343,0.999994,-0.000273,0.000862,-0.003481,0.645652,-0.189233,-0.739183,-0.030547
54679,NaN,9.651953,-0.492674,-0.525068,-0.579179,1.678078,-0.298128,0.042533,0.146382,-0.680250,-0.925293,0.362793,-0.017090,0.096498,-0.005254,-0.005322,0.999994,0.000213,0.000732,-0.003401,0.646127,-0.186554,-0.739355,-0.032729
54680,NaN,9.589920,-0.443593,-0.591053,-0.492335,1.601934,-0.341479,0.068469,0.111924,-0.643424,-0.929688,0.362793,-0.008545,0.095881,-0.004742,-0.005966,0.999995,0.000342,0.000560,-0.003217,0.647053,-0.183611,-0.739129,-0.036032
54681,NaN,9.572714,-0.779346,-0.716512,-0.488445,1.190439,-0.267970,0.056114,0.080840,-0.599279,-0.922607,0.347900,-0.012695,0.095700,-0.008078,-0.007206,0.999995,0.000281,0.000404,-0.002996,0.647295,-0.181195,-0.739423,-0.037842
54682,NaN,9.569339,-0.637370,-0.924220,-0.247515,1.182654,-0.253790,0.076446,0.050075,-0.557695,-0.939697,0.345703,-0.010498,0.095673,-0.006637,-0.009269,0.999996,0.000382,0.000250,-0.002788,0.647977,-0.178570,-0.739308,-0.040776
54683,NaN,9.726896,-0.685020,-0.937510,-0.276507,1.119315,-0.084832,0.127804,0.024604,-0.487108,-0.924316,0.334961,-0.023193,0.097251,-0.007081,-0.009392,0.999997,0.000639,0.000123,-0.002436,0.648083,-0.176345,-0.739686,-0.041908
54684,NaN,9.857162,-0.092396,-0.790477,-0.241334,1.677039,-0.069679,0.189085,0.011467,-0.403320,-0.948242,0.341309,-0.008301,0.098569,-0.001115,-0.007911,0.999998,0.000945,0.000057,-0.002017,0.648725,-0.173929,-0.739581,-0.043869
54685,NaN,9.733553,0.863635,-0.587436,-0.131531,2.575398,-0.369014,0.216586,-0.006530,-0.292468,-0.930664,0.330811,-0.018799,0.097348,0.008500,-0.005862,0.999998,0.001083,-0.000033,-0.001462,0.648827,-0.172141,-0.739901,-0.044015
54686,NaN,9.466614,1.992240,-0.859752,0.505551,3.458632,-0.751384,0.117234,-0.039145,-0.175210,-0.946045,0.337158,-0.012695,0.094685,0.019844,-0.008567,0.999999,0.000586,-0.000196,-0.000876,0.649245,-0.170808,-0.739754,-0.045483
54687,NaN,9.216824,1.715424,-1.441428,0.983060,2.975303,-0.859956,-0.006373,-0.095312,-0.058629,-0.928467,0.328613,-0.018799,0.092180,0.017127,-0.014371,1.000000,-0.000032,-0.000477,-0.000293,0.648877,-0.170628,-0.740111,-0.045620
54688,NaN,9.425168,0.207812,-1.616904,0.657372,1.526864,-0.393139,-0.091231,-0.118848,0.047132,-0.948242,0.339355,-0.012695,0.094261,0.002093,-0.016114,1.000000,-0.000456,-0.000594,0.000236,0.648843,-0.170797,-0.740008,-0.047116
54689,NaN,9.508294,-0.346011,-1.375508,0.239046,1.103749,-0.265752,-0.081071,-0.108821,0.122131,-0.932861,0.332764,-0.016846,0.095092,-0.003408,-0.013702,1.000000,-0.000405,-0.000544,0.000611,0.648402,-0.171532,-0.740236,-0.046932
54690,NaN,9.714750,-0.288387,-1.029239,-0.088074,1.290317,-0.125265,-0.009542,-0.120985,0.197626,-0.948242,0.343506,-0.008545,0.097156,-0.002788,-0.010233,0.999999,-0.000048,-0.000605,0.000988,0.648441,-0.171986,-0.740053,-0.047611
54691,NaN,9.910863,-0.707832,-1.080040,-0.197990,0.948195,0.134892,0.092183,-0.169349,0.297677,-0.928711,0.337158,-0.014648,0.099128,-0.006926,-0.010720,0.999998,0.000461,-0.000847,0.001488,0.647966,-0.172823,-0.740366,-0.046165
54692,NaN,10.264764,-0.335674,-0.685127,-0.484978,1.496847,0.359407,0.173280,-0.192478,0.432800,-0.935547,0.347900,-0.010498,0.102661,-0.003129,-0.006755,0.999997,0.000866,-0.000962,0.002164,0.647938,-0.173585,-0.740264,-0.045316
54693,NaN,10.441193,2.332926,0.477738,-0.759130,4.424467,-0.089690,0.134269,-0.189532,0.624393,-0.929443,0.356445,-0.006348,0.104334,0.023652,0.004892,0.999994,0.000671,-0.000948,0.003122,0.647494,-0.175497,-0.740361,-0.042637
54694,NaN,9.169085,5.184500,-0.881937,1.563944,6.477562,-1.607592,-0.060313,-0.357622,0.813500,-0.934082,0.364990,-0.002197,0.091495,0.052215,-0.008671,0.999990,-0.000302,-0.001788,0.004067,0.646735,-0.178451,-0.740394,-0.041297
54695,NaN,9.089515,2.528330,-1.986162,1.767919,3.738598,-1.103315,-0.397047,-0.479370,1.039611,-0.912842,0.371338,0.001953,0.090810,0.025716,-0.019695,0.999982,-0.001985,-0.002397,0.005198,0.644812,-0.183673,-0.740920,-0.038982
54696,NaN,9.394784,-0.419914,-2.078482,0.872513,1.108329,-0.285480,-0.568054,-0.469213,1.187121,-0.928467,0.386230,0.018799,0.094019,-0.003700,-0.020553,0.999976,-0.002840,-0.002346,0.005936,0.643205,-0.189633,-0.740849,-0.038328
54697,NaN,9.731221,-2.522675,-1.644290,-0.280542,-0.508061,0.357166,-0.527250,-0.473113,1.250370,-0.906982,0.392822,0.014648,0.097506,-0.024660,-0.016147,0.999974,-0.002636,-0.002366,0.006252,0.641179,-0.196040,-0.741064,-0.035816
54698,NaN,10.899164,-2.710722,-0.346989,-1.686719,0.115581,1.295857,-0.423352,-0.425664,1.311957,-0.911865,0.405518,0.031494,0.109173,-0.026398,-0.003181,0.999974,-0.002117,-0.002128,0.006560,0.639837,-0.201987,-0.740703,-0.034199
54699,NaN,10.640572,-0.051545,0.401277,-1.448564,2.868301,0.339064,-0.311116,-0.423052,1.351866,-0.899414,0.418457,0.020752,0.106397,0.000210,0.004238,0.999974,-0.001556,-0.002115,0.006759,0.638173,-0.208049,-0.740617,-0.030605
54700,NaN,8.475510,0.712886,-2.009298,1.285993,2.339151,-1.490838,-0.315115,-0.622438,1.345172,-0.904053,0.424805,0.041992,0.084767,0.007668,-0.019841,0.999971,-0.001576,-0.003112,0.006726,0.636202,-0.213791,-0.740773,-0.028219
54701,NaN,8.273523,-2.977887,-3.272353,1.160811,-1.342869,-0.599916,-0.363861,-0.605608,1.307611,-0.885010,0.437500,0.043945,0.083026,-0.029296,-0.032419,0.999972,-0.001819,-0.003028,0.006538,0.633740,-0.219864,-0.741229,-0.024766
54702,NaN,8.568435,-4.025361,-2.580684,0.091466,-1.880495,-0.182768,-0.340062,-0.504075,1.324553,-0.892334,0.461182,0.060791,0.086013,-0.039728,-0.025522,0.999973,-0.001700,-0.002520,0.006623,0.632093,-0.225588,-0.740983,-0.022628
54703,NaN,9.483639,-2.141836,-1.542882,-0.290737,0.553549,0.011511,-0.292343,-0.459988,1.325088,-0.873047,0.461182,0.058838,0.095011,-0.020812,-0.015180,0.999974,-0.001462,-0.002300,0.006625,0.630197,-0.231460,-0.740889,-0.019011
54704,NaN,10.291516,-0.171445,-0.269946,-0.811809,3.090303,-0.024593,-0.292124,-0.375328,1.370826,-0.877930,0.478271,0.060547,0.102929,-0.001013,-0.002504,0.999974,-0.001461,-0.001877,0.006854,0.629023,-0.237187,-0.740133,-0.016593
54705,NaN,8.470611,1.711189,-0.999427,0.751675,4.045452,-2.148071,-0.333969,-0.467426,1.401532,-0.863037,0.484619,0.062744,0.084607,0.017689,-0.009826,0.999971,-0.001670,-0.002337,0.007008,0.627000,-0.243448,-0.739891,-0.012874
54706,NaN,7.314840,-0.384776,-3.458562,2.346830,1.082857,-2.135736,-0.471394,-0.539743,1.406073,-0.859375,0.501709,0.086182,0.073266,-0.003414,-0.034380,0.999969,-0.002357,-0.002699,0.007030,0.624970,-0.249829,-0.739514,-0.010841
54707,NaN,8.155162,-4.034461,-4.280519,1.604381,-1.971398,-0.084146,-0.648397,-0.474999,1.369981,-0.846680,0.506104,0.081787,0.081927,-0.039922,-0.042481,0.999968,-0.003242,-0.002375,0.006850,0.622462,-0.256931,-0.739227,-0.008372
54708,NaN,9.932516,-5.673152,-2.380107,-0.970757,-1.994331,1.658261,-0.698869,-0.305646,1.321058,-0.855957,0.525391,0.100830,0.099733,-0.056156,-0.023452,0.999971,-0.003494,-0.001528,0.006605,0.620893,-0.263699,-0.738170,-0.007690
54709,NaN,10.411922,-3.483559,-0.581171,-1.790720,0.828495,1.003335,-0.657345,-0.179496,1.253593,-0.832275,0.525146,0.100830,0.104340,-0.034201,-0.005605,0.999975,-0.003287,-0.000897,0.006268,0.619401,-0.270358,-0.737030,-0.005996
54710,NaN,8.894947,-1.218193,-1.906869,0.484490,1.815033,-0.828804,-0.449544,-0.231642,1.259039,-0.833008,0.540283,0.107178,0.089046,-0.011664,-0.018939,0.999977,-0.002248,-0.001158,0.006295,0.618401,-0.276111,-0.735746,-0.004577
54711,NaN,8.909019,-2.135008,-3.786024,1.825278,0.496714,-0.082144,-0.350776,-0.249834,1.280938,-0.818115,0.546631,0.111328,0.089272,-0.020845,-0.037712,0.999977,-0.001754,-0.001249,0.006405,0.617017,-0.281898,-0.734725,-0.001571
54712,NaN,10.367481,-4.401881,-2.872055,-0.039701,-0.389236,1.804333,-0.297735,-0.093966,1.305143,-0.822998,0.561523,0.113281,0.103973,-0.043384,-0.028607,0.999977,-0.001489,-0.000470,0.006526,0.616668,-0.287325,-0.732915,0.000381
54713,NaN,10.086912,-4.505015,-1.190593,-1.545285,0.139064,1.189561,-0.181758,0.029203,1.327853,-0.803711,0.563721,0.106934,0.101164,-0.044390,-0.011880,0.999978,-0.000909,0.000146,0.006639,0.616502,-0.292736,-0.730901,0.003758
54714,NaN,10.201786,-4.068589,-0.664924,-1.787828,0.853435,1.010688,-0.104521,0.055041,1.356688,-0.804199,0.583008,0.117432,0.102289,-0.039996,-0.006656,0.999977,-0.000523,0.000275,0.006783,0.616935,-0.297738,-0.728493,0.006443
54715,NaN,9.383087,-2.232122,-0.842920,-0.737687,2.067667,-0.383253,-0.107154,0.062925,1.421034,-0.785156,0.587402,0.102295,0.093984,-0.021658,-0.008447,0.999975,-0.000536,0.000315,0.007105,0.616948,-0.303230,-0.726168,0.010332
54716,NaN,8.530259,-2.030997,-1.786705,0.307226,1.605365,-1.014412,-0.128886,0.055800,1.487845,-0.781250,0.597900,0.117188,0.085446,-0.019686,-0.017878,0.999972,-0.000644,0.000279,0.007439,0.617313,-0.308753,-0.723476,0.013358
54717,NaN,9.802611,-2.858847,-1.500828,-0.306155,1.753930,0.353172,-0.084522,0.081472,1.527949,-0.772949,0.608643,0.112793,0.098235,-0.027845,-0.015036,0.999971,-0.000423,0.000407,0.007640,0.617362,-0.314528,-0.720851,0.017632
54718,NaN,10.318026,-3.803661,-0.962780,-1.140349,1.560423,1.055552,-0.007146,0.139509,1.570372,-0.762695,0.623779,0.110596,0.103468,-0.037225,-0.009699,0.999969,-0.000036,0.000698,0.007852,0.618156,-0.319941,-0.717684,0.021225
54719,NaN,10.213513,-4.787642,-0.785531,-1.630362,0.948658,1.336005,0.200589,0.255920,1.660509,-0.750244,0.636475,0.108154,0.102518,-0.047018,-0.008034,0.999964,0.001003,0.001280,0.008302,0.619202,-0.325286,-0.714190,0.026657
54720,NaN,9.891049,-5.327359,-1.042787,-1.506605,0.408401,1.361434,0.351923,0.360885,1.708284,-0.750732,0.653564,0.103760,0.099341,-0.052408,-0.010700,0.999960,0.001760,0.001804,0.008541,0.621295,-0.330050,-0.709970,0.031652
54721,NaN,9.123332,-4.947374,-1.698102,-0.633501,0.223960,0.682138,0.199523,0.322267,1.587713,-0.725098,0.655762,0.095215,0.091595,-0.048730,-0.017177,0.999967,0.000998,0.001611,0.007938,0.622502,-0.335097,-0.706294,0.036749
54722,NaN,8.693242,-4.358035,-1.907742,-0.102979,0.489055,0.084436,0.055122,0.185280,1.413920,-0.723389,0.672852,0.099121,0.087220,-0.042959,-0.019170,0.999975,0.000276,0.000926,0.007070,0.623467,-0.339667,-0.703068,0.040123
54723,NaN,8.465339,-4.409648,-2.584207,0.548110,0.195084,0.058752,0.050065,0.092107,1.294269,-0.708496,0.672852,0.099365,0.084924,-0.043541,-0.025892,0.999979,0.000250,0.000461,0.006471,0.623609,-0.344062,-0.700559,0.044165
54724,NaN,8.220158,-4.435520,-3.243505,1.185677,-0.112803,0.002891,0.074755,0.027101,1.168236,-0.711182,0.689941,0.105469,0.082454,-0.043862,-0.032463,0.999983,0.000374,0.000136,0.005841,0.624042,-0.347659,-0.698199,0.047143
54725,NaN,8.204910,-5.348554,-2.859978,0.495953,-0.569089,0.362588,0.156402,-0.031059,1.068503,-0.698242,0.687988,0.096924,0.082338,-0.053024,-0.028629,0.999985,0.000782,-0.000155,0.005342,0.623950,-0.350879,-0.696392,0.051065
54726,NaN,8.041242,-5.865764,-2.340780,-0.151125,-0.777970,0.381383,0.238188,-0.103950,0.972208,-0.692383,0.705078,0.101074,0.080708,-0.058238,-0.023435,0.999987,0.001191,-0.000520,0.004861,0.624199,-0.353232,-0.694735,0.054277
54727,NaN,8.497993,-5.779198,-2.022053,-0.349328,-0.251922,0.652371,0.289723,-0.144409,0.865634,-0.681396,0.700684,0.094727,0.085244,-0.057394,-0.020242,0.999989,0.001449,-0.000722,0.004328,0.623973,-0.355282,-0.693572,0.058228
54728,NaN,9.111864,-5.571699,-1.282984,-0.873696,0.585481,0.892878,0.289752,-0.193329,0.801095,-0.681885,0.715576,0.098877,0.091353,-0.055333,-0.012822,0.999990,0.001449,-0.000967,0.004005,0.624009,-0.356849,-0.692468,0.061306
54729,NaN,9.596154,-5.631944,-0.812576,-1.280442,1.069646,1.218222,0.262689,-0.222800,0.748495,-0.666748,0.713623,0.094727,0.096180,-0.055949,-0.008092,0.999992,0.001313,-0.001114,0.003742,0.623478,-0.358540,-0.691742,0.064936
54730,NaN,9.245165,-5.438256,-0.889968,-1.114100,1.043778,0.841352,0.232523,-0.239792,0.690500,-0.669434,0.730713,0.094482,0.092649,-0.054053,-0.008852,0.999993,0.001163,-0.001199,0.003452,0.623275,-0.359881,-0.690975,0.067581
54731,NaN,8.618830,-5.312356,-0.705959,-1.236949,0.906158,0.219871,0.177719,-0.277295,0.608057,-0.658447,0.722168,0.094482,0.086359,-0.052855,-0.006987,0.999994,0.000889,-0.001386,0.003040,0.622434,-0.361322,-0.690682,0.070575
54732,NaN,7.682863,-6.157904,-0.887935,-1.443046,-0.278036,-0.036459,0.125907,-0.329656,0.510386,-0.663086,0.732910,0.096436,0.077000,-0.061377,-0.008791,0.999995,0.000630,-0.001648,0.002552,0.621789,-0.362334,-0.690535,0.072477
54733,NaN,7.040805,-6.979351,-0.812534,-1.875059,-1.178222,-0.115252,0.089355,-0.404871,0.368047,-0.656738,0.732910,0.094482,0.070553,-0.069660,-0.008014,0.999996,0.000447,-0.002024,0.001840,0.620424,-0.363169,-0.691093,0.074650
54734,NaN,6.882705,-6.939368,-0.665193,-2.007708,-1.167603,-0.295616,0.065139,-0.441916,0.209145,-0.661133,0.739258,0.102783,0.068914,-0.069320,-0.006522,0.999997,0.000326,-0.002210,0.001046,0.619387,-0.363298,-0.691845,0.075660
54735,NaN,6.426250,-6.521698,-1.260101,-1.327097,-1.320056,-0.762091,0.042807,-0.414292,0.047614,-0.654541,0.730713,0.098633,0.064304,-0.065199,-0.012482,0.999998,0.000214,-0.002071,0.000238,0.618019,-0.363162,-0.693025,0.076694
54736,NaN,5.317163,-6.231332,-2.313295,-0.295704,-2.136321,-1.578508,0.010508,-0.364440,-0.128451,-0.656982,0.741455,0.111328,0.053174,-0.062346,-0.023039,0.999998,0.000053,-0.001822,-0.000642,0.617272,-0.362343,-0.694153,0.076383
54737,NaN,4.546282,-6.429510,-3.439795,0.613432,-3.130728,-1.833861,0.023521,-0.306704,-0.331490,-0.652344,0.728516,0.098877,0.045409,-0.064366,-0.034336,0.999997,0.000118,-0.001534,-0.001657,0.616382,-0.360991,-0.695691,0.075984
54738,NaN,4.088824,-6.203255,-4.601893,1.744103,-3.662123,-2.071682,0.129891,-0.283222,-0.569284,-0.671631,0.728516,0.107178,0.040777,-0.062119,-0.046001,0.999995,0.000649,-0.001416,-0.002846,0.616246,-0.358329,-0.697328,0.074655
54739,NaN,4.281439,-5.867962,-5.562087,2.755212,-3.655156,-1.891257,0.351535,-0.313043,-0.813055,-0.664795,0.719971,0.103027,0.042663,-0.058755,-0.055657,0.999989,0.001758,-0.001565,-0.004065,0.616089,-0.354279,-0.699612,0.073922
54740,NaN,5.440533,-6.101886,-5.146402,2.299388,-3.059364,-0.943035,0.645623,-0.325649,-0.989382,-0.684082,0.717773,0.113770,0.054187,-0.061121,-0.051573,0.999981,0.003228,-0.001628,-0.004947,0.616774,-0.348550,-0.701954,0.073240
54741,NaN,7.777063,-5.930312,-3.470290,0.846654,-1.093386,0.472319,0.890033,-0.338212,-1.107032,-0.681641,0.705078,0.098877,0.077500,-0.059578,-0.034836,0.999973,0.004450,-0.001691,-0.005535,0.617534,-0.341775,-0.704582,0.073523
54742,NaN,10.837490,-5.829452,-0.989599,-1.415867,1.407414,2.370332,1.023060,-0.349913,-1.174747,-0.692383,0.707031,0.096680,0.108048,-0.058879,-0.010007,0.999968,0.005115,-0.001750,-0.005874,0.618727,-0.334213,-0.707143,0.073666
54743,NaN,13.511034,-5.815965,1.165771,-3.471133,3.430483,4.112550,1.062073,-0.338897,-1.263358,-0.702637,0.694336,0.083984,0.134719,-0.059073,0.011574,0.999965,0.005310,-0.001694,-0.006317,0.619754,-0.326313,-0.709887,0.074062
54744,NaN,15.302039,-6.207010,1.101600,-3.641321,3.888659,5.856002,1.134703,-0.386010,-1.273688,-0.713135,0.687988,0.090576,0.152600,-0.063105,0.010955,0.999962,0.005673,-0.001930,-0.006368,0.620982,-0.317975,-0.712563,0.074352
54745,NaN,16.727340,-6.648324,0.508804,-3.353247,3.921098,7.439511,1.244378,-0.433996,-1.374898,-0.712646,0.672852,0.073486,0.166800,-0.067662,0.005032,0.999955,0.006222,-0.002170,-0.006874,0.621904,-0.309026,-0.715601,0.075189
54746,NaN,18.999308,-7.699720,0.075896,-3.456350,3.914680,10.011242,1.433572,-0.543405,-1.294009,-0.728027,0.679443,0.066895,0.189488,-0.078230,0.000716,0.999950,0.007168,-0.002717,-0.006470,0.622972,-0.299580,-0.718527,0.076664
54747,NaN,20.467563,-8.344457,-0.298355,-3.432717,3.772796,11.695753,1.570250,-0.264475,-1.513720,-0.733643,0.657959,0.052246,0.204041,-0.084965,-0.003377,0.999940,0.007851,-0.001322,-0.007568,0.624924,-0.289119,-0.720972,0.077968
54748,NaN,21.967643,-9.020606,-0.318225,-3.669923,3.570492,13.378161,1.813070,0.106154,-1.798965,-0.750732,0.656006,0.043701,0.218851,-0.092143,-0.004128,0.999918,0.009065,0.000531,-0.008995,0.628961,-0.276810,-0.722258,0.078280
54749,NaN,22.469484,-8.909785,0.858244,-4.658790,3.672069,13.634648,2.200724,0.617370,-2.120983,-0.764648,0.628174,0.011719,0.223756,-0.091556,0.006892,0.999878,0.011003,0.003087,-0.010604,0.634999,-0.262426,-0.722301,0.078680
54750,NaN,22.785935,-6.237819,1.774608,-4.614735,5.641889,12.728107,2.405116,0.819487,-2.580319,-0.785889,0.619629,-0.007324,0.227096,-0.065511,0.016039,0.999836,0.012025,0.004097,-0.012901,0.642446,-0.245548,-0.721763,0.077637
54751,NaN,26.037538,0.507908,0.832249,-2.084105,12.037512,13.200155,2.152520,0.863604,-3.297843,-0.801758,0.583496,-0.041260,0.260444,0.000703,0.007221,0.999797,0.010762,0.004318,-0.016488,0.649363,-0.227006,-0.722053,0.073721
54752,NaN,23.999664,3.719435,1.926399,-2.273888,13.389359,10.411115,3.184161,1.392724,-3.704313,-0.830811,0.557861,-0.073242,0.240756,0.032445,0.018131,0.999678,0.015919,0.006963,-0.018520,0.659640,-0.203436,-0.720028,0.071059
54753,NaN,19.179460,8.282644,4.469425,-3.836938,15.326196,4.565301,4.513767,0.713321,-3.853890,-0.839844,0.510742,-0.113281,0.193492,0.078083,0.045804,0.999553,0.022565,0.003566,-0.019267,0.667882,-0.174827,-0.719666,0.073826
54754,NaN,20.246391,16.056470,2.027321,-0.910116,21.947042,3.941678,5.504114,0.681594,-4.002028,-0.871094,0.485107,-0.147217,0.205692,0.155845,0.023909,0.999415,0.027515,0.003407,-0.020006,0.676776,-0.141744,-0.718095,0.078882
54755,NaN,22.663739,13.505395,3.938294,-3.915965,19.709652,7.725641,5.562490,1.008369,-3.935469,-0.877930,0.433838,-0.191650,0.229428,0.129415,0.041883,0.999407,0.027807,0.005041,-0.019673,0.685498,-0.109097,-0.714847,0.084760
54756,NaN,30.434669,4.811176,2.596212,-3.455882,12.365104,18.315461,4.495137,0.910364,-3.585696,-0.902344,0.397461,-0.214600,0.305254,0.042066,0.025565,0.999576,0.022473,0.004551,-0.017926,0.692932,-0.080706,-0.711187,0.086858
54757,NaN,31.341392,-6.005404,-6.075710,5.485190,1.206048,22.181870,2.954817,0.742862,-3.046130,-0.902832,0.356934,-0.244141,0.312229,-0.063898,-0.062843,0.999768,0.014773,0.003714,-0.015229,0.697939,-0.059928,-0.708387,0.086477
54758,NaN,30.126545,-26.474489,-9.571501,10.314446,-19.760253,24.873819,1.378145,1.042209,-2.388671,-0.919678,0.344238,-0.261230,0.297570,-0.267639,-0.099110,0.999891,0.006890,0.005211,-0.011943,0.703394,-0.046621,-0.704572,0.081492
54759,NaN,11.111269,-40.723761,-18.087352,19.960751,-37.348535,7.952531,-0.608719,1.559553,-1.736451,-0.916504,0.318359,-0.280029,0.106160,-0.408723,-0.180472,0.999927,-0.003044,0.007798,-0.008682,0.709414,-0.043261,-0.699680,0.072857
54760,NaN,-12.967501,-51.312487,-5.573447,7.850035,-52.377860,-15.006335,1.290080,1.101896,-2.221533,-0.917725,0.290527,-0.296875,-0.135678,-0.511269,-0.058300,0.999902,0.006450,0.005509,-0.011107,0.714412,-0.031041,-0.695654,0.068680
54761,NaN,-10.880980,-31.906555,1.665182,0.043057,-33.103907,-16.391195,1.171908,-0.455618,-1.906870,-0.920898,0.262695,-0.309326,-0.111880,-0.318098,0.014533,0.999935,0.005859,-0.002278,-0.009534,0.713628,-0.020049,-0.697121,0.065996
54762,NaN,-6.824457,-13.358248,5.230471,-4.343918,-14.401541,-14.920726,1.426926,-0.767700,-1.081309,-0.924561,0.241455,-0.306885,-0.069164,-0.133578,0.051087,0.999953,0.007135,-0.003838,-0.005406,0.711454,-0.010976,-0.699414,0.067327
54763,NaN,-2.452840,0.022490,0.645653,-0.665339,-0.310941,-12.240519,2.577884,-0.835066,0.179722,-0.911133,0.228516,-0.315186,-0.024555,0.000120,0.006356,0.999908,0.012889,-0.004175,0.000899,0.708560,-0.002137,-0.701433,0.077006
54764,NaN,-3.287517,1.786192,-2.619028,2.386088,1.679206,-13.326134,2.485243,-0.564343,1.299299,-0.911377,0.230713,-0.317383,-0.032918,0.017973,-0.026060,0.999898,0.012426,-0.002822,0.006496,0.706101,0.002243,-0.702297,0.090527
54765,NaN,1.963524,0.481657,-6.095249,5.960930,1.560421,-8.004078,0.967762,-0.443694,1.890492,-0.898682,0.243408,-0.319580,0.019722,0.005297,-0.060884,0.999941,0.004839,-0.002218,0.009452,0.703647,-0.000763,-0.703395,0.100575
54766,NaN,3.405950,2.848779,-6.612013,6.131628,4.201929,-6.952411,-1.160381,0.133983,2.093967,-0.893066,0.262695,-0.319824,0.033717,0.028458,-0.066308,0.999928,-0.005802,0.000670,0.010470,0.703029,-0.012327,-0.703407,0.104008
54767,NaN,2.141155,2.187643,-3.499113,3.211604,2.906440,-8.124241,-3.424336,0.587553,2.375860,-0.880859,0.286377,-0.317871,0.021051,0.021524,-0.035424,0.999779,-0.017120,0.002938,0.011878,0.703505,-0.033007,-0.702810,0.100242
54768,NaN,2.270010,3.140521,-2.124073,1.886491,3.671097,-8.235254,-4.977559,0.696328,2.536474,-0.871338,0.320557,-0.312012,0.022228,0.031146,-0.022096,0.999604,-0.024885,0.003481,0.012681,0.703549,-0.059767,-0.702179,0.091604
54769,NaN,2.914908,3.321050,-1.967583,1.917852,3.921684,-7.730698,-5.916086,0.775123,2.638285,-0.850830,0.350586,-0.303711,0.028634,0.032987,-0.020766,0.999468,-0.029575,0.003875,0.013189,0.702932,-0.090144,-0.700992,0.079820
54770,NaN,1.864496,2.110271,-0.152486,0.263446,2.501646,-8.538706,-6.192705,0.783912,2.686098,-0.843506,0.380371,-0.284912,0.018352,0.021288,-0.002255,0.999423,-0.030958,0.003919,0.013428,0.701370,-0.121544,-0.699140,0.067158
54771,NaN,0.737758,1.100008,1.412846,-1.277359,1.403280,-9.427600,-5.802775,0.451804,2.811262,-0.818848,0.416748,-0.272461,0.007250,0.011506,0.013783,0.999478,-0.029009,0.002259,0.014054,0.698125,-0.151788,-0.697424,0.056408
54772,NaN,1.209735,0.608365,2.499971,-2.343874,1.331433,-8.910059,-5.005420,0.098579,2.839704,-0.811523,0.446777,-0.247070,0.012016,0.006878,0.024828,0.999586,-0.025024,0.000493,0.014197,0.693562,-0.179068,-0.696084,0.048708
54773,NaN,0.572550,0.786039,2.712255,-2.480903,1.454538,-9.639535,-4.075766,-0.090763,2.717025,-0.790527,0.463867,-0.238770,0.005601,0.008488,0.026956,0.999700,-0.020377,-0.000454,0.013584,0.688739,-0.202564,-0.694745,0.043995
54774,NaN,0.962397,1.758630,1.334640,-0.853410,2.242118,-9.602615,-2.893228,-0.369729,2.517578,-0.791504,0.489502,-0.217773,0.009376,0.017896,0.013106,0.999814,-0.014465,-0.001849,0.012587,0.683868,-0.221088,-0.693979,0.042872
54775,NaN,2.328520,3.207125,1.002661,-0.074310,3.988146,-8.917636,-1.482448,-0.635261,2.326298,-0.770264,0.500244,-0.215576,0.022878,0.032412,0.009860,0.999900,-0.007412,-0.003176,0.011631,0.679469,-0.234055,-0.693823,0.046364
54776,NaN,2.956127,6.726582,3.097392,-1.133566,7.891114,-9.963177,0.105481,-0.453167,2.000554,-0.766846,0.523682,-0.207275,0.028816,0.067540,0.031075,0.999947,0.000527,-0.002266,0.010003,0.677573,-0.240430,-0.692953,0.053880
54777,NaN,0.909786,10.217101,4.295237,-1.534716,10.385280,-13.480353,1.401260,-0.266165,1.690361,-0.753906,0.521484,-0.218018,0.008178,0.101938,0.043678,0.999939,0.007006,-0.001331,0.008452,0.677850,-0.241438,-0.691399,0.064761
54778,NaN,-1.559852,8.875578,3.466158,-1.327430,7.892018,-15.213860,2.072527,-0.254417,1.252685,-0.751953,0.532227,-0.226562,-0.016197,0.088290,0.035558,0.999926,0.010362,-0.001272,0.006263,0.679133,-0.238491,-0.690002,0.076146
54779,NaN,-1.638376,5.797847,3.319922,-2.043315,5.054608,-14.007366,1.874484,-0.230379,0.842172,-0.743408,0.530273,-0.241699,-0.016665,0.057594,0.033721,0.999947,0.009372,-0.001152,0.004211,0.680228,-0.234915,-0.689025,0.085726
54780,NaN,-0.502484,4.805097,3.726576,-2.693680,4.721894,-12.583295,1.053486,-0.055488,0.200510,-0.745850,0.536621,-0.230957,-0.005083,0.047849,0.037517,0.999986,0.005267,-0.000277,0.001003,0.681349,-0.231796,-0.688473,0.089659
54781,NaN,0.403459,3.305415,2.698118,-1.979744,3.596100,-11.044370,0.118753,0.098824,-0.415526,-0.747559,0.530273,-0.235107,0.004117,0.033030,0.026999,0.999998,0.000594,0.000494,-0.002078,0.682023,-0.229989,-0.688559,0.088520
54782,NaN,-0.249177,2.116013,2.312256,-1.852311,2.207651,-11.070164,-0.525855,0.295274,-1.082033,-0.762939,0.534424,-0.230957,-0.002343,0.021234,0.023070,0.999981,-0.002629,0.001476,-0.005410,0.683113,-0.227959,-0.688941,0.082165
54783,NaN,-0.419265,2.035195,1.330997,-0.896081,1.894619,-11.115249,-0.943315,0.253048,-1.448454,-0.760498,0.525879,-0.220215,-0.004028,0.020444,0.013219,0.999962,-0.004717,0.001265,-0.007242,0.683490,-0.226271,-0.690085,0.073659
54784,NaN,-0.491989,1.690689,-0.866405,1.195121,1.119894,-10.893695,-1.084585,0.162105,-1.679202,-0.775391,0.523682,-0.211670,-0.004785,0.016900,-0.008752,0.999950,-0.005423,0.000811,-0.008396,0.683636,-0.223999,-0.691695,0.063440
54785,NaN,-0.075577,0.597256,-3.992434,4.018741,-0.383427,-9.880299,-0.824342,0.164091,-1.936477,-0.777100,0.508789,-0.205078,-0.000732,0.005815,-0.039948,0.999944,-0.004122,0.000820,-0.009682,0.683868,-0.220142,-0.693521,0.053765
54786,NaN,1.483504,-1.998743,-7.073753,6.462100,-2.858830,-7.302356,0.202107,0.284247,-2.010502,-0.794189,0.502441,-0.205078,0.014533,-0.020063,-0.070779,0.999948,0.001011,0.001421,-0.010052,0.685774,-0.212302,-0.694592,0.046716
54787,NaN,1.474357,-2.679131,-2.837335,2.204522,-2.547940,-7.353082,1.249698,0.253357,-1.744813,-0.797852,0.485107,-0.215576,0.014474,-0.026740,-0.028559,0.999942,0.006248,0.001267,-0.008724,0.688360,-0.201987,-0.695238,0.044783
54788,NaN,-1.538639,5.504928,0.288741,0.851198,4.603549,-13.104608,1.240166,0.101126,-1.571174,-0.814941,0.483154,-0.215576,-0.014952,0.055149,0.003237,0.999950,0.006201,0.000506,-0.007856,0.690410,-0.192033,-0.696134,0.043066
54789,NaN,-0.416538,1.152977,-0.093744,0.309213,0.916824,-10.571235,2.086731,0.032670,-1.380298,-0.814209,0.466064,-0.221680,-0.004086,0.011567,-0.000816,0.999922,0.010433,0.000163,-0.006901,0.692782,-0.180000,-0.696837,0.045511
54790,NaN,0.351166,-0.418859,3.035145,-3.051783,0.254355,-9.448764,1.971725,0.055396,-1.234342,-0.831543,0.463867,-0.215332,0.003493,-0.004509,0.030307,0.999932,0.009858,0.000277,-0.006172,0.695107,-0.168609,-0.697239,0.047493
54791,NaN,0.959138,-1.323884,3.418223,-3.564302,-0.416801,-8.596791,1.887660,-0.202687,-0.712697,-0.824707,0.453125,-0.219482,0.009509,-0.013595,0.034065,0.999949,0.009438,-0.001013,-0.003563,0.696137,-0.159490,-0.698054,0.051746
54792,NaN,0.869366,-1.390003,2.363725,-2.521805,-0.724645,-8.633577,1.621559,-0.331374,-0.373771,-0.842285,0.466064,-0.213379,0.008628,-0.014107,0.023538,0.999964,0.008108,-0.001657,-0.001869,0.696494,-0.152201,-0.699012,0.055802
54793,NaN,1.254325,-0.376690,1.175265,-1.194895,0.158399,-8.530659,0.872893,-0.190901,-0.207476,-0.831543,0.466064,-0.211182,0.012528,-0.003831,0.011748,0.999989,0.004364,-0.000955,-0.001037,0.696554,-0.148364,-0.699577,0.058256
54794,NaN,0.756916,-1.171419,0.627014,-0.759186,-0.815729,-8.765542,-0.016636,0.070668,-0.032277,-0.844971,0.478760,-0.202881,0.007569,-0.011715,0.006268,1.000000,-0.000083,0.000353,-0.000161,0.696962,-0.148090,-0.699293,0.057469
54795,NaN,1.538832,-1.692925,0.152135,-0.348363,-1.143464,-7.856092,-1.054672,0.325506,0.122605,-0.836670,0.485352,-0.194336,0.015401,-0.016912,0.001586,0.999985,-0.005273,0.001628,0.000613,0.697286,-0.152267,-0.698353,0.053948
54796,NaN,7.772480,-43.826143,3.387360,-9.586151,-38.654481,10.348783,-1.750587,0.628374,1.163267,-0.841797,0.513184,-0.179688,0.080385,-0.437482,0.037455,0.999940,-0.008753,0.003142,0.005816,0.697963,-0.162363,-0.695628,0.050862
54797,NaN,-14.365451,-104.344406,10.463927,-28.749954,-100.168183,8.664473,-3.441710,2.081935,2.615279,-0.810547,0.540771,-0.171387,-0.128788,-1.043170,0.123986,0.999712,-0.017207,0.010409,0.013075,0.701557,-0.183932,-0.686909,0.046294
54798,NaN,10.842263,-107.836704,16.532577,-38.297057,-91.321649,37.181529,-5.308428,1.548839,4.466503,-0.807617,0.579346,-0.137695,0.133817,-1.070691,0.192845,0.999368,-0.026537,0.007743,0.022328,0.700650,-0.218423,-0.677914,0.042588
54799,NaN,58.939442,61.692970,-13.005379,31.677607,72.878139,23.860763,-2.176187,-2.008497,-2.190143,-0.805176,0.570801,-0.135498,0.597403,0.608997,-0.130736,0.999830,-0.010880,-0.010042,-0.010950,0.691826,-0.218140,-0.687684,0.029706
54800,NaN,17.576473,62.189552,-13.528673,29.821148,58.697050,-14.782866,1.077870,0.620133,1.694494,-0.808105,0.590088,-0.131348,0.170070,0.624071,-0.132460,0.999945,0.005389,0.003101,0.008472,0.694954,-0.220691,-0.683234,0.039058
54801,NaN,6.472680,36.247223,12.636555,-2.222516,38.075526,-17.595877,-3.658890,-2.148688,1.041368,-0.797852,0.598389,-0.082275,0.061516,0.365037,0.120375,0.999761,-0.018293,-0.010743,0.005206,0.683220,-0.236471,-0.690097,0.032520
54802,NaN,26.997006,17.384760,-2.644174,8.858712,24.761156,8.800227,-5.353239,-2.450337,2.066010,-0.799072,0.628418,-0.024658,0.268495,0.175894,-0.027836,0.999513,-0.026762,-0.012250,0.010328,0.667923,-0.261379,-0.696412,0.023867
54803,NaN,23.652555,-9.714443,-32.220813,27.622456,-9.350124,19.196601,-2.081970,-0.246776,0.583721,-0.790039,0.617676,-0.018066,0.237211,-0.099798,-0.320886,0.999941,-0.010410,-0.001234,0.002919,0.664246,-0.270301,-0.696677,0.018869
54804,NaN,13.097603,-6.830613,-18.486336,15.153594,-6.957762,6.976737,-2.082603,0.674441,-0.763857,-0.803223,0.626221,0.000977,0.130086,-0.070727,-0.184575,0.999933,-0.010413,0.003372,-0.003819,0.663815,-0.274510,-0.695651,0.007994
54805,NaN,33.920397,-7.820368,-9.466328,6.786374,3.519965,25.442026,0.957707,-1.586492,0.259519,-0.788086,0.624023,0.007568,0.340043,-0.077317,-0.092340,0.999956,0.004788,-0.007932,0.001298,0.659583,-0.272140,-0.700488,0.014344
54806,NaN,116.893006,-8.466474,42.826500,-40.316145,55.341173,94.499354,0.182795,0.067249,2.582191,-0.778564,0.654053,0.015625,1.170040,-0.069954,0.427803,0.999916,0.000914,0.000336,0.012911,0.659723,-0.280454,-0.696828,0.023293
54807,NaN,33.281486,26.370887,7.822413,3.182418,39.068174,8.290940,-0.124353,-0.543516,2.198068,-0.757324,0.662598,0.011475,0.329676,0.267393,0.078957,0.999936,-0.000622,-0.002718,0.010990,0.657368,-0.288423,-0.695505,0.030852
54808,NaN,-3.849609,-4.356615,-7.233978,4.967698,-7.819395,-10.362045,-1.852347,0.122638,3.097073,-0.743164,0.686035,0.028320,-0.037853,-0.044823,-0.071905,0.999837,-0.009261,0.000613,0.015485,0.654758,-0.304956,-0.690758,0.033851
54809,NaN,-8.307950,-23.551674,-14.972792,4.365969,-28.272117,-4.382777,-1.447774,0.781099,1.611113,-0.728027,0.686035,0.028320,-0.081752,-0.237253,-0.147694,0.999934,-0.007239,0.003905,0.008055,0.654945,-0.315354,-0.685942,0.032912
54810,NaN,-6.187197,-13.139262,-2.665881,-3.094959,-14.403456,-8.818850,-0.885031,0.334520,0.697297,-0.728271,0.694580,0.032471,-0.061457,-0.131723,-0.025973,0.999983,-0.004425,0.001673,0.003486,0.654682,-0.320489,-0.683886,0.031281
54811,NaN,0.542071,-4.576365,-0.810950,-1.040611,-3.668783,-7.101279,0.094727,-0.503604,0.252745,-0.724121,0.696777,0.030273,0.005499,-0.045753,-0.008117,0.999996,0.000474,-0.002518,0.001264,0.653081,-0.320945,-0.685110,0.033218
54812,NaN,11.441273,-7.100322,5.090441,-6.796387,1.809302,2.747783,0.082688,0.011575,0.155633,-0.732910,0.703125,0.034424,0.114471,-0.070935,0.050868,1.000000,0.000413,0.000058,0.000778,0.653321,-0.321065,-0.684800,0.033735
54813,NaN,6.513900,-7.289762,-0.416894,-2.113985,-2.772365,-0.669910,0.179316,-0.265421,0.015895,-0.719482,0.690186,0.034668,0.065150,-0.072889,-0.004148,0.999999,0.000897,-0.001327,0.000079,0.652708,-0.320471,-0.685609,0.034806
54814,NaN,8.456857,-5.967124,-2.431147,0.356355,-1.532835,0.702010,0.165084,-0.316642,-0.134523,-0.732910,0.698730,0.034424,0.084567,-0.059708,-0.024227,0.999998,0.000825,-0.001583,-0.000673,0.652034,-0.319291,-0.686779,0.035198
54815,NaN,8.605440,-5.487035,-1.969190,0.110640,-0.921840,0.539933,0.101279,-0.161824,-0.307710,-0.728027,0.687988,0.032471,0.085986,-0.054993,-0.019650,0.999998,0.000506,-0.000809,-0.001539,0.651705,-0.317857,-0.687777,0.034780
54816,NaN,9.557420,-5.796555,-1.407476,-0.502023,-0.538012,1.429360,0.150024,-0.270356,-0.438749,-0.734863,0.694580,0.041016,0.095466,-0.058165,-0.013989,0.999996,0.000750,-0.001352,-0.002194,0.651201,-0.315697,-0.689284,0.034074
54817,NaN,10.178399,-4.304448,-1.494541,0.157768,0.881538,1.303045,0.107874,-0.206381,-0.461134,-0.729980,0.679443,0.034912,0.101700,-0.043271,-0.014864,0.999997,0.000539,-0.001032,-0.002306,0.650748,-0.313701,-0.690661,0.033249
54818,NaN,10.170662,-4.282433,-1.209364,-0.127516,0.953544,1.247079,0.114040,-0.178464,-0.470152,-0.740967,0.683838,0.039062,0.101616,-0.043056,-0.012027,0.999997,0.000570,-0.000892,-0.002351,0.650497,-0.311564,-0.691915,0.032177
54819,NaN,9.835233,-5.300155,-0.978839,-0.776468,0.012193,1.375621,0.157525,-0.109755,-0.536955,-0.746826,0.673096,0.030518,0.098215,-0.053258,-0.009776,0.999996,0.000788,-0.000549,-0.002685,0.650459,-0.309156,-0.693078,0.031126
54820,NaN,8.678539,-5.127884,-1.685358,-0.118003,-0.706524,0.382374,0.255316,-0.018928,-0.625926,-0.751465,0.677490,0.039062,0.086626,-0.051529,-0.016911,0.999994,0.001277,-0.000095,-0.003130,0.650992,-0.306041,-0.694018,0.029791
54821,NaN,8.051645,-4.644690,-2.036190,0.361915,-0.795332,-0.337231,0.306196,0.043408,-0.773246,-0.750732,0.660156,0.030762,0.080332,-0.046726,-0.020451,0.999991,0.001531,0.000217,-0.003866,0.651733,-0.302346,-0.695006,0.028248
54822,NaN,7.829246,-4.827278,-1.482674,-0.231232,-0.928904,-0.545479,0.270006,0.127432,-0.879045,-0.763916,0.668945,0.028320,0.078070,-0.048596,-0.014942,0.999989,0.001350,0.000637,-0.004395,0.652802,-0.298321,-0.695831,0.025929
54823,NaN,7.991268,-4.862190,-0.924030,-0.764800,-0.774759,-0.476244,0.182314,0.127890,-0.989349,-0.763428,0.653809,0.022217,0.079665,-0.049008,-0.009336,0.999987,0.000912,0.000639,-0.004947,0.653652,-0.294277,-0.696854,0.023121
54824,NaN,8.846154,-4.633009,-0.379441,-1.174637,-0.119976,0.110420,0.147675,0.097169,-1.068698,-0.776123,0.649658,0.024414,0.088210,-0.046799,-0.003872,0.999985,0.000738,0.000486,-0.005343,0.654419,-0.289981,-0.698036,0.019812
54825,NaN,9.413511,-4.695606,-0.404492,-1.185449,-0.048687,0.647601,0.182302,0.089196,-1.145318,-0.775635,0.634521,0.020264,0.093862,-0.047490,-0.004130,0.999983,0.000912,0.000446,-0.005727,0.655110,-0.285371,-0.699372,0.016550
54826,NaN,9.533212,-4.600679,-0.681117,-0.917022,-0.142151,0.753759,0.182121,0.090363,-1.212182,-0.788330,0.625977,0.022461,0.095048,-0.046577,-0.006896,0.999981,0.000911,0.000452,-0.006061,0.655876,-0.280447,-0.700721,0.012904
54827,NaN,8.981391,-3.987242,-0.983709,-0.444125,-0.080935,0.052711,0.213349,0.074283,-1.264756,-0.790039,0.615479,0.016113,0.089556,-0.040429,-0.009913,0.999979,0.001067,0.000371,-0.006324,0.656515,-0.275295,-0.702219,0.009378
54828,NaN,8.882317,-3.816137,-1.155189,-0.249544,-0.159212,-0.081088,0.283626,0.049886,-1.294346,-0.807129,0.613281,0.013916,0.088571,-0.038719,-0.011629,0.999978,0.001418,0.000249,-0.006472,0.657229,-0.269730,-0.703748,0.005878
54829,NaN,9.107518,-3.318082,-1.303375,0.047307,0.183333,-0.034227,0.336570,0.034869,-1.269672,-0.806641,0.598389,0.007812,0.090860,-0.033736,-0.013106,0.999978,0.001683,0.000174,-0.006348,0.657841,-0.264131,-0.705317,0.002821
54830,NaN,9.124869,-3.116613,-1.381322,0.167173,0.217943,-0.075748,0.351026,0.017258,-1.242252,-0.817139,0.591797,0.007812,0.091052,-0.031708,-0.013876,0.999979,0.001755,0.000086,-0.006211,0.658467,-0.258507,-0.706821,-0.000224
54831,NaN,8.696294,-3.083286,-1.339754,0.119166,-0.003972,-0.490027,0.453614,0.089755,-1.161841,-0.825439,0.581299,0.001465,0.086776,-0.031307,-0.013507,0.999980,0.002268,0.000449,-0.005809,0.659368,-0.252881,-0.708010,-0.002583
54832,NaN,8.791664,-2.987978,-1.814719,0.581691,-0.154073,-0.370677,0.407051,0.071704,-1.175355,-0.829590,0.574707,0.003662,0.087733,-0.030359,-0.018240,0.999981,0.002035,0.000359,-0.005877,0.660201,-0.247289,-0.709193,-0.005280
54833,NaN,8.418072,-2.640546,-1.682886,0.570740,-0.034194,-0.849383,0.374981,0.135721,-1.142829,-0.831055,0.555420,-0.006592,0.084017,-0.026854,-0.016936,0.999982,0.001875,0.000679,-0.005714,0.661116,-0.241969,-0.710151,-0.007912
54834,NaN,8.171534,-2.636107,-2.128033,0.980713,-0.360222,-1.028656,0.270149,0.183081,-1.147666,-0.845947,0.555664,-0.010986,0.081543,-0.026800,-0.021391,0.999982,0.001351,0.000915,-0.005738,0.662119,-0.236905,-0.710880,-0.011135
54835,NaN,8.034692,-2.929549,-2.286113,1.018304,-0.815117,-1.056966,0.202233,0.230619,-1.156954,-0.852051,0.540527,-0.010986,0.080149,-0.029736,-0.022984,0.999982,0.001011,0.001153,-0.005785,0.663114,-0.232085,-0.711481,-0.014541
54836,NaN,8.287520,-2.522490,-1.865923,0.755884,-0.339261,-0.989974,0.126477,0.254232,-1.157170,-0.856201,0.540527,-0.010986,0.082704,-0.025692,-0.018781,0.999982,0.000632,0.001271,-0.005786,0.664141,-0.227442,-0.711933,-0.018381
54837,NaN,8.770692,-2.114034,-1.680107,0.707980,0.127760,-0.664002,0.111255,0.278116,-1.149023,-0.855469,0.521240,-0.025635,0.087560,-0.021634,-0.016935,0.999982,0.000556,0.001391,-0.005745,0.665152,-0.222931,-0.712309,-0.022138
54839,NaN,9.584606,-2.305419,-1.024490,0.007946,0.470013,10.003431,0.123513,0.301702,-1.113758,-0.867676,0.501953,-0.031738,0.191100,-0.048213,-0.021126,0.999933,0.001235,0.003017,-0.011137,0.667346,-0.214010,-0.712727,-0.029491
54840,NaN,9.791768,-1.967796,-0.976694,0.063061,0.441735,0.212517,0.135015,0.300465,-1.078864,-0.880615,0.502197,-0.029785,0.097795,-0.020199,-0.009927,0.999984,0.000675,0.001502,-0.005394,0.668403,-0.209645,-0.712882,-0.032952
54841,NaN,9.874568,-2.049174,-0.705465,-0.227392,0.363580,0.287758,0.105510,0.262194,-1.055073,-0.875732,0.484863,-0.031494,0.098626,-0.021008,-0.007195,0.999985,0.000528,0.001311,-0.005275,0.669322,-0.205399,-0.713081,-0.036525
54842,NaN,9.831709,-1.899916,-0.469452,-0.407372,0.459090,0.193057,0.076895,0.223309,-1.024525,-0.895020,0.482910,-0.033691,0.098213,-0.019501,-0.004812,0.999986,0.000384,0.001117,-0.005123,0.670012,-0.201423,-0.713385,-0.039929
54843,NaN,9.609062,-1.842436,-0.259966,-0.592703,0.423207,-0.052309,0.082196,0.176402,-1.004592,-0.887939,0.467773,-0.042236,0.095994,-0.018906,-0.002692,0.999987,0.000411,0.000882,-0.005023,0.670573,-0.197440,-0.713773,-0.043328
54844,NaN,9.412730,-1.716013,-0.293517,-0.529713,0.388715,-0.262927,0.088955,0.131535,-0.963568,-0.900879,0.467773,-0.033691,0.094041,-0.017612,-0.003005,0.999988,0.000445,0.000658,-0.004818,0.670924,-0.193650,-0.714288,-0.046392
54845,NaN,9.250131,-1.431240,-0.612377,-0.146642,0.421775,-0.443142,0.083081,0.087781,-0.904500,-0.894043,0.455078,-0.039795,0.092433,-0.014728,-0.006170,0.999990,0.000415,0.000439,-0.004522,0.671161,-0.190034,-0.714838,-0.049364
54846,NaN,9.329883,-1.256634,-0.992116,0.248470,0.395583,-0.357985,0.083106,0.064847,-0.841507,-0.904541,0.450684,-0.041992,0.093242,-0.012955,-0.009957,0.999991,0.000416,0.000324,-0.004208,0.671270,-0.186707,-0.715428,-0.051973
54847,NaN,9.546624,-0.732230,-1.181762,0.578816,0.783869,-0.214730,0.013346,0.061281,-0.785575,-0.902100,0.437988,-0.048096,0.095433,-0.007696,-0.011847,0.999992,0.000067,0.000306,-0.003928,0.671350,-0.183748,-0.715910,-0.054769
54848,NaN,9.740058,-0.386957,-1.262744,0.746740,1.043298,-0.067613,-0.053810,0.064217,-0.715171,-0.910889,0.442139,-0.041748,0.097382,-0.004221,-0.012658,0.999994,-0.000269,0.000321,-0.003576,0.671341,-0.181327,-0.716325,-0.057443
54849,NaN,9.884108,-0.648376,-1.252109,0.628108,0.761651,0.122542,-0.105126,0.075133,-0.635354,-0.903809,0.427246,-0.043701,0.098815,-0.006804,-0.012555,0.999995,-0.000526,0.000376,-0.003177,0.671381,-0.179289,-0.716576,-0.060173
54850,NaN,9.936450,-1.050660,-1.048347,0.286461,0.405071,0.221731,-0.057671,0.093101,-0.534731,-0.921143,0.427246,-0.037354,0.099331,-0.010775,-0.010527,0.999996,-0.000288,0.000466,-0.002674,0.671511,-0.177515,-0.716717,-0.062280
54851,NaN,9.842884,-1.127349,-0.800606,0.023038,0.347012,0.120749,0.036894,0.073938,-0.432113,-0.912109,0.418701,-0.045898,0.098401,-0.011485,-0.008045,0.999998,0.000184,0.000370,-0.002161,0.671721,-0.175723,-0.716826,-0.063818
54852,NaN,9.666890,-0.723800,-0.460755,-0.160353,0.768329,-0.139589,0.118865,0.029621,-0.300777,-0.920898,0.420654,-0.048096,0.096657,-0.007381,-0.004626,0.999999,0.000594,0.000148,-0.001504,0.671846,-0.174212,-0.717021,-0.064450
54853,NaN,9.650385,0.106131,-0.271919,-0.064247,1.576185,-0.287635,0.175931,-0.025598,-0.151027,-0.909912,0.414307,-0.047852,0.096505,0.000991,-0.002706,0.999999,0.000880,-0.000128,-0.000755,0.671907,-0.172990,-0.717259,-0.064460
54854,NaN,9.764724,0.327725,-0.433536,0.150948,1.744170,-0.190823,0.183448,-0.075674,0.013496,-0.923096,0.422852,-0.045898,0.097649,0.003288,-0.004295,1.000000,0.000917,-0.000378,0.000067,0.671809,-0.172422,-0.717554,-0.063713
54855,NaN,9.995581,0.465287,-0.298949,0.056525,1.962391,0.003793,0.163479,-0.101594,0.188652,-0.907959,0.420654,-0.043701,0.099953,0.004750,-0.002935,0.999999,0.000817,-0.000508,0.000943,0.671695,-0.172477,-0.717748,-0.062570
54856,NaN,10.072817,0.982436,-0.315061,0.237760,2.481893,0.001060,0.137888,-0.134374,0.368997,-0.921143,0.427246,-0.041748,0.100712,0.010012,-0.003076,0.999998,0.000689,-0.000672,0.001845,0.671457,-0.173356,-0.717916,-0.060742
54857,NaN,10.172068,1.015730,-0.789244,0.692361,2.420972,0.126369,0.040580,-0.178077,0.530051,-0.907959,0.425049,-0.045898,0.101700,0.010428,-0.007800,0.999996,0.000203,-0.000890,0.002650,0.671064,-0.175059,-0.718028,-0.058842
54858,NaN,10.226303,0.282384,-0.914269,0.569584,1.769499,0.288645,-0.085269,-0.174681,0.688771,-0.917236,0.442139,-0.037598,0.102260,0.003172,-0.009055,0.999994,-0.000426,-0.000873,0.003444,0.670572,-0.177844,-0.717975,-0.056706
54859,NaN,9.967321,-0.301428,-0.651535,0.147220,1.336987,0.089485,-0.123276,-0.176750,0.854981,-0.900146,0.446533,-0.041748,0.099691,-0.002592,-0.006426,0.999990,-0.000616,-0.000884,0.004275,0.670117,-0.181246,-0.717735,-0.054316
54860,NaN,9.878022,-0.734763,-0.408845,-0.211270,1.087419,0.038931,-0.092129,-0.220469,0.995969,-0.902588,0.455078,-0.033447,0.098820,-0.006857,-0.003976,0.999987,-0.000461,-0.001102,0.004980,0.669515,-0.185162,-0.717530,-0.051132
54861,NaN,10.251504,-0.428493,-0.134903,-0.366858,1.635466,0.310783,-0.054245,-0.247770,1.119468,-0.885742,0.465576,-0.029297,0.102538,-0.003711,-0.001221,0.999984,-0.000271,-0.001239,0.005597,0.668907,-0.189288,-0.717268,-0.047545
54862,NaN,10.515365,0.241531,-0.227793,-0.047426,2.400627,0.430183,-0.129713,-0.262388,1.241230,-0.899414,0.484863,-0.027344,0.105139,0.003066,-0.002142,0.999980,-0.000649,-0.001312,0.006206,0.668137,-0.194207,-0.716919,-0.043632
54863,NaN,9.881771,0.229710,-1.050443,0.761758,2.105920,-0.128212,-0.348551,-0.263515,1.302385,-0.880127,0.482666,-0.020752,0.098814,0.002922,-0.010379,0.999976,-0.001743,-0.001318,0.006512,0.667185,-0.199952,-0.716411,-0.040481
54864,NaN,8.936862,-1.948603,-2.349466,1.281233,-0.414680,-0.465499,-0.551437,-0.232714,1.327864,-0.884766,0.495605,-0.014648,0.089523,-0.018956,-0.023338,0.999973,-0.002757,-0.001164,0.006639,0.666063,-0.206566,-0.715724,-0.037817
54865,NaN,8.410535,-4.178966,-2.693340,0.845682,-2.583704,-0.428490,-0.517831,-0.210078,1.237388,-0.867920,0.508545,-0.010498,0.084390,-0.041338,-0.026737,0.999977,-0.002589,-0.001050,0.006187,0.665055,-0.212607,-0.715009,-0.035539
54866,NaN,8.604898,-5.053816,-1.666887,-0.429902,-2.873417,-0.121388,-0.294768,-0.215560,1.176867,-0.875000,0.523438,-0.006348,0.086362,-0.050055,-0.016502,0.999981,-0.001474,-0.001078,0.005884,0.664180,-0.217804,-0.714403,-0.032473
54867,NaN,9.733249,-4.369742,-0.263885,-1.519116,-1.367401,0.662121,-0.035683,-0.291760,1.140407,-0.855957,0.529785,-0.015137,0.097583,-0.043142,-0.002489,0.999983,-0.000178,-0.001459,0.005702,0.663326,-0.221910,-0.714095,-0.028677
54868,NaN,10.599758,-2.670009,0.849433,-1.963657,0.899602,0.936213,0.212290,-0.342645,1.115730,-0.860596,0.542725,-0.000244,0.106130,-0.026117,0.008648,0.999982,0.001061,-0.001713,0.005579,0.662499,-0.225210,-0.714007,-0.023861
54869,NaN,9.540486,-1.167084,-0.236501,-0.383252,1.691678,-0.355986,0.355650,-0.341290,1.108758,-0.843262,0.540527,-0.010742,0.095471,-0.011138,-0.002222,0.999982,0.001778,-0.001706,0.005544,0.661867,-0.227906,-0.713892,-0.018711
54870,NaN,7.555176,-1.795048,-2.299315,1.382286,-0.043553,-1.832942,0.161264,-0.241558,1.164177,-0.846191,0.559814,-0.004639,0.075682,-0.017492,-0.022916,0.999982,0.000806,-0.001208,0.005821,0.661298,-0.231522,-0.713362,-0.014031
54871,NaN,6.235216,-3.207597,-4.090004,2.600451,-2.214897,-2.448856,-0.197375,-0.263845,1.190288,-0.831299,0.563965,-0.000488,0.062596,-0.031744,-0.040786,0.999981,-0.000987,-0.001319,0.005951,0.660265,-0.236309,-0.712808,-0.010673
54872,NaN,7.003784,-3.539809,-3.668180,2.071980,-2.039216,-1.652628,-0.363574,-0.315832,1.152718,-0.836182,0.581299,0.012207,0.070298,-0.035060,-0.036507,0.999980,-0.001818,-0.001579,0.005764,0.658771,-0.241606,-0.712451,-0.007815
54873,NaN,9.202728,-3.230491,-0.963690,-0.388042,-0.048444,-0.019774,-0.533626,-0.237772,1.026319,-0.821045,0.581055,0.012207,0.092203,-0.031857,-0.009442,0.999983,-0.002668,-0.001189,0.005132,0.657355,-0.246906,-0.711958,-0.006206
54874,NaN,10.901287,-2.810505,0.574978,-1.695703,1.527766,1.226194,-0.644986,-0.176300,0.993934,-0.821533,0.593994,0.020508,0.109146,-0.027544,0.005935,0.999982,-0.003225,-0.000881,0.004970,0.655963,-0.252540,-0.711274,-0.005043
54875,NaN,11.015497,-2.262784,-0.001987,-0.953369,1.964652,1.218696,-0.560413,-0.215241,1.008202,-0.808838,0.600342,0.020508,0.110267,-0.022072,0.000161,0.999983,-0.002802,-0.001076,0.005041,0.654560,-0.257847,-0.710671,-0.003618
54876,NaN,9.826188,-1.957902,-1.960673,0.994729,1.238039,0.272372,-0.502167,-0.276289,1.079051,-0.809570,0.617432,0.031006,0.098393,-0.019097,-0.019423,0.999981,-0.002511,-0.001381,0.005395,0.652952,-0.263301,-0.710158,-0.001540
54877,NaN,9.259559,-3.301140,-2.609203,1.091893,-0.250058,0.296175,-0.600586,-0.286009,1.152118,-0.790039,0.613281,0.037598,0.092821,-0.032555,-0.025861,0.999978,-0.003003,-0.001430,0.005761,0.651201,-0.269225,-0.709546,0.000298
54878,NaN,9.656837,-3.357573,-1.596179,0.125739,0.323549,0.529164,-0.627574,-0.251833,1.169220,-0.792969,0.632568,0.043701,0.096783,-0.033060,-0.015736,0.999977,-0.003138,-0.001259,0.005846,0.649460,-0.275386,-0.708773,0.002192
54879,NaN,10.196687,-3.926097,-0.874697,-0.761667,0.427924,1.113757,-0.581508,-0.189148,1.123682,-0.777588,0.625977,0.043945,0.102194,-0.038712,-0.008537,0.999980,-0.002908,-0.000946,0.005618,0.648021,-0.281125,-0.707829,0.003876
54880,NaN,9.538701,-3.861557,-0.887264,-0.717998,0.332065,0.485797,-0.512376,-0.167354,1.098317,-0.780762,0.651611,0.056396,0.095605,-0.038113,-0.008695,0.999981,-0.002562,-0.000837,0.005492,0.646689,-0.286639,-0.706822,0.005831
54881,NaN,9.060964,-3.449555,-1.930549,0.410301,0.207206,0.062296,-0.444663,-0.178503,1.116294,-0.765625,0.649414,0.054443,0.090818,-0.034032,-0.019148,0.999982,-0.002223,-0.000893,0.005581,0.645441,-0.291891,-0.705792,0.007962
54882,NaN,7.577214,-3.961024,-3.041300,1.221655,-1.154150,-0.894826,-0.378177,-0.177576,1.047820,-0.770508,0.664551,0.071289,0.076005,-0.039270,-0.030271,0.999984,-0.001891,-0.000888,0.005239,0.644224,-0.296773,-0.704838,0.010241
54883,NaN,8.911475,-4.546506,-3.339688,1.269937,-1.080768,0.601580,-0.263278,-0.187719,1.020056,-0.750977,0.660156,0.056396,0.089376,-0.045053,-0.033254,0.999986,-0.001316,-0.000939,0.005100,0.643169,-0.301083,-0.703932,0.012722
54885,NaN,9.775572,-5.164519,-2.133347,-0.108070,-1.200230,12.674461,-0.049140,-0.211476,0.983130,-0.740723,0.677246,0.069092,0.196604,-0.101382,-0.042202,0.999949,-0.000491,-0.002115,0.009831,0.641389,-0.308253,-0.702301,0.019309
54886,NaN,10.915107,-4.808318,-0.698715,-1.171622,0.900921,2.043206,0.125129,-0.210683,0.952924,-0.736816,0.690186,0.068848,0.109386,-0.047558,-0.006902,0.999988,0.000626,-0.001053,0.004765,0.640794,-0.311061,-0.701495,0.022989
54887,NaN,9.791020,-3.827127,-0.339021,-1.091400,1.404663,0.553643,0.099659,-0.207847,0.964025,-0.724121,0.692383,0.068848,0.098097,-0.037797,-0.003307,0.999988,0.000498,-0.001039,0.004820,0.640116,-0.314071,-0.700641,0.026724
54888,NaN,8.744114,-4.379469,-1.123653,-0.594409,0.273790,0.009368,0.051862,-0.226363,0.973995,-0.726562,0.702881,0.077393,0.087666,-0.043365,-0.011149,0.999987,0.000259,-0.001132,0.004870,0.639327,-0.317171,-0.699821,0.030234
54889,NaN,8.769982,-5.130827,-1.545212,-0.493202,-0.368599,0.446244,0.026092,-0.206085,0.963630,-0.713623,0.702881,0.068848,0.087962,-0.050883,-0.015368,0.999988,0.000130,-0.001030,0.004818,0.638509,-0.320399,-0.698938,0.033705
54890,NaN,8.322647,-5.163912,-1.871996,-0.196223,-0.640275,0.136563,0.055813,-0.188856,0.942543,-0.714111,0.715820,0.081543,0.083486,-0.051241,-0.018656,0.999988,0.000279,-0.000944,0.004713,0.637836,-0.323370,-0.698013,0.037070
54891,NaN,8.559468,-5.245309,-2.018751,-0.066108,-0.546319,0.412257,0.142406,-0.203313,0.921336,-0.694824,0.718018,0.072998,0.085856,-0.052044,-0.020137,0.999989,0.000712,-0.001017,0.004607,0.637194,-0.326066,-0.697137,0.040806
54892,NaN,8.481141,-4.999386,-2.046764,0.082491,-0.314710,0.237501,0.197263,-0.204836,0.894248,-0.697510,0.730713,0.079346,0.085055,-0.049594,-0.020430,0.999989,0.000986,-0.001024,0.004471,0.636676,-0.328405,-0.696283,0.044542
54893,NaN,8.661109,-4.970038,-1.957754,0.043296,-0.078720,0.362778,0.217715,-0.224291,0.865129,-0.684570,0.728516,0.072998,0.086847,-0.049304,-0.019534,0.999989,0.001089,-0.001121,0.004326,0.636069,-0.330646,-0.695520,0.048395
54894,NaN,9.021987,-5.703934,-1.326133,-0.792798,-0.152254,0.912858,0.217728,-0.217700,0.821647,-0.684814,0.741455,0.076904,0.090468,-0.056654,-0.013225,0.999990,0.001089,-0.001088,0.004108,0.635529,-0.332653,-0.694796,0.051995
54895,NaN,8.577876,-4.958325,-0.368944,-1.368265,0.606237,-0.011621,0.082717,-0.194795,0.760374,-0.667725,0.743652,0.077148,0.085970,-0.049255,-0.003626,0.999992,0.000414,-0.000974,0.003802,0.634803,-0.334954,-0.694123,0.054994
54896,NaN,8.056146,-4.912638,-0.689594,-1.058042,0.317510,-0.416390,-0.052729,-0.124745,0.686508,-0.669922,0.745605,0.079102,0.080734,-0.048851,-0.006833,0.999994,-0.000264,-0.000624,0.003433,0.634158,-0.337370,-0.693374,0.057071
54897,NaN,7.033565,-5.264983,-1.266773,-0.692942,-0.647372,-0.986800,-0.160833,-0.091901,0.600388,-0.665771,0.747803,0.081299,0.070499,-0.052449,-0.012593,0.999995,-0.000804,-0.000460,0.003002,0.633410,-0.339908,-0.692695,0.058544
54898,NaN,6.363481,-5.767097,-2.237683,-0.023244,-1.690664,-1.100541,-0.184706,-0.064940,0.466842,-0.668457,0.758545,0.089600,0.063776,-0.057543,-0.022303,0.999997,-0.000924,-0.000325,0.002334,0.632807,-0.341996,-0.692149,0.059367
54899,NaN,6.384656,-5.682187,-3.433783,1.100891,-1.997943,-0.888669,-0.213300,-0.128139,0.369515,-0.663818,0.752197,0.074707,0.063973,-0.056740,-0.034236,0.999998,-0.001066,-0.000641,0.001848,0.631903,-0.343886,-0.691984,0.059988
54900,NaN,8.158203,-4.768186,-4.321382,2.325961,-0.608523,0.296005,-0.265893,-0.218312,0.328025,-0.662109,0.764893,0.091797,0.081707,-0.047605,-0.043061,0.999997,-0.001329,-0.001092,0.001640,0.630656,-0.345708,-0.692181,0.060369
54901,NaN,8.788409,-4.774442,-3.951557,1.986735,-0.101110,0.755604,-0.313268,-0.143503,0.284057,-0.655273,0.752197,0.094238,0.087980,-0.047681,-0.039378,0.999998,-0.001566,-0.000718,0.001420,0.629547,-0.347610,-0.692236,0.060400
54902,NaN,6.908914,-5.882130,-4.042936,1.542108,-1.995654,-0.204506,-0.278776,0.064666,0.188661,-0.659912,0.764893,0.098145,0.069132,-0.058812,-0.040370,0.999999,-0.001394,0.000323,0.000943,0.629277,-0.349073,-0.691796,0.059808
54903,NaN,5.202421,-6.176230,-3.919206,1.240865,-3.122202,-1.489029,-0.179517,0.145091,0.041759,-0.653076,0.754150,0.087646,0.052009,-0.061787,-0.039174,0.999999,-0.000898,0.000725,0.000209,0.629469,-0.349800,-0.691320,0.059037
54904,NaN,5.141506,-5.859245,-3.878139,1.329314,-2.915513,-1.717103,-0.052692,0.183785,-0.092471,-0.664307,0.764893,0.091797,0.051352,-0.058626,-0.038813,0.999999,-0.000263,0.000919,-0.000462,0.630073,-0.349621,-0.690935,0.058153
54905,NaN,5.655117,-5.532475,-4.505623,2.063078,-2.630217,-1.344224,0.120318,0.213095,-0.198828,-0.657471,0.754150,0.087646,0.056448,-0.055354,-0.045150,0.999999,0.000602,0.001065,-0.000994,0.631093,-0.348592,-0.690576,0.057541
54906,NaN,6.129611,-5.829494,-4.718402,2.173178,-2.694570,-0.766423,0.289720,0.215088,-0.296764,-0.664062,0.760742,0.087402,0.061159,-0.058317,-0.047334,0.999997,0.001449,0.001075,-0.001484,0.632439,-0.346644,-0.690356,0.057159
54907,NaN,7.497543,-6.420860,-3.326528,0.749653,-1.923035,0.397408,0.529213,0.211584,-0.380156,-0.656982,0.745605,0.070557,0.074818,-0.064262,-0.033514,0.999994,0.002646,0.001058,-0.001901,0.634208,-0.343692,-0.690190,0.057387
54908,NaN,8.853960,-5.897670,-1.273360,-0.827028,-0.105759,0.869120,0.709867,0.131619,-0.476662,-0.670410,0.754395,0.074707,0.088390,-0.059142,-0.013002,0.999991,0.003549,0.000658,-0.002383,0.636013,-0.339769,-0.690416,0.058045
54909,NaN,9.835175,-6.455480,0.193383,-2.325386,0.448162,1.712609,0.748658,0.016577,-0.537915,-0.665527,0.743652,0.062012,0.098178,-0.064826,0.001683,0.999989,0.003743,0.000083,-0.002690,0.637508,-0.335508,-0.691053,0.058861
54910,NaN,11.240831,-6.951599,1.337246,-3.499990,1.133778,2.951838,0.815807,-0.090041,-0.541740,-0.676270,0.741455,0.064209,0.112213,-0.069874,0.013138,0.999988,0.004079,-0.000450,-0.002709,0.638725,-0.330949,-0.692024,0.060047
54911,NaN,13.762689,-6.611602,1.841931,-3.743748,2.816027,4.835553,0.860834,-0.160027,-0.575468,-0.676025,0.737305,0.051270,0.137421,-0.066590,0.018243,0.999986,0.004304,-0.000800,-0.002877,0.639776,-0.326131,-0.693219,0.061423
54912,NaN,16.084243,-6.704217,2.105570,-3.954880,3.945357,6.826861,0.893767,-0.120955,-0.580756,-0.684814,0.741455,0.049072,0.160634,-0.067602,0.020852,0.999986,0.004469,-0.000605,-0.002904,0.641017,-0.321159,-0.694270,0.062792
54913,NaN,17.772514,-7.405467,0.673268,-2.823976,3.681572,8.885594,1.020803,-0.029094,-0.666690,-0.684326,0.728760,0.036377,0.177476,-0.074680,0.006378,0.999981,0.005104,-0.000145,-0.003333,0.642769,-0.315533,-0.695099,0.064215
54914,NaN,19.657707,-8.047459,-0.809943,-1.586656,3.509514,11.091987,0.984978,0.142500,-0.849084,-0.697510,0.737305,0.029785,0.196227,-0.081266,-0.008638,0.999979,0.004925,0.000712,-0.004245,0.645141,-0.309385,-0.695629,0.064603
54915,NaN,21.975552,-8.348679,-1.773489,-0.647249,3.929855,13.423073,1.109483,0.524066,-0.961186,-0.698975,0.715820,0.012939,0.219303,-0.084439,-0.018777,0.999970,0.005547,0.002620,-0.004806,0.648987,-0.302598,-0.695045,0.064520
54916,NaN,23.086324,-8.742877,-1.259711,-1.050734,3.996952,14.557501,1.385748,0.986451,-1.237950,-0.716064,0.713867,-0.001953,0.230249,-0.088760,-0.014346,0.999945,0.006929,0.004932,-0.006190,0.654953,-0.294009,-0.693205,0.063731
54917,NaN,24.281484,-8.064653,0.637053,-2.317493,5.239225,15.130872,1.746297,1.325122,-1.664603,-0.717285,0.692627,-0.042480,0.242164,-0.082706,0.004048,0.999905,0.008731,0.006625,-0.008323,0.662597,-0.282890,-0.690688,0.062349
54918,NaN,24.384707,-5.054019,2.505416,-2.894304,7.725153,13.816401,2.316330,1.270455,-2.208794,-0.740479,0.679688,-0.065918,0.243417,-0.053504,0.022899,0.999852,0.011581,0.006352,-0.011043,0.670955,-0.267803,-0.688742,0.061124
54919,NaN,26.745284,1.265684,2.003166,-0.376314,13.296313,13.509487,2.373359,1.086920,-3.034045,-0.754150,0.641357,-0.101807,0.267706,0.008370,0.018693,0.999800,0.011866,0.005434,-0.015169,0.678685,-0.249646,-0.688291,0.057621
54920,NaN,24.254406,5.856833,2.867862,-0.163378,15.689460,9.797059,3.267316,1.133658,-3.399552,-0.785400,0.617920,-0.131592,0.243648,0.053969,0.028206,0.999706,0.016335,0.005668,-0.016996,0.687591,-0.226873,-0.687487,0.055758
54921,NaN,20.628753,9.643914,3.717373,-0.599009,17.198910,5.553706,4.702780,0.477011,-3.332156,-0.794678,0.581543,-0.174072,0.207937,0.092083,0.038879,0.999582,0.023511,0.002385,-0.016658,0.695222,-0.199267,-0.688022,0.059873
54922,NaN,23.448309,10.141233,1.842290,0.967090,17.708348,8.666139,4.728568,0.461529,-3.061594,-0.814941,0.547363,-0.205811,0.236039,0.097343,0.020213,0.999601,0.023640,0.002307,-0.015306,0.702318,-0.172025,-0.687721,0.064779
54923,NaN,26.566063,10.884226,0.039780,2.566559,18.488466,11.998241,4.134945,0.643549,-3.613994,-0.830566,0.504639,-0.237305,0.267573,0.103992,0.001722,0.999618,0.020672,0.003217,-0.018068,0.709006,-0.145197,-0.686959,0.065699
54924,NaN,30.670219,9.073101,-4.889892,7.144593,16.688845,16.969322,4.382627,0.576350,-3.128507,-0.848877,0.472656,-0.267090,0.307943,0.086976,-0.047852,0.999633,0.021910,0.002881,-0.015641,0.715047,-0.118683,-0.685477,0.068865
54925,NaN,31.864795,-11.749287,-8.209888,9.392859,-3.792695,23.626000,3.668978,0.929024,-1.793340,-0.843506,0.448975,-0.294434,0.317194,-0.118791,-0.085746,0.999781,0.018344,0.004645,-0.008966,0.720886,-0.099686,-0.681796,0.074433
54926,NaN,13.341147,-31.314550,-7.016987,7.033115,-27.587284,10.118687,0.417015,1.417684,-1.635903,-0.856201,0.438477,-0.311523,0.130340,-0.314071,-0.071755,0.999939,0.002085,0.007088,-0.008179,0.726538,-0.092726,-0.677347,0.068886
54927,NaN,-10.838023,-47.906386,-6.831351,4.526416,-49.381749,-10.071243,-0.817515,1.101031,-0.803866,-0.840576,0.423340,-0.323975,-0.110672,-0.478894,-0.065751,0.999968,-0.004088,0.005505,-0.004019,0.730160,-0.093322,-0.673967,0.062655
54928,NaN,-10.263234,-37.187475,-9.011968,6.654977,-38.960057,-12.505619,-0.855633,0.229995,-1.298892,-0.859619,0.419189,-0.322021,-0.105149,-0.371578,-0.088410,0.999969,-0.004278,0.001150,-0.006494,0.730906,-0.091939,-0.674034,0.054795
54929,NaN,-5.936884,-12.091203,-6.386726,5.296371,-13.406980,-13.611933,-0.516016,-0.360466,-1.047339,-0.852539,0.397705,-0.321533,-0.059887,-0.120764,-0.063663,0.999981,-0.002580,-0.001802,-0.005237,0.729744,-0.090166,-0.675949,0.049362
54930,NaN,-3.914535,1.726614,-3.677944,3.444421,0.706358,-14.225043,0.494482,-0.870928,-0.113241,-0.863037,0.393555,-0.321533,-0.038975,0.017379,-0.036907,0.999987,0.002472,-0.004355,-0.000566,0.726978,-0.087697,-0.679122,0.051042
54931,NaN,-3.424454,4.984874,-0.561309,0.508952,4.172156,-14.197273,1.542874,-0.824898,0.985359,-0.843750,0.391357,-0.321533,-0.034467,0.049721,-0.005371,0.999950,0.007714,-0.004124,0.004927,0.724583,-0.085191,-0.681249,0.060191
54932,NaN,-0.596866,3.460285,0.071896,-0.032398,3.256370,-11.127827,1.277434,-0.727516,1.609037,-0.846191,0.402100,-0.328125,-0.006250,0.034548,0.000917,0.999941,0.006387,-0.003638,0.008045,0.722050,-0.085738,-0.682859,0.070689
54933,NaN,0.811569,3.471670,-0.254541,0.346176,3.557467,-9.828427,0.195023,-0.448393,1.603677,-0.831055,0.397705,-0.323730,0.007843,0.034783,-0.002494,0.999965,0.000975,-0.002242,0.008018,0.720028,-0.090320,-0.683685,0.077304
54934,NaN,0.309264,3.885292,0.081443,-0.000660,3.845537,-10.452410,-0.978832,-0.167257,1.410138,-0.835938,0.414795,-0.315430,0.002818,0.038877,0.000627,0.999963,-0.004894,-0.000836,0.007051,0.718376,-0.098497,-0.684090,0.079092
54935,NaN,0.473724,4.128601,0.322522,-0.170354,4.123000,-10.399895,-1.999169,0.011780,1.276281,-0.819092,0.423340,-0.311035,0.004474,0.041345,0.002812,0.999930,-0.009996,0.000059,0.006381,0.716895,-0.110013,-0.684150,0.076797
54936,NaN,0.464859,6.337751,0.893102,-0.538071,6.276536,-11.034999,-2.352019,0.086884,1.148275,-0.822021,0.444824,-0.296387,0.004288,0.063502,0.008183,0.999914,-0.011760,0.000434,0.005741,0.715337,-0.122275,-0.684140,0.072767
54937,NaN,1.036399,8.416146,1.299786,-0.617927,8.453538,-11.134557,-2.162562,0.125744,1.092203,-0.807129,0.448975,-0.296387,0.009911,0.084350,0.012080,0.999926,-0.010813,0.000629,0.005461,0.714013,-0.133754,-0.683749,0.069162
54938,NaN,0.964760,7.805883,1.349952,-0.564210,7.852599,-11.116967,-1.781842,0.127632,0.928354,-0.818604,0.472656,-0.279785,0.009293,0.078219,0.012797,0.999949,-0.008909,0.000638,0.004642,0.712857,-0.143169,-0.683341,0.066201
54939,NaN,1.046406,7.131645,1.259812,-0.428928,7.221740,-10.910029,-1.141489,-0.020678,0.686043,-0.805420,0.463867,-0.281738,0.010218,0.071422,0.012192,0.999978,-0.005707,-0.000103,0.003430,0.711744,-0.149543,-0.683277,0.064727
54940,NaN,1.706192,7.452676,0.934396,0.032204,7.677996,-10.423946,-0.704598,-0.152359,0.339942,-0.814697,0.479004,-0.264893,0.016928,0.074588,0.009094,0.999992,-0.003523,-0.000762,0.001700,0.710553,-0.152967,-0.683873,0.063501
54941,NaN,2.127278,7.499723,0.698734,0.339185,7.815713,-10.055284,-0.567435,-0.203846,-0.054707,-0.807861,0.470459,-0.264648,0.021286,0.075011,0.006796,0.999995,-0.002837,-0.001019,-0.000274,0.709454,-0.154701,-0.684808,0.061489
54942,NaN,2.413999,7.827759,0.277849,0.859241,8.150899,-9.863258,-0.774712,-0.197492,-0.486509,-0.819092,0.480957,-0.247803,0.024328,0.078229,0.002499,0.999989,-0.003874,-0.000987,-0.002433,0.708303,-0.155487,-0.686202,0.057075
54943,NaN,2.352997,7.608932,0.046290,1.123944,7.884816,-9.804048,-1.078029,-0.116412,-0.880623,-0.818604,0.468262,-0.243164,0.023865,0.075986,0.000067,0.999976,-0.005390,-0.000582,-0.004403,0.707316,-0.156217,-0.687581,0.050314
54944,NaN,2.146940,6.202293,-0.281824,1.313955,6.429713,-9.515265,-1.293725,-0.020525,-1.208498,-0.836182,0.476807,-0.234863,0.021844,0.061872,-0.003217,0.999961,-0.006469,-0.000103,-0.006042,0.706500,-0.156350,-0.688985,0.041375
54945,NaN,1.840462,4.682087,-0.330750,1.179291,4.875826,-9.309296,-1.377907,0.038094,-1.469557,-0.829102,0.459473,-0.226074,0.018747,0.046660,-0.003633,0.999949,-0.006889,0.000190,-0.007348,0.705839,-0.156124,-0.690241,0.031372
54946,NaN,1.373706,4.126343,-0.398334,1.187353,4.193388,-9.534496,-1.372578,0.038464,-1.690490,-0.850586,0.455322,-0.202393,0.014084,0.041117,-0.004269,0.999941,-0.006863,0.000192,-0.008452,0.705113,-0.154823,-0.691686,0.020376
54947,NaN,1.148429,3.765113,-0.401758,1.162277,3.775579,-9.589377,-1.190319,0.016448,-1.828037,-0.852295,0.444580,-0.204346,0.011827,0.037519,-0.004242,0.999941,-0.005951,0.000082,-0.009140,0.704408,-0.152658,-0.693116,0.009767
54948,NaN,0.898929,2.738029,-0.843353,1.413053,2.633919,-9.527116,-0.905514,-0.023616,-1.866114,-0.869629,0.442383,-0.189453,0.009245,0.027256,-0.008556,0.999946,-0.004527,-0.000118,-0.009330,0.703675,-0.149042,-0.694714,-0.000207
54949,NaN,1.216507,1.467957,-1.154472,1.476563,1.399688,-8.902696,-0.587325,-0.062497,-1.870795,-0.873047,0.420898,-0.191406,0.012305,0.014531,-0.011584,0.999952,-0.002937,-0.000312,-0.009354,0.702999,-0.144570,-0.696286,-0.008817
54950,NaN,1.320733,-0.357505,-1.250651,1.180198,-0.376935,-8.433825,-0.300094,-0.092565,-1.799690,-0.887939,0.414551,-0.174072,0.013180,-0.003712,-0.012495,0.999958,-0.001500,-0.000463,-0.008998,0.702330,-0.139018,-0.697953,-0.016409
54951,NaN,1.144351,-1.964611,-1.482166,1.045626,-2.026837,-8.341449,0.030194,-0.156502,-1.693216,-0.891602,0.397461,-0.167480,0.011288,-0.019740,-0.014816,0.999964,0.000151,-0.000783,-0.008466,0.701654,-0.132977,-0.699648,-0.022174
54952,NaN,1.019840,-2.873534,-1.347657,0.713517,-2.914853,-8.360856,0.353289,-0.245664,-1.584084,-0.908936,0.395264,-0.161133,0.009987,-0.028791,-0.013515,0.999966,0.001766,-0.001228,-0.007920,0.700797,-0.125885,-0.701661,-0.026611
54953,NaN,0.993320,-4.609731,-1.324743,0.333559,-4.611580,-8.196230,0.650855,-0.337165,-1.434167,-0.904053,0.378174,-0.158691,0.009625,-0.046124,-0.013381,0.999968,0.003254,-0.001686,-0.007171,0.699824,-0.118579,-0.703800,-0.029174
54954,NaN,0.788107,-5.582783,-0.550579,-0.593174,-5.443439,-8.360704,0.894513,-0.463480,-1.287217,-0.918945,0.371582,-0.139404,0.007535,-0.055852,-0.005738,0.999967,0.004473,-0.002317,-0.006436,0.698468,-0.110673,-0.706373,-0.030511
54955,NaN,0.366496,-6.394545,0.681231,-1.911648,-6.064850,-8.787499,0.965316,-0.597084,-1.130301,-0.918457,0.358887,-0.136963,0.003284,-0.063997,0.006514,0.999968,0.004827,-0.002985,-0.005651,0.696712,-0.103362,-0.709199,-0.030752
54956,NaN,-0.127161,-6.683784,1.551101,-2.756947,-6.267331,-9.350045,0.956311,-0.678541,-0.953314,-0.931152,0.356689,-0.128662,-0.001642,-0.066904,0.015186,0.999971,0.004782,-0.003393,-0.004767,0.694587,-0.096482,-0.712254,-0.030558
54957,NaN,-0.284668,-6.930573,0.782120,-1.980422,-6.687147,-9.521134,0.875931,-0.643177,-0.728642,-0.924561,0.348145,-0.119873,-0.003124,-0.069328,0.007508,0.999979,0.004380,-0.003216,-0.003643,0.692606,-0.090905,-0.714948,-0.029693
54958,NaN,-0.334458,-8.007138,0.339224,-1.667951,-7.840134,-9.510902,0.677854,-0.460544,-0.416121,-0.933350,0.354492,-0.107178,-0.003519,-0.080075,0.003113,0.999989,0.003389,-0.002303,-0.002081,0.691159,-0.086911,-0.716884,-0.028697
54959,NaN,-0.563317,-8.773158,1.251906,-2.641015,-8.477754,-9.738519,0.407162,-0.206528,-0.085838,-0.927002,0.356689,-0.104980,-0.005684,-0.087754,0.012335,0.999997,0.002036,-0.001033,-0.000429,0.690595,-0.085190,-0.717681,-0.027479
54960,NaN,-0.477772,-9.851133,1.924686,-3.454324,-9.433835,-9.593997,0.169848,-0.025783,0.275891,-0.935547,0.356689,-0.098633,-0.004644,-0.098534,0.019163,0.999999,0.000849,-0.000129,0.001379,0.690579,-0.085421,-0.717722,-0.026062
54961,NaN,-0.309451,-10.005092,1.661216,-3.211988,-9.614113,-9.355689,0.120035,0.039014,0.658116,-0.923096,0.367188,-0.096436,-0.002762,-0.100070,0.016553,0.999994,0.000600,0.000195,0.003291,0.690865,-0.087326,-0.717308,-0.023411
54962,NaN,0.174056,-10.096717,0.626612,-2.209667,-9.814444,-8.735809,0.142906,-0.000883,1.081761,-0.919189,0.380127,-0.088135,0.002287,-0.100960,0.006194,0.999985,0.000715,-0.000004,0.005409,0.691021,-0.090595,-0.716876,-0.019273
54963,NaN,0.458115,-10.594367,-0.003938,-1.659460,-10.355361,-8.243921,0.187708,-0.038572,1.506666,-0.908936,0.395020,-0.081787,0.005379,-0.105905,-0.000138,0.999971,0.000939,-0.000193,0.007533,0.691107,-0.095311,-0.716315,-0.013412
54964,NaN,1.597294,-13.956772,1.365457,-3.553100,-13.274258,-6.592243,0.069286,-0.130275,1.857437,-0.914307,0.420898,-0.067383,0.017259,-0.139416,0.013617,0.999957,0.000346,-0.000651,0.009287,0.690753,-0.101672,-0.715875,-0.006748
54965,NaN,2.416076,-77.486442,7.546784,-19.817337,-74.132373,3.532633,-0.760586,0.445791,3.045998,-0.882812,0.442139,-0.065186,0.036127,-0.774081,0.078341,0.999874,-0.003803,0.002229,0.015229,0.691993,-0.115137,-0.712663,0.000788
54966,NaN,0.715110,-94.751669,4.506816,-21.922746,-90.604567,7.690173,-4.324561,0.862412,3.893644,-0.873779,0.487061,-0.038086,0.025831,-0.945867,0.065450,0.999567,-0.021620,0.004311,0.019465,0.692263,-0.144117,-0.707107,-0.001501
54967,NaN,31.873215,-7.107237,6.029088,-7.593711,1.408964,22.482592,-3.885615,-1.336059,2.489624,-0.854492,0.491211,-0.016602,0.319156,-0.065885,0.063736,0.999711,-0.019426,-0.006680,0.012447,0.684574,-0.166300,-0.709698,-0.005694
54968,NaN,65.498278,67.516231,-19.918945,35.318334,74.037579,40.349846,-0.521921,-0.499696,-0.034955,-0.857422,0.508301,0.000244,0.655599,0.674528,-0.199313,0.999993,-0.002610,-0.002498,-0.000175,0.682373,-0.168421,-0.711305,-0.006885
54969,NaN,10.471879,57.647261,12.573806,3.151751,59.701827,-13.834227,-3.717673,-0.659926,2.213117,-0.836182,0.516846,0.032471,0.097923,0.579789,0.115311,0.999761,-0.018587,-0.003299,0.011065,0.676823,-0.188922,-0.711389,-0.012034
54970,NaN,4.968318,16.881265,3.010436,2.274644,17.702736,-9.512115,-5.291048,-2.651873,2.300461,-0.828369,0.538086,0.094238,0.047366,0.170095,0.026254,0.999496,-0.026451,-0.013257,0.011500,0.662183,-0.215127,-0.717505,-0.020517
54972,NaN,18.643513,-15.843983,-23.130376,31.072298,-33.123540,39.902824,-1.895479,0.230887,0.708050,-0.815674,0.542236,0.102783,0.374083,-0.322937,-0.457387,0.999793,-0.018953,0.002309,0.007080,0.659784,-0.232631,-0.713912,-0.029956
54973,NaN,124.665904,13.181370,40.068659,-33.870646,63.865356,100.157607,-0.382121,0.550545,3.064219,-0.788330,0.559326,0.111328,1.245533,0.151664,0.396980,0.999877,-0.001911,0.002753,0.015320,0.661571,-0.244769,-0.708476,-0.021761
54974,NaN,60.875756,34.081390,-3.776965,16.291005,49.275282,36.952169,-0.951869,-1.791130,5.561545,-0.762207,0.608643,0.114990,0.599288,0.357400,-0.034049,0.999562,-0.004759,-0.008954,0.027804,0.654391,-0.267669,-0.707180,-0.004572
54975,NaN,-34.132424,-19.690231,1.700930,-9.259535,-29.315565,-34.518235,0.533554,-0.092493,2.947026,-0.732666,0.627930,0.112793,-0.338381,-0.201947,0.016318,0.999888,0.002668,-0.000462,0.014735,0.654810,-0.276115,-0.703517,0.006896
54976,NaN,-4.249460,-29.808913,-4.904993,-6.979962,-28.508677,-1.497726,-1.083808,-0.777718,3.058641,-0.727051,0.651367,0.140137,-0.037740,-0.298951,-0.047584,0.999861,-0.005419,-0.003888,0.015292,0.650397,-0.290324,-0.701781,0.014135
54977,NaN,6.084175,-5.177390,3.994734,-5.605015,-0.193644,-2.861130,-0.473885,-0.624222,2.060962,-0.710205,0.659912,0.140137,0.061245,-0.051049,0.040260,0.999939,-0.002369,-0.003121,0.010305,0.647355,-0.298995,-0.700808,0.020037
54978,NaN,-3.888850,-5.842035,-6.274879,3.407927,-8.775617,-9.801503,0.059197,-0.460421,1.257017,-0.706299,0.670654,0.142334,-0.038376,-0.058644,-0.062855,0.999978,0.000296,-0.002302,0.006285,0.645705,-0.303122,-0.700399,0.024965
54979,NaN,-2.944849,-8.289227,-3.697782,0.058041,-9.410935,-8.235802,-0.828294,-0.335939,1.020047,-0.691406,0.674805,0.150879,-0.028963,-0.083193,-0.036683,0.999977,-0.004141,-0.001680,0.005100,0.643150,-0.309302,-0.700016,0.025843
54980,NaN,1.044731,-5.318915,1.845460,-3.805736,-3.123492,-6.888975,-0.310688,-0.602488,0.731521,-0.693848,0.681396,0.163574,0.010586,-0.053122,0.018569,0.999988,-0.001553,-0.003012,0.003658,0.640474,-0.312747,-0.700855,0.028004
54981,NaN,5.100630,-7.135182,0.671158,-3.409115,-3.046848,-2.297888,0.181680,-0.659211,0.444961,-0.682861,0.677002,0.155029,0.051143,-0.071244,0.006815,0.999992,0.000908,-0.003296,0.002225,0.638396,-0.313644,-0.702218,0.031101
54982,NaN,5.902679,-5.898731,-1.100067,-1.295181,-2.268686,-1.811297,-0.228081,-0.218553,0.312177,-0.687500,0.687744,0.167725,0.059131,-0.058908,-0.010869,0.999998,-0.001140,-0.001093,0.001561,0.637237,-0.315400,-0.702462,0.031604
54983,NaN,0.873700,-6.372602,-2.401155,-0.366494,-5.525903,-5.754485,-0.181690,-0.150008,0.015282,-0.685059,0.677002,0.163574,0.008760,-0.063747,-0.023947,0.999999,-0.000908,-0.000750,0.000076,0.636443,-0.316038,-0.702910,0.031267
54984,NaN,-0.354828,-5.949560,-5.783507,2.874676,-6.995171,-6.381080,-0.124937,-0.278461,-0.289100,-0.694092,0.685547,0.169922,-0.003554,-0.059527,-0.057803,0.999998,-0.000625,-0.001392,-0.001445,0.635327,-0.315343,-0.704273,0.030313
54985,NaN,1.493389,-3.971048,-6.430684,4.270440,-4.759150,-5.515368,-0.082501,-0.236127,-0.477186,-0.682861,0.674805,0.167969,0.014915,-0.039773,-0.064273,0.999996,-0.000413,-0.001181,-0.002386,0.634439,-0.313939,-0.705757,0.028920
54986,NaN,3.977985,-5.123934,-3.807127,1.393243,-3.572351,-3.341958,-0.051989,-0.241688,-0.644324,-0.702148,0.674805,0.174316,0.039660,-0.051377,-0.038010,0.999994,-0.000260,-0.001208,-0.003222,0.633610,-0.311761,-0.707540,0.027037
54987,NaN,6.581098,-5.054204,-2.467836,0.164635,-1.842149,-1.355438,0.016996,-0.172014,-0.817175,-0.703857,0.659912,0.172363,0.065625,-0.050808,-0.024626,0.999991,0.000085,-0.000860,-0.004086,0.633116,-0.308852,-0.709337,0.024833
54988,NaN,8.842136,-5.027983,-2.178660,-0.136600,-0.728447,0.563273,0.113069,-0.046018,-0.923012,-0.708252,0.661865,0.176514,0.088193,-0.050675,-0.021795,0.999989,0.000565,-0.000230,-0.004615,0.633250,-0.305178,-0.710888,0.022349
54989,NaN,11.532010,-4.550316,-1.888212,-0.274790,0.907902,2.691589,0.072660,0.019050,-0.995748,-0.707764,0.646973,0.172607,0.115090,-0.046070,-0.018910,0.999988,0.000363,0.000095,-0.004979,0.633514,-0.301471,-0.712317,0.019485
54990,NaN,14.169670,-4.375003,-1.984472,-0.199156,2.087540,5.001464,0.024450,0.075355,-0.977530,-0.720459,0.642822,0.174805,0.141473,-0.044439,-0.019903,0.999988,0.000122,0.000377,-0.004888,0.633922,-0.297883,-0.713542,0.016328
54991,NaN,17.996259,-4.243762,-0.426218,-1.684723,4.324725,8.090201,0.105375,0.047657,-0.731833,-0.718018,0.636230,0.172607,0.179805,-0.043093,-0.004328,0.999993,0.000527,0.000238,-0.003659,0.634292,-0.294996,-0.714454,0.014366
54992,NaN,17.522349,-1.197376,0.581182,-1.403965,6.877209,6.297440,0.054673,0.050333,-0.579903,-0.729004,0.638428,0.172607,0.175189,-0.012483,0.005764,0.999996,0.000273,0.000252,-0.002900,0.634607,-0.292720,-0.715144,0.012614
54993,NaN,13.641648,-3.244623,0.101224,-1.724853,3.256425,3.717010,-0.046750,0.010658,-0.379017,-0.719971,0.627686,0.162109,0.136355,-0.032704,0.001013,0.999998,-0.000234,0.000053,-0.001895,0.634605,-0.291547,-0.715646,0.011256
54994,NaN,9.636323,-4.611043,-0.927682,-1.253670,-0.009984,0.836686,-0.098507,0.007126,-0.295381,-0.735352,0.634277,0.174805,0.096295,-0.046257,-0.009257,0.999999,-0.000493,0.000036,-0.001477,0.634518,-0.290770,-0.716060,0.009922
54995,NaN,7.239989,-4.844627,-2.176341,-0.155729,-1.704643,-0.998258,-0.033668,0.051900,-0.358317,-0.726318,0.623535,0.164307,0.072307,-0.048580,-0.021774,0.999998,-0.000168,0.000259,-0.001792,0.634688,-0.289624,-0.716390,0.008610
54996,NaN,6.113058,-4.966560,-3.179054,0.737238,-2.675312,-1.785131,0.069502,0.090659,-0.427941,-0.743652,0.627686,0.170410,0.061010,-0.049785,-0.031836,0.999998,0.000348,0.000453,-0.002140,0.635145,-0.287841,-0.716718,0.007336
54997,NaN,6.251791,-4.812546,-3.437410,1.034755,-2.614310,-1.679065,0.214606,0.086672,-0.493224,-0.732422,0.612793,0.160156,0.062384,-0.048242,-0.034453,0.999996,0.001073,0.000433,-0.002466,0.635792,-0.285430,-0.717117,0.006442
54998,NaN,7.263796,-4.290576,-3.042752,0.859442,-1.657733,-1.040960,0.276651,0.107329,-0.580827,-0.750000,0.623535,0.168457,0.072497,-0.043074,-0.030526,0.999995,0.001383,0.000537,-0.002904,0.636602,-0.282437,-0.717592,0.005401
54999,NaN,8.194952,-4.031626,-2.303435,0.261410,-0.849376,-0.435749,0.233513,0.164027,-0.661079,-0.745117,0.608643,0.157959,0.081797,-0.040560,-0.023149,0.999994,0.001168,0.000820,-0.003305,0.637538,-0.279367,-0.717972,0.003939
55000,NaN,8.966024,-3.959438,-1.695773,-0.290632,-0.330743,0.124519,0.157864,0.204909,-0.717370,-0.753662,0.610596,0.159912,0.089500,-0.039902,-0.017081,0.999993,0.000789,0.001025,-0.003587,0.638518,-0.276257,-0.718313,0.001899
55001,NaN,9.536272,-3.677851,-1.650656,-0.240805,0.075753,0.537553,0.116652,0.215608,-0.747984,-0.748779,0.595703,0.149658,0.095206,-0.037125,-0.016631,0.999992,0.000583,0.001078,-0.003740,0.639460,-0.273242,-0.718631,-0.000330
55002,NaN,9.624734,-3.784276,-1.995866,0.028094,-0.183428,0.718443,0.100486,0.224895,-0.767173,-0.766357,0.602051,0.153564,0.096079,-0.038201,-0.020086,0.999992,0.000502,0.001124,-0.003836,0.640413,-0.270128,-0.718954,-0.002762
