// Start Time: Unknown
// Update Rate: 100.0Hz
// Filter Profile: human (46.1)
// Firmware Version: 4.4.0
PacketCounter,SampleTimeFine,Acc_X,Acc_Y,Acc_Z,FreeAcc_X,FreeAcc_Y,FreeAcc_Z,Gyr_X,Gyr_Y,Gyr_Z,Mag_X,Mag_Y,Mag_Z,VelInc_X,VelInc_Y,VelInc_Z,OriInc_q0,OriInc_q1,OriInc_q2,OriInc_q3,Quat_q0,Quat_q1,Quat_q2,Quat_q3
05781,NaN,9.845654,0.792083,-0.278668,0.000000,-0.000000,0.068707,-0.005641,0.000850,-0.027352,-0.494141,0.067139,-0.456299,0.098458,0.007907,-0.002787,1.000000,-0.000028,0.000004,-0.000137,0.688008,-0.058168,-0.714647,-0.111986
05782,NaN,9.801531,0.802208,-0.238718,-0.036597,-0.016430,0.024432,-0.004451,-0.000364,-0.024979,-0.492432,0.073730,-0.432861,0.098016,0.008010,-0.002387,1.000000,-0.000022,-0.000002,-0.000125,0.687262,-0.061454,-0.714104,-0.118110
05783,NaN,9.850204,0.813867,-0.260930,-0.014849,-0.017146,0.074500,0.011876,0.008567,-0.030041,-0.492188,0.071533,-0.456299,0.098503,0.008124,-0.002613,1.000000,0.000059,0.000043,-0.000150,0.687278,-0.061301,-0.714091,-0.118174
05784,NaN,9.801416,0.916706,-0.273165,0.024663,0.079850,0.034938,0.006242,-0.000688,-0.027949,-0.494629,0.075684,-0.439209,0.098015,0.009153,-0.002731,1.000000,0.000031,-0.000003,-0.000140,0.687263,-0.061185,-0.714103,-0.118247
05785,NaN,9.820279,0.976166,-0.367350,0.129236,0.109566,0.061370,-0.002791,0.004057,-0.021523,-0.490234,0.075928,-0.456299,0.098204,0.009751,-0.003676,1.000000,-0.000014,0.000020,-0.000108,0.687264,-0.061116,-0.714094,-0.118332
05786,NaN,9.801012,0.921196,-0.272526,0.024629,0.079807,0.034939,-0.011539,0.004576,-0.020338,-0.492432,0.073730,-0.439209,0.098011,0.009202,-0.002728,1.000000,-0.000058,0.000023,-0.000102,0.687263,-0.061078,-0.714079,-0.118446
05787,NaN,9.794426,0.973760,-0.318356,0.082553,0.117390,0.034126,-0.016424,0.005991,-0.017607,-0.489990,0.071533,-0.456299,0.097945,0.009729,-0.003187,1.000000,-0.000082,0.000030,-0.000088,0.687269,-0.061068,-0.714054,-0.118567
05788,NaN,9.785778,1.021976,-0.290597,0.068850,0.169870,0.028895,-0.026661,0.012443,-0.008426,-0.489990,0.069336,-0.437012,0.097858,0.010215,-0.002913,1.000000,-0.000133,0.000062,-0.000042,0.687298,-0.061118,-0.714000,-0.118700
05789,NaN,9.807814,0.945353,-0.324991,0.083257,0.084580,0.045225,-0.033303,0.014259,-0.002382,-0.489990,0.069336,-0.454102,0.098078,0.009452,-0.003258,1.000000,-0.000167,0.000071,-0.000012,0.687338,-0.061215,-0.713932,-0.118831
05790,NaN,9.865170,1.054386,-0.340313,0.124235,0.180930,0.112077,-0.041250,0.013350,0.008378,-0.492676,0.080078,-0.430664,0.098651,0.010547,-0.003412,1.000000,-0.000206,0.000067,0.000042,0.687372,-0.061368,-0.713863,-0.118964
05791,NaN,9.768751,0.859228,-0.228938,-0.025541,0.028652,-0.003625,-0.048237,0.022724,0.011062,-0.489990,0.067139,-0.454102,0.097687,0.008597,-0.002303,1.000000,-0.000241,0.000114,0.000055,0.687445,-0.061560,-0.713753,-0.119105
05792,NaN,9.802867,0.964673,-0.268622,0.040269,0.117699,0.040407,-0.053219,0.019703,0.015759,-0.501221,0.077881,-0.435059,0.098028,0.009654,-0.002698,1.000000,-0.000266,0.000099,0.000079,0.687501,-0.061771,-0.713654,-0.119263
05793,NaN,9.834964,1.065132,-0.234747,0.034764,0.222188,0.080015,-0.066781,0.027546,0.033103,-0.490234,0.073730,-0.443359,0.098348,0.010667,-0.002365,1.000000,-0.000334,0.000138,0.000166,0.687599,-0.062103,-0.713510,-0.119396
05794,NaN,9.768567,1.028422,-0.283801,0.080211,0.181230,0.011966,-0.087228,0.031181,0.046685,-0.492432,0.075684,-0.435059,0.097683,0.010306,-0.002858,1.000000,-0.000436,0.000156,0.000233,0.687702,-0.062524,-0.713342,-0.119583
05795,NaN,9.847362,1.122367,-0.361294,0.180839,0.250053,0.100211,-0.098393,0.036582,0.068794,-0.492188,0.071533,-0.447754,0.098469,0.011256,-0.003636,1.000000,-0.000492,0.000183,0.000344,0.687843,-0.063086,-0.713135,-0.119709
05796,NaN,9.861457,1.121794,-0.298116,0.125630,0.269946,0.112380,-0.111581,0.046587,0.099491,-0.490234,0.073730,-0.430664,0.098608,0.011265,-0.003010,1.000000,-0.000558,0.000233,0.000497,0.688017,-0.063753,-0.712889,-0.119823
05797,NaN,9.828442,1.143194,-0.380911,0.221300,0.280467,0.082898,-0.126953,0.050862,0.127305,-0.490234,0.071533,-0.443359,0.098276,0.011492,-0.003841,1.000000,-0.000635,0.000254,0.000637,0.688233,-0.064613,-0.712598,-0.119854
05798,NaN,9.915960,1.110499,-0.380546,0.217965,0.252430,0.166944,-0.124363,0.060182,0.159013,-0.492432,0.075684,-0.428467,0.099150,0.011181,-0.003842,0.999999,-0.000622,0.000301,0.000795,0.688474,-0.065505,-0.712286,-0.119835
05799,NaN,9.992500,1.146541,-0.375064,0.230913,0.297541,0.245314,-0.123934,0.073009,0.192687,-0.492188,0.071533,-0.443359,0.099913,0.011559,-0.003794,0.999999,-0.000620,0.000365,0.000963,0.688809,-0.066574,-0.711897,-0.119637
05800,NaN,9.930740,1.105593,-0.328558,0.190782,0.289851,0.178780,-0.127073,0.081691,0.229859,-0.499023,0.077881,-0.424316,0.099293,0.011168,-0.003333,0.999999,-0.000635,0.000408,0.001149,0.689149,-0.067689,-0.711500,-0.119416
05801,NaN,10.067773,1.138380,-0.375847,0.255188,0.320292,0.317932,-0.122352,0.086835,0.258255,-0.498779,0.073730,-0.435059,0.100661,0.011511,-0.003809,0.999999,-0.000612,0.000434,0.001291,0.689570,-0.068977,-0.711039,-0.118990
05802,NaN,9.929846,0.929506,-0.292121,0.140378,0.170575,0.162396,-0.121935,0.098552,0.285432,-0.496826,0.073486,-0.413574,0.099284,0.009435,-0.002976,0.999999,-0.000610,0.000493,0.001427,0.689985,-0.070232,-0.710580,-0.118593
05803,NaN,9.927844,0.914701,-0.394948,0.253732,0.154429,0.160598,-0.118950,0.094358,0.307221,-0.503174,0.071533,-0.430664,0.099262,0.009297,-0.004002,0.999999,-0.000595,0.000472,0.001536,0.690460,-0.071678,-0.710075,-0.117989
05804,NaN,9.980001,0.861546,-0.310814,0.172397,0.146385,0.206696,-0.093141,0.093150,0.325058,-0.503418,0.077881,-0.405029,0.099784,0.008776,-0.003159,0.999998,-0.000466,0.000466,0.001625,0.690870,-0.072963,-0.709648,-0.117364
05805,NaN,9.828881,0.622390,-0.100049,-0.070535,0.010070,0.036125,-0.093099,0.097363,0.330626,-0.503418,0.080078,-0.426514,0.098278,0.006386,-0.001051,0.999998,-0.000465,0.000487,0.001653,0.691375,-0.074400,-0.709135,-0.116588
05806,NaN,9.757209,0.481718,0.029962,-0.215427,-0.061027,-0.046120,-0.078458,0.089488,0.334879,-0.507568,0.077881,-0.405029,0.097564,0.004981,0.000254,0.999998,-0.000392,0.000447,0.001674,0.691779,-0.075668,-0.708723,-0.115878
05807,NaN,9.853586,0.355940,0.028017,-0.233233,-0.158826,0.043322,-0.069065,0.080504,0.323321,-0.505371,0.075684,-0.419922,0.098530,0.003719,0.000239,0.999999,-0.000345,0.000403,0.001617,0.692225,-0.077006,-0.708281,-0.115035
05808,NaN,9.547578,0.245350,0.132233,-0.339347,-0.196741,-0.269104,-0.062259,0.087285,0.320875,-0.509766,0.077881,-0.398682,0.095472,0.002607,0.001280,0.999999,-0.000311,0.000436,0.001604,0.692644,-0.078192,-0.707861,-0.114293
05809,NaN,9.435966,0.287609,0.074313,-0.254015,-0.139844,-0.376504,-0.069944,0.063050,0.302732,-0.507568,0.075684,-0.409424,0.094355,0.003019,0.000712,0.999999,-0.000350,0.000315,0.001514,0.693012,-0.079469,-0.707484,-0.113517
05810,NaN,9.833073,0.226645,-0.043380,-0.155245,-0.224955,0.019291,-0.068801,0.055098,0.281380,-0.511963,0.080078,-0.398682,0.098327,0.002405,-0.000462,0.999999,-0.000344,0.000275,0.001407,0.693324,-0.080587,-0.707151,-0.112892
05811,NaN,9.480780,0.115307,-0.157189,-0.053829,-0.323962,-0.335594,-0.086386,0.066911,0.270437,-0.505371,0.071533,-0.406982,0.094806,0.001281,-0.001604,0.999999,-0.000432,0.000335,0.001352,0.693678,-0.081805,-0.706761,-0.112287
05812,NaN,9.316038,-0.072436,-0.088769,-0.154623,-0.458661,-0.508529,-0.071405,0.057941,0.248168,-0.509766,0.075684,-0.392090,0.093161,-0.000609,-0.000914,0.999999,-0.000357,0.000290,0.001241,0.693987,-0.082851,-0.706421,-0.111748
05813,NaN,9.357857,-0.227677,0.022770,-0.294637,-0.559445,-0.473414,-0.048587,0.045917,0.218489,-0.505615,0.080078,-0.407227,0.093581,-0.002174,0.000207,0.999999,-0.000243,0.000230,0.001092,0.694251,-0.083766,-0.706143,-0.111181
05814,NaN,9.642717,0.019425,-0.030070,-0.172719,-0.328706,-0.177057,-0.023417,0.047702,0.190024,-0.510010,0.082031,-0.390137,0.096427,0.000286,-0.000324,1.000000,-0.000117,0.000239,0.000950,0.694530,-0.084513,-0.705870,-0.110603
05815,NaN,9.987565,0.700976,-0.220428,0.198292,0.279474,0.196006,-0.038301,0.034267,0.193617,-0.509766,0.077881,-0.405029,0.099868,0.007106,-0.002223,0.999999,-0.000192,0.000171,0.000968,0.694741,-0.085310,-0.705648,-0.110080
05816,NaN,10.120524,0.581488,-0.470323,0.413165,0.110384,0.326416,-0.017619,0.045090,0.202289,-0.514648,0.088623,-0.385986,0.101198,0.005917,-0.004727,0.999999,-0.000088,0.000225,0.001011,0.695016,-0.086082,-0.705384,-0.109437
05817,NaN,10.112850,0.538513,-0.410283,0.354471,0.105509,0.316045,-0.048321,0.046758,0.232921,-0.511963,0.077881,-0.405029,0.101121,0.005502,-0.004128,0.999999,-0.000242,0.000234,0.001165,0.695287,-0.087046,-0.705094,-0.108818
05818,NaN,9.859568,1.084398,-0.263040,0.376732,0.700164,0.077914,-0.041182,0.027667,0.254128,-0.512207,0.084229,-0.385986,0.098581,0.010969,-0.002646,0.999999,-0.000206,0.000138,0.001271,0.695471,-0.088071,-0.704897,-0.108090
05819,NaN,10.113779,0.206670,0.113957,-0.222258,-0.022128,0.301375,0.006984,0.002978,0.262979,-0.514160,0.077881,-0.398682,0.101135,0.002200,0.001138,0.999999,0.000035,0.000015,0.001315,0.695626,-0.088971,-0.704774,-0.107152
05820,NaN,10.091014,0.173913,0.529491,-0.623674,0.085843,0.274075,-0.031244,0.005910,0.267798,-0.514404,0.084229,-0.379395,0.100908,0.001875,0.005292,0.999999,-0.000156,0.000030,0.001339,0.695741,-0.089980,-0.704651,-0.106373
05821,NaN,9.559892,0.218832,0.402050,-0.472910,0.129967,-0.254420,-0.046857,0.001875,0.254817,-0.514404,0.084229,-0.394531,0.095596,0.002311,0.004019,0.999999,-0.000234,0.000009,0.001274,0.695862,-0.091040,-0.704504,-0.105653
05822,NaN,9.736197,-0.128824,-0.006740,-0.172718,-0.298048,-0.081733,-0.078757,-0.038894,0.235645,-0.514404,0.086426,-0.375244,0.097363,-0.001174,-0.000048,0.999999,-0.000394,-0.000194,0.001178,0.695847,-0.092124,-0.704455,-0.105134
05823,NaN,10.079347,0.208911,-0.137395,0.044432,0.007596,0.269658,-0.062776,-0.024148,0.228086,-0.514160,0.080078,-0.385742,0.100791,0.002204,-0.001362,0.999999,-0.000314,-0.000121,0.001140,0.695853,-0.093158,-0.704400,-0.104550
05824,NaN,9.763566,0.102919,-0.063510,-0.046140,-0.047751,-0.048600,-0.065251,-0.017980,0.227268,-0.516846,0.088623,-0.373047,0.097634,0.001140,-0.000627,0.999999,-0.000326,-0.000090,0.001136,0.695915,-0.094176,-0.704285,-0.104001
05825,NaN,9.599809,-0.102933,-0.217863,0.051840,-0.265006,-0.213655,-0.081084,-0.013589,0.225031,-0.521240,0.094971,-0.385986,0.095999,-0.000922,-0.002172,0.999999,-0.000405,-0.000068,0.001125,0.695945,-0.095258,-0.704184,-0.103497
05826,NaN,9.679861,0.043783,-0.292784,0.168550,-0.125104,-0.130577,-0.076008,-0.023049,0.216788,-0.521240,0.090576,-0.375244,0.096798,0.000542,-0.002917,0.999999,-0.000380,-0.000115,0.001084,0.695971,-0.096297,-0.704090,-0.102999
05827,NaN,10.007471,0.249346,-0.333693,0.265880,0.079454,0.199603,-0.060346,-0.004054,0.227146,-0.516846,0.090576,-0.379639,0.100072,0.002606,-0.003336,0.999999,-0.000302,-0.000020,0.001136,0.696044,-0.097309,-0.703963,-0.102419
05828,NaN,9.543076,-0.011388,-0.171291,0.048925,-0.101593,-0.268735,-0.034423,0.001287,0.229270,-0.517090,0.094971,-0.362549,0.095431,-0.000005,-0.001714,0.999999,-0.000172,0.000006,0.001146,0.696152,-0.098234,-0.703825,-0.101744
05829,NaN,9.544886,-0.490913,-0.174618,-0.076905,-0.542020,-0.269281,-0.012054,-0.017525,0.221892,-0.520996,0.090820,-0.381836,0.095454,-0.004803,-0.001738,0.999999,-0.000060,-0.000088,0.001109,0.696197,-0.099066,-0.703771,-0.101005
05830,NaN,9.258254,-0.207393,0.291467,-0.436481,-0.118604,-0.558574,0.000100,0.007880,0.205907,-0.521484,0.099121,-0.362549,0.092585,-0.001979,0.002911,0.999999,0.000000,0.000039,0.001030,0.696328,-0.099821,-0.703641,-0.100257
05831,NaN,9.651979,-0.593252,0.142020,-0.402429,-0.513132,-0.163462,0.015705,-0.054902,0.164988,-0.516846,0.094971,-0.379639,0.096524,-0.005853,0.001446,1.000000,0.000079,-0.000275,0.000825,0.696226,-0.100374,-0.703758,-0.099600
05832,NaN,10.452771,-0.337520,-0.070545,-0.133359,-0.307066,0.640409,0.016158,-0.031639,0.144145,-0.525879,0.099121,-0.360352,0.104530,-0.003300,-0.000689,1.000000,0.000081,-0.000158,0.000721,0.696234,-0.100912,-0.703763,-0.098953
05833,NaN,10.415714,0.479565,0.152543,-0.116485,0.554288,0.599782,0.015753,-0.009522,0.136397,-0.525635,0.094971,-0.375488,0.104154,0.004867,0.001531,1.000000,0.000079,-0.000048,0.000682,0.696276,-0.101342,-0.703735,-0.098418
05834,NaN,10.065065,0.185815,0.046367,-0.089272,0.256307,0.250540,-0.022564,-0.025561,0.146086,-0.525879,0.099121,-0.358398,0.100649,0.001932,0.000476,1.000000,-0.000113,-0.000128,0.000730,0.696298,-0.102001,-0.703688,-0.097921
05835,NaN,10.143385,0.009595,-0.144506,0.045609,0.049898,0.331505,-0.064111,-0.028775,0.161011,-0.517090,0.094971,-0.371094,0.101434,0.000177,-0.001431,1.000000,-0.000321,-0.000144,0.000805,0.696242,-0.102805,-0.703674,-0.097571
05836,NaN,9.898996,0.729144,-0.264023,0.370207,0.721807,0.083443,-0.130069,0.008977,0.177541,-0.517334,0.103516,-0.354004,0.098983,0.007378,-0.002649,0.999999,-0.000650,0.000045,0.000888,0.696344,-0.103911,-0.703437,-0.097381
05837,NaN,8.863652,0.464827,-0.589208,0.620703,0.380205,-0.947152,-0.191718,-0.035359,0.159330,-0.525879,0.101318,-0.371338,0.088634,0.004713,-0.005881,0.999999,-0.000959,-0.000177,0.000797,0.696197,-0.105156,-0.703384,-0.097482
05838,NaN,9.688539,-0.820979,-0.688477,0.342247,-0.857048,-0.108869,-0.159283,-0.086581,0.155201,-0.526123,0.109863,-0.352051,0.096895,-0.008140,-0.006836,0.999999,-0.000796,-0.000433,0.000776,0.695889,-0.106268,-0.703521,-0.097487
05839,NaN,10.461124,-0.665813,0.052554,-0.331947,-0.470086,0.653926,-0.066909,-0.016460,0.157645,-0.525879,0.105713,-0.366943,0.104616,-0.006575,0.000536,1.000000,-0.000335,-0.000082,0.000788,0.695872,-0.107064,-0.703461,-0.097165
05840,NaN,9.583725,-0.243161,0.551241,-0.678033,0.079700,-0.234343,-0.046384,0.003493,0.142267,-0.523926,0.109863,-0.349854,0.095839,-0.002362,0.005511,1.000000,-0.000232,0.000017,0.000711,0.695923,-0.107759,-0.703355,-0.096799
05841,NaN,9.895569,-0.540596,0.051112,-0.284412,-0.330686,0.088165,-0.071548,-0.028463,0.112203,-0.525879,0.105713,-0.360596,0.098959,-0.005350,0.000527,1.000000,-0.000358,-0.000142,0.000561,0.695839,-0.108416,-0.703359,-0.096645
05842,NaN,9.994586,0.134341,-0.370410,0.315557,0.208615,0.182506,-0.130660,0.007373,0.110156,-0.528320,0.107666,-0.345703,0.099945,0.001396,-0.003709,1.000000,-0.000653,0.000037,0.000551,0.695885,-0.109305,-0.703172,-0.096674
05843,NaN,9.567512,0.367938,-0.558760,0.569710,0.379793,-0.246285,-0.146509,-0.010853,0.117788,-0.526123,0.107910,-0.364990,0.095673,0.003732,-0.005585,1.000000,-0.000733,-0.000054,0.000589,0.695823,-0.110234,-0.703074,-0.096774
05844,NaN,10.128364,-0.163239,-0.618281,0.470480,-0.122224,0.324194,-0.137799,-0.026411,0.137381,-0.532715,0.112061,-0.341309,0.101286,-0.001567,-0.006168,1.000000,-0.000689,-0.000132,0.000687,0.695719,-0.111222,-0.703024,-0.096752
05845,NaN,9.875892,0.041851,-0.382513,0.310678,0.150896,0.064660,-0.151821,0.029328,0.167586,-0.526123,0.107910,-0.356201,0.098758,0.000498,-0.003840,0.999999,-0.000759,0.000147,0.000838,0.695819,-0.112325,-0.702755,-0.096719
05846,NaN,9.827518,-0.193370,-0.345930,0.212269,-0.048293,0.020408,-0.142818,-0.004936,0.186162,-0.532715,0.112061,-0.339355,0.098277,-0.001845,-0.003456,0.999999,-0.000714,-0.000025,0.000931,0.695775,-0.113485,-0.702633,-0.096565
05847,NaN,9.955798,-0.187819,-0.180417,0.061994,0.027071,0.146285,-0.119254,0.038042,0.215322,-0.530518,0.109863,-0.347900,0.099560,-0.001772,-0.001822,0.999999,-0.000596,0.000190,0.001077,0.695945,-0.114637,-0.702320,-0.096256
05848,NaN,9.250676,0.178879,0.313923,-0.290075,0.523087,-0.574302,-0.106381,0.038263,0.217376,-0.530762,0.114258,-0.337158,0.092505,0.001891,0.003121,0.999999,-0.000532,0.000191,0.001087,0.696079,-0.115757,-0.702053,-0.095891
05849,NaN,10.114117,-0.435335,-0.097574,-0.076028,-0.139302,0.310018,-0.112682,-0.032219,0.227606,-0.530518,0.112061,-0.349854,0.101146,-0.004239,-0.000957,0.999999,-0.000563,-0.000161,0.001138,0.696009,-0.116964,-0.701979,-0.095476
05850,NaN,10.046868,-0.394369,-0.128446,-0.028391,-0.088278,0.242308,-0.134119,0.025964,0.255187,-0.537109,0.114258,-0.328613,0.100473,-0.003816,-0.001295,0.999999,-0.000671,0.000130,0.001276,0.696121,-0.118305,-0.701697,-0.095083
05851,NaN,9.765964,0.126139,-0.147089,0.154612,0.417143,-0.054940,-0.157001,0.008234,0.264466,-0.534912,0.112061,-0.350098,0.097658,0.001389,-0.001476,0.999999,-0.000785,0.000041,0.001322,0.696182,-0.119775,-0.701436,-0.094718
05852,NaN,9.734335,0.131618,-0.323631,0.333988,0.392272,-0.085723,-0.205767,0.031310,0.285128,-0.532715,0.114258,-0.328613,0.097341,0.001452,-0.003253,0.999998,-0.001029,0.000157,0.001426,0.696280,-0.121455,-0.701081,-0.094489
05853,NaN,9.522708,0.084749,-0.457376,0.457783,0.324529,-0.295157,-0.251975,0.006588,0.302687,-0.526367,0.116455,-0.343506,0.095226,0.000986,-0.004578,0.999998,-0.001260,0.000033,0.001513,0.696292,-0.123390,-0.700754,-0.094322
05854,NaN,10.052921,-0.305898,-0.423950,0.315184,0.011450,0.248872,-0.238193,0.012265,0.318928,-0.543945,0.120605,-0.320068,0.100534,-0.002904,-0.004242,0.999998,-0.001191,0.000061,0.001595,0.696292,-0.125281,-0.700447,-0.094106
05855,NaN,9.632198,-0.278340,-0.086073,0.013131,0.152166,-0.177299,-0.220922,0.040154,0.340340,-0.545898,0.118408,-0.335205,0.096326,-0.002620,-0.000877,0.999998,-0.001105,0.000201,0.001702,0.696453,-0.127223,-0.699989,-0.093720
05856,NaN,9.935631,-0.615333,-0.312359,0.135642,-0.193380,0.144072,-0.215504,0.020893,0.352528,-0.539307,0.114258,-0.313721,0.099367,-0.005982,-0.003127,0.999998,-0.001078,0.000104,0.001763,0.696501,-0.129144,-0.699643,-0.093316
05857,NaN,9.513158,-0.136066,-0.235475,0.224749,0.295811,-0.302902,-0.203215,0.082844,0.376021,-0.541504,0.118408,-0.335205,0.095133,-0.001184,-0.002393,0.999998,-0.001016,0.000414,0.001880,0.696834,-0.131128,-0.699015,-0.092771
05858,NaN,9.306552,0.057511,0.184258,-0.100631,0.630878,-0.526088,-0.161994,0.018142,0.391113,-0.543945,0.122803,-0.313721,0.093064,0.000759,0.001834,0.999998,-0.000810,0.000091,0.001956,0.696913,-0.132998,-0.698679,-0.092043
05859,NaN,10.417275,-0.891785,0.287113,-0.475995,-0.134631,0.634919,-0.157468,0.004591,0.411797,-0.546143,0.126953,-0.322510,0.104191,-0.008701,0.002876,0.999998,-0.000787,0.000023,0.002059,0.697012,-0.134983,-0.698315,-0.091161
05860,NaN,9.747910,-0.384183,0.336176,-0.354001,0.359831,-0.064487,-0.200386,0.042071,0.441970,-0.546143,0.124756,-0.307373,0.097488,-0.003623,0.003345,0.999997,-0.001002,0.000210,0.002210,0.697193,-0.137142,-0.697811,-0.090413
05861,NaN,9.668549,-0.217279,-0.152871,0.175960,0.397994,-0.150290,-0.256726,-0.021055,0.441515,-0.550537,0.125000,-0.322510,0.096690,-0.001961,-0.001516,0.999997,-0.001284,-0.000105,0.002208,0.697141,-0.139587,-0.697463,-0.089755
05862,NaN,10.014336,-0.494035,-0.819328,0.732385,-0.012893,0.220536,-0.295012,-0.025973,0.462449,-0.546387,0.126953,-0.301025,0.100156,-0.004721,-0.008173,0.999996,-0.001475,-0.000130,0.002312,0.697033,-0.142159,-0.697117,-0.089236
05863,NaN,9.726730,-0.064583,-0.462740,0.541805,0.529236,-0.104249,-0.238162,-0.011937,0.477316,-0.552490,0.125000,-0.313965,0.097269,-0.000419,-0.004621,0.999996,-0.001191,-0.000060,0.002387,0.697033,-0.144658,-0.696711,-0.088394
05864,NaN,9.906167,-0.980583,-0.133062,-0.055176,-0.169695,0.141174,-0.194288,-0.041804,0.493914,-0.559570,0.137695,-0.292725,0.099086,-0.009562,-0.001301,0.999996,-0.000971,-0.000209,0.002470,0.696912,-0.146980,-0.696469,-0.087418
05865,NaN,9.600592,-1.440919,-0.156440,-0.176682,-0.589237,-0.122822,-0.210606,-0.003195,0.487862,-0.559570,0.135498,-0.305420,0.096041,-0.014177,-0.001548,0.999996,-0.001053,-0.000016,0.002439,0.696957,-0.149413,-0.696027,-0.086449
05866,NaN,9.150378,-0.853674,0.023807,-0.150500,0.024849,-0.623818,-0.194475,-0.004638,0.468965,-0.559570,0.135498,-0.294678,0.091523,-0.008322,0.000248,0.999997,-0.000972,-0.000023,0.002345,0.696953,-0.151663,-0.695655,-0.085554
05867,NaN,10.144611,-1.317687,-0.260333,-0.007424,-0.369948,0.413754,-0.187958,-0.039087,0.460014,-0.559570,0.135498,-0.301270,0.101477,-0.012946,-0.002571,0.999997,-0.000940,-0.000195,0.002300,0.696869,-0.153934,-0.695360,-0.084575
05868,NaN,9.905169,-1.011871,-0.398371,0.229833,-0.108508,0.148748,-0.181454,0.000906,0.458750,-0.563965,0.142090,-0.284180,0.099075,-0.009895,-0.003975,0.999997,-0.000907,0.000005,0.002294,0.696888,-0.156115,-0.694966,-0.083658
05869,NaN,9.706197,-1.115350,-0.469984,0.271004,-0.206490,-0.037264,-0.128767,-0.025409,0.456796,-0.559570,0.139893,-0.294922,0.097088,-0.010935,-0.004680,0.999997,-0.000644,-0.000127,0.002284,0.696888,-0.158161,-0.694642,-0.082494
05870,NaN,9.461201,-1.260063,-0.204771,-0.022093,-0.237134,-0.268730,-0.134943,-0.003175,0.462987,-0.563965,0.139893,-0.275635,0.094641,-0.012383,-0.002038,0.999997,-0.000675,-0.000016,0.002315,0.696910,-0.160206,-0.694281,-0.081387
05871,NaN,9.624640,-1.253301,0.162721,-0.350208,-0.046307,-0.111864,-0.152220,-0.026599,0.464290,-0.572754,0.148438,-0.290771,0.096275,-0.012308,0.001649,0.999997,-0.000761,-0.000133,0.002321,0.696883,-0.162359,-0.693938,-0.080276
05872,NaN,10.367473,-1.986839,-0.166310,-0.260856,-0.713368,0.717391,-0.184338,-0.029092,0.457259,-0.566406,0.148438,-0.273438,0.103720,-0.019633,-0.001630,0.999997,-0.000922,-0.000145,0.002286,0.696777,-0.164576,-0.693631,-0.079326
05873,NaN,9.714227,-1.633275,-0.503623,0.170594,-0.531890,0.034916,-0.156769,0.006029,0.417288,-0.568359,0.144043,-0.288574,0.097176,-0.016134,-0.005026,0.999998,-0.000784,0.000030,0.002086,0.696833,-0.166567,-0.693203,-0.078421
05874,NaN,9.804190,-1.505405,-0.443448,0.171256,-0.342613,0.108914,-0.105982,0.007841,0.406946,-0.574951,0.148438,-0.269287,0.098072,-0.014857,-0.004430,0.999998,-0.000530,0.000039,0.002035,0.696891,-0.168355,-0.692830,-0.077369
05875,NaN,9.630500,-1.058266,-0.082581,-0.005522,0.211879,-0.126191,-0.061742,0.042016,0.399947,-0.579346,0.146240,-0.280029,0.096326,-0.010390,-0.000843,0.999998,-0.000309,0.000210,0.002000,0.697138,-0.169939,-0.692322,-0.076225
05876,NaN,9.687784,-1.041591,0.203643,-0.251706,0.368925,-0.077188,-0.061126,0.035561,0.403021,-0.579590,0.154785,-0.267334,0.096899,-0.010220,0.002022,0.999998,-0.000306,0.000178,0.002015,0.697321,-0.171547,-0.691869,-0.075052
05877,NaN,9.965782,-1.520895,-0.017189,-0.184409,-0.078749,0.266493,-0.108338,0.019268,0.400055,-0.581543,0.150635,-0.282227,0.099688,-0.015010,-0.000173,0.999998,-0.000542,0.000096,0.002000,0.697443,-0.173301,-0.691416,-0.074049
05878,NaN,9.798382,-1.732179,-0.586509,0.285196,-0.456142,0.140362,-0.135641,0.022541,0.403479,-0.579590,0.152588,-0.262939,0.098018,-0.017128,-0.005864,0.999998,-0.000678,0.000113,0.002017,0.697526,-0.175168,-0.690960,-0.073126
05879,NaN,9.654146,-1.697351,-0.799275,0.505752,-0.480934,-0.002735,-0.104177,0.028678,0.406285,-0.579346,0.150635,-0.280029,0.096575,-0.016782,-0.007998,0.999998,-0.000521,0.000143,0.002031,0.697681,-0.176924,-0.690465,-0.072094
05880,NaN,9.325834,-1.206936,-0.233987,0.148262,0.158570,-0.408679,-0.042258,0.063108,0.415282,-0.579834,0.159180,-0.260986,0.093282,-0.011876,-0.002367,0.999998,-0.000211,0.000316,0.002076,0.697963,-0.178508,-0.689903,-0.070827
05881,NaN,9.616258,-1.297942,0.245209,-0.303253,0.319391,-0.116137,-0.028611,0.043082,0.425461,-0.581543,0.152832,-0.280029,0.096190,-0.012774,0.002433,0.999998,-0.000143,0.000215,0.002127,0.698235,-0.180060,-0.689361,-0.069479
05882,NaN,10.132070,-1.780118,0.133502,-0.327446,-0.048296,0.470103,-0.070363,0.040528,0.426217,-0.583984,0.159180,-0.258789,0.101359,-0.017585,0.001321,0.999998,-0.000352,0.000203,0.002131,0.698422,-0.181774,-0.688844,-0.068262
05883,NaN,9.511302,-1.518446,-0.211554,0.077617,0.016055,-0.178951,-0.101214,0.037834,0.423085,-0.583984,0.156982,-0.273682,0.095144,-0.014984,-0.002126,0.999998,-0.000506,0.000189,0.002115,0.698603,-0.183571,-0.688291,-0.067167
05884,NaN,9.745481,-1.829493,-0.321322,0.097799,-0.233671,0.104993,-0.083729,0.021796,0.425967,-0.586182,0.154785,-0.256592,0.097493,-0.018089,-0.003216,0.999998,-0.000419,0.000109,0.002130,0.698714,-0.185336,-0.687820,-0.065977
05885,NaN,9.727164,-1.643664,-0.279911,0.139113,-0.012592,0.055345,-0.065636,0.047171,0.417497,-0.588379,0.159180,-0.275879,0.097305,-0.016234,-0.002817,0.999998,-0.000328,0.000236,0.002087,0.698951,-0.186985,-0.687245,-0.064788
05886,NaN,9.429299,-1.458774,0.080788,-0.130810,0.271296,-0.275634,-0.045569,0.065827,0.413543,-0.590576,0.161377,-0.252441,0.094323,-0.014393,0.000780,0.999998,-0.000228,0.000329,0.002068,0.699235,-0.188561,-0.686642,-0.063548
05887,NaN,9.655283,-1.739776,-0.014102,-0.110726,0.053849,-0.002682,-0.069391,0.039433,0.416196,-0.590576,0.161377,-0.271729,0.096589,-0.017197,-0.000154,0.999998,-0.000347,0.000197,0.002081,0.699435,-0.190220,-0.686088,-0.062368
05888,NaN,9.593538,-1.959266,-0.148862,-0.048744,-0.169349,-0.021586,-0.080193,0.033968,0.396882,-0.590820,0.169922,-0.248291,0.095974,-0.019403,-0.001497,0.999998,-0.000401,0.000170,0.001984,0.699574,-0.191861,-0.685587,-0.061281
05889,NaN,9.614407,-2.111564,-0.178553,-0.058612,-0.280318,0.028312,-0.079783,0.018145,0.390719,-0.592773,0.163330,-0.267578,0.096185,-0.020928,-0.001786,0.999998,-0.000399,0.000091,0.001954,0.699678,-0.193474,-0.685123,-0.060206
05890,NaN,9.612441,-2.262582,0.019395,-0.284305,-0.312903,0.053407,-0.073660,0.002623,0.384218,-0.595215,0.167725,-0.243896,0.096168,-0.022441,0.000201,0.999998,-0.000368,0.000013,0.001921,0.699708,-0.195065,-0.684737,-0.059101
05891,NaN,9.559907,-2.114247,0.196338,-0.390042,-0.087644,-0.027981,-0.096987,-0.022053,0.382400,-0.599609,0.169922,-0.265381,0.095639,-0.020959,0.001984,0.999998,-0.000485,-0.000110,0.001912,0.699650,-0.196720,-0.684411,-0.058074
05892,NaN,9.731016,-2.096059,0.074150,-0.250578,-0.045916,0.138525,-0.091460,-0.017831,0.354729,-0.601562,0.167725,-0.244141,0.097347,-0.020788,0.000760,0.999998,-0.000457,-0.000089,0.001774,0.699591,-0.198284,-0.684102,-0.057103
05893,NaN,9.497092,-2.028926,-0.172737,-0.001597,-0.084088,-0.100120,-0.092636,-0.028523,0.331410,-0.597168,0.163330,-0.263184,0.095005,-0.020133,-0.001704,0.999999,-0.000463,-0.000143,0.001657,0.699495,-0.199750,-0.683846,-0.056233
05894,NaN,9.589908,-2.201976,-0.256615,0.027779,-0.221898,0.027576,-0.081692,-0.041535,0.319772,-0.599609,0.174072,-0.244141,0.095935,-0.021867,-0.002537,0.999999,-0.000408,-0.000208,0.001599,0.699354,-0.201167,-0.683648,-0.055326
05895,NaN,9.450112,-2.103133,-0.064515,-0.119639,-0.060379,-0.132092,-0.062584,-0.046578,0.302655,-0.597412,0.171875,-0.252686,0.094533,-0.020888,-0.000617,0.999999,-0.000313,-0.000233,0.001513,0.699215,-0.202433,-0.683488,-0.054434
05896,NaN,9.527847,-2.287092,0.209993,-0.431792,-0.084239,-0.021818,-0.051715,-0.062845,0.292237,-0.599609,0.171875,-0.239746,0.095311,-0.022731,0.002136,0.999999,-0.000259,-0.000314,0.001461,0.699021,-0.203659,-0.683396,-0.053496
05897,NaN,9.622992,-2.455107,0.214526,-0.486869,-0.187837,0.107150,-0.071168,-0.065714,0.266272,-0.601807,0.174072,-0.254883,0.096262,-0.024422,0.002186,0.999999,-0.000356,-0.000329,0.001331,0.698795,-0.204835,-0.683335,-0.052741
05898,NaN,9.467392,-2.417733,-0.044782,-0.239995,-0.251623,-0.047546,-0.100278,-0.078098,0.235153,-0.604248,0.178467,-0.237793,0.094702,-0.024066,-0.000399,0.999999,-0.000501,-0.000390,0.001176,0.698496,-0.206042,-0.683323,-0.052145
05899,NaN,9.561252,-2.556295,-0.246069,-0.097312,-0.406288,0.078629,-0.097854,-0.085265,0.211845,-0.599854,0.176270,-0.246338,0.095641,-0.025463,-0.002407,0.999999,-0.000489,-0.000426,0.001059,0.698158,-0.207130,-0.683377,-0.051652
05900,NaN,9.379398,-2.389494,-0.258852,-0.038971,-0.275118,-0.134229,-0.083333,-0.077808,0.182013,-0.604004,0.174072,-0.235596,0.093817,-0.023811,-0.002542,0.999999,-0.000417,-0.000389,0.000910,0.697863,-0.208105,-0.683418,-0.051174
05901,NaN,9.476643,-2.421919,-0.056190,-0.236109,-0.191889,-0.036031,-0.067039,-0.077710,0.164440,-0.602051,0.180664,-0.246338,0.094787,-0.024141,-0.000517,1.000000,-0.000335,-0.000389,0.000822,0.697570,-0.208920,-0.683501,-0.050749
05902,NaN,9.532132,-2.445023,-0.119680,-0.184071,-0.205375,0.024889,-0.072706,-0.076114,0.141566,-0.602295,0.182617,-0.231445,0.095339,-0.024383,-0.001152,1.000000,-0.000364,-0.000381,0.000708,0.697281,-0.209724,-0.683577,-0.050372
05903,NaN,9.436257,-2.345958,-0.061657,-0.212668,-0.099594,-0.091828,-0.077268,-0.086055,0.128965,-0.604492,0.184814,-0.246338,0.094378,-0.023399,-0.000567,1.000000,-0.000386,-0.000430,0.000645,0.696938,-0.210455,-0.683722,-0.050096
05904,NaN,9.644239,-2.436922,-0.093227,-0.208306,-0.132073,0.132049,-0.089383,-0.098521,0.108328,-0.604248,0.180420,-0.233398,0.096456,-0.024317,-0.000874,1.000000,-0.000447,-0.000493,0.000542,0.696550,-0.211211,-0.683902,-0.049865
05905,NaN,9.562049,-2.520952,-0.081055,-0.262119,-0.208646,0.070748,-0.097259,-0.097361,0.085719,-0.604492,0.187012,-0.242188,0.095632,-0.025169,-0.000752,1.000000,-0.000486,-0.000487,0.000429,0.696135,-0.211867,-0.684126,-0.049797
05906,NaN,9.519586,-2.511459,-0.052211,-0.295589,-0.186549,0.026544,-0.098676,-0.100931,0.060943,-0.606689,0.184814,-0.229248,0.095204,-0.025086,-0.000462,1.000000,-0.000493,-0.000505,0.000305,0.695720,-0.212494,-0.684357,-0.049757
05907,NaN,9.616886,-2.590082,-0.316205,-0.082080,-0.323469,0.146310,-0.120617,-0.094577,0.035050,-0.606445,0.180664,-0.237793,0.096175,-0.025886,-0.003101,1.000000,-0.000603,-0.000473,0.000175,0.695277,-0.213057,-0.684618,-0.049947
05908,NaN,9.511101,-2.514701,-0.637163,0.228715,-0.388690,0.035528,-0.126444,-0.079927,0.006878,-0.606445,0.180420,-0.222900,0.095114,-0.025148,-0.006318,1.000000,-0.000632,-0.000400,0.000034,0.694891,-0.213595,-0.684823,-0.050207
05909,NaN,9.637637,-2.653103,-0.684474,0.220278,-0.500107,0.191955,-0.091697,-0.067350,-0.013144,-0.611084,0.189209,-0.238037,0.096377,-0.026540,-0.006800,1.000000,-0.000458,-0.000337,-0.000066,0.694559,-0.213886,-0.685048,-0.050495
05910,NaN,9.682328,-2.526177,-0.479252,0.070929,-0.298452,0.200535,-0.052712,-0.047317,-0.036441,-0.604492,0.187012,-0.229248,0.096820,-0.025281,-0.004763,1.000000,-0.000264,-0.000237,-0.000182,0.694342,-0.214019,-0.685213,-0.050682
05911,NaN,9.554382,-2.575511,-0.385556,-0.047094,-0.340432,0.084282,-0.011633,-0.023231,-0.065271,-0.606689,0.187012,-0.239990,0.095536,-0.025787,-0.003843,1.000000,-0.000058,-0.000116,-0.000326,0.694233,-0.213842,-0.685360,-0.050923
05912,NaN,9.644277,-2.642393,-0.228229,-0.216941,-0.327756,0.181907,0.006218,-0.022437,-0.092857,-0.613281,0.189209,-0.220947,0.096431,-0.026469,-0.002272,1.000000,0.000031,-0.000112,-0.000464,0.694145,-0.213576,-0.685517,-0.051127
05913,NaN,9.648463,-2.589183,-0.288811,-0.146159,-0.310079,0.175435,0.017601,-0.013974,-0.115657,-0.608887,0.189209,-0.235840,0.096470,-0.025947,-0.002884,1.000000,0.000088,-0.000070,-0.000578,0.694086,-0.213122,-0.685694,-0.051453
05914,NaN,9.669744,-2.585340,-0.355116,-0.085859,-0.335879,0.197000,0.040474,-0.005113,-0.139194,-0.613281,0.189209,-0.225098,0.096680,-0.025920,-0.003554,1.000000,0.000202,-0.000026,-0.000696,0.694084,-0.212578,-0.685845,-0.051713
05915,NaN,9.599720,-2.452208,-0.299558,-0.097655,-0.224208,0.096796,0.051969,-0.006695,-0.154121,-0.606445,0.182617,-0.244385,0.095978,-0.024595,-0.002999,1.000000,0.000260,-0.000033,-0.000771,0.694076,-0.211870,-0.686045,-0.052063
05916,NaN,9.717701,-2.399663,-0.128240,-0.235929,-0.101190,0.194441,0.075351,-0.010643,-0.166795,-0.608643,0.180420,-0.227051,0.097157,-0.024077,-0.001286,1.000000,0.000377,-0.000053,-0.000834,0.694084,-0.211114,-0.686254,-0.052291
05917,NaN,9.679447,-2.259458,-0.029238,-0.285544,0.037500,0.122842,0.058954,-0.021447,-0.180267,-0.606201,0.176270,-0.235596,0.096774,-0.022682,-0.000289,1.000000,0.000295,-0.000107,-0.000901,0.694025,-0.210297,-0.686533,-0.052691
05918,NaN,9.733363,-2.245665,-0.052815,-0.262909,0.038708,0.172978,0.061332,-0.039491,-0.184231,-0.610840,0.180420,-0.222900,0.097313,-0.022546,-0.000516,1.000000,0.000307,-0.000197,-0.000921,0.693919,-0.209533,-0.686850,-0.053000
05919,NaN,9.708989,-2.290178,-0.001983,-0.337700,-0.004883,0.157031,0.066628,-0.061356,-0.198028,-0.608398,0.176270,-0.233398,0.097067,-0.022998,0.000002,0.999999,0.000333,-0.000307,-0.000990,0.693725,-0.208638,-0.687288,-0.053394
05920,NaN,9.808113,-2.305564,-0.031203,-0.322231,-0.023339,0.257629,0.062227,-0.078097,-0.204002,-0.604248,0.180420,-0.220703,0.098058,-0.023156,-0.000281,0.999999,0.000311,-0.000390,-0.001020,0.693487,-0.207809,-0.687753,-0.053730
05921,NaN,9.737568,-2.183123,-0.034974,-0.291480,0.054459,0.162257,0.067039,-0.082218,-0.211786,-0.604492,0.184814,-0.237793,0.097353,-0.021934,-0.000317,0.999999,0.000335,-0.000411,-0.001059,0.693217,-0.206870,-0.688276,-0.054148
05922,NaN,9.600208,-2.248345,-0.105240,-0.268460,-0.074611,0.043906,0.063235,-0.085379,-0.215770,-0.608643,0.178467,-0.218506,0.095978,-0.022587,-0.001019,0.999999,0.000316,-0.000427,-0.001079,0.692956,-0.205994,-0.688771,-0.054518
05923,NaN,9.584677,-2.386770,-0.187568,-0.256577,-0.251219,0.059946,0.070997,-0.093627,-0.229476,-0.608398,0.174072,-0.235596,0.095820,-0.023977,-0.001839,0.999999,0.000355,-0.000468,-0.001147,0.692644,-0.204984,-0.689351,-0.054972
05924,NaN,9.794245,-2.306960,-0.362908,-0.068852,-0.215995,0.253571,0.107768,-0.093675,-0.246025,-0.601807,0.174072,-0.227051,0.097916,-0.023188,-0.003596,0.999999,0.000539,-0.000468,-0.001230,0.692393,-0.203851,-0.689913,-0.055283
05925,NaN,9.744332,-2.356481,-0.481944,0.008267,-0.335489,0.218494,0.145396,-0.079017,-0.266683,-0.601807,0.169922,-0.237549,0.097414,-0.023691,-0.004798,0.999999,0.000727,-0.000395,-0.001333,0.692194,-0.202450,-0.690498,-0.055623
05926,NaN,9.799461,-2.510965,-0.484310,-0.053343,-0.488853,0.302996,0.206794,-0.064673,-0.295746,-0.601807,0.174072,-0.220459,0.097959,-0.025250,-0.004837,0.999998,0.001034,-0.000323,-0.001479,0.692124,-0.200796,-0.691037,-0.055792
05927,NaN,9.717055,-2.446063,-0.368289,-0.152095,-0.433667,0.203735,0.265231,-0.042035,-0.331646,-0.601562,0.167725,-0.235352,0.097131,-0.024617,-0.003695,0.999998,0.001326,-0.000210,-0.001658,0.692151,-0.198744,-0.691588,-0.055981
05928,NaN,9.662553,-2.221732,-0.209177,-0.231717,-0.213818,0.099188,0.289116,-0.031228,-0.362794,-0.597412,0.169678,-0.224854,0.096585,-0.022390,-0.002109,0.999997,0.001446,-0.000156,-0.001814,0.692253,-0.196569,-0.692096,-0.056124
05929,NaN,9.485121,-2.304959,-0.257560,-0.230930,-0.376632,-0.058130,0.259732,-0.019633,-0.384352,-0.599365,0.163330,-0.243896,0.094807,-0.023228,-0.002596,0.999997,0.001299,-0.000098,-0.001922,0.692331,-0.194345,-0.692612,-0.056536
05930,NaN,9.435656,-2.354881,-0.293202,-0.224034,-0.479145,-0.097589,0.301771,-0.023880,-0.404271,-0.597168,0.163330,-0.226807,0.094309,-0.023735,-0.002956,0.999997,0.001509,-0.000119,-0.002021,0.692452,-0.191981,-0.693130,-0.056783
05931,NaN,9.764843,-2.039249,-0.059694,-0.332394,-0.085108,0.157087,0.329579,-0.018695,-0.403096,-0.597168,0.161377,-0.246094,0.097607,-0.020588,-0.000622,0.999997,0.001648,-0.000093,-0.002015,0.692587,-0.189448,-0.693672,-0.057018
05932,NaN,9.925090,-1.620929,-0.104024,-0.152170,0.277456,0.239445,0.301336,-0.032429,-0.416011,-0.596924,0.156982,-0.226807,0.099217,-0.016414,-0.001049,0.999997,0.001507,-0.000162,-0.002080,0.692670,-0.187046,-0.694218,-0.057296
05933,NaN,9.885700,-1.568544,-0.153789,-0.102306,0.263140,0.193870,0.283029,-0.053084,-0.409667,-0.588379,0.159180,-0.241699,0.098825,-0.015886,-0.001534,0.999997,0.001415,-0.000265,-0.002048,0.692631,-0.184659,-0.694864,-0.057683
05934,NaN,9.851042,-1.567927,-0.269122,-0.007655,0.184132,0.164275,0.272311,-0.064486,-0.388898,-0.590576,0.154785,-0.224365,0.098481,-0.015867,-0.002681,0.999997,0.001362,-0.000322,-0.001944,0.692578,-0.182450,-0.695478,-0.057947
05935,NaN,9.659939,-1.545557,-0.521286,0.218236,0.054290,-0.018596,0.247388,-0.064734,-0.364958,-0.592529,0.152588,-0.241699,0.096573,-0.015625,-0.005201,0.999998,0.001237,-0.000324,-0.001825,0.692471,-0.180342,-0.696105,-0.058291
05936,NaN,9.516998,-1.311907,-0.629071,0.382083,0.182300,-0.194435,0.250704,-0.057246,-0.347219,-0.588135,0.152588,-0.226562,0.095149,-0.013276,-0.006280,0.999998,0.001254,-0.000286,-0.001736,0.692426,-0.178343,-0.696648,-0.058500
05937,NaN,9.264465,-1.182339,-0.516990,0.301025,0.269836,-0.467527,0.252307,-0.063602,-0.316164,-0.592529,0.152588,-0.245850,0.092627,-0.011963,-0.005155,0.999998,0.001262,-0.000318,-0.001581,0.692336,-0.176386,-0.697222,-0.058659
05938,NaN,9.272277,-1.274093,-0.502300,0.245621,0.168235,-0.444547,0.210400,-0.088481,-0.275916,-0.588135,0.152588,-0.230957,0.092707,-0.012864,-0.004995,0.999998,0.001052,-0.000442,-0.001380,0.692155,-0.174774,-0.697800,-0.058743
05939,NaN,9.186449,-1.397808,-0.455878,0.146618,0.033974,-0.510545,0.185590,-0.098616,-0.244453,-0.588135,0.148438,-0.243652,0.091850,-0.014086,-0.004527,0.999999,0.000928,-0.000493,-0.001222,0.691900,-0.173308,-0.698409,-0.058855
05940,NaN,9.232578,-1.556039,-0.513305,0.139234,-0.140940,-0.437937,0.198382,-0.090929,-0.214390,-0.583984,0.150391,-0.228760,0.092311,-0.015654,-0.005107,0.999999,0.000992,-0.000455,-0.001072,0.691710,-0.171947,-0.698940,-0.058772
05941,NaN,9.678876,-1.503895,-0.491021,0.135292,-0.030460,-0.006353,0.262189,-0.010649,-0.179841,-0.583496,0.144043,-0.243652,0.096775,-0.015120,-0.004925,0.999999,0.001311,-0.000053,-0.000899,0.691845,-0.170415,-0.699207,-0.058469
05942,NaN,9.687538,-1.159987,-0.569994,0.322824,0.252939,-0.047922,0.310792,0.075783,-0.141922,-0.581543,0.144043,-0.235107,0.096865,-0.011660,-0.005755,0.999998,0.001554,0.000379,-0.000710,0.692348,-0.168867,-0.699133,-0.057887
05943,NaN,9.759394,-0.840223,-0.662649,0.519254,0.521703,-0.022435,0.288726,0.066889,-0.099968,-0.583496,0.144043,-0.247803,0.097588,-0.008441,-0.006671,0.999999,0.001444,0.000334,-0.000500,0.692796,-0.167499,-0.699069,-0.057279
05944,NaN,9.974648,-0.895117,-0.840501,0.679693,0.439724,0.204594,0.214065,0.041596,-0.084976,-0.579590,0.148438,-0.230713,0.099741,-0.008985,-0.008435,0.999999,0.001070,0.000208,-0.000425,0.693105,-0.166485,-0.699042,-0.056821
05945,NaN,10.092752,-1.056056,-0.829752,0.625716,0.303971,0.345239,0.198627,0.041717,-0.039839,-0.583740,0.150635,-0.250000,0.100924,-0.010572,-0.008329,0.999999,0.000993,0.000209,-0.000199,0.693404,-0.165646,-0.698987,-0.056299
05946,NaN,10.016563,-0.952184,-0.735071,0.572094,0.417286,0.250964,0.192269,0.035090,-0.003175,-0.581787,0.150391,-0.232910,0.100164,-0.009516,-0.007377,1.000000,0.000961,0.000175,-0.000016,0.693684,-0.164985,-0.698918,-0.055639
05947,NaN,10.056934,-1.167893,-0.519416,0.307462,0.287378,0.316408,0.200729,0.038968,0.024840,-0.576904,0.139893,-0.247803,0.100570,-0.011661,-0.005225,0.999999,0.001004,0.000195,0.000124,0.693992,-0.164365,-0.698818,-0.054883
05948,NaN,9.985149,-1.395585,-0.601585,0.324054,0.039481,0.282172,0.232612,0.072591,0.039343,-0.583740,0.144043,-0.232910,0.099852,-0.013929,-0.006068,0.999999,0.001163,0.000363,0.000197,0.694441,-0.163694,-0.698601,-0.053974
05949,NaN,10.261737,-1.616338,-0.781402,0.450121,-0.179673,0.593631,0.287165,0.161827,0.034626,-0.581299,0.141846,-0.250000,0.102614,-0.016134,-0.007920,0.999999,0.001436,0.000809,0.000173,0.695249,-0.162775,-0.698087,-0.052983
05950,NaN,9.841693,-1.453969,-0.721370,0.457974,-0.074442,0.151146,0.324464,0.225679,0.039698,-0.583496,0.139893,-0.237061,0.098412,-0.014508,-0.007348,0.999998,0.001622,0.001128,0.000198,0.696297,-0.161744,-0.697365,-0.051879
05951,NaN,9.990843,-1.234886,-0.677730,0.509658,0.165563,0.262728,0.247143,0.186801,0.028787,-0.583252,0.135498,-0.251953,0.099904,-0.012326,-0.006886,0.999999,0.001236,0.000934,0.000144,0.697155,-0.160936,-0.696754,-0.051067
05952,NaN,10.000938,-1.413322,-0.458184,0.268698,0.061652,0.294248,0.231689,0.178838,0.025356,-0.581299,0.139893,-0.237061,0.100007,-0.014115,-0.004688,0.999999,0.001158,0.000894,0.000127,0.697950,-0.160188,-0.696186,-0.050301
05953,NaN,9.945814,-1.487241,-0.422311,0.231653,-0.009084,0.249900,0.210699,0.164421,0.017342,-0.581055,0.133301,-0.254150,0.099456,-0.014859,-0.004321,0.999999,0.001053,0.000822,0.000087,0.698695,-0.159472,-0.695651,-0.049639
05954,NaN,10.037382,-1.402594,-0.448641,0.301928,0.074248,0.327376,0.197316,0.150250,0.010921,-0.587402,0.131348,-0.241211,0.100371,-0.014016,-0.004576,0.999999,0.000987,0.000751,0.000055,0.699354,-0.158798,-0.695186,-0.049022
05955,NaN,9.911931,-1.617206,-0.700870,0.494638,-0.224657,0.240063,0.205508,0.138147,-0.006086,-0.583008,0.126953,-0.251953,0.099114,-0.016168,-0.007094,0.999999,0.001028,0.000691,-0.000030,0.699996,-0.158025,-0.694757,-0.048438
05956,NaN,9.904417,-1.806121,-0.961164,0.704360,-0.484504,0.264638,0.238687,0.120786,-0.041611,-0.587158,0.122559,-0.241211,0.099035,-0.018070,-0.009693,0.999999,0.001193,0.000604,-0.000208,0.700565,-0.157031,-0.694450,-0.047838
05957,NaN,10.023078,-1.663990,-1.377875,1.161872,-0.457903,0.364240,0.274841,0.098086,-0.055969,-0.591553,0.122803,-0.251953,0.100219,-0.016649,-0.013851,0.999999,0.001374,0.000490,-0.000280,0.701108,-0.155851,-0.694215,-0.047157
05958,NaN,9.841482,-1.522870,-1.391349,1.218811,-0.360746,0.161986,0.310260,0.053691,-0.073599,-0.586914,0.116211,-0.243164,0.098405,-0.015243,-0.013964,0.999999,0.001551,0.000268,-0.000368,0.701475,-0.154516,-0.694196,-0.046365
05959,NaN,9.722147,-1.726986,-1.560731,1.327141,-0.624720,0.076040,0.359596,-0.006483,-0.084074,-0.595215,0.109863,-0.253906,0.097215,-0.017283,-0.015635,0.999998,0.001798,-0.000032,-0.000420,0.701710,-0.152964,-0.694365,-0.045406
05960,NaN,9.679337,-1.664356,-1.416134,1.205907,-0.535727,0.022142,0.437131,-0.039522,-0.116080,-0.591064,0.109863,-0.240967,0.096787,-0.016669,-0.014179,0.999997,0.002186,-0.000198,-0.000580,0.701819,-0.151063,-0.694746,-0.044248
05961,NaN,9.664149,-1.429695,-1.393650,1.247131,-0.314875,-0.028640,0.498556,-0.085266,-0.141877,-0.601074,0.092773,-0.255859,0.096637,-0.014331,-0.013931,0.999997,0.002493,-0.000426,-0.000709,0.701865,-0.148839,-0.695261,-0.042949
05962,NaN,9.536666,-1.403527,-1.419941,1.268577,-0.321010,-0.157545,0.548472,-0.138761,-0.165579,-0.605469,0.090576,-0.242920,0.095365,-0.014075,-0.014172,0.999996,0.002742,-0.000694,-0.000828,0.701676,-0.146399,-0.696057,-0.041501
05963,NaN,9.429348,-1.419777,-1.288064,1.124713,-0.323533,-0.261885,0.610308,-0.191746,-0.177837,-0.607178,0.079834,-0.255615,0.094293,-0.014242,-0.012834,0.999994,0.003052,-0.000959,-0.000889,0.701415,-0.143678,-0.696983,-0.039860
05964,NaN,9.211418,-1.316465,-1.070707,0.920124,-0.205916,-0.493854,0.666218,-0.235664,-0.193795,-0.609131,0.071289,-0.242676,0.092114,-0.013218,-0.010642,0.999993,0.003331,-0.001178,-0.000969,0.700939,-0.140745,-0.698162,-0.038028
05965,NaN,8.996436,-1.152495,-0.666724,0.548247,0.013247,-0.734811,0.703637,-0.265912,-0.206293,-0.615234,0.064941,-0.253174,0.089961,-0.011594,-0.006588,0.999992,0.003518,-0.001330,-0.001031,0.700461,-0.137609,-0.699367,-0.036107
05966,NaN,8.893894,-0.793175,-0.280026,0.234505,0.427464,-0.892423,0.667368,-0.296745,-0.225869,-0.621582,0.062744,-0.242676,0.088934,-0.008023,-0.002695,0.999993,0.003337,-0.001484,-0.001129,0.699740,-0.134568,-0.700768,-0.034341
05967,NaN,8.764079,-0.535247,0.210357,-0.209646,0.759517,-1.065178,0.599736,-0.315760,-0.224785,-0.625244,0.045654,-0.252930,0.087631,-0.005458,0.002226,0.999994,0.002999,-0.001579,-0.001124,0.698994,-0.131736,-0.702123,-0.032813
05968,NaN,8.682441,-0.371227,0.623531,-0.607013,0.986428,-1.177308,0.522597,-0.334549,-0.225892,-0.627441,0.045654,-0.240234,0.086810,-0.003827,0.006371,0.999995,0.002613,-0.001673,-0.001129,0.698032,-0.129194,-0.703609,-0.031536
05969,NaN,8.483857,-0.361664,1.134223,-1.134920,1.066202,-1.388427,0.452233,-0.323185,-0.215380,-0.629150,0.030518,-0.252930,0.084816,-0.003734,0.011471,0.999996,0.002261,-0.001616,-0.001077,0.697150,-0.126909,-0.704945,-0.030488
05970,NaN,8.545840,-0.249567,1.673806,-1.667917,1.283351,-1.358916,0.392802,-0.305266,-0.217750,-0.633545,0.030518,-0.237793,0.085430,-0.002622,0.016863,0.999996,0.001964,-0.001526,-0.001089,0.696214,-0.124828,-0.706274,-0.029669
05971,NaN,8.741236,-0.124397,2.211170,-2.193782,1.526142,-1.200367,0.301155,-0.259119,-0.224924,-0.637451,0.024170,-0.246338,0.087382,-0.001376,0.022223,0.999997,0.001506,-0.001296,-0.001125,0.695452,-0.123024,-0.707360,-0.029226
05972,NaN,8.771997,-0.201584,2.777280,-2.789796,1.555285,-1.181355,0.148773,-0.219666,-0.216039,-0.644043,0.026367,-0.233643,0.087687,-0.002131,0.027868,0.999999,0.000744,-0.001098,-0.001080,0.694693,-0.121767,-0.708318,-0.029331
05973,NaN,8.990352,-0.527562,3.016485,-3.116868,1.303064,-0.936256,-0.079534,-0.208424,-0.201068,-0.642090,0.028564,-0.242188,0.089867,-0.005354,0.030261,0.999999,-0.000398,-0.001042,-0.001005,0.693876,-0.121362,-0.709152,-0.030183
05974,NaN,9.393637,-1.081313,3.046046,-3.290180,0.817449,-0.474888,-0.332241,-0.204329,-0.176666,-0.646240,0.028564,-0.229248,0.093896,-0.010845,0.030574,0.999998,-0.001661,-0.001022,-0.000883,0.692923,-0.121894,-0.709918,-0.031875
05975,NaN,9.666378,-1.823428,2.803632,-3.242396,0.084957,-0.111982,-0.550003,-0.182048,-0.126585,-0.644043,0.028564,-0.237793,0.096627,-0.018218,0.028174,0.999996,-0.002750,-0.000910,-0.000633,0.691918,-0.123380,-0.710535,-0.034155
05976,NaN,9.929346,-2.432900,2.497515,-3.108116,-0.526690,0.227762,-0.711422,-0.126402,-0.073308,-0.642334,0.037109,-0.220947,0.099269,-0.024276,0.025124,0.999993,-0.003557,-0.000632,-0.000367,0.691058,-0.125574,-0.710852,-0.036880
05977,NaN,10.095839,-3.110059,1.863018,-2.675839,-1.282726,0.495739,-0.839027,-0.072675,0.013666,-0.638184,0.043457,-0.229492,0.100954,-0.031015,0.018797,0.999991,-0.004195,-0.000363,0.000068,0.690269,-0.128534,-0.710933,-0.039768
05978,NaN,10.065954,-3.281052,0.962889,-1.866803,-1.638172,0.524005,-0.913705,-0.009048,0.086900,-0.647461,0.058350,-0.216797,0.100673,-0.032722,0.009783,0.999989,-0.004569,-0.000045,0.000435,0.689736,-0.131985,-0.710647,-0.042712
05979,NaN,9.580662,-2.013259,-0.458274,-0.189697,-0.809019,-0.047351,-0.930346,0.040068,0.116487,-0.636719,0.058350,-0.227539,0.095817,-0.020098,-0.004508,0.999989,-0.004652,0.000200,0.000582,0.689282,-0.135597,-0.710226,-0.045642
05980,NaN,9.305824,-0.330065,-1.538529,1.281595,0.502200,-0.475681,-0.932897,-0.014852,0.124182,-0.632812,0.071289,-0.214844,0.093061,-0.003315,-0.015363,0.999989,-0.004664,-0.000074,0.000621,0.688701,-0.139259,-0.709892,-0.048500
05981,NaN,10.031341,-0.416359,-2.686078,2.345021,0.211691,0.310168,-0.910247,-0.110354,0.133328,-0.630859,0.075439,-0.221436,0.100331,-0.004219,-0.026786,0.999989,-0.004551,-0.000552,0.000667,0.687700,-0.142892,-0.709950,-0.051194
05982,NaN,11.639036,-1.967259,-4.952344,4.046169,-1.670013,2.216539,-0.782062,-0.291926,0.157167,-0.635498,0.084229,-0.215088,0.116478,-0.019774,-0.049276,0.999991,-0.003910,-0.001460,0.000786,0.686198,-0.146211,-0.710579,-0.053213
05983,NaN,12.539300,-2.416369,-7.105520,5.920981,-2.570293,3.298248,-0.431291,-0.295479,0.146836,-0.630859,0.077637,-0.219238,0.125516,-0.024224,-0.070818,0.999996,-0.002156,-0.001477,0.000734,0.684869,-0.148291,-0.711368,-0.054025
05984,NaN,11.332880,-0.900033,-3.622689,3.012942,-0.309314,1.728308,0.100377,-0.029247,0.092682,-0.635254,0.079834,-0.208496,0.113338,-0.008930,-0.036215,1.000000,0.000502,-0.000146,0.000463,0.684857,-0.148304,-0.711431,-0.053310
05985,NaN,10.253570,-2.270716,-1.487064,0.601832,-1.150305,0.714315,0.516780,-0.055348,0.092705,-0.635254,0.077637,-0.221436,0.102550,-0.022621,-0.014901,0.999997,0.002584,-0.000277,0.000464,0.685066,-0.146879,-0.711687,-0.051113
05986,NaN,10.152194,-2.415046,0.738137,-1.554680,-0.685844,0.509950,0.751415,0.094462,0.084510,-0.637207,0.077637,-0.215088,0.101536,-0.024135,0.007243,0.999993,0.003757,0.000472,0.000423,0.685941,-0.144606,-0.711513,-0.048196
05987,NaN,9.153848,-1.003678,1.264294,-1.638314,0.655001,-0.686592,0.579889,0.129865,0.041346,-0.634766,0.069092,-0.221191,0.091549,-0.010054,0.012554,0.999996,0.002899,0.000649,0.000207,0.686829,-0.142733,-0.711175,-0.046084
05988,NaN,8.943294,-0.943752,1.272903,-1.612476,0.674616,-0.899874,0.518353,0.139025,-0.044991,-0.639404,0.075439,-0.215088,0.089440,-0.009490,0.012642,0.999996,0.002592,0.000695,-0.000225,0.687670,-0.140785,-0.710853,-0.044469
05989,NaN,9.275873,-1.010701,1.075872,-1.434406,0.597864,-0.549541,0.238379,0.049635,0.021182,-0.639160,0.066895,-0.227783,0.092762,-0.010110,0.010724,0.999999,0.001192,0.000248,0.000106,0.688019,-0.140030,-0.710720,-0.043584
05990,NaN,9.137030,-1.180746,0.500264,-0.914084,0.270847,-0.635497,0.023613,0.045769,0.064186,-0.637207,0.075439,-0.217041,0.091375,-0.011779,0.004980,1.000000,0.000118,0.000229,0.000321,0.688220,-0.140186,-0.710512,-0.043290
05991,NaN,8.727902,-0.703240,-0.235069,-0.074054,0.489532,-1.067348,-0.247809,-0.049193,0.076155,-0.633057,0.077637,-0.225586,0.087282,-0.007002,-0.002321,0.999999,-0.001239,-0.000246,0.000381,0.687888,-0.141320,-0.710573,-0.043873
05992,NaN,9.562956,-1.360336,-1.315091,0.775438,-0.290687,-0.099590,-0.282788,-0.146600,0.072261,-0.641846,0.082031,-0.212891,0.095644,-0.013587,-0.013062,0.999999,-0.001414,-0.000733,0.000361,0.687196,-0.142595,-0.710948,-0.044509
05993,NaN,9.808722,-1.515020,-1.636809,1.025864,-0.480331,0.182428,-0.208131,-0.121848,0.046315,-0.635010,0.075684,-0.227783,0.098101,-0.015144,-0.016293,0.999999,-0.001041,-0.000609,0.000232,0.686625,-0.143503,-0.711287,-0.045002
05994,NaN,10.097477,-1.537644,-1.573225,0.941409,-0.438414,0.469334,-0.129299,-0.100212,0.038409,-0.633301,0.083984,-0.212891,0.100986,-0.015367,-0.015672,1.000000,-0.000646,-0.000501,0.000192,0.686187,-0.144123,-0.711568,-0.045239
05995,NaN,10.218293,-1.752326,-1.289214,0.601886,-0.546635,0.602934,-0.019873,-0.024892,0.040137,-0.637207,0.077637,-0.219238,0.102188,-0.017504,-0.012878,1.000000,-0.000099,-0.000124,0.000201,0.686093,-0.144340,-0.711620,-0.045154
05996,NaN,10.078494,-1.510648,-0.738510,0.140025,-0.187420,0.402437,0.084857,0.031499,0.032059,-0.633057,0.079834,-0.210693,0.100786,-0.015087,-0.007407,1.000000,0.000424,0.000157,0.000160,0.686268,-0.144177,-0.711511,-0.044743
05997,NaN,9.928959,-1.326030,-0.300099,-0.223781,0.083644,0.206073,0.102660,0.068513,0.027480,-0.635010,0.075439,-0.221436,0.099290,-0.013245,-0.003042,1.000000,0.000513,0.000343,0.000137,0.686591,-0.143907,-0.711279,-0.044332
05998,NaN,9.887849,-1.294356,-0.127156,-0.372446,0.153583,0.152190,0.099630,0.080817,0.014334,-0.635254,0.077637,-0.212891,0.098879,-0.012936,-0.001318,1.000000,0.000498,0.000404,0.000072,0.686948,-0.143619,-0.711016,-0.043966
05999,NaN,9.745483,-1.366983,-0.156887,-0.351512,0.055121,0.023017,0.070299,0.085419,0.014689,-0.637451,0.082031,-0.225830,0.097455,-0.013662,-0.001615,1.000000,0.000351,0.000427,0.000073,0.687305,-0.143412,-0.710727,-0.043726
06000,NaN,9.654980,-1.302426,-0.366332,-0.122214,0.049399,-0.064264,0.051658,0.078392,0.018386,-0.635254,0.077637,-0.208496,0.096550,-0.013014,-0.003705,1.000000,0.000258,0.000392,0.000092,0.687623,-0.143301,-0.710454,-0.043515
06001,NaN,9.629552,-1.235944,-0.543153,0.074005,0.063640,-0.089451,0.021497,0.067289,0.024203,-0.635010,0.077637,-0.232178,0.096295,-0.012347,-0.005465,1.000000,0.000107,0.000336,0.000121,0.687883,-0.143300,-0.710210,-0.043403
06002,NaN,9.654069,-1.280463,-0.685691,0.205842,-0.011255,-0.052139,0.005891,0.052325,0.018422,-0.637451,0.079834,-0.212891,0.096540,-0.012796,-0.006883,1.000000,0.000029,0.000262,0.000092,0.688076,-0.143351,-0.710017,-0.043338
06003,NaN,9.778128,-1.415603,-0.766224,0.252226,-0.143037,0.092803,0.007337,0.058545,0.017359,-0.628662,0.075439,-0.229980,0.097780,-0.014147,-0.007691,1.000000,0.000037,0.000293,0.000087,0.688293,-0.143376,-0.709805,-0.043293
06004,NaN,9.714010,-1.398053,-0.743991,0.242662,-0.129217,0.025731,0.015637,0.067034,0.016981,-0.635254,0.079834,-0.217285,0.097139,-0.013972,-0.007474,1.000000,0.000078,0.000335,0.000085,0.688542,-0.143385,-0.709566,-0.043209
06005,NaN,9.749544,-1.449805,-0.608423,0.105131,-0.138491,0.061293,0.023491,0.071116,0.018685,-0.637207,0.075684,-0.225586,0.097495,-0.014488,-0.006121,1.000000,0.000117,0.000356,0.000093,0.688815,-0.143356,-0.709313,-0.043112
06006,NaN,9.722940,-1.434479,-0.429404,-0.055628,-0.081359,0.024384,0.026438,0.076860,0.010334,-0.637451,0.079834,-0.221436,0.097228,-0.014339,-0.004333,1.000000,0.000132,0.000384,0.000052,0.689104,-0.143304,-0.709048,-0.043019
06007,NaN,9.764565,-1.387169,-0.312082,-0.148851,-0.000459,0.053731,0.022790,0.076770,0.017954,-0.635010,0.073486,-0.234131,0.097646,-0.013863,-0.003160,1.000000,0.000114,0.000384,0.000090,0.689396,-0.143273,-0.708776,-0.042930
06008,NaN,9.676500,-1.366147,-0.313509,-0.133495,0.006148,-0.036112,0.018416,0.076040,0.003395,-0.639404,0.075439,-0.215088,0.096764,-0.013660,-0.003173,1.000000,0.000092,0.000380,0.000017,0.689675,-0.143224,-0.708517,-0.042889
06009,NaN,9.700231,-1.390830,-0.331417,-0.115856,-0.020416,-0.008358,0.017818,0.068101,-0.002230,-0.635254,0.079834,-0.234375,0.097001,-0.013909,-0.003348,1.000000,0.000089,0.000341,-0.000011,0.689928,-0.143140,-0.708287,-0.042882
06010,NaN,9.783942,-1.398292,-0.429100,-0.017839,-0.042143,0.079874,0.016045,0.061310,-0.002754,-0.639648,0.082031,-0.221436,0.097838,-0.013984,-0.004322,1.000000,0.000080,0.000307,-0.000014,0.690153,-0.143080,-0.708081,-0.042860
06011,NaN,9.758442,-1.420883,-0.424360,-0.021863,-0.068129,0.057523,0.023370,0.067982,-0.004111,-0.637207,0.075684,-0.236328,0.097583,-0.014210,-0.004278,1.000000,0.000117,0.000340,-0.000021,0.690410,-0.142971,-0.707855,-0.042839
06012,NaN,9.762905,-1.391297,-0.513585,0.078670,-0.063840,0.061700,0.032275,0.067081,-0.003813,-0.635254,0.077637,-0.223633,0.097627,-0.013914,-0.005171,1.000000,0.000161,0.000335,-0.000019,0.690667,-0.142849,-0.707633,-0.042768
06013,NaN,9.776302,-1.412345,-0.425940,-0.004959,-0.061530,0.074092,0.037684,0.063229,-0.005823,-0.637207,0.073486,-0.238525,0.097761,-0.014125,-0.004293,1.000000,0.000188,0.000316,-0.000029,0.690916,-0.142686,-0.707427,-0.042699
06014,NaN,9.753063,-1.387199,-0.394353,-0.022580,-0.034446,0.046337,0.032684,0.060953,-0.008419,-0.635254,0.077637,-0.221436,0.097529,-0.013875,-0.003976,1.000000,0.000163,0.000305,-0.000042,0.691150,-0.142548,-0.707230,-0.042638
06015,NaN,9.727663,-1.365601,-0.289700,-0.111763,0.007163,0.013994,0.035862,0.063333,-0.007691,-0.641357,0.073486,-0.236328,0.097275,-0.013659,-0.002930,1.000000,0.000179,0.000317,-0.000038,0.691398,-0.142384,-0.707024,-0.042582
06016,NaN,9.693484,-1.381028,-0.252978,-0.145478,-0.004497,-0.019134,0.026760,0.049774,-0.003073,-0.637207,0.075439,-0.223633,0.096934,-0.013811,-0.002556,1.000000,0.000134,0.000249,-0.000015,0.691590,-0.142287,-0.706860,-0.042516
06017,NaN,9.710910,-1.372537,-0.263292,-0.128604,0.001599,-0.002570,0.020242,0.048269,-0.009771,-0.639160,0.073486,-0.236328,0.097108,-0.013730,-0.002658,1.000000,0.000101,0.000241,-0.000049,0.691772,-0.142173,-0.706704,-0.042511
06018,NaN,9.698282,-1.328780,-0.289706,-0.087487,0.033579,-0.019962,0.011597,0.039017,-0.003440,-0.637207,0.073486,-0.227783,0.096982,-0.013289,-0.002917,1.000000,0.000058,0.000195,-0.000017,0.691917,-0.142130,-0.706573,-0.042492
06019,NaN,9.711335,-1.393465,-0.305248,-0.085959,-0.031702,0.002431,0.009480,0.031653,-0.005582,-0.635010,0.073486,-0.234131,0.097112,-0.013937,-0.003069,1.000000,0.000047,0.000158,-0.000028,0.692034,-0.142071,-0.706469,-0.042500
06020,NaN,9.722358,-1.374462,-0.358123,-0.027183,-0.026314,0.012801,0.010198,0.026001,-0.004815,-0.635254,0.077637,-0.223633,0.097223,-0.013747,-0.003595,1.000000,0.000051,0.000130,-0.000024,0.692132,-0.142030,-0.706383,-0.042482
06021,NaN,9.707479,-1.356499,-0.363350,-0.015097,-0.013576,-0.004178,0.014081,0.022730,-0.003328,-0.630859,0.077637,-0.236328,0.097074,-0.013566,-0.003645,1.000000,0.000070,0.000114,-0.000017,0.692221,-0.141965,-0.706309,-0.042459
06022,NaN,9.746301,-1.398552,-0.378265,-0.009455,-0.052416,0.040565,0.015788,0.018894,-0.001550,-0.637451,0.079834,-0.227783,0.097463,-0.013986,-0.003793,1.000000,0.000079,0.000094,-0.000008,0.692299,-0.141917,-0.706246,-0.042405
06023,NaN,9.761310,-1.393985,-0.318537,-0.064121,-0.031309,0.052541,0.021851,0.016283,-0.004149,-0.636963,0.069092,-0.240479,0.097613,-0.013942,-0.003195,1.000000,0.000109,0.000081,-0.000021,0.692371,-0.141824,-0.706198,-0.042353
06024,NaN,9.729142,-1.384018,-0.309350,-0.068816,-0.024226,0.019001,0.024082,0.009955,-0.003082,-0.635010,0.075684,-0.229980,0.097291,-0.013841,-0.003100,1.000000,0.000120,0.000050,-0.000015,0.692422,-0.141744,-0.706168,-0.042269
06025,NaN,9.729207,-1.383825,-0.308175,-0.068817,-0.024202,0.019001,0.017553,0.008258,-0.002207,-0.636963,0.067139,-0.236328,0.097292,-0.013839,-0.003087,1.000000,0.000088,0.000041,-0.000011,0.692463,-0.141674,-0.706145,-0.042220
06026,NaN,9.731350,-1.336136,-0.280463,-0.082327,0.028823,0.013578,0.019592,0.005090,-0.002619,-0.639160,0.071289,-0.225586,0.097313,-0.013362,-0.002808,1.000000,0.000098,0.000025,-0.000013,0.692495,-0.141612,-0.706130,-0.042147
06027,NaN,9.714267,-1.365975,-0.314598,-0.056624,-0.011027,0.002021,0.014767,-0.000442,0.000033,-0.634766,0.071289,-0.238525,0.097143,-0.013659,-0.003147,1.000000,0.000074,-0.000002,0.000000,0.692504,-0.141562,-0.706135,-0.042093
06028,NaN,9.722938,-1.373110,-0.347392,-0.026777,-0.024463,0.012806,0.011789,-0.005983,0.000793,-0.637207,0.075684,-0.229980,0.097230,-0.013731,-0.003472,1.000000,0.000059,-0.000030,0.000004,0.692493,-0.141540,-0.706154,-0.042029
06029,NaN,9.746476,-1.375891,-0.322790,-0.051715,-0.017212,0.035566,0.011127,-0.007224,0.001384,-0.637207,0.073486,-0.232178,0.097465,-0.013758,-0.003225,1.000000,0.000056,-0.000036,0.000007,0.692475,-0.141509,-0.706181,-0.041978
06030,NaN,9.740124,-1.365259,-0.364071,-0.009777,-0.017943,0.029369,0.004797,-0.011896,-0.003851,-0.632812,0.075439,-0.225586,0.097401,-0.013654,-0.003635,1.000000,0.000024,-0.000059,-0.000019,0.692437,-0.141496,-0.706222,-0.041951
06031,NaN,9.720753,-1.420639,-0.376628,-0.013037,-0.076584,0.018237,0.005974,-0.013330,0.002436,-0.634766,0.071289,-0.242676,0.097208,-0.014205,-0.003760,1.000000,0.000030,-0.000067,0.000012,0.692395,-0.141488,-0.706268,-0.041911
06032,NaN,9.722888,-1.395347,-0.401045,0.016049,-0.057379,0.017817,0.010852,-0.014692,0.001143,-0.633057,0.077637,-0.229980,0.097229,-0.013953,-0.004004,1.000000,0.000054,-0.000073,0.000006,0.692352,-0.141472,-0.706317,-0.041842
06033,NaN,9.731387,-1.380463,-0.385050,0.003197,-0.037415,0.023594,0.014217,-0.015377,-0.000450,-0.643311,0.067139,-0.236328,0.097314,-0.013805,-0.003844,1.000000,0.000071,-0.000077,-0.000002,0.692307,-0.141425,-0.706374,-0.041782
06034,NaN,9.705516,-1.403466,-0.388298,-0.000711,-0.063021,0.001260,0.015400,-0.016719,0.002043,-0.637207,0.077637,-0.227783,0.097056,-0.014033,-0.003876,1.000000,0.000077,-0.000084,0.000010,0.692261,-0.141397,-0.706430,-0.041693
06035,NaN,9.698967,-1.371225,-0.379991,-0.001477,-0.030347,-0.009949,0.014353,-0.011734,0.003467,-0.630615,0.075684,-0.236328,0.096990,-0.013710,-0.003795,1.000000,0.000072,-0.000059,0.000017,0.692230,-0.141363,-0.706471,-0.041621
06036,NaN,9.748368,-1.373328,-0.403932,0.020306,-0.030482,0.040156,0.012509,-0.011634,0.001566,-0.632812,0.073486,-0.229980,0.097484,-0.013732,-0.004035,1.000000,0.000063,-0.000058,0.000008,0.692199,-0.141343,-0.706510,-0.041547
06037,NaN,9.722483,-1.396497,-0.406821,0.016280,-0.056475,0.017822,0.008484,-0.012189,0.003753,-0.641357,0.073486,-0.240723,0.097225,-0.013963,-0.004063,1.000000,0.000042,-0.000061,0.000019,0.692163,-0.141330,-0.706551,-0.041495
06038,NaN,9.789031,-1.368639,-0.396282,0.012353,-0.016730,0.079476,0.010995,-0.010958,0.001268,-0.639404,0.075684,-0.232178,0.097891,-0.013686,-0.003958,1.000000,0.000055,-0.000055,0.000006,0.692133,-0.141313,-0.706588,-0.041428
06039,NaN,9.748127,-1.374163,-0.406893,0.020413,-0.030016,0.040158,0.005455,-0.010837,0.003155,-0.635010,0.075684,-0.242920,0.097482,-0.013740,-0.004064,1.000000,0.000027,-0.000054,0.000016,0.692099,-0.141309,-0.706624,-0.041389
06040,NaN,9.748041,-1.374593,-0.407521,0.020513,-0.029612,0.040159,0.003883,-0.003359,0.005285,-0.637207,0.075684,-0.232178,0.097481,-0.013743,-0.004074,1.000000,0.000019,-0.000017,0.000026,0.692092,-0.141329,-0.706630,-0.041340
06041,NaN,9.756643,-1.381977,-0.440101,0.050241,-0.043439,0.050944,0.007524,0.003512,0.000132,-0.636963,0.069092,-0.238525,0.097566,-0.013820,-0.004403,1.000000,0.000038,0.000018,0.000001,0.692109,-0.141304,-0.706619,-0.041314
06042,NaN,9.739408,-1.390091,-0.424255,0.033454,-0.049122,0.034387,0.007521,0.003422,0.003928,-0.630615,0.073486,-0.225586,0.097394,-0.013899,-0.004245,1.000000,0.000038,0.000017,0.000020,0.692128,-0.141305,-0.706604,-0.041261
06043,NaN,9.720019,-1.445897,-0.434981,0.030194,-0.107762,0.023271,0.012539,0.005793,0.002751,-0.637207,0.077637,-0.234375,0.097200,-0.014457,-0.004354,1.000000,0.000063,0.000029,0.000014,0.692158,-0.141271,-0.706585,-0.041210
06044,NaN,9.730743,-1.383582,-0.390090,0.003805,-0.034832,0.023603,0.010832,0.009627,0.000968,-0.635010,0.073486,-0.225586,0.097307,-0.013835,-0.003906,1.000000,0.000054,0.000048,0.000005,0.692199,-0.141250,-0.706551,-0.041160
06045,NaN,9.739317,-1.368934,-0.371772,-0.009045,-0.014863,0.029375,0.012345,0.008862,0.005064,-0.634766,0.067139,-0.244873,0.097393,-0.013687,-0.003723,1.000000,0.000062,0.000044,0.000025,0.692240,-0.141224,-0.706519,-0.041105
06046,NaN,9.715694,-1.366858,-0.395541,0.015969,-0.021696,0.006616,0.016840,0.013726,0.004599,-0.637451,0.079834,-0.225830,0.097157,-0.013666,-0.003963,1.000000,0.000084,0.000069,0.000023,0.692302,-0.141194,-0.706470,-0.041024
06047,NaN,9.739223,-1.370318,-0.369136,-0.008967,-0.014432,0.029375,0.009310,0.010037,0.012055,-0.635010,0.073486,-0.238525,0.097393,-0.013697,-0.003697,1.000000,0.000047,0.000050,0.000060,0.692346,-0.141203,-0.706429,-0.040955
06048,NaN,9.704661,-1.386966,-0.337436,-0.042647,-0.026210,-0.003738,0.003636,0.006603,0.006232,-0.637207,0.075684,-0.225586,0.097047,-0.013867,-0.003378,1.000000,0.000018,0.000033,0.000031,0.692373,-0.141225,-0.706400,-0.040911
06049,NaN,9.693784,-1.428103,-0.330933,-0.058758,-0.064911,-0.009077,0.003826,0.003446,0.007717,-0.636963,0.071289,-0.240723,0.096938,-0.014277,-0.003311,1.000000,0.000019,0.000017,0.000039,0.692389,-0.141239,-0.706384,-0.040872
06050,NaN,9.676563,-1.458537,-0.365401,-0.032973,-0.104399,-0.020612,0.000191,-0.003158,0.001484,-0.637207,0.075439,-0.219238,0.096766,-0.014585,-0.003652,1.000000,0.000001,-0.000016,0.000007,0.692379,-0.141259,-0.706392,-0.040849
06051,NaN,9.691606,-1.475788,-0.358205,-0.045057,-0.117072,-0.003623,0.000251,-0.009784,-0.008534,-0.635010,0.075684,-0.236328,0.096916,-0.014762,-0.003577,1.000000,0.000001,-0.000049,-0.000043,0.692342,-0.141231,-0.706432,-0.040870
06052,NaN,9.631557,-1.535238,-0.380328,-0.040172,-0.188664,-0.054036,0.001305,-0.014594,-0.017542,-0.632812,0.075439,-0.223633,0.096314,-0.015361,-0.003796,1.000000,0.000007,-0.000073,-0.000088,0.692288,-0.141182,-0.706493,-0.040900
06053,NaN,9.646883,-1.550539,-0.374071,-0.052255,-0.201336,-0.037045,0.009750,-0.019538,-0.030325,-0.639160,0.071289,-0.238525,0.096467,-0.015520,-0.003732,1.000000,0.000049,-0.000098,-0.000152,0.692220,-0.141046,-0.706584,-0.040956
06054,NaN,9.643135,-1.511313,-0.439819,0.018615,-0.183263,-0.043673,0.020236,-0.027738,-0.039717,-0.639404,0.075684,-0.227783,0.096429,-0.015132,-0.004386,1.000000,0.000101,-0.000139,-0.000199,0.692128,-0.140857,-0.706709,-0.040986
06055,NaN,9.725321,-1.496586,-0.423044,0.002503,-0.156577,0.034956,0.027500,-0.031517,-0.047397,-0.639160,0.073486,-0.240723,0.097250,-0.014988,-0.004217,1.000000,0.000138,-0.000158,-0.000237,0.692026,-0.140602,-0.706857,-0.041029
06056,NaN,9.728052,-1.444175,-0.398715,-0.011023,-0.103535,0.029506,0.030819,-0.025225,-0.054142,-0.633057,0.079834,-0.227783,0.097277,-0.014467,-0.003977,1.000000,0.000154,-0.000126,-0.000271,0.691948,-0.140325,-0.706987,-0.041073
06057,NaN,9.739351,-1.376538,-0.356940,-0.037491,-0.030978,0.029815,0.033531,-0.027238,-0.051336,-0.632568,0.069092,-0.238525,0.097390,-0.013790,-0.003558,1.000000,0.000168,-0.000136,-0.000257,0.691864,-0.140034,-0.707124,-0.041112
06058,NaN,9.744094,-1.298795,-0.356019,-0.022053,0.040855,0.023919,0.027533,-0.031518,-0.047360,-0.639160,0.073486,-0.227783,0.097438,-0.013011,-0.003547,1.000000,0.000138,-0.000158,-0.000237,0.691762,-0.139794,-0.707269,-0.041139
06059,NaN,9.761691,-1.264414,-0.324478,-0.047754,0.080771,0.035451,0.018830,-0.033874,-0.042386,-0.639160,0.069092,-0.234131,0.097615,-0.012665,-0.003229,1.000000,0.000094,-0.000169,-0.000212,0.691647,-0.139588,-0.707420,-0.041194
06060,NaN,9.770657,-1.267962,-0.360271,-0.017927,0.067358,0.046237,0.014807,-0.034602,-0.032608,-0.637207,0.073486,-0.225586,0.097705,-0.012695,-0.003587,1.000000,0.000074,-0.000173,-0.000163,0.691528,-0.139444,-0.707563,-0.041214
06061,NaN,9.772965,-1.239728,-0.386676,0.011036,0.086182,0.045799,0.010256,-0.032752,-0.025920,-0.636963,0.069092,-0.238525,0.097729,-0.012410,-0.003851,1.000000,0.000051,-0.000164,-0.000130,0.691414,-0.139324,-0.707696,-0.041243
06062,NaN,9.813933,-1.254631,-0.430018,0.045658,0.066138,0.090132,0.012764,-0.031858,-0.013236,-0.637207,0.075684,-0.232178,0.098139,-0.012553,-0.004285,1.000000,0.000064,-0.000159,-0.000066,0.691308,-0.139255,-0.707816,-0.041206
06063,NaN,9.764542,-1.274100,-0.459341,0.066564,0.032895,0.045055,0.013023,-0.024474,-0.009223,-0.636963,0.071289,-0.238525,0.097645,-0.012745,-0.004582,1.000000,0.000065,-0.000122,-0.000046,0.691228,-0.139183,-0.707910,-0.041173
06064,NaN,9.779616,-1.291208,-0.453531,0.054564,0.020591,0.062048,0.011964,-0.019656,-0.000230,-0.632812,0.075684,-0.227783,0.097797,-0.012912,-0.004526,1.000000,0.000060,-0.000098,-0.000001,0.691167,-0.139159,-0.707978,-0.041103
06065,NaN,9.747261,-1.281740,-0.447472,0.049769,0.027232,0.028500,0.011765,-0.016585,0.002073,-0.634766,0.069092,-0.242676,0.097473,-0.012816,-0.004467,1.000000,0.000059,-0.000083,0.000010,0.691117,-0.139131,-0.708036,-0.041042
06066,NaN,9.738560,-1.297330,-0.465749,0.062690,0.007669,0.022735,0.008656,-0.008517,0.007675,-0.639404,0.079834,-0.223633,0.097386,-0.012969,-0.004654,1.000000,0.000043,-0.000043,0.000038,0.691094,-0.139143,-0.708061,-0.040965
06067,NaN,9.751488,-1.363327,-0.484962,0.064227,-0.057574,0.045200,0.006077,-0.002858,0.008782,-0.638916,0.067139,-0.240479,0.097516,-0.013629,-0.004849,1.000000,0.000030,-0.000014,0.000044,0.691090,-0.139155,-0.708066,-0.040909
06068,NaN,9.725629,-1.387273,-0.486498,0.060255,-0.083234,0.022886,0.004487,0.004621,0.010892,-0.639404,0.073486,-0.221436,0.097257,-0.013867,-0.004868,1.000000,0.000022,0.000023,0.000054,0.691111,-0.139190,-0.708042,-0.040845
06069,NaN,9.734088,-1.373318,-0.468687,0.047406,-0.063255,0.028649,0.003957,0.007115,0.011596,-0.637207,0.073486,-0.236328,0.097342,-0.013727,-0.004691,1.000000,0.000020,0.000036,0.000058,0.691141,-0.139218,-0.708010,-0.040795
06070,NaN,9.749103,-1.391843,-0.459868,0.035369,-0.075570,0.045647,0.001378,0.012857,0.008911,-0.637207,0.077637,-0.223633,0.097491,-0.013914,-0.004605,1.000000,0.000007,0.000064,0.000045,0.691188,-0.139255,-0.707959,-0.040754
06071,NaN,9.731916,-1.378324,-0.393196,-0.024090,-0.047837,0.024065,0.002038,0.014098,0.008317,-0.636963,0.071289,-0.236328,0.097319,-0.013779,-0.003939,1.000000,0.000010,0.000070,0.000042,0.691241,-0.139276,-0.707905,-0.040726
06072,NaN,9.693065,-1.359208,-0.424493,0.012970,-0.042006,-0.015687,0.001509,0.016591,0.009021,-0.632812,0.075439,-0.225586,0.096931,-0.013588,-0.004253,1.000000,0.000008,0.000083,0.000045,0.691302,-0.139313,-0.707841,-0.040687
