// Start Time: Unknown
// Update Rate: 100.0Hz
// Filter Profile: human (46.1)
// Firmware Version: 4.4.0
PacketCounter,SampleTimeFine,Acc_X,Acc_Y,Acc_Z,FreeAcc_X,FreeAcc_Y,FreeAcc_Z,Gyr_X,Gyr_Y,Gyr_Z,Mag_X,Mag_Y,Mag_Z,VelInc_X,VelInc_Y,VelInc_Z,OriInc_q0,OriInc_q1,OriInc_q2,OriInc_q3,Quat_q0,Quat_q1,Quat_q2,Quat_q3
39050,NaN,-5.097307,-5.968439,-3.911116,-0.000000,-0.000000,-1.043382,0.415542,-1.340869,-0.238436,-0.621094,0.516113,-0.708496,-0.050780,-0.059542,-0.039576,0.999975,0.002078,-0.006704,-0.001192,0.006742,0.544380,0.655210,-0.523741
39051,NaN,-6.802938,-5.924525,-3.763325,-0.000000,0.000000,-0.038216,0.620465,-1.692860,-0.060241,-0.633789,0.509766,-0.706299,-0.067724,-0.059106,-0.038391,0.999959,0.003102,-0.008464,-0.000301,0.053809,0.572133,0.607493,-0.548381
39052,NaN,-8.382759,-5.896387,-4.331299,1.207940,-1.285546,1.172810,0.891878,-2.113810,0.120592,-0.646484,0.507568,-0.697754,-0.083326,-0.058818,-0.044458,0.999934,0.004459,-0.010569,0.000603,0.038597,0.552502,0.631624,-0.542497
39053,NaN,-8.776923,-5.752729,-5.129655,2.038545,-0.721978,1.665751,1.350984,-2.672730,0.169987,-0.660889,0.496826,-0.687012,-0.087021,-0.057248,-0.052850,0.999888,0.006755,-0.013363,0.000850,0.043762,0.545988,0.626903,-0.554053
39054,NaN,-7.407797,-3.999843,-5.268141,3.000667,0.206965,-0.348595,1.872056,-3.265522,0.061404,-0.683838,0.481689,-0.674316,-0.073188,-0.039518,-0.054253,0.999823,0.009360,-0.016327,0.000307,0.049472,0.538118,0.620286,-0.568530
39055,NaN,-5.148734,-1.507073,-5.370820,4.072954,1.399475,-3.562092,2.205041,-3.780122,-0.144638,-0.708740,0.468994,-0.661377,-0.050469,-0.014434,-0.054830,0.999760,0.011024,-0.018899,-0.000723,0.054840,0.527342,0.613323,-0.585438
39056,NaN,-2.674324,0.520743,-5.722254,4.672099,2.838581,-6.607415,2.393776,-4.224251,-0.338264,-0.744141,0.447510,-0.637695,-0.025518,0.005940,-0.057702,0.999704,0.011968,-0.021119,-0.001691,0.063718,0.518386,0.606457,-0.599522
39057,NaN,0.652104,1.988320,-3.919416,3.208015,2.965226,-10.620379,2.526247,-4.552786,-0.375699,-0.771240,0.436523,-0.618652,0.007445,0.020361,-0.038776,0.999659,0.012630,-0.022761,-0.001878,0.069827,0.504229,0.598202,-0.618896
39058,NaN,4.104376,2.909087,0.555429,-0.179900,0.877905,-14.793494,2.470857,-4.563020,-0.247713,-0.796143,0.419434,-0.593018,0.040933,0.028961,0.006847,0.999663,0.012353,-0.022813,-0.001238,0.081312,0.500910,0.595694,-0.622596
39059,NaN,7.609060,2.636675,5.178080,-4.654154,-1.410167,-18.058728,2.027464,-4.051983,0.101444,-0.823486,0.408691,-0.577881,0.075004,0.025868,0.053572,0.999743,0.010136,-0.020258,0.000507,0.088598,0.489296,0.587329,-0.638581
39060,NaN,12.452710,1.953693,10.205664,-10.210023,-3.432941,-21.936661,1.337570,-2.992492,0.345210,-0.831787,0.408691,-0.563232,0.122947,0.019059,0.104033,0.999864,0.006688,-0.014962,0.001726,0.094780,0.484474,0.585287,-0.643227
39061,NaN,15.871249,0.509230,13.237159,-14.591060,-4.400944,-23.780627,0.692299,-1.427509,0.303424,-0.833740,0.404297,-0.561035,0.157755,0.004871,0.133517,0.999967,0.003461,-0.007137,0.001517,0.098254,0.481083,0.581630,-0.648546
39062,NaN,18.025332,-0.039408,13.246261,-17.396477,-3.707054,-23.377023,1.266821,-0.042919,-0.642566,-0.835449,0.382812,-0.564941,0.180221,-0.001812,0.132493,0.999975,0.006334,-0.000215,-0.003213,0.074277,0.451742,0.574381,-0.678600
39063,NaN,18.350392,1.737872,11.387071,-15.756466,-2.311839,-24.502096,1.940164,1.416974,-1.814115,-0.832764,0.363770,-0.588135,0.184446,0.014611,0.112717,0.999887,0.009700,0.007085,-0.009070,0.059663,0.452010,0.572357,-0.681568
39064,NaN,12.068577,0.768175,0.157576,-8.006159,4.787043,-17.509126,1.591364,2.937146,-2.228034,-0.819336,0.338135,-0.611328,0.120768,0.006333,-0.000144,0.999798,0.007956,0.014685,-0.011139,0.000108,0.398764,0.560779,-0.725613
39065,NaN,-0.371152,0.016481,-7.848929,4.886577,6.148723,-10.045612,1.889451,1.992502,-1.727406,-0.822998,0.318848,-0.623779,-0.004487,0.000943,-0.078441,0.999868,0.009447,0.009962,-0.008637,-0.015513,0.401098,0.557296,-0.726843
39066,NaN,-3.414951,-3.954023,-18.031825,11.908789,14.204053,-6.835890,1.415122,-0.499947,-0.635165,-0.831055,0.305908,-0.615234,-0.033821,-0.038155,-0.180676,0.999967,0.007076,-0.002500,-0.003176,-0.052677,0.357122,0.557315,-0.747723
39067,NaN,5.407240,-5.622038,-12.110954,1.300730,14.328923,-9.103021,0.854531,-1.764397,0.700087,-0.835449,0.312256,-0.606689,0.055335,-0.055511,-0.120863,0.999946,0.004273,-0.008822,0.003500,-0.046666,0.352232,0.553305,-0.753398
39068,NaN,12.474503,-6.881640,1.951209,-12.748614,6.551423,-8.664726,-1.021110,-1.588299,1.727410,-0.833984,0.331543,-0.598389,0.125171,-0.067632,0.020852,0.999918,-0.005105,-0.007941,0.008637,-0.056378,0.336572,0.589243,-0.732348
39069,NaN,23.484121,-4.714010,8.582466,-24.228676,5.573688,-15.221443,-1.079525,0.673085,2.243143,-0.815674,0.355225,-0.609375,0.235634,-0.044039,0.085276,0.999917,-0.005397,0.003365,0.011215,-0.048327,0.345921,0.589182,-0.728606
39070,NaN,25.864945,-9.468918,14.329091,-30.837970,3.457165,-8.826532,0.260543,2.666394,1.416774,-0.802979,0.355225,-0.622070,0.261191,-0.093028,0.139698,0.999885,0.001303,0.013331,0.007084,-0.091848,0.316451,0.613582,-0.717593
39071,NaN,12.389445,-11.060529,-13.028085,-5.076816,19.746260,-4.347217,0.234667,1.071100,1.089049,-0.792725,0.365967,-0.624268,0.123793,-0.109778,-0.131073,0.999970,0.001173,0.005355,0.005445,-0.091596,0.323518,0.610507,-0.717097
39072,NaN,4.239217,-5.984652,-9.097440,0.767057,10.700066,-5.179341,0.271673,-1.486347,0.561616,-0.807373,0.361572,-0.607178,0.043235,-0.059603,-0.090736,0.999968,0.001358,-0.007432,0.002808,-0.137452,0.266281,0.637925,-0.709404
39073,NaN,6.600948,-3.239870,-3.959928,-3.796420,7.258230,-8.184474,0.529344,-3.087909,0.323768,-0.824219,0.359375,-0.588135,0.066663,-0.032188,-0.038659,0.999876,0.002647,-0.015439,0.001619,-0.127142,0.255964,0.637659,-0.715338
39074,NaN,7.704633,-4.508464,-0.973805,-6.369022,5.168437,-6.158512,0.839051,-3.810386,0.284295,-0.847412,0.359375,-0.558594,0.077280,-0.044938,-0.008456,0.999809,0.004195,-0.019051,0.001421,-0.152274,0.218175,0.660628,-0.701985
39075,NaN,9.895899,-5.454809,1.249290,-9.609483,4.174147,-5.400373,0.980283,-4.066069,0.466993,-0.862061,0.359131,-0.531006,0.098808,-0.054384,0.014236,0.999779,0.004901,-0.020329,0.002335,-0.138241,0.204652,0.659628,-0.709858
39076,NaN,12.269128,-8.165882,-0.941026,-10.821216,6.529140,-2.173729,0.968432,-3.970129,1.020431,-0.881104,0.361328,-0.503418,0.123265,-0.080992,-0.007360,0.999778,0.004842,-0.019849,0.005102,-0.139291,0.166919,0.678077,-0.702102
39077,NaN,14.964182,-7.301670,-0.942638,-13.549079,7.260857,-3.347227,0.671876,-3.808451,1.640209,-0.889893,0.371826,-0.471680,0.150380,-0.071760,-0.006810,0.999779,0.003359,-0.019041,0.008200,-0.121153,0.158606,0.676852,-0.708546
39078,NaN,20.023006,-6.902863,-0.254053,-18.211433,8.521763,-3.156725,0.401848,-3.617438,2.036625,-0.894287,0.386963,-0.448486,0.200923,-0.066984,0.000954,0.999783,0.002009,-0.018086,0.010182,-0.134378,0.145693,0.682383,-0.703611
39079,NaN,26.477846,-5.168713,0.149080,-24.726430,9.879310,-5.486419,0.383040,-3.608397,2.135557,-0.905273,0.403809,-0.418945,0.265227,-0.048865,0.006178,0.999778,0.001915,-0.018041,0.010677,-0.114804,0.139996,0.681753,-0.708826
39080,NaN,32.786605,-1.516017,1.539350,-31.468518,9.345790,-8.446802,0.348559,-3.723073,1.820854,-0.909668,0.412354,-0.385254,0.327624,-0.012210,0.021471,0.999784,0.001743,-0.018614,0.009104,-0.107310,0.115449,0.692255,-0.704229
39081,NaN,33.803616,0.120526,2.643092,-33.085310,7.373961,-10.537734,0.202705,-3.756657,1.083800,-0.916260,0.420898,-0.353516,0.337447,0.003004,0.032776,0.999808,0.001013,-0.018782,0.005419,-0.090588,0.105843,0.692799,-0.707546
39082,NaN,30.670507,1.166210,3.694155,-30.347412,5.882560,-9.722178,0.146143,-3.687522,0.184631,-0.924561,0.416504,-0.328125,0.305944,0.011915,0.042596,0.999829,0.000731,-0.018437,0.000923,-0.117464,0.088975,0.696018,-0.702740
39083,NaN,23.477357,-0.308510,5.628226,-24.086278,0.944224,-8.453140,0.217542,-3.756022,-0.457329,-0.932617,0.412109,-0.292236,0.233654,-0.003685,0.060674,0.999820,0.001088,-0.018779,-0.002287,-0.106077,0.074044,0.697538,-0.704773
39084,NaN,17.719458,-2.574777,6.107381,-18.299686,-2.883586,-5.982112,0.233783,-3.696469,-0.746670,-0.955566,0.403320,-0.266602,0.175928,-0.026480,0.064303,0.999822,0.001169,-0.018481,-0.003733,-0.084892,0.030176,0.710280,-0.698130
39085,NaN,13.538019,-4.206726,7.209708,-14.070483,-5.257617,-4.586668,0.435400,-3.270105,-0.674109,-0.955566,0.401123,-0.239014,0.134035,-0.042681,0.074204,0.999858,0.002177,-0.016350,-0.003370,-0.075686,0.016180,0.710149,-0.699784
39086,NaN,10.178824,-4.738200,8.176642,-10.458681,-6.672607,-3.567662,0.665638,-2.484289,-0.237237,-0.957520,0.396973,-0.224365,0.100707,-0.047776,0.082863,0.999917,0.003328,-0.012421,-0.001186,-0.100511,-0.005333,0.704207,-0.702824
39087,NaN,6.036111,-4.338762,7.630951,-6.231592,-6.848913,-4.544985,0.796692,-1.718438,0.182698,-0.957520,0.401123,-0.215820,0.059743,-0.043638,0.076651,0.999955,0.003983,-0.008592,0.000913,-0.093794,-0.011128,0.702243,-0.705644
39088,NaN,3.337215,-2.660657,5.714409,-3.339595,-5.305783,-6.411813,1.000702,-1.183274,0.529562,-0.959717,0.407471,-0.205322,0.033105,-0.026805,0.057207,0.999966,0.005003,-0.005916,0.002648,-0.109578,-0.033950,0.697637,-0.707208
39089,NaN,2.041661,0.004081,5.134689,-2.500675,-4.897205,-9.267633,1.033020,-0.947790,0.732598,-0.957520,0.405273,-0.203125,0.020173,-0.000151,0.051442,0.999969,0.005165,-0.004739,0.003663,-0.103505,-0.035310,0.694605,-0.711030
39090,NaN,2.667432,2.529607,5.723103,-3.802470,-5.428754,-11.341531,0.952160,-0.634456,0.799167,-0.951660,0.418213,-0.207520,0.026392,0.025129,0.057435,0.999976,0.004761,-0.003172,0.003996,-0.125915,-0.051617,0.688235,-0.712611
39091,NaN,2.984524,4.564805,5.294990,-4.523639,-5.060450,-13.234656,0.958670,-0.130362,0.807347,-0.949463,0.418213,-0.207520,0.029627,0.045513,0.053188,0.999980,0.004793,-0.000652,0.004037,-0.122342,-0.049905,0.685095,-0.716371
39092,NaN,2.643398,6.730224,5.120128,-5.069662,-4.994294,-15.090402,0.993653,0.319382,0.722390,-0.949463,0.420410,-0.211914,0.026273,0.067142,0.051493,0.999980,0.004968,0.001597,0.003612,-0.146741,-0.061417,0.675942,-0.719581
39093,NaN,3.321297,7.623687,4.626345,-5.897910,-4.514105,-15.761793,0.961006,0.575914,0.518936,-0.941406,0.431152,-0.220459,0.033149,0.076100,0.046534,0.999981,0.004805,0.002880,0.002595,-0.146524,-0.058294,0.672207,-0.723374
39094,NaN,5.237096,7.265109,3.869291,-7.855732,-3.433993,-14.468375,0.906256,0.708016,0.212994,-0.938965,0.420410,-0.232910,0.052431,0.072531,0.038836,0.999983,0.004531,0.003540,0.001065,-0.172958,-0.068544,0.661209,-0.726767
39095,NaN,6.545192,5.814144,2.538497,-8.415074,-1.822850,-12.804583,0.732619,0.793350,-0.063591,-0.934814,0.422607,-0.239258,0.065571,0.058028,0.025338,0.999985,0.003663,0.003967,-0.000318,-0.175560,-0.066502,0.657828,-0.729396
39096,NaN,5.753888,3.059507,0.466466,-6.494232,0.421737,-10.389188,0.692392,0.930236,-0.286206,-0.938965,0.418457,-0.250000,0.057604,0.030497,0.004503,0.999982,0.003462,0.004651,-0.001431,-0.203664,-0.076470,0.646184,-0.731519
39097,NaN,3.759679,2.046428,0.011675,-4.215901,0.587604,-10.264308,0.630249,1.228509,-0.469372,-0.938965,0.412109,-0.264648,0.037645,0.020376,-0.000050,0.999973,0.003151,0.006142,-0.002347,-0.209105,-0.074131,0.642430,-0.733528
39098,NaN,2.271525,2.016974,0.768658,-3.031610,-0.372870,-10.511959,0.170950,1.668358,-0.605691,-0.938721,0.405518,-0.277344,0.022839,0.020094,0.007514,0.999960,0.000855,0.008342,-0.003028,-0.239114,-0.080635,0.631901,-0.732819
39099,NaN,1.788240,1.526826,0.835209,-2.411386,-0.466837,-10.252664,-0.498356,2.249198,-0.767454,-0.934570,0.405762,-0.294189,0.018033,0.015220,0.008112,0.999926,-0.002492,0.011246,-0.003837,-0.249217,-0.074215,0.630681,-0.731181
39100,NaN,0.969548,0.792244,0.449597,-1.308637,-0.189677,-9.958135,-1.132255,2.912636,-0.840236,-0.928223,0.401367,-0.315430,0.009792,0.007906,0.004309,0.999869,-0.005661,0.014563,-0.004201,-0.281943,-0.073697,0.622945,-0.725959
39101,NaN,0.001411,-0.947208,-1.509793,0.870401,1.474212,-9.317275,-1.628925,3.316571,-0.811140,-0.919678,0.397217,-0.336426,-0.000274,-0.009594,-0.015017,0.999821,-0.008144,0.016582,-0.004055,-0.295768,-0.061874,0.623770,-0.720835
39102,NaN,-0.765734,-2.553076,-3.005286,2.886836,2.571191,-8.722029,-1.814271,3.431016,-0.796916,-0.919678,0.397217,-0.355469,-0.008271,-0.025769,-0.029681,0.999804,-0.009071,0.017154,-0.003984,-0.326944,-0.056674,0.617586,-0.713080
39103,NaN,-0.726638,-3.533631,-3.179012,3.539942,2.644782,-7.917377,-1.826437,3.379593,-0.785059,-0.904785,0.393066,-0.372559,-0.007938,-0.035594,-0.031335,0.999808,-0.009132,0.016897,-0.003925,-0.340635,-0.044051,0.618230,-0.706979
39104,NaN,1.687798,-4.667802,-2.834544,2.456927,3.239151,-5.795062,-1.635001,3.387441,-0.766245,-0.902832,0.393066,-0.397949,0.016219,-0.046972,-0.028241,0.999816,-0.008175,0.016936,-0.003831,-0.368001,-0.037585,0.612103,-0.698922
39105,NaN,5.985548,-6.387488,-2.501015,0.327029,4.919934,-2.159898,-0.962550,3.672778,-0.686271,-0.879639,0.391113,-0.421143,0.059167,-0.064202,-0.025792,0.999814,-0.004812,0.018363,-0.003431,-0.381754,-0.025072,0.608464,-0.695275
39106,NaN,10.121458,-5.495628,0.470470,-3.888515,4.676840,-0.021936,-0.180917,4.217190,-0.739477,-0.868652,0.380371,-0.459229,0.101080,-0.055327,0.002622,0.999770,-0.000905,0.021084,-0.003697,-0.407200,-0.017758,0.596786,-0.691172
39107,NaN,14.256311,-3.890597,3.592985,-8.744552,4.847954,1.644961,0.125499,4.694348,-1.023747,-0.849609,0.372070,-0.492920,0.143152,-0.039659,0.032549,0.999711,0.000627,0.023469,-0.005118,-0.424618,-0.004840,0.586530,-0.689680
39108,NaN,18.545365,-4.045227,3.717688,-10.729990,7.943147,4.180957,0.023328,4.633323,-1.228374,-0.836670,0.363525,-0.526855,0.185995,-0.041598,0.032867,0.999713,0.000117,0.023164,-0.006141,-0.450162,0.002332,0.573384,-0.684529
39109,NaN,21.245876,-8.449997,2.518025,-8.461236,10.966272,8.550719,-0.143279,4.011085,-1.170704,-0.821533,0.352783,-0.550049,0.212408,-0.085727,0.020981,0.999782,-0.000716,0.020054,-0.005853,-0.465569,0.013027,0.564732,-0.681288
39110,NaN,25.768009,-13.943026,5.019957,-7.894752,12.147946,16.141858,-0.160015,3.265818,-0.887975,-0.806641,0.348633,-0.569092,0.257833,-0.140537,0.046102,0.999857,-0.000800,0.016328,-0.004440,-0.484690,0.017239,0.555747,-0.675221
39111,NaN,31.708603,-19.190496,5.438415,-7.373222,16.077081,23.208049,0.602643,2.709693,-0.224411,-0.793945,0.346436,-0.588135,0.317563,-0.192415,0.049504,0.999903,0.003013,0.013548,-0.001122,-0.492984,0.024303,0.547109,-0.676053
39112,NaN,28.936321,-18.343421,8.284223,-7.066451,12.785548,22.263627,1.399100,3.227383,-0.276540,-0.776855,0.333740,-0.615723,0.290381,-0.184387,0.076874,0.999844,0.006995,0.016136,-0.001383,-0.507310,0.025552,0.534555,-0.675451
39113,NaN,26.781779,-11.910444,7.207112,-8.912341,13.470155,15.683983,1.902246,3.260249,-0.533888,-0.757324,0.321045,-0.643066,0.268612,-0.120471,0.066555,0.999818,0.009511,0.016300,-0.002669,-0.517979,0.030307,0.519830,-0.678642
39114,NaN,24.148895,-7.592859,6.768082,-9.440219,12.742886,11.044995,1.629359,3.439376,-0.774483,-0.744385,0.310303,-0.670654,0.242300,-0.077391,0.062892,0.999811,0.008146,0.017196,-0.003872,-0.532222,0.029818,0.506562,-0.677677
39115,NaN,23.800112,-4.360752,6.786502,-10.875573,13.440897,8.422100,1.121335,3.480034,-0.946326,-0.724854,0.295410,-0.691650,0.238920,-0.045101,0.063463,0.999822,0.005606,0.017399,-0.004731,-0.544316,0.036224,0.493550,-0.677360
39116,NaN,23.599078,-1.664757,7.157939,-12.193361,13.743159,6.719111,0.498106,3.579336,-0.960777,-0.705811,0.289062,-0.719238,0.237137,-0.017956,0.067298,0.999825,0.002490,0.017896,-0.004804,-0.557662,0.038293,0.483864,-0.673366
39117,NaN,20.306029,1.023355,8.297760,-13.027991,11.394529,3.700673,-0.247457,3.784854,-0.849147,-0.676270,0.291260,-0.740479,0.204623,0.009466,0.079103,0.999811,-0.001237,0.018923,-0.004245,-0.569527,0.049665,0.474213,-0.669548
39118,NaN,18.388853,3.190151,8.559642,-13.644882,10.399891,1.465884,-1.186272,3.514115,-0.691799,-0.653076,0.299805,-0.751221,0.185462,0.031756,0.082158,0.999822,-0.005931,0.017570,-0.003459,-0.580389,0.056709,0.469998,-0.662597
39119,NaN,16.043079,3.908897,8.033098,-12.809939,9.429437,-0.639280,-2.016057,2.887811,-0.579460,-0.640869,0.312744,-0.761963,0.161678,0.039413,0.077606,0.999841,-0.010080,0.014438,-0.002897,-0.588433,0.070756,0.468383,-0.655254
39120,NaN,14.054527,3.710229,7.680983,-11.670886,8.230926,-1.669007,-2.446045,2.047637,-0.451030,-0.620117,0.327881,-0.764160,0.141403,0.037708,0.074906,0.999870,-0.012230,0.010238,-0.002255,-0.594313,0.077466,0.471906,-0.646604
39121,NaN,12.266370,3.403765,6.632982,-10.182866,7.520102,-3.045439,-2.828289,1.256152,-0.423301,-0.620605,0.346924,-0.758057,0.123148,0.034703,0.065070,0.999878,-0.014141,0.006281,-0.002116,-0.597479,0.088924,0.477420,-0.638107
39122,NaN,9.663504,2.068901,5.298090,-7.634133,5.850420,-4.048727,-2.854857,0.669272,-0.232668,-0.614746,0.366211,-0.751709,0.096836,0.021327,0.052356,0.999892,-0.014274,0.003346,-0.001163,-0.599000,0.093400,0.485766,-0.629688
39123,NaN,8.111107,-0.772576,3.450877,-4.076999,4.998436,-3.755577,-2.694376,0.356304,-0.102096,-0.604736,0.387695,-0.747803,0.081169,-0.007303,0.034464,0.999908,-0.013471,0.001781,-0.000510,-0.598875,0.102335,0.493182,-0.622613
39124,NaN,6.709158,-3.851190,1.276175,-0.206325,4.202454,-3.196838,-2.348783,0.322079,-0.103870,-0.609619,0.406982,-0.737305,0.067093,-0.038394,0.013105,0.999930,-0.011744,0.001610,-0.000519,-0.599112,0.105175,0.500624,-0.615937
39125,NaN,4.399496,-5.230292,-0.872490,2.780480,2.963838,-4.248811,-1.943628,0.408266,-0.172734,-0.603516,0.415527,-0.729004,0.043932,-0.052423,-0.008306,0.999950,-0.009718,0.002041,-0.000864,-0.599617,0.111817,0.505450,-0.610309
39126,NaN,1.684101,-5.909640,-2.161639,4.824170,1.065791,-5.567287,-1.537545,0.280387,-0.260063,-0.601807,0.430420,-0.729004,0.016734,-0.059282,-0.021185,0.999969,-0.007688,0.001402,-0.001300,-0.600202,0.112409,0.510648,-0.605278
39127,NaN,-0.920911,-6.202292,-2.811201,6.118352,-0.946647,-6.831340,-1.198162,-0.090358,-0.340360,-0.601807,0.432617,-0.716309,-0.009302,-0.062174,-0.027744,0.999981,-0.005991,-0.000452,-0.001702,-0.600319,0.114861,0.514724,-0.601235
39128,NaN,-3.406312,-6.613450,-3.156505,7.246822,-2.997096,-7.862042,-0.904488,-0.578051,-0.410103,-0.612305,0.434814,-0.703613,-0.034108,-0.066207,-0.031364,0.999983,-0.004522,-0.002890,-0.002051,-0.599162,0.111442,0.520640,-0.597929
39129,NaN,-5.199207,-6.621011,-3.118385,7.679550,-4.517056,-8.710622,-0.555994,-1.090019,-0.385914,-0.623047,0.441162,-0.699463,-0.051949,-0.066197,-0.031283,0.999979,-0.002780,-0.005450,-0.001930,-0.597159,0.108842,0.525769,-0.595920
39130,NaN,-6.879469,-5.729514,-3.096404,7.622961,-5.606318,-10.261028,-0.248551,-1.533959,-0.282186,-0.633789,0.441162,-0.693115,-0.068636,-0.057237,-0.031420,0.999969,-0.001243,-0.007670,-0.001411,-0.593298,0.101963,0.532262,-0.595230
39131,NaN,-8.561261,-4.750623,-3.312236,7.741570,-6.493894,-11.987365,0.019840,-1.980730,-0.151770,-0.644287,0.443359,-0.682617,-0.085315,-0.047438,-0.033973,0.999951,0.000099,-0.009903,-0.000759,-0.588462,0.095600,0.538127,-0.595813
39132,NaN,-9.409997,-4.151827,-4.242007,8.460084,-6.317063,-13.319266,0.324326,-2.457440,0.033722,-0.656982,0.438965,-0.663330,-0.093562,-0.041464,-0.043639,0.999923,0.001622,-0.012287,0.000169,-0.581368,0.086133,0.545046,-0.597928
39133,NaN,-11.325202,-2.905067,-5.479669,9.382389,-6.527449,-15.819033,0.787876,-3.001007,0.102649,-0.682129,0.428223,-0.654785,-0.112397,-0.028888,-0.056602,0.999880,0.003939,-0.015004,0.000513,-0.573155,0.075141,0.551301,-0.601593
39134,NaN,-10.216475,-1.289906,-6.456569,8.919739,-4.279271,-16.872188,1.249282,-3.578589,0.083811,-0.703125,0.426025,-0.623047,-0.100982,-0.012530,-0.066459,0.999820,0.006246,-0.017892,0.000419,-0.562916,0.060595,0.558147,-0.606569
39135,NaN,-7.753990,-0.138652,-7.857348,8.397035,-0.835547,-16.929889,1.674030,-4.117531,0.110341,-0.734619,0.417236,-0.603760,-0.075900,-0.000762,-0.080156,0.999753,0.008369,-0.020586,0.000552,-0.551462,0.043690,0.564485,-0.612648
39136,NaN,-5.719903,1.404457,-8.660826,7.150961,2.030076,-17.189750,1.926034,-4.752091,0.095683,-0.761719,0.404297,-0.580322,-0.055129,0.014860,-0.087794,0.999671,0.009629,-0.023758,0.000478,-0.537276,0.023973,0.572024,-0.619313
39137,NaN,-1.893031,1.530914,-6.327520,3.810041,3.514275,-14.181606,1.938832,-5.269555,0.114076,-0.784912,0.399902,-0.548340,-0.017266,0.015914,-0.063592,0.999606,0.009693,-0.026344,0.000570,-0.521877,0.002767,0.579934,-0.625551
39138,NaN,3.028956,0.740144,-0.793408,-1.453078,2.668444,-8.755746,1.752570,-5.347177,0.284025,-0.812012,0.391357,-0.512451,0.030475,0.007509,-0.007055,0.999603,0.008762,-0.026732,0.001420,-0.504147,-0.018066,0.588964,-0.631372
39139,NaN,7.250976,0.153625,5.024677,-6.550591,0.451048,-3.920434,1.607951,-4.792817,0.379559,-0.831055,0.391113,-0.478516,0.071275,0.001259,0.051976,0.999679,0.008039,-0.023962,0.001898,-0.488532,-0.036124,0.595812,-0.636428
39140,NaN,12.449817,1.363509,9.416558,-12.466404,-0.297019,-0.325469,0.888041,-3.188442,0.665560,-0.843506,0.384766,-0.467773,0.122930,0.013622,0.096194,0.999858,0.004440,-0.015941,0.003328,-0.475778,-0.046891,0.601397,-0.640123
39141,NaN,19.660178,1.593715,17.253135,-20.624889,-2.951935,6.081638,-0.037598,-0.443893,0.824761,-0.833252,0.397705,-0.469971,0.196150,0.016779,0.172964,0.999989,-0.000188,-0.002219,0.004124,-0.471810,-0.045741,0.602758,-0.641861
39142,NaN,23.440690,-4.302304,26.414458,-23.556966,-9.209711,15.206016,0.040883,1.132545,0.305992,-0.837158,0.389160,-0.480469,0.235963,-0.042717,0.262803,0.999983,0.000204,0.005663,0.001530,-0.474531,-0.041478,0.599868,-0.642852
39143,NaN,27.773566,-3.706910,20.220363,-22.961263,-1.267568,15.977088,0.769940,1.362759,-1.113971,-0.826416,0.380615,-0.505859,0.278889,-0.039394,0.200157,0.999954,0.003850,0.006814,-0.005570,-0.482020,-0.042263,0.593899,-0.642771
39144,NaN,23.384141,-0.562854,12.397346,-18.127337,3.814961,9.096609,0.420730,4.016996,-1.848007,-0.809082,0.363525,-0.535400,0.236201,-0.008058,0.119230,0.999753,0.002103,0.020083,-0.009239,-0.501660,-0.035487,0.581074,-0.639868
39145,NaN,16.499445,-3.676945,5.396023,-8.211788,5.354436,4.975690,0.395973,4.612113,-2.614787,-0.806641,0.348633,-0.566895,0.165679,-0.039034,0.050069,0.999647,0.001980,0.023058,-0.013072,-0.523178,-0.029310,0.567568,-0.635053
39146,NaN,0.350225,1.721578,-13.461464,6.230807,10.466418,-15.804256,0.894869,4.581754,-1.758410,-0.778809,0.331543,-0.596680,0.000574,0.017804,-0.134571,0.999689,0.004474,0.022906,-0.008791,-0.543469,-0.022193,0.550967,-0.632917
39147,NaN,-12.332180,-4.869867,-28.207121,24.501069,11.088305,-25.565737,1.342781,1.285064,-0.428612,-0.780762,0.329346,-0.598633,-0.125233,-0.046540,-0.281588,0.999955,0.006714,0.006425,-0.002143,-0.548194,-0.022955,0.543151,-0.635565
39148,NaN,0.866828,-4.950893,-19.381183,14.101372,13.607319,-13.921274,0.877319,-0.611183,0.712178,-0.784912,0.325195,-0.598633,0.009435,-0.048626,-0.193998,0.999979,0.004387,-0.003056,0.003561,-0.544215,-0.026508,0.542184,-0.639659
39149,NaN,8.940243,-6.471863,-3.801532,3.053939,7.587776,-1.484523,-0.075164,-0.857751,2.018235,-0.783447,0.353027,-0.583984,0.090211,-0.063825,-0.037605,0.999940,-0.000376,-0.004289,0.010091,-0.535416,-0.023574,0.544991,-0.644794
39150,NaN,13.994280,-5.742350,7.291227,-6.171142,3.018444,5.508836,-3.030538,0.312312,2.663089,-0.765381,0.385010,-0.592773,0.140795,-0.054441,0.073533,0.999795,-0.015152,0.001561,0.013315,-0.526708,-0.009182,0.555204,-0.643617
39151,NaN,33.133533,3.297730,36.223971,-37.888312,-2.481248,21.473369,0.065939,4.302567,1.823240,-0.740234,0.395996,-0.612061,0.338706,0.035925,0.355017,0.999727,0.000330,0.021511,0.009115,-0.532641,0.009552,0.543591,-0.648622
39152,NaN,19.450160,-10.483143,-22.943266,11.986239,28.089957,-0.764587,1.217496,-0.183413,0.604130,-0.738037,0.385254,-0.618408,0.195025,-0.102844,-0.229884,0.999976,0.006087,-0.000917,0.003021,-0.528537,0.004131,0.540275,-0.654778
39153,NaN,2.765268,-3.190800,-13.769568,8.850331,11.196572,-11.745295,1.081202,-0.497686,0.097631,-0.750488,0.383057,-0.603516,0.028011,-0.031150,-0.137796,0.999982,0.005406,-0.002488,0.000488,-0.526889,-0.000092,0.538036,-0.657955
39154,NaN,7.126957,0.641610,-12.602391,3.186863,14.062647,-11.258476,-0.093574,-3.432506,-0.516278,-0.771729,0.380859,-0.580078,0.073434,0.006170,-0.124779,0.999849,-0.000468,-0.017162,-0.002581,-0.514829,-0.017867,0.549020,-0.658186
39155,NaN,7.236189,-5.755653,-7.524226,4.573759,9.543882,-4.327621,-0.076983,-3.983924,-0.691422,-0.796875,0.374268,-0.556641,0.073641,-0.057838,-0.073762,0.999796,-0.000385,-0.019918,-0.003457,-0.506074,-0.032673,0.559352,-0.655704
39156,NaN,10.828182,-6.065044,-0.348045,-0.973715,5.959227,1.035358,0.180277,-3.926061,-0.689060,-0.817871,0.374268,-0.524902,0.108113,-0.061021,-0.001412,0.999801,0.000901,-0.019629,-0.003445,-0.493369,-0.052631,0.570625,-0.654373
39157,NaN,11.282018,-9.031938,3.555431,-1.166111,2.328019,4.840224,0.262658,-3.605934,-0.012736,-0.832520,0.372070,-0.497314,0.112150,-0.090375,0.037462,0.999837,0.001313,-0.018029,-0.000064,-0.482977,-0.065104,0.578561,-0.654035
39158,NaN,10.061970,-11.383076,-0.743386,2.982902,4.545849,4.393034,1.146325,-3.097204,1.007326,-0.836914,0.376221,-0.486816,0.101297,-0.113283,-0.006519,0.999851,0.005731,-0.015485,0.005036,-0.469011,-0.077291,0.584664,-0.657437
39159,NaN,13.669458,-12.737387,-0.745927,1.637523,6.334692,7.703719,2.196847,-2.260213,2.302321,-0.837158,0.389160,-0.474121,0.138231,-0.125708,-0.007290,0.999810,0.010984,-0.011300,0.011511,-0.453902,-0.083127,0.583519,-0.668258
39160,NaN,15.776753,-16.660716,8.287590,-1.051946,-0.762424,14.548439,0.686315,-2.085941,2.427300,-0.850342,0.404053,-0.455322,0.158904,-0.164970,0.083961,0.999866,0.003431,-0.010429,0.012136,-0.441229,-0.083645,0.589431,-0.671485
39161,NaN,19.779887,-12.111033,3.652926,-5.209310,5.364003,12.442890,0.685938,-3.535437,2.039214,-0.850586,0.412598,-0.427734,0.198339,-0.119222,0.039621,0.999786,0.003429,-0.017676,0.010195,-0.423587,-0.091001,0.595651,-0.676382
39162,NaN,25.739652,-9.028425,2.932917,-11.351994,8.309924,13.738039,0.027801,-3.511217,1.752158,-0.863525,0.429443,-0.400391,0.257607,-0.088032,0.033838,0.999808,0.000139,-0.017555,0.008760,-0.408363,-0.097158,0.605774,-0.675897
39163,NaN,30.099974,-2.186285,2.303348,-19.156232,10.369295,11.199280,-0.206042,-3.565270,1.153644,-0.863770,0.435791,-0.368652,0.300644,-0.020100,0.028417,0.999824,-0.001030,-0.017825,0.005768,-0.393698,-0.105275,0.614201,-0.675778
39164,NaN,29.218786,2.074881,3.504412,-22.173874,8.308491,7.780654,0.228204,-3.404856,0.482081,-0.880859,0.444336,-0.354004,0.291484,0.021408,0.040035,0.999852,0.001141,-0.017023,0.002410,-0.383971,-0.114460,0.622344,-0.672423
39165,NaN,25.055480,3.399847,4.491548,-20.779818,5.025966,4.413562,0.480524,-3.343574,-0.037077,-0.882324,0.431396,-0.326416,0.249763,0.033837,0.049177,0.999857,0.002403,-0.016717,-0.000185,-0.373366,-0.126724,0.627035,-0.671838
39166,NaN,20.595737,2.122364,4.475562,-16.887237,2.858314,2.650434,0.464031,-3.281848,-0.262182,-0.890869,0.431396,-0.305176,0.205213,0.020845,0.048176,0.999862,0.002320,-0.016408,-0.001311,-0.369018,-0.136045,0.633509,-0.666321
39167,NaN,16.510572,-0.419970,5.058715,-12.564636,0.192848,2.037809,0.503617,-3.120168,-0.273602,-0.901367,0.431396,-0.279785,0.164284,-0.004556,0.053143,0.999874,0.002518,-0.015600,-0.001368,-0.359662,-0.148219,0.637320,-0.665205
39168,NaN,12.817916,-1.276257,6.879932,-9.872815,-2.986452,0.524467,0.673877,-2.747925,-0.093846,-0.905518,0.433350,-0.262695,0.127212,-0.013058,0.070508,0.999900,0.003369,-0.013739,-0.000469,-0.357565,-0.154223,0.642025,-0.660429
39169,NaN,9.422135,-1.650396,7.937912,-7.433651,-5.276506,-1.362593,0.860790,-2.274325,0.239852,-0.907715,0.435547,-0.250244,0.093331,-0.016736,0.080372,0.999925,0.004304,-0.011371,0.001199,-0.348786,-0.162492,0.643384,-0.661817
39170,NaN,6.853258,-1.321334,7.972844,-5.866563,-6.011329,-3.353273,0.994556,-1.762600,0.497147,-0.918457,0.439697,-0.241699,0.067860,-0.013442,0.080262,0.999946,0.004973,-0.008813,0.002486,-0.348737,-0.162630,0.645548,-0.659698
39171,NaN,4.499631,0.389894,7.062916,-5.052863,-5.705838,-6.320665,0.971715,-1.343587,0.653659,-0.907959,0.446289,-0.233398,0.044508,0.003701,0.070948,0.999960,0.004859,-0.006718,0.003268,-0.341445,-0.166641,0.645189,-0.662855
39172,NaN,3.689287,2.364486,5.549971,-5.485222,-4.267981,-8.508994,0.812870,-1.133249,0.751782,-0.910400,0.454834,-0.229248,0.036489,0.023556,0.055803,0.999969,0.004064,-0.005666,0.003759,-0.342777,-0.163403,0.646662,-0.661538
39173,NaN,2.979952,4.249121,4.265031,-5.892599,-3.137971,-10.557870,0.653810,-0.920530,0.868890,-0.901855,0.458984,-0.227051,0.029418,0.042480,0.042925,0.999975,0.003269,-0.004603,0.004344,-0.336388,-0.164757,0.646768,-0.664372
39174,NaN,1.908626,5.555370,3.294659,-5.789133,-2.307680,-12.366055,0.610377,-0.748876,0.853111,-0.902100,0.467529,-0.229248,0.018725,0.055533,0.033187,0.999979,0.003052,-0.003744,0.004266,-0.338753,-0.159567,0.648014,-0.663221
39175,NaN,0.947672,6.644020,2.225635,-5.527105,-1.494240,-13.961464,0.628193,-0.643208,0.761884,-0.900146,0.469727,-0.225098,0.009152,0.066405,0.022495,0.999983,0.003141,-0.003216,0.003809,-0.333640,-0.160295,0.647615,-0.666022
39176,NaN,1.120062,7.621485,1.747634,-6.182750,-0.861141,-14.652871,0.558204,-0.552501,0.616067,-0.900391,0.476074,-0.220947,0.010917,0.076200,0.017719,0.999988,0.002791,-0.002762,0.003080,-0.337411,-0.155182,0.648295,-0.664670
39177,NaN,2.671786,8.225115,1.232337,-7.556776,0.013377,-14.194970,0.197798,-0.458121,0.355424,-0.900391,0.480469,-0.212402,0.026543,0.082286,0.012466,0.999995,0.000989,-0.002291,0.001777,-0.334594,-0.155887,0.648681,-0.665552
39178,NaN,5.555340,7.790596,0.375762,-9.155525,1.635806,-12.092356,-0.211742,-0.252681,-0.040274,-0.900391,0.480469,-0.216797,0.055564,0.077899,0.003745,0.999999,-0.001059,-0.001263,-0.000201,-0.340097,-0.152590,0.650315,-0.661922
39179,NaN,8.082303,6.984667,1.010901,-10.604350,1.635942,-9.767880,-0.660845,0.312370,-0.410792,-0.898193,0.478271,-0.218750,0.080982,0.069713,0.009752,0.999991,-0.003304,0.001562,-0.002054,-0.342977,-0.151768,0.651649,-0.659307
39180,NaN,8.286289,4.438864,1.139491,-9.074655,1.596950,-7.630245,-0.925995,1.154484,-0.657076,-0.902344,0.473877,-0.220947,0.083071,0.044167,0.010711,0.999967,-0.004630,0.005772,-0.003285,-0.355787,-0.144496,0.652636,-0.653148
39181,NaN,5.432355,1.127449,0.933236,-4.807012,0.785348,-6.997173,-0.955115,1.972358,-0.709707,-0.897949,0.467529,-0.239746,0.054451,0.011124,0.008742,0.999934,-0.004775,0.009862,-0.003548,-0.365212,-0.138664,0.651688,-0.650150
39182,NaN,2.021660,-1.081310,1.973128,-1.297955,-1.361141,-7.443738,-1.028549,2.461320,-0.770929,-0.904297,0.465576,-0.252441,0.020416,-0.010791,0.019536,0.999904,-0.005143,0.012306,-0.003855,-0.381595,-0.128230,0.650009,-0.644539
39183,NaN,0.452245,-3.507616,3.220988,0.903754,-3.346837,-6.516609,-1.180509,2.658090,-0.827196,-0.897949,0.465576,-0.265137,0.004807,-0.034905,0.032354,0.999886,-0.005902,0.013290,-0.004136,-0.393617,-0.120088,0.648135,-0.640754
39184,NaN,-0.156374,-5.594843,2.213824,2.966839,-2.991573,-5.514378,-1.328938,2.850218,-0.726536,-0.891602,0.461426,-0.288330,-0.001447,-0.055794,0.022531,0.999870,-0.006644,0.014250,-0.003633,-0.409263,-0.109168,0.645893,-0.635144
39185,NaN,-0.701386,-6.798949,0.532035,4.714623,-1.958843,-5.237240,-1.453996,3.074074,-0.558540,-0.887695,0.465576,-0.305420,-0.007116,-0.067928,0.005923,0.999852,-0.007270,0.015370,-0.002793,-0.421701,-0.098221,0.643817,-0.630889
39186,NaN,-0.439262,-7.353702,-0.616588,5.372419,-1.079333,-4.850765,-1.521403,3.349876,-0.394640,-0.879150,0.461426,-0.333008,-0.004634,-0.073572,-0.005530,0.999829,-0.007607,0.016748,-0.001973,-0.436980,-0.084512,0.640794,-0.625531
39187,NaN,1.299405,-7.826461,-0.989613,4.799898,-0.197010,-3.421851,-1.424418,3.609967,-0.300928,-0.866699,0.468018,-0.356201,0.012702,-0.078353,-0.009569,0.999811,-0.007122,0.018049,-0.001505,-0.450011,-0.071060,0.637111,-0.621716
39188,NaN,4.885083,-8.781846,-1.039172,3.430842,1.290401,-0.398464,-0.954822,3.864851,-0.283132,-0.858398,0.468018,-0.381592,0.048519,-0.087939,-0.010912,0.999801,-0.004774,0.019323,-0.001416,-0.465471,-0.056749,0.630769,-0.618261
39189,NaN,9.309835,-8.952175,1.522186,-0.105671,1.528499,3.101350,-0.155320,4.138340,-0.441604,-0.849854,0.463867,-0.415527,0.093190,-0.089717,0.013364,0.999783,-0.000777,0.020690,-0.002208,-0.479835,-0.044979,0.621353,-0.617783
39190,NaN,14.194133,-8.118646,4.966875,-4.806273,2.004092,6.462977,0.696945,4.364696,-0.769719,-0.839111,0.453369,-0.451416,0.142662,-0.081900,0.046276,0.999748,0.003484,0.021822,-0.003848,-0.495862,-0.035989,0.608018,-0.618983
39191,NaN,18.512940,-8.295521,5.408789,-6.633954,4.713499,9.539465,1.392361,3.970529,-0.997181,-0.823975,0.438477,-0.485107,0.185729,-0.084237,0.049821,0.999766,0.006961,0.019851,-0.004986,-0.510656,-0.030178,0.593541,-0.621312
39192,NaN,22.836853,-10.557214,0.410172,-3.760899,11.207019,12.398776,1.414387,2.767974,-0.782789,-0.813232,0.432129,-0.506348,0.227974,-0.106476,0.000194,0.999872,0.007072,0.013839,-0.003914,-0.519922,-0.029451,0.581431,-0.625101
39193,NaN,27.091301,-13.381253,-0.833050,-2.501020,14.702502,16.478258,1.402311,2.372808,-0.252311,-0.804688,0.427734,-0.533691,0.270612,-0.134076,-0.012482,0.999904,0.007011,0.011864,-0.001262,-0.527357,-0.026414,0.570784,-0.628810
39194,NaN,29.230674,-15.199222,1.739845,-3.222835,14.314802,19.735845,1.611527,2.053841,0.069809,-0.793701,0.415039,-0.554932,0.292510,-0.152008,0.013170,0.999915,0.008057,0.010269,0.000349,-0.530656,-0.026871,0.560242,-0.635461
39195,NaN,27.579451,-9.777513,2.164828,-6.087617,14.549446,14.928449,1.781416,1.926798,-0.356044,-0.782959,0.402100,-0.571777,0.275806,-0.098438,0.018116,0.999912,0.008907,0.009634,-0.001780,-0.536904,-0.026473,0.549370,-0.639708
39196,NaN,27.913428,-4.752865,4.007026,-10.404953,14.723952,12.383932,1.424666,2.582910,-0.716858,-0.774170,0.391602,-0.594971,0.279444,-0.048797,0.036118,0.999885,0.007123,0.012914,-0.003584,-0.543703,-0.027189,0.538125,-0.643482
39197,NaN,27.242033,-4.651360,6.306417,-10.835642,13.278832,12.764151,0.672511,3.296711,-0.989100,-0.755127,0.387451,-0.622559,0.273174,-0.048065,0.058405,0.999846,0.003362,0.016483,-0.004945,-0.555585,-0.021070,0.526780,-0.642950
39198,NaN,26.462872,-5.250079,4.460095,-8.436674,14.500125,11.779435,0.097528,3.676883,-1.144462,-0.737793,0.374512,-0.652100,0.265082,-0.054037,0.039704,0.999815,0.000488,0.018383,-0.005722,-0.566741,-0.015881,0.516662,-0.641570
39199,NaN,24.824058,-4.010010,5.595576,-8.675328,13.544143,10.307238,-0.008635,4.393942,-1.028412,-0.712402,0.370361,-0.683838,0.249179,-0.041378,0.050490,0.999745,-0.000043,0.021968,-0.005142,-0.581251,-0.004418,0.504024,-0.638817
39200,NaN,21.158357,0.324412,8.669899,-11.880029,10.377484,6.741093,-0.551925,4.583172,-0.868873,-0.680664,0.376953,-0.709473,0.213508,0.002550,0.081813,0.999724,-0.002759,0.022914,-0.004344,-0.594487,0.006866,0.493214,-0.635042
39201,NaN,18.166829,2.778505,8.550638,-12.306648,9.481319,3.204692,-1.804472,4.159515,-0.786183,-0.655762,0.387695,-0.722168,0.183500,0.027813,0.081452,0.999735,-0.009022,0.020796,-0.003931,-0.607025,0.023492,0.486474,-0.627942
39202,NaN,15.558305,2.602020,7.676602,-10.639256,8.499990,1.245542,-2.471581,3.246823,-0.687761,-0.635010,0.406982,-0.728760,0.156889,0.026407,0.073901,0.999786,-0.012357,0.016233,-0.003439,-0.616642,0.037029,0.485159,-0.618872
39203,NaN,12.620258,2.612287,6.636260,-9.105413,7.183073,-1.116930,-2.751665,2.232762,-0.588435,-0.624756,0.419922,-0.735352,0.127008,0.026647,0.064583,0.999839,-0.013758,0.011163,-0.002942,-0.623275,0.050985,0.486818,-0.609867
39204,NaN,11.198241,2.354128,5.525578,-7.773456,6.783132,-2.394327,-2.752604,1.301795,-0.558180,-0.614502,0.434814,-0.729004,0.112404,0.023979,0.054197,0.999880,-0.013762,0.006509,-0.002791,-0.627553,0.059562,0.491928,-0.600530
39205,NaN,11.537070,1.927217,4.155342,-6.543855,7.805633,-2.718082,-2.654021,0.673375,-0.602900,-0.608643,0.451904,-0.718750,0.115568,0.019470,0.040907,0.999902,-0.013270,0.003367,-0.003014,-0.630173,0.068419,0.497913,-0.591848
39206,NaN,10.978916,0.186419,1.916400,-3.578949,8.017923,-2.946282,-2.590285,0.544309,-0.714677,-0.606934,0.466797,-0.708252,0.109847,0.001717,0.018842,0.999906,-0.012951,0.002721,-0.003573,-0.633972,0.074613,0.504574,-0.581306
39207,NaN,8.063967,-1.499074,-0.805908,0.122548,6.464213,-4.701660,-2.524927,0.776024,-0.745264,-0.603271,0.484131,-0.708252,0.080551,-0.015394,-0.008179,0.999906,-0.012624,0.003880,-0.003726,-0.637100,0.082981,0.509681,-0.572226
39208,NaN,4.767100,-3.664429,-3.000145,3.819920,4.007259,-6.004408,-2.422348,1.070388,-0.624930,-0.597168,0.494629,-0.702148,0.047396,-0.037154,-0.029808,0.999907,-0.012111,0.005352,-0.003125,-0.643061,0.091644,0.513799,-0.560432
39209,NaN,1.156017,-4.917462,-4.240800,6.138935,1.067328,-7.650660,-2.197369,0.977307,-0.710937,-0.591064,0.505371,-0.702148,0.011179,-0.049677,-0.041919,0.999921,-0.010987,0.004886,-0.003555,-0.646512,0.099610,0.517098,-0.552005
39210,NaN,-1.862211,-6.043353,-4.234586,7.213506,-2.038973,-8.498330,-1.901697,0.493106,-0.812341,-0.589111,0.513916,-0.687500,-0.018972,-0.060756,-0.041723,0.999944,-0.009508,0.002465,-0.004062,-0.652464,0.105913,0.521364,-0.539678
39211,NaN,-4.813795,-6.826308,-3.813675,7.663439,-5.041282,-9.398535,-1.434299,-0.217787,-0.867923,-0.593750,0.522461,-0.681152,-0.048393,-0.068325,-0.037700,0.999964,-0.007171,-0.001089,-0.004340,-0.653461,0.107733,0.526384,-0.533199
39212,NaN,-7.175245,-6.837535,-3.110236,7.267459,-7.391473,-10.490629,-0.955176,-0.981452,-0.862708,-0.604248,0.522461,-0.668457,-0.071894,-0.068214,-0.031129,0.999967,-0.004776,-0.004907,-0.004313,-0.656370,0.107971,0.532666,-0.523248
39213,NaN,-9.268209,-6.014310,-2.544343,6.611765,-8.913405,-12.131985,-0.374003,-1.749486,-0.753287,-0.618896,0.520264,-0.657715,-0.092681,-0.059842,-0.026142,0.999953,-0.001870,-0.008747,-0.003766,-0.653454,0.102606,0.539766,-0.520695
39214,NaN,-10.557843,-4.975523,-2.961430,6.518201,-9.250314,-13.927594,0.112618,-2.434418,-0.569585,-0.631836,0.522461,-0.649414,-0.105348,-0.049438,-0.030925,0.999922,0.000563,-0.012172,-0.002848,-0.652101,0.097180,0.547618,-0.515204
39215,NaN,-11.191339,-2.916996,-3.608463,6.169269,-8.315594,-16.102006,0.574173,-2.996629,-0.350908,-0.652832,0.518066,-0.632324,-0.111406,-0.028867,-0.037840,0.999882,0.002871,-0.014983,-0.001754,-0.645008,0.086612,0.556013,-0.517023
39216,NaN,-10.391049,-1.900333,-4.953478,6.668905,-6.440190,-16.894838,0.990065,-3.490797,-0.168533,-0.673828,0.511719,-0.617432,-0.103040,-0.018665,-0.051431,0.999835,0.004950,-0.017453,-0.000843,-0.641057,0.078794,0.564393,-0.514099
39217,NaN,-8.388230,-1.784342,-5.793667,7.164998,-4.131648,-16.032857,1.431096,-3.823062,0.041621,-0.692383,0.498779,-0.602295,-0.082749,-0.017438,-0.059651,0.999792,0.007155,-0.019114,0.000208,-0.630598,0.064477,0.572832,-0.519666
39218,NaN,-6.780968,-1.080987,-6.155899,6.843239,-2.195293,-15.590365,1.866662,-4.207486,0.133269,-0.719727,0.492188,-0.585449,-0.066486,-0.010271,-0.063065,0.999735,0.009332,-0.021036,0.000666,-0.623551,0.053328,0.580980,-0.520388
39219,NaN,-3.412959,-0.317880,-4.477126,4.431772,-0.025395,-13.297871,2.061776,-4.533045,0.158328,-0.740479,0.477295,-0.563965,-0.033101,-0.002738,-0.045559,0.999690,0.010308,-0.022663,0.000792,-0.610334,0.035545,0.589523,-0.527913
39220,NaN,0.201286,-0.457895,-1.462818,1.328838,0.789624,-9.797432,2.010820,-4.633109,0.239299,-0.761230,0.464355,-0.544678,0.002357,-0.004429,-0.014621,0.999680,0.010053,-0.023163,0.001196,-0.600813,0.023162,0.598409,-0.529523
39221,NaN,4.559767,-0.252846,3.521588,-3.762550,0.661903,-5.493342,1.757613,-4.382990,0.291265,-0.782227,0.462158,-0.521484,0.044816,-0.002778,0.036180,0.999720,0.008787,-0.021913,0.001456,-0.586970,0.007139,0.606718,-0.536012
39222,NaN,8.862511,0.193960,8.703558,-9.192477,0.129376,-1.457951,0.822784,-3.232864,0.442966,-0.784424,0.464111,-0.502441,0.087199,0.001772,0.088460,0.999858,0.004114,-0.016164,0.002215,-0.580958,0.003252,0.614283,-0.533979
39223,NaN,14.392178,2.130108,13.008211,-15.390279,1.325524,2.114649,-0.458881,-1.340641,0.376698,-0.792969,0.470459,-0.500244,0.143005,0.021871,0.130993,0.999973,-0.002294,-0.006703,0.001883,-0.575817,0.002157,0.619378,-0.533667
39224,NaN,20.820939,0.067536,20.016389,-21.343007,0.350048,9.642901,0.115785,0.885390,0.249308,-0.788574,0.457764,-0.512939,0.209092,0.000820,0.199240,0.999989,0.000579,0.004427,0.001247,-0.584705,0.012521,0.616436,-0.527228
39225,NaN,19.838745,-4.078394,20.853104,-18.995873,-2.380680,12.062706,0.560965,1.415659,-0.407732,-0.777832,0.453369,-0.523438,0.199772,-0.041772,0.207004,0.999969,0.002805,0.007078,-0.002039,-0.590166,0.013350,0.610823,-0.527656
39226,NaN,19.886625,-1.896803,10.345739,-12.103719,5.752557,8.256370,0.734893,2.106115,-1.223650,-0.771240,0.447266,-0.551025,0.199818,-0.020563,0.101283,0.999919,0.003674,0.010530,-0.006118,-0.605902,0.019018,0.602007,-0.519720
39227,NaN,15.126751,-1.953919,4.962426,-6.289196,6.157186,3.594978,0.133594,3.688208,-1.295287,-0.756104,0.434326,-0.576416,0.152017,-0.020554,0.046812,0.999809,0.000668,0.018440,-0.006476,-0.620271,0.024289,0.590493,-0.515744
39228,NaN,8.090168,1.392865,-2.789828,-0.262134,7.706692,-5.849884,0.421860,3.560475,-1.680730,-0.738770,0.417236,-0.607910,0.080502,0.013312,-0.029305,0.999804,0.002109,0.017801,-0.008403,-0.641207,0.033034,0.577547,-0.504185
39229,NaN,-5.905182,0.704781,-16.418445,13.236799,4.994183,-20.047658,0.812949,2.933051,-0.451582,-0.726074,0.415283,-0.622803,-0.061434,0.007850,-0.163264,0.999882,0.004065,0.014665,-0.002258,-0.650878,0.036508,0.566098,-0.504536
39230,NaN,-6.960466,-6.297362,-23.836318,23.391593,4.192150,-19.379893,0.881422,0.297648,0.516633,-0.721924,0.413086,-0.625000,-0.069798,-0.062103,-0.238534,0.999986,0.004407,0.001488,0.002583,-0.655250,0.040177,0.562308,-0.502835
39231,NaN,6.408683,-5.416390,-10.580352,10.608828,7.360988,-5.860763,0.543384,-0.421413,1.493035,-0.719971,0.423828,-0.625000,0.064710,-0.053395,-0.105813,0.999966,0.002717,-0.002107,0.007465,-0.650404,0.041528,0.562002,-0.509317
39232,NaN,11.092123,-7.227192,4.056976,-0.492145,2.410293,3.813092,-0.845547,-0.455133,2.708059,-0.708008,0.451660,-0.618896,0.111791,-0.070589,0.041124,0.999897,-0.004228,-0.002276,0.013540,-0.644913,0.053621,0.565182,-0.511645
39233,NaN,14.583646,-8.848838,6.809152,-2.651110,3.208336,8.074939,-3.332732,2.051226,3.422596,-0.673096,0.490234,-0.632080,0.148007,-0.084834,0.068015,0.999662,-0.016662,0.010255,0.017111,-0.640848,0.079260,0.565984,-0.512536
39234,NaN,34.223388,-1.953346,43.522718,-39.224152,5.503125,28.916522,0.719249,4.397272,1.627226,-0.649658,0.479492,-0.657471,0.351842,-0.018243,0.427494,0.999719,0.003596,0.021984,0.008135,-0.653095,0.096537,0.548982,-0.512607
39235,NaN,14.459886,-9.467980,-23.950120,22.974008,17.518050,-3.679148,2.540506,0.115065,-0.346486,-0.638672,0.466797,-0.669922,0.144300,-0.091877,-0.240763,0.999918,0.012702,0.000575,-0.001732,-0.655477,0.087571,0.542216,-0.518346
39236,NaN,-1.461659,-1.115599,-12.543210,10.884041,3.927734,-14.991680,1.117835,0.271140,0.075554,-0.648926,0.458252,-0.663574,-0.014783,-0.010460,-0.125472,0.999983,0.005589,0.001356,0.000378,-0.658535,0.086217,0.538517,-0.518553
39237,NaN,6.761309,-2.936725,-14.337448,12.249496,10.467295,-9.298090,0.765703,-3.360207,-0.286197,-0.674316,0.451660,-0.650635,0.069969,-0.028920,-0.142323,0.999851,0.003828,-0.016800,-0.001431,-0.650467,0.074195,0.547637,-0.521039
39238,NaN,7.898214,-3.903207,-7.795495,7.223444,7.971036,-5.052790,0.952039,-4.191428,-0.862222,-0.709717,0.438721,-0.625244,0.080427,-0.039010,-0.076465,0.999760,0.004760,-0.020955,-0.004311,-0.641578,0.057636,0.559828,-0.521199
39239,NaN,10.956390,-1.592135,-2.821212,1.127178,8.649152,-2.434521,0.692724,-4.478813,-1.034263,-0.734863,0.427979,-0.599609,0.110076,-0.016398,-0.025807,0.999730,0.003463,-0.022392,-0.005171,-0.631769,0.040827,0.572534,-0.520966
39240,NaN,13.053310,-2.842310,-0.340130,-0.768480,7.909354,0.930291,0.395548,-4.101286,-0.536415,-0.755859,0.425781,-0.576172,0.130490,-0.028770,-0.000782,0.999784,0.001978,-0.020505,-0.002682,-0.621532,0.027394,0.585505,-0.519742
39241,NaN,13.587988,-6.316908,1.006404,-0.138809,5.611895,4.116377,0.316948,-3.564739,0.348442,-0.766602,0.429932,-0.555176,0.135783,-0.062951,0.012385,0.999838,0.001585,-0.017823,0.001742,-0.610140,0.018156,0.595615,-0.522152
39242,NaN,15.631431,-8.458643,1.803389,-0.312624,5.273480,7.252363,0.271953,-2.863070,1.405601,-0.770996,0.436279,-0.538086,0.156625,-0.083513,0.020161,0.999872,0.001360,-0.014315,0.007028,-0.600648,0.017104,0.604455,-0.523032
39243,NaN,20.560318,-11.219922,3.360700,-1.708210,6.227516,12.950766,-0.051173,-2.075128,2.062709,-0.771240,0.449219,-0.523438,0.206382,-0.110064,0.035774,0.999893,-0.000256,-0.010375,0.010313,-0.588920,0.018057,0.610578,-0.529189
39244,NaN,23.433897,-13.499171,5.277801,-3.257344,5.852974,16.913995,-0.293574,-2.191852,2.006360,-0.773926,0.466309,-0.506592,0.235078,-0.132556,0.055547,0.999889,-0.001468,-0.010959,0.010031,-0.580690,0.023637,0.618498,-0.528867
39245,NaN,26.343308,-11.617492,3.667450,-4.884385,9.430011,17.197384,-0.314021,-2.653826,1.526769,-0.780273,0.474854,-0.487793,0.263790,-0.114101,0.040354,0.999882,-0.001570,-0.013269,0.007634,-0.568347,0.022243,0.626778,-0.532575
39246,NaN,27.135410,-7.321848,6.008493,-9.987863,10.036587,15.197298,-0.308129,-2.611182,0.994314,-0.784912,0.483398,-0.468750,0.270897,-0.071775,0.063735,0.999901,-0.001541,-0.013055,0.004971,-0.561043,0.023396,0.635755,-0.529622
39247,NaN,23.703103,-4.784390,7.350203,-11.736078,7.662199,11.217293,-0.103209,-3.034804,0.398912,-0.801758,0.483398,-0.456055,0.235974,-0.047333,0.077113,0.999883,-0.000516,-0.015173,0.001994,-0.550268,0.016907,0.644419,-0.530701
39248,NaN,20.063313,-3.820298,7.266132,-11.121691,5.504796,7.960844,0.526415,-3.110937,0.045806,-0.807861,0.479004,-0.426270,0.199480,-0.038354,0.075669,0.999876,0.002632,-0.015554,0.000229,-0.544251,0.011888,0.652309,-0.527392
39249,NaN,16.633290,-3.859110,7.292767,-9.993770,2.910127,5.561728,1.077986,-3.275690,-0.064967,-0.818359,0.474609,-0.411377,0.165098,-0.039047,0.075429,0.999851,0.005390,-0.016378,-0.000325,-0.533729,0.000096,0.658285,-0.530843
39250,NaN,15.348447,-3.823717,6.690629,-9.178997,2.226857,4.530437,1.506545,-3.324791,-0.006492,-0.826660,0.474609,-0.396729,0.152346,-0.038757,0.069155,0.999833,0.007532,-0.016623,-0.000032,-0.527292,-0.007968,0.663793,-0.530357
39251,NaN,15.000515,-2.798196,6.365500,-9.537093,2.255503,3.502870,1.745474,-3.044385,0.171375,-0.832764,0.463867,-0.383789,0.149040,-0.028421,0.065682,0.999846,0.008727,-0.015221,0.000857,-0.516589,-0.020080,0.667094,-0.536394
39252,NaN,12.713526,-1.638268,6.056326,-9.044603,1.363113,1.018985,1.753185,-2.458403,0.382487,-0.836914,0.465820,-0.375488,0.126411,-0.016680,0.061975,0.999884,0.008766,-0.012292,0.001912,-0.507184,-0.031033,0.669136,-0.542272
39253,NaN,9.843934,0.439387,5.216806,-8.414518,1.133160,-2.586408,1.554535,-1.861652,0.560303,-0.839111,0.463867,-0.373291,0.097936,0.004258,0.053115,0.999923,0.007772,-0.009308,0.002801,-0.499162,-0.038154,0.669675,-0.548559
39254,NaN,6.482357,3.129252,4.291170,-7.808604,1.066576,-6.964230,1.099435,-1.331943,0.654884,-0.836914,0.468018,-0.366943,0.064433,0.031266,0.043514,0.999957,0.005497,-0.006660,0.003274,-0.493118,-0.043272,0.670328,-0.552832
39255,NaN,4.393177,6.336605,3.129737,-7.991189,2.080326,-10.842267,0.602449,-0.948784,0.620352,-0.834961,0.470215,-0.366943,0.043585,0.063407,0.031696,0.999979,0.003012,-0.004744,0.003102,-0.488089,-0.045308,0.671120,-0.556160
39256,NaN,2.790683,8.536381,2.223911,-7.949970,2.792580,-13.634005,0.195244,-0.631933,0.629412,-0.835205,0.480957,-0.358643,0.027567,0.085429,0.022410,0.999990,0.000976,-0.003160,0.003147,-0.484938,-0.046198,0.672357,-0.557348
39257,NaN,0.083004,9.587674,0.705896,-6.224787,3.061191,-16.469223,-0.180192,-0.567121,0.614399,-0.837402,0.485107,-0.356445,0.000516,0.095885,0.006974,0.999991,-0.000901,-0.002836,0.003072,-0.481363,-0.045285,0.674368,-0.558092
39258,NaN,-1.741498,9.157840,-0.102209,-4.476316,2.688641,-17.535559,-0.291088,-0.798320,0.567711,-0.837402,0.485107,-0.345947,-0.017670,0.091527,-0.001226,0.999987,-0.001455,-0.003992,0.002839,-0.478150,-0.045582,0.677232,-0.557361
39259,NaN,-0.213120,7.244475,0.320263,-4.372791,2.353265,-15.101463,-0.107344,-1.050590,0.414150,-0.829102,0.491455,-0.339600,-0.002298,0.072442,0.003152,0.999984,-0.000537,-0.005253,0.002071,-0.473462,-0.046859,0.680124,-0.557736
39260,NaN,2.466840,5.858936,1.609945,-5.775997,2.030955,-12.161568,0.141363,-1.117373,0.261431,-0.833252,0.491455,-0.333252,0.024501,0.058610,0.016278,0.999983,0.000707,-0.005587,0.001307,-0.469990,-0.050055,0.682406,-0.557608
39261,NaN,4.205509,5.637214,1.597510,-6.608177,2.710997,-10.812119,-0.090780,-0.984826,0.107335,-0.839600,0.489258,-0.326904,0.041946,0.056402,0.016156,0.999988,-0.000454,-0.004924,0.000537,-0.466355,-0.052230,0.684989,-0.557293
39262,NaN,5.332840,5.595754,1.535252,-7.179751,3.244955,-9.986120,-0.673272,-0.689729,-0.159676,-0.841553,0.489258,-0.314209,0.053320,0.055967,0.015348,0.999988,-0.003366,-0.003449,-0.000798,-0.465889,-0.053684,0.688331,-0.553412
39263,NaN,6.888129,5.644161,2.537369,-8.649676,3.169865,-8.876870,-1.332302,-0.116626,-0.510066,-0.841553,0.487061,-0.318359,0.069011,0.056433,0.025038,0.999974,-0.006661,-0.000583,-0.002550,-0.467252,-0.052667,0.692132,-0.547590
39264,NaN,8.236024,3.162837,5.227703,-9.501770,0.724864,-6.024046,-1.717293,0.806211,-0.704831,-0.841797,0.491455,-0.318359,0.082681,0.031783,0.051672,0.999949,-0.008586,0.004031,-0.003524,-0.473921,-0.049357,0.694520,-0.539077
39265,NaN,7.574425,-0.292762,6.346330,-7.812146,-1.730070,-4.006830,-1.760449,1.807150,-0.718544,-0.839355,0.485107,-0.324707,0.076304,-0.002646,0.062800,0.999914,-0.008802,0.009035,-0.003593,-0.482534,-0.042816,0.694743,-0.531657
39266,NaN,4.297223,-4.331638,5.731259,-3.408590,-4.328659,-3.510385,-1.642443,2.671015,-0.714764,-0.828857,0.482910,-0.337402,0.043582,-0.043002,0.057087,0.999871,-0.008212,0.013354,-0.003574,-0.495864,-0.034511,0.691971,-0.523549
39267,NaN,0.973859,-7.049049,4.040515,0.822972,-5.773955,-4.072792,-1.411029,2.917037,-0.716761,-0.826660,0.478760,-0.352295,0.010079,-0.070239,0.040756,0.999862,-0.007055,0.014585,-0.003584,-0.508015,-0.025862,0.688212,-0.517317
39268,NaN,0.072019,-7.789294,3.406828,1.992623,-6.109352,-4.245910,-1.139460,2.911678,-0.544104,-0.813965,0.480957,-0.373535,0.001009,-0.077700,0.034498,0.999874,-0.005697,0.014558,-0.002720,-0.521430,-0.017400,0.682983,-0.511216
39269,NaN,0.615626,-7.164188,3.141101,1.484695,-5.348187,-4.266248,-1.050355,2.953126,-0.383763,-0.807617,0.476562,-0.390381,0.006486,-0.071488,0.031693,0.999875,-0.005252,0.014765,-0.001919,-0.532529,-0.008432,0.677848,-0.506817
39270,NaN,2.851033,-7.166839,1.615443,1.574955,-3.091794,-2.737250,-0.962779,3.142418,-0.218825,-0.805664,0.480957,-0.409424,0.028685,-0.071622,0.016050,0.999864,-0.004814,0.015711,-0.001094,-0.545508,0.001402,0.671095,-0.502046
39271,NaN,6.828856,-9.318998,-0.694124,2.921693,-0.344929,1.381044,-0.243984,3.450341,-0.172150,-0.786621,0.476807,-0.434814,0.068076,-0.093258,-0.008003,0.999850,-0.001220,0.017251,-0.000861,-0.557441,0.010139,0.662195,-0.500653
39272,NaN,10.708274,-8.504363,2.072065,-0.749354,0.664614,3.980952,0.681593,3.625160,-0.477831,-0.771484,0.468262,-0.462402,0.107228,-0.085365,0.018487,0.999827,0.003408,0.018125,-0.002389,-0.572174,0.015752,0.649582,-0.500413
39273,NaN,15.991467,-5.970718,5.459057,-6.078304,3.250216,6.729006,1.009812,3.680740,-0.971503,-0.765137,0.457764,-0.491943,0.160586,-0.060751,0.051334,0.999806,0.005049,0.018403,-0.004857,-0.586534,0.018903,0.636474,-0.500520
39274,NaN,21.264267,-5.708221,3.799920,-5.898704,7.997152,10.197186,0.602247,3.201488,-1.056666,-0.760498,0.449219,-0.510742,0.212907,-0.058314,0.034418,0.999853,0.003011,0.016007,-0.005283,-0.600924,0.021754,0.624815,-0.498019
39275,NaN,26.693352,-8.230952,-2.301161,-0.616316,14.026883,14.444551,0.216450,2.115216,-0.708417,-0.754150,0.444824,-0.525635,0.266376,-0.083227,-0.025921,0.999937,0.001082,0.010576,-0.003542,-0.609290,0.024146,0.617957,-0.496299
39276,NaN,31.580470,-11.655676,-6.786477,4.362397,18.233979,18.956492,0.340810,2.550610,-0.207701,-0.735107,0.440674,-0.546875,0.314782,-0.116764,-0.072082,0.999917,0.001704,0.012753,-0.001038,-0.619072,0.028420,0.608712,-0.495391
39277,NaN,32.581488,-12.884892,-1.829438,1.819223,15.996505,21.357458,0.550122,3.815574,0.303274,-0.720459,0.447266,-0.576416,0.325577,-0.128293,-0.024861,0.999813,0.002750,0.019077,0.001516,-0.629903,0.037075,0.595381,-0.497362
39278,NaN,27.179624,-8.720537,2.177195,-1.667281,12.904744,15.684516,0.822634,3.756933,-0.177820,-0.692627,0.434326,-0.601807,0.272059,-0.087522,0.016303,0.999815,0.004113,0.018784,-0.000889,-0.642373,0.042267,0.581322,-0.497630
39279,NaN,26.262471,-7.187667,4.002698,-2.944390,12.667233,14.439547,1.225394,3.819130,-0.399462,-0.673340,0.426025,-0.633545,0.263175,-0.072625,0.034561,0.999797,0.006127,0.019094,-0.001997,-0.654603,0.046653,0.565972,-0.498993
39280,NaN,24.980863,-9.613446,6.579262,-2.309268,9.790973,15.847149,1.179294,4.297254,-0.525934,-0.647949,0.419678,-0.665283,0.250882,-0.097158,0.059839,0.999748,0.005896,0.021484,-0.002629,-0.668783,0.050600,0.549058,-0.498702
39281,NaN,22.557233,-9.088623,8.887351,-3.229100,7.771590,14.672036,0.924394,3.919072,-0.855576,-0.626221,0.406738,-0.688721,0.226858,-0.092251,0.084012,0.999788,0.004622,0.019594,-0.004278,-0.681775,0.054910,0.533748,-0.497273
39282,NaN,22.158030,-6.616211,6.821296,-2.249206,10.030612,11.994409,0.628817,3.453595,-0.796793,-0.611328,0.400391,-0.707764,0.222445,-0.067253,0.064166,0.999838,0.003144,0.017267,-0.003984,-0.693544,0.057573,0.520746,-0.494475
39283,NaN,20.168396,-2.886325,7.857353,-4.638431,10.373016,8.833277,0.102920,3.410126,-0.654956,-0.587891,0.398438,-0.720459,0.202888,-0.029566,0.075106,0.999849,0.000515,0.017050,-0.003275,-0.703976,0.063922,0.508775,-0.491407
39284,NaN,18.760303,0.958315,7.141326,-5.900868,11.895250,5.270853,-0.891265,3.184852,-0.657645,-0.566895,0.400635,-0.733154,0.188739,0.009273,0.068372,0.999858,-0.004456,0.015924,-0.003288,-0.713762,0.071303,0.500187,-0.485049
39285,NaN,17.620424,2.236183,6.060115,-5.403820,12.461229,3.137012,-1.611318,2.824700,-0.656781,-0.548096,0.413330,-0.737549,0.177108,0.022255,0.057924,0.999862,-0.008056,0.014123,-0.003284,-0.721755,0.082240,0.494178,-0.477592
39286,NaN,14.473145,2.418190,4.752476,-4.255798,10.832076,0.308814,-2.102776,2.444489,-0.699194,-0.531494,0.424072,-0.741943,0.145380,0.024160,0.045496,0.999864,-0.010513,0.012222,-0.003496,-0.728999,0.091747,0.490938,-0.468107
39287,NaN,12.597414,1.962671,3.613619,-2.938235,9.696777,-1.272339,-2.204423,1.845228,-0.707211,-0.525391,0.434814,-0.737793,0.126368,0.019568,0.034756,0.999890,-0.011022,0.009226,-0.003536,-0.734101,0.102342,0.489641,-0.459210
39288,NaN,11.820405,2.301026,2.271780,-1.893269,9.761929,-2.650733,-2.464208,1.385441,-0.787459,-0.515137,0.449707,-0.731689,0.118446,0.022815,0.021616,0.999892,-0.012321,0.006927,-0.003937,-0.738468,0.110223,0.490969,-0.448848
39289,NaN,9.828551,1.216482,-0.269607,0.764591,8.346865,-4.531057,-2.549509,1.187148,-0.881240,-0.511475,0.467041,-0.729736,0.098319,0.011691,-0.003431,0.999891,-0.012747,0.005936,-0.004406,-0.741884,0.120113,0.492740,-0.438622
39290,NaN,5.949749,-0.469147,-2.435003,3.108873,4.872441,-6.959331,-2.576230,1.288075,-0.775261,-0.501221,0.477539,-0.723389,0.059320,-0.005238,-0.024667,0.999889,-0.012881,0.006440,-0.003876,-0.745564,0.127946,0.494574,-0.427972
39291,NaN,1.969408,-2.755238,-3.684262,4.817439,0.646595,-8.622522,-2.457071,1.203507,-0.681080,-0.497314,0.494873,-0.719482,0.019378,-0.028070,-0.036617,0.999901,-0.012285,0.006017,-0.003405,-0.748361,0.137971,0.495732,-0.418533
39292,NaN,-1.731996,-4.719819,-4.342800,5.731338,-3.354363,-9.997819,-2.210811,0.858306,-0.595033,-0.497803,0.509766,-0.704590,-0.017646,-0.047622,-0.042828,0.999925,-0.011054,0.004291,-0.002975,-0.750444,0.143873,0.498242,-0.409743
39293,NaN,-4.141030,-5.693844,-4.404372,5.763113,-5.884568,-10.872567,-1.866195,0.197571,-0.635488,-0.495850,0.516113,-0.702637,-0.041635,-0.057214,-0.043470,0.999951,-0.009331,0.000988,-0.003177,-0.750868,0.149676,0.501757,-0.402534
39294,NaN,-6.060112,-6.701895,-4.427236,5.857404,-8.012978,-11.462921,-1.414414,-0.415352,-0.651843,-0.504395,0.518311,-0.692139,-0.060728,-0.067133,-0.043924,0.999968,-0.007072,-0.002077,-0.003259,-0.750218,0.150015,0.507412,-0.396487
39295,NaN,-8.609839,-6.380251,-4.399741,5.239512,-9.728490,-13.290976,-0.791008,-1.017688,-0.670636,-0.512939,0.522461,-0.685791,-0.086088,-0.063688,-0.044183,0.999974,-0.003955,-0.005088,-0.003353,-0.748361,0.149245,0.513288,-0.392705
39296,NaN,-11.759553,-5.539379,-4.875215,4.879655,-11.327196,-16.186022,-0.112233,-1.695920,-0.689315,-0.534180,0.520264,-0.681396,-0.117367,-0.055017,-0.049717,0.999958,-0.000561,-0.008479,-0.003447,-0.745309,0.142404,0.521067,-0.390800
39297,NaN,-13.886513,-4.477730,-6.290824,5.577827,-11.727364,-18.967037,0.574262,-2.527070,-0.572835,-0.548828,0.513916,-0.666504,-0.138182,-0.044197,-0.064785,0.999912,0.002871,-0.012635,-0.002864,-0.740196,0.133807,0.529726,-0.391913
39298,NaN,-15.028965,-3.348086,-7.226507,6.155924,-11.239937,-20.994758,1.205959,-3.397740,-0.402342,-0.578125,0.503174,-0.655762,-0.149097,-0.032733,-0.075004,0.999835,0.006029,-0.016988,-0.002012,-0.732651,0.119879,0.540716,-0.395573
39299,NaN,-13.188553,-2.974925,-7.686249,7.044782,-9.135960,-20.240211,1.781358,-4.042563,-0.196171,-0.600830,0.486084,-0.640625,-0.130321,-0.028919,-0.079767,0.999756,0.008906,-0.020211,-0.000981,-0.723008,0.104784,0.551987,-0.401984
39300,NaN,-9.516113,-2.911946,-7.032841,7.119120,-6.218737,-17.501098,2.166724,-4.507392,0.032503,-0.630127,0.475098,-0.625732,-0.093535,-0.028355,-0.072759,0.999687,0.010832,-0.022535,0.000162,-0.711228,0.086579,0.564305,-0.410145
39301,NaN,-5.555860,-2.908610,-6.292423,6.877093,-3.321641,-14.348670,2.433127,-4.844145,0.202456,-0.659424,0.462402,-0.612793,-0.053979,-0.028362,-0.064593,0.999632,0.012164,-0.024218,0.001012,-0.697947,0.068518,0.576245,-0.419663
39302,NaN,-1.737687,-2.278190,-4.118868,4.769565,-0.865162,-11.105284,2.594347,-5.135843,0.387672,-0.686523,0.449463,-0.583008,-0.016263,-0.022274,-0.041907,0.999584,0.012970,-0.025676,0.001938,-0.682480,0.048530,0.589021,-0.430024
39303,NaN,2.396338,-1.031841,0.154466,0.217276,0.809340,-7.337237,2.378464,-5.320192,0.598565,-0.711670,0.440674,-0.561768,0.023944,-0.010269,0.002059,0.999571,0.011891,-0.026597,0.002992,-0.665820,0.030702,0.601662,-0.440164
39304,NaN,7.310537,-0.143704,4.573408,-4.654275,2.042467,-2.846168,1.864482,-4.829430,0.766284,-0.732666,0.432129,-0.531982,0.071979,-0.001597,0.047467,0.999658,0.009321,-0.024144,0.003831,-0.649059,0.014936,0.614013,-0.448873
39305,NaN,11.586394,1.021241,9.169691,-9.970013,2.495544,0.851232,0.932359,-3.433024,0.914536,-0.747559,0.436279,-0.512939,0.114220,0.010303,0.093715,0.999831,0.004662,-0.017164,0.004572,-0.636437,0.006994,0.622888,-0.454873
39306,NaN,19.337342,3.247028,14.992322,-17.649980,4.778974,6.766570,-0.252307,-1.298242,0.983028,-0.743408,0.442627,-0.510986,0.192232,0.033607,0.151132,0.999966,-0.001262,-0.006491,0.004915,-0.629844,0.006797,0.628019,-0.456993
39307,NaN,25.491030,-0.294136,23.952830,-24.166176,1.331012,15.442673,0.096890,0.828786,0.572871,-0.743408,0.438477,-0.523438,0.255907,-0.002325,0.238468,0.999987,0.000484,0.004144,0.002864,-0.631142,0.010167,0.625159,-0.459056
39308,NaN,25.373210,-3.450591,19.387937,-18.523178,2.154482,16.337685,0.297454,0.702444,-0.439849,-0.738770,0.429932,-0.525635,0.254334,-0.035352,0.192935,0.999990,0.001487,0.003512,-0.002199,-0.635014,0.008685,0.622155,-0.457827
39309,NaN,27.140418,1.716383,7.416240,-11.710643,13.079675,12.238477,0.512437,2.967824,-1.661762,-0.723633,0.415039,-0.559326,0.272594,0.014719,0.070163,0.999852,0.002562,0.014838,-0.008308,-0.647988,0.008663,0.611538,-0.453937
39310,NaN,18.427321,-0.373554,2.018972,-3.808556,9.874729,5.408230,0.653911,5.237123,-1.939761,-0.712646,0.397949,-0.588867,0.184669,-0.005581,0.015341,0.999605,0.003269,0.026182,-0.009698,-0.669273,0.011724,0.592482,-0.448220
39311,NaN,5.186934,0.026937,-12.333563,9.416169,9.503703,-9.707252,2.301033,4.025643,-2.522809,-0.699219,0.368164,-0.618408,0.049383,0.001063,-0.124337,0.999652,0.011504,0.020126,-0.012613,-0.686762,0.005551,0.573796,-0.446190
39312,NaN,-14.037180,-4.138541,-24.932966,22.771486,1.457990,-27.563439,2.344194,1.762545,-1.115096,-0.702881,0.348877,-0.628662,-0.142781,-0.037678,-0.248535,0.999877,0.011720,0.008812,-0.005575,-0.694941,-0.002883,0.562332,-0.448142
39313,NaN,-1.680075,-5.868643,-15.858326,16.051394,3.616392,-14.057640,1.305363,-0.622371,-0.158225,-0.700928,0.350830,-0.624512,-0.016352,-0.057636,-0.159013,0.999974,0.006527,-0.003112,-0.000791,-0.693518,-0.009276,0.561551,-0.451228
39314,NaN,8.796643,-6.380322,1.414254,2.562417,0.903748,0.803551,-0.005023,-1.106125,1.312876,-0.703369,0.363770,-0.616211,0.088303,-0.063224,0.014632,0.999963,-0.000025,-0.005531,0.006564,-0.687188,-0.009416,0.565925,-0.455426
39315,NaN,11.372105,-8.240489,5.654629,0.079726,-0.627160,5.312872,-2.891545,1.173262,2.434863,-0.685303,0.397949,-0.614258,0.115040,-0.080187,0.057044,0.999804,-0.014457,0.005866,0.012174,-0.684976,0.010063,0.568480,-0.455563
39316,NaN,34.660758,-2.773668,26.141593,-20.658953,8.231700,27.569487,-0.264169,4.972547,2.321276,-0.645264,0.406738,-0.656738,0.353251,-0.023324,0.252720,0.999623,-0.001321,0.024860,0.011605,-0.693331,0.027667,0.552221,-0.462147
39317,NaN,8.903494,-17.932570,-4.384863,14.181289,-2.002318,4.848170,1.935016,0.492917,0.999597,-0.647217,0.395996,-0.654541,0.089817,-0.178441,-0.045799,0.999938,0.009675,0.002465,0.004998,-0.692617,0.024839,0.545868,-0.470843
39318,NaN,-1.086763,-2.649632,-23.743347,20.145104,9.248295,-18.789799,0.840631,0.454967,1.155870,-0.645020,0.400391,-0.654785,-0.011258,-0.025562,-0.237517,0.999972,0.004203,0.002275,0.005779,-0.691094,0.025024,0.542575,-0.476840
39319,NaN,2.504381,2.989169,-10.456751,6.037696,8.483817,-13.826958,0.372920,-2.844925,0.550890,-0.664062,0.395996,-0.633545,0.026444,0.030158,-0.104142,0.999893,0.001865,-0.014224,0.002754,-0.682047,0.018426,0.551388,-0.480046
39320,NaN,7.239244,-1.290788,-12.379661,9.659460,10.574078,-8.337108,0.340691,-4.509977,0.218900,-0.697754,0.393799,-0.603760,0.075173,-0.012618,-0.122144,0.999744,0.001703,-0.022548,0.001094,-0.668202,0.005657,0.566644,-0.482067
39321,NaN,10.665210,-2.264199,-6.511728,5.047080,9.205054,-2.668499,0.385935,-4.887831,0.036192,-0.716797,0.395752,-0.573975,0.108206,-0.022500,-0.062529,0.999700,0.001929,-0.024437,0.000181,-0.654089,-0.007331,0.581870,-0.483261
39322,NaN,13.630885,-0.558222,-0.948837,-1.194275,8.539596,0.799787,0.164088,-4.900077,0.181217,-0.746338,0.393555,-0.538086,0.136492,-0.005453,-0.006150,0.999699,0.000820,-0.024498,0.000906,-0.638079,-0.020748,0.598370,-0.484126
39323,NaN,18.278414,-2.160249,0.632411,-2.787752,9.096820,5.954080,-0.283642,-4.255324,0.634438,-0.756836,0.393555,-0.512451,0.182661,-0.021010,0.010242,0.999768,-0.001418,-0.021275,0.003172,-0.623705,-0.028260,0.612557,-0.484735
39324,NaN,20.890617,-7.479605,0.531902,-0.620942,7.430717,11.091721,-0.644281,-3.186726,1.349610,-0.763672,0.414795,-0.497803,0.209282,-0.073360,0.008890,0.999845,-0.003221,-0.015933,0.006748,-0.609595,-0.031428,0.625131,-0.486434
39325,NaN,23.616237,-11.524962,0.703621,0.307695,6.499648,15.655675,-0.825415,-2.828929,1.893160,-0.776855,0.431885,-0.470459,0.237103,-0.112969,0.010855,0.999847,-0.004127,-0.014144,0.009465,-0.596196,-0.029890,0.635961,-0.489092
39326,NaN,25.321023,-12.481967,0.964651,-0.757669,6.518295,17.659855,-0.889423,-2.803783,1.963468,-0.779297,0.444580,-0.449463,0.254245,-0.122272,0.013754,0.999844,-0.004447,-0.014018,0.009817,-0.581461,-0.029416,0.647644,-0.491523
39327,NaN,27.230088,-10.968010,1.126911,-3.367662,7.957124,18.264094,-0.872002,-2.945735,1.456916,-0.783691,0.457520,-0.417725,0.272880,-0.107631,0.015758,0.999855,-0.004360,-0.014728,0.007284,-0.568398,-0.029420,0.658470,-0.492419
39328,NaN,29.190874,-6.164958,4.437681,-10.205134,8.647634,17.220785,-0.661070,-2.917448,0.731084,-0.792480,0.463867,-0.400879,0.291440,-0.060427,0.048832,0.999881,-0.003305,-0.014587,0.003655,-0.556041,-0.033846,0.669309,-0.491629
39329,NaN,25.112560,-3.997205,7.619322,-12.824159,4.961953,12.892934,-0.596547,-2.761073,0.240887,-0.798828,0.470215,-0.381836,0.250089,-0.039436,0.079769,0.999900,-0.002983,-0.013805,0.001204,-0.546265,-0.038187,0.678423,-0.489774
39330,NaN,21.697676,-6.260979,8.210004,-11.000934,1.064652,11.522529,-0.392040,-3.159039,0.015957,-0.804932,0.468018,-0.348145,0.215648,-0.062427,0.085636,0.999873,-0.001960,-0.015795,0.000080,-0.534926,-0.046170,0.688593,-0.487403
39331,NaN,19.136398,-6.799546,8.292658,-10.020309,-1.060449,9.671402,0.076167,-3.455183,-0.034030,-0.822021,0.467773,-0.322510,0.189882,-0.068060,0.086190,0.999851,0.000381,-0.017275,-0.000170,-0.523027,-0.054927,0.697535,-0.486693
39332,NaN,16.492571,-5.760845,8.970578,-10.146557,-2.800012,6.765552,0.634825,-3.502584,0.028396,-0.828125,0.463623,-0.301270,0.163331,-0.057876,0.092392,0.999842,0.003174,-0.017512,0.000142,-0.510298,-0.066085,0.705469,-0.487384
39333,NaN,13.493005,-4.547280,9.210012,-9.727026,-4.077063,3.465319,1.211026,-3.265354,0.140298,-0.834229,0.461426,-0.284424,0.133438,-0.045944,0.094010,0.999848,0.006055,-0.016326,0.000701,-0.497972,-0.076650,0.710785,-0.490850
39334,NaN,10.543142,-2.363473,8.603613,-9.202860,-4.039921,-0.339486,1.626306,-2.801090,0.361069,-0.838623,0.463379,-0.275879,0.104258,-0.024152,0.087307,0.999867,0.008131,-0.014005,0.001805,-0.486640,-0.087041,0.714027,-0.495753
39335,NaN,7.992947,-0.193381,7.617655,-8.587976,-3.393352,-3.756340,1.837941,-2.277774,0.670385,-0.838623,0.465576,-0.269531,0.079063,-0.002373,0.077060,0.999887,0.009189,-0.011388,0.003352,-0.476003,-0.094779,0.715221,-0.502889
39336,NaN,6.038799,2.401436,5.419947,-7.835519,-1.265415,-6.878408,2.038851,-1.665362,0.885551,-0.836426,0.465576,-0.261230,0.059827,0.023723,0.054942,0.999904,0.010194,-0.008327,0.004428,-0.467331,-0.101144,0.714477,-0.510778
39337,NaN,4.067067,5.076984,3.223231,-7.193758,0.942628,-10.067479,1.862137,-1.171934,1.034960,-0.832520,0.476318,-0.259277,0.040217,0.050674,0.032941,0.999926,0.009310,-0.005860,0.005175,-0.459537,-0.104808,0.712926,-0.519208
39338,NaN,1.940323,7.011913,0.850046,-5.947808,2.949806,-12.906997,1.402176,-0.883777,1.205953,-0.834717,0.478516,-0.267578,0.018941,0.070172,0.009077,0.999947,0.007011,-0.004419,0.006030,-0.453219,-0.106392,0.711910,-0.525792
39339,NaN,0.170186,7.790444,-0.751985,-4.586970,3.952162,-14.774988,0.983446,-0.808423,1.202417,-0.834961,0.487061,-0.263428,0.001263,0.077949,-0.007131,0.999962,0.004917,-0.004042,0.006012,-0.446652,-0.106486,0.711764,-0.531558
39340,NaN,0.379377,7.451327,-0.663154,-4.542516,3.733481,-14.452938,0.771166,-0.744431,1.001794,-0.828857,0.491211,-0.265625,0.003444,0.074556,-0.006331,0.999973,0.003856,-0.003722,0.005009,-0.441696,-0.106971,0.711887,-0.535424
39341,NaN,1.370538,6.408585,1.130308,-5.390536,2.028116,-13.137491,0.677093,-0.582913,0.771121,-0.826416,0.487061,-0.252930,0.013425,0.064099,0.011559,0.999983,0.003385,-0.002915,0.003856,-0.437199,-0.107305,0.711757,-0.539207
39342,NaN,2.675473,6.971531,3.526366,-7.729263,0.565933,-12.664647,0.265118,-0.319965,0.395527,-0.826660,0.497559,-0.255127,0.026560,0.069721,0.035399,0.999996,0.001326,-0.001600,0.001978,-0.435677,-0.107666,0.711936,-0.540131
39343,NaN,5.929286,6.849511,5.080640,-10.374967,0.212026,-10.260023,-0.429845,0.099644,-0.050847,-0.826660,0.491211,-0.252930,0.059336,0.068589,0.050630,0.999998,-0.002149,0.000498,-0.000254,-0.436412,-0.106666,0.712846,-0.538533
39344,NaN,9.204191,4.662538,4.922279,-10.869759,0.616257,-6.326667,-0.953839,0.800557,-0.362342,-0.830811,0.491211,-0.257080,0.092322,0.046691,0.048631,0.999979,-0.004769,0.004003,-0.001812,-0.441774,-0.103935,0.713351,-0.534006
39345,NaN,8.164538,1.842204,3.121046,-7.540683,0.801952,-5.091764,-1.092665,1.604726,-0.461864,-0.828613,0.489014,-0.265625,0.081934,0.018401,0.030453,0.999950,-0.005463,0.008023,-0.002309,-0.449290,-0.098905,0.712444,-0.529887
39346,NaN,4.614248,-0.673912,1.347548,-2.937852,0.172283,-5.952653,-1.016446,2.195209,-0.454140,-0.824463,0.491211,-0.282471,0.046272,-0.006777,0.013002,0.999924,-0.005082,0.010976,-0.002271,-0.459996,-0.092542,0.709715,-0.525494
39347,NaN,1.785459,-2.311724,0.981400,-0.119441,-1.170754,-6.964866,-0.893165,2.485568,-0.562778,-0.826660,0.489258,-0.295166,0.017911,-0.023124,0.009695,0.999909,-0.004466,0.012427,-0.002814,-0.470679,-0.085972,0.706015,-0.522123
39348,NaN,0.165908,-3.775097,1.983296,1.063944,-3.225989,-7.229430,-0.717724,2.742353,-0.571457,-0.815918,0.480713,-0.310059,0.001824,-0.037685,0.019944,0.999895,-0.003588,0.013711,-0.002857,-0.483269,-0.079236,0.700864,-0.518616
39349,NaN,-0.310107,-4.370443,3.088421,0.965688,-4.564229,-7.172599,-0.610234,2.960224,-0.632701,-0.811523,0.474365,-0.337402,-0.002780,-0.043601,0.031060,0.999881,-0.003051,0.014801,-0.003163,-0.495480,-0.072319,0.694955,-0.516049
39350,NaN,-0.455873,-5.330506,1.840727,2.329980,-4.090159,-6.673919,-0.656946,3.239230,-0.518608,-0.802979,0.472168,-0.352295,-0.004396,-0.053233,0.018654,0.999860,-0.003285,0.016195,-0.002593,-0.509318,-0.064175,0.688043,-0.512907
39351,NaN,0.349049,-5.955129,0.516628,3.134013,-3.033783,-5.710698,-0.782734,3.544642,-0.429786,-0.797119,0.478760,-0.382080,0.003456,-0.059538,0.005338,0.999833,-0.003913,0.017722,-0.002149,-0.522793,-0.054585,0.680767,-0.510160
39352,NaN,3.123529,-6.879377,-1.496789,3.825538,-0.708214,-3.165491,-0.727984,3.805157,-0.477232,-0.788330,0.472412,-0.400879,0.030782,-0.068923,-0.015306,0.999810,-0.003640,0.019025,-0.002386,-0.538009,-0.044613,0.672099,-0.506792
39353,NaN,7.564444,-7.338706,-1.501516,2.447568,1.288505,0.467025,-0.105813,3.977648,-0.791962,-0.775635,0.463867,-0.430664,0.075035,-0.073693,-0.016473,0.999794,-0.000529,0.019887,-0.003960,-0.553308,-0.036927,0.661350,-0.505077
39354,NaN,11.437785,-6.003935,1.723304,-1.704759,1.814675,2.978636,0.399789,4.111757,-1.405295,-0.773193,0.451172,-0.459961,0.114272,-0.060874,0.014762,0.999762,0.001999,0.020557,-0.007026,-0.571018,-0.032363,0.648267,-0.502634
39355,NaN,15.539122,-3.167255,4.092209,-6.019478,4.037827,4.872824,0.307122,3.797254,-2.019999,-0.760010,0.434082,-0.485352,0.155799,-0.033305,0.037916,0.999768,0.001535,0.018985,-0.010099,-0.588233,-0.030262,0.636174,-0.498346
39356,NaN,19.363658,-2.379796,0.334739,-4.307798,9.299674,6.789815,0.097004,3.216661,-1.781966,-0.753174,0.414795,-0.504395,0.193435,-0.025523,0.000223,0.999831,0.000485,0.016082,-0.008909,-0.603552,-0.028301,0.625787,-0.493269
39357,NaN,21.553449,-6.625720,-2.996722,0.831518,10.678753,10.254093,0.364392,2.190385,-1.325437,-0.746582,0.408447,-0.521240,0.214743,-0.067625,-0.032444,0.999916,0.001822,0.010952,-0.006627,-0.613586,-0.028168,0.618036,-0.490663
39358,NaN,26.598783,-10.678542,-4.317575,3.722324,12.408510,16.116361,0.818695,1.628537,-0.631736,-0.744141,0.395752,-0.535889,0.265283,-0.107440,-0.045777,0.999953,0.004093,0.008143,-0.003159,-0.620646,-0.028914,0.610705,-0.490919
39359,NaN,31.855077,-10.473704,0.297269,-0.333091,12.956574,21.114168,1.314468,2.593829,-0.352389,-0.729248,0.389404,-0.563477,0.318362,-0.105297,-0.001848,0.999893,0.006572,0.012969,-0.001762,-0.629188,-0.027724,0.599311,-0.494146
39360,NaN,30.817502,-10.315426,5.149311,-2.902495,10.009819,21.394810,1.148584,3.347619,0.013977,-0.709961,0.380859,-0.588867,0.308980,-0.103406,0.045732,0.999843,0.005743,0.016737,0.000070,-0.639306,-0.023535,0.585814,-0.497550
39361,NaN,29.998624,-11.977321,6.308582,-1.573807,8.786714,21.862879,0.719015,4.058632,-0.280808,-0.686523,0.370117,-0.614258,0.301009,-0.120407,0.056552,0.999787,0.003595,0.020292,-0.001404,-0.651685,-0.016579,0.570892,-0.499113
39362,NaN,26.708495,-13.274213,6.027119,1.037693,6.974203,19.784990,0.587063,4.371333,-0.698895,-0.660889,0.361572,-0.639648,0.267845,-0.133842,0.054030,0.999751,0.002935,0.021855,-0.003494,-0.665992,-0.010211,0.555007,-0.498315
39363,NaN,24.084533,-9.792465,5.131514,0.615839,8.137967,15.398176,0.344523,4.158609,-1.015882,-0.637451,0.357422,-0.666992,0.241339,-0.099232,0.046130,0.999769,0.001722,0.020791,-0.005079,-0.679906,-0.003838,0.540120,-0.495968
39364,NaN,22.528032,-6.581786,6.283630,-1.390965,8.578157,12.874654,-0.125029,4.201055,-1.089384,-0.614014,0.353271,-0.690430,0.226172,-0.067011,0.058133,0.999764,-0.000625,0.021004,-0.005446,-0.693972,0.003338,0.526101,-0.491538
39365,NaN,20.554995,-3.385457,7.901652,-3.910878,8.553235,10.383614,-0.698704,4.003677,-1.026033,-0.595215,0.353271,-0.709473,0.206902,-0.034647,0.075004,0.999780,-0.003493,0.020017,-0.005130,-0.706874,0.012878,0.513827,-0.485947
39366,NaN,18.481517,-0.383967,7.465935,-4.977112,9.358298,7.071009,-1.437679,3.723546,-0.949903,-0.569824,0.355469,-0.722412,0.186143,-0.004201,0.071231,0.999790,-0.007188,0.018616,-0.004749,-0.718658,0.023765,0.504239,-0.478236
39367,NaN,15.922778,1.273591,6.794300,-5.174917,9.164997,3.990030,-2.123484,3.144969,-0.959583,-0.551025,0.368408,-0.724609,0.160329,0.012671,0.065293,0.999808,-0.010617,0.015724,-0.004798,-0.728505,0.036468,0.498033,-0.468949
39368,NaN,13.641864,1.583222,5.421361,-4.119983,8.549296,1.497573,-2.274024,2.256212,-1.052285,-0.536377,0.376953,-0.726807,0.137100,0.015715,0.052490,0.999858,-0.011370,0.011281,-0.005261,-0.736254,0.046563,0.495379,-0.458651
39369,NaN,12.278777,2.176327,4.320672,-3.507841,8.511326,-0.356497,-2.504860,1.542965,-1.202549,-0.528320,0.391846,-0.729004,0.123245,0.021554,0.041986,0.999874,-0.012524,0.007714,-0.006012,-0.742171,0.056315,0.495661,-0.447583
39370,NaN,11.074341,1.136017,3.243564,-1.964866,7.486557,-1.178977,-2.521136,0.964359,-1.340832,-0.526367,0.396240,-0.724854,0.110972,0.011020,0.031761,0.999886,-0.012605,0.004822,-0.006704,-0.746960,0.063605,0.498153,-0.435717
39371,NaN,7.968950,0.173360,0.906866,0.211995,5.483311,-3.960842,-2.450781,0.846168,-1.208516,-0.520264,0.406982,-0.708008,0.079736,0.001360,0.008713,0.999898,-0.012253,0.004231,-0.006042,-0.750858,0.071561,0.500667,-0.424764
39372,NaN,3.499964,-1.710632,-0.599635,1.946499,1.570373,-6.766308,-2.319981,0.829716,-0.896783,-0.516357,0.419678,-0.708252,0.034898,-0.017332,-0.005941,0.999914,-0.011600,0.004148,-0.004484,-0.754110,0.078870,0.502889,-0.414971
39373,NaN,0.253074,-3.078264,-1.835903,3.215641,-1.286092,-8.855927,-2.063270,0.582232,-0.645133,-0.514648,0.432617,-0.704102,0.002378,-0.030978,-0.018047,0.999937,-0.010316,0.002911,-0.003226,-0.756064,0.086206,0.505200,-0.407073
39374,NaN,-3.202310,-4.027199,-2.567036,3.736586,-4.188450,-11.060452,-1.813385,0.273245,-0.440439,-0.519043,0.438965,-0.693604,-0.032147,-0.040432,-0.025260,0.999956,-0.009067,0.001366,-0.002202,-0.756955,0.091653,0.508180,-0.400464
39375,NaN,-5.304075,-4.254220,-3.883973,4.580267,-5.508232,-12.974494,-1.543289,-0.261989,-0.396346,-0.517090,0.447510,-0.687256,-0.053075,-0.042735,-0.038580,0.999967,-0.007716,-0.001310,-0.001982,-0.756364,0.095936,0.512430,-0.395128
39376,NaN,-6.970307,-5.348080,-4.504286,5.376973,-7.257823,-13.798640,-1.151762,-0.766561,-0.365881,-0.525635,0.451660,-0.674561,-0.069629,-0.053613,-0.045001,0.999974,-0.005759,-0.003833,-0.001829,-0.754626,0.097117,0.517924,-0.390977
39377,NaN,-9.565567,-5.292144,-4.986633,5.398635,-8.866202,-15.863950,-0.610577,-1.235125,-0.298690,-0.525635,0.456055,-0.664062,-0.095425,-0.052932,-0.050295,0.999975,-0.003053,-0.006176,-0.001493,-0.751708,0.096206,0.523913,-0.388837
39378,NaN,-12.182549,-4.809517,-5.962361,5.757107,-9.968969,-18.447868,-0.036894,-1.788563,-0.166943,-0.538330,0.453857,-0.655518,-0.121326,-0.048005,-0.060701,0.999960,-0.000184,-0.008943,-0.000835,-0.747322,0.091863,0.530919,-0.388838
39379,NaN,-14.767262,-3.950748,-7.136090,6.272202,-10.613937,-21.327580,0.585168,-2.471116,-0.083597,-0.557129,0.438721,-0.648926,-0.146791,-0.039233,-0.073293,0.999919,0.002926,-0.012355,-0.000418,-0.741146,0.084618,0.539014,-0.391161
39380,NaN,-15.138538,-3.111554,-7.897619,6.856303,-9.732923,-22.440587,1.142257,-3.103162,0.008829,-0.573730,0.432373,-0.636230,-0.150133,-0.030662,-0.081488,0.999863,0.005711,-0.015515,0.000044,-0.733120,0.073936,0.548339,-0.395466
39381,NaN,-12.092638,-2.214113,-7.550287,6.767490,-6.832937,-20.565716,1.452575,-3.618059,0.148669,-0.592529,0.421631,-0.621338,-0.119516,-0.021671,-0.077832,0.999810,0.007262,-0.018089,0.000743,-0.723316,0.061826,0.558572,-0.401234
39382,NaN,-7.797415,-1.891774,-7.023351,6.701127,-3.625646,-17.271835,1.515067,-3.944203,0.317000,-0.611328,0.417236,-0.604248,-0.076538,-0.018499,-0.071894,0.999776,0.007575,-0.019720,0.001585,-0.711871,0.049028,0.569723,-0.407741
39383,NaN,-3.581121,-1.746061,-6.633366,6.550154,-0.661871,-13.877405,1.508054,-4.237958,0.423409,-0.636475,0.408691,-0.584961,-0.034357,-0.017030,-0.067201,0.999745,0.007540,-0.021188,0.002117,-0.699137,0.036189,0.581484,-0.414457
39384,NaN,0.560497,-1.196289,-4.413979,4.327589,1.555912,-10.087882,1.422814,-4.482123,0.574878,-0.663818,0.402100,-0.565918,0.006627,-0.011631,-0.044082,0.999719,0.007113,-0.022409,0.002874,-0.684770,0.023317,0.594137,-0.421364
39385,NaN,4.195721,-0.651529,0.007240,0.009514,2.080890,-6.111952,1.141215,-4.625280,0.728815,-0.680664,0.395752,-0.538330,0.041965,-0.006366,0.001006,0.999710,0.005706,-0.023124,0.003644,-0.669442,0.011797,0.607311,-0.427646
39386,NaN,9.081686,-0.299159,3.932661,-4.175531,3.012298,-1.356455,0.967793,-4.378876,0.763670,-0.705811,0.393555,-0.517090,0.089938,-0.002844,0.041288,0.999741,0.004839,-0.021892,0.003818,-0.654144,0.001214,0.619912,-0.433362
39387,NaN,14.887367,0.999623,9.269487,-10.432912,3.927297,3.761524,0.524759,-3.213568,0.835589,-0.712158,0.391357,-0.500000,0.147316,0.010366,0.095097,0.999859,0.002624,-0.016067,0.004178,-0.642297,-0.004903,0.629192,-0.437661
39388,NaN,24.953148,2.318819,17.604279,-19.983900,5.392235,12.759452,0.055367,-1.144893,0.720939,-0.712158,0.395508,-0.504395,0.248433,0.024036,0.177474,0.999977,0.000277,-0.005724,0.003605,-0.636977,-0.005591,0.632889,-0.440092
39389,NaN,29.965177,-3.386726,25.525979,-24.120867,0.322926,21.476612,-0.050147,1.052258,0.434360,-0.705566,0.382812,-0.508545,0.301062,-0.033151,0.253687,0.999984,-0.000251,0.005261,0.002172,-0.639355,-0.001769,0.629649,-0.441322
39390,NaN,30.743872,-5.109186,20.836639,-19.141767,2.589278,22.316781,0.643539,1.413800,-1.057290,-0.701172,0.374268,-0.523193,0.308622,-0.053387,0.206018,0.999956,0.003218,0.007069,-0.005286,-0.646385,-0.004170,0.623562,-0.439704
39391,NaN,32.646069,-0.297445,10.596727,-12.939160,12.683599,19.335295,0.163945,4.616096,-1.950226,-0.677490,0.363525,-0.563477,0.328740,-0.006256,0.098393,0.999686,0.000820,0.023078,-0.009750,-0.664869,-0.000659,0.608047,-0.433852
39392,NaN,25.399779,-4.589521,9.680183,-7.247678,6.996166,15.842007,0.930090,6.217695,-2.389369,-0.655762,0.335938,-0.594971,0.256262,-0.049373,0.088633,0.999435,0.004650,0.031083,-0.011945,-0.689053,0.002331,0.584756,-0.428090
39393,NaN,16.874268,-6.554248,-14.224375,14.868603,12.952365,2.064327,2.369959,4.799145,-1.551776,-0.627686,0.316650,-0.624512,0.164747,-0.065108,-0.147003,0.999612,0.011848,0.023993,-0.007758,-0.706177,-0.000127,0.562942,-0.429430
39394,NaN,2.862085,-14.348645,-30.573861,32.954260,7.520398,-12.305624,1.945005,2.561887,0.621537,-0.616943,0.314453,-0.639404,0.025129,-0.140420,-0.307451,0.999866,0.009725,0.012809,0.003108,-0.712255,-0.000070,0.549531,-0.436701
39395,NaN,-2.547258,-5.779069,-18.677219,18.138204,3.848878,-16.514398,1.104314,0.722764,0.956344,-0.612549,0.310303,-0.641357,-0.025875,-0.056882,-0.186995,0.999967,0.005522,0.003614,0.004782,-0.712143,0.000176,0.544528,-0.443106
39396,NaN,-4.379502,-6.284267,-9.428231,11.208182,-2.012532,-14.042296,0.653078,0.527490,0.202954,-0.604004,0.305908,-0.645752,-0.043980,-0.062579,-0.094371,0.999991,0.003265,0.002637,0.001015,-0.712917,-0.000968,0.541467,-0.445603
39397,NaN,-8.518871,-3.795239,0.573835,1.809905,-7.973231,-14.335512,0.004106,0.429111,-0.301503,-0.597656,0.308105,-0.643555,-0.085233,-0.037824,0.005920,0.999997,0.000021,0.002146,-0.001508,-0.714762,-0.000869,0.539924,-0.444518
39398,NaN,-5.900204,0.980865,3.500833,-3.448364,-4.816459,-13.409982,-0.774820,-0.471868,-0.354686,-0.610352,0.303711,-0.637207,-0.059067,0.010049,0.034830,0.999988,-0.003874,-0.002359,-0.001773,-0.714005,-0.000580,0.543617,-0.441223
39399,NaN,-2.361820,2.306599,8.735444,-8.270095,-4.299129,-9.239813,-0.325774,-1.309323,0.368567,-0.623291,0.314453,-0.626709,-0.024232,0.023164,0.087159,0.999976,-0.001629,-0.006547,0.001843,-0.709630,-0.001330,0.548997,-0.441617
39400,NaN,-0.995167,-6.467314,-7.909988,10.223261,-0.628976,-10.496317,-0.182563,-2.729248,0.921832,-0.633789,0.314453,-0.599121,-0.008573,-0.064787,-0.079164,0.999896,-0.000913,-0.013646,0.004609,-0.699914,-0.004522,0.559193,-0.444302
39401,NaN,4.078411,-7.517707,-15.716017,16.760423,6.128054,-8.536443,0.779739,-4.026349,1.390352,-0.650879,0.318604,-0.584229,0.044459,-0.074265,-0.156580,0.999766,0.003898,-0.020130,0.006951,-0.685401,-0.012334,0.571450,-0.451130
39402,NaN,8.557498,-3.244991,-11.522847,10.149957,9.554535,-5.104467,0.890496,-5.307094,1.892249,-0.684814,0.322754,-0.548340,0.088893,-0.031113,-0.113039,0.999593,0.004452,-0.026532,0.009460,-0.665251,-0.022389,0.587838,-0.459768
39403,NaN,15.322963,-4.410571,-6.846194,5.788111,10.325881,2.871552,0.338447,-5.964045,2.298362,-0.712402,0.326904,-0.510010,0.155673,-0.042215,-0.063916,0.999488,0.001692,-0.029815,0.011490,-0.642077,-0.030484,0.606850,-0.467483
39404,NaN,32.074899,-3.484483,-0.102580,-4.248928,15.901451,17.931381,-0.145401,-5.264638,2.827806,-0.717041,0.343994,-0.480713,0.321077,-0.030303,0.007447,0.999553,-0.000727,-0.026319,0.014137,-0.618615,-0.034342,0.624706,-0.475266
39405,NaN,43.412651,-11.894748,2.143059,-5.173311,15.802330,32.067094,-1.177185,-3.022472,3.128684,-0.721924,0.369629,-0.455322,0.435518,-0.111987,0.028678,0.999746,-0.005885,-0.015111,0.015642,-0.601801,-0.028132,0.637229,-0.480608
39406,NaN,41.814155,-14.961527,3.288686,-5.463244,12.365576,32.615595,-1.787405,-2.160660,1.805456,-0.722412,0.386719,-0.436523,0.419070,-0.145506,0.038724,0.999861,-0.008937,-0.010803,0.009027,-0.590125,-0.022965,0.648698,-0.480017
39407,NaN,35.502710,-6.431274,-1.396788,-6.116375,16.354157,21.792017,-1.799627,-1.302961,0.360225,-0.719971,0.384521,-0.426025,0.355221,-0.063781,-0.011079,0.999937,-0.008998,-0.006515,0.001801,-0.585218,-0.019642,0.656860,-0.475046
39408,NaN,21.486774,-4.341468,3.118152,-6.700404,6.810165,10.161493,-1.240072,-1.408511,-0.379301,-0.734863,0.386719,-0.408936,0.214557,-0.043621,0.032963,0.999954,-0.006200,-0.007042,-0.001896,-0.581007,-0.021511,0.664383,-0.469642
39409,NaN,17.863611,-6.231191,6.208527,-7.071846,1.407325,8.746459,-0.515651,-3.786897,-0.636821,-0.743164,0.382324,-0.377197,0.177217,-0.062712,0.065611,0.999812,-0.002578,-0.018933,-0.003184,-0.569883,-0.031047,0.676399,-0.465567
39410,NaN,18.020949,-8.011190,8.420165,-8.111543,-1.743628,9.959373,0.352387,-4.290943,-0.536292,-0.755615,0.375732,-0.351807,0.178134,-0.080744,0.087897,0.999765,0.001762,-0.021453,-0.002681,-0.555970,-0.044712,0.687992,-0.464290
39411,NaN,16.773086,-7.609482,12.359061,-10.951916,-5.600362,8.642913,1.075571,-4.494981,-0.378739,-0.772217,0.371338,-0.322021,0.164758,-0.077085,0.126903,0.999731,0.005377,-0.022473,-0.001894,-0.541011,-0.059458,0.697718,-0.465791
39412,NaN,15.560609,-7.567575,12.643701,-10.744991,-7.100385,7.314588,1.405641,-4.041952,-0.248021,-0.780518,0.364990,-0.302979,0.152921,-0.076767,0.129009,0.999770,0.007028,-0.020208,-0.001240,-0.526713,-0.074211,0.705422,-0.468451
39413,NaN,12.603683,-6.035860,11.013826,-9.245907,-6.790715,3.787585,1.757490,-3.227681,0.053503,-0.784424,0.358398,-0.283936,0.124260,-0.061302,0.111617,0.999831,0.008787,-0.016137,0.000268,-0.514476,-0.086230,0.709703,-0.473498
39414,NaN,9.290365,-3.474610,8.583563,-7.641415,-5.146949,-0.476068,1.959810,-2.378911,0.346410,-0.780273,0.360596,-0.277588,0.091938,-0.035432,0.086588,0.999880,0.009799,-0.011894,0.001732,-0.504346,-0.096132,0.711382,-0.479926
39415,NaN,6.509517,-0.953496,5.033719,-5.622520,-2.224412,-4.150611,2.070897,-1.645193,0.648493,-0.782471,0.364746,-0.271240,0.064710,-0.009849,0.050770,0.999907,0.010354,-0.008226,0.003242,-0.495910,-0.103019,0.710803,-0.488077
39416,NaN,3.528600,2.691438,2.549852,-4.964317,0.462964,-8.656457,1.970374,-1.100029,0.869498,-0.780273,0.362793,-0.271240,0.035027,0.026813,0.025956,0.999927,0.009852,-0.005500,0.004347,-0.489037,-0.107836,0.709181,-0.496262
39417,NaN,1.990621,6.929358,0.853225,-5.932361,3.266676,-12.428166,1.508999,-0.684839,1.121621,-0.778320,0.369141,-0.271240,0.019487,0.069336,0.009122,0.999950,0.007545,-0.003424,0.005608,-0.483002,-0.109275,0.707676,-0.503947
39418,NaN,0.062658,9.316607,-0.535040,-5.699085,4.777001,-15.450811,0.841375,-0.444330,1.254108,-0.776611,0.377686,-0.269287,0.000054,0.093189,-0.004958,0.999969,0.004207,-0.002222,0.006270,-0.478099,-0.108302,0.707334,-0.509284
39419,NaN,-0.854428,10.046435,-2.302316,-4.664101,6.180890,-16.668583,0.319432,-0.368190,1.147764,-0.763916,0.384033,-0.271484,-0.009079,0.100450,-0.022879,0.999981,0.001597,-0.001841,0.005739,-0.473707,-0.105974,0.708004,-0.512935
39420,NaN,0.532480,8.291275,-1.285090,-4.823359,4.971986,-14.576546,0.175906,-0.505825,0.929851,-0.759766,0.386230,-0.267334,0.004972,0.082948,-0.012765,0.999986,0.000880,-0.002529,0.004649,-0.469787,-0.104735,0.709280,-0.515026
39421,NaN,2.783862,5.338009,1.351134,-5.626047,2.185017,-11.094400,0.297450,-0.571745,0.764117,-0.759766,0.388428,-0.262939,0.027596,0.053466,0.013670,0.999988,0.001487,-0.002859,0.003821,-0.465645,-0.104228,0.710244,-0.517557
39422,NaN,4.301063,4.127054,4.396567,-7.376620,-0.409613,-9.284477,0.211533,-0.462171,0.472593,-0.757568,0.388428,-0.258789,0.042811,0.041325,0.044108,0.999994,0.001058,-0.002311,0.002363,-0.463093,-0.104575,0.711052,-0.518665
39423,NaN,6.227312,3.260904,5.774996,-8.651514,-1.320653,-7.328614,-0.220558,-0.244158,0.080426,-0.763916,0.386230,-0.252441,0.062189,0.032698,0.057790,0.999999,-0.001103,-0.001221,0.000402,-0.462147,-0.104445,0.712225,-0.517925
39424,NaN,7.763063,2.276684,4.968541,-8.435326,-0.558013,-5.491966,-0.479658,0.224263,-0.120712,-0.757568,0.384033,-0.254639,0.077700,0.022839,0.049544,0.999996,-0.002398,0.001121,-0.000604,-0.464106,-0.103441,0.712854,-0.515505
39425,NaN,7.222281,1.312682,4.044698,-7.016726,-0.344442,-5.242086,-0.669864,0.883966,-0.227215,-0.753174,0.381836,-0.254639,0.072415,0.013179,0.040083,0.999984,-0.003349,0.004420,-0.001136,-0.468197,-0.100450,0.712395,-0.513026
39426,NaN,5.365864,0.549353,3.512449,-5.219035,-0.785032,-6.128126,-0.908565,1.606600,-0.294690,-0.753174,0.381836,-0.258789,0.053947,0.005572,0.034667,0.999956,-0.004543,0.008033,-0.001473,-0.475864,-0.095435,0.710682,-0.509290
39427,NaN,3.228414,-0.471519,2.766321,-3.017464,-1.304451,-7.075872,-1.006607,2.210326,-0.428757,-0.749023,0.377686,-0.275635,0.032577,-0.004647,0.027328,0.999924,-0.005033,0.011051,-0.002144,-0.485270,-0.088962,0.707723,-0.505695
39428,NaN,1.310949,-0.929216,2.188372,-1.414073,-1.692882,-8.229886,-0.819199,2.598828,-0.550691,-0.742676,0.375488,-0.288330,0.013367,-0.009239,0.021749,0.999903,-0.004096,0.012994,-0.002753,-0.496998,-0.082489,0.703012,-0.501959
39429,NaN,0.258299,-1.646850,1.036645,0.241592,-1.508439,-8.579933,-0.475517,2.746842,-0.686387,-0.735840,0.364990,-0.302979,0.002669,-0.016453,0.010369,0.999897,-0.002378,0.013734,-0.003432,-0.508536,-0.076852,0.697020,-0.499648
39430,NaN,0.109691,-1.633143,-0.253855,1.118722,-0.564405,-8.729401,-0.280077,2.750859,-0.673058,-0.727295,0.360596,-0.317871,0.001007,-0.016338,-0.002530,0.999899,-0.001400,0.013754,-0.003365,-0.520672,-0.071732,0.690197,-0.497376
39431,NaN,0.527467,-1.535306,-1.142209,1.465166,0.322961,-8.513129,-0.396825,2.797000,-0.659151,-0.727295,0.352051,-0.334717,0.005064,-0.015393,-0.011463,0.999895,-0.001984,0.013985,-0.003296,-0.532067,-0.066045,0.683589,-0.495226
39432,NaN,3.007748,-2.532580,-2.300683,1.867222,1.757983,-6.047648,-0.684810,2.878616,-0.713221,-0.725098,0.352295,-0.349609,0.029652,-0.025512,-0.023349,0.999884,-0.003424,0.014393,-0.003566,-0.544582,-0.059669,0.677107,-0.491320
39433,NaN,7.472147,-5.584678,-3.510705,2.960876,3.126271,-0.823788,-0.575298,3.130625,-0.826577,-0.710205,0.345703,-0.362305,0.073930,-0.056256,-0.036107,0.999865,-0.002876,0.015652,-0.004133,-0.557325,-0.053236,0.669655,-0.487972
39434,NaN,11.031830,-6.098982,-0.111663,-0.085739,2.200559,2.598937,-0.336525,3.488746,-1.220256,-0.705566,0.333008,-0.383301,0.109903,-0.061665,-0.002933,0.999828,-0.001683,0.017443,-0.006101,-0.572612,-0.048070,0.660136,-0.483762
39435,NaN,15.087090,-4.926244,4.185900,-4.790886,2.021462,5.754647,-0.478880,3.623312,-1.918884,-0.696777,0.318115,-0.400146,0.151116,-0.050616,0.039243,0.999787,-0.002394,0.018115,-0.009594,-0.589221,-0.044293,0.650316,-0.477437
39436,NaN,19.990778,-7.082213,4.102865,-4.178376,3.580342,11.074802,-0.503184,3.540810,-2.541684,-0.691895,0.298828,-0.414795,0.199674,-0.073263,0.037674,0.999759,-0.002516,0.017703,-0.012707,-0.607400,-0.042840,0.640157,-0.468433
39437,NaN,24.469172,-10.373422,-0.372210,0.830888,6.972734,15.821666,-0.165472,2.163758,-2.439072,-0.689453,0.281738,-0.421143,0.243344,-0.106712,-0.006272,0.999867,-0.000827,0.010818,-0.012195,-0.620008,-0.045105,0.633363,-0.460877
39438,NaN,31.208973,-14.583813,-4.532460,5.688293,10.579103,22.790145,0.388981,0.691427,-0.767846,-0.689453,0.281738,-0.425293,0.311367,-0.146945,-0.046687,0.999985,0.001945,0.003457,-0.003839,-0.624457,-0.047447,0.629951,-0.459308
39439,NaN,33.583660,-20.416655,-7.943151,12.025591,10.926742,26.843482,1.718017,2.335975,-0.268044,-0.676270,0.266846,-0.454834,0.334591,-0.203901,-0.085097,0.999894,0.008590,0.011679,-0.001340,-0.631972,-0.048320,0.618579,-0.464366
39440,NaN,26.466020,-14.310110,0.676883,4.143033,5.967745,19.388165,1.564556,5.267343,0.326776,-0.642578,0.264893,-0.490967,0.264930,-0.142679,-0.001324,0.999621,0.007822,0.026333,0.001634,-0.647172,-0.040552,0.598152,-0.470891
39441,NaN,20.017843,-15.905889,12.092697,-1.120480,-4.443149,18.093417,1.503251,5.595392,0.167607,-0.625244,0.256348,-0.520508,0.203568,-0.159764,0.114064,0.999580,0.007515,0.027973,0.000838,-0.662949,-0.031758,0.576291,-0.476843
39442,NaN,19.447819,-13.891127,13.020360,-2.130376,-3.540096,17.086569,1.969824,2.551440,-1.063009,-0.616455,0.239258,-0.531006,0.195360,-0.141205,0.126332,0.999856,0.009849,0.012757,-0.005315,-0.672659,-0.035835,0.562908,-0.478937
39443,NaN,25.555552,-9.522923,2.632677,2.645157,8.848418,15.981816,1.943558,2.094465,-1.278499,-0.605469,0.226318,-0.549805,0.255189,-0.097094,0.022715,0.999878,0.009717,0.010472,-0.006392,-0.681201,-0.040982,0.550910,-0.480400
39444,NaN,24.329648,-5.795905,1.014171,2.144573,11.352571,12.390270,1.067359,4.184525,-0.888448,-0.577881,0.222168,-0.575439,0.243173,-0.059074,0.004739,0.999757,0.005336,0.020921,-0.004442,-0.694664,-0.037619,0.533820,-0.480689
39445,NaN,20.163748,-3.522085,7.934285,-3.386400,6.565212,10.858416,0.546755,4.109276,-0.738762,-0.558594,0.215820,-0.585938,0.203077,-0.036178,0.075082,0.999778,0.002734,0.020545,-0.003694,-0.707168,-0.031637,0.517975,-0.480224
39446,NaN,21.477754,1.509969,4.223564,-3.665505,12.565232,7.795388,-0.307895,3.283277,-0.965173,-0.535156,0.211426,-0.598633,0.215502,0.014122,0.038679,0.999852,-0.001539,0.016416,-0.004826,-0.718053,-0.025911,0.506980,-0.476130
39447,NaN,18.313860,3.516323,4.775165,-4.994837,11.666474,4.660477,-1.301738,3.176938,-0.946770,-0.520752,0.224365,-0.613525,0.184029,0.034591,0.044607,0.999841,-0.006508,0.015884,-0.004734,-0.728432,-0.016101,0.498469,-0.469740
39448,NaN,16.679973,3.263758,4.505447,-4.243583,10.868146,3.341255,-1.900379,2.510955,-1.081280,-0.510498,0.232910,-0.620117,0.167520,0.032146,0.042647,0.999861,-0.009501,0.012554,-0.005406,-0.737400,-0.006890,0.493767,-0.460856
39449,NaN,14.762886,3.648027,4.227571,-4.102614,10.157627,1.549655,-2.254287,1.763175,-1.239892,-0.495850,0.241699,-0.620117,0.148216,0.036026,0.040563,0.999878,-0.011271,0.008816,-0.006199,-0.744615,0.002393,0.492358,-0.450696
39450,NaN,12.818164,3.017902,3.113119,-2.785875,9.080102,-0.174765,-2.594298,1.161330,-1.412553,-0.494141,0.256592,-0.616211,0.128569,0.029666,0.029998,0.999874,-0.012971,0.005806,-0.007062,-0.750668,0.010142,0.493980,-0.438609
39451,NaN,10.508350,2.010767,1.753898,-1.196215,7.542466,-2.117077,-2.792067,0.830327,-1.365768,-0.479492,0.267334,-0.614014,0.105289,0.019627,0.016826,0.999871,-0.013960,0.004151,-0.006829,-0.755492,0.019036,0.496993,-0.426459
39452,NaN,7.304119,0.049830,0.668732,0.540280,4.588097,-4.115617,-2.782248,0.691315,-1.265844,-0.479980,0.280029,-0.610107,0.073065,0.000127,0.006431,0.999877,-0.013911,0.003456,-0.006329,-0.759690,0.026717,0.500537,-0.414271
39453,NaN,3.347144,-1.107568,-1.521673,2.395961,2.004475,-7.579652,-2.698350,0.466548,-1.144548,-0.478027,0.290771,-0.601562,0.033371,-0.011471,-0.015142,0.999890,-0.013491,0.002333,-0.005723,-0.762800,0.035034,0.504454,-0.403033
39454,NaN,-0.403748,-2.529362,-3.337107,4.055890,-0.828705,-10.560369,-2.501542,0.192911,-0.897588,-0.476318,0.305664,-0.593262,-0.004184,-0.025690,-0.033047,0.999911,-0.012507,0.000965,-0.004488,-0.764704,0.041502,0.509063,-0.392888
39455,NaN,-3.975370,-4.024585,-3.897239,4.701672,-4.055303,-12.751599,-2.162582,-0.060072,-0.636698,-0.474365,0.310059,-0.591309,-0.039871,-0.040537,-0.038547,0.999936,-0.010813,-0.000300,-0.003183,-0.765319,0.047997,0.513644,-0.384906
39456,NaN,-6.838967,-5.026071,-4.590252,5.283212,-6.406120,-14.727191,-1.555251,-0.582728,-0.547197,-0.472412,0.316406,-0.580811,-0.068394,-0.050430,-0.045710,0.999962,-0.007776,-0.002914,-0.002736,-0.764541,0.050274,0.519201,-0.378655
39457,NaN,-10.433296,-5.919821,-5.553039,5.960834,-8.992506,-17.450534,-0.781543,-1.270612,-0.450947,-0.483154,0.322754,-0.570068,-0.104112,-0.059181,-0.055961,0.999970,-0.003908,-0.006353,-0.002255,-0.761891,0.049651,0.525639,-0.375180
39458,NaN,-13.232233,-6.406409,-6.185909,6.441765,-10.735325,-19.694382,0.050702,-2.145198,-0.283727,-0.489502,0.322754,-0.568115,-0.131739,-0.063861,-0.063290,0.999941,0.000254,-0.010726,-0.001419,-0.756765,0.043683,0.533985,-0.374511
39459,NaN,-14.653783,-6.828227,-6.420140,6.968788,-11.572874,-20.769774,0.955228,-2.886747,0.050239,-0.508301,0.316406,-0.551025,-0.145571,-0.068005,-0.066632,0.999884,0.004776,-0.014433,0.000251,-0.749099,0.034758,0.543050,-0.377808
39460,NaN,-15.484495,-6.292595,-6.553491,7.170762,-11.241244,-21.833027,1.729873,-3.490836,0.284547,-0.522949,0.307861,-0.546631,-0.153574,-0.062560,-0.068765,0.999809,0.008649,-0.017453,0.001423,-0.739185,0.021648,0.552930,-0.383935
39461,NaN,-12.255741,-5.445792,-5.547225,6.676614,-8.699879,-19.317058,2.110429,-3.823393,0.524952,-0.541504,0.290527,-0.529541,-0.121317,-0.054172,-0.058372,0.999758,0.010551,-0.019115,0.002625,-0.727672,0.007920,0.562821,-0.392000
39462,NaN,-7.161456,-4.499323,-5.427364,6.729715,-4.744024,-15.572396,2.193151,-3.941301,0.751212,-0.560547,0.288330,-0.512451,-0.070352,-0.044650,-0.056159,0.999739,0.010965,-0.019705,0.003756,-0.714871,-0.006304,0.572913,-0.400861
39463,NaN,-2.340940,-3.127814,-4.747712,5.670490,-1.101353,-11.917503,1.973118,-3.962300,0.873573,-0.579346,0.281982,-0.499756,-0.022323,-0.030904,-0.048233,0.999746,0.009865,-0.019810,0.004367,-0.701542,-0.018830,0.583003,-0.409379
39464,NaN,0.984212,-1.820999,-3.227546,3.636464,1.018907,-9.151135,1.520053,-3.986596,0.946000,-0.598145,0.277588,-0.482666,0.010570,-0.017916,-0.032207,0.999761,0.007600,-0.019931,0.004730,-0.687438,-0.030143,0.594093,-0.416621
39465,NaN,3.526453,-0.644522,-1.005493,0.934224,2.001769,-6.815921,0.937167,-4.002844,0.868796,-0.614990,0.275391,-0.465576,0.035484,-0.006246,-0.009376,0.999779,0.004685,-0.020013,0.004344,-0.673461,-0.039152,0.605898,-0.421668
39466,NaN,7.849044,0.366049,4.177053,-4.323393,1.843504,-2.256910,0.246021,-3.700679,0.640469,-0.631836,0.273193,-0.437988,0.077688,0.003858,0.043218,0.999823,0.001230,-0.018502,0.003202,-0.660446,-0.046420,0.618139,-0.423745
39467,NaN,13.601226,2.182675,10.199621,-11.118120,2.141296,3.054841,-1.018378,-2.636746,0.549477,-0.636230,0.277344,-0.419189,0.134591,0.022723,0.103663,0.999896,-0.005092,-0.013183,0.002747,-0.651316,-0.046978,0.629066,-0.421730
39468,NaN,25.822582,4.694449,17.715507,-20.525769,5.260602,13.718032,-1.400721,0.068369,0.105559,-0.634033,0.273193,-0.429688,0.258261,0.048320,0.176732,0.999975,-0.007004,0.000342,0.000528,-0.651493,-0.042464,0.631990,-0.417544
39469,NaN,28.338149,0.015960,28.816408,-26.701118,-2.622633,20.412426,-0.078096,1.926349,-0.317946,-0.631836,0.270996,-0.436035,0.286139,-0.000182,0.285417,0.999952,-0.000390,0.009632,-0.001590,-0.658244,-0.039229,0.625779,-0.416624
39470,NaN,28.541428,1.443175,19.982989,-20.074608,3.853521,18.438494,0.287357,1.866847,-1.078683,-0.627441,0.264648,-0.459229,0.287334,0.012601,0.197173,0.999941,0.001437,0.009334,-0.005393,-0.666546,-0.040006,0.618697,-0.413920
39471,NaN,23.574610,1.560719,4.245846,-6.322354,10.626995,10.759513,0.947884,4.231611,-1.933678,-0.605713,0.245605,-0.495117,0.236710,0.013136,0.037523,0.999718,0.004739,0.021156,-0.009667,-0.683274,-0.040417,0.602072,-0.411110
39472,NaN,12.031911,-0.625336,-0.289324,0.209018,5.991817,0.639792,1.519794,5.341037,-2.311103,-0.596680,0.219727,-0.513916,0.120101,-0.007604,-0.006157,0.999548,0.007598,0.026701,-0.011554,-0.703934,-0.041939,0.579763,-0.408158
39473,NaN,-3.766300,-0.020866,-17.555695,13.539485,7.341633,-19.038508,2.716461,3.349601,-1.799627,-0.589844,0.200684,-0.537109,-0.040581,0.002526,-0.174872,0.999727,0.013581,0.016746,-0.008997,-0.716568,-0.049906,0.561895,-0.410259
39474,NaN,-10.841814,-7.943589,-28.547544,26.377101,4.470132,-26.540461,2.524573,0.444912,-0.594356,-0.585205,0.187744,-0.532715,-0.109283,-0.075502,-0.286203,0.999913,0.012623,0.002224,-0.002972,-0.718585,-0.060202,0.554864,-0.414895
39475,NaN,1.701721,-5.901247,-11.032397,12.205775,3.193968,-10.312015,1.088964,-0.641775,0.639691,-0.593750,0.187744,-0.536865,0.017559,-0.058355,-0.110587,0.999975,0.005445,-0.003209,0.003198,-0.715147,-0.063706,0.555088,-0.419980
39476,NaN,6.262817,-8.977548,1.104860,5.322700,-3.011272,-0.667346,-1.105385,-0.563474,1.490434,-0.583496,0.207031,-0.528809,0.063262,-0.089242,0.011720,0.999953,-0.005527,-0.002817,0.007452,-0.710655,-0.057419,0.560061,-0.421906
39477,NaN,11.501731,-8.945612,0.081823,5.969963,0.514720,3.469163,-2.004511,0.982974,2.004197,-0.579590,0.217773,-0.537354,0.115911,-0.088287,0.001139,0.999887,-0.010022,0.004915,0.010021,-0.709692,-0.042642,0.561308,-0.423619
39478,NaN,29.903173,-6.661688,24.269306,-13.350958,0.307241,26.913026,0.138363,5.610683,2.145510,-0.546143,0.228516,-0.567139,0.306373,-0.063520,0.234121,0.999549,0.000692,0.028049,0.010726,-0.720367,-0.025798,0.541557,-0.432575
39479,NaN,2.801686,-22.744560,-3.342312,17.515004,-10.722633,0.891467,0.879885,-0.062719,0.803946,-0.552246,0.219971,-0.564941,0.028941,-0.227181,-0.034414,0.999982,0.004399,-0.000314,0.004020,-0.718350,-0.026962,0.539974,-0.437806
39480,NaN,4.457790,-0.884754,-16.393645,13.027344,10.590263,-12.557767,0.020426,-1.477841,0.444977,-0.558838,0.228516,-0.562744,0.045807,-0.008730,-0.163602,0.999970,0.000102,-0.007389,0.002225,-0.713198,-0.029549,0.545495,-0.439215
39481,NaN,6.079890,-0.888904,-5.498850,4.780137,5.953721,-6.699182,0.064654,-1.802353,0.780660,-0.573486,0.224121,-0.545898,0.061325,-0.008633,-0.054440,0.999952,0.000323,-0.009012,0.003903,-0.706542,-0.031644,0.551869,-0.441857
39482,NaN,8.736410,-3.750882,-7.805267,8.197084,7.054966,-3.953021,0.050726,-3.522055,0.712359,-0.588379,0.230469,-0.520508,0.088853,-0.037175,-0.076506,0.999839,0.000254,-0.017609,0.003562,-0.694780,-0.038232,0.564568,-0.443939
39483,NaN,11.335321,-4.138567,-5.694208,6.446772,7.150197,-0.575057,0.207086,-3.812186,0.854958,-0.609619,0.228271,-0.501221,0.114587,-0.040840,-0.054808,0.999809,0.001035,-0.019060,0.004275,-0.681967,-0.045030,0.577406,-0.446650
39484,NaN,12.782816,-3.568536,-2.330468,3.000713,6.251312,1.739675,-0.135621,-4.051211,1.058185,-0.624756,0.239014,-0.484375,0.128451,-0.035021,-0.020683,0.999781,-0.000678,-0.020255,0.005291,-0.667293,-0.051237,0.592061,-0.448954
39485,NaN,17.765577,-3.533358,-2.316333,1.855269,8.757349,6.102226,-0.715109,-3.850401,1.407925,-0.641846,0.247559,-0.461182,0.178299,-0.034154,-0.019611,0.999784,-0.003575,-0.019251,0.007039,-0.652791,-0.053354,0.606743,-0.450422
39486,NaN,23.048769,-7.434994,-1.759298,2.431369,8.676038,12.734368,-1.067888,-2.970943,1.828295,-0.648438,0.260254,-0.442139,0.231378,-0.072318,-0.013770,0.999834,-0.005339,-0.014854,0.009141,-0.639282,-0.051755,0.619690,-0.452355
39487,NaN,26.357118,-9.805486,1.485029,0.052562,6.831770,17.505819,-1.696108,-2.291767,1.879316,-0.651123,0.277344,-0.429688,0.264277,-0.095426,0.018693,0.999854,-0.008480,-0.011458,0.009396,-0.628294,-0.045727,0.631246,-0.452420
39488,NaN,29.689958,-9.509232,5.195671,-4.575940,6.092006,20.859415,-1.681340,-2.571203,1.055875,-0.661865,0.283936,-0.412598,0.296687,-0.093063,0.056560,0.999868,-0.008406,-0.012855,0.005279,-0.617509,-0.043733,0.643766,-0.449816
39489,NaN,27.564465,-6.838495,4.691832,-6.139428,6.463202,17.556042,-1.018955,-2.905638,0.145373,-0.670166,0.279541,-0.391602,0.274970,-0.067931,0.051263,0.999881,-0.005095,-0.014528,0.000727,-0.607996,-0.046690,0.654984,-0.446270
39490,NaN,22.681535,-5.024699,3.133336,-5.396035,5.611183,12.297812,-0.249957,-2.983634,-0.230499,-0.678711,0.285889,-0.372559,0.226256,-0.050466,0.034775,0.999887,-0.001250,-0.014918,-0.001152,-0.598229,-0.054145,0.664906,-0.443949
39491,NaN,18.460494,-4.901716,6.417100,-7.160180,1.056923,8.990866,0.327586,-3.456088,-0.189492,-0.691406,0.285889,-0.355469,0.183414,-0.049300,0.067267,0.999849,0.001638,-0.017280,-0.000947,-0.586997,-0.063461,0.674363,-0.443443
39492,NaN,17.373598,-4.431735,7.672774,-8.404361,-0.597161,7.774755,0.194643,-3.909844,-0.193084,-0.703857,0.279297,-0.330078,0.172150,-0.044561,0.080060,0.999808,0.000973,-0.019548,-0.000965,-0.573669,-0.074096,0.685558,-0.442067
39493,NaN,15.442093,-4.781396,10.265268,-9.713434,-3.990297,6.199237,0.608406,-3.871995,-0.055134,-0.708252,0.285645,-0.313232,0.152384,-0.048174,0.105470,0.999808,0.003042,-0.019359,-0.000276,-0.560200,-0.084617,0.695165,-0.442450
39494,NaN,14.076132,-3.954482,10.420419,-10.020673,-4.712837,4.319003,0.851493,-3.625640,0.077260,-0.720703,0.281250,-0.296143,0.138859,-0.039941,0.106564,0.999827,0.004257,-0.018127,0.000386,-0.546746,-0.095360,0.703579,-0.443792
39495,NaN,12.148447,-3.471912,8.846477,-8.617552,-4.413783,2.193105,1.028057,-3.148456,0.262953,-0.726807,0.279053,-0.279297,0.120120,-0.035021,0.090183,0.999862,0.005140,-0.015742,0.001315,-0.534538,-0.104263,0.709929,-0.446542
39496,NaN,9.954127,-1.429068,7.236716,-7.998238,-3.083872,-0.867989,1.254506,-2.518835,0.484369,-0.724854,0.285400,-0.266602,0.098655,-0.014510,0.073523,0.999898,0.006272,-0.012594,0.002422,-0.523773,-0.111976,0.714171,-0.450647
39497,NaN,7.798747,1.146230,5.678299,-7.742548,-1.325342,-4.096898,1.439851,-1.932408,0.669884,-0.725098,0.289795,-0.262451,0.077395,0.011309,0.057614,0.999922,0.007199,-0.009662,0.003349,-0.514532,-0.117746,0.716302,-0.456403
39498,NaN,5.059206,3.660830,4.042296,-7.136517,0.351818,-7.743504,1.466090,-1.565405,0.853352,-0.727295,0.294189,-0.262451,0.050116,0.036523,0.041084,0.999933,0.007330,-0.007827,0.004267,-0.506192,-0.122390,0.717509,-0.462571
39499,NaN,3.208514,5.996334,2.746319,-7.026426,1.963358,-10.564598,1.256380,-1.426670,1.007015,-0.727295,0.293945,-0.253906,0.031584,0.059948,0.028066,0.999942,0.006282,-0.007133,0.005035,-0.497963,-0.125296,0.718783,-0.468705
39500,NaN,2.035439,6.753620,1.232192,-6.078373,3.129569,-11.941183,0.957508,-1.316773,1.083543,-0.729736,0.302734,-0.253906,0.019905,0.067584,0.012777,0.999952,0.004787,-0.006584,0.005418,-0.490281,-0.127181,0.720503,-0.473629
39501,NaN,1.403544,6.499572,0.867654,-5.402293,3.034314,-12.376768,0.659812,-1.229943,1.077394,-0.727783,0.311279,-0.251953,0.013631,0.065041,0.008976,0.999961,0.003299,-0.006150,0.005387,-0.482878,-0.127871,0.722607,-0.477826
39502,NaN,1.667568,5.357112,1.793593,-5.326901,1.716809,-11.649139,0.355028,-1.147329,0.929781,-0.725586,0.313232,-0.243652,0.016323,0.053615,0.018125,0.999971,0.001775,-0.005737,0.004649,-0.476549,-0.128404,0.725132,-0.480205
39503,NaN,2.946317,4.467798,2.740179,-5.943406,0.802336,-10.239769,0.020845,-0.902080,0.715361,-0.729980,0.315430,-0.241455,0.029179,0.044780,0.027538,0.999983,0.000104,-0.004510,0.003577,-0.471557,-0.128071,0.727673,-0.481378
39504,NaN,4.440292,4.273169,3.654931,-7.115827,0.340266,-9.048671,-0.273822,-0.456495,0.444302,-0.725830,0.321777,-0.237305,0.044224,0.042880,0.036592,0.999994,-0.001369,-0.002282,0.002222,-0.469350,-0.127171,0.729697,-0.480709
39505,NaN,6.221839,4.972072,4.379240,-8.909499,0.599398,-8.118049,-0.631564,0.224626,0.142748,-0.723633,0.321777,-0.237305,0.062232,0.049903,0.043565,0.999994,-0.003158,0.001123,0.000714,-0.470243,-0.124675,0.730767,-0.478860
39506,NaN,7.508742,4.789052,4.883259,-9.744917,0.539247,-7.000829,-0.998473,1.035403,-0.170762,-0.717285,0.319824,-0.241455,0.075379,0.048068,0.048203,0.999974,-0.004992,0.005177,-0.000854,-0.475507,-0.120682,0.730561,-0.474983
39507,NaN,7.358032,2.278830,4.253170,-7.697098,-0.148975,-5.552059,-1.044808,1.810525,-0.324244,-0.715332,0.319824,-0.254150,0.073998,0.022888,0.041744,0.999944,-0.005224,0.009052,-0.001621,-0.483512,-0.115123,0.728495,-0.471442
39508,NaN,5.101954,-1.327856,2.175709,-3.023746,-0.918711,-5.065205,-0.787668,2.362898,-0.338115,-0.710938,0.315430,-0.269043,0.051250,-0.013281,0.021205,0.999921,-0.003938,0.011814,-0.001691,-0.493907,-0.109036,0.724293,-0.468580
39509,NaN,1.722271,-3.132794,1.062735,0.456090,-1.980146,-6.685238,-0.629652,2.684190,-0.368183,-0.704590,0.311279,-0.290039,0.017306,-0.031327,0.010494,0.999903,-0.003148,0.013421,-0.001841,-0.504803,-0.102563,0.718863,-0.466787
39510,NaN,0.042678,-3.643362,1.390709,1.344909,-3.046617,-7.783092,-0.545541,2.772969,-0.510125,-0.702393,0.311279,-0.300781,0.000528,-0.036397,0.014000,0.999897,-0.002728,0.013864,-0.002551,-0.516761,-0.096682,0.712680,-0.464433
39511,NaN,0.045238,-3.252641,1.541754,0.978669,-2.947247,-7.992087,-0.537222,2.868912,-0.562627,-0.696045,0.309326,-0.315430,0.000583,-0.032486,0.015497,0.999890,-0.002686,0.014344,-0.002813,-0.528510,-0.090674,0.706160,-0.462378
39512,NaN,-0.304414,-3.830355,0.208347,2.344546,-2.412706,-7.944658,-0.654057,3.017095,-0.548182,-0.689697,0.307129,-0.338867,-0.003116,-0.038288,0.002255,0.999877,-0.003270,0.015085,-0.002741,-0.541201,-0.084019,0.699222,-0.459489
39513,NaN,0.406158,-4.467396,-0.634877,3.019437,-1.916048,-7.031102,-0.750286,3.130198,-0.545820,-0.678955,0.300781,-0.355713,0.003841,-0.044708,-0.006242,0.999867,-0.003751,0.015650,-0.002729,-0.553659,-0.076742,0.692150,-0.456619
39514,NaN,2.556823,-4.997794,0.276695,1.930881,-2.026388,-4.938561,-0.800200,3.279065,-0.516916,-0.672852,0.300781,-0.374756,0.025482,-0.050033,0.002549,0.999854,-0.004001,0.016395,-0.002584,-0.566894,-0.068937,0.684454,-0.453213
39515,NaN,6.294180,-7.867976,-0.328568,2.915568,-1.645426,-0.303820,-0.562353,3.676323,-0.452784,-0.662109,0.298828,-0.391602,0.062692,-0.078833,-0.004218,0.999825,-0.002812,0.018381,-0.002264,-0.580613,-0.060597,0.675029,-0.451168
39516,NaN,9.213579,-9.394765,1.370866,1.931982,-2.247278,3.080501,0.334244,4.027501,-0.601705,-0.645020,0.288086,-0.416992,0.092102,-0.094245,0.011696,0.999791,0.001671,0.020136,-0.003008,-0.595766,-0.054621,0.662113,-0.451316
39517,NaN,13.717107,-7.763710,4.858426,-2.464259,-1.212189,6.449436,1.139600,4.088625,-1.136814,-0.634033,0.275391,-0.442383,0.137675,-0.078683,0.045327,0.999759,0.005698,0.020441,-0.005684,-0.611429,-0.052586,0.646891,-0.452683
39518,NaN,19.467311,-5.872175,5.200592,-4.598158,2.854202,10.463986,1.291669,4.036372,-1.287174,-0.621094,0.262451,-0.463379,0.195280,-0.060295,0.047683,0.999755,0.006458,0.020180,-0.006435,-0.627317,-0.051661,0.630966,-0.453526
39519,NaN,23.979781,-7.843533,1.473318,-0.705491,6.754734,14.529315,0.983013,3.191984,-0.975298,-0.612549,0.258301,-0.484619,0.239602,-0.079663,0.010518,0.999849,0.004915,0.015959,-0.004876,-0.639268,-0.050620,0.618377,-0.454295
39520,NaN,30.996322,-11.229511,-3.522808,4.676563,11.903835,20.775985,0.811779,2.063569,-0.275007,-0.599609,0.249756,-0.492920,0.309420,-0.112568,-0.038879,0.999938,0.004059,0.010318,-0.001375,-0.646426,-0.049536,0.609669,-0.456051
39521,NaN,34.462942,-11.917140,-2.818720,4.744176,13.356326,23.901904,0.606908,2.711468,-0.174616,-0.584717,0.245605,-0.511963,0.344098,-0.119376,-0.033217,0.999903,0.003034,0.013557,-0.000873,-0.654896,-0.045886,0.599418,-0.457934
39522,NaN,26.856742,-9.105772,0.687824,2.127731,9.172412,16.944508,0.997056,2.918373,-0.409222,-0.567383,0.237061,-0.526855,0.268438,-0.091627,0.002505,0.999879,0.004985,0.014591,-0.002046,-0.664516,-0.044016,0.587364,-0.459874
39523,NaN,25.758551,-6.600157,3.055614,-0.397831,9.001201,15.389576,1.360666,3.024960,-0.767113,-0.558838,0.226318,-0.543701,0.257748,-0.067178,0.026204,0.999855,0.006803,0.015124,-0.003835,-0.674787,-0.043872,0.573931,-0.461888
39524,NaN,24.681988,-5.195716,5.656478,-2.315176,8.063506,14.635844,1.109057,3.532401,-0.915969,-0.539551,0.222168,-0.560791,0.247522,-0.053386,0.051904,0.999818,0.005545,0.017661,-0.004580,-0.686843,-0.042506,0.559154,-0.462371
39525,NaN,21.725287,-5.442258,8.804736,-3.474809,4.840492,13.501669,0.409326,3.622619,-0.996170,-0.518311,0.219971,-0.581787,0.218523,-0.055684,0.083984,0.999821,0.002047,0.018112,-0.004981,-0.699083,-0.038357,0.545456,-0.460748
39526,NaN,21.992069,-2.435541,8.189474,-4.354604,7.513229,12.123127,-0.249509,3.551285,-1.001500,-0.494873,0.215820,-0.588379,0.221204,-0.025362,0.078006,0.999829,-0.001247,0.017755,-0.005007,-0.711171,-0.032516,0.533343,-0.456863
39527,NaN,19.239246,-1.768397,7.907678,-3.993102,6.829128,9.505086,-0.720057,3.731796,-0.856157,-0.473877,0.222168,-0.601074,0.193747,-0.018235,0.075535,0.999810,-0.003600,0.018658,-0.004281,-0.723080,-0.023750,0.521479,-0.452383
39528,NaN,17.538336,0.724835,7.374047,-4.819254,7.937934,6.807265,-1.367345,3.405517,-0.797335,-0.450928,0.230713,-0.609619,0.176633,0.007036,0.070691,0.999824,-0.006836,0.017027,-0.003986,-0.733981,-0.013725,0.512076,-0.445939
39529,NaN,15.159808,1.388645,6.301086,-4.231086,7.712048,4.117619,-1.999383,2.845551,-0.793697,-0.431885,0.239502,-0.614014,0.152528,0.013897,0.060706,0.999841,-0.009996,0.014227,-0.003968,-0.743077,-0.002114,0.505957,-0.437995
39530,NaN,13.478744,0.912024,4.548969,-2.471873,7.354798,2.145165,-2.331889,2.016774,-0.897588,-0.424316,0.262939,-0.616455,0.135277,0.009033,0.044022,0.999871,-0.011659,0.010083,-0.004488,-0.750281,0.008089,0.503486,-0.428386
39531,NaN,11.859291,0.117845,3.614769,-1.261520,6.310132,0.785038,-2.371190,1.243393,-1.117346,-0.413818,0.271484,-0.612305,0.118820,0.000938,0.035397,0.999895,-0.011856,0.006217,-0.005587,-0.755649,0.016793,0.503896,-0.418092
39532,NaN,10.948758,-0.578886,2.474352,0.050161,5.720494,-0.137695,-2.360918,0.591822,-1.289374,-0.414062,0.277832,-0.603760,0.109521,-0.006205,0.024491,0.999905,-0.011804,0.002959,-0.006447,-0.759771,0.023040,0.506653,-0.406841
39533,NaN,9.495516,-2.471204,1.734798,1.594252,3.745448,-0.718158,-2.147602,0.338881,-1.306010,-0.410156,0.292969,-0.601807,0.094821,-0.025144,0.017456,0.999920,-0.010738,0.001694,-0.006530,-0.762996,0.028536,0.509849,-0.396329
39534,NaN,7.477132,-4.548442,0.516404,3.449005,1.374589,-1.870631,-1.844470,0.406627,-1.274992,-0.401855,0.299316,-0.597656,0.074490,-0.045911,0.005434,0.999935,-0.009222,0.002033,-0.006375,-0.766426,0.032429,0.512121,-0.386357
39535,NaN,3.929872,-5.958378,-1.116283,4.912136,-1.380753,-4.698446,-1.532008,0.513465,-1.172219,-0.402100,0.305664,-0.591553,0.038920,-0.059896,-0.010805,0.999950,-0.007660,0.002567,-0.005861,-0.769736,0.036248,0.513283,-0.377801
39536,NaN,0.189843,-6.467627,-1.819133,5.010951,-3.930698,-7.664586,-1.331269,0.506908,-1.005963,-0.393799,0.314209,-0.589355,0.001527,-0.064804,-0.017764,0.999962,-0.006656,0.002535,-0.005030,-0.772797,0.039052,0.514063,-0.370132
39537,NaN,-3.018085,-6.166979,-2.323020,4.560078,-5.592100,-10.498422,-1.156751,0.110418,-0.932655,-0.398193,0.320801,-0.578857,-0.030481,-0.061661,-0.022857,0.999972,-0.005784,0.000552,-0.004663,-0.774577,0.041286,0.515952,-0.363484
39538,NaN,-5.601636,-6.797672,-3.139905,4.978755,-7.403656,-12.613269,-0.988024,-0.424801,-0.772158,-0.394043,0.324951,-0.574707,-0.056212,-0.067914,-0.031183,0.999978,-0.004940,-0.002124,-0.003861,-0.774756,0.041712,0.519611,-0.357796
39539,NaN,-8.153312,-6.925648,-3.702832,4.982635,-8.845970,-14.820076,-0.549163,-1.108420,-0.605064,-0.402588,0.327148,-0.570557,-0.081536,-0.069112,-0.037290,0.999976,-0.002746,-0.005542,-0.003025,-0.772842,0.040241,0.525008,-0.354208
39540,NaN,-9.659842,-6.251060,-3.916068,4.606715,-9.085872,-16.441887,-0.000211,-1.769538,-0.312122,-0.419678,0.333496,-0.562012,-0.096344,-0.062360,-0.040014,0.999960,-0.000001,-0.008848,-0.001561,-0.768778,0.035747,0.531962,-0.353154
39541,NaN,-11.188357,-5.017262,-5.072668,4.877228,-8.529185,-18.731249,0.632669,-2.442052,0.012061,-0.423828,0.329102,-0.551270,-0.111249,-0.050016,-0.052246,0.999920,0.003163,-0.012210,0.000060,-0.762330,0.028989,0.540194,-0.355251
39542,NaN,-12.001735,-3.919651,-6.553505,5.746548,-7.408533,-20.509666,1.293773,-3.127497,0.237194,-0.442627,0.322754,-0.549072,-0.118924,-0.038905,-0.067653,0.999856,0.006469,-0.015637,0.001186,-0.753568,0.018701,0.549781,-0.359898
39543,NaN,-10.002310,-3.165335,-6.864578,6.242264,-5.264146,-19.325259,1.782379,-3.720529,0.380964,-0.457275,0.312012,-0.531982,-0.098660,-0.031218,-0.070769,0.999785,0.008911,-0.018601,0.001905,-0.742676,0.006291,0.560443,-0.366464
39544,NaN,-7.522044,-2.955715,-7.197934,6.974885,-3.208906,-17.439019,2.064729,-4.125130,0.431272,-0.480469,0.307617,-0.521484,-0.073648,-0.028961,-0.073810,0.999732,0.010323,-0.020624,0.002156,-0.730163,-0.008102,0.571915,-0.373777
39545,NaN,-4.752137,-2.134821,-6.739860,6.535597,-0.941706,-15.193258,2.175637,-4.409288,0.390037,-0.501221,0.294678,-0.504395,-0.045976,-0.020697,-0.068651,0.999696,0.010877,-0.022044,0.001950,-0.716533,-0.023212,0.583790,-0.381091
39546,NaN,-1.213580,-1.905802,-4.483642,4.744440,0.278459,-11.429902,2.188061,-4.575414,0.367714,-0.524170,0.286133,-0.493652,-0.011068,-0.018585,-0.045303,0.999677,0.010939,-0.022875,0.001838,-0.701875,-0.039057,0.596013,-0.388091
39547,NaN,3.590482,-0.614880,1.535405,-0.972596,0.504426,-6.014744,1.967056,-4.596118,0.437142,-0.538574,0.273193,-0.472168,0.035554,-0.006227,0.016113,0.999685,0.009834,-0.022978,0.002185,-0.686743,-0.053609,0.608223,-0.394430
39548,NaN,8.676053,0.007976,6.746980,-5.914951,0.209833,-0.552698,1.513580,-4.146823,0.485480,-0.555420,0.273193,-0.455322,0.085337,-0.000232,0.069248,0.999753,0.007567,-0.020732,0.002427,-0.672447,-0.065868,0.619611,-0.399448
39549,NaN,14.730864,1.714266,12.240580,-12.046492,0.508823,5.166152,0.677859,-2.858691,0.505055,-0.566162,0.275391,-0.444824,0.145495,0.017092,0.124552,0.999889,0.003389,-0.014293,0.002525,-0.662301,-0.072332,0.627965,-0.402225
39550,NaN,23.268673,1.367550,18.983789,-18.192400,-0.277690,14.117280,0.159187,-0.456079,0.221005,-0.561768,0.269043,-0.453125,0.232238,0.013781,0.190379,0.999996,0.000796,-0.002280,0.001105,-0.660336,-0.073407,0.629309,-0.403159
39551,NaN,24.560829,-1.903234,26.471691,-21.919211,-6.378639,18.230890,0.834245,1.290581,-0.312734,-0.563477,0.256104,-0.455078,0.247278,-0.020518,0.263041,0.999969,0.004171,0.006453,-0.001564,-0.664718,-0.074591,0.623231,-0.405178
39552,NaN,25.088783,1.824872,16.085451,-15.781857,2.650735,15.393831,1.710405,1.794402,-1.452184,-0.552734,0.245361,-0.476318,0.252435,0.015056,0.158732,0.999897,0.008552,0.008972,-0.007261,-0.672811,-0.081341,0.613089,-0.405993
39553,NaN,19.779773,2.544201,5.888260,-7.255187,7.088558,8.337012,1.614874,4.431952,-2.036927,-0.535156,0.221924,-0.501465,0.199283,0.022964,0.054669,0.999670,0.008073,0.022157,-0.010184,-0.689668,-0.084042,0.593871,-0.405724
39554,NaN,8.975906,1.695529,-5.108302,2.581936,8.319646,-4.012684,1.826784,4.211614,-2.135581,-0.524170,0.213379,-0.522705,0.088837,0.016480,-0.052808,0.999680,0.009133,0.021056,-0.010677,-0.705892,-0.088315,0.574368,-0.404990
39555,NaN,-8.327373,0.376840,-20.591024,14.590657,8.494934,-24.247893,2.326787,2.352231,-1.260366,-0.519287,0.187744,-0.524658,-0.085651,0.006691,-0.204846,0.999843,0.011633,0.011761,-0.006301,-0.714079,-0.095416,0.560707,-0.408161
39556,NaN,-4.459580,-6.827843,-27.345166,24.199516,9.880453,-21.258603,1.504839,-0.301238,-0.307615,-0.523438,0.185547,-0.520264,-0.044286,-0.066150,-0.274022,0.999969,0.007524,-0.001506,-0.001538,-0.713320,-0.102607,0.558482,-0.410785
39557,NaN,5.329387,-7.764138,-12.057551,14.184040,4.942546,-6.906430,0.978768,-1.133247,1.088916,-0.525635,0.191895,-0.518311,0.054397,-0.076757,-0.120646,0.999957,0.004894,-0.005666,0.005445,-0.707405,-0.105427,0.561045,-0.416763
39558,NaN,8.466440,-9.616343,3.901271,4.144916,-4.449989,2.119903,-0.848128,-0.713063,1.546507,-0.523926,0.202637,-0.509766,0.085263,-0.095338,0.039721,0.999955,-0.004241,-0.003565,0.007732,-0.702493,-0.100071,0.566265,-0.419325
39559,NaN,30.740308,-2.698714,16.649909,-9.808386,3.132376,23.704213,-1.629956,1.729881,1.413074,-0.507324,0.213379,-0.535400,0.309003,-0.023464,0.164032,0.999904,-0.008150,0.008649,0.007065,-0.705195,-0.086756,0.564257,-0.420461
39560,NaN,19.686033,-11.284162,17.576949,-4.529234,-7.439526,17.534574,0.503959,3.220730,1.487069,-0.505127,0.209229,-0.537354,0.200487,-0.111797,0.172278,0.999840,0.002520,0.016103,0.007435,-0.710773,-0.078028,0.552514,-0.428301
39561,NaN,8.706996,-7.059380,-20.317742,19.662070,12.122078,-7.596995,1.107377,0.422071,0.099004,-0.498779,0.207031,-0.543701,0.086675,-0.069424,-0.203747,0.999982,0.005537,0.002110,0.000495,-0.711302,-0.080830,0.548670,-0.431830
39562,NaN,1.695532,-0.837330,-6.059913,4.925345,3.968759,-10.348812,0.068659,-1.744913,-0.067872,-0.513428,0.202637,-0.526855,0.017480,-0.008358,-0.060451,0.999962,0.000343,-0.008724,-0.000339,-0.706438,-0.085544,0.554873,-0.430979
39563,NaN,8.834105,-2.618631,-6.118671,6.209651,6.545988,-3.416103,-0.562982,-3.217402,-0.065069,-0.530273,0.204834,-0.514160,0.089301,-0.026385,-0.059681,0.999867,-0.002815,-0.016086,-0.000325,-0.697819,-0.090704,0.567347,-0.427714
39564,NaN,8.259501,-7.041986,-2.382201,6.437854,1.117999,-0.824923,-0.186592,-3.424185,0.147060,-0.545166,0.206787,-0.495117,0.083038,-0.070380,-0.022337,0.999853,-0.000933,-0.017120,0.000735,-0.687496,-0.097540,0.579932,-0.426044
39565,NaN,9.263436,-7.586805,0.396029,4.558444,-0.637604,1.247742,0.309792,-3.677811,0.546650,-0.562012,0.202637,-0.480225,0.092749,-0.075622,0.005548,0.999826,0.001549,-0.018388,0.002733,-0.675416,-0.104885,0.592077,-0.426916
39566,NaN,10.453816,-10.270176,-2.100664,7.819588,-0.247867,2.755079,0.523041,-3.927945,1.151448,-0.574707,0.204590,-0.454834,0.105516,-0.102044,-0.019208,0.999787,0.002615,-0.019638,0.005757,-0.660551,-0.112212,0.604989,-0.430197
39567,NaN,12.653427,-10.191721,-2.544355,7.417661,0.998061,4.830026,0.533720,-3.869400,1.800200,-0.589844,0.217529,-0.431396,0.127908,-0.100706,-0.023247,0.999769,0.002668,-0.019346,0.009000,-0.644542,-0.116875,0.617486,-0.435450
39568,NaN,15.449575,-9.560936,-0.683048,4.683251,1.181949,7.714331,0.239717,-3.794533,2.231136,-0.598633,0.230225,-0.418945,0.155643,-0.093871,-0.003998,0.999757,0.001198,-0.018971,0.011155,-0.627191,-0.119621,0.630678,-0.441098
39569,NaN,20.043545,-9.315677,0.049074,2.359068,2.490069,12.020400,-0.243611,-4.009678,2.311219,-0.611572,0.238770,-0.391357,0.201429,-0.090829,0.004634,0.999732,-0.001218,-0.020047,0.011555,-0.609448,-0.120431,0.644997,-0.445026
