// Start Time: Unknown
// Update Rate: 100.0Hz
// Filter Profile: human (46.1)
// Firmware Version: 4.4.0
PacketCounter,SampleTimeFine,Acc_X,Acc_Y,Acc_Z,FreeAcc_X,FreeAcc_Y,FreeAcc_Z,Gyr_X,Gyr_Y,Gyr_Z,Mag_X,Mag_Y,Mag_Z,VelInc_X,VelInc_Y,VelInc_Z,OriInc_q0,OriInc_q1,OriInc_q2,OriInc_q3,Quat_q0,Quat_q1,Quat_q2,Quat_q3
09322,NaN,2.080246,-6.618303,6.521406,-0.784525,0.349223,-0.330321,-2.688503,0.645152,0.356183,-0.072266,0.816162,-0.312744,0.021131,-0.065262,0.066028,0.999903,-0.013442,0.003226,0.001781,0.724558,-0.366812,0.100699,-0.574739
09323,NaN,1.083181,-7.147469,5.882078,-1.636744,0.970311,-0.689406,-2.242130,0.733712,0.238274,-0.072510,0.824707,-0.298584,0.011134,-0.070796,0.059577,0.999930,-0.011210,0.003668,0.001191,0.720710,-0.372681,0.110230,-0.574052
09324,NaN,0.533507,-7.844574,5.929204,-2.124268,1.458167,-0.308120,-1.470420,0.707942,0.061807,-0.070801,0.831055,-0.284424,0.005570,-0.078005,0.059847,0.999967,-0.007352,0.003540,0.000309,0.717658,-0.375886,0.117226,-0.574400
09325,NaN,0.834398,-7.667873,6.045544,-1.711581,1.242166,-0.243576,-0.919086,0.665806,-0.032015,-0.075195,0.835205,-0.282471,0.008534,-0.076401,0.060779,0.999984,-0.004595,0.003329,-0.000160,0.715437,-0.377285,0.122192,-0.575218
09326,NaN,0.836328,-6.323221,5.989286,-0.620468,1.231293,-1.172505,-0.615733,0.664215,-0.106261,-0.075195,0.837402,-0.272217,0.008529,-0.063052,0.060059,0.999990,-0.003079,0.003321,-0.000531,0.713991,-0.377841,0.130625,-0.574796
09327,NaN,0.873080,-5.949879,6.067142,-0.242113,1.231315,-1.362917,-0.464393,0.687030,-0.198044,-0.077393,0.839600,-0.270264,0.008881,-0.059366,0.060779,0.999991,-0.002322,0.003435,-0.000990,0.712089,-0.377650,0.134037,-0.576492
09328,NaN,0.616636,-6.235300,5.831852,-0.557277,1.243643,-1.362102,-0.350471,0.687202,-0.286313,-0.081543,0.837402,-0.264160,0.006278,-0.062260,0.058406,0.999992,-0.001752,0.003436,-0.001432,0.711545,-0.375244,0.143963,-0.576342
09329,NaN,0.183025,-6.073509,5.313123,-0.874955,1.455341,-1.921762,-0.232106,0.628445,-0.381018,-0.090088,0.841797,-0.266357,0.001882,-0.060677,0.053196,0.999993,-0.001161,0.003142,-0.001905,0.709554,-0.374530,0.146152,-0.578705
09330,NaN,0.047040,-5.929479,5.290914,-0.714869,1.430065,-2.028179,-0.132467,0.536444,-0.449869,-0.092041,0.833252,-0.258057,0.000479,-0.059261,0.052947,0.999994,-0.000662,0.002682,-0.002249,0.709844,-0.370269,0.157788,-0.578036
09331,NaN,0.316453,-6.178033,5.427755,-0.717189,1.213958,-1.704623,-0.101414,0.472286,-0.489380,-0.100342,0.833252,-0.256104,0.003142,-0.061761,0.054301,0.999994,-0.000507,0.002361,-0.002447,0.707865,-0.369648,0.158851,-0.580564
09332,NaN,0.553146,-6.560783,5.468807,-0.774653,0.801064,-1.326469,-0.127158,0.416730,-0.521767,-0.102539,0.835205,-0.253906,0.005474,-0.065587,0.054718,0.999994,-0.000636,0.002084,-0.002609,0.708353,-0.364909,0.171550,-0.579351
09333,NaN,0.372990,-6.871056,5.362656,-1.105577,0.935695,-1.209737,-0.147482,0.361084,-0.566914,-0.111084,0.835449,-0.250000,0.003632,-0.068681,0.053671,0.999994,-0.000737,0.001805,-0.002835,0.706128,-0.364869,0.172220,-0.581888
09334,NaN,0.191303,-7.341792,5.294945,-1.386070,0.907643,-0.911572,-0.168298,0.297082,-0.614990,-0.119385,0.829102,-0.241699,0.001766,-0.073379,0.053009,0.999994,-0.000841,0.001485,-0.003075,0.705672,-0.362161,0.184180,-0.580469
09335,NaN,0.018691,-7.408333,5.024353,-1.652484,1.024956,-1.075040,-0.238599,0.201447,-0.662649,-0.127686,0.829102,-0.239746,-0.000008,-0.074024,0.050332,0.999993,-0.001193,0.001007,-0.003313,0.703127,-0.363026,0.184382,-0.582948
09336,NaN,-0.192117,-7.327694,4.524585,-1.823044,0.982229,-1.451148,-0.315288,0.091950,-0.715298,-0.136230,0.824707,-0.233398,-0.002162,-0.073198,0.045362,0.999992,-0.001576,0.000460,-0.003576,0.701498,-0.363398,0.196403,-0.580748
09337,NaN,0.096659,-7.922299,4.338250,-2.268472,0.676358,-1.095533,-0.303795,-0.010684,-0.758032,-0.146729,0.826904,-0.219238,0.000664,-0.079160,0.043503,0.999992,-0.001519,-0.000053,-0.003790,0.698750,-0.365235,0.195869,-0.583084
09338,NaN,0.593127,-8.772617,4.414167,-2.446919,0.107609,-0.283995,-0.290710,-0.095246,-0.795867,-0.163574,0.820557,-0.219238,0.005561,-0.087685,0.044272,0.999991,-0.001454,-0.000476,-0.003979,0.696156,-0.368314,0.207344,-0.580276
09339,NaN,0.878651,-9.120536,4.408070,-2.610925,-0.104016,0.013751,-0.186558,-0.200759,-0.853406,-0.171875,0.816406,-0.208984,0.008353,-0.091200,0.044174,0.999990,-0.000933,-0.001004,-0.004267,0.693538,-0.370427,0.205613,-0.582677
09340,NaN,1.212221,-9.137347,4.630836,-2.144453,-0.359626,0.270785,-0.073072,-0.306404,-0.912029,-0.182373,0.814209,-0.202881,0.011634,-0.091410,0.046360,0.999988,-0.000365,-0.001532,-0.004560,0.689744,-0.376586,0.214620,-0.579978
09341,NaN,1.447708,-8.704734,4.598551,-1.860387,-0.478585,-0.049288,-0.012000,-0.384677,-0.958755,-0.194824,0.805908,-0.198730,0.013971,-0.087112,0.046018,0.999987,-0.000060,-0.001923,-0.004794,0.687345,-0.378767,0.211520,-0.582540
09342,NaN,1.558545,-8.111826,4.696602,-1.193015,-0.471565,-0.397685,0.027302,-0.443242,-1.021039,-0.215576,0.799561,-0.188477,0.015067,-0.081202,0.046989,0.999985,0.000137,-0.002216,-0.005105,0.682709,-0.386448,0.217327,-0.580805
09343,NaN,1.625525,-7.790303,4.865182,-0.884386,-0.378463,-0.535039,0.062372,-0.481221,-1.092787,-0.226074,0.795410,-0.182373,0.015712,-0.078005,0.048666,0.999982,0.000312,-0.002406,-0.005464,0.680167,-0.388813,0.213388,-0.583663
09344,NaN,1.794602,-7.676860,4.939338,-0.587295,-0.417157,-0.537356,0.048991,-0.507138,-1.151229,-0.238525,0.789062,-0.182129,0.017378,-0.076882,0.049419,0.999980,0.000245,-0.002536,-0.005756,0.675246,-0.396259,0.215934,-0.583433
09345,NaN,2.141950,-7.828053,5.070711,-0.544670,-0.600968,-0.277524,0.134803,-0.497951,-1.218847,-0.257568,0.786865,-0.169922,0.020816,-0.078443,0.050707,0.999978,0.000674,-0.002490,-0.006094,0.672481,-0.398564,0.211440,-0.586694
09346,NaN,2.579787,-8.247733,5.206486,-0.529059,-0.846988,0.226683,0.252588,-0.467948,-1.305549,-0.265625,0.776367,-0.163818,0.025137,-0.082709,0.052020,0.999975,0.001263,-0.002340,-0.006528,0.667610,-0.404601,0.210947,-0.588300
09347,NaN,2.957259,-8.856886,5.269282,-0.853226,-1.049034,0.823311,0.477551,-0.427954,-1.397640,-0.288818,0.767822,-0.163574,0.028840,-0.088898,0.052543,0.999970,0.002388,-0.002140,-0.006988,0.664896,-0.405728,0.205280,-0.592586
09348,NaN,3.237953,-9.182366,5.186796,-1.054891,-1.159519,1.107152,0.726054,-0.412213,-1.467650,-0.305420,0.759521,-0.155518,0.031597,-0.092245,0.051599,0.999964,0.003630,-0.002061,-0.007338,0.660208,-0.410090,0.201646,-0.596063
09349,NaN,3.354586,-9.170184,5.076285,-1.245625,-1.167181,1.059147,0.964240,-0.426641,-1.543713,-0.323975,0.746826,-0.153320,0.032728,-0.092200,0.050390,0.999956,0.004821,-0.002133,-0.007718,0.657985,-0.409717,0.194190,-0.601230
09350,NaN,3.625854,-9.003146,4.924969,-1.259417,-1.287570,0.920939,1.176655,-0.456665,-1.597993,-0.342773,0.736328,-0.155273,0.035424,-0.090605,0.048799,0.999948,0.005883,-0.002283,-0.007990,0.653403,-0.413111,0.188043,-0.605841
09351,NaN,4.032107,-8.648358,4.920775,-1.135310,-1.562756,0.748115,1.284415,-0.477194,-1.630219,-0.359375,0.725830,-0.153076,0.039496,-0.087122,0.048744,0.999943,0.006422,-0.002386,-0.008151,0.651530,-0.411870,0.179215,-0.611355
09352,NaN,4.217225,-8.156963,4.972071,-0.833570,-1.559023,0.478715,1.259547,-0.500403,-1.664214,-0.375732,0.708740,-0.150635,0.041366,-0.082227,0.049308,0.999942,0.006298,-0.002502,-0.008321,0.646440,-0.415386,0.171938,-0.616448
09353,NaN,4.456244,-7.688834,4.875428,-0.723206,-1.725570,0.149325,1.145201,-0.544559,-1.675410,-0.387939,0.696045,-0.146484,0.043783,-0.077535,0.048431,0.999945,0.005726,-0.002723,-0.008377,0.644087,-0.414780,0.163160,-0.621682
09354,NaN,4.838802,-7.452123,4.834819,-0.605785,-1.906709,0.102846,0.878627,-0.578897,-1.666595,-0.406494,0.683350,-0.140137,0.047624,-0.075132,0.048158,0.999951,0.004393,-0.002894,-0.008333,0.637848,-0.419648,0.156052,-0.626652
09355,NaN,5.258734,-7.412142,4.751668,-0.694652,-2.182766,0.183432,0.644525,-0.599831,-1.650092,-0.418945,0.672852,-0.134033,0.051830,-0.074704,0.047433,0.999956,0.003223,-0.002999,-0.008250,0.634470,-0.420741,0.148651,-0.631131
09356,NaN,5.636219,-7.597724,5.019035,-0.617689,-2.161671,0.657536,0.476065,-0.608775,-1.645575,-0.441650,0.656006,-0.131836,0.055581,-0.076556,0.050179,0.999959,0.002380,-0.003044,-0.008228,0.626921,-0.426886,0.142077,-0.636045
09357,NaN,5.757093,-7.613382,5.064530,-0.671604,-2.089013,0.767443,0.273342,-0.628415,-1.627533,-0.454102,0.647461,-0.117188,0.056789,-0.076667,0.050720,0.999961,0.001367,-0.003142,-0.008138,0.622751,-0.429167,0.135759,-0.639974
09358,NaN,5.715998,-7.176409,5.079648,-0.394169,-1.860702,0.500216,0.078700,-0.672535,-1.618864,-0.468506,0.636963,-0.102783,0.056405,-0.072243,0.050959,0.999962,0.000393,-0.003363,-0.008094,0.613949,-0.436575,0.129895,-0.644667
09359,NaN,5.796109,-6.564370,5.045855,-0.045651,-1.907356,0.112220,-0.117256,-0.727857,-1.639040,-0.482910,0.626221,-0.090576,0.057236,-0.066085,0.050706,0.999960,-0.000586,-0.003639,-0.008195,0.608858,-0.440328,0.124456,-0.648008
09360,NaN,6.121064,-6.187204,5.035033,0.242313,-2.027043,0.032626,-0.332798,-0.776725,-1.654048,-0.495117,0.609375,-0.071777,0.060500,-0.062290,0.050690,0.999957,-0.001664,-0.003884,-0.008270,0.598797,-0.448847,0.119203,-0.652510
09361,NaN,6.586711,-6.294048,5.136501,0.281175,-2.196512,0.408700,-0.501855,-0.792281,-1.675350,-0.511719,0.600830,-0.063477,0.065133,-0.063359,0.051783,0.999954,-0.002509,-0.003961,-0.008377,0.592649,-0.453912,0.114703,-0.655419
09362,NaN,7.144109,-6.842343,5.357757,0.151910,-2.154169,1.227894,-0.670096,-0.812249,-1.675012,-0.517578,0.585938,-0.040771,0.070647,-0.068837,0.054096,0.999951,-0.003350,-0.004061,-0.008375,0.581371,-0.462977,0.110029,-0.659965
09363,NaN,7.768580,-7.350381,5.391738,-0.088610,-2.321800,1.936658,-0.727788,-0.809474,-1.648316,-0.538330,0.573242,-0.022217,0.076858,-0.073942,0.054498,0.999951,-0.003639,-0.004047,-0.008241,0.574664,-0.468648,0.106257,-0.662450
09364,NaN,8.193652,-7.762956,5.402382,-0.287450,-2.209747,2.500525,-0.742832,-0.805379,-1.612271,-0.548584,0.564697,-0.010010,0.081089,-0.078083,0.054641,0.999953,-0.003714,-0.004027,-0.008061,0.562898,-0.477443,0.101900,-0.666942
09365,NaN,8.354670,-7.679360,5.205395,-0.348228,-2.231487,2.465918,-0.739143,-0.820082,-1.573528,-0.560547,0.547852,0.012695,0.082725,-0.077253,0.052679,0.999954,-0.003696,-0.004100,-0.007868,0.556278,-0.483037,0.098296,-0.669005
09366,NaN,8.263372,-7.116374,4.921707,-0.178996,-2.139626,1.957414,-0.730265,-0.874319,-1.556895,-0.572998,0.539307,0.025146,0.081860,-0.071622,0.049837,0.999953,-0.003651,-0.004372,-0.007784,0.544267,-0.491705,0.093978,-0.673177
09367,NaN,8.068579,-6.234048,4.607486,0.155618,-2.242887,1.147963,-0.738082,-0.964519,-1.555311,-0.591553,0.522217,0.039795,0.079974,-0.062793,0.046693,0.999951,-0.003690,-0.004823,-0.007776,0.537644,-0.497667,0.090009,-0.674659
09368,NaN,8.034570,-5.214216,4.331806,0.614317,-2.451527,0.391041,-0.879437,-1.078641,-1.558563,-0.599609,0.511719,0.060303,0.079701,-0.052573,0.043980,0.999945,-0.004397,-0.005393,-0.007793,0.524922,-0.507027,0.085768,-0.678251
09369,NaN,8.226680,-4.240488,4.025664,1.043977,-2.963487,-0.221524,-1.114359,-1.188158,-1.566458,-0.614014,0.496826,0.076904,0.081690,-0.042819,0.040981,0.999936,-0.005572,-0.005941,-0.007832,0.517261,-0.514620,0.082452,-0.678829
09370,NaN,8.514316,-3.974999,4.091609,1.314163,-3.010296,-0.104813,-1.393971,-1.247280,-1.567318,-0.619873,0.484131,0.099609,0.084571,-0.040125,0.041724,0.999926,-0.006970,-0.006236,-0.007836,0.502529,-0.525333,0.079539,-0.682029
09371,NaN,9.025741,-4.052415,4.250712,1.511243,-3.101523,0.387646,-1.726230,-1.290653,-1.597131,-0.638428,0.471436,0.126221,0.089654,-0.040869,0.043439,0.999910,-0.008631,-0.006453,-0.007985,0.493017,-0.534659,0.077980,-0.681904
09372,NaN,9.594129,-4.289210,4.233908,1.453936,-3.114194,0.983285,-1.972740,-1.300098,-1.662424,-0.642090,0.452148,0.151123,0.095303,-0.043262,0.043386,0.999896,-0.009863,-0.006500,-0.008312,0.475458,-0.546310,0.076816,-0.685262
09373,NaN,10.249482,-4.930262,4.356273,1.349010,-2.967565,1.922025,-2.025359,-1.265277,-1.754278,-0.654053,0.435303,0.163574,0.101779,-0.049749,0.044710,0.999890,-0.010126,-0.006326,-0.008771,0.464349,-0.556073,0.075947,-0.685123
09374,NaN,10.931460,-5.773679,4.442425,1.070991,-2.572995,3.024435,-2.055695,-1.221401,-1.797366,-0.668457,0.420410,0.194580,0.108516,-0.058249,0.045686,0.999888,-0.010278,-0.006107,-0.008986,0.445087,-0.566939,0.075246,-0.689069
09375,NaN,11.093434,-6.377379,4.286496,0.775089,-2.110700,3.493128,-1.960125,-1.149412,-1.821308,-0.680420,0.401123,0.211182,0.110099,-0.064351,0.044128,0.999894,-0.009800,-0.005747,-0.009106,0.433641,-0.575886,0.074270,-0.689054
09376,NaN,10.889068,-6.748304,4.279295,0.664810,-1.333971,3.610941,-1.737801,-1.103040,-1.857212,-0.696777,0.382080,0.227783,0.108020,-0.068110,0.043980,0.999904,-0.008689,-0.005515,-0.009286,0.414513,-0.584986,0.073053,-0.693277
09377,NaN,10.225075,-6.705611,4.048861,0.593798,-0.727604,3.033361,-1.540483,-1.071128,-1.906556,-0.717285,0.365234,0.244385,0.101387,-0.067708,0.041553,0.999911,-0.007702,-0.005355,-0.009532,0.403752,-0.592536,0.070590,-0.693471
09378,NaN,10.097792,-5.622305,3.497764,0.684363,-1.202205,2.182705,-1.419640,-1.102745,-2.021443,-0.727295,0.348145,0.256836,0.100208,-0.056986,0.035934,0.999909,-0.007098,-0.005514,-0.010107,0.385217,-0.600425,0.068197,-0.697457
09379,NaN,10.118255,-4.062508,2.291275,0.405745,-2.474980,1.042566,-1.466311,-1.143083,-2.116055,-0.745605,0.322754,0.277588,0.100612,-0.041519,0.023791,0.999901,-0.007331,-0.005715,-0.010580,0.373787,-0.607898,0.064749,-0.697532
09380,NaN,10.104024,-3.309499,0.774052,-0.628169,-3.202970,0.335378,-1.255863,-1.173818,-2.180633,-0.766113,0.307861,0.290039,0.100623,-0.034142,0.008544,0.999904,-0.006279,-0.005869,-0.010903,0.354993,-0.615328,0.061593,-0.701112
09381,NaN,10.163710,-4.074621,0.428264,-1.212517,-2.526427,0.781041,-0.831618,-1.202781,-2.203201,-0.778320,0.291016,0.302490,0.101151,-0.041842,0.005064,0.999913,-0.004158,-0.006014,-0.011016,0.345050,-0.621645,0.055590,-0.701005
09382,NaN,10.200289,-5.282072,0.629379,-1.515059,-1.162547,1.531382,-0.426030,-1.297778,-2.217868,-0.792725,0.280273,0.308838,0.101365,-0.053933,0.007067,0.999915,-0.002130,-0.006489,-0.011089,0.328336,-0.628058,0.049568,-0.703762
09383,NaN,9.981845,-5.901500,0.903010,-1.464174,-0.175557,1.724128,-0.067805,-1.437022,-2.224434,-0.806885,0.259033,0.325439,0.099085,-0.060117,0.009764,0.999912,-0.000339,-0.007185,-0.011122,0.320623,-0.633723,0.040458,-0.702823
09384,NaN,10.690654,-6.080674,1.909974,-0.564759,0.373824,2.614896,0.283372,-1.575116,-2.230364,-0.821045,0.242188,0.333984,0.106065,-0.062020,0.019850,0.999906,0.001417,-0.007875,-0.011151,0.307075,-0.639979,0.031430,-0.703664
09385,NaN,12.517058,-5.925929,2.878991,0.438148,0.084960,4.324843,0.624831,-1.628825,-2.311433,-0.843994,0.231689,0.346191,0.124235,-0.060790,0.029616,0.999895,0.003124,-0.008144,-0.011557,0.301166,-0.645047,0.019331,-0.702026
09386,NaN,13.915412,-5.356870,3.452363,1.227743,-0.308814,5.439696,0.697766,-1.580506,-2.337801,-0.864746,0.214600,0.356689,0.138237,-0.055311,0.035428,0.999894,0.003489,-0.007902,-0.011689,0.289457,-0.650419,0.008459,-0.702209
09387,NaN,14.324336,-4.150877,3.060124,1.379018,-1.197630,5.301197,0.676919,-1.513692,-2.337724,-0.881104,0.199951,0.367188,0.142508,-0.043283,0.031537,0.999897,0.003384,-0.007568,-0.011688,0.283485,-0.654786,-0.003711,-0.700626
09388,NaN,14.138025,-3.814266,2.945857,1.402756,-0.969876,5.026053,0.732665,-1.406882,-2.299992,-0.904053,0.187256,0.371338,0.140717,-0.039873,0.030306,0.999902,0.003663,-0.007034,-0.011500,0.271964,-0.659092,-0.014045,-0.701024
09389,NaN,13.681045,-4.030499,2.742870,1.134033,-0.302652,4.663137,0.736366,-1.328899,-2.237287,-0.928955,0.174561,0.381592,0.136162,-0.041933,0.028182,0.999909,0.003682,-0.006644,-0.011186,0.266431,-0.662532,-0.025805,-0.699572
09390,NaN,13.361039,-3.850607,2.615025,1.069938,0.029595,4.294985,0.694330,-1.288284,-2.172496,-0.947754,0.166016,0.389893,0.133009,-0.040046,0.026871,0.999914,0.003472,-0.006441,-0.010862,0.255185,-0.666163,-0.035128,-0.699910
09391,NaN,13.226292,-3.384185,2.094516,0.791543,-0.189149,3.975095,0.505397,-1.228859,-2.065641,-0.972656,0.153564,0.394043,0.131772,-0.035259,0.021668,0.999925,0.002527,-0.006144,-0.010328,0.249404,-0.669405,-0.045342,-0.698311
09392,NaN,13.395304,-3.349038,1.835661,0.567197,0.002147,4.104576,0.438171,-1.135769,-1.906578,-1.001953,0.145020,0.398193,0.133519,-0.034806,0.019040,0.999936,0.002191,-0.005679,-0.009533,0.238501,-0.672639,-0.052516,-0.698510
09393,NaN,13.547305,-3.735607,1.741031,0.339623,0.560024,4.332272,0.339678,-0.949702,-1.747158,-1.031494,0.143066,0.389893,0.135055,-0.038567,0.017987,0.999949,0.001698,-0.004748,-0.008736,0.233280,-0.675058,-0.060708,-0.697274
09394,NaN,12.476569,-3.782101,1.274993,-0.130466,0.976015,3.249503,0.261401,-0.829568,-1.519200,-1.052734,0.138916,0.389893,0.124419,-0.038784,0.013216,0.999962,0.001307,-0.004148,-0.007596,0.223719,-0.677392,-0.065603,-0.697701
09395,NaN,11.426195,-3.669602,1.065199,-0.289679,1.230212,2.168901,0.296208,-0.757374,-1.334677,-1.082520,0.143311,0.385498,0.113972,-0.037473,0.011029,0.999969,0.001481,-0.003787,-0.006673,0.219810,-0.679245,-0.072002,-0.696510
09396,NaN,10.918349,-3.437255,1.157045,-0.120977,1.367968,1.609908,0.404845,-0.710124,-1.236261,-1.101562,0.143555,0.375244,0.108926,-0.035070,0.011887,0.999973,0.002024,-0.003551,-0.006181,0.212742,-0.681009,-0.076612,-0.696490
09397,NaN,10.795975,-3.201571,1.400706,0.195168,1.429548,1.442606,0.399649,-0.643910,-1.130322,-1.127197,0.152100,0.370850,0.107731,-0.032653,0.014289,0.999977,0.001998,-0.003220,-0.005652,0.209915,-0.682378,-0.082536,-0.695330
09398,NaN,10.219642,-2.822191,1.245735,0.195273,1.285051,0.782918,0.344734,-0.625531,-1.031814,-1.142334,0.158447,0.360596,0.102009,-0.028770,0.012727,0.999980,0.001724,-0.003128,-0.005159,0.204257,-0.683880,-0.086424,-0.695067
09399,NaN,10.074024,-2.170201,1.004870,0.242742,0.747666,0.511381,0.257275,-0.631130,-0.972024,-1.163574,0.160889,0.352295,0.100601,-0.022204,0.010338,0.999982,0.001286,-0.003156,-0.004860,0.201482,-0.685378,-0.091285,-0.693778
09400,NaN,10.170369,-1.588188,0.852908,0.347396,0.273030,0.506709,0.146034,-0.610654,-0.896192,-1.178711,0.169434,0.339844,0.101604,-0.016344,0.008828,0.999985,0.000730,-0.003053,-0.004481,0.196173,-0.686998,-0.094154,-0.693315
09401,NaN,10.086415,-1.140562,0.792109,0.488356,-0.038731,0.357033,-0.052239,-0.578323,-0.833147,-1.191650,0.175781,0.333496,0.100792,-0.011823,0.008216,0.999987,-0.000261,-0.002892,-0.004166,0.192830,-0.688653,-0.097401,-0.692161
09402,NaN,9.879490,-1.046410,0.413016,0.182583,-0.143246,0.127904,-0.226708,-0.492490,-0.746802,-1.206543,0.180176,0.312744,0.098744,-0.010828,0.004385,0.999989,-0.001134,-0.002462,-0.003734,0.186917,-0.690247,-0.098307,-0.692067
09403,NaN,10.085015,-1.430336,0.638299,0.258803,0.351923,0.383855,-0.317845,-0.380729,-0.650726,-1.215576,0.195068,0.300293,0.100790,-0.014621,0.006598,0.999992,-0.001589,-0.001904,-0.003254,0.183379,-0.691536,-0.099809,-0.691511
09404,NaN,9.454748,-2.009968,0.663356,0.049738,1.041523,-0.180205,-0.390203,-0.288501,-0.553452,-1.218018,0.203613,0.281738,0.094482,-0.020348,0.006809,0.999993,-0.001951,-0.001442,-0.002767,0.177834,-0.692637,-0.099318,-0.691929
09405,NaN,9.156910,-2.613890,0.803170,-0.046427,1.738260,-0.415745,-0.324133,-0.264740,-0.494995,-1.220215,0.210205,0.275391,0.091493,-0.026352,0.008195,0.999995,-0.001621,-0.001324,-0.002475,0.174866,-0.693591,-0.100146,-0.691609
09406,NaN,9.247288,-3.000536,0.741945,-0.235754,2.117536,-0.298157,-0.233778,-0.221228,-0.443569,-1.231201,0.220703,0.262939,0.092398,-0.030202,0.007557,0.999996,-0.001169,-0.001106,-0.002218,0.170881,-0.694302,-0.100012,-0.691912
09407,NaN,9.354634,-3.092548,0.799235,-0.206256,2.256168,-0.190897,-0.169271,-0.159783,-0.348490,-1.235840,0.231445,0.246338,0.093486,-0.031082,0.008093,0.999998,-0.000846,-0.000799,-0.001742,0.169007,-0.694824,-0.100773,-0.691738
09408,NaN,9.085068,-2.757356,0.557712,-0.307074,1.916174,-0.502133,-0.117738,-0.136971,-0.296154,-1.236084,0.242188,0.236084,0.090806,-0.027705,0.005656,0.999998,-0.000589,-0.000685,-0.001481,0.166812,-0.695138,-0.100858,-0.691942
09409,NaN,9.130764,-2.451167,0.676537,-0.078379,1.702011,-0.488861,-0.032824,-0.128061,-0.254921,-1.238525,0.248535,0.219482,0.091272,-0.024627,0.006828,0.999999,-0.000164,-0.000640,-0.001275,0.165750,-0.695480,-0.101738,-0.691726
09410,NaN,9.194596,-2.240398,0.652061,-0.021038,1.511625,-0.447877,-0.083135,-0.105232,-0.187778,-1.239258,0.267578,0.210938,0.091921,-0.022488,0.006578,0.999999,-0.000416,-0.000526,-0.000939,0.164675,-0.695659,-0.101850,-0.691785
09411,NaN,8.826146,-1.955845,0.592132,0.024776,1.274582,-0.843205,-0.099309,-0.080085,-0.122522,-1.239502,0.274170,0.196533,0.088247,-0.019610,0.005966,1.000000,-0.000497,-0.000400,-0.000613,0.163865,-0.695955,-0.101999,-0.691658
09412,NaN,8.526233,-1.659251,0.754196,0.279822,1.090145,-1.166772,-0.151534,-0.070474,-0.081052,-1.237549,0.282715,0.184082,0.085253,-0.016621,0.007585,1.000000,-0.000758,-0.000352,-0.000405,0.163280,-0.696091,-0.101638,-0.691713
09413,NaN,8.259895,-1.347202,0.765844,0.406310,0.834291,-1.460071,-0.297011,-0.061779,-0.035575,-1.235840,0.293213,0.177734,0.082594,-0.013475,0.007704,0.999999,-0.001485,-0.000309,-0.000178,0.162091,-0.696528,-0.100785,-0.691677
09414,NaN,8.034705,-1.188861,0.676113,0.380703,0.669730,-1.698902,-0.394984,-0.054148,-0.005367,-1.225342,0.297363,0.171631,0.080345,-0.011877,0.006806,0.999998,-0.001975,-0.000271,-0.000027,0.160979,-0.696819,-0.099283,-0.691861
09415,NaN,7.851845,-1.246887,0.613569,0.306863,0.716348,-1.876987,-0.441344,-0.042264,0.028024,-1.228027,0.312500,0.156982,0.078519,-0.012444,0.006180,0.999998,-0.002207,-0.000211,0.000140,0.159516,-0.697333,-0.097692,-0.691909
09416,NaN,7.778433,-1.324264,0.625755,0.295365,0.788842,-1.942507,-0.476765,-0.013016,0.070355,-1.219727,0.316650,0.146729,0.077789,-0.013200,0.006294,0.999997,-0.002384,-0.000065,0.000352,0.158371,-0.697571,-0.095556,-0.692230
09417,NaN,7.716057,-1.264269,0.734047,0.426806,0.769262,-2.008792,-0.501607,-0.009193,0.114120,-1.219971,0.322998,0.150879,0.077167,-0.012580,0.007376,0.999997,-0.002508,-0.000046,0.000571,0.157011,-0.698052,-0.093429,-0.692345
09418,NaN,7.836214,-1.159391,0.697084,0.436486,0.630124,-1.897589,-0.507826,0.054620,0.128630,-1.216064,0.335693,0.142334,0.078371,-0.011526,0.006979,0.999997,-0.002539,0.000273,0.000643,0.155972,-0.698091,-0.090877,-0.692880
09419,NaN,7.967410,-1.285636,0.512031,0.226509,0.659493,-1.756112,-0.472438,0.116161,0.144676,-1.214111,0.342041,0.130127,0.079686,-0.012787,0.005104,0.999997,-0.002362,0.000581,0.000723,0.154876,-0.698121,-0.088644,-0.693385
09420,NaN,7.906561,-1.335243,0.256376,-0.035808,0.601091,-1.812706,-0.509129,0.182953,0.193719,-1.210205,0.350586,0.125732,0.079081,-0.013269,0.002525,0.999996,-0.002546,0.000915,0.000969,0.154073,-0.697733,-0.085708,-0.694323
09421,NaN,7.612116,-1.274746,-0.015265,-0.280473,0.461249,-2.113463,-0.537784,0.230166,0.253546,-1.197754,0.359131,0.111328,0.076137,-0.012651,-0.000206,0.999995,-0.002689,0.001151,0.001268,0.153175,-0.697454,-0.082779,-0.695157
09422,NaN,6.967036,-1.182211,-0.207640,-0.451355,0.344899,-2.765872,-0.535027,0.257406,0.308830,-1.200195,0.365479,0.109131,0.069686,-0.011720,-0.002135,0.999994,-0.002675,0.001287,0.001544,0.152833,-0.696878,-0.079400,-0.696203
09423,NaN,6.473616,-1.210461,-0.256515,-0.518807,0.382945,-3.253506,-0.512915,0.240658,0.341737,-1.196289,0.374023,0.104980,0.064754,-0.012001,-0.002612,0.999995,-0.002565,0.001203,0.001709,0.152330,-0.696564,-0.076240,-0.696981
09424,NaN,6.272537,-1.279830,-0.253194,-0.543994,0.440854,-3.444292,-0.511940,0.221661,0.388914,-1.190186,0.382568,0.100830,0.062747,-0.012683,-0.002569,0.999994,-0.002560,0.001108,0.001945,0.152531,-0.696140,-0.072884,-0.697719
09425,NaN,6.056857,-1.230339,-0.235942,-0.514717,0.398048,-3.661957,-0.480668,0.217163,0.435236,-1.184082,0.393066,0.092529,0.060593,-0.012177,-0.002396,0.999994,-0.002403,0.001086,0.002176,0.152454,-0.695904,-0.069526,-0.698314
09426,NaN,5.958465,-1.105115,-0.110506,-0.357597,0.296140,-3.769414,-0.453709,0.197368,0.488425,-1.176025,0.401611,0.090332,0.059610,-0.010908,-0.001139,0.999994,-0.002269,0.000987,0.002442,0.153400,-0.695569,-0.066241,-0.698759
09427,NaN,6.141280,-0.957259,0.000863,-0.201554,0.135805,-3.602012,-0.463671,0.221735,0.548266,-1.171875,0.407959,0.086182,0.061439,-0.009404,-0.000038,0.999993,-0.002318,0.001109,0.002741,0.153775,-0.695327,-0.062544,-0.699258
09428,NaN,5.991132,-0.801009,0.035830,-0.122568,-0.022708,-3.769434,-0.422067,0.227361,0.560719,-1.174561,0.418457,0.081787,0.059934,-0.007841,0.000307,0.999993,-0.002110,0.001137,0.002804,0.155148,-0.694894,-0.059174,-0.699679
09429,NaN,6.007791,-0.712228,0.129657,-0.005874,-0.117496,-3.762590,-0.430737,0.233373,0.587755,-1.170654,0.429199,0.079590,0.060100,-0.006943,0.001242,0.999993,-0.002154,0.001167,0.002939,0.155775,-0.694580,-0.055444,-0.700156
09430,NaN,5.702799,-0.507608,0.179705,0.097962,-0.294431,-4.092943,-0.470371,0.245610,0.588650,-1.158203,0.437500,0.075439,0.057045,-0.004904,0.001739,0.999992,-0.002352,0.001228,0.002943,0.157005,-0.694131,-0.051775,-0.700608
09431,NaN,5.621245,-0.310272,0.529499,0.489003,-0.404675,-4.193788,-0.666834,0.219912,0.594719,-1.158447,0.446045,0.079346,0.056227,-0.002918,0.005243,0.999989,-0.003334,0.001100,0.002974,0.156829,-0.694031,-0.047202,-0.701069
09432,NaN,5.908091,-0.209012,0.666465,0.653623,-0.550465,-3.925158,-0.982243,0.226952,0.617327,-1.147949,0.448242,0.075439,0.059094,-0.001875,0.006607,0.999983,-0.004911,0.001135,0.003087,0.156136,-0.694035,-0.041505,-0.701580
09433,NaN,6.365637,-0.375495,0.763230,0.707320,-0.487939,-3.448236,-1.250362,0.276053,0.635356,-1.146240,0.458740,0.077148,0.063678,-0.003505,0.007567,0.999974,-0.006252,0.001380,0.003177,0.154079,-0.694157,-0.034697,-0.702283
09434,NaN,6.748896,-0.537891,0.580217,0.490454,-0.502608,-3.053976,-1.484793,0.348814,0.641640,-1.142090,0.463135,0.079102,0.067516,-0.005120,0.005723,0.999966,-0.007424,0.001744,0.003208,0.151366,-0.694052,-0.026789,-0.703323
09435,NaN,6.970545,-0.733126,0.340655,0.208211,-0.468879,-2.814217,-1.637738,0.434135,0.643751,-1.142578,0.475830,0.081055,0.069736,-0.007079,0.003314,0.999959,-0.008189,0.002171,0.003219,0.147999,-0.693822,-0.018467,-0.704532
09436,NaN,7.163631,-0.788845,0.031811,-0.114258,-0.577071,-2.629748,-1.757886,0.502006,0.637931,-1.132080,0.482178,0.083008,0.071662,-0.007658,0.000206,0.999953,-0.008789,0.002510,0.003190,0.144108,-0.693265,-0.009359,-0.706065
09437,NaN,7.096987,-0.862063,-0.503462,-0.665874,-0.652544,-2.706739,-1.831003,0.540721,0.619743,-1.132324,0.486328,0.083008,0.070982,-0.008447,-0.005149,0.999950,-0.009155,0.002704,0.003099,0.139967,-0.692670,-0.000357,-0.707543
09438,NaN,7.132955,-0.994685,-0.868101,-1.065389,-0.638678,-2.665730,-1.890701,0.528733,0.603407,-1.124023,0.492676,0.088867,0.071336,-0.009814,-0.008776,0.999947,-0.009453,0.002644,0.003017,0.135502,-0.692002,0.009025,-0.709007
09439,NaN,7.244085,-1.196007,-1.074446,-1.316520,-0.529601,-2.529290,-1.873552,0.487592,0.567487,-1.128662,0.501221,0.090820,0.072448,-0.011856,-0.010810,0.999949,-0.009368,0.002438,0.002837,0.131003,-0.691482,0.017960,-0.710189
09440,NaN,7.507887,-1.550973,-1.074180,-1.381099,-0.267471,-2.200281,-1.785232,0.432685,0.543699,-1.120361,0.509521,0.098877,0.075098,-0.015402,-0.010766,0.999954,-0.008926,0.002163,0.002718,0.126967,-0.691031,0.026363,-0.711099
09441,NaN,7.846547,-1.812696,-0.989247,-1.338622,-0.099366,-1.810753,-1.648127,0.389450,0.503604,-1.118408,0.511719,0.100830,0.078492,-0.018011,-0.009897,0.999961,-0.008241,0.001947,0.002518,0.123006,-0.690599,0.034209,-0.711879
09442,NaN,8.051315,-1.973065,-0.717084,-1.088190,0.014138,-1.563661,-1.470892,0.362992,0.470224,-1.118652,0.522217,0.104736,0.080546,-0.019594,-0.007173,0.999969,-0.007354,0.001815,0.002351,0.120162,-0.690201,0.040819,-0.712402
09443,NaN,7.989942,-1.773626,-0.407840,-0.755195,-0.160386,-1.654554,-1.349080,0.329528,0.430060,-1.110107,0.522217,0.108887,0.079931,-0.017592,-0.004091,0.999974,-0.006745,0.001648,0.002150,0.116968,-0.689732,0.047305,-0.712987
09444,NaN,8.035162,-1.430559,-0.137105,-0.449461,-0.509700,-1.678362,-1.314883,0.300931,0.383895,-1.110107,0.522217,0.106934,0.080377,-0.014160,-0.001399,0.999975,-0.006574,0.001505,0.001919,0.114576,-0.689480,0.052798,-0.713234
09445,NaN,8.156133,-1.409831,0.049953,-0.267017,-0.571806,-1.559549,-1.286028,0.288040,0.328029,-1.108154,0.526367,0.110840,0.081585,-0.013961,0.000472,0.999977,-0.006430,0.001440,0.001640,0.111234,-0.689087,0.058678,-0.713683
09446,NaN,8.225297,-1.502544,0.044097,-0.280857,-0.525958,-1.472451,-1.268915,0.281869,0.264746,-1.110352,0.528564,0.113037,0.082273,-0.014914,0.000420,0.999978,-0.006345,0.001409,0.001324,0.108543,-0.688875,0.063559,-0.713883
09447,NaN,8.143665,-1.718316,0.131747,-0.206119,-0.313669,-1.497140,-1.290618,0.263251,0.224630,-1.102051,0.528564,0.123291,0.081458,-0.017083,0.001321,0.999978,-0.006453,0.001316,0.001123,0.104813,-0.688549,0.069081,-0.714242
09448,NaN,8.242872,-1.813658,0.102756,-0.236839,-0.266504,-1.379555,-1.320053,0.246821,0.185466,-1.101807,0.524170,0.129395,0.082447,-0.018053,0.001045,0.999977,-0.006600,0.001234,0.000927,0.101623,-0.688474,0.073850,-0.714298
09449,NaN,8.182824,-1.676052,0.172919,-0.154428,-0.398308,-1.469119,-1.346125,0.224251,0.149613,-1.102051,0.528564,0.131348,0.081843,-0.016688,0.001750,0.999976,-0.006731,0.001121,0.000748,0.097438,-0.688286,0.079285,-0.714480
09450,NaN,8.223455,-1.183993,0.633295,0.326798,-0.891847,-1.534650,-1.538010,0.201084,0.117275,-1.102051,0.528564,0.137451,0.082248,-0.011743,0.006341,0.999970,-0.007690,0.001005,0.000586,0.093221,-0.688453,0.084578,-0.714275
09451,NaN,8.267204,-0.383168,0.773233,0.474700,-1.698579,-1.689830,-1.979159,0.210073,0.101154,-1.101807,0.524170,0.145752,0.082682,-0.003714,0.007683,0.999950,-0.009896,0.001050,0.000506,0.086676,-0.688548,0.092088,-0.714079
09452,NaN,8.483334,-0.338902,0.862787,0.548819,-1.818757,-1.493008,-2.266603,0.248393,0.059778,-1.101807,0.524170,0.156006,0.084845,-0.003266,0.008560,0.999935,-0.011333,0.001242,0.000299,0.079392,-0.688730,0.099996,-0.713687
09453,NaN,8.649908,-0.694859,0.676737,0.354539,-1.530109,-1.251452,-2.553767,0.284415,-0.009279,-1.105713,0.517822,0.168457,0.086508,-0.006866,0.006732,0.999917,-0.012768,0.001422,-0.000046,0.070416,-0.688676,0.109181,-0.713334
09454,NaN,8.659121,-0.962736,0.364418,0.053466,-1.261093,-1.184431,-2.721577,0.318550,-0.109883,-1.099121,0.509277,0.178711,0.086592,-0.009625,0.003637,0.999906,-0.013607,0.001593,-0.000549,0.060564,-0.688592,0.118336,-0.712860
09455,NaN,8.851432,-1.615566,0.453618,0.191426,-0.684727,-0.831699,-2.714966,0.313371,-0.205691,-1.105469,0.505127,0.191162,0.088505,-0.016184,0.004617,0.999906,-0.013574,0.001567,-0.001028,0.050292,-0.688355,0.127388,-0.712328
09456,NaN,9.139789,-1.803491,0.723594,0.487546,-0.598857,-0.500570,-2.965983,0.320879,-0.284513,-1.113525,0.496582,0.201416,0.091384,-0.018056,0.007357,0.999888,-0.014829,0.001604,-0.001423,0.038812,-0.688131,0.136848,-0.711507
09457,NaN,9.521499,-2.069288,0.580710,0.390041,-0.410913,-0.068097,-3.011838,0.352432,-0.323040,-1.113281,0.488037,0.211914,0.095192,-0.020758,0.005952,0.999884,-0.015059,0.001762,-0.001615,0.027055,-0.687603,0.146503,-0.710639
09458,NaN,9.570085,-2.792428,0.128049,0.102026,0.367824,0.149972,-2.901710,0.354902,-0.405454,-1.112793,0.475342,0.222168,0.095647,-0.028097,0.001518,0.999891,-0.014508,0.001774,-0.002027,0.015170,-0.686970,0.155398,-0.709714
09459,NaN,9.661659,-3.623678,-0.145166,0.051657,1.225596,0.433992,-2.653695,0.350105,-0.500562,-1.112305,0.462402,0.230713,0.096523,-0.036495,-0.001138,0.999907,-0.013268,0.001750,-0.002503,0.004005,-0.686254,0.163107,-0.708827
09460,NaN,9.615214,-4.358768,-0.423041,0.022560,2.042999,0.553364,-2.260380,0.313250,-0.564127,-1.116211,0.449707,0.234863,0.096022,-0.043904,-0.003886,0.999931,-0.011302,0.001566,-0.002821,-0.006135,-0.685617,0.169113,-0.708020
09461,NaN,9.836834,-4.720175,-0.312316,0.284578,2.356385,0.841261,-1.825990,0.224650,-0.584950,-1.122070,0.439209,0.243408,0.098226,-0.047516,-0.002801,0.999953,-0.009130,0.001123,-0.002925,-0.014655,-0.685229,0.173557,-0.707195
09462,NaN,10.448297,-4.189467,-0.092960,0.391792,1.719300,1.305637,-1.422669,0.158184,-0.602333,-1.122070,0.434814,0.241211,0.104356,-0.042215,-0.000713,0.999970,-0.007113,0.000791,-0.003012,-0.021742,-0.685106,0.176402,-0.706427
09463,NaN,11.228191,-3.881154,0.118306,0.515078,1.264217,1.989245,-0.982920,0.127111,-0.604941,-1.123779,0.422119,0.253906,0.112165,-0.039145,0.001304,0.999983,-0.004915,0.000636,-0.003025,-0.027358,-0.685072,0.177785,-0.705918
09464,NaN,11.451515,-3.791346,0.223500,0.611951,1.163108,2.180385,-0.614991,0.126704,-0.544421,-1.127686,0.411377,0.251953,0.114413,-0.038218,0.002280,0.999991,-0.003075,0.000634,-0.002722,-0.031418,-0.685040,0.178029,-0.705719
09465,NaN,10.877824,-3.513297,0.169111,0.536189,1.087538,1.555182,-0.337023,0.089161,-0.462808,-1.131592,0.407227,0.251953,0.108697,-0.035382,0.001702,0.999996,-0.001685,0.000446,-0.002314,-0.034284,-0.685082,0.177618,-0.705648
09466,NaN,10.209251,-3.389642,0.152196,0.538216,1.150222,0.870421,-0.061685,0.014181,-0.390754,-1.129395,0.400879,0.250000,0.102026,-0.034095,0.001525,0.999998,-0.000308,0.000071,-0.001954,-0.035846,-0.685352,0.176551,-0.705576
09467,NaN,9.731963,-3.286788,0.174189,0.568975,1.174087,0.377608,0.227510,-0.093401,-0.318452,-1.133545,0.398682,0.254150,0.097266,-0.033025,0.001750,0.999998,0.001138,-0.000467,-0.001592,-0.036107,-0.686002,0.174673,-0.705398
09468,NaN,9.637583,-3.243254,0.346870,0.735649,1.126922,0.272490,0.569942,-0.189266,-0.263551,-1.131348,0.398682,0.254150,0.096330,-0.032569,0.003467,0.999995,0.002850,-0.000946,-0.001318,-0.034905,-0.686955,0.171936,-0.705203
09469,NaN,9.693248,-3.152107,0.730587,1.081683,0.946902,0.304717,0.910119,-0.290298,-0.211205,-1.135498,0.394531,0.252197,0.096888,-0.031657,0.007303,0.999988,0.004551,-0.001451,-0.001056,-0.032274,-0.688311,0.168050,-0.704943
09470,NaN,10.007387,-2.815836,1.088132,1.324323,0.494892,0.544046,1.175344,-0.372335,-0.154738,-1.133545,0.398682,0.250000,0.100032,-0.028300,0.010902,0.999981,0.005877,-0.001862,-0.000774,-0.028568,-0.689827,0.163741,-0.704635
09471,NaN,10.508819,-2.634695,1.331268,1.500355,0.192918,0.997530,1.367158,-0.408186,-0.118495,-1.131348,0.398682,0.252197,0.105045,-0.026500,0.013346,0.999974,0.006836,-0.002041,-0.000592,-0.023936,-0.691540,0.158569,-0.704312
09472,NaN,10.880772,-2.691210,1.692091,1.859460,0.108301,1.368885,1.392000,-0.406161,-0.068099,-1.131592,0.405273,0.245850,0.108764,-0.027067,0.016954,0.999974,0.006960,-0.002031,-0.000340,-0.019426,-0.692969,0.154071,-0.704044
09473,NaN,11.183523,-2.306241,1.919588,1.992422,-0.346806,1.588394,1.093683,-0.356006,0.007921,-1.129639,0.407227,0.250000,0.111802,-0.023163,0.019268,0.999983,0.005468,-0.001780,0.000040,-0.015334,-0.694311,0.150280,-0.703642
09474,NaN,11.189550,-1.922478,1.585871,1.590689,-0.633489,1.522449,0.815276,-0.277462,0.062222,-1.125244,0.405029,0.250000,0.111879,-0.019255,0.015935,0.999991,0.004076,-0.001387,0.000311,-0.012865,-0.694960,0.148629,-0.703402
09475,NaN,10.843685,-2.434068,1.094361,1.250860,0.030230,1.284261,0.612682,-0.222904,0.104079,-1.123291,0.409424,0.251953,0.108437,-0.024318,0.010990,0.999995,0.003063,-0.001115,0.000520,-0.010205,-0.695702,0.146850,-0.703086
09476,NaN,10.359475,-3.275929,0.462115,0.836786,1.051506,0.978887,0.471685,-0.200294,0.150926,-1.125488,0.411621,0.247803,0.103615,-0.032692,0.004648,0.999996,0.002358,-0.001001,0.000755,-0.008952,-0.695893,0.146962,-0.702890
09477,NaN,10.190201,-3.670142,0.120420,0.595518,1.517741,0.895553,0.436343,-0.206132,0.202017,-1.121338,0.413574,0.247803,0.101938,-0.036601,0.001229,0.999997,0.002182,-0.001031,0.001010,-0.006572,-0.696486,0.146140,-0.702500
09478,NaN,10.208625,-3.515635,-0.051992,0.391286,1.373901,0.889538,0.472064,-0.192055,0.263520,-1.123535,0.415771,0.253906,0.102133,-0.035021,-0.000505,0.999996,0.002360,-0.000960,0.001318,-0.004918,-0.696546,0.146685,-0.702341
09479,NaN,9.708357,-2.977817,-0.095114,0.245683,0.938096,0.296129,0.550972,-0.170770,0.295453,-1.113281,0.426270,0.251709,0.097128,-0.029632,-0.000950,0.999995,0.002755,-0.000854,0.001477,-0.001836,-0.696939,0.145783,-0.702154
09480,NaN,9.188307,-2.788701,0.008731,0.313406,0.806060,-0.249536,0.643902,-0.168955,0.318851,-1.115479,0.426270,0.249756,0.091927,-0.027741,0.000075,0.999993,0.003220,-0.000845,0.001594,0.000673,-0.696882,0.145876,-0.702194
09481,NaN,8.842924,-2.443619,-0.039939,0.197062,0.528056,-0.655590,0.710267,-0.158213,0.304046,-1.117676,0.432617,0.249512,0.088467,-0.024300,-0.000416,0.999992,0.003551,-0.000791,0.001520,0.004331,-0.697208,0.144440,-0.702154
09482,NaN,8.464289,-2.238454,-0.046115,0.148383,0.383471,-1.066953,0.867913,-0.154485,0.259145,-1.113770,0.441162,0.243408,0.084672,-0.022273,-0.000493,0.999989,0.004340,-0.000772,0.001296,0.007449,-0.697134,0.143498,-0.702394
09483,NaN,8.332315,-2.437045,0.032491,0.253962,0.568919,-1.153616,1.055793,-0.162011,0.195548,-1.111816,0.447510,0.239014,0.083347,-0.024290,0.000264,0.999985,0.005279,-0.000810,0.000978,0.011932,-0.697513,0.140463,-0.702569
09484,NaN,8.518904,-2.727668,0.037794,0.285770,0.792135,-0.907401,1.239192,-0.160526,0.137718,-1.105469,0.445312,0.233154,0.085208,-0.027220,0.000278,0.999980,0.006196,-0.000803,0.000689,0.015963,-0.697510,0.137746,-0.703030
09485,NaN,8.751359,-2.922692,0.037406,0.286764,0.924379,-0.637011,1.408093,-0.145785,0.089503,-1.112061,0.453857,0.234863,0.087526,-0.029190,0.000232,0.999975,0.007040,-0.000729,0.000448,0.021289,-0.697831,0.133094,-0.703466
09486,NaN,8.914279,-3.005413,-0.005580,0.218808,0.970490,-0.458166,1.560712,-0.126385,0.043695,-1.112061,0.456055,0.222656,0.089149,-0.030033,-0.000234,0.999969,0.007803,-0.000632,0.000218,0.026129,-0.697698,0.128879,-0.704220
09487,NaN,8.965363,-2.918936,-0.011828,0.162054,0.879381,-0.426614,1.639976,-0.108516,0.013905,-1.110107,0.460449,0.218506,0.089656,-0.029181,-0.000309,0.999966,0.008200,-0.000543,0.000070,0.031968,-0.697833,0.123134,-0.704873
09488,NaN,9.051059,-2.664037,-0.051590,0.049112,0.619912,-0.398091,1.660334,-0.098686,-0.027953,-1.112305,0.462402,0.216309,0.090507,-0.026648,-0.000692,0.999965,0.008302,-0.000493,-0.000140,0.036942,-0.697574,0.118260,-0.705720
09489,NaN,9.288232,-2.502130,-0.044876,-0.001519,0.417995,-0.202323,1.622589,-0.086586,-0.059438,-1.114746,0.468994,0.201904,0.092875,-0.025044,-0.000612,0.999967,0.008113,-0.000433,-0.000297,0.042442,-0.697592,0.112307,-0.706365
09490,NaN,9.514393,-2.409980,-0.037756,-0.042556,0.283722,-0.001942,1.534869,-0.077238,-0.079390,-1.110596,0.470947,0.197754,0.095135,-0.024134,-0.000526,0.999970,0.007674,-0.000386,-0.000397,0.046839,-0.697259,0.107620,-0.707145
09491,NaN,9.584052,-2.350757,-0.125418,-0.164490,0.228389,0.052228,1.436577,-0.061668,-0.091454,-1.112793,0.470947,0.195801,0.095830,-0.023542,-0.001394,0.999974,0.007183,-0.000308,-0.000457,0.051557,-0.697171,0.102205,-0.707706
09492,NaN,9.673427,-2.298610,-0.030345,-0.104233,0.157779,0.128334,1.297705,-0.061243,-0.103521,-1.114746,0.473145,0.189453,0.096722,-0.023034,-0.000423,0.999979,0.006488,-0.000306,-0.000518,0.055092,-0.696820,0.098189,-0.708354
09493,NaN,9.727821,-2.166151,0.036200,-0.067397,0.024759,0.153196,1.126090,-0.059764,-0.109299,-1.114746,0.468994,0.185547,0.097266,-0.021716,0.000269,0.999984,0.005630,-0.000299,-0.000546,0.058657,-0.696763,0.093802,-0.708718
09494,NaN,9.784653,-2.073979,0.157109,0.027269,-0.075191,0.190266,0.942189,-0.040902,-0.106609,-1.110596,0.475342,0.183350,0.097835,-0.020799,0.001493,0.999989,0.004711,-0.000205,-0.000533,0.060978,-0.696427,0.090968,-0.709222
09495,NaN,9.663385,-2.097544,0.142861,0.003025,-0.013458,0.076746,0.757197,-0.031026,-0.101889,-1.114990,0.475342,0.181396,0.096623,-0.021030,0.001364,0.999993,0.003786,-0.000155,-0.000509,0.063267,-0.696347,0.087918,-0.709484
09496,NaN,9.541028,-2.187547,0.189874,0.041920,0.105430,-0.022910,0.632862,-0.053996,-0.085087,-1.121094,0.468994,0.173340,0.095400,-0.021922,0.001855,0.999995,0.003164,-0.000270,-0.000425,0.064612,-0.696142,0.086208,-0.709775
09497,NaN,9.542166,-2.231205,0.181661,0.028124,0.157262,-0.012754,0.520201,-0.064296,-0.075572,-1.114746,0.471191,0.177246,0.095413,-0.022353,0.001789,0.999996,0.002601,-0.000321,-0.000378,0.066182,-0.696232,0.084078,-0.709797
09498,NaN,9.479303,-2.087204,0.190375,0.027792,0.034266,-0.104552,0.435847,-0.068837,-0.077593,-1.121094,0.471191,0.166992,0.094784,-0.020913,0.001891,0.999997,0.002179,-0.000344,-0.000388,0.066901,-0.696145,0.083050,-0.709936
09499,NaN,9.484002,-2.119042,0.253274,0.089810,0.071194,-0.092212,0.372586,-0.076603,-0.075377,-1.119141,0.473389,0.171143,0.094831,-0.021231,0.002530,0.999998,0.001863,-0.000383,-0.000377,0.067962,-0.696322,0.081440,-0.709848
09500,NaN,9.444581,-2.227875,0.267228,0.103661,0.189797,-0.107628,0.327721,-0.082027,-0.070505,-1.114990,0.477539,0.168945,0.094437,-0.022316,0.002674,0.999999,0.001639,-0.000410,-0.000353,0.068352,-0.696323,0.080785,-0.709885
09501,NaN,9.395719,-2.303489,0.322431,0.161903,0.280088,-0.138759,0.300736,-0.084647,-0.059120,-1.116943,0.471191,0.173340,0.093949,-0.023068,0.003229,0.999999,0.001504,-0.000423,-0.000296,0.069224,-0.696543,0.079483,-0.709731
09502,NaN,9.378249,-2.218259,0.324120,0.161423,0.203340,-0.173710,0.282692,-0.080404,-0.061253,-1.114746,0.471191,0.173340,0.093774,-0.022216,0.003248,0.999999,0.001413,-0.000402,-0.000306,0.069504,-0.696554,0.079002,-0.709747
09503,NaN,9.377658,-2.129080,0.355736,0.193156,0.123417,-0.192529,0.293020,-0.074890,-0.077036,-1.123535,0.475342,0.175293,0.093767,-0.021332,0.003561,0.999999,0.001465,-0.000374,-0.000385,0.070281,-0.696747,0.077668,-0.709628
09504,NaN,9.434174,-2.033919,0.454945,0.287798,0.022731,-0.155354,0.300235,-0.061304,-0.090735,-1.121094,0.471191,0.169189,0.094331,-0.020389,0.004548,0.999999,0.001501,-0.000307,-0.000454,0.070513,-0.696699,0.077019,-0.709723
09505,NaN,9.410621,-1.939508,0.480444,0.312779,-0.054363,-0.197516,0.283660,-0.053740,-0.101830,-1.119141,0.473145,0.175293,0.094095,-0.019450,0.004802,0.999999,0.001418,-0.000269,-0.000509,0.071161,-0.696827,0.075639,-0.709681
09506,NaN,9.523021,-1.869735,0.472623,0.298484,-0.137223,-0.101906,0.270482,-0.040181,-0.126641,-1.121094,0.468994,0.166992,0.095217,-0.018764,0.004720,0.999999,0.001352,-0.000201,-0.000633,0.071130,-0.696726,0.074988,-0.709852
09507,NaN,9.582685,-1.850546,0.541016,0.364258,-0.154336,-0.045981,0.247099,-0.029540,-0.142787,-1.121094,0.468994,0.169189,0.095813,-0.018581,0.005401,0.999999,0.001235,-0.000148,-0.000714,0.071495,-0.696795,0.073604,-0.709893
09508,NaN,9.682425,-1.880752,0.633464,0.449540,-0.133473,0.059898,0.212536,-0.018142,-0.157352,-1.118896,0.468994,0.167236,0.096809,-0.018890,0.006323,0.999999,0.001063,-0.000091,-0.000787,0.071113,-0.696646,0.073074,-0.710132
09509,NaN,9.801734,-1.926538,0.658131,0.469226,-0.096128,0.186775,0.173944,-0.000525,-0.156823,-1.123047,0.467041,0.167236,0.098002,-0.019348,0.006565,0.999999,0.000870,-0.000003,-0.000784,0.071162,-0.696642,0.071910,-0.710250
09510,NaN,9.728151,-1.952146,0.650558,0.455931,-0.043491,0.120149,0.139669,0.016843,-0.156034,-1.121094,0.466797,0.169189,0.097267,-0.019602,0.006484,0.999999,0.000698,0.000084,-0.000780,0.070471,-0.696388,0.071687,-0.710590
09511,NaN,9.677454,-1.812544,0.609051,0.411496,-0.153946,0.042074,0.109677,0.017704,-0.153167,-1.120850,0.462646,0.165283,0.096761,-0.018203,0.006072,1.000000,0.000548,0.000089,-0.000766,0.070303,-0.696340,0.070771,-0.710745
09512,NaN,9.685964,-1.741158,0.522761,0.317405,-0.213108,0.034984,0.118713,0.023918,-0.152480,-1.122803,0.460449,0.165283,0.096847,-0.017489,0.005206,1.000000,0.000594,0.000120,-0.000762,0.069510,-0.696064,0.070660,-0.711105
09513,NaN,9.701563,-1.790358,0.468716,0.258420,-0.152437,0.059261,0.129000,0.026260,-0.146651,-1.129395,0.464844,0.165039,0.097003,-0.017978,0.004663,1.000000,0.000645,0.000131,-0.000733,0.069428,-0.695976,0.069701,-0.711294
09514,NaN,9.659938,-1.740727,0.374057,0.156181,-0.181079,0.007050,0.127834,0.029606,-0.137225,-1.125000,0.462646,0.161133,0.096588,-0.017476,0.003715,1.000000,0.000639,0.000148,-0.000686,0.068702,-0.695672,0.069614,-0.711670
09515,NaN,9.645122,-1.678253,0.362084,0.139531,-0.225774,-0.019549,0.156463,0.025556,-0.131380,-1.131348,0.462646,0.156982,0.096441,-0.016849,0.003595,0.999999,0.000782,0.000128,-0.000657,0.068770,-0.695572,0.068610,-0.711859
09516,NaN,9.654609,-1.732167,0.412365,0.180662,-0.164337,0.001703,0.175289,0.025411,-0.124718,-1.128906,0.452148,0.157227,0.096536,-0.017385,0.004096,0.999999,0.000876,0.000127,-0.000624,0.068258,-0.695268,0.068377,-0.712227
09517,NaN,9.572659,-1.642133,0.374677,0.139248,-0.223801,-0.096552,0.189431,0.033104,-0.128538,-1.129150,0.456299,0.163330,0.095717,-0.016486,0.003715,0.999999,0.000947,0.000166,-0.000643,0.068448,-0.695128,0.067267,-0.712451
09518,NaN,9.551357,-1.627495,0.373694,0.129203,-0.223167,-0.119891,0.202789,0.027787,-0.131287,-1.125000,0.458496,0.156982,0.095503,-0.016341,0.003707,0.999999,0.001014,0.000139,-0.000656,0.068009,-0.694814,0.066898,-0.712835
09519,NaN,9.577810,-1.721852,0.362204,0.110342,-0.122017,-0.075987,0.202217,0.033162,-0.132917,-1.128906,0.452148,0.159180,0.095767,-0.017286,0.003589,0.999999,0.001011,0.000166,-0.000665,0.068227,-0.694669,0.065727,-0.713063
09520,NaN,9.684693,-1.855764,0.332239,0.067263,0.000735,0.053567,0.195108,0.029443,-0.130337,-1.131104,0.449951,0.157227,0.096835,-0.018624,0.003290,0.999999,0.000976,0.000147,-0.000652,0.067773,-0.694358,0.065366,-0.713443
09521,NaN,9.744528,-1.934260,0.300622,0.026951,0.079597,0.126150,0.180834,0.033387,-0.121444,-1.129150,0.458496,0.152832,0.097434,-0.019404,0.002972,0.999999,0.000904,0.000167,-0.000607,0.067958,-0.694215,0.064311,-0.713660
09522,NaN,9.681412,-1.810741,0.206770,-0.073837,-0.019946,0.038476,0.134148,0.042920,-0.114750,-1.135254,0.449951,0.153076,0.096804,-0.018164,0.002035,1.000000,0.000671,0.000215,-0.000574,0.067369,-0.693879,0.064196,-0.714054
09523,NaN,9.537734,-1.648541,0.131250,-0.150706,-0.141286,-0.134847,0.112992,0.047799,-0.118786,-1.126953,0.452148,0.155029,0.095368,-0.016543,0.001280,1.000000,0.000565,0.000239,-0.000594,0.067322,-0.693707,0.063397,-0.714296
09524,NaN,9.551380,-1.732929,0.165795,-0.126018,-0.050725,-0.104911,0.099236,0.039818,-0.117220,-1.135254,0.449951,0.155029,0.095504,-0.017386,0.001630,1.000000,0.000496,0.000199,-0.000586,0.066644,-0.693406,0.063348,-0.714657
09525,NaN,9.564761,-1.810832,0.119092,-0.179021,0.034410,-0.078998,0.077110,0.038472,-0.109112,-1.137451,0.452148,0.150879,0.095638,-0.018161,0.001166,1.000000,0.000386,0.000192,-0.000546,0.066511,-0.693276,0.062707,-0.714852
09526,NaN,9.648199,-1.892673,0.093736,-0.214881,0.108998,0.016894,0.076963,0.036349,-0.108657,-1.131104,0.449951,0.153076,0.096472,-0.018979,0.000913,1.000000,0.000385,0.000182,-0.000543,0.065833,-0.693004,0.062715,-0.715177
09527,NaN,9.614082,-1.916301,0.044369,-0.268385,0.148214,-0.014180,0.075672,0.037319,-0.092140,-1.133057,0.447998,0.146973,0.096132,-0.019207,0.000418,1.000000,0.000378,0.000187,-0.000461,0.065755,-0.692873,0.062138,-0.715361
09528,NaN,9.524153,-1.826749,0.026471,-0.289393,0.083397,-0.119572,0.055792,0.031029,-0.078412,-1.130859,0.443604,0.146973,0.095234,-0.018305,0.000245,1.000000,0.000279,0.000155,-0.000392,0.065171,-0.692632,0.062268,-0.715638
09529,NaN,9.428444,-1.785141,0.018296,-0.297669,0.067350,-0.221573,0.058020,0.019542,-0.081758,-1.133057,0.447998,0.142822,0.094277,-0.017890,0.000169,1.000000,0.000290,0.000098,-0.000409,0.065074,-0.692567,0.061784,-0.715751
09530,NaN,9.436554,-1.920686,0.060600,-0.260790,0.205540,-0.188188,0.075934,0.004468,-0.073207,-1.130859,0.447998,0.145020,0.094359,-0.019242,0.000597,1.000000,0.000380,0.000022,-0.000366,0.064645,-0.692426,0.061791,-0.715925
09531,NaN,9.406647,-1.990452,0.152156,-0.170491,0.286396,-0.202330,0.092174,-0.004141,-0.066383,-1.133057,0.445801,0.145020,0.094060,-0.019936,0.001514,1.000000,0.000461,-0.000021,-0.000332,0.064728,-0.692430,0.061231,-0.715962
09532,NaN,9.441379,-1.980323,0.294003,-0.032648,0.275633,-0.165371,0.122872,-0.012132,-0.067838,-1.139160,0.441650,0.143066,0.094407,-0.019837,0.002934,1.000000,0.000614,-0.000061,-0.000339,0.064536,-0.692343,0.061037,-0.716080
09533,NaN,9.442736,-1.973636,0.295410,-0.032682,0.275610,-0.165370,0.130338,-0.011075,-0.065912,-1.137207,0.445801,0.146973,0.094421,-0.019769,0.002946,1.000000,0.000652,-0.000055,-0.000330,0.064755,-0.692359,0.060339,-0.716104
09534,NaN,9.415039,-1.876577,0.237499,-0.091668,0.190042,-0.211834,0.135160,-0.013879,-0.069399,-1.132812,0.439453,0.147217,0.094144,-0.018800,0.002369,1.000000,0.000676,-0.000069,-0.000347,0.064627,-0.692280,0.060072,-0.716214
09535,NaN,9.435624,-1.840784,0.262763,-0.067808,0.158379,-0.197135,0.101674,-0.011906,-0.072904,-1.135254,0.445801,0.146973,0.094349,-0.018444,0.002624,1.000000,0.000508,-0.000060,-0.000365,0.064722,-0.692310,0.059453,-0.716228
09536,NaN,9.450583,-1.845662,0.217934,-0.115092,0.166337,-0.183224,0.080543,-0.014080,-0.079236,-1.133057,0.443604,0.146973,0.094498,-0.018495,0.002179,1.000000,0.000403,-0.000070,-0.000396,0.064396,-0.692259,0.059320,-0.716318
09537,NaN,9.512880,-1.988729,0.250556,-0.085937,0.304038,-0.096058,0.072922,-0.019694,-0.073740,-1.135010,0.439453,0.145020,0.095121,-0.019923,0.002508,1.000000,0.000365,-0.000098,-0.000369,0.064392,-0.692327,0.058798,-0.716296
09538,NaN,9.513317,-2.058429,0.244276,-0.093593,0.378385,-0.083964,0.058932,-0.020547,-0.075993,-1.137207,0.443604,0.145020,0.095125,-0.020621,0.002446,1.000000,0.000295,-0.000103,-0.000380,0.064034,-0.692311,0.058726,-0.716349
09539,NaN,9.534038,-2.022346,0.267419,-0.069806,0.346664,-0.069268,0.041709,-0.022654,-0.071609,-1.141357,0.441650,0.145020,0.095333,-0.020258,0.002681,1.000000,0.000209,-0.000113,-0.000358,0.063930,-0.692399,0.058322,-0.716307
09540,NaN,9.476399,-1.924319,0.302400,-0.031600,0.265629,-0.141854,0.027714,-0.023519,-0.073838,-1.139160,0.441650,0.145020,0.094757,-0.019279,0.003032,1.000000,0.000139,-0.000118,-0.000369,0.063500,-0.692409,0.058346,-0.716333
09541,NaN,9.502872,-1.971344,0.296103,-0.037095,0.314701,-0.108150,0.016734,-0.032197,-0.076052,-1.141113,0.435303,0.145020,0.095021,-0.019750,0.002975,1.000000,0.000084,-0.000161,-0.000380,0.063296,-0.692539,0.058013,-0.716252
09542,NaN,9.489917,-2.029472,0.332743,0.001321,0.379208,-0.109894,0.005457,-0.036406,-0.060337,-1.134766,0.437256,0.145020,0.094892,-0.020323,0.003344,1.000000,0.000027,-0.000182,-0.000302,0.062861,-0.692603,0.058144,-0.716219
09543,NaN,9.414589,-2.014976,0.330499,0.004981,0.383881,-0.186865,0.024705,-0.040984,-0.065115,-1.134766,0.435303,0.145264,0.094139,-0.020181,0.003322,1.000000,0.000124,-0.000205,-0.000326,0.062726,-0.692759,0.057818,-0.716105
09544,NaN,9.415786,-2.091788,0.402048,0.078414,0.463921,-0.170443,0.034731,-0.049551,-0.060540,-1.136963,0.437256,0.149170,0.094151,-0.020947,0.004040,1.000000,0.000174,-0.000248,-0.000303,0.062411,-0.692864,0.057828,-0.716031
09545,NaN,9.466999,-2.069749,0.487459,0.166249,0.439720,-0.121220,0.061408,-0.055435,-0.056341,-1.138916,0.435303,0.147217,0.094663,-0.020726,0.004894,1.000000,0.000307,-0.000277,-0.000282,0.062440,-0.693058,0.057396,-0.715876
09546,NaN,9.575217,-2.161991,0.542332,0.219559,0.516417,0.002516,0.092352,-0.056642,-0.057580,-1.138916,0.433105,0.147217,0.095744,-0.021650,0.005440,1.000000,0.000462,-0.000283,-0.000288,0.062341,-0.693169,0.057211,-0.715792
09547,NaN,9.636771,-2.253119,0.583599,0.261002,0.601601,0.079453,0.111190,-0.054316,-0.043010,-1.139160,0.437256,0.149170,0.096361,-0.022555,0.005850,1.000000,0.000556,-0.000272,-0.000215,0.062590,-0.693339,0.056647,-0.715650
09548,NaN,9.704266,-2.144300,0.624866,0.302666,0.484999,0.128864,0.105984,-0.042218,-0.027242,-1.134766,0.437256,0.145020,0.097038,-0.021460,0.006258,1.000000,0.000530,-0.000211,-0.000136,0.062637,-0.693383,0.056537,-0.715612
09549,NaN,9.668525,-1.969473,0.591687,0.273551,0.320592,0.063126,0.084600,-0.019803,-0.003847,-1.139160,0.437256,0.149170,0.096684,-0.019699,0.005918,1.000000,0.000423,-0.000099,-0.000019,0.062923,-0.693427,0.056216,-0.715570
09550,NaN,9.640813,-1.856243,0.525820,0.208659,0.211054,0.014791,0.055883,-0.007520,0.007248,-1.139160,0.437256,0.149170,0.096409,-0.018560,0.005257,1.000000,0.000279,-0.000038,0.000036,0.062897,-0.693349,0.056431,-0.715630
09551,NaN,9.483863,-1.858715,0.454363,0.141099,0.238513,-0.141693,0.047312,0.006026,0.016244,-1.139160,0.439453,0.145020,0.094840,-0.018581,0.004536,1.000000,0.000237,0.000030,0.000081,0.063119,-0.693306,0.056321,-0.715661
09552,NaN,9.499517,-1.931483,0.480318,0.163200,0.304079,-0.113045,0.055768,0.001519,0.017580,-1.137207,0.441650,0.149170,0.094997,-0.019308,0.004797,1.000000,0.000279,0.000008,0.000088,0.063123,-0.693192,0.056580,-0.715750
09553,NaN,9.486679,-1.968719,0.435597,0.116666,0.340852,-0.120789,0.082364,0.007103,0.025029,-1.138916,0.435303,0.149170,0.094869,-0.019677,0.004344,1.000000,0.000412,0.000036,0.000125,0.063497,-0.693132,0.056375,-0.715792
