// Start Time: Unknown
// Update Rate: 100.0Hz
// Filter Profile: human (46.1)
// Firmware Version: 4.4.0
PacketCounter,SampleTimeFine,Acc_X,Acc_Y,Acc_Z,FreeAcc_X,FreeAcc_Y,FreeAcc_Z,Gyr_X,Gyr_Y,Gyr_Z,Mag_X,Mag_Y,Mag_Z,VelInc_X,VelInc_Y,VelInc_Z,OriInc_q0,OriInc_q1,OriInc_q2,OriInc_q3,Quat_q0,Quat_q1,Quat_q2,Quat_q3
11748,NaN,9.804293,0.571438,-0.208008,-0.021231,0.034976,0.010361,0.029772,-0.003122,-0.043723,-0.529541,0.084229,-0.373047,0.098044,0.005693,-0.002078,1.000000,0.000149,-0.000016,-0.000219,0.687067,-0.089299,-0.710065,-0.125589
11749,NaN,9.810389,0.597438,-0.264055,0.037812,0.038530,0.019275,0.024011,-0.006585,-0.048110,-0.525391,0.088623,-0.360352,0.098105,0.005951,-0.002637,1.000000,0.000120,-0.000033,-0.000241,0.687025,-0.089049,-0.710123,-0.125666
11750,NaN,9.816726,0.577524,-0.241159,0.007805,0.022102,0.023940,0.026145,-0.003767,-0.043852,-0.525146,0.086426,-0.377441,0.098169,0.005754,-0.002409,1.000000,0.000131,-0.000019,-0.000219,0.686996,-0.088806,-0.710172,-0.125722
11751,NaN,9.811727,0.657336,-0.212616,0.003100,0.102897,0.022793,0.006772,0.000363,-0.044258,-0.529541,0.086426,-0.362549,0.098119,0.006552,-0.002126,1.000000,0.000034,0.000002,-0.000221,0.686972,-0.088624,-0.710195,-0.125851
11752,NaN,9.801683,0.600374,-0.323466,0.090957,0.011993,0.012263,0.005902,0.000043,-0.037319,-0.527588,0.088623,-0.379639,0.098018,0.005986,-0.003235,1.000000,0.000030,0.000000,-0.000187,0.686951,-0.088472,-0.710215,-0.125959
11753,NaN,9.880655,0.512436,-0.339111,0.075377,-0.083823,0.086415,0.020938,0.004021,-0.037278,-0.525391,0.088623,-0.366699,0.098807,0.005106,-0.003393,1.000000,0.000105,0.000020,-0.000186,0.686950,-0.088261,-0.710232,-0.126018
11754,NaN,9.834850,0.548793,-0.266681,0.018326,-0.028791,0.041012,0.033917,0.006993,-0.037049,-0.531738,0.084229,-0.377441,0.098349,0.005470,-0.002669,1.000000,0.000170,0.000035,-0.000185,0.686966,-0.088009,-0.710246,-0.126028
11755,NaN,9.788682,0.630739,-0.273102,0.050183,0.046216,-0.000142,0.033986,0.008803,-0.032608,-0.531738,0.084229,-0.366699,0.097888,0.006292,-0.002734,1.000000,0.000170,0.000044,-0.000163,0.686987,-0.087769,-0.710255,-0.126024
11756,NaN,9.781832,0.658006,-0.296090,0.080190,0.062645,-0.004807,0.026275,0.007335,-0.029412,-0.527344,0.084229,-0.375244,0.097819,0.006566,-0.002964,1.000000,0.000131,0.000037,-0.000147,0.687006,-0.087570,-0.710260,-0.126035
11757,NaN,9.850345,0.640406,-0.209737,-0.010873,0.065551,0.060457,0.018062,0.003896,-0.027187,-0.527344,0.082031,-0.368896,0.098504,0.006391,-0.002099,1.000000,0.000090,0.000019,-0.000136,0.687003,-0.087403,-0.710277,-0.126071
11758,NaN,9.850182,0.642945,-0.209612,-0.010873,0.065551,0.060457,0.009847,0.000455,-0.024963,-0.527100,0.080078,-0.381592,0.098503,0.006417,-0.002096,1.000000,0.000049,0.000002,-0.000125,0.686993,-0.087281,-0.710293,-0.126122
11759,NaN,9.796265,0.605488,-0.134452,-0.092450,0.052382,0.002618,0.003051,0.000509,-0.025748,-0.525146,0.084229,-0.360352,0.097963,0.006042,-0.001345,1.000000,0.000015,0.000003,-0.000129,0.686973,-0.087169,-0.710310,-0.126209
11760,NaN,9.795133,0.636706,-0.230948,0.008154,0.050904,0.005699,-0.004224,-0.000805,-0.026023,-0.531738,0.084229,-0.377441,0.097952,0.006354,-0.002309,1.000000,-0.000021,-0.000004,-0.000130,0.686952,-0.087091,-0.710322,-0.126313
11761,NaN,9.772786,0.535407,-0.230763,-0.022149,-0.047471,-0.022667,0.005532,0.001078,-0.030877,-0.525391,0.086426,-0.366699,0.097729,0.005339,-0.002308,1.000000,0.000028,0.000005,-0.000154,0.686937,-0.086949,-0.710336,-0.126414
11762,NaN,9.791905,0.557235,-0.318072,0.065895,-0.056780,-0.000169,0.014330,0.000229,-0.034711,-0.524902,0.075684,-0.377197,0.097920,0.005556,-0.003180,1.000000,0.000072,0.000001,-0.000174,0.686922,-0.086776,-0.710360,-0.126482
11763,NaN,9.786542,0.573496,-0.227790,-0.016430,-0.017617,-0.006740,0.013193,0.000743,-0.038499,-0.531494,0.080078,-0.362305,0.097867,0.005716,-0.002278,1.000000,0.000066,0.000004,-0.000192,0.686901,-0.086585,-0.710386,-0.126576
11764,NaN,9.779584,0.601644,-0.251320,0.013578,-0.001188,-0.011401,0.010497,0.002214,-0.041132,-0.531494,0.080078,-0.377441,0.097797,0.005996,-0.002514,1.000000,0.000052,0.000011,-0.000206,0.686887,-0.086402,-0.710403,-0.126681
11765,NaN,9.772513,0.567305,-0.213209,-0.034031,-0.026391,-0.021495,0.010443,0.000404,-0.045563,-0.531738,0.084229,-0.364502,0.097726,0.005651,-0.002132,1.000000,0.000052,0.000002,-0.000228,0.686859,-0.086197,-0.710432,-0.126808
11766,NaN,9.758710,0.557429,-0.198630,-0.051479,-0.034988,-0.036250,0.011424,0.003743,-0.045102,-0.525146,0.080078,-0.379395,0.097588,0.005552,-0.001988,1.000000,0.000057,0.000019,-0.000226,0.686849,-0.085995,-0.710446,-0.126923
11767,NaN,9.758987,0.578993,-0.181079,-0.063065,-0.013600,-0.035076,0.014072,0.000464,-0.046896,-0.531738,0.082031,-0.360352,0.097591,0.005767,-0.001811,1.000000,0.000070,0.000002,-0.000234,0.686827,-0.085777,-0.710474,-0.127038
11768,NaN,9.778474,0.619538,-0.251034,0.013408,-0.001443,-0.011401,0.012920,0.000372,-0.052159,-0.527100,0.080078,-0.383789,0.097786,0.006170,-0.002510,1.000000,0.000065,0.000002,-0.000261,0.686800,-0.085547,-0.710503,-0.127171
11769,NaN,9.818757,0.605076,-0.232891,-0.011656,-0.017162,0.027430,0.009198,-0.003311,-0.059679,-0.531738,0.084229,-0.366699,0.098189,0.006022,-0.002327,1.000000,0.000046,-0.000017,-0.000298,0.686757,-0.085304,-0.710543,-0.127344
11770,NaN,9.796638,0.506892,-0.233004,-0.041849,-0.115183,-0.000943,0.011228,-0.003501,-0.062814,-0.524902,0.077881,-0.381592,0.097968,0.005038,-0.002328,1.000000,0.000056,-0.000018,-0.000314,0.686709,-0.085044,-0.710589,-0.127518
11771,NaN,9.822819,0.524799,-0.279780,0.004766,-0.119300,0.027394,0.018442,-0.004583,-0.068439,-0.527100,0.080078,-0.368652,0.098230,0.005215,-0.002795,1.000000,0.000092,-0.000023,-0.000342,0.686662,-0.084747,-0.710642,-0.127679
11772,NaN,9.809907,0.551418,-0.231028,-0.035822,-0.084965,0.014988,0.029348,-0.003182,-0.069493,-0.527100,0.075684,-0.383789,0.098101,0.005480,-0.002308,1.000000,0.000147,-0.000016,-0.000347,0.686619,-0.084402,-0.710701,-0.127812
11773,NaN,9.755811,0.580673,-0.217983,-0.039518,-0.055982,-0.037420,0.029376,-0.002574,-0.068008,-0.529785,0.088623,-0.368896,0.097560,0.005774,-0.002178,1.000000,0.000147,-0.000013,-0.000340,0.686584,-0.084077,-0.710753,-0.127922
11774,NaN,9.755151,0.649816,-0.280080,0.037947,-0.014527,-0.031991,0.033058,-0.000692,-0.064909,-0.522949,0.084229,-0.381592,0.097554,0.006467,-0.002799,1.000000,0.000165,-0.000003,-0.000325,0.686554,-0.083734,-0.710803,-0.128028
11775,NaN,9.817138,0.677861,-0.200827,-0.034212,0.026996,0.029778,0.021204,-0.005439,-0.064294,-0.527344,0.080078,-0.364502,0.098174,0.006747,-0.002005,1.000000,0.000106,-0.000027,-0.000321,0.686508,-0.083461,-0.710858,-0.128149
11776,NaN,9.774662,0.652188,-0.271992,0.025619,-0.021742,-0.012574,0.019204,-0.004642,-0.059674,-0.527100,0.077881,-0.383789,0.097749,0.006493,-0.002717,1.000000,0.000096,-0.000023,-0.000298,0.686461,-0.083186,-0.710911,-0.128284
11777,NaN,9.788100,0.609688,-0.225145,-0.034218,-0.054095,-0.003242,0.030584,-0.001855,-0.061240,-0.531494,0.080078,-0.370850,0.097883,0.006067,-0.002250,1.000000,0.000153,-0.000009,-0.000306,0.686432,-0.082883,-0.710960,-0.128365
11778,NaN,9.842348,0.627299,-0.204106,-0.053451,-0.039684,0.051517,0.041535,0.001383,-0.057868,-0.527100,0.080078,-0.377441,0.098425,0.006245,-0.002040,1.000000,0.000208,0.000007,-0.000289,0.686417,-0.082534,-0.711006,-0.128417
11779,NaN,9.841200,0.598287,-0.238509,-0.029995,-0.081946,0.049180,0.056011,0.011569,-0.051789,-0.531738,0.084229,-0.368896,0.098413,0.005958,-0.002389,1.000000,0.000280,0.000058,-0.000259,0.686457,-0.082176,-0.711016,-0.128375
11780,NaN,9.780197,0.649324,-0.247505,-0.003888,-0.036995,-0.007905,0.063239,0.021618,-0.043038,-0.522705,0.077881,-0.379395,0.097803,0.006473,-0.002484,1.000000,0.000316,0.000108,-0.000215,0.686532,-0.081793,-0.711000,-0.128307
11781,NaN,9.867562,0.714551,-0.308502,0.071187,-0.000980,0.085265,0.072103,0.033753,-0.028063,-0.533691,0.080078,-0.370850,0.098676,0.007133,-0.003099,1.000000,0.000361,0.000169,-0.000140,0.686673,-0.081457,-0.710934,-0.128130
11782,NaN,9.840962,0.784360,-0.303631,0.090617,0.066210,0.063514,0.073874,0.041301,-0.008558,-0.524902,0.080078,-0.387939,0.098409,0.007841,-0.003054,1.000000,0.000369,0.000207,-0.000043,0.686845,-0.081147,-0.710843,-0.127914
11783,NaN,9.820719,0.872785,-0.353432,0.169242,0.137622,0.050659,0.077820,0.055347,0.024029,-0.523193,0.086426,-0.375244,0.098205,0.008741,-0.003558,1.000000,0.000389,0.000277,0.000120,0.687091,-0.080956,-0.710691,-0.127555
11784,NaN,9.910036,0.981835,-0.359345,0.209237,0.237216,0.147327,0.070875,0.068587,0.059142,-0.522705,0.075684,-0.383789,0.099096,0.009849,-0.003624,1.000000,0.000354,0.000343,0.000296,0.687402,-0.080880,-0.710476,-0.127128
11785,NaN,9.754119,1.356737,-0.696376,0.655055,0.512059,0.024853,0.023042,0.076519,0.105498,-0.531494,0.080078,-0.375244,0.097531,0.013620,-0.007000,1.000000,0.000115,0.000383,0.000527,0.687736,-0.081124,-0.710197,-0.126720
11786,NaN,10.050880,2.081075,-0.432813,0.608542,1.273800,0.363043,0.012831,0.018662,0.145641,-0.525146,0.082031,-0.383789,0.100493,0.020884,-0.004336,1.000000,0.000064,0.000093,0.000728,0.687900,-0.081586,-0.710082,-0.126181
11787,NaN,10.172170,0.987963,0.224452,-0.337628,0.427348,0.395292,-0.089382,0.003413,0.183247,-0.524902,0.077881,-0.370850,0.101713,0.009974,0.002238,0.999999,-0.000447,0.000017,0.000916,0.687911,-0.082428,-0.710008,-0.125987
11788,NaN,9.989824,0.818067,0.276624,-0.422235,0.309065,0.200729,-0.146983,0.007665,0.200754,-0.527100,0.080078,-0.381592,0.099890,0.008283,0.002756,0.999999,-0.000735,0.000038,0.001004,0.688004,-0.083642,-0.709805,-0.125821
11789,NaN,9.786025,0.855965,0.019944,-0.150904,0.296085,0.005097,-0.154018,0.010624,0.210898,-0.529297,0.080078,-0.368652,0.097851,0.008663,0.000188,0.999999,-0.000770,0.000053,0.001054,0.688085,-0.084766,-0.709599,-0.125791
11790,NaN,9.872471,0.667704,-0.022136,-0.161741,0.119514,0.080316,-0.155829,-0.008309,0.222096,-0.527100,0.077881,-0.377197,0.098717,0.006786,-0.000223,0.999999,-0.000779,-0.000042,0.001110,0.688129,-0.086095,-0.709434,-0.125577
11791,NaN,9.886517,0.625180,-0.070881,-0.121917,0.080771,0.092749,-0.128967,-0.001146,0.234405,-0.536133,0.086426,-0.366699,0.098858,0.006367,-0.000712,0.999999,-0.000645,-0.000006,0.001172,0.688208,-0.087209,-0.709255,-0.125384
11792,NaN,10.054491,0.536567,-0.183495,-0.039673,-0.022858,0.257676,-0.097210,-0.007027,0.244009,-0.529541,0.082031,-0.373047,0.100538,0.005487,-0.001834,0.999999,-0.000486,-0.000035,0.001220,0.688294,-0.088413,-0.709111,-0.124886
11793,NaN,10.071046,0.410483,-0.392807,0.128572,-0.186771,0.271820,-0.067666,-0.002027,0.257484,-0.531738,0.084229,-0.353760,0.100705,0.004233,-0.003928,0.999999,-0.000338,-0.000010,0.001287,0.688408,-0.089407,-0.708962,-0.124393
11794,NaN,9.957142,0.449950,-0.520348,0.274563,-0.157559,0.163165,-0.021138,0.011725,0.267515,-0.531738,0.086426,-0.366699,0.099565,0.004632,-0.005210,0.999999,-0.000106,0.000059,0.001338,0.688606,-0.090421,-0.708788,-0.123553
11795,NaN,9.981491,0.480139,-0.439239,0.214037,-0.082979,0.187355,0.011595,0.030271,0.291295,-0.538086,0.082031,-0.353760,0.099807,0.004947,-0.004407,0.999999,0.000058,0.000151,0.001456,0.688850,-0.091284,-0.708594,-0.122668
11796,NaN,9.468788,0.113615,-0.015470,-0.269479,-0.257948,-0.350560,0.072080,0.049759,0.317806,-0.536133,0.086426,-0.364502,0.094686,0.001287,-0.000178,0.999999,0.000360,0.000249,0.001589,0.689252,-0.092131,-0.708322,-0.121341
11797,NaN,9.222741,-0.025540,0.722505,-0.995763,-0.136679,-0.616421,0.064816,0.040110,0.326361,-0.536133,0.088623,-0.351807,0.092229,-0.000107,0.007207,0.999999,0.000324,0.000201,0.001632,0.689567,-0.092923,-0.708118,-0.120130
11798,NaN,9.135686,-0.350880,0.062826,-0.449214,-0.614788,-0.701814,-0.011713,0.021411,0.292882,-0.540283,0.086426,-0.358154,0.091362,-0.003375,0.000619,0.999999,-0.000059,0.000107,0.001464,0.689811,-0.093987,-0.707903,-0.119172
11799,NaN,9.354345,0.146769,-0.459335,0.199556,-0.280868,-0.452263,-0.062914,0.017244,0.259629,-0.540283,0.084229,-0.347412,0.093541,0.001588,-0.004602,0.999999,-0.000315,0.000086,0.001298,0.689998,-0.095060,-0.707674,-0.118590
11800,NaN,9.953637,1.178231,-0.805268,0.826389,0.603931,0.190506,-0.105950,-0.024751,0.229115,-0.533936,0.086426,-0.358154,0.099524,0.011892,-0.008047,0.999999,-0.000530,-0.000124,0.001146,0.689992,-0.096250,-0.707591,-0.118163
11801,NaN,10.396146,0.968509,-0.681606,0.636975,0.448263,0.621666,-0.058178,-0.008371,0.222440,-0.538574,0.097168,-0.336914,0.103951,0.009799,-0.006815,0.999999,-0.000291,-0.000042,0.001112,0.690014,-0.097157,-0.707523,-0.117698
11802,NaN,10.062160,0.281667,0.052357,-0.252094,0.045690,0.250287,-0.102993,-0.001434,0.258130,-0.538330,0.088623,-0.351807,0.100618,0.002947,0.000523,0.999999,-0.000515,-0.000007,0.001291,0.690105,-0.098425,-0.707346,-0.117171
11803,NaN,9.900914,0.179534,-0.138494,-0.091719,-0.082066,0.090054,-0.097789,-0.018919,0.286882,-0.538330,0.090576,-0.338867,0.099007,0.001937,-0.001377,0.999999,-0.000489,-0.000095,0.001434,0.690063,-0.099719,-0.707290,-0.116662
11804,NaN,9.887701,0.166236,-0.221825,-0.008741,-0.092140,0.078462,-0.076123,-0.009802,0.292517,-0.538574,0.094971,-0.347656,0.098875,0.001806,-0.002214,0.999999,-0.000381,-0.000049,0.001463,0.690153,-0.101020,-0.707140,-0.115918
11805,NaN,9.762405,-0.021500,-0.332838,0.049454,-0.276687,-0.048635,-0.025049,-0.003731,0.306004,-0.542969,0.097168,-0.332764,0.097624,-0.000066,-0.003327,0.999999,-0.000125,-0.000019,0.001530,0.690225,-0.102118,-0.707051,-0.115062
11806,NaN,9.749203,-0.090230,-0.091807,-0.192533,-0.239281,-0.067477,0.046992,-0.017201,0.322849,-0.538574,0.092773,-0.349609,0.097493,-0.000745,-0.000910,0.999999,0.000235,-0.000086,0.001614,0.690365,-0.103105,-0.706980,-0.113774
11807,NaN,9.427678,0.585624,0.471507,-0.508842,0.607778,-0.388358,0.047969,0.013136,0.329645,-0.542969,0.097168,-0.326172,0.094267,0.006010,0.004710,0.999999,0.000240,0.000066,0.001648,0.690563,-0.104051,-0.706846,-0.112538
11808,NaN,8.873147,0.257351,0.462177,-0.578202,0.324619,-0.948556,-0.000667,-0.036809,0.303779,-0.540771,0.094971,-0.345459,0.088727,0.002708,0.004638,0.999999,-0.000003,-0.000184,0.001519,0.690593,-0.105145,-0.706824,-0.111473
11809,NaN,9.939367,-0.569075,-0.523054,0.088100,-0.740060,0.128787,-0.067854,-0.081940,0.303570,-0.538818,0.103516,-0.319824,0.099404,-0.005542,-0.005188,0.999999,-0.000339,-0.000410,0.001518,0.690456,-0.106437,-0.706887,-0.110690
11810,NaN,10.096917,0.531331,-0.920183,0.801644,0.217524,0.305946,-0.125642,0.001699,0.315172,-0.543213,0.103516,-0.339111,0.100961,0.005467,-0.009206,0.999999,-0.000628,0.000008,0.001576,0.690558,-0.107981,-0.706653,-0.110048
11811,NaN,9.567563,0.722052,-0.746406,0.715945,0.478715,-0.227546,-0.094130,0.002446,0.300863,-0.547363,0.101318,-0.319824,0.095665,0.007361,-0.007469,0.999999,-0.000471,0.000012,0.001504,0.690675,-0.109340,-0.706435,-0.109376
11812,NaN,10.467959,-0.181272,-0.495168,0.189577,-0.271916,0.663297,-0.077602,-0.018389,0.327043,-0.543213,0.105713,-0.337158,0.104683,-0.001643,-0.004941,0.999999,-0.000388,-0.000092,0.001635,0.690735,-0.110770,-0.706286,-0.108511
11813,NaN,10.421782,0.167016,-0.179553,0.007420,0.187947,0.610277,-0.111940,0.039061,0.348673,-0.545410,0.105713,-0.317871,0.104214,0.001851,-0.001817,0.999998,-0.000560,0.000195,0.001743,0.690963,-0.112324,-0.705933,-0.107763
11814,NaN,9.730964,0.053768,-0.035215,-0.136768,0.149919,-0.083633,-0.135145,0.036334,0.347731,-0.551758,0.103516,-0.326416,0.097308,0.000707,-0.000370,0.999998,-0.000676,0.000182,0.001739,0.691191,-0.113996,-0.705548,-0.107060
11815,NaN,9.950808,-0.254324,-0.064935,-0.196403,-0.117750,0.138942,-0.167443,-0.001611,0.367512,-0.552002,0.107666,-0.311523,0.099513,-0.002361,-0.000647,0.999998,-0.000837,-0.000008,0.001838,0.691259,-0.115821,-0.705280,-0.106427
11816,NaN,9.481478,0.201031,0.124077,-0.214722,0.399577,-0.339126,-0.175186,0.023895,0.363440,-0.553955,0.105713,-0.322021,0.094811,0.002184,0.001228,0.999998,-0.000876,0.000119,0.001817,0.691423,-0.117692,-0.704903,-0.105803
11817,NaN,9.553557,-0.166584,0.263195,-0.452748,0.127175,-0.265635,-0.179461,-0.033403,0.364365,-0.556396,0.112061,-0.309326,0.095538,-0.001489,0.002649,0.999998,-0.000897,-0.000167,0.001822,0.691384,-0.119560,-0.704716,-0.105207
11818,NaN,10.129158,-0.050248,-0.048832,-0.121499,0.189388,0.314207,-0.234287,-0.046555,0.382309,-0.556396,0.109863,-0.320068,0.101292,-0.000309,-0.000464,0.999997,-0.001171,-0.000233,0.001912,0.691269,-0.121738,-0.704534,-0.104684
11819,NaN,10.094791,0.423567,-0.028441,0.017969,0.681989,0.267960,-0.247461,-0.052908,0.410233,-0.558838,0.116211,-0.298828,0.100939,0.004442,-0.000263,0.999997,-0.001237,-0.000265,0.002051,0.691160,-0.124008,-0.704323,-0.104159
11820,NaN,10.064690,0.248718,-0.275869,0.204946,0.478735,0.245374,-0.278525,-0.079405,0.441386,-0.556885,0.122803,-0.307373,0.100642,0.002705,-0.002722,0.999997,-0.001393,-0.000397,0.002207,0.690925,-0.126562,-0.704186,-0.103566
11821,NaN,9.536712,0.215486,-0.196076,0.133642,0.496045,-0.285376,-0.390098,-0.070346,0.483935,-0.554688,0.122803,-0.294434,0.095362,0.002382,-0.001932,0.999995,-0.001950,-0.000352,0.002420,0.690691,-0.129555,-0.703909,-0.103312
11822,NaN,9.413880,-0.097305,-0.375686,0.209244,0.182234,-0.394907,-0.445126,-0.118904,0.482207,-0.558838,0.120605,-0.307373,0.094143,-0.000754,-0.003699,0.999994,-0.002226,-0.000595,0.002411,0.690219,-0.132847,-0.703784,-0.103136
11823,NaN,9.251634,-0.387611,-1.133705,0.833812,-0.309286,-0.526286,-0.603812,-0.081973,0.468322,-0.563721,0.131348,-0.281738,0.092530,-0.003694,-0.011288,0.999993,-0.003019,-0.000410,0.002342,0.689771,-0.136509,-0.703440,-0.103695
11824,NaN,8.802583,-0.447916,-1.095793,0.782573,-0.338786,-0.971898,-0.574710,-0.136136,0.437909,-0.565674,0.125000,-0.294678,0.088043,-0.004318,-0.010885,0.999993,-0.002874,-0.000681,0.002190,0.689113,-0.140098,-0.703318,-0.104113
11825,NaN,10.542814,-1.636988,-0.920360,0.186290,-1.264641,0.819506,-0.469020,-0.140908,0.414458,-0.567871,0.129150,-0.273193,0.105468,-0.016173,-0.009091,0.999995,-0.002345,-0.000705,0.002072,0.688449,-0.143157,-0.703321,-0.104321
11826,NaN,9.826943,-0.879521,-0.257028,-0.165455,-0.326509,0.050087,-0.398648,0.012493,0.409932,-0.567871,0.131348,-0.281982,0.098287,-0.008599,-0.002559,0.999996,-0.001993,0.000062,0.002050,0.688409,-0.145960,-0.702784,-0.104321
11827,NaN,9.895310,-0.569703,0.109056,-0.392728,0.132215,0.090937,-0.271260,-0.034843,0.388626,-0.574707,0.135498,-0.267090,0.098964,-0.005503,0.001115,0.999997,-0.001356,-0.000174,0.001943,0.688231,-0.148248,-0.702536,-0.103941
11828,NaN,10.393793,-0.675997,-0.268284,-0.068938,-0.028373,0.606246,-0.267803,0.032593,0.407888,-0.572266,0.131348,-0.281982,0.103951,-0.006552,-0.002691,0.999997,-0.001339,0.000163,0.002039,0.688347,-0.150581,-0.701991,-0.103503
11829,NaN,9.039048,0.590126,0.047102,0.109154,1.206303,-0.835625,-0.222386,0.032082,0.410186,-0.579102,0.137695,-0.264893,0.090378,0.006087,0.000450,0.999997,-0.001112,0.000160,0.002051,0.688463,-0.152741,-0.701495,-0.102924
11830,NaN,10.366373,-1.031652,-0.294883,-0.145540,-0.291426,0.603966,-0.211349,-0.097928,0.422641,-0.581055,0.135498,-0.275635,0.103687,-0.010100,-0.002887,0.999997,-0.001057,-0.000490,0.002113,0.688164,-0.154998,-0.701409,-0.102136
11831,NaN,9.865276,-1.815720,-0.659197,-0.080009,-1.148354,0.173793,-0.246541,-0.046215,0.417611,-0.581055,0.135498,-0.260498,0.098692,-0.017959,-0.006547,0.999997,-0.001233,-0.000231,0.002088,0.687992,-0.157281,-0.701150,-0.101578
11832,NaN,9.623880,-1.448202,0.155451,-0.700594,-0.493910,-0.117038,-0.147696,-0.057085,0.397871,-0.581299,0.139893,-0.273438,0.096267,-0.014289,0.001593,0.999998,-0.000738,-0.000285,0.001989,0.687866,-0.159209,-0.700967,-0.100683
11833,NaN,10.099180,-1.322842,0.412717,-0.889839,-0.205408,0.340122,-0.193300,-0.044415,0.376110,-0.581299,0.144043,-0.254395,0.101016,-0.013034,0.004162,0.999998,-0.000966,-0.000222,0.001881,0.687728,-0.161215,-0.700739,-0.100029
11834,NaN,8.821511,0.091635,-0.050896,0.066899,0.861886,-1.033016,-0.306057,-0.039107,0.375486,-0.585693,0.144043,-0.260742,0.088213,0.001081,-0.000493,0.999997,-0.001530,-0.000196,0.001877,0.687520,-0.163599,-0.700426,-0.099779
11835,NaN,9.921687,-0.671587,-0.638435,0.335518,0.077193,0.146220,-0.355666,-0.161328,0.383823,-0.583496,0.144043,-0.241455,0.099235,-0.006537,-0.006293,0.999996,-0.001778,-0.000807,0.001919,0.686862,-0.166231,-0.700479,-0.099582
11836,NaN,10.145211,-1.777775,-1.375614,0.607062,-1.157270,0.496056,-0.382286,-0.100139,0.365828,-0.587891,0.148438,-0.262939,0.101491,-0.017618,-0.013672,0.999996,-0.001911,-0.000501,0.001829,0.686363,-0.168872,-0.700336,-0.099581
11837,NaN,9.746268,-1.401880,-1.493585,0.856366,-0.858793,0.072393,-0.238437,-0.056680,0.358405,-0.588379,0.154785,-0.241699,0.097492,-0.013862,-0.014892,0.999998,-0.001192,-0.000283,0.001792,0.686118,-0.170984,-0.700129,-0.099126
11838,NaN,9.819819,-1.014139,-0.870366,0.432590,-0.226926,0.085601,-0.131016,0.007402,0.394654,-0.594238,0.144043,-0.250000,0.098218,-0.009953,-0.008701,0.999998,-0.000655,0.000037,0.001973,0.686216,-0.172808,-0.699711,-0.098237
11839,NaN,9.256969,0.081175,0.093757,-0.034164,1.119328,-0.622875,0.008720,0.038367,0.433370,-0.594482,0.148438,-0.239502,0.092568,0.001012,0.000920,0.999998,0.000044,0.000192,0.002167,0.686508,-0.174308,-0.699262,-0.096722
11840,NaN,10.233116,-0.990541,0.522365,-0.815411,0.442845,0.439605,0.034521,-0.044570,0.476198,-0.592285,0.148438,-0.252197,0.102353,-0.009663,0.005245,0.999997,0.000173,-0.000223,0.002381,0.686601,-0.175873,-0.699026,-0.094928
11841,NaN,10.167244,-1.597481,-0.034830,-0.513853,-0.284151,0.462575,-0.018641,-0.036376,0.491408,-0.598877,0.148438,-0.235107,0.101711,-0.015725,-0.000328,0.999997,-0.000093,-0.000182,0.002457,0.686662,-0.177666,-0.698734,-0.093278
11842,NaN,9.586495,-1.319714,-0.317591,-0.136449,-0.157416,-0.132821,-0.023189,-0.035559,0.493080,-0.596680,0.148438,-0.245850,0.095898,-0.012961,-0.003157,0.999997,-0.000116,-0.000178,0.002465,0.686735,-0.179481,-0.698416,-0.091635
11843,NaN,8.835683,-0.952194,-0.506025,0.183480,0.060318,-0.913555,-0.069868,-0.051603,0.497214,-0.596924,0.152588,-0.230957,0.088381,-0.009304,-0.005034,0.999997,-0.000349,-0.000258,0.002486,0.686705,-0.181488,-0.698125,-0.090115
11844,NaN,9.089264,-1.244257,-0.877695,0.428668,-0.269067,-0.610683,-0.097225,-0.116446,0.518011,-0.599121,0.154785,-0.241699,0.090930,-0.012211,-0.008718,0.999996,-0.000486,-0.000582,0.002590,0.686431,-0.183678,-0.698019,-0.088570
11845,NaN,9.696619,-1.392792,-0.208637,-0.234402,-0.021081,-0.017168,-0.050097,-0.125358,0.531630,-0.603516,0.159180,-0.226807,0.097004,-0.013671,-0.002022,0.999996,-0.000250,-0.000627,0.002658,0.686153,-0.185770,-0.697961,-0.086795
11846,NaN,10.152585,-1.489326,0.156298,-0.597111,0.146642,0.431296,-0.087377,-0.139680,0.535946,-0.599365,0.161133,-0.237549,0.101564,-0.014620,0.001640,0.999996,-0.000437,-0.000698,0.002680,0.685804,-0.187997,-0.697913,-0.085131
11847,NaN,9.756762,-1.027046,0.322047,-0.574099,0.630408,-0.033848,-0.123519,-0.152100,0.532632,-0.601562,0.165527,-0.213867,0.097592,-0.010009,0.003301,0.999996,-0.000618,-0.000760,0.002663,0.685374,-0.190351,-0.697885,-0.083581
11848,NaN,9.894847,-1.086636,0.117268,-0.402628,0.575496,0.117517,-0.162325,-0.186416,0.537857,-0.605957,0.165527,-0.231201,0.098976,-0.010599,0.001274,0.999996,-0.000812,-0.000932,0.002689,0.684781,-0.192858,-0.697952,-0.082126
11849,NaN,9.638543,-1.373401,-0.324816,-0.105583,0.162721,-0.073316,-0.198542,-0.198328,0.539878,-0.612549,0.169678,-0.207764,0.096425,-0.013477,-0.003139,0.999995,-0.000993,-0.000992,0.002699,0.684135,-0.195486,-0.698010,-0.080787
11850,NaN,9.527652,-1.746912,-0.670136,0.066582,-0.270026,-0.107054,-0.187613,-0.223866,0.540527,-0.610352,0.171875,-0.222656,0.095331,-0.017218,-0.006578,0.999995,-0.000938,-0.001119,0.002703,0.683376,-0.198101,-0.698179,-0.079374
11851,NaN,10.062950,-2.058110,-0.752455,0.026736,-0.436603,0.476790,-0.178467,-0.213299,0.532266,-0.612793,0.174072,-0.203369,0.100692,-0.020320,-0.007399,0.999995,-0.000892,-0.001066,0.002661,0.682680,-0.200639,-0.698292,-0.077971
11852,NaN,9.605373,-1.822852,-0.664917,0.028871,-0.212655,-0.015657,-0.155393,-0.196099,0.511254,-0.612793,0.176270,-0.212158,0.096106,-0.017988,-0.006541,0.999996,-0.000777,-0.000980,0.002556,0.682026,-0.203027,-0.698396,-0.076571
11853,NaN,9.967667,-2.105266,-0.442508,-0.281290,-0.263665,0.377182,-0.128041,-0.184026,0.504658,-0.617432,0.182617,-0.195068,0.099733,-0.020804,-0.004320,0.999996,-0.000640,-0.000920,0.002523,0.681455,-0.205296,-0.698450,-0.075103
11854,NaN,9.605095,-1.867268,-0.812535,0.146887,-0.205564,0.002644,-0.164107,-0.169274,0.470002,-0.606445,0.176270,-0.209961,0.096101,-0.018453,-0.008029,0.999997,-0.000821,-0.000846,0.002350,0.680860,-0.207556,-0.698491,-0.073900
11855,NaN,9.045669,-1.911354,-1.407357,0.669090,-0.533826,-0.500048,-0.181890,-0.163268,0.460621,-0.617432,0.184814,-0.186523,0.090512,-0.018918,-0.013982,0.999997,-0.000909,-0.000816,0.002303,0.680277,-0.209852,-0.698489,-0.072781
11856,NaN,9.550008,-2.601033,-1.102240,0.121336,-0.891501,0.105641,-0.215930,-0.196130,0.478425,-0.615479,0.188965,-0.199463,0.095573,-0.025794,-0.010901,0.999996,-0.001080,-0.000981,0.002392,0.679528,-0.212325,-0.698584,-0.071702
11857,NaN,9.793148,-2.314313,-1.097590,0.232685,-0.535590,0.293021,-0.153294,-0.092487,0.415424,-0.622070,0.195557,-0.182373,0.097984,-0.022948,-0.010913,0.999997,-0.000766,-0.000462,0.002077,0.679174,-0.214362,-0.698408,-0.070691
11858,NaN,9.731753,-2.268073,-0.968816,0.136044,-0.416563,0.217150,-0.141244,-0.068594,0.376652,-0.617676,0.191162,-0.193115,0.097363,-0.022504,-0.009639,0.999998,-0.000706,-0.000343,0.001883,0.678905,-0.216177,-0.698197,-0.069831
11859,NaN,9.832821,-2.556410,-0.973630,0.032495,-0.618640,0.374741,-0.134392,-0.051732,0.345726,-0.621826,0.188965,-0.175781,0.098375,-0.025401,-0.009694,0.999998,-0.000672,-0.000259,0.001729,0.678673,-0.217904,-0.697967,-0.069022
11860,NaN,9.717741,-2.525556,-0.838337,-0.074724,-0.530240,0.248571,-0.093799,-0.015476,0.307929,-0.622070,0.193359,-0.190918,0.097217,-0.025110,-0.008364,0.999999,-0.000469,-0.000077,0.001540,0.678612,-0.219298,-0.697661,-0.068287
11861,NaN,9.547957,-2.394359,-0.598451,-0.236703,-0.326014,0.040850,-0.056694,0.005417,0.272362,-0.622070,0.191162,-0.180176,0.095512,-0.023815,-0.005980,0.999999,-0.000283,0.000027,0.001362,0.678630,-0.220501,-0.697340,-0.067503
11862,NaN,9.710573,-2.524133,-0.569295,-0.303258,-0.372210,0.225242,-0.059588,0.012786,0.237571,-0.624268,0.193359,-0.188721,0.097135,-0.025128,-0.005692,0.999999,-0.000298,0.000064,0.001188,0.678679,-0.221523,-0.697025,-0.066918
11863,NaN,9.384025,-2.387460,-0.874165,0.033032,-0.420333,-0.099487,-0.075141,0.031277,0.198151,-0.622070,0.191162,-0.176025,0.093862,-0.023785,-0.008747,0.999999,-0.000376,0.000156,0.000991,0.678747,-0.222528,-0.696682,-0.066469
11864,NaN,9.424643,-2.612098,-0.949348,0.020588,-0.626528,-0.006810,-0.048374,0.033566,0.162280,-0.624268,0.195557,-0.186768,0.094266,-0.026047,-0.009503,1.000000,-0.000242,0.000168,0.000811,0.678854,-0.223243,-0.696382,-0.066124
11865,NaN,9.607322,-2.623328,-0.627882,-0.266863,-0.454817,0.152183,-0.059758,0.046071,0.130548,-0.630859,0.195557,-0.178223,0.096089,-0.026172,-0.006293,1.000000,-0.000299,0.000230,0.000653,0.678961,-0.223966,-0.696071,-0.065856
11866,NaN,9.572700,-2.528177,-0.223616,-0.592518,-0.209119,0.070806,-0.063919,0.058592,0.093595,-0.624023,0.188965,-0.193115,0.095738,-0.025238,-0.002256,1.000000,-0.000320,0.000293,0.000468,0.679114,-0.224486,-0.695756,-0.065826
11867,NaN,9.442893,-2.356446,-0.095903,-0.636992,-0.026738,-0.100644,-0.095712,0.057585,0.057771,-0.626465,0.195557,-0.178223,0.094435,-0.023538,-0.000975,1.000000,-0.000479,0.000288,0.000289,0.679208,-0.225079,-0.695463,-0.065936
11868,NaN,9.479666,-2.482088,-0.546503,-0.271340,-0.306761,-0.006783,-0.146446,0.046692,0.028975,-0.621826,0.188965,-0.195068,0.094799,-0.024811,-0.005469,1.000000,-0.000732,0.000233,0.000145,0.679205,-0.225658,-0.695234,-0.066398
11869,NaN,9.478718,-2.550993,-0.869838,-0.002200,-0.494764,0.029339,-0.134036,0.041293,-0.002487,-0.628662,0.197510,-0.178223,0.094785,-0.025517,-0.008701,1.000000,-0.000670,0.000206,-0.000012,0.679190,-0.226178,-0.695039,-0.066824
11870,NaN,9.680895,-2.713056,-0.713136,-0.206188,-0.533615,0.250200,-0.089219,0.044693,-0.027821,-0.625977,0.184814,-0.192871,0.096804,-0.027147,-0.007141,1.000000,-0.000446,0.000223,-0.000139,0.679226,-0.226366,-0.694899,-0.067279
11871,NaN,9.716456,-2.675848,-0.463464,-0.417161,-0.395550,0.259750,-0.053434,0.051200,-0.065205,-0.630615,0.193359,-0.176025,0.097155,-0.026791,-0.004652,1.000000,-0.000267,0.000256,-0.000326,0.679313,-0.226399,-0.694768,-0.067640
11872,NaN,9.528659,-2.582915,-0.404028,-0.439120,-0.340177,0.052477,-0.043346,0.044387,-0.103293,-0.626221,0.191162,-0.193115,0.095272,-0.025879,-0.004056,1.000000,-0.000217,0.000222,-0.000516,0.679373,-0.226169,-0.694730,-0.068191
11873,NaN,9.436668,-2.549095,-0.545430,-0.299767,-0.396688,-0.035222,-0.033226,0.037821,-0.136113,-0.628418,0.188965,-0.176025,0.094348,-0.025556,-0.005468,1.000000,-0.000166,0.000189,-0.000681,0.679421,-0.225897,-0.694722,-0.068701
11874,NaN,9.563682,-2.440095,-0.617926,-0.189861,-0.315286,0.069845,-0.018297,0.026745,-0.156410,-0.626221,0.188965,-0.197266,0.095617,-0.024476,-0.006190,1.000000,-0.000091,0.000134,-0.000782,0.679429,-0.225403,-0.694812,-0.069325
11875,NaN,9.685424,-2.395560,-0.577388,-0.209249,-0.245901,0.176069,0.007146,0.023008,-0.177497,-0.624268,0.191162,-0.177979,0.096832,-0.024041,-0.005786,1.000000,0.000036,0.000115,-0.000887,0.679459,-0.224859,-0.694910,-0.069814
11876,NaN,9.677393,-2.113283,-0.361739,-0.296855,0.072519,0.094650,0.009823,0.020345,-0.190558,-0.621826,0.184814,-0.199463,0.096753,-0.021225,-0.003628,1.000000,0.000049,0.000102,-0.000953,0.679464,-0.224153,-0.695069,-0.070450
11877,NaN,9.675607,-2.050096,-0.329258,-0.306232,0.126127,0.077659,0.007317,0.002670,-0.197977,-0.624023,0.186768,-0.180176,0.096736,-0.020597,-0.003295,1.000000,0.000037,0.000013,-0.000990,0.679420,-0.223539,-0.695255,-0.070988
11878,NaN,9.589550,-1.989733,-0.272408,-0.343961,0.166978,-0.022565,0.004602,-0.014828,-0.191262,-0.621826,0.184814,-0.192871,0.095877,-0.019989,-0.002717,1.000000,0.000023,-0.000074,-0.000956,0.679296,-0.222861,-0.695531,-0.071605
11879,NaN,9.581275,-1.888409,-0.395104,-0.199444,0.192295,-0.043028,-0.011634,-0.035262,-0.194380,-0.626221,0.186768,-0.175781,0.095795,-0.018977,-0.003933,1.000000,-0.000058,-0.000176,-0.000972,0.679107,-0.222327,-0.695828,-0.072163
11880,NaN,9.614245,-2.002896,-0.435145,-0.221316,0.066427,0.014888,-0.015861,-0.067648,-0.182020,-0.623779,0.182617,-0.197266,0.096126,-0.020117,-0.004317,1.000000,-0.000079,-0.000338,-0.000910,0.678779,-0.221769,-0.696264,-0.072760
11881,NaN,9.760490,-2.185485,-0.396612,-0.340467,-0.061437,0.191366,-0.011372,-0.073628,-0.183095,-0.625977,0.184814,-0.184326,0.097586,-0.021944,-0.003929,1.000000,-0.000057,-0.000368,-0.000915,0.678465,-0.221279,-0.696675,-0.073244
11882,NaN,9.818653,-2.056304,-0.283307,-0.404375,0.097407,0.214354,-0.001856,-0.068573,-0.186495,-0.621826,0.184814,-0.195068,0.098168,-0.020655,-0.002799,1.000000,-0.000009,-0.000343,-0.000932,0.678146,-0.220658,-0.697124,-0.073806
11883,NaN,9.641983,-1.992844,-0.428434,-0.261420,0.046504,0.038824,-0.018821,-0.067468,-0.194291,-0.625977,0.182617,-0.180176,0.096402,-0.020022,-0.004250,0.999999,-0.000094,-0.000337,-0.000971,0.677847,-0.220146,-0.697517,-0.074364
11884,NaN,9.704422,-2.160880,-0.749443,-0.050500,-0.234639,0.154721,-0.025948,-0.068013,-0.199456,-0.619385,0.180420,-0.199219,0.097025,-0.021707,-0.007459,0.999999,-0.000130,-0.000340,-0.000997,0.677497,-0.219561,-0.697967,-0.075055
11885,NaN,9.803930,-2.203680,-1.047552,0.193352,-0.386408,0.281067,0.009232,-0.053246,-0.207738,-0.621826,0.182617,-0.173584,0.098019,-0.022138,-0.010450,0.999999,0.000046,-0.000266,-0.001039,0.677273,-0.218899,-0.698336,-0.075579
11886,NaN,9.803583,-2.225391,-1.048995,0.174631,-0.424280,0.284463,0.093636,-0.027271,-0.217398,-0.621582,0.180420,-0.190674,0.098013,-0.022356,-0.010487,0.999999,0.000468,-0.000136,-0.001087,0.677188,-0.217830,-0.698711,-0.075958
11887,NaN,9.703723,-2.225842,-0.753283,-0.103339,-0.344051,0.165035,0.160792,-0.012664,-0.235425,-0.625977,0.180420,-0.177979,0.097011,-0.022367,-0.007545,0.999999,0.000804,-0.000063,-0.001177,0.677249,-0.216547,-0.699036,-0.076088
11888,NaN,9.628588,-2.284362,-0.479117,-0.384948,-0.324656,0.081955,0.197011,-0.000377,-0.258506,-0.621582,0.178223,-0.197021,0.096256,-0.022963,-0.004814,0.999999,0.000985,-0.000002,-0.001293,0.677352,-0.214973,-0.699402,-0.076273
11889,NaN,9.401722,-2.129160,-0.289544,-0.502982,-0.178106,-0.183318,0.198663,-0.002648,-0.285628,-0.621582,0.178223,-0.182129,0.093987,-0.021423,-0.002915,0.999998,0.000993,-0.000013,-0.001428,0.677469,-0.213384,-0.699756,-0.076448
11890,NaN,9.752155,-2.182225,-0.381927,-0.444812,-0.221402,0.175583,0.201722,-0.013507,-0.305839,-0.621094,0.169678,-0.197021,0.097488,-0.021967,-0.003835,0.999998,0.001009,-0.000068,-0.001529,0.677509,-0.211633,-0.700215,-0.076763
11891,NaN,9.781246,-2.157339,-0.442540,-0.385316,-0.244870,0.203011,0.221069,0.013022,-0.320526,-0.621338,0.174072,-0.175537,0.097777,-0.021725,-0.004456,0.999998,0.001105,0.000065,-0.001603,0.677694,-0.209839,-0.700550,-0.076992
11892,NaN,10.026312,-1.927256,-0.590695,-0.165055,-0.081604,0.412583,0.250640,-0.015338,-0.356078,-0.616943,0.169678,-0.192627,0.100229,-0.019444,-0.005924,0.999998,0.001253,-0.000077,-0.001780,0.677755,-0.207745,-0.701081,-0.077304
11893,NaN,9.824591,-1.855452,-0.495702,-0.232785,-0.049549,0.195023,0.261287,0.011381,-0.370981,-0.616943,0.167480,-0.179932,0.098211,-0.018730,-0.004987,0.999997,0.001306,0.000057,-0.001855,0.677954,-0.205636,-0.701482,-0.077562
11894,NaN,10.074084,-1.859724,-0.585662,-0.158911,-0.078528,0.446806,0.256289,0.027442,-0.371628,-0.614502,0.165527,-0.194824,0.100705,-0.018777,-0.005894,0.999997,0.001281,0.000137,-0.001858,0.678158,-0.203449,-0.701878,-0.077950
11895,NaN,10.137193,-1.836846,-0.739467,-0.012339,-0.140645,0.515112,0.248643,0.058152,-0.369268,-0.614746,0.167480,-0.177734,0.101336,-0.018546,-0.007447,0.999997,0.001243,0.000291,-0.001846,0.678504,-0.201366,-0.702106,-0.078296
11896,NaN,9.677355,-1.695148,-1.008857,0.285634,-0.233033,0.056786,0.266639,0.053453,-0.375214,-0.614502,0.165527,-0.198975,0.096739,-0.017119,-0.010137,0.999997,0.001333,0.000267,-0.001876,0.678802,-0.199120,-0.702416,-0.078686
11897,NaN,9.231955,-1.707247,-1.132448,0.393548,-0.400563,-0.372840,0.282840,0.078899,-0.364744,-0.608154,0.163330,-0.184082,0.092284,-0.017225,-0.011385,0.999997,0.001414,0.000394,-0.001824,0.679244,-0.196925,-0.702581,-0.078920
11898,NaN,8.951029,-1.474579,-1.146298,0.494367,-0.273831,-0.686361,0.295373,0.066666,-0.355498,-0.605713,0.161133,-0.201172,0.089480,-0.014888,-0.011515,0.999997,0.001477,0.000333,-0.001777,0.679617,-0.194643,-0.702829,-0.079155
11899,NaN,9.010941,-1.410840,-0.956087,0.341676,-0.162253,-0.649801,0.295012,0.045558,-0.337944,-0.612305,0.161133,-0.188232,0.090083,-0.014246,-0.009602,0.999997,0.001475,0.000228,-0.001690,0.679945,-0.192513,-0.703091,-0.079223
11900,NaN,9.208624,-1.246780,-0.820123,0.273890,0.042698,-0.488047,0.269355,0.028676,-0.305461,-0.601318,0.156982,-0.198975,0.092066,-0.012597,-0.008231,0.999998,0.001347,0.000143,-0.001527,0.680173,-0.190509,-0.703403,-0.079341
11901,NaN,9.497294,-1.040135,-0.584343,0.128868,0.342105,-0.247739,0.225641,0.024400,-0.264711,-0.603516,0.156738,-0.190186,0.094958,-0.010520,-0.005867,0.999998,0.001128,0.000122,-0.001324,0.680377,-0.188876,-0.703641,-0.079389
11902,NaN,9.732989,-0.905717,-0.600213,0.188609,0.474207,-0.032545,0.195386,0.023004,-0.224670,-0.603271,0.150391,-0.200928,0.097319,-0.009161,-0.006022,0.999999,0.000977,0.000115,-0.001123,0.680543,-0.187408,-0.703862,-0.079487
11903,NaN,9.936567,-0.736586,-0.704346,0.345078,0.605805,0.151645,0.176533,0.028877,-0.176549,-0.603516,0.154785,-0.190186,0.099358,-0.007447,-0.007064,0.999999,0.000883,0.000144,-0.000883,0.680747,-0.186237,-0.703982,-0.079424
11904,NaN,10.207497,-0.727563,-0.953738,0.577633,0.549933,0.434061,0.178199,0.032864,-0.133889,-0.601318,0.154785,-0.207520,0.102069,-0.007335,-0.009561,0.999999,0.000891,0.000164,-0.000669,0.680965,-0.185143,-0.704076,-0.079283
11905,NaN,10.244493,-0.602302,-0.891741,0.567576,0.683718,0.449767,0.180491,0.043040,-0.088406,-0.603516,0.154785,-0.183838,0.102440,-0.006060,-0.008945,0.999999,0.000902,0.000215,-0.000442,0.681249,-0.184248,-0.704075,-0.078935
11906,NaN,10.210973,-0.519019,-0.814185,0.528768,0.776616,0.400711,0.145422,0.040192,-0.039430,-0.596924,0.152588,-0.207275,0.102107,-0.005204,-0.008166,1.000000,0.000727,0.000201,-0.000197,0.681500,-0.183595,-0.704041,-0.078594
11907,NaN,10.098995,-0.797135,-0.841348,0.455915,0.492009,0.330442,0.114662,0.020056,-0.011572,-0.603271,0.150391,-0.190186,0.100989,-0.007972,-0.008428,1.000000,0.000573,0.000100,-0.000058,0.681665,-0.183186,-0.704030,-0.078213
11908,NaN,10.036890,-1.212784,-0.930638,0.390190,0.067895,0.332225,0.130329,0.005025,0.011095,-0.603027,0.146240,-0.205078,0.100369,-0.012116,-0.009317,1.000000,0.000652,0.000025,0.000055,0.681797,-0.182776,-0.704064,-0.077721
11909,NaN,10.023240,-1.606067,-0.857112,0.182502,-0.267361,0.369387,0.161885,0.010402,0.026326,-0.607422,0.146240,-0.187988,0.100234,-0.016041,-0.008589,1.000000,0.000809,0.000052,0.000132,0.681979,-0.182336,-0.704075,-0.077044
11910,NaN,9.965821,-1.742043,-1.117280,0.381177,-0.492064,0.346702,0.200824,0.013822,0.018023,-0.600830,0.144043,-0.207275,0.099659,-0.017400,-0.011197,0.999999,0.001004,0.000069,0.000090,0.682208,-0.181707,-0.704099,-0.076288
11911,NaN,10.358514,-1.312368,-0.759558,0.207370,0.093444,0.653750,0.269724,0.030453,0.016451,-0.607422,0.146240,-0.187988,0.103585,-0.013105,-0.007629,0.999999,0.001349,0.000152,0.000082,0.682547,-0.180861,-0.704096,-0.075280
11912,NaN,10.327582,-1.205412,-0.480413,-0.007332,0.286481,0.592150,0.284035,0.042952,0.013995,-0.604980,0.135498,-0.205078,0.103276,-0.012040,-0.004843,0.999999,0.001420,0.000215,0.000070,0.682950,-0.179922,-0.704053,-0.074270
11913,NaN,10.106572,-1.324421,-0.483340,-0.038679,0.142198,0.390684,0.291735,0.034572,0.005591,-0.609131,0.131104,-0.192139,0.101065,-0.013234,-0.004870,0.999999,0.001459,0.000173,0.000028,0.683317,-0.178955,-0.704053,-0.073230
11914,NaN,10.001601,-1.488103,-0.605883,0.025608,-0.069029,0.316881,0.311721,0.024978,-0.010521,-0.604736,0.131104,-0.202881,0.100014,-0.014877,-0.006095,0.999999,0.001559,0.000125,-0.000053,0.683670,-0.177841,-0.704100,-0.072191
11915,NaN,9.843934,-1.762281,-0.881039,0.195070,-0.443486,0.214783,0.342355,0.023264,-0.031048,-0.613525,0.135498,-0.192139,0.098436,-0.017623,-0.008852,0.999999,0.001712,0.000116,-0.000155,0.684026,-0.176574,-0.704185,-0.071089
11916,NaN,9.905549,-1.746473,-0.833949,0.163838,-0.407528,0.270596,0.362212,0.029468,-0.051804,-0.604736,0.126953,-0.209229,0.099050,-0.017475,-0.008386,0.999998,0.001811,0.000147,-0.000259,0.684420,-0.175139,-0.704268,-0.070016
11917,NaN,9.744603,-1.614769,-0.899180,0.276875,-0.336424,0.096069,0.352768,0.016437,-0.071427,-0.610840,0.120361,-0.189697,0.097440,-0.016167,-0.009028,0.999998,0.001764,0.000082,-0.000357,0.684739,-0.173700,-0.704414,-0.069005
11918,NaN,9.550573,-1.554145,-0.728310,0.142472,-0.259053,-0.113624,0.368116,0.025131,-0.086357,-0.614990,0.114014,-0.204834,0.095498,-0.015569,-0.007324,0.999998,0.001841,0.000126,-0.000432,0.685107,-0.172124,-0.704539,-0.068025
11919,NaN,9.219423,-1.466226,-0.647607,0.100838,-0.207009,-0.457798,0.373190,0.005808,-0.093649,-0.615234,0.122559,-0.189941,0.092187,-0.014693,-0.006506,0.999998,0.001866,0.000029,-0.000468,0.685390,-0.170543,-0.704746,-0.067006
11920,NaN,9.192923,-1.597588,-0.745334,0.151615,-0.373681,-0.460949,0.368284,-0.021537,-0.108732,-0.614746,0.109863,-0.204590,0.091921,-0.016012,-0.007473,0.999998,0.001841,-0.000108,-0.000544,0.685580,-0.168902,-0.705044,-0.066062
11921,NaN,9.083102,-1.735547,-0.817008,0.175142,-0.549694,-0.547186,0.381453,-0.026341,-0.119843,-0.616943,0.109619,-0.193848,0.090822,-0.017394,-0.008191,0.999998,0.001907,-0.000132,-0.000599,0.685741,-0.167212,-0.705383,-0.065074
11922,NaN,8.796779,-1.641753,-0.688067,0.085399,-0.471260,-0.850393,0.379571,-0.035870,-0.119122,-0.614746,0.105469,-0.204590,0.087959,-0.016457,-0.006896,0.999998,0.001898,-0.000179,-0.000596,0.685882,-0.165499,-0.705737,-0.064113
11923,NaN,8.593921,-1.617255,-0.854479,0.250438,-0.537430,-1.046298,0.369428,-0.065437,-0.119199,-0.618896,0.103271,-0.193848,0.085932,-0.016208,-0.008547,0.999998,0.001847,-0.000327,-0.000596,0.685887,-0.163870,-0.706202,-0.063126
11924,NaN,8.444898,-1.691837,-0.877868,0.247322,-0.643031,-1.182820,0.366973,-0.076281,-0.117924,-0.620850,0.101318,-0.208740,0.084442,-0.016952,-0.008778,0.999998,0.001835,-0.000381,-0.000590,0.685870,-0.162216,-0.706684,-0.062172
11925,NaN,8.455853,-1.598452,-0.759130,0.159863,-0.521691,-1.190910,0.369089,-0.101264,-0.112027,-0.620850,0.094727,-0.191650,0.084553,-0.016018,-0.007578,0.999998,0.001845,-0.000506,-0.000560,0.685741,-0.160630,-0.707263,-0.061126
11926,NaN,8.566836,-1.699913,-0.892285,0.248266,-0.647133,-1.060765,0.342668,-0.122293,-0.107745,-0.620361,0.088379,-0.210693,0.085665,-0.017030,-0.008900,0.999998,0.001713,-0.000611,-0.000539,0.685540,-0.159108,-0.707883,-0.060185
11927,NaN,8.416822,-1.574598,-0.802207,0.195799,-0.526237,-1.230699,0.340235,-0.115103,-0.101828,-0.620605,0.092529,-0.197998,0.084165,-0.015775,-0.008000,0.999998,0.001701,-0.000576,-0.000509,0.685333,-0.157666,-0.708489,-0.059189
11928,NaN,8.523480,-1.424499,-0.663502,0.100920,-0.331361,-1.152482,0.313298,-0.135247,-0.083679,-0.620605,0.090576,-0.215088,0.085233,-0.014270,-0.006600,0.999998,0.001566,-0.000676,-0.000418,0.685065,-0.156333,-0.709120,-0.058259
11929,NaN,8.778460,-1.558111,-0.670162,0.054236,-0.424026,-0.882098,0.264241,-0.144640,-0.069840,-0.614014,0.086182,-0.199951,0.087784,-0.015603,-0.006659,0.999999,0.001321,-0.000723,-0.000349,0.684698,-0.155276,-0.709778,-0.057397
11930,NaN,8.983812,-1.376760,-0.487003,-0.078453,-0.170840,-0.712898,0.247804,-0.125740,-0.050474,-0.624756,0.086182,-0.221436,0.089838,-0.013784,-0.004831,0.999999,0.001239,-0.000629,-0.000252,0.684419,-0.154281,-0.710328,-0.056592
11931,NaN,9.137591,-1.057753,-0.253232,-0.219015,0.222364,-0.615888,0.199611,-0.122712,-0.027858,-0.620605,0.092529,-0.210938,0.091376,-0.010588,-0.002487,0.999999,0.000998,-0.000614,-0.000139,0.684089,-0.153589,-0.710855,-0.055830
11932,NaN,9.547507,-0.958550,-0.080830,-0.371508,0.426368,-0.233521,0.126661,-0.126868,-0.000026,-0.620361,0.088379,-0.225830,0.095476,-0.009585,-0.000754,1.000000,0.000633,-0.000634,-0.000000,0.683726,-0.153188,-0.711334,-0.055282
11933,NaN,9.816105,-1.005417,0.232470,-0.699371,0.516168,0.019162,0.062615,-0.100248,0.028902,-0.622803,0.096924,-0.215332,0.098161,-0.010041,0.002371,1.000000,0.000313,-0.000501,0.000145,0.683392,-0.153153,-0.711697,-0.054836
11934,NaN,10.055941,-0.926809,0.534003,-0.976399,0.717377,0.227138,0.000540,-0.075105,0.044312,-0.622803,0.092773,-0.230225,0.100559,-0.009246,0.005378,1.000000,0.000003,-0.000376,0.000222,0.683127,-0.153326,-0.711930,-0.054625
11935,NaN,10.209161,-0.860008,0.661120,-1.086064,0.847191,0.361122,-0.077593,-0.041850,0.055155,-0.627197,0.094727,-0.215088,0.102093,-0.008569,0.006636,1.000000,-0.000388,-0.000209,0.000276,0.682914,-0.153838,-0.712023,-0.054640
11936,NaN,10.336755,-0.773568,0.741322,-1.141514,0.978568,0.470105,-0.157061,-0.011270,0.070756,-0.622803,0.092773,-0.230225,0.103370,-0.007693,0.007425,1.000000,-0.000785,-0.000056,0.000354,0.682763,-0.154626,-0.711974,-0.054949
11937,NaN,10.475951,-0.775688,0.731233,-1.133878,1.004300,0.607851,-0.233507,0.008960,0.085906,-0.620850,0.096924,-0.223877,0.104763,-0.007703,0.007317,0.999999,-0.001168,0.000045,0.000430,0.682635,-0.155752,-0.711811,-0.055463
11938,NaN,10.576651,-0.900258,0.192268,-0.656929,0.754512,0.756709,-0.298407,0.007831,0.091717,-0.623047,0.101318,-0.236816,0.105771,-0.008951,0.001932,0.999999,-0.001492,0.000039,0.000459,0.682445,-0.157092,-0.711639,-0.056217
11939,NaN,10.538309,-1.003442,-0.157745,-0.351075,0.558923,0.753867,-0.313170,0.024601,0.099717,-0.621094,0.103271,-0.217529,0.105388,-0.009984,-0.001575,0.999999,-0.001566,0.000123,0.000499,0.682326,-0.158523,-0.711375,-0.056990
11940,NaN,10.324735,-1.056309,-0.613598,0.072361,0.352075,0.577848,-0.336616,0.008531,0.118203,-0.623047,0.101318,-0.230225,0.103253,-0.010512,-0.006123,0.999998,-0.001683,0.000043,0.000591,0.682112,-0.160086,-0.711165,-0.057790
11941,NaN,10.364449,-1.259228,-1.163923,0.532626,0.012252,0.679135,-0.319732,-0.015236,0.124484,-0.616943,0.107666,-0.208984,0.103653,-0.012546,-0.011611,0.999999,-0.001599,-0.000076,0.000622,0.681850,-0.161631,-0.711011,-0.058474
11942,NaN,10.407734,-1.363652,-1.636806,0.946860,-0.212726,0.766434,-0.237284,-0.010394,0.123509,-0.621094,0.109863,-0.234619,0.104087,-0.013592,-0.016347,0.999999,-0.001186,-0.000052,0.000618,0.681647,-0.162879,-0.710886,-0.058888
11943,NaN,10.332183,-1.579104,-1.394595,0.650961,-0.341381,0.706446,-0.146778,-0.002035,0.130199,-0.621094,0.109863,-0.215332,0.103332,-0.015734,-0.013933,1.000000,-0.000734,-0.000010,0.000651,0.681562,-0.163851,-0.710740,-0.058950
11944,NaN,10.008234,-1.621989,-1.316469,0.571863,-0.395711,0.387560,-0.043061,0.023898,0.124494,-0.623291,0.107666,-0.230469,0.100091,-0.016160,-0.013173,1.000000,-0.000215,0.000119,0.000622,0.681638,-0.164431,-0.710554,-0.058698
11945,NaN,9.857867,-1.587166,-0.909511,0.206662,-0.250130,0.208219,0.040452,0.061808,0.123155,-0.621338,0.116211,-0.211182,0.098586,-0.015809,-0.009129,1.000000,0.000202,0.000309,0.000616,0.681921,-0.164724,-0.710258,-0.058169
11946,NaN,9.605122,-1.488897,-0.599994,-0.042453,-0.092566,-0.074885,0.050051,0.066546,0.114515,-0.619141,0.109863,-0.226074,0.096058,-0.014832,-0.006036,1.000000,0.000250,0.000333,0.000573,0.682222,-0.164938,-0.709961,-0.057655
11947,NaN,9.498477,-1.563594,-0.471793,-0.175905,-0.131206,-0.177319,0.052293,0.066864,0.109188,-0.623535,0.112061,-0.217529,0.094992,-0.015583,-0.004754,1.000000,0.000261,0.000334,0.000546,0.682526,-0.165141,-0.709663,-0.057136
11948,NaN,9.350790,-1.625767,-0.378378,-0.272691,-0.176179,-0.319629,0.037511,0.060811,0.105721,-0.621094,0.107666,-0.232422,0.093515,-0.016208,-0.003815,1.000000,0.000188,0.000304,0.000529,0.682794,-0.165368,-0.709389,-0.056691
11949,NaN,9.331164,-1.621791,-0.381355,-0.260106,-0.167947,-0.339019,0.020413,0.045688,0.107863,-0.621338,0.116211,-0.213379,0.093319,-0.016167,-0.003837,1.000000,0.000102,0.000228,0.000539,0.682998,-0.165682,-0.709153,-0.056270
11950,NaN,9.394917,-1.544529,-0.442495,-0.172357,-0.095444,-0.283416,-0.000718,0.029097,0.106855,-0.623291,0.112061,-0.234619,0.093957,-0.015395,-0.004439,1.000000,-0.000004,0.000145,0.000534,0.683120,-0.166052,-0.708975,-0.055931
11951,NaN,9.494900,-1.562508,-0.459430,-0.158024,-0.092342,-0.180859,-0.024381,0.018696,0.101221,-0.621338,0.112061,-0.215332,0.094956,-0.015578,-0.004601,1.000000,-0.000122,0.000093,0.000506,0.683191,-0.166504,-0.708821,-0.055667
11952,NaN,9.641958,-1.558393,-0.612393,-0.009638,-0.103069,-0.026971,-0.038966,0.008941,0.097579,-0.623535,0.114014,-0.232666,0.096427,-0.015538,-0.006125,1.000000,-0.000195,0.000045,0.000488,0.683208,-0.166978,-0.708708,-0.055479
11953,NaN,9.853067,-1.539239,-0.524718,-0.086307,-0.015063,0.173295,-0.032029,0.003367,0.091475,-0.623535,0.116211,-0.215576,0.098538,-0.015348,-0.005246,1.000000,-0.000160,0.000017,0.000457,0.683215,-0.167426,-0.708612,-0.055262
11954,NaN,9.964726,-1.548946,-0.485298,-0.125457,0.014083,0.282587,-0.030772,0.009340,0.081810,-0.623291,0.112061,-0.230469,0.099653,-0.015449,-0.004855,1.000000,-0.000154,0.000047,0.000409,0.683236,-0.167816,-0.708513,-0.055099
11955,NaN,10.042685,-1.555263,-0.439018,-0.169047,0.042841,0.357696,-0.028782,0.013375,0.076598,-0.617188,0.118408,-0.221924,0.100433,-0.015515,-0.004395,1.000000,-0.000144,0.000067,0.000383,0.683278,-0.168197,-0.708395,-0.054930
11956,NaN,10.007807,-1.559489,-0.431625,-0.174097,0.041978,0.323507,-0.030236,0.017254,0.067698,-0.621582,0.118408,-0.232666,0.100083,-0.015562,-0.004323,1.000000,-0.000151,0.000086,0.000338,0.683322,-0.168533,-0.708281,-0.054820
11957,NaN,9.947644,-1.618458,-0.534541,-0.090838,-0.049329,0.279393,-0.022696,0.024508,0.050651,-0.623535,0.114014,-0.213379,0.099480,-0.016160,-0.005356,1.000000,-0.000113,0.000123,0.000253,0.683403,-0.168797,-0.708147,-0.054729
11958,NaN,9.836228,-1.646781,-0.548283,-0.082253,-0.094881,0.174710,-0.014081,0.031015,0.041129,-0.623535,0.116211,-0.230469,0.098365,-0.016448,-0.005497,1.000000,-0.000070,0.000155,0.000206,0.683503,-0.168979,-0.708013,-0.054663
11959,NaN,9.693024,-1.708659,-0.622445,-0.025911,-0.196608,0.047452,0.004484,0.035221,0.027773,-0.617188,0.118408,-0.215576,0.096932,-0.017073,-0.006242,1.000000,0.000022,0.000176,0.000139,0.683639,-0.169067,-0.707868,-0.054563
11960,NaN,9.625240,-1.704961,-0.605999,-0.035717,-0.198354,-0.020918,0.021673,0.040541,0.015646,-0.623535,0.116211,-0.232666,0.096253,-0.017041,-0.006081,1.000000,0.000108,0.000203,0.000078,0.683795,-0.169034,-0.707733,-0.054466
11961,NaN,9.564173,-1.721727,-0.638864,-0.004596,-0.233897,-0.076612,0.031651,0.042082,0.008360,-0.623535,0.116211,-0.219727,0.095641,-0.017212,-0.006411,1.000000,0.000158,0.000210,0.000042,0.683972,-0.168960,-0.707589,-0.054340
11962,NaN,9.517235,-1.688916,-0.619150,-0.008589,-0.205526,-0.129133,0.035454,0.037534,0.001615,-0.625732,0.114258,-0.234863,0.095171,-0.016887,-0.006212,1.000000,0.000177,0.000188,0.000008,0.684126,-0.168831,-0.707479,-0.054240
11963,NaN,9.551987,-1.612401,-0.559986,-0.037452,-0.110477,-0.110096,0.035210,0.027682,-0.004821,-0.623779,0.118408,-0.213379,0.095519,-0.016125,-0.005616,1.000000,0.000176,0.000138,-0.000024,0.684251,-0.168704,-0.707397,-0.054133
11964,NaN,9.651802,-1.582967,-0.508622,-0.075564,-0.052067,-0.019152,0.024668,0.018938,-0.010508,-0.627686,0.114258,-0.236816,0.096517,-0.015834,-0.005097,1.000000,0.000123,0.000095,-0.000053,0.684326,-0.168574,-0.707357,-0.054097
11965,NaN,9.640790,-1.577089,-0.474414,-0.104454,-0.038717,-0.032876,0.020792,0.014234,-0.008663,-0.617188,0.120605,-0.215576,0.096407,-0.015775,-0.004753,1.000000,0.000104,0.000071,-0.000043,0.684390,-0.168486,-0.707321,-0.054043
11966,NaN,9.688213,-1.597380,-0.397934,-0.183158,-0.027740,0.012644,0.011970,0.005565,-0.012506,-0.623535,0.116211,-0.234863,0.096881,-0.015980,-0.003983,1.000000,0.000060,0.000028,-0.000063,0.684407,-0.168396,-0.707325,-0.054047
11967,NaN,9.720247,-1.573511,-0.426757,-0.148263,-0.009888,0.042219,0.016112,0.002210,-0.016179,-0.623535,0.118408,-0.224121,0.097201,-0.015743,-0.004270,1.000000,0.000081,0.000011,-0.000081,0.684423,-0.168300,-0.707334,-0.054025
11968,NaN,9.772835,-1.509951,-0.362562,-0.190110,0.076875,0.080626,0.022631,-0.002515,-0.008400,-0.621338,0.114014,-0.234863,0.097728,-0.015103,-0.003626,1.000000,0.000113,-0.000013,-0.000042,0.684421,-0.168191,-0.707366,-0.053971
11969,NaN,9.777505,-1.505149,-0.435802,-0.119388,0.059546,0.088687,0.021516,-0.009457,-0.009003,-0.621582,0.122559,-0.219971,0.097775,-0.015055,-0.004355,1.000000,0.000108,-0.000047,-0.000045,0.684405,-0.168104,-0.707408,-0.053896
11970,NaN,9.813453,-1.532977,-0.419514,-0.144910,0.044027,0.127480,0.030411,-0.013285,-0.005059,-0.623291,0.112061,-0.234619,0.098134,-0.015332,-0.004191,1.000000,0.000152,-0.000066,-0.000025,0.684372,-0.167983,-0.707476,-0.053794
11971,NaN,9.759618,-1.490065,-0.446007,-0.106869,0.067811,0.069283,0.029250,-0.015897,-0.003978,-0.621582,0.120605,-0.219971,0.097596,-0.014902,-0.004454,1.000000,0.000146,-0.000079,-0.000020,0.684342,-0.167888,-0.707538,-0.053670
11972,NaN,9.745649,-1.539065,-0.499646,-0.072382,0.003438,0.066118,0.027459,-0.015484,-0.000678,-0.621338,0.114014,-0.232666,0.097457,-0.015390,-0.004991,1.000000,0.000137,-0.000077,-0.000003,0.684300,-0.167794,-0.707609,-0.053562
11973,NaN,9.689132,-1.538398,-0.520817,-0.052762,-0.010700,0.011482,0.024965,-0.021308,-0.000052,-0.623779,0.124756,-0.222168,0.096892,-0.015383,-0.005200,1.000000,0.000125,-0.000107,-0.000000,0.684248,-0.167728,-0.707684,-0.053436
11974,NaN,9.627942,-1.554058,-0.559892,-0.021997,-0.046737,-0.044209,0.018980,-0.022960,-0.001440,-0.619141,0.112061,-0.234619,0.096280,-0.015541,-0.005589,1.000000,0.000095,-0.000115,-0.000007,0.684173,-0.167661,-0.707779,-0.053353
11975,NaN,9.623075,-1.570911,-0.579681,-0.010244,-0.067759,-0.045258,0.018697,-0.030741,0.009105,-0.621582,0.122559,-0.219971,0.096232,-0.015704,-0.005783,1.000000,0.000093,-0.000154,0.000046,0.684084,-0.167651,-0.707877,-0.053211
11976,NaN,9.618125,-1.588019,-0.599956,0.001077,-0.089203,-0.046310,0.012952,-0.032287,0.004110,-0.619385,0.118408,-0.245605,0.096183,-0.015878,-0.005985,1.000000,0.000065,-0.000161,0.000021,0.683972,-0.167627,-0.707998,-0.053123
11977,NaN,9.694848,-1.561683,-0.580371,-0.012415,-0.044034,0.024165,0.011573,-0.031167,0.005336,-0.623535,0.116211,-0.213379,0.096950,-0.015614,-0.005790,1.000000,0.000058,-0.000156,0.000027,0.683875,-0.167629,-0.708099,-0.053018
11978,NaN,9.712525,-1.576571,-0.574714,-0.025308,-0.051779,0.043564,0.014851,-0.031606,0.007495,-0.621338,0.116211,-0.230469,0.097127,-0.015762,-0.005733,1.000000,0.000074,-0.000158,0.000037,0.683768,-0.167610,-0.708215,-0.052912
11979,NaN,9.723717,-1.569958,-0.519116,-0.078354,-0.024833,0.050282,0.016596,-0.027689,0.005874,-0.621338,0.116211,-0.217529,0.097238,-0.015696,-0.005179,1.000000,0.000083,-0.000138,0.000029,0.683687,-0.167595,-0.708306,-0.052791
11980,NaN,9.737227,-1.534051,-0.559393,-0.031218,0.000281,0.060450,0.016551,-0.023358,0.007551,-0.623535,0.114014,-0.232666,0.097374,-0.015336,-0.005584,1.000000,0.000083,-0.000117,0.000038,0.683610,-0.167569,-0.708394,-0.052686
11981,NaN,9.736522,-1.601974,-0.532465,-0.079516,-0.053605,0.068633,0.015629,-0.025864,0.005026,-0.617188,0.120605,-0.215576,0.097366,-0.016017,-0.005313,1.000000,0.000078,-0.000129,0.000025,0.683535,-0.167554,-0.708479,-0.052572
11982,NaN,9.705067,-1.557920,-0.533881,-0.066119,-0.016593,0.030880,0.020022,-0.019360,0.007774,-0.625732,0.114014,-0.230469,0.097052,-0.015575,-0.005331,1.000000,0.000100,-0.000097,0.000039,0.683475,-0.167515,-0.708554,-0.052458
11983,NaN,9.700135,-1.575074,-0.553288,-0.054384,-0.037626,0.029834,0.018737,-0.026903,0.005653,-0.623779,0.122559,-0.213379,0.097003,-0.015747,-0.005521,1.000000,0.000094,-0.000135,0.000028,0.683399,-0.167491,-0.708642,-0.052330
11984,NaN,9.672550,-1.594173,-0.598819,-0.018849,-0.072768,0.008338,0.018756,-0.023068,0.002183,-0.621582,0.118408,-0.230469,0.096726,-0.015940,-0.005979,1.000000,0.000094,-0.000115,0.000011,0.683324,-0.167439,-0.708734,-0.052236
11985,NaN,9.663807,-1.547611,-0.574464,-0.029256,-0.021650,-0.008966,0.014084,-0.025343,0.004725,-0.621582,0.122559,-0.211426,0.096639,-0.015473,-0.005733,1.000000,0.000070,-0.000127,0.000024,0.683249,-0.167427,-0.708817,-0.052130
11986,NaN,9.665688,-1.573612,-0.553782,-0.059535,-0.038058,-0.004351,0.012565,-0.032989,0.006218,-0.619385,0.120605,-0.234863,0.096658,-0.015733,-0.005523,1.000000,0.000063,-0.000165,0.000031,0.683135,-0.167412,-0.708938,-0.052036
11987,NaN,9.676514,-1.579470,-0.589090,-0.030419,-0.050430,0.009390,0.008881,-0.033254,0.006143,-0.625977,0.122559,-0.213379,0.096767,-0.015791,-0.005876,1.000000,0.000044,-0.000166,0.000031,0.683027,-0.167425,-0.709045,-0.051937
11988,NaN,9.649271,-1.586145,-0.545413,-0.077048,-0.046282,-0.019135,0.004258,-0.039860,0.007018,-0.621582,0.124756,-0.228516,0.096494,-0.015858,-0.005435,1.000000,0.000021,-0.000199,0.000035,0.682882,-0.167443,-0.709186,-0.051863
11989,NaN,9.689090,-1.611327,-0.605482,-0.031582,-0.079211,0.027749,0.001202,-0.043153,0.004732,-0.621338,0.116211,-0.211182,0.096893,-0.016111,-0.006034,1.000000,0.000006,-0.000216,0.000024,0.682733,-0.167480,-0.709327,-0.051788
11990,NaN,9.670809,-1.597406,-0.618020,-0.019221,-0.071427,0.008347,0.002017,-0.041745,0.000581,-0.623535,0.116211,-0.230469,0.096709,-0.015974,-0.006160,1.000000,0.000010,-0.000209,0.000003,0.682577,-0.167483,-0.709479,-0.051743
11991,NaN,9.665786,-1.613930,-0.639312,-0.007499,-0.092464,0.007308,0.004907,-0.039053,0.001339,-0.621582,0.122559,-0.207031,0.096659,-0.016138,-0.006375,1.000000,0.000025,-0.000195,0.000007,0.682444,-0.167494,-0.709610,-0.051669
11992,NaN,9.665529,-1.614012,-0.642983,-0.007763,-0.092441,0.007308,0.006869,-0.038869,-0.000426,-0.625977,0.120605,-0.226318,0.096657,-0.016140,-0.006412,1.000000,0.000034,-0.000194,-0.000002,0.682302,-0.167477,-0.709754,-0.051613
11993,NaN,9.667522,-1.639163,-0.623255,-0.037654,-0.108436,0.011930,0.012747,-0.038317,-0.005729,-0.628174,0.124756,-0.213623,0.096676,-0.016394,-0.006215,1.000000,0.000064,-0.000192,-0.000029,0.682176,-0.167436,-0.709891,-0.051536
11994,NaN,9.680961,-1.602178,-0.664840,0.009483,-0.083311,0.022096,0.015058,-0.036930,-0.004429,-0.617188,0.116211,-0.230469,0.096810,-0.016023,-0.006632,1.000000,0.000075,-0.000185,-0.000022,0.682047,-0.167376,-0.710034,-0.051466
11995,NaN,9.710579,-1.608492,-0.601489,-0.056222,-0.064131,0.048200,0.010977,-0.034066,-0.005897,-0.623779,0.124756,-0.213379,0.097106,-0.016087,-0.005999,1.000000,0.000055,-0.000170,-0.000029,0.681934,-0.167340,-0.710156,-0.051399
11996,NaN,9.706807,-1.544677,-0.560698,-0.078629,0.008040,0.031919,0.009777,-0.032343,-0.003137,-0.623779,0.122803,-0.234863,0.097069,-0.015448,-0.005592,1.000000,0.000049,-0.000162,-0.000016,0.681817,-0.167301,-0.710281,-0.051347
11997,NaN,9.680517,-1.601020,-0.674028,0.009451,-0.082404,0.022104,0.007073,-0.030600,-0.005830,-0.625977,0.120605,-0.213379,0.096806,-0.016013,-0.006726,1.000000,0.000035,-0.000153,-0.000029,0.681714,-0.167278,-0.710390,-0.051297
11998,NaN,9.726024,-1.595983,-0.625100,-0.039246,-0.054970,0.062985,0.009786,-0.028510,-0.006611,-0.623535,0.118408,-0.230469,0.097261,-0.015963,-0.006238,1.000000,0.000049,-0.000143,-0.000033,0.681609,-0.167226,-0.710505,-0.051260
11999,NaN,9.721505,-1.544537,-0.673970,0.020888,-0.021667,0.053750,0.004502,-0.020092,-0.008801,-0.628174,0.120605,-0.211426,0.097215,-0.015449,-0.006730,1.000000,0.000023,-0.000100,-0.000044,0.681540,-0.167197,-0.710579,-0.051238
12000,NaN,9.703151,-1.596973,-0.655037,-0.015184,-0.068209,0.042547,0.006007,-0.020110,-0.003349,-0.623535,0.118408,-0.226318,0.097032,-0.015971,-0.006541,1.000000,0.000030,-0.000101,-0.000017,0.681463,-0.167168,-0.710662,-0.051210
12001,NaN,9.700890,-1.571103,-0.679649,0.014925,-0.051338,0.037932,0.009074,-0.009153,-0.008026,-0.621826,0.124756,-0.209229,0.097009,-0.015715,-0.006793,1.000000,0.000045,-0.000046,-0.000040,0.681436,-0.167124,-0.710701,-0.051179
12002,NaN,9.700941,-1.570530,-0.680251,0.014663,-0.051313,0.037932,0.003383,-0.005270,-0.004660,-0.623779,0.120605,-0.232666,0.097009,-0.015707,-0.006800,1.000000,0.000017,-0.000026,-0.000023,0.681409,-0.167095,-0.710733,-0.051177
12003,NaN,9.660141,-1.558238,-0.714769,0.051593,-0.056824,-0.001906,0.006269,-0.002578,-0.003912,-0.621582,0.122559,-0.211426,0.096601,-0.015584,-0.007147,1.000000,0.000031,-0.000013,-0.000020,0.681404,-0.167073,-0.710746,-0.051147
12004,NaN,9.675687,-1.613798,-0.700460,0.020283,-0.102448,0.021081,0.005869,0.000551,-0.005313,-0.623535,0.116211,-0.228271,0.096756,-0.016140,-0.007005,1.000000,0.000029,0.000003,-0.000027,0.681400,-0.167032,-0.710759,-0.051144
