// Start Time: Unknown
// Update Rate: 100.0Hz
// Filter Profile: human (46.1)
// Firmware Version: 4.4.0
PacketCounter,SampleTimeFine,Acc_X,Acc_Y,Acc_Z,FreeAcc_X,FreeAcc_Y,FreeAcc_Z,Gyr_X,Gyr_Y,Gyr_Z,Mag_X,Mag_Y,Mag_Z,VelInc_X,VelInc_Y,VelInc_Z,OriInc_q0,OriInc_q1,OriInc_q2,OriInc_q3,Quat_q0,Quat_q1,Quat_q2,Quat_q3
21180,NaN,9.229308,-0.897597,0.405624,0.000000,-0.000000,-0.531040,-0.836699,0.590901,1.238511,-1.055908,-0.086914,-0.058105,0.092358,-0.008388,0.003819,0.999968,-0.004183,0.002954,0.006192,0.513218,0.440134,-0.534516,0.507131
21181,NaN,8.847820,-1.058422,0.343616,0.000000,0.000000,-0.895236,-0.911683,0.580910,1.290506,-1.060791,-0.067871,-0.062500,0.088554,-0.009998,0.003225,0.999965,-0.004558,0.002905,0.006452,0.518665,0.422174,-0.551075,0.499071
21182,NaN,8.484105,-1.376338,0.271310,0.509361,-0.027863,-1.228604,-0.896617,0.574015,1.324271,-1.056885,-0.057129,-0.072998,0.084937,-0.013190,0.002529,0.999964,-0.004483,0.002870,0.006621,0.527763,0.414407,-0.554739,0.491932
21183,NaN,8.319798,-1.883640,0.567944,0.859962,-0.362051,-1.314582,-0.781131,0.555868,1.347879,-1.059570,-0.035889,-0.077393,0.083338,-0.018253,0.005520,0.999966,-0.003906,0.002779,0.006739,0.527590,0.407226,-0.557967,0.494457
21184,NaN,8.316220,-1.929163,0.616559,0.778242,-0.352396,-1.296219,-0.662078,0.516589,1.345296,-1.057861,-0.025391,-0.077637,0.083305,-0.018712,0.006013,0.999969,-0.003310,0.002583,0.006726,0.527182,0.399788,-0.560830,0.497713
21185,NaN,8.453734,-1.991648,0.503728,0.734624,-0.188612,-1.146111,-0.506324,0.508477,1.311499,-1.062744,-0.010498,-0.083984,0.084678,-0.019349,0.004872,0.999972,-0.002532,0.002542,0.006557,0.526341,0.393499,-0.563356,0.500753
21186,NaN,8.281088,-2.302428,0.600955,0.928736,-0.315740,-1.252586,-0.300442,0.539638,1.263343,-1.056641,0.002441,-0.094482,0.082970,-0.022492,0.005820,0.999975,-0.001502,0.002698,0.006317,0.524475,0.388244,-0.565802,0.504044
21187,NaN,7.965225,-2.589987,0.788748,1.120680,-0.522284,-1.491314,-0.092737,0.525469,1.199458,-1.059326,0.019287,-0.100830,0.079826,-0.025418,0.007690,0.999978,-0.000464,0.002627,0.005997,0.523108,0.383275,-0.566974,0.507936
21188,NaN,7.723520,-2.235030,0.868275,0.703022,-0.486400,-1.770898,0.037909,0.514163,1.117669,-1.057617,0.030029,-0.105225,0.077380,-0.021920,0.008480,0.999981,0.000190,0.002571,0.005588,0.521301,0.378347,-0.567653,0.512707
21189,NaN,7.421526,-1.935435,1.049302,0.355008,-0.579421,-2.101426,0.196627,0.538044,1.037062,-1.053711,0.040527,-0.109375,0.074342,-0.018979,0.010274,0.999982,0.000983,0.002690,0.005185,0.519788,0.374530,-0.567699,0.516977
21190,NaN,7.166056,-2.473159,1.374853,0.779685,-0.954991,-2.207521,0.421828,0.548670,0.967296,-1.056152,0.044922,-0.117676,0.071816,-0.024413,0.013500,0.999982,0.002109,0.002743,0.004836,0.517387,0.371228,-0.566843,0.522675
21191,NaN,7.100215,-2.901739,1.368367,1.153289,-0.965787,-2.167942,0.655045,0.550009,0.895972,-1.048096,0.057617,-0.125977,0.071168,-0.028743,0.013394,0.999981,0.003275,0.002750,0.004480,0.515378,0.368939,-0.565361,0.527861
21192,NaN,6.997599,-2.842713,1.337299,1.066311,-0.845513,-2.263963,0.867273,0.580680,0.845950,-1.048340,0.066162,-0.126221,0.070134,-0.028188,0.013047,0.999977,0.004336,0.002903,0.004230,0.512062,0.367109,-0.562455,0.535414
21193,NaN,6.961438,-2.476067,1.350501,0.681608,-0.729889,-2.368329,0.991811,0.609885,0.799961,-1.046387,0.070312,-0.134521,0.069753,-0.024548,0.013170,0.999975,0.004959,0.003049,0.004000,0.509803,0.365757,-0.559693,0.541357
21194,NaN,6.607478,-2.008984,1.440284,0.247807,-0.710616,-2.798252,1.058822,0.668555,0.761656,-1.048584,0.076660,-0.148926,0.066198,-0.019913,0.014076,0.999973,0.005294,0.003343,0.003808,0.505807,0.364897,-0.555569,0.549866
21195,NaN,6.445030,-2.449352,1.705467,0.639341,-0.976592,-2.806739,1.148301,0.670857,0.738592,-1.040283,0.081055,-0.150879,0.064597,-0.024352,0.016698,0.999971,0.005741,0.003354,0.003693,0.503530,0.363894,-0.552047,0.556132
21196,NaN,6.669982,-3.164289,1.621842,1.255836,-0.827884,-2.405358,1.209768,0.647139,0.694026,-1.044678,0.083252,-0.163330,0.066861,-0.031508,0.015811,0.999970,0.006049,0.003236,0.003470,0.498999,0.363852,-0.546682,0.565464
21197,NaN,6.601132,-2.815095,1.358208,0.950121,-0.460356,-2.585716,1.253729,0.681464,0.646319,-1.040771,0.089600,-0.169434,0.066147,-0.028021,0.013181,0.999969,0.006269,0.003407,0.003232,0.496739,0.363276,-0.542596,0.571726
21198,NaN,6.276187,-2.076024,1.204164,0.300534,-0.200766,-3.103045,1.250291,0.711052,0.597554,-1.034424,0.093750,-0.181885,0.062866,-0.020646,0.011689,0.999970,0.006251,0.003555,0.002988,0.491917,0.363536,-0.536477,0.581423
21199,NaN,6.106668,-1.877652,1.209719,0.133440,-0.153115,-3.313556,1.209147,0.714540,0.568709,-1.032471,0.095947,-0.186035,0.061162,-0.018674,0.011766,0.999971,0.006046,0.003573,0.002844,0.489968,0.362897,-0.532223,0.587347
21200,NaN,6.169413,-2.413305,1.402027,0.583555,-0.257429,-3.071466,1.178200,0.713943,0.558435,-1.032471,0.098145,-0.198242,0.061811,-0.024042,0.013658,0.999972,0.005891,0.003570,0.002792,0.485422,0.363059,-0.526173,0.596403
21201,NaN,6.402558,-3.155836,1.682049,1.196850,-0.422609,-2.589833,1.176741,0.719484,0.542430,-1.028564,0.104492,-0.206543,0.064171,-0.031482,0.016404,0.999973,0.005884,0.003597,0.002712,0.483547,0.362333,-0.521888,0.602105
21202,NaN,6.589129,-3.212281,2.138601,1.141831,-0.711505,-2.296157,1.175944,0.752606,0.524526,-1.024170,0.104492,-0.210693,0.066055,-0.032074,0.020949,0.999972,0.005880,0.003763,0.002623,0.478992,0.362291,-0.515695,0.611041
21203,NaN,6.506092,-2.730031,2.547173,0.669219,-1.044218,-2.414612,1.098228,0.764029,0.520221,-1.022461,0.113037,-0.225098,0.065228,-0.027269,0.025073,0.999974,0.005491,0.003820,0.002601,0.477371,0.361236,-0.511438,0.616487
21204,NaN,6.487910,-1.964761,2.592257,-0.080903,-1.006511,-2.625684,0.921630,0.733986,0.505014,-1.020508,0.117188,-0.231201,0.065023,-0.019602,0.025594,0.999979,0.004608,0.003670,0.002525,0.471906,0.361419,-0.505006,0.625820
21205,NaN,6.728791,-2.057849,2.672021,-0.083152,-0.956589,-2.347524,0.778324,0.707855,0.536612,-1.011963,0.114990,-0.243408,0.067437,-0.020501,0.026402,0.999983,0.003892,0.003539,0.002683,0.470600,0.359679,-0.501861,0.630319
21206,NaN,7.074503,-2.621409,2.856166,0.317166,-0.921485,-1.804703,0.695229,0.690099,0.589836,-1.014160,0.121582,-0.247803,0.070920,-0.026104,0.028226,0.999984,0.003476,0.003450,0.002949,0.465839,0.358970,-0.496338,0.638579
21207,NaN,7.375720,-3.048465,3.053570,0.596927,-0.935150,-1.339952,0.686991,0.685862,0.604515,-1.008057,0.125732,-0.255859,0.073953,-0.030365,0.030178,0.999984,0.003435,0.003429,0.003023,0.464371,0.356874,-0.493624,0.642912
21208,NaN,7.949326,-3.205261,2.864633,0.518489,-0.473114,-0.802792,0.734258,0.705954,0.605759,-1.004150,0.134277,-0.260254,0.079690,-0.031916,0.028248,0.999982,0.003671,0.003530,0.003029,0.457964,0.357042,-0.487010,0.652388
21209,NaN,8.044232,-3.100827,2.409218,0.337726,0.064040,-0.867848,0.771279,0.770396,0.626266,-1.001953,0.134277,-0.272461,0.080631,-0.030848,0.023663,0.999980,0.003856,0.003852,0.003131,0.456411,0.354763,-0.483839,0.657063
21210,NaN,7.737078,-3.346112,2.309508,0.600281,0.252792,-1.096756,0.895811,0.832565,0.671686,-0.997803,0.138428,-0.284668,0.077578,-0.033303,0.022623,0.999976,0.004479,0.004163,0.003358,0.448803,0.355085,-0.475921,0.667824
21211,NaN,7.805675,-3.721655,2.574153,0.894934,0.173221,-0.836411,1.007442,0.823105,0.655337,-0.991699,0.144775,-0.288818,0.078283,-0.037088,0.025233,0.999973,0.005037,0.004115,0.003277,0.446773,0.353028,-0.471861,0.673136
21212,NaN,8.301466,-3.613903,2.821408,0.575487,0.191021,-0.348745,1.055295,0.804428,0.601856,-0.985352,0.142822,-0.303223,0.083235,-0.036036,0.027689,0.999973,0.005276,0.004022,0.003009,0.441773,0.352331,-0.465386,0.681260
21213,NaN,9.010457,-3.795109,3.152805,0.470653,0.218470,0.446980,1.153882,0.815006,0.555771,-0.981201,0.142822,-0.309326,0.090337,-0.037880,0.030942,0.999971,0.005769,0.004075,0.002779,0.439731,0.350800,-0.460621,0.686588
21214,NaN,9.522596,-3.961052,3.461721,0.420980,0.233433,1.055609,1.290937,0.870815,0.497303,-0.979248,0.149170,-0.319580,0.095473,-0.039594,0.033946,0.999967,0.006455,0.004354,0.002486,0.437308,0.349606,-0.455033,0.692446
21215,NaN,9.496732,-3.576418,3.856156,0.081949,-0.077179,1.042452,1.378278,0.962721,0.446816,-0.974854,0.146973,-0.325684,0.095231,-0.035814,0.037857,0.999962,0.006891,0.004814,0.002234,0.435526,0.348257,-0.448920,0.698216
21216,NaN,9.211032,-3.118181,4.326567,-0.220404,-0.526914,0.815444,1.468012,1.019481,0.427340,-0.964355,0.145020,-0.337891,0.092395,-0.031299,0.042566,0.999958,0.007340,0.005097,0.002137,0.428973,0.348635,-0.439624,0.707931
21217,NaN,9.693941,-2.927140,4.665688,-0.557963,-0.587857,1.307132,1.469777,1.006774,0.408338,-0.966309,0.140625,-0.350098,0.097232,-0.029413,0.045952,0.999958,0.007349,0.005034,0.002042,0.427161,0.347312,-0.432955,0.713763
21218,NaN,10.488278,-2.137180,5.366557,-1.519530,-1.037498,2.018799,1.267714,1.063874,0.474606,-0.951416,0.136475,-0.364258,0.105217,-0.021460,0.052971,0.999963,0.006338,0.005319,0.002373,0.420333,0.347576,-0.424011,0.722998
21219,NaN,10.404293,-1.167403,6.598736,-2.223104,-2.311202,2.140124,0.851923,1.138241,0.562545,-0.949463,0.146973,-0.372559,0.104449,-0.011660,0.065344,0.999971,0.004260,0.005691,0.002813,0.419220,0.344049,-0.419504,0.727943
21220,NaN,10.157490,-0.620648,7.770906,-2.454136,-3.477689,2.263233,0.317953,1.093725,0.589802,-0.945557,0.151367,-0.382812,0.102016,-0.006029,0.077142,0.999979,0.001590,0.005469,0.002949,0.414846,0.341887,-0.413859,0.734667
21221,NaN,10.084443,-0.826446,7.684839,-2.349108,-3.246190,2.244583,-0.078396,1.097603,0.497220,-0.937012,0.153564,-0.399170,0.101284,-0.007983,0.076297,0.999982,-0.000392,0.005488,0.002486,0.415418,0.336658,-0.412713,0.737399
21222,NaN,10.004004,-1.757425,6.646001,-1.702838,-1.925087,2.050302,-0.359346,1.116264,0.416267,-0.937500,0.164062,-0.409668,0.100445,-0.017247,0.065931,0.999981,-0.001797,0.005581,0.002081,0.410612,0.334217,-0.407052,0.744315
21223,NaN,9.632384,-2.766763,5.828691,-0.890837,-0.899033,1.711540,-0.489684,1.212276,0.359492,-0.924805,0.166260,-0.415771,0.096724,-0.027352,0.057769,0.999977,-0.002448,0.006061,0.001797,0.412551,0.327961,-0.406976,0.746065
21224,NaN,8.935580,-3.941930,5.259495,0.281748,-0.094806,1.275860,-0.538567,1.258129,0.292062,-0.918457,0.168213,-0.430176,0.089742,-0.039148,0.052137,0.999976,-0.002693,0.006291,0.001460,0.408707,0.324768,-0.401348,0.752598
21225,NaN,8.120374,-4.119867,4.282524,0.563311,0.608843,0.215512,-0.555398,1.246034,0.231893,-0.914795,0.181152,-0.434326,0.081517,-0.040986,0.042432,0.999976,-0.002777,0.006230,0.001159,0.411227,0.318471,-0.401258,0.753963
21226,NaN,7.428154,-3.444944,3.678532,0.118644,0.763777,-0.869617,-0.568778,1.194083,0.252250,-0.904297,0.183105,-0.448730,0.074543,-0.034252,0.036438,0.999977,-0.002844,0.005970,0.001261,0.407688,0.315174,-0.396731,0.759645
21227,NaN,6.583476,-2.750768,3.019554,-0.258313,0.829230,-2.113876,-0.671983,1.091972,0.325940,-0.898193,0.189453,-0.454834,0.066043,-0.027299,0.029927,0.999978,-0.003360,0.005460,0.001630,0.409666,0.309003,-0.397563,0.760681
21228,NaN,5.940170,-2.539551,2.553465,-0.275408,0.971147,-2.939860,-0.799474,0.969251,0.429450,-0.898438,0.195801,-0.459229,0.059579,-0.025166,0.025347,0.999978,-0.003997,0.004846,0.002147,0.406993,0.304884,-0.395903,0.764633
21229,NaN,6.222812,-3.694553,2.820984,0.557973,1.282313,-2.172336,-0.809960,0.810481,0.512643,-0.885986,0.208740,-0.465332,0.062436,-0.036672,0.028106,0.999980,-0.004050,0.004052,0.002563,0.407864,0.299116,-0.398124,0.765293
21230,NaN,6.751794,-5.053743,3.141697,1.424184,1.727723,-1.095840,-0.759361,0.704439,0.573753,-0.886230,0.210693,-0.467529,0.067773,-0.050224,0.031370,0.999982,-0.003797,0.003522,0.002869,0.405057,0.295141,-0.398428,0.768164
21231,NaN,7.080070,-5.684535,3.868653,1.811864,1.466935,-0.222466,-0.592469,0.639410,0.627642,-0.878174,0.223389,-0.477783,0.071102,-0.056508,0.038627,0.999986,-0.002962,0.003197,0.003138,0.404789,0.290230,-0.400329,0.769188
21232,NaN,7.510898,-5.836586,4.934314,1.757425,0.809127,0.726892,-0.425313,0.576289,0.664762,-0.874023,0.231934,-0.476074,0.075444,-0.058011,0.049250,0.999988,-0.002127,0.002881,0.003324,0.402319,0.286571,-0.400916,0.771546
21233,NaN,8.100283,-5.572107,5.879997,1.241286,0.160657,1.574574,-0.357780,0.530926,0.732967,-0.864014,0.242432,-0.478271,0.081362,-0.055318,0.058684,0.999988,-0.001789,0.002655,0.003665,0.401063,0.282331,-0.402274,0.773055
21234,NaN,8.505853,-4.099777,6.614107,-0.253073,-0.800909,1.685024,-0.420902,0.615334,0.764448,-0.864014,0.244629,-0.480225,0.085417,-0.040533,0.065964,0.999986,-0.002105,0.003077,0.003822,0.398910,0.277735,-0.403469,0.775207
21235,NaN,8.694210,-3.175204,6.527118,-1.269933,-0.951824,1.401325,-0.541962,0.788416,0.838813,-0.854004,0.259521,-0.486572,0.087330,-0.031210,0.065012,0.999980,-0.002710,0.003942,0.004194,0.397994,0.271900,-0.405154,0.776866
21236,NaN,7.967531,-4.757803,5.678279,0.220107,0.087121,1.064044,-0.538769,0.956179,0.855657,-0.847656,0.265869,-0.492920,0.080148,-0.047083,0.056528,0.999976,-0.002694,0.004781,0.004278,0.395478,0.266135,-0.405671,0.779872
21237,NaN,7.428947,-6.364705,4.987695,1.660015,1.088857,0.986988,-0.109394,1.008898,0.794251,-0.837402,0.270020,-0.503174,0.074792,-0.063324,0.049535,0.999979,-0.000547,0.005044,0.003971,0.394565,0.260368,-0.405151,0.782547
21238,NaN,7.610726,-5.816477,4.684088,0.961253,1.313913,0.725012,0.297644,1.041481,0.826788,-0.829102,0.274414,-0.513428,0.076589,-0.057918,0.046357,0.999977,0.001488,0.005207,0.004134,0.391958,0.255486,-0.402667,0.786737
21239,NaN,8.115710,-5.169498,5.445045,0.108185,0.761590,1.216506,0.566442,1.063873,0.888301,-0.818604,0.282715,-0.521729,0.081674,-0.051486,0.053871,0.999972,0.002832,0.005319,0.004441,0.389871,0.250616,-0.399477,0.790955
21240,NaN,7.891212,-4.906856,5.622326,-0.072640,0.540040,1.034436,0.520064,1.052524,0.905143,-0.814697,0.291260,-0.531982,0.079428,-0.048855,0.055679,0.999973,0.002600,0.005263,0.004526,0.387518,0.245492,-0.396684,0.795113
21241,NaN,7.095871,-3.820601,5.477363,-0.605754,0.008635,-0.087391,0.300350,1.027803,0.904448,-0.802002,0.291260,-0.538086,0.071411,-0.037966,0.054350,0.999975,0.001502,0.005139,0.004522,0.385583,0.240188,-0.394599,0.798703
21242,NaN,6.776837,-3.439219,5.911957,-0.795223,-0.554041,-0.233316,0.106408,0.955551,0.905336,-0.798096,0.299805,-0.544434,0.068205,-0.034115,0.058776,0.999978,0.000532,0.004778,0.004527,0.383483,0.234714,-0.393597,0.801830
21243,NaN,7.357836,-4.167734,6.323349,-0.634999,-0.280738,0.723396,-0.040892,0.894635,0.861132,-0.789795,0.303955,-0.552490,0.074039,-0.041346,0.062911,0.999981,-0.000204,0.004473,0.004306,0.381831,0.229350,-0.393049,0.804435
21244,NaN,7.386989,-4.625689,6.142019,-0.416566,0.127592,0.840843,-0.070446,0.951799,0.805575,-0.779541,0.310303,-0.560791,0.074347,-0.045937,0.061083,0.999981,-0.000352,0.004759,0.004028,0.379927,0.223996,-0.392358,0.807179
21245,NaN,6.875892,-4.683098,5.746098,-0.194211,0.316853,0.291145,-0.057769,1.022850,0.774897,-0.764893,0.321045,-0.571045,0.069232,-0.046547,0.057121,0.999979,-0.000289,0.005114,0.003874,0.378863,0.218233,-0.391508,0.809666
21246,NaN,6.438480,-4.885739,5.369038,0.106999,0.579476,-0.127520,-0.037280,1.065596,0.768335,-0.763184,0.327393,-0.573242,0.064857,-0.048599,0.053355,0.999978,-0.000186,0.005328,0.003842,0.377630,0.212401,-0.390502,0.812274
21247,NaN,6.294722,-5.011344,5.061630,0.177562,0.885862,-0.350151,-0.031739,1.099809,0.763584,-0.752686,0.331543,-0.581543,0.063415,-0.049864,0.050276,0.999978,-0.000159,0.005499,0.003818,0.376701,0.206379,-0.389357,0.814804
21248,NaN,6.441909,-5.592179,5.261594,0.437000,1.108689,0.138862,-0.012262,1.105012,0.799882,-0.742188,0.335693,-0.587646,0.064931,-0.055660,0.052262,0.999977,-0.000061,0.005525,0.003999,0.375515,0.200303,-0.388331,0.817353
21249,NaN,6.582308,-5.843608,5.081355,0.426334,1.503838,0.229711,0.072221,1.121559,0.815252,-0.729736,0.340088,-0.593750,0.066344,-0.058185,0.050421,0.999976,0.000361,0.005608,0.004076,0.374280,0.194267,-0.386737,0.820127
21250,NaN,6.474919,-5.589164,4.878552,0.190257,1.592270,-0.097219,0.226579,1.205441,0.824047,-0.721191,0.337891,-0.608154,0.065271,-0.055678,0.048330,0.999973,0.001133,0.006027,0.004120,0.373593,0.187856,-0.384869,0.822809
21251,NaN,6.383543,-4.872839,5.083570,-0.390134,1.192876,-0.391443,0.363017,1.272201,0.848896,-0.708740,0.344238,-0.614258,0.064363,-0.048548,0.050339,0.999969,0.001815,0.006361,0.004244,0.372196,0.181661,-0.381784,0.826263
21252,NaN,6.230170,-3.869048,4.963523,-1.143581,0.879835,-1.075551,0.362132,1.279388,0.909536,-0.697998,0.339844,-0.628418,0.062793,-0.038495,0.049165,0.999968,0.001811,0.006397,0.004548,0.371874,0.174743,-0.379521,0.828939
21253,NaN,6.304180,-3.334291,5.066352,-1.689839,0.705128,-1.258528,0.332006,1.299345,0.981547,-0.681396,0.350586,-0.636719,0.063532,-0.033116,0.050197,0.999965,0.001660,0.006497,0.004908,0.369968,0.168106,-0.376573,0.832500
21254,NaN,6.450680,-3.955243,5.677688,-1.430574,0.690399,-0.487130,0.307923,1.313995,1.065543,-0.668945,0.356934,-0.640869,0.065087,-0.039294,0.056290,0.999963,0.001540,0.006570,0.005328,0.369402,0.160647,-0.374544,0.835135
21255,NaN,6.530507,-4.331976,6.310523,-1.336429,0.535655,0.145262,0.210772,1.318629,1.128464,-0.656250,0.361084,-0.651123,0.065962,-0.043015,0.062626,0.999962,0.001054,0.006593,0.005642,0.366976,0.153411,-0.372121,0.838642
21256,NaN,6.308212,-4.392493,6.800187,-1.283135,0.191051,0.367904,0.082179,1.337344,1.162607,-0.643799,0.369385,-0.655273,0.063789,-0.043583,0.067559,0.999961,0.000411,0.006687,0.005813,0.366068,0.145431,-0.370906,0.840995
21257,NaN,5.894213,-4.820752,6.560878,-0.827244,0.452402,0.194056,-0.045303,1.343573,1.139447,-0.627197,0.375732,-0.665527,0.059654,-0.047854,0.065220,0.999961,-0.000227,0.006718,0.005697,0.363787,0.137580,-0.369452,0.843941
21258,NaN,5.592670,-5.330906,5.973665,-0.367969,1.042850,-0.109295,-0.129921,1.370606,1.089805,-0.614746,0.382080,-0.671631,0.056624,-0.052963,0.059385,0.999961,-0.000650,0.006853,0.005449,0.363220,0.129327,-0.368837,0.845757
21259,NaN,5.338583,-5.711499,5.521506,-0.038316,1.503987,-0.360548,-0.086675,1.392884,1.086774,-0.593750,0.386230,-0.679932,0.054078,-0.056799,0.054865,0.999961,-0.000433,0.006964,0.005434,0.361234,0.121270,-0.367362,0.848439
21260,NaN,5.332107,-6.187217,5.693485,0.159924,1.686487,-0.001659,-0.013303,1.422971,1.133630,-0.589600,0.388428,-0.692139,0.054074,-0.061563,0.056556,0.999959,-0.000067,0.007115,0.005668,0.360957,0.112723,-0.366237,0.850220
21261,NaN,5.111580,-6.237976,5.918622,0.188928,1.539893,0.069665,0.024519,1.383356,1.216871,-0.564453,0.396973,-0.692139,0.051902,-0.062073,0.058821,0.999958,0.000123,0.006917,0.006084,0.358288,0.104654,-0.364307,0.853205
21262,NaN,5.039760,-5.807308,6.308157,-0.231234,1.113946,0.067574,-0.009473,1.337945,1.337308,-0.553955,0.405273,-0.698486,0.051205,-0.057730,0.062744,0.999955,-0.000047,0.006690,0.006686,0.357475,0.095872,-0.363493,0.854923
21263,NaN,5.099992,-6.094255,7.221462,-0.339469,0.754083,0.893001,-0.123525,1.283912,1.507900,-0.528809,0.409424,-0.702393,0.051920,-0.060509,0.071921,0.999951,-0.000618,0.006419,0.007539,0.353404,0.087418,-0.362431,0.857967
21264,NaN,5.072666,-7.057697,8.017222,0.044946,0.740530,1.988313,-0.303935,1.213604,1.635315,-0.520752,0.422119,-0.712891,0.051786,-0.070035,0.079967,0.999947,-0.001520,0.006068,0.008176,0.351269,0.078068,-0.363122,0.859452
21265,NaN,4.731065,-8.056258,8.041961,0.720288,1.117069,2.442395,-0.368662,1.184792,1.736320,-0.497803,0.430664,-0.706787,0.048483,-0.079997,0.080283,0.999943,-0.001843,0.005924,0.008681,0.346082,0.069172,-0.363282,0.862246
21266,NaN,4.627878,-9.492401,8.590576,1.414613,1.483668,3.645077,-0.152687,1.208137,1.778540,-0.476807,0.437012,-0.718994,0.047638,-0.094439,0.085693,0.999942,-0.000763,0.006041,0.008893,0.343354,0.059728,-0.363270,0.864046
21267,NaN,4.950008,-10.313786,8.713855,1.416172,2.138890,4.337214,0.118041,1.227844,1.771399,-0.466553,0.449707,-0.721436,0.050945,-0.102742,0.086768,0.999942,0.000590,0.006139,0.008857,0.337876,0.051405,-0.361160,0.867618
21268,NaN,4.548784,-9.059704,8.517529,0.741661,1.552359,3.315568,0.307838,1.319352,1.752577,-0.443359,0.449463,-0.733398,0.046840,-0.090321,0.084730,0.999939,0.001539,0.006597,0.008763,0.335849,0.041992,-0.358961,0.869822
21269,NaN,4.237688,-7.218749,10.074026,-0.635945,-0.407083,3.263145,0.318393,1.385932,1.813432,-0.424561,0.455811,-0.735596,0.043726,-0.071955,0.100326,0.999934,0.001592,0.006930,0.009067,0.330360,0.033241,-0.355606,0.873671
21270,NaN,3.627821,-6.265127,12.060431,-1.342904,-2.375154,3.986394,-0.037166,1.410294,1.860387,-0.399414,0.462158,-0.739746,0.037708,-0.062283,0.120353,0.999932,-0.000186,0.007051,0.009302,0.328028,0.022669,-0.354557,0.875313
21271,NaN,2.279197,-5.556150,14.432588,-1.452713,-4.894298,4.961996,-0.720007,1.400481,1.796690,-0.382812,0.472656,-0.743896,0.024298,-0.054828,0.144358,0.999929,-0.003600,0.007002,0.008983,0.322705,0.012172,-0.355590,0.877080
21272,NaN,0.662822,-6.704564,15.676159,-0.147719,-5.943553,6.180191,-1.462830,1.186172,1.604680,-0.364258,0.489502,-0.735840,0.008091,-0.065836,0.157201,0.999923,-0.007314,0.005931,0.008023,0.319589,0.001301,-0.360494,0.876302
21273,NaN,-0.424044,-10.113692,14.145590,2.598465,-3.828890,6.954512,-1.829204,0.759475,1.259364,-0.352051,0.506592,-0.728027,-0.003069,-0.099859,0.142386,0.999931,-0.009146,0.003797,0.006297,0.315430,-0.007219,-0.367278,0.874962
21274,NaN,-0.011787,-11.730566,11.276376,3.536399,-1.045987,6.035173,-1.718081,0.297391,0.881103,-0.342285,0.525635,-0.722168,0.000565,-0.116330,0.113765,0.999952,-0.008590,0.001487,0.004405,0.311932,-0.012768,-0.374213,0.873212
21275,NaN,1.413019,-13.439139,9.303359,3.601144,1.771797,6.094814,-1.173583,-0.035342,0.457372,-0.342285,0.531982,-0.718018,0.014420,-0.133810,0.093822,0.999980,-0.005868,-0.000177,0.002287,0.309788,-0.015299,-0.379356,0.871715
21276,NaN,2.347633,-13.926279,7.159141,3.592144,3.836351,5.123323,-0.356439,-0.214316,-0.212997,-0.350830,0.529785,-0.718018,0.023251,-0.139160,0.071864,0.999997,-0.001782,-0.001072,-0.001065,0.310409,-0.014763,-0.381298,0.870655
21277,NaN,3.088021,-11.293692,5.484567,2.094283,3.954037,2.317547,0.535873,-0.314612,-0.492627,-0.356934,0.525635,-0.720215,0.030516,-0.113159,0.054591,0.999992,0.002679,-0.001573,-0.002463,0.311991,-0.011622,-0.379488,0.870928
21278,NaN,3.981094,-10.490928,5.843782,0.985301,3.834667,2.203147,1.289067,-0.380132,-0.641942,-0.358643,0.508545,-0.729980,0.039363,-0.105410,0.057835,0.999972,0.006445,-0.001901,-0.003210,0.315560,-0.007613,-0.374866,0.871687
21279,NaN,4.362364,-8.726981,6.384915,-0.248936,2.870903,1.485541,1.636451,-0.377554,-0.734619,-0.370850,0.498047,-0.736084,0.043182,-0.087948,0.063213,0.999958,0.008182,-0.001888,-0.003673,0.318103,-0.002008,-0.368342,0.873573
21280,NaN,3.383069,-6.095900,5.940433,-0.662491,1.313999,-0.772430,1.636499,-0.376903,-0.657415,-0.368164,0.481201,-0.746094,0.033518,-0.061553,0.058966,0.999959,0.008182,-0.001884,-0.003287,0.322780,0.002235,-0.362387,0.874348
21281,NaN,3.151402,-5.146500,5.940646,-0.887489,0.761057,-1.425762,1.619815,-0.391487,-0.543537,-0.374023,0.466309,-0.749756,0.031257,-0.052029,0.059048,0.999962,0.008099,-0.001957,-0.002718,0.324416,0.007545,-0.355918,0.876367
21282,NaN,3.254983,-4.007371,5.833736,-1.489277,0.369598,-2.175232,1.493464,-0.295488,-0.386458,-0.377930,0.453613,-0.759766,0.032386,-0.040571,0.058084,0.999969,0.007467,-0.001477,-0.001932,0.334471,0.008268,-0.350525,0.874753
21283,NaN,2.447695,-3.517088,5.860057,-1.075537,-0.310673,-2.640007,1.342143,-0.140783,-0.181461,-0.377441,0.440918,-0.767822,0.024404,-0.035585,0.058380,0.999977,0.006711,-0.000704,-0.000907,0.334955,0.011446,-0.344875,0.876776
21284,NaN,1.888612,-3.685146,6.482114,-0.626881,-0.852766,-2.194028,1.314476,-0.077354,-0.008318,-0.370850,0.432373,-0.777832,0.018860,-0.037277,0.064584,0.999978,0.006572,-0.000387,-0.000042,0.343931,0.010425,-0.339880,0.875262
21285,NaN,1.879573,-3.722120,7.092852,-0.668397,-1.133807,-1.690957,1.202894,-0.002149,0.162616,-0.372314,0.417480,-0.777588,0.018825,-0.037632,0.070703,0.999982,0.006014,-0.000011,0.000813,0.343147,0.012227,-0.334622,0.877570
21286,NaN,1.577037,-4.203705,7.283682,-0.160768,-1.090283,-1.327710,1.179989,0.089094,0.237420,-0.374512,0.417480,-0.787842,0.015853,-0.042447,0.072580,0.999982,0.005900,0.000445,0.001187,0.352905,0.009410,-0.329836,0.875544
21287,NaN,1.265174,-4.927223,7.197284,0.592883,-0.750410,-1.051218,1.291184,0.246312,0.236681,-0.367920,0.406982,-0.793701,0.012799,-0.049720,0.071637,0.999978,0.006456,0.001232,0.001183,0.352206,0.010219,-0.323753,0.878083
21288,NaN,0.546799,-4.416458,6.790148,0.923759,-1.145360,-1.828713,1.381006,0.430148,0.174429,-0.359131,0.396240,-0.801758,0.005652,-0.044627,0.067582,0.999973,0.006905,0.002151,0.000872,0.359258,0.007829,-0.317322,0.877599
21289,NaN,-0.385515,-3.338175,6.106562,1.114893,-1.827965,-3.179670,1.285709,0.528962,0.138722,-0.356445,0.383545,-0.803467,-0.003671,-0.033776,0.060859,0.999976,0.006428,0.002645,0.000694,0.359429,0.007597,-0.310728,0.879887
21290,NaN,-0.977870,-3.214966,5.691132,1.555008,-1.983884,-3.703119,1.140456,0.531485,0.139196,-0.343262,0.370850,-0.815430,-0.009605,-0.032480,0.056752,0.999980,0.005702,0.002657,0.000696,0.366854,0.004443,-0.305021,0.878840
21291,NaN,-1.515319,-3.338756,4.976166,2.202577,-1.808819,-4.327962,0.958704,0.501991,0.122655,-0.341064,0.368652,-0.817627,-0.015008,-0.033635,0.049639,0.999985,0.004793,0.002510,0.000613,0.367054,0.003808,-0.299886,0.880526
21292,NaN,-1.729525,-3.376119,4.349057,2.500274,-1.587518,-4.859717,0.913344,0.435649,0.102795,-0.332275,0.357910,-0.823486,-0.017183,-0.033968,0.043373,0.999987,0.004567,0.002178,0.000514,0.375593,0.000352,-0.295208,0.878511
21293,NaN,-1.471378,-4.075805,4.112277,2.848741,-0.863208,-4.633186,0.980694,0.342348,0.082169,-0.327881,0.349609,-0.831543,-0.014627,-0.040965,0.040947,0.999986,0.004903,0.001712,0.000411,0.375731,0.000568,-0.290254,0.880102
21294,NaN,-0.838788,-5.074353,4.539823,2.987310,-0.110688,-3.638081,1.233546,0.313043,0.018726,-0.327393,0.338867,-0.833252,-0.008312,-0.051023,0.045097,0.999980,0.006168,0.001565,0.000094,0.384500,-0.001624,-0.284329,0.878245
21295,NaN,-0.118280,-6.052875,5.492489,2.983844,0.518021,-2.220209,1.539386,0.301940,-0.090798,-0.324951,0.323975,-0.841309,-0.001128,-0.060949,0.054459,0.999969,0.007697,0.001510,-0.000454,0.385328,0.000139,-0.276981,0.880229
21296,NaN,0.124973,-5.506649,5.904393,2.426276,0.247155,-2.115205,1.664595,0.306973,-0.198141,-0.319824,0.302734,-0.846924,0.001285,-0.055557,0.058581,0.999964,0.008323,0.001535,-0.000991,0.393171,-0.000222,-0.269219,0.879169
21297,NaN,0.030544,-3.889355,7.089820,1.203958,-1.162662,-1.901243,1.544695,0.288400,-0.236380,-0.319580,0.294434,-0.846924,0.000361,-0.039440,0.070594,0.999968,0.007723,0.001442,-0.001182,0.394587,0.001865,-0.261854,0.880755
21298,NaN,0.444729,-1.931372,9.391199,-0.900325,-2.924352,-0.715460,0.891645,0.192094,-0.100023,-0.321533,0.292236,-0.850830,0.004528,-0.019734,0.093820,0.999989,0.004458,0.000960,-0.000500,0.401799,0.000457,-0.257713,0.878716
21299,NaN,1.296723,-1.614515,11.868441,-2.191258,-3.584081,1.478938,-0.049337,0.072338,0.032946,-0.317383,0.290039,-0.848877,0.013013,-0.016114,0.118684,1.000000,-0.000247,0.000362,0.000165,0.401747,-0.000002,-0.257785,0.878719
21300,NaN,2.118533,-2.727611,13.551569,-2.384705,-3.181250,3.594945,-0.895344,0.028261,-0.000382,-0.315674,0.300781,-0.848877,0.021204,-0.026669,0.135633,0.999990,-0.004477,0.000141,-0.000002,0.403180,-0.002844,-0.261611,0.876925
21301,NaN,2.339851,-3.034435,14.562431,-2.658338,-3.415515,4.609910,-1.342899,0.071630,-0.049571,-0.317871,0.309082,-0.836914,0.023443,-0.029372,0.145815,0.999977,-0.006714,0.000358,-0.000248,0.403462,-0.005801,-0.267349,0.875048
21302,NaN,2.239241,-2.985672,14.136243,-2.695408,-3.427500,4.142411,-1.542535,0.023488,-0.100130,-0.312256,0.328125,-0.837158,0.022394,-0.028776,0.141585,0.999970,-0.007713,0.000117,-0.000501,0.404075,-0.009379,-0.273799,0.872737
21303,NaN,1.818786,-4.463716,11.922921,-0.994515,-2.039637,2.845789,-1.406264,-0.005981,-0.189042,-0.314453,0.332520,-0.831055,0.018143,-0.043815,0.119540,0.999975,-0.007031,-0.000030,-0.000945,0.404815,-0.011936,-0.279950,0.870408
21304,NaN,1.795972,-6.339539,10.302953,0.635444,-0.402038,2.393865,-0.828944,0.028812,-0.301461,-0.321045,0.336670,-0.827148,0.017879,-0.062995,0.103289,0.999990,-0.004145,0.000144,-0.001507,0.406281,-0.013761,-0.283128,0.868668
21305,NaN,2.416278,-7.149356,8.756454,1.144760,1.139919,1.633586,-0.344929,0.052166,-0.330570,-0.316895,0.338867,-0.827148,0.024068,-0.071382,0.087681,0.999997,-0.001725,0.000261,-0.001653,0.407766,-0.014220,-0.284542,0.867503
21306,NaN,2.844447,-6.915712,7.394248,1.038110,1.973720,0.464452,-0.083630,0.112925,-0.265589,-0.319092,0.338867,-0.829102,0.028394,-0.069164,0.073955,0.999999,-0.000418,0.000565,-0.001328,0.408517,-0.014711,-0.284381,0.867194
21307,NaN,2.619268,-6.484558,6.844501,1.036435,1.858938,-0.261384,0.071028,0.129348,-0.171056,-0.314697,0.334717,-0.833252,0.026181,-0.064892,0.068405,0.999999,0.000355,0.000647,-0.000855,0.409447,-0.014884,-0.283821,0.866936
21308,NaN,2.587364,-6.065566,6.769672,0.793959,1.674168,-0.545499,0.134105,0.101531,-0.074526,-0.318848,0.334717,-0.829102,0.025885,-0.060711,0.067643,1.000000,0.000671,0.000508,-0.000373,0.411356,-0.015781,-0.282812,0.866345
21309,NaN,2.692620,-5.491017,6.990943,0.269530,1.369531,-0.629742,0.141357,0.078143,0.013152,-0.318848,0.334717,-0.833252,0.026957,-0.054958,0.069860,1.000000,0.000707,0.000391,0.000066,0.411420,-0.015848,-0.282038,0.866566
21310,NaN,2.505151,-4.571535,7.677569,-0.434909,0.462206,-0.554340,0.068517,0.078053,0.051682,-0.316895,0.336670,-0.833252,0.025093,-0.045735,0.076750,1.000000,0.000343,0.000390,0.000258,0.411167,-0.016408,-0.281468,0.866861
21311,NaN,2.224187,-3.736945,7.965772,-0.916646,-0.291025,-0.788257,-0.056049,0.074057,0.055243,-0.314697,0.336670,-0.837402,0.022282,-0.037341,0.079660,1.000000,-0.000280,0.000370,0.000276,0.411027,-0.016922,-0.281555,0.866890
21312,NaN,1.945953,-3.384733,8.348477,-1.096505,-0.843579,-0.700813,-0.116372,0.118130,0.024542,-0.312744,0.338867,-0.829102,0.019513,-0.033796,0.083493,1.000000,-0.000582,0.000591,0.000123,0.411369,-0.018094,-0.281697,0.866658
21313,NaN,1.576722,-3.148357,8.557758,-1.090920,-1.329608,-0.720084,-0.203595,0.113594,-0.003169,-0.310547,0.336670,-0.829102,0.015815,-0.031397,0.085601,0.999999,-0.001018,0.000568,-0.000016,0.411523,-0.019001,-0.282346,0.866354
21314,NaN,1.324845,-3.277265,8.511156,-0.842380,-1.425925,-0.746676,-0.207460,0.104633,-0.033398,-0.310547,0.343018,-0.837402,0.013288,-0.032687,0.085139,0.999999,-0.001037,0.000523,-0.000167,0.411366,-0.019949,-0.282878,0.866233
21315,NaN,1.166187,-3.453691,8.422376,-0.610433,-1.418599,-0.766180,-0.275933,0.089806,-0.050191,-0.308594,0.343018,-0.831299,0.011691,-0.034424,0.084266,0.999999,-0.001380,0.000449,-0.000251,0.411682,-0.020835,-0.283894,0.865730
21316,NaN,0.965550,-3.626690,8.185056,-0.322030,-1.375009,-0.919665,-0.415811,0.072956,-0.046155,-0.306396,0.345215,-0.827148,0.009677,-0.036099,0.081922,0.999998,-0.002079,0.000365,-0.000231,0.412261,-0.022287,-0.285320,0.864949
21317,NaN,0.671407,-3.869057,8.055282,0.040656,-1.432759,-0.966599,-0.604424,0.057352,-0.027112,-0.311035,0.351562,-0.823242,0.006732,-0.038448,0.080667,0.999995,-0.003022,0.000287,-0.000136,0.412390,-0.023743,-0.287818,0.864021
21318,NaN,0.597960,-4.261717,7.793810,0.389543,-1.198319,-0.999337,-0.787678,0.038656,-0.009311,-0.304932,0.362061,-0.821289,0.005993,-0.042310,0.078104,0.999992,-0.003938,0.000193,-0.000047,0.411156,-0.025348,-0.290919,0.863524
21319,NaN,0.683580,-4.921262,7.836326,0.720338,-0.879856,-0.603968,-0.893573,0.057567,0.015465,-0.309326,0.366455,-0.821533,0.006862,-0.048861,0.078580,0.999990,-0.004468,0.000288,0.000077,0.411055,-0.027457,-0.294654,0.862241
21320,NaN,0.795143,-5.545742,8.056443,0.947875,-0.644922,-0.066986,-0.928780,0.056070,0.021159,-0.309570,0.375000,-0.821533,0.007980,-0.055082,0.080819,0.999989,-0.004644,0.000280,0.000106,0.409390,-0.029374,-0.298321,0.861709
21321,NaN,1.007454,-6.060827,8.228643,1.041139,-0.382056,0.396552,-0.872331,0.054497,0.018797,-0.303467,0.379150,-0.813477,0.010103,-0.060248,0.082547,0.999990,-0.004362,0.000272,0.000094,0.409258,-0.031423,-0.301962,0.860430
21322,NaN,1.218950,-6.570950,8.399196,1.131573,-0.109887,0.860489,-0.723497,0.057995,0.031101,-0.305664,0.385498,-0.813477,0.012224,-0.065403,0.084225,0.999993,-0.003617,0.000290,0.000156,0.408436,-0.033255,-0.304719,0.859779
21323,NaN,1.484674,-6.935095,8.559189,1.100403,0.136667,1.247587,-0.531550,0.063742,0.033112,-0.301758,0.394043,-0.805420,0.014886,-0.069121,0.085771,0.999996,-0.002658,0.000319,0.000166,0.408301,-0.034665,-0.306867,0.859024
21324,NaN,1.684596,-7.259927,8.559600,1.142448,0.418102,1.471417,-0.370011,0.068399,0.024233,-0.308105,0.395996,-0.807617,0.016884,-0.072439,0.085724,0.999998,-0.001850,0.000342,0.000121,0.407163,-0.035672,-0.308134,0.859069
21325,NaN,1.869170,-7.321121,8.367530,1.092447,0.659116,1.389108,-0.226227,0.057156,0.021631,-0.306152,0.395996,-0.805664,0.018724,-0.073114,0.083753,0.999999,-0.001131,0.000286,0.000108,0.407117,-0.036413,-0.308985,0.858754
21326,NaN,2.018731,-7.290613,8.029066,1.053668,0.927768,1.129124,-0.071146,0.066201,0.000848,-0.302002,0.398193,-0.813721,0.020214,-0.072877,0.080310,1.000000,-0.000356,0.000331,0.000004,0.404732,-0.036267,-0.309087,0.859850
21327,NaN,2.137735,-7.134922,7.802919,0.937344,1.055953,0.881653,0.072640,0.068933,-0.024923,-0.302002,0.400391,-0.807617,0.021395,-0.071380,0.077996,1.000000,0.000363,0.000345,-0.000125,0.404958,-0.036379,-0.308639,0.859899
21328,NaN,2.244744,-6.798700,7.639185,0.693456,1.070308,0.579226,0.176351,0.061457,-0.044454,-0.303711,0.391846,-0.807617,0.022456,-0.068059,0.076325,1.000000,0.000882,0.000307,-0.000222,0.404959,-0.036416,-0.307659,0.860249
21329,NaN,2.366663,-6.364268,7.560233,0.359339,1.004716,0.292929,0.253473,0.055782,-0.057111,-0.303711,0.391846,-0.811523,0.023670,-0.063745,0.075515,0.999999,0.001267,0.000279,-0.000286,0.405335,-0.036056,-0.306466,0.860513
21330,NaN,2.374760,-5.923444,7.717668,0.022247,0.743322,0.174102,0.301860,0.058830,-0.060439,-0.310059,0.387695,-0.815674,0.023752,-0.059358,0.077080,0.999999,0.001509,0.000294,-0.000302,0.405080,-0.035666,-0.305014,0.861165
21331,NaN,2.327199,-5.591934,7.779315,-0.167428,0.539122,0.030309,0.293714,0.049321,-0.054720,-0.301514,0.383301,-0.815674,0.023276,-0.056040,0.077705,0.999999,0.001469,0.000247,-0.000274,0.405442,-0.035201,-0.303658,0.861492
21332,NaN,2.245770,-5.280028,7.953134,-0.362740,0.264409,-0.016107,0.235764,0.042032,-0.047228,-0.305908,0.387695,-0.813721,0.022462,-0.052899,0.079464,0.999999,0.001179,0.000210,-0.000236,0.405453,-0.034997,-0.302529,0.861893
21333,NaN,2.098701,-5.101685,8.078585,-0.409529,0.023405,-0.038896,0.150244,0.032734,-0.046122,-0.301270,0.381104,-0.815430,0.020988,-0.051082,0.080744,1.000000,0.000751,0.000164,-0.000231,0.405727,-0.034765,-0.301823,0.862021
21334,NaN,1.936751,-5.121255,8.099688,-0.289601,-0.084899,-0.040680,0.058796,0.013925,-0.042273,-0.301514,0.383301,-0.817627,0.019362,-0.051240,0.080980,1.000000,0.000294,0.000070,-0.000211,0.404893,-0.034517,-0.301547,0.862519
21335,NaN,1.686907,-5.259936,8.120507,-0.030334,-0.205733,0.006272,0.007606,-0.006413,-0.049137,-0.303467,0.379150,-0.813477,0.016854,-0.052607,0.081204,1.000000,0.000038,-0.000032,-0.000246,0.405096,-0.034402,-0.301535,0.862433
21336,NaN,1.557091,-5.344982,8.053117,0.134403,-0.224777,-0.026091,-0.016606,-0.031560,-0.058936,-0.303711,0.385498,-0.815674,0.015542,-0.053448,0.080538,1.000000,-0.000083,-0.000158,-0.000295,0.405166,-0.034392,-0.301637,0.862364
21337,NaN,1.456312,-5.493859,7.993844,0.324560,-0.200718,-0.011705,-0.012963,-0.049086,-0.063551,-0.303467,0.381104,-0.811523,0.014526,-0.054938,0.079946,1.000000,-0.000065,-0.000245,-0.000318,0.405363,-0.034112,-0.301803,0.862225
21338,NaN,1.374089,-5.590941,7.977984,0.452709,-0.207043,0.013154,0.000676,-0.068117,-0.061145,-0.303467,0.381104,-0.815430,0.013697,-0.055914,0.079784,1.000000,0.000003,-0.000341,-0.000306,0.404397,-0.033554,-0.301945,0.862651
21339,NaN,1.367387,-5.525667,7.936419,0.432677,-0.228669,-0.058202,0.029146,-0.068299,-0.057189,-0.305420,0.372803,-0.813477,0.013631,-0.055272,0.079361,1.000000,0.000146,-0.000341,-0.000286,0.404545,-0.033116,-0.301967,0.862591
21340,NaN,1.362324,-5.489492,7.933779,0.417846,-0.249652,-0.081378,0.071623,-0.072046,-0.046679,-0.305420,0.374756,-0.815430,0.013582,-0.054927,0.079323,1.000000,0.000358,-0.000360,-0.000233,0.405330,-0.033057,-0.301737,0.862305
21341,NaN,1.374522,-5.415454,7.994459,0.352240,-0.307347,-0.070548,0.094413,-0.065693,-0.037377,-0.307617,0.379150,-0.815430,0.013709,-0.054195,0.079924,1.000000,0.000472,-0.000328,-0.000187,0.405406,-0.032527,-0.301469,0.862383
21342,NaN,1.429905,-5.329578,7.998169,0.263800,-0.307734,-0.104164,0.102385,-0.066140,-0.030157,-0.303223,0.376953,-0.811279,0.014265,-0.053339,0.079959,1.000000,0.000512,-0.000331,-0.000151,0.405609,-0.032274,-0.301113,0.862421
21343,NaN,1.408197,-5.242743,7.974831,0.237305,-0.352888,-0.174926,0.091657,-0.060925,-0.020623,-0.309570,0.376953,-0.813477,0.014052,-0.052465,0.079729,1.000000,0.000458,-0.000305,-0.000103,0.405620,-0.031795,-0.300844,0.862528
21344,NaN,1.433668,-5.187836,7.857537,0.224759,-0.299692,-0.295882,0.078388,-0.063687,-0.014280,-0.309814,0.379150,-0.815430,0.014308,-0.051910,0.078560,1.000000,0.000392,-0.000318,-0.000071,0.404925,-0.031334,-0.300612,0.862952
21345,NaN,1.543089,-5.116205,7.878288,0.104640,-0.266900,-0.297336,0.051733,-0.067024,-0.007514,-0.307617,0.379150,-0.817627,0.015403,-0.051183,0.078775,1.000000,0.000259,-0.000335,-0.000038,0.404864,-0.030930,-0.300525,0.863026
21346,NaN,1.599998,-5.082700,7.934084,0.030625,-0.269038,-0.259143,0.032117,-0.066387,0.003002,-0.313721,0.370605,-0.811279,0.015974,-0.050839,0.079338,1.000000,0.000161,-0.000332,0.000015,0.403826,-0.030484,-0.300500,0.863536
21347,NaN,1.686163,-5.138688,7.944363,0.012478,-0.186783,-0.203987,0.024857,-0.051330,-0.002074,-0.311768,0.372803,-0.815430,0.016841,-0.051397,0.079442,1.000000,0.000124,-0.000257,-0.000010,0.403761,-0.030211,-0.300497,0.863578
21348,NaN,1.809758,-5.255274,7.932690,0.014894,-0.031756,-0.126643,0.083133,-0.035931,-0.003588,-0.312012,0.381348,-0.813477,0.018082,-0.052586,0.079308,1.000000,0.000416,-0.000180,-0.000018,0.402813,-0.029779,-0.300187,0.864143
21349,NaN,1.853857,-5.362074,8.061613,0.029481,-0.005933,0.045168,0.140871,-0.021758,-0.015778,-0.309570,0.375000,-0.819580,0.018526,-0.053679,0.080580,1.000000,0.000704,-0.000109,-0.000079,0.402869,-0.029380,-0.299624,0.864326
21350,NaN,2.018640,-5.340559,8.162962,-0.116035,0.062578,0.147886,0.183026,-0.009552,-0.016438,-0.311523,0.366455,-0.817383,0.020178,-0.053482,0.081582,1.000000,0.000915,-0.000048,-0.000082,0.401762,-0.028741,-0.298842,0.865133
21351,NaN,2.063072,-5.217066,8.388757,-0.281049,-0.067094,0.275017,0.188736,-0.001936,-0.009833,-0.309326,0.368408,-0.817383,0.020627,-0.052251,0.083838,1.000000,0.000944,-0.000010,-0.000049,0.401828,-0.028341,-0.298031,0.865395
21352,NaN,2.187926,-5.130171,8.514258,-0.449887,-0.068038,0.355459,0.176868,-0.002152,-0.009184,-0.311523,0.370605,-0.823486,0.021876,-0.051378,0.085097,1.000000,0.000884,-0.000011,-0.000046,0.402622,-0.028408,-0.297194,0.865312
21353,NaN,2.249857,-5.069696,8.525793,-0.523862,-0.048474,0.344872,0.153180,0.009979,-0.009918,-0.313477,0.366455,-0.817383,0.022500,-0.050763,0.085218,1.000000,0.000766,0.000050,-0.000050,0.402700,-0.028131,-0.296512,0.865518
21354,NaN,2.287870,-5.119784,8.510621,-0.503070,0.023545,0.366878,0.139814,0.017159,-0.016752,-0.311523,0.368408,-0.817383,0.022882,-0.051259,0.085068,1.000000,0.000699,0.000086,-0.000084,0.402242,-0.027876,-0.295838,0.865970
21355,NaN,2.366969,-5.259912,8.418659,-0.425161,0.205370,0.381433,0.127985,0.025222,-0.024828,-0.313721,0.368652,-0.819580,0.023674,-0.052656,0.084150,1.000000,0.000640,0.000126,-0.000124,0.402404,-0.027693,-0.295236,0.866106
21356,NaN,2.360018,-5.410454,8.260497,-0.267247,0.364297,0.330012,0.125680,0.030028,-0.035067,-0.313232,0.360107,-0.819336,0.023603,-0.054161,0.082567,1.000000,0.000628,0.000150,-0.000175,0.400826,-0.027064,-0.294640,0.867060
21357,NaN,2.344297,-5.462177,8.153502,-0.181878,0.441216,0.266149,0.124511,0.028293,-0.035818,-0.317627,0.364258,-0.821533,0.023445,-0.054677,0.081498,1.000000,0.000623,0.000141,-0.000179,0.401039,-0.026886,-0.294047,0.867168
21358,NaN,2.365230,-5.441015,8.167990,-0.208436,0.448754,0.270476,0.118840,0.027320,-0.046745,-0.311279,0.360107,-0.815186,0.023651,-0.054464,0.081644,1.000000,0.000594,0.000137,-0.000234,0.400009,-0.026401,-0.293480,0.867851
21359,NaN,2.384581,-5.388879,8.144534,-0.240612,0.455953,0.226929,0.116695,0.026195,-0.059144,-0.309082,0.357910,-0.825439,0.023841,-0.053943,0.081411,1.000000,0.000583,0.000131,-0.000296,0.400319,-0.026196,-0.292929,0.867901
21360,NaN,2.378952,-5.414427,8.058637,-0.186151,0.517390,0.168030,0.129331,0.039660,-0.076901,-0.311035,0.357910,-0.819336,0.023785,-0.054206,0.080547,1.000000,0.000647,0.000198,-0.000385,0.401101,-0.026248,-0.292253,0.867766
21361,NaN,2.343975,-5.365149,8.035838,-0.178054,0.488677,0.116220,0.141634,0.052911,-0.089722,-0.311035,0.355713,-0.821289,0.023437,-0.053719,0.080314,1.000000,0.000708,0.000265,-0.000449,0.401585,-0.026064,-0.291544,0.867786
21362,NaN,2.290947,-5.351666,7.953221,-0.117701,0.496560,0.030180,0.155173,0.062527,-0.105478,-0.309082,0.355713,-0.825439,0.022906,-0.053590,0.079483,1.000000,0.000776,0.000313,-0.000527,0.401843,-0.025876,-0.290746,0.867940
21363,NaN,2.231704,-5.284591,7.977669,-0.117386,0.420088,0.003642,0.146359,0.072305,-0.116129,-0.309082,0.355713,-0.823242,0.022315,-0.052917,0.079730,0.999999,0.000732,0.000362,-0.000581,0.402469,-0.025729,-0.289980,0.867910
21364,NaN,2.144961,-5.266144,7.901412,-0.039176,0.398062,-0.086155,0.137949,0.088922,-0.136081,-0.313232,0.355713,-0.821289,0.021449,-0.052731,0.078968,0.999999,0.000690,0.000445,-0.000680,0.403528,-0.025846,-0.289199,0.867676
