// Start Time: Unknown
// Update Rate: 100.0Hz
// Filter Profile: human (46.1)
// Firmware Version: 4.4.0
PacketCounter,SampleTimeFine,Acc_X,Acc_Y,Acc_Z,FreeAcc_X,FreeAcc_Y,FreeAcc_Z,Gyr_X,Gyr_Y,Gyr_Z,Mag_X,Mag_Y,Mag_Z,VelInc_X,VelInc_Y,VelInc_Z,OriInc_q0,OriInc_q1,OriInc_q2,OriInc_q3,Quat_q0,Quat_q1,Quat_q2,Quat_q3
41694,NaN,5.772759,-4.622430,9.265297,-0.000000,0.000000,2.042043,-2.792402,2.149008,-1.980340,-1.013428,0.012939,-0.125977,0.058270,-0.045506,0.092667,0.999796,-0.013961,0.010744,-0.009901,-0.091808,-0.239375,0.227713,-0.939371
41695,NaN,5.985416,-6.453404,5.771305,-0.000000,0.000000,0.712464,-2.908053,3.287160,-1.780664,-1.004639,-0.001953,-0.161865,0.060229,-0.064230,0.057661,0.999720,-0.014539,0.016434,-0.008902,-0.199139,-0.238283,0.411464,-0.856891
41696,NaN,4.897869,-6.550939,2.251809,-0.508683,4.114661,-2.410985,-2.294602,3.655922,-1.603987,-0.996094,-0.010498,-0.195557,0.048862,-0.065644,0.022377,0.999735,-0.011472,0.018278,-0.008019,-0.166227,-0.228470,0.319790,-0.904381
41697,NaN,6.225360,-4.892303,0.026392,-3.012145,4.643524,-4.151233,-1.650149,3.794941,-1.404727,-0.987061,-0.031738,-0.229248,0.061903,-0.049361,-0.000507,0.999761,-0.008250,0.018973,-0.007023,-0.180491,-0.212131,0.322417,-0.904694
41698,NaN,8.419519,-2.081226,0.176958,-6.092947,3.127312,-4.489357,-0.942293,3.968260,-1.264328,-0.978516,-0.040283,-0.269531,0.084076,-0.021341,0.000200,0.999772,-0.004711,0.019840,-0.006321,-0.194295,-0.196328,0.322950,-0.905212
41699,NaN,14.140652,1.000338,1.142792,-12.245966,1.971885,-2.857028,0.250114,4.161887,-1.222029,-0.967529,-0.057129,-0.299072,0.141661,0.009126,0.008493,0.999764,0.001250,0.020808,-0.006110,-0.206254,-0.179662,0.316500,-0.908300
41700,NaN,20.942113,6.524055,2.055792,-20.528009,-0.092574,-1.819471,1.191668,4.118852,-1.410431,-0.954590,-0.070068,-0.339111,0.210243,0.063653,0.016616,0.999745,0.005958,0.020593,-0.007052,-0.222541,-0.172305,0.308133,-0.908758
41701,NaN,28.360071,13.146475,2.105073,-30.284366,-1.686230,-1.973026,0.747727,3.689934,-1.862879,-0.935059,-0.089111,-0.368652,0.285138,0.128747,0.016284,0.999779,0.003738,0.018448,-0.009314,-0.235996,-0.159204,0.298958,-0.910815
41702,NaN,30.316520,10.004846,1.377585,-29.819960,2.744107,1.331045,0.670689,3.845314,-2.154858,-0.917480,-0.114746,-0.400146,0.304414,0.096739,0.008259,0.999752,0.003353,0.019225,-0.010773,-0.259285,-0.175122,0.282732,-0.906734
41703,NaN,30.750638,6.183784,0.081894,-28.151585,7.634934,1.715271,1.276160,3.652907,-2.676968,-0.901855,-0.144775,-0.427490,0.308249,0.057732,-0.004430,0.999723,0.006380,0.018263,-0.013384,-0.275395,-0.163952,0.269789,-0.908015
41704,NaN,24.640204,5.583508,-0.577413,-21.840658,7.261288,0.618252,1.178647,3.664273,-2.955500,-0.873535,-0.168213,-0.450684,0.247035,0.052238,-0.009982,0.999706,0.005893,0.018320,-0.014776,-0.311235,-0.196661,0.257262,-0.893462
41705,NaN,25.059178,4.186135,-0.267005,-20.916998,9.257937,1.242717,1.147128,3.257928,-3.246364,-0.857910,-0.202393,-0.471680,0.251142,0.037818,-0.006534,0.999719,0.005735,0.016288,-0.016230,-0.328711,-0.188013,0.243804,-0.892838
41706,NaN,26.408065,9.368565,1.080230,-22.826532,7.225594,4.779544,0.551673,3.029200,-3.503644,-0.831787,-0.225830,-0.490723,0.265793,0.089016,0.007035,0.999728,0.002758,0.015145,-0.017517,-0.378656,-0.243131,0.244225,-0.858988
41707,NaN,25.069579,12.111246,2.289942,-23.605406,5.383325,4.118511,-0.236615,3.151011,-3.424442,-0.809814,-0.253662,-0.522217,0.253038,0.116817,0.018785,0.999729,-0.001183,0.015754,-0.017121,-0.397395,-0.233266,0.235047,-0.855814
41708,NaN,22.994550,12.854104,2.853826,-19.923591,4.818068,6.974764,-1.409253,3.467554,-3.147699,-0.777832,-0.264404,-0.549805,0.232370,0.125074,0.023634,0.999701,-0.007046,0.017336,-0.015737,-0.451361,-0.300378,0.234663,-0.806833
41709,NaN,21.406833,13.531851,1.644161,-20.152886,5.633904,4.540680,-3.464554,3.626838,-2.736681,-0.750244,-0.262207,-0.583740,0.216118,0.132583,0.010222,0.999592,-0.017320,0.018132,-0.013682,-0.471673,-0.281019,0.236248,-0.801710
41710,NaN,19.566739,13.465176,1.474942,-16.307123,5.844400,6.499406,-4.864112,3.599712,-2.450967,-0.725342,-0.249023,-0.624023,0.197484,0.132488,0.007965,0.999467,-0.024316,0.017995,-0.012253,-0.526177,-0.345311,0.233820,-0.741098
41711,NaN,17.336902,12.511104,0.888197,-15.176483,6.479615,3.804186,-5.408834,3.509230,-2.189329,-0.698730,-0.227539,-0.662354,0.174807,0.123327,0.002471,0.999421,-0.027039,0.017543,-0.010945,-0.547422,-0.320442,0.240713,-0.734645
41712,NaN,14.686835,10.224700,2.340596,-9.289730,5.041213,4.813493,-4.925473,3.275670,-1.752997,-0.678223,-0.201660,-0.696533,0.148090,0.101448,0.018482,0.999524,-0.024623,0.016376,-0.008764,-0.596591,-0.380864,0.227616,-0.668740
41713,NaN,13.133544,8.660790,2.960695,-7.762871,4.725089,3.363767,-4.883564,2.922253,-1.239096,-0.651611,-0.176025,-0.719971,0.132265,0.086448,0.025566,0.999576,-0.024414,0.014609,-0.006195,-0.613104,-0.357777,0.232771,-0.664768
41714,NaN,11.280210,5.218826,0.644929,-2.841267,5.875515,0.783138,-5.422375,2.690464,-0.814746,-0.633545,-0.141602,-0.743652,0.113074,0.051850,0.003520,0.999534,-0.027108,0.013450,-0.004073,-0.653362,-0.403373,0.217144,-0.602707
41715,NaN,8.583937,-0.564225,-2.019490,1.733282,6.929097,-4.610815,-5.888940,2.223949,-0.537879,-0.615723,-0.098633,-0.758789,0.085592,-0.006483,-0.020965,0.999501,-0.029440,0.011118,-0.002689,-0.668946,-0.377821,0.226430,-0.598742
41716,NaN,6.312114,-3.093391,-4.459426,4.205200,7.086404,-8.633887,-5.962616,1.864775,-0.326262,-0.602295,-0.055908,-0.778320,0.062656,-0.032359,-0.044229,0.999511,-0.029808,0.009322,-0.001631,-0.703542,-0.404747,0.219007,-0.541520
41717,NaN,3.398015,-4.960821,-5.192795,5.196450,5.623258,-11.930676,-5.461916,1.536454,-0.067281,-0.593018,-0.017090,-0.791260,0.033570,-0.051017,-0.050806,0.999598,-0.027306,0.007681,-0.000336,-0.716175,-0.381288,0.228165,-0.538194
41718,NaN,-0.514161,-6.942242,-4.045242,5.791697,1.764935,-15.118679,-4.391004,1.093716,0.205265,-0.587646,0.017090,-0.795654,-0.005285,-0.070293,-0.038887,0.999744,-0.021953,0.005468,0.001026,-0.740710,-0.397696,0.227212,-0.491489
41719,NaN,-3.584044,-8.889051,-2.988059,6.490105,-1.439692,-17.335130,-3.044050,0.468796,0.325021,-0.583984,0.038574,-0.798096,-0.035763,-0.089389,-0.028439,0.999880,-0.015220,0.002344,0.001625,-0.746408,-0.384854,0.233575,-0.490108
41720,NaN,-5.267447,-9.268712,-3.336047,5.643541,-2.274312,-19.180701,-1.766477,-0.197926,0.285507,-0.590820,0.053467,-0.791748,-0.052509,-0.093052,-0.032592,0.999959,-0.008832,-0.000990,0.001428,-0.757847,-0.399604,0.234410,-0.459388
41721,NaN,-6.180931,-9.044441,-3.239214,5.093595,-2.807669,-19.644782,-0.474462,-0.916131,0.396704,-0.603516,0.053467,-0.781250,-0.061481,-0.090644,-0.032459,0.999985,-0.002372,-0.004581,0.001984,-0.756798,-0.399440,0.239761,-0.458497
41722,NaN,-6.320844,-10.298854,-3.487078,5.832403,-2.776053,-20.603890,1.123908,-1.726513,0.718222,-0.609619,0.044922,-0.766357,-0.062531,-0.103014,-0.035991,0.999941,0.005619,-0.008632,0.003591,-0.755104,-0.418154,0.242897,-0.442680
41723,NaN,-4.348710,-9.620179,-4.603878,6.251329,-0.389242,-19.477447,2.836003,-2.522036,1.004159,-0.636475,0.027832,-0.751221,-0.042409,-0.095746,-0.047938,0.999807,0.014179,-0.012609,0.005020,-0.743744,-0.433143,0.248195,-0.444557
41724,NaN,-0.614958,-7.827222,-5.371111,6.392261,2.804411,-16.273924,4.307078,-2.812053,1.011828,-0.652588,0.001953,-0.731934,-0.004986,-0.077118,-0.055456,0.999656,0.021533,-0.014059,0.005059,-0.729686,-0.458946,0.252283,-0.439636
41725,NaN,-0.025144,-6.710672,-5.556602,5.567742,3.873135,-15.279761,5.092153,-2.638481,0.791011,-0.672852,-0.032471,-0.712646,0.000758,-0.065662,-0.057245,0.999581,0.025457,-0.013191,0.003955,-0.712631,-0.482131,0.252425,-0.442706
41726,NaN,-0.992525,-6.941219,-6.178180,5.121975,4.511322,-16.194318,5.224597,-2.345098,0.600419,-0.688965,-0.056152,-0.689209,-0.008981,-0.067793,-0.063676,0.999586,0.026119,-0.011724,0.003002,-0.694148,-0.507499,0.256153,-0.441576
41727,NaN,-2.450609,-4.450092,-7.623469,1.877597,5.987978,-16.485289,5.045996,-2.256767,0.602107,-0.707031,-0.088379,-0.665527,-0.023505,-0.042626,-0.077595,0.999614,0.025227,-0.011282,0.003010,-0.676858,-0.529025,0.254274,-0.444231
41728,NaN,1.451466,-1.980023,-6.414390,1.576711,6.504712,-11.350505,4.307089,-2.390800,0.770357,-0.718994,-0.107666,-0.642090,0.015356,-0.018357,-0.064369,0.999689,0.021533,-0.011953,0.003851,-0.656831,-0.550416,0.262590,-0.443465
41729,NaN,2.946146,-3.673778,-3.044108,4.116220,3.807088,-9.873273,2.947324,-2.166229,0.945133,-0.735840,-0.114014,-0.627197,0.029964,-0.036146,-0.030654,0.999822,0.014736,-0.010830,0.004725,-0.643663,-0.563559,0.265723,-0.444398
41730,NaN,4.646198,-3.736905,1.192169,5.571882,0.157203,-7.383246,1.778191,-1.925007,1.020022,-0.752686,-0.116211,-0.610107,0.046537,-0.037239,0.012038,0.999901,0.008891,-0.009625,0.005100,-0.627847,-0.575315,0.279223,-0.443684
41731,NaN,3.838687,-0.918778,2.885026,2.991260,-1.874067,-6.429954,1.210064,-1.725843,0.980011,-0.767578,-0.114258,-0.595459,0.038181,-0.009176,0.029125,0.999932,0.006050,-0.008629,0.004900,-0.619741,-0.581535,0.284756,-0.443455
41732,NaN,4.539159,4.633040,2.497151,-1.751878,-1.937016,-3.372089,1.470923,-1.674577,0.990731,-0.771484,-0.118652,-0.578369,0.044949,0.046367,0.025690,0.999926,0.007354,-0.008373,0.004954,-0.604151,-0.589943,0.296159,-0.446383
41733,NaN,6.306714,9.762509,4.364426,-5.250073,-4.134508,0.649822,1.839713,-1.419984,0.877805,-0.781982,-0.122803,-0.559326,0.062323,0.097490,0.044986,0.999923,0.009198,-0.007100,0.004389,-0.594616,-0.597324,0.298909,-0.447536
41734,NaN,7.204207,9.843415,6.567824,-4.547462,-6.538127,1.522827,2.390003,-0.815750,0.547587,-0.792236,-0.131592,-0.546387,0.071502,0.097834,0.067142,0.999917,0.011950,-0.004079,0.002738,-0.580881,-0.606752,0.300658,-0.451700
41735,NaN,6.827015,6.394882,9.240926,-0.880530,-8.948164,-0.218997,3.673944,-0.057861,0.242235,-0.785400,-0.146484,-0.550537,0.068167,0.062319,0.093584,0.999831,0.018369,-0.000289,0.001211,-0.569003,-0.617086,0.293213,-0.457674
41736,NaN,6.111345,4.736143,5.155760,-0.347058,-4.943785,-1.951977,5.125797,0.856988,-0.067995,-0.777832,-0.185059,-0.539795,0.061353,0.046003,0.052486,0.999662,0.025626,0.004284,-0.000340,-0.554197,-0.629085,0.278769,-0.468408
41737,NaN,7.276730,2.070560,-3.404984,0.107663,3.955758,-2.521031,7.572597,1.380432,-0.643887,-0.772217,-0.232178,-0.522461,0.072603,0.021753,-0.033741,0.999254,0.037854,0.006900,-0.003219,-0.533402,-0.647259,0.254982,-0.481168
41738,NaN,9.703030,-5.493216,-1.366588,8.074842,4.801412,-3.653762,3.387211,-0.231147,-1.077551,-0.778320,-0.238770,-0.513916,0.096750,-0.055213,-0.014487,0.999841,0.016935,-0.001156,-0.005387,-0.524717,-0.657605,0.243804,-0.482481
41739,NaN,18.256911,-11.575202,-6.195417,14.851317,12.853791,1.137066,1.267420,-1.925807,-0.138037,-0.792969,-0.243164,-0.482178,0.183079,-0.115490,-0.060925,0.999933,0.006337,-0.009629,-0.000690,-0.518500,-0.665700,0.245328,-0.477299
41740,NaN,21.012927,-0.221699,-12.347421,3.813113,14.607802,9.319664,4.340161,-2.150914,1.285962,-0.802979,-0.260254,-0.458740,0.211438,0.001787,-0.121195,0.999686,0.021699,-0.010753,0.006429,-0.491765,-0.680337,0.246050,-0.484529
41741,NaN,10.742645,16.899176,-15.120808,-15.569622,7.997855,8.162474,4.133742,-3.129101,0.154984,-0.817139,-0.275391,-0.427002,0.109605,0.172129,-0.145968,0.999664,0.020666,-0.015644,0.000775,-0.473315,-0.697661,0.244174,-0.479188
41742,NaN,9.892849,5.019709,3.440503,1.776285,-4.393595,0.790812,2.206286,-2.121790,-0.420808,-0.823486,-0.273438,-0.399414,0.098657,0.049598,0.036002,0.999881,0.011031,-0.010609,-0.002104,-0.455793,-0.711659,0.243855,-0.475739
41743,NaN,11.136591,-7.032184,3.011773,11.634915,1.557422,-3.123220,1.746820,-1.577106,0.665507,-0.832031,-0.273438,-0.380371,0.111361,-0.070216,0.030382,0.999925,0.008734,-0.007885,0.003327,-0.446037,-0.718527,0.245644,-0.473738
41744,NaN,14.673571,-6.652439,-8.988763,7.001408,11.835677,2.484996,1.872009,-2.339795,1.929402,-0.844971,-0.262695,-0.363525,0.148406,-0.064264,-0.088766,0.999841,0.009360,-0.011698,0.009646,-0.423358,-0.727478,0.253455,-0.476764
41745,NaN,16.856498,1.829853,-0.464141,5.278136,-0.185525,6.305292,1.330328,-1.493913,2.595544,-0.862305,-0.250000,-0.346680,0.168336,0.020509,-0.003252,0.999866,0.006651,-0.007469,0.012977,-0.410383,-0.730468,0.262853,-0.478446
41746,NaN,22.346195,5.502839,1.704521,5.275817,-4.715657,12.151255,1.079763,-2.224323,2.496002,-0.879883,-0.224365,-0.327637,0.222543,0.057708,0.019830,0.999846,0.005399,-0.011121,0.012479,-0.386907,-0.736549,0.273093,-0.482928
41747,NaN,20.127168,4.828905,-3.778595,2.010692,-0.437251,11.125832,0.845254,-2.231076,2.462948,-0.893066,-0.207275,-0.293945,0.201059,0.050919,-0.035331,0.999853,0.004226,-0.011155,0.012314,-0.374744,-0.740100,0.284398,-0.480559
41748,NaN,14.793881,4.575801,-2.446389,0.514103,-1.788799,5.753038,1.053446,-1.750563,2.899897,-0.900146,-0.177246,-0.285645,0.147459,0.048022,-0.022923,0.999843,0.005267,-0.008752,0.014499,-0.353302,-0.742986,0.294254,-0.486378
41749,NaN,18.562317,3.588310,-3.379832,1.796637,-1.361389,9.259056,0.728597,-1.166277,3.626225,-0.907471,-0.145264,-0.275391,0.185123,0.039363,-0.032579,0.999812,0.003643,-0.005831,0.018130,-0.339995,-0.741635,0.307958,-0.489431
41750,NaN,21.364030,2.753211,-1.999723,3.417396,-3.007965,11.334581,0.546864,-0.726797,4.057391,-0.918945,-0.117432,-0.262695,0.213093,0.031912,-0.019139,0.999784,0.002734,-0.003634,0.020285,-0.321191,-0.738495,0.321245,-0.498260
41751,NaN,28.901632,7.207600,3.671289,4.574081,-12.132382,17.251968,1.740363,-1.964994,3.419880,-0.934326,-0.091797,-0.241699,0.287348,0.076660,0.040196,0.999768,0.008701,-0.009824,0.017098,-0.303015,-0.740521,0.332617,-0.499176
41752,NaN,30.984089,17.742188,4.378175,-3.229304,-20.458547,19.595224,1.619491,-2.296366,2.728430,-0.943604,-0.068115,-0.216553,0.306845,0.181240,0.048774,0.999808,0.008097,-0.011481,0.013641,-0.283235,-0.743666,0.340331,-0.500913
41753,NaN,27.292535,14.808989,5.853072,-1.299284,-19.922701,14.677253,1.318986,-1.805418,2.472641,-0.948486,-0.044678,-0.204102,0.270521,0.151043,0.061970,0.999861,0.006595,-0.009027,0.012363,-0.269027,-0.745745,0.348730,-0.499876
41754,NaN,21.083585,10.090420,7.420391,1.461169,-17.193248,7.611574,1.532018,-1.782420,2.434537,-0.953369,-0.021240,-0.187256,0.208914,0.102873,0.076855,0.999857,0.007660,-0.008912,0.012172,-0.256419,-0.746033,0.355617,-0.501219
41755,NaN,18.386404,7.485102,6.823203,2.405275,-14.915113,4.759888,1.370803,-1.901625,2.516611,-0.953613,-0.006104,-0.172607,0.182244,0.076673,0.070491,0.999852,0.006854,-0.009508,0.012582,-0.241580,-0.747972,0.363954,-0.499715
41756,NaN,16.061022,9.695021,4.821409,-1.221983,-14.425495,3.055063,0.965147,-1.825182,2.264186,-0.962646,0.012939,-0.159912,0.159049,0.098518,0.050143,0.999883,0.004826,-0.009126,0.011320,-0.233087,-0.747043,0.371858,-0.499319
41757,NaN,13.124027,9.871888,2.493384,-3.427769,-12.263531,0.852482,1.301657,-1.771301,2.155243,-0.963135,0.034424,-0.143311,0.129936,0.099954,0.026736,0.999882,0.006508,-0.008856,0.010776,-0.219524,-0.748886,0.378679,-0.497575
41758,NaN,8.043059,9.994806,-0.132289,-6.251380,-8.882027,-2.984737,1.262266,-2.097539,2.122999,-0.959717,0.060059,-0.126465,0.079367,0.100796,0.000148,0.999869,0.006311,-0.010487,0.010615,-0.210952,-0.748760,0.386236,-0.495661
41759,NaN,6.516477,7.987253,-1.574417,-5.834562,-6.305364,-3.902386,1.099907,-2.352255,2.051706,-0.972656,0.068604,-0.099121,0.064516,0.080619,-0.014541,0.999863,0.005499,-0.011761,0.010258,-0.197178,-0.751685,0.393619,-0.491075
41760,NaN,5.626960,10.948226,0.630879,-7.136969,-9.340012,-6.105476,0.883567,-2.476655,1.715931,-0.964600,0.089844,-0.080322,0.055240,0.109928,0.007482,0.999877,0.004418,-0.012383,0.008579,-0.190703,-0.752701,0.401741,-0.485466
41761,NaN,2.526835,15.755129,4.335725,-9.435785,-13.493611,-11.325426,0.098916,-2.736623,1.073793,-0.971191,0.098389,-0.057129,0.023825,0.157660,0.043768,0.999892,0.000495,-0.013683,0.005369,-0.182207,-0.757200,0.408108,-0.476337
41762,NaN,0.555689,19.694558,7.702470,-11.479916,-16.966304,-15.090208,-1.807424,-2.529516,0.239266,-0.971191,0.102783,-0.035889,0.004361,0.197637,0.075301,0.999878,-0.009037,-0.012647,0.001196,-0.190349,-0.758162,0.418198,-0.462675
41763,NaN,2.305397,14.519906,2.650258,-10.001587,-11.076851,-10.455294,-3.994568,-1.781328,-0.210182,-0.966797,0.100586,-0.019043,0.022987,0.145668,0.023801,0.999760,-0.019971,-0.008906,-0.001051,-0.202206,-0.758739,0.428237,-0.447260
41764,NaN,0.090120,7.042099,5.716774,-3.308560,-7.797131,-13.056010,-5.387403,-0.797868,-0.663779,-0.973145,0.098389,-0.008301,0.000915,0.071924,0.055247,0.999624,-0.026934,-0.003989,-0.003318,-0.230619,-0.752465,0.442200,-0.430198
41765,NaN,-2.126445,6.960490,9.611814,-2.447802,-9.502438,-16.816649,-3.213178,-0.368414,-0.981343,-0.964111,0.085449,-0.008301,-0.021093,0.071240,0.094943,0.999857,-0.016065,-0.001842,-0.004906,-0.243971,-0.751615,0.445781,-0.420514
41766,NaN,-2.517142,4.140222,10.000625,-0.391217,-8.350945,-17.133357,-2.281007,0.212401,-1.048621,-0.970215,0.076904,-0.014648,-0.024844,0.042670,0.099551,0.999921,-0.011405,0.001062,-0.005243,-0.262780,-0.746854,0.449948,-0.413162
41767,NaN,-0.012789,-5.297263,7.664811,7.567664,-3.521417,-13.952313,-2.368819,0.864729,-1.233654,-0.970215,0.070557,-0.025146,-0.000118,-0.052059,0.077269,0.999901,-0.011844,0.004324,-0.006168,-0.276094,-0.744657,0.449054,-0.409401
41768,NaN,-0.319471,-12.725527,4.934578,13.090278,1.681668,-13.306014,-1.519754,1.485061,-1.275582,-0.973877,0.053467,-0.043945,-0.003633,-0.126853,0.050337,0.999923,-0.007599,0.007425,-0.006378,-0.293787,-0.738931,0.448068,-0.408541
41769,NaN,1.398180,-8.979506,5.077080,10.201887,-0.843467,-11.702948,-0.487210,2.450645,-0.964482,-0.971680,0.047119,-0.065186,0.014171,-0.089739,0.050817,0.999910,-0.002436,0.012253,-0.004822,-0.303021,-0.735304,0.441860,-0.415050
41770,NaN,0.499758,-4.384122,6.271037,6.232326,-3.502786,-12.584443,0.164357,3.171839,-0.912501,-0.976074,0.042969,-0.096680,0.005791,-0.043918,0.062587,0.999864,0.000822,0.015858,-0.004562,-0.314874,-0.728570,0.434455,-0.425780
41771,NaN,1.398471,0.284991,4.936595,1.837123,-4.730812,-10.618080,-0.117762,3.406939,-1.130094,-0.969482,0.028076,-0.130615,0.014839,0.002797,0.049116,0.999839,-0.000589,0.017034,-0.005650,-0.325059,-0.723469,0.425156,-0.436087
41772,NaN,2.955550,3.234164,1.243498,-1.727215,-3.330935,-7.231904,-1.360367,3.603891,-1.274186,-0.973633,0.021729,-0.164307,0.029976,0.032233,0.011678,0.999794,-0.006801,0.018018,-0.006370,-0.343288,-0.713886,0.418327,-0.444436
41773,NaN,5.257247,4.184075,0.882299,-2.139725,-3.912581,-4.710753,-1.739004,3.809305,-1.341445,-0.962891,0.015381,-0.200195,0.053003,0.041555,0.007454,0.999758,-0.008694,0.019045,-0.006707,-0.360360,-0.705070,0.410764,-0.451985
41774,NaN,8.436130,1.380843,1.889288,1.511214,-4.164159,-2.262289,-1.273955,3.968197,-1.462012,-0.954102,0.002686,-0.236084,0.084811,0.013302,0.017127,0.999756,-0.006369,0.019839,-0.007309,-0.379188,-0.694600,0.402083,-0.460517
41775,NaN,11.476578,2.176877,1.931647,1.577791,-4.737527,0.921573,-0.800331,4.157444,-1.628168,-0.947510,-0.012207,-0.282471,0.115306,0.020902,0.016838,0.999743,-0.004001,0.020785,-0.008140,-0.393977,-0.686605,0.390286,-0.470141
41776,NaN,14.960117,2.255047,0.481872,1.898320,-3.373491,4.819300,-1.012200,4.337373,-1.750865,-0.934814,-0.020752,-0.316406,0.149847,0.021252,0.001461,0.999714,-0.005061,0.021685,-0.008753,-0.412683,-0.675668,0.378697,-0.479327
41777,NaN,20.414503,4.486772,-1.085431,0.782118,-2.543266,10.945352,-1.245744,4.237945,-1.958618,-0.923584,-0.041992,-0.358398,0.204276,0.042781,-0.015453,0.999708,-0.006228,0.021188,-0.009792,-0.429489,-0.666453,0.366212,-0.487103
41778,NaN,25.961735,6.411424,-1.175151,0.549162,-2.295407,16.847919,-0.876824,4.190672,-2.298053,-0.906250,-0.061279,-0.396484,0.260005,0.061060,-0.017469,0.999705,-0.004384,0.020951,-0.011489,-0.448032,-0.656540,0.352144,-0.494184
41779,NaN,31.303016,9.670448,1.619185,0.223419,-4.714239,22.645159,-0.431814,4.354759,-2.703932,-0.886719,-0.082520,-0.432373,0.314550,0.092483,0.009151,0.999669,-0.002159,0.021771,-0.013518,-0.463649,-0.649356,0.334465,-0.501498
41780,NaN,30.228053,12.268962,2.602466,-1.708532,-4.803711,22.510592,0.073910,4.691769,-2.854128,-0.862793,-0.108154,-0.476562,0.304490,0.118347,0.018943,0.999623,0.000370,0.023456,-0.014269,-0.480646,-0.640540,0.314525,-0.509668
41781,NaN,27.428107,9.988861,3.061632,0.127528,-3.103766,19.369222,0.142349,4.755133,-3.137248,-0.836670,-0.133789,-0.508301,0.276428,0.095545,0.024130,0.999594,0.000712,0.023772,-0.015684,-0.495466,-0.633439,0.292562,-0.517374
41782,NaN,26.975498,5.187756,3.458083,4.864428,-0.326352,17.437595,0.454397,4.362659,-3.602114,-0.810547,-0.163574,-0.543945,0.271300,0.046930,0.028784,0.999597,0.002272,0.021810,-0.018008,-0.512036,-0.626604,0.269584,-0.522026
41783,NaN,28.960107,9.173159,3.246680,2.623872,0.299473,20.620956,1.529949,3.342309,-3.953805,-0.786133,-0.199951,-0.562988,0.291832,0.085750,0.028273,0.999636,0.007649,0.016710,-0.019767,-0.521880,-0.626898,0.244551,-0.524247
41784,NaN,29.642549,16.025947,1.280304,-2.799890,1.310503,23.763487,1.024387,2.629905,-4.549912,-0.757568,-0.234131,-0.583984,0.300109,0.153405,0.009670,0.999642,0.005121,0.013148,-0.022747,-0.535473,-0.626600,0.221006,-0.521342
41785,NaN,28.964331,17.727571,1.169924,-3.413297,2.026330,23.929409,-0.873940,2.691874,-4.645733,-0.725098,-0.253418,-0.604980,0.293772,0.170521,0.007008,0.999630,-0.004369,0.013458,-0.023226,-0.553096,-0.622145,0.201442,-0.516179
41786,NaN,26.702238,18.405988,3.094147,-3.074563,1.037629,22.599472,-2.412673,2.365314,-4.701292,-0.699463,-0.264160,-0.638916,0.271579,0.178041,0.025575,0.999581,-0.012062,0.011825,-0.023503,-0.576519,-0.612746,0.186791,-0.507226
41787,NaN,20.316444,16.195829,-0.112947,-4.630598,3.904801,15.448383,-4.898181,3.386341,-3.790041,-0.659668,-0.251221,-0.681396,0.206081,0.157923,-0.008504,0.999377,-0.024486,0.016928,-0.018946,-0.603936,-0.593200,0.177725,-0.501786
41788,NaN,16.087259,8.574130,-0.336809,-0.078043,5.488364,7.570660,-5.797505,3.526960,-2.977241,-0.626709,-0.225342,-0.721924,0.162002,0.083135,-0.008654,0.999314,-0.028981,0.017631,-0.014883,-0.632709,-0.568282,0.172962,-0.496809
41789,NaN,12.173678,3.910518,-0.564966,2.042095,5.534694,1.543586,-5.904508,3.375384,-2.136548,-0.593994,-0.190918,-0.756104,0.122013,0.037573,-0.008832,0.999365,-0.029516,0.016873,-0.010680,-0.657306,-0.542710,0.170770,-0.494220
41790,NaN,9.793185,1.530776,-0.504659,3.026735,5.053480,-1.825777,-5.697639,3.051465,-1.467962,-0.569824,-0.152100,-0.786133,0.097943,0.014409,-0.006960,0.999451,-0.028483,0.015255,-0.007338,-0.679259,-0.516985,0.170842,-0.492084
41791,NaN,7.630542,0.495264,-1.261459,2.746150,4.936672,-4.507672,-5.601853,2.725771,-0.990719,-0.551758,-0.113525,-0.801270,0.076145,0.004200,-0.013778,0.999503,-0.028005,0.013627,-0.004953,-0.698165,-0.491846,0.172721,-0.490735
41792,NaN,5.502998,-2.509478,-0.470180,4.577934,3.137797,-7.363637,-4.865015,1.933192,-0.761122,-0.533691,-0.081299,-0.820557,0.054889,-0.025417,-0.004617,0.999650,-0.024322,0.009665,-0.003805,-0.713351,-0.470505,0.175994,-0.488653
41793,NaN,4.319996,-2.692692,-1.115259,4.111463,2.984473,-8.653089,-4.238280,1.229388,-0.677368,-0.522217,-0.042725,-0.831543,0.043041,-0.027305,-0.010842,0.999751,-0.021190,0.006146,-0.003387,-0.725880,-0.452864,0.180326,-0.485278
41794,NaN,2.966629,-3.850280,-2.258891,4.358790,2.968179,-10.770143,-3.700710,0.469286,-0.514822,-0.514648,-0.012695,-0.835938,0.029514,-0.038989,-0.021940,0.999823,-0.018502,0.002346,-0.002574,-0.735229,-0.438745,0.186443,-0.481851
41795,NaN,1.691126,-4.922163,-2.243045,4.790611,1.955577,-12.123951,-3.230859,-0.182366,-0.216760,-0.517578,0.015137,-0.836182,0.016878,-0.049594,-0.021616,0.999869,-0.016154,-0.000912,-0.001084,-0.742572,-0.427452,0.194396,-0.477579
41796,NaN,-1.640332,-5.420566,-2.408920,3.687244,-0.634685,-14.698932,-2.845417,-0.771602,0.124100,-0.526855,0.038574,-0.827881,-0.016278,-0.054552,-0.023378,0.999891,-0.014227,-0.003858,0.000620,-0.788334,-0.397437,0.243274,-0.401735
41797,NaN,-5.925007,-8.000642,-3.091528,3.562039,-2.982297,-19.144866,-1.919219,-1.427017,0.547014,-0.533936,0.064453,-0.819580,-0.058811,-0.080462,-0.030565,0.999925,-0.009596,-0.007135,0.002735,-0.789255,-0.392042,0.253822,-0.398691
41798,NaN,-7.925569,-8.724312,-4.408997,2.662795,-3.605184,-21.571708,-0.326196,-2.078206,1.046930,-0.548828,0.064209,-0.815186,-0.078334,-0.087727,-0.044764,0.999931,-0.001631,-0.010391,0.005235,-0.821876,-0.363699,0.304638,-0.315338
41799,NaN,-9.082855,-7.124538,-6.347544,1.546413,-1.340868,-22.825898,1.482012,-2.560676,1.479851,-0.567627,0.064209,-0.791992,-0.089473,-0.071432,-0.065156,0.999863,0.007410,-0.012803,0.007399,-0.812836,-0.371522,0.315473,-0.318977
41800,NaN,-8.840723,-7.482934,-7.402996,2.456445,-0.732988,-23.316556,3.232376,-2.878585,1.812019,-0.586182,0.040771,-0.781250,-0.086643,-0.074397,-0.076490,0.999725,0.016160,-0.014392,0.009059,-0.829928,-0.347852,0.366138,-0.236984
41801,NaN,-7.054978,-8.068354,-8.284990,4.703141,0.361572,-22.509696,4.605760,-3.052339,1.998683,-0.606445,0.017090,-0.766113,-0.068458,-0.079422,-0.085744,0.999568,0.023025,-0.015260,0.009992,-0.813606,-0.366769,0.376663,-0.248297
41802,NaN,-3.175881,-7.436395,-7.882396,6.862062,0.079934,-18.778298,5.207568,-3.023764,1.976353,-0.627197,-0.004395,-0.749023,-0.029820,-0.072571,-0.081190,0.999498,0.026033,-0.015116,0.009880,-0.819049,-0.342809,0.426467,-0.172530
41803,NaN,-0.206198,-8.150561,-4.754516,7.450250,-2.154613,-15.189239,4.895697,-2.478690,1.767911,-0.638916,-0.028076,-0.729736,-0.000743,-0.080320,-0.049536,0.999585,0.024475,-0.012392,0.008838,-0.803510,-0.361081,0.435246,-0.185887
41804,NaN,3.056162,-5.053973,-1.982800,5.429105,-3.047825,-10.025663,4.260228,-2.322510,1.558915,-0.648926,-0.047363,-0.716797,0.031188,-0.049866,-0.020535,0.999675,0.021299,-0.011611,0.007794,-0.805001,-0.328384,0.480492,-0.115175
41805,NaN,11.140430,0.271587,0.977183,4.767484,-1.903354,0.126153,2.886215,-2.048059,1.210253,-0.665771,-0.055908,-0.708252,0.111278,0.003237,0.010956,0.999825,0.014430,-0.010240,0.006051,-0.794505,-0.338214,0.488975,-0.123597
41806,NaN,15.010669,2.987214,5.291696,1.356518,-3.614460,5.914299,0.799943,-0.979856,0.654660,-0.666016,-0.047363,-0.706299,0.149746,0.030149,0.053771,0.999975,0.004000,-0.004899,0.003273,-0.798510,-0.291914,0.523840,-0.052538
41807,NaN,17.583462,8.865390,12.097609,-5.349773,-2.804177,12.495125,-1.293266,0.043453,0.030538,-0.661865,-0.041016,-0.710449,0.175847,0.089460,0.120361,0.999979,-0.006466,0.000217,0.000153,-0.800487,-0.286652,0.524039,-0.049335
41808,NaN,16.866865,12.100984,16.277069,-10.173354,-0.038771,14.524987,-2.216857,1.907437,-0.455349,-0.634766,-0.032471,-0.729736,0.170480,0.122405,0.159799,0.999891,-0.011084,0.009537,-0.002277,-0.809557,-0.233822,0.537998,0.022396
41809,NaN,8.643855,9.996481,12.159705,-9.084406,2.034124,5.543986,0.382758,2.368180,-0.539878,-0.621826,-0.038818,-0.738037,0.088141,0.099497,0.120751,0.999924,0.001914,0.011841,-0.002699,-0.815359,-0.237071,0.527783,0.020782
41810,NaN,0.016685,6.371056,8.930475,-8.757896,3.521255,-4.223784,2.709148,0.829641,-0.422059,-0.620850,-0.068848,-0.735840,0.000672,0.062492,0.090155,0.999897,0.013545,0.004148,-0.002110,-0.811380,-0.210813,0.540409,0.071965
41811,NaN,-7.132568,1.684199,-0.450400,-2.702702,4.102510,-15.269537,5.482249,-0.362273,-0.235487,-0.625488,-0.122314,-0.722656,-0.071298,0.017043,-0.004168,0.999622,0.027408,-0.001811,-0.001177,-0.804232,-0.233477,0.543398,0.058463
41812,NaN,-12.582248,-4.273854,-23.322501,17.649284,6.847469,-28.829685,9.950504,-0.969636,-0.184962,-0.625732,-0.186768,-0.694580,-0.124716,-0.030938,-0.235567,0.998750,0.049732,-0.004846,-0.000924,-0.785801,-0.239239,0.564540,0.081100
41813,NaN,-6.117232,-27.826220,-24.631226,25.780526,-13.715138,-33.576598,8.639385,-2.278365,0.934485,-0.641602,-0.221191,-0.673340,-0.057005,-0.267536,-0.258691,0.998991,0.043182,-0.011388,0.004671,-0.768628,-0.269369,0.577538,0.055695
41814,NaN,23.674587,-30.180205,64.056234,-52.150589,-49.605544,9.892159,-11.129582,-1.758907,1.369663,-0.651367,-0.105225,-0.699463,0.232902,-0.263891,0.658016,0.998390,-0.055618,-0.008790,0.006845,-0.772155,-0.191608,0.593083,0.123757
41815,NaN,30.538161,38.748211,-13.578313,19.967167,24.039234,30.706252,-1.811265,-0.976530,0.849180,-0.662842,-0.148193,-0.679932,0.304406,0.387534,-0.137805,0.999938,-0.009056,-0.004883,0.004246,-0.771472,-0.181480,0.596509,0.126778
41816,NaN,37.442295,38.285605,-36.513684,43.406085,21.367111,33.270801,11.939462,-2.768831,-0.819029,-0.675049,-0.229736,-0.626465,0.380834,0.401962,-0.336266,0.998114,0.059660,-0.013835,-0.004093,-0.746028,-0.200830,0.621895,0.127894
41817,NaN,19.705895,-13.269205,6.956771,-2.094151,-21.559204,2.169784,5.900885,-2.730326,-0.231819,-0.687500,-0.238525,-0.607422,0.195965,-0.134947,0.068288,0.999471,0.029499,-0.013649,-0.001159,-0.731073,-0.221706,0.635288,0.113086
41818,NaN,0.814629,-8.014948,0.031143,0.454149,-7.467347,-12.801500,-2.168836,-3.139550,0.529379,-0.715332,-0.223633,-0.590576,0.008343,-0.080117,0.001310,0.999814,-0.010844,-0.015697,0.002647,-0.719055,-0.188223,0.653145,0.144686
41819,NaN,-3.290173,5.166055,5.884948,-6.380100,5.599514,-10.085630,1.712486,-3.915308,1.870059,-0.732178,-0.225830,-0.548096,-0.034529,0.050840,0.058622,0.999728,0.008562,-0.019575,0.009349,-0.705816,-0.185389,0.670041,0.136016
41820,NaN,11.613120,-2.941509,-14.717568,14.978500,-7.200016,-0.658406,3.389856,-4.284334,3.545917,-0.768555,-0.212891,-0.524902,0.119722,-0.024842,-0.145083,0.999470,0.016946,-0.021418,0.017726,-0.686663,-0.162019,0.695672,0.135219
41821,NaN,21.223490,-3.636071,0.005841,-0.194683,-11.671902,8.278855,-0.837674,-1.940749,4.137251,-0.780273,-0.174561,-0.512451,0.212912,-0.031954,0.002262,0.999730,-0.004188,-0.009703,0.020684,-0.683204,-0.143397,0.704932,0.125465
41822,NaN,23.684426,-0.754497,-2.437282,1.010758,-9.139819,12.159825,-0.024792,-3.348650,3.556283,-0.806152,-0.155273,-0.482910,0.237292,-0.003331,-0.020401,0.999702,-0.000124,-0.016742,0.017780,-0.670415,-0.111670,0.721918,0.130025
41823,NaN,17.845976,8.509400,-7.396404,5.649354,2.105721,10.414081,2.427017,-4.222812,3.211083,-0.832031,-0.138184,-0.447021,0.178547,0.088819,-0.069132,0.999575,0.012133,-0.021111,0.016053,-0.655623,-0.105423,0.739134,0.112805
41824,NaN,16.493047,16.980711,-6.478004,4.458254,11.275214,11.523682,0.526181,-2.943060,3.846575,-0.847412,-0.114746,-0.427979,0.162547,0.173114,-0.061924,0.999703,0.002631,-0.014714,0.019231,-0.644309,-0.077571,0.752834,0.109957
41825,NaN,16.696459,9.019220,-5.957015,3.384253,4.278631,9.313534,-1.791194,-2.350231,3.846267,-0.859131,-0.078369,-0.411377,0.165887,0.092863,-0.058440,0.999706,-0.008955,-0.011750,0.019229,-0.638083,-0.056009,0.760689,0.105187
41826,NaN,22.440981,0.488372,-1.365508,-3.182321,-4.088875,12.067881,0.394085,-3.624079,3.060471,-0.878662,-0.056885,-0.381836,0.224498,0.008340,-0.009573,0.999717,0.001970,-0.018119,0.015301,-0.623874,-0.033183,0.774057,0.102545
41827,NaN,34.496936,5.009839,0.979611,-8.799662,-0.718235,23.920407,1.972544,-3.940428,2.213099,-0.887451,-0.044189,-0.345947,0.344099,0.053765,0.017100,0.999696,0.009862,-0.019700,0.011064,-0.609243,-0.028741,0.787491,0.088632
41828,NaN,32.340634,6.206869,5.678494,-13.860237,2.395942,20.497185,3.897000,-2.948284,2.369180,-0.898193,-0.035645,-0.318359,0.321754,0.064703,0.062780,0.999631,0.019483,-0.014740,0.011844,-0.597030,-0.021813,0.798713,0.071671
41829,NaN,29.266271,13.118831,9.696191,-17.436330,10.659091,16.735788,4.175721,-2.085928,3.287104,-0.907227,-0.018555,-0.297363,0.289425,0.133858,0.102768,0.999593,0.020876,-0.010428,0.016433,-0.589180,-0.020394,0.806468,0.045384
41830,NaN,17.372879,24.836337,12.630652,-16.703510,24.307232,4.615031,2.277363,-2.655913,2.929290,-0.909668,0.000488,-0.278564,0.168359,0.249379,0.131402,0.999740,0.011386,-0.013278,0.014645,-0.578832,-0.007462,0.814763,0.032553
41831,NaN,11.609228,12.322697,11.032576,-13.931191,12.386048,-2.014632,-1.005984,-2.991138,1.843400,-0.916748,0.021973,-0.253418,0.113286,0.124838,0.111409,0.999833,-0.005030,-0.014955,0.009216,-0.566889,0.003447,0.823188,0.031422
41832,NaN,11.812141,-3.371119,7.960638,-11.907028,-2.985244,-1.839867,1.046741,-2.230232,2.263530,-0.923584,0.041260,-0.234375,0.117600,-0.032799,0.080746,0.999860,0.005233,-0.011151,0.011317,-0.558646,0.016830,0.828834,0.025802
41833,NaN,13.821310,-2.896468,3.176312,-8.376506,-2.591484,1.703299,1.099144,-1.688755,1.860603,-0.925781,0.047607,-0.228027,0.138202,-0.027857,0.032775,0.999906,0.005496,-0.008444,0.009303,-0.551928,0.021687,0.833458,0.015906
41834,NaN,7.801318,-0.127185,2.242174,-5.123297,0.245229,-3.520298,1.265226,-1.152065,1.709190,-0.932617,0.062500,-0.217529,0.077890,-0.000750,0.022865,0.999927,0.006326,-0.005760,0.008546,-0.548406,0.030480,0.835602,0.009531
41835,NaN,-0.835865,5.535619,7.284917,-5.991100,5.803480,-13.664292,1.004960,-1.031775,1.722285,-0.928467,0.073242,-0.209229,-0.009209,0.054912,0.073080,0.999937,0.005025,-0.005159,0.008611,-0.544296,0.034968,0.838164,0.000452
41836,NaN,-1.260291,15.825857,8.804788,-6.416264,16.083282,-15.264370,0.510876,-1.358630,1.261168,-0.937256,0.079590,-0.192383,-0.014199,0.157947,0.088359,0.999954,0.002554,-0.006793,0.006306,-0.539868,0.042573,0.840669,-0.002451
41837,NaN,-2.032058,22.390928,2.768068,-0.049217,22.255548,-14.034955,-0.157397,-1.271421,0.981677,-0.931152,0.090332,-0.181885,-0.021594,0.223827,0.027370,0.999967,-0.000787,-0.006357,0.004908,-0.534462,0.047108,0.843866,-0.004710
41838,NaN,-1.738740,22.824278,0.943924,1.994643,22.592195,-13.046945,-1.644247,-1.469716,0.644279,-0.939941,0.100830,-0.167236,-0.018182,0.228252,0.007431,0.999934,-0.008221,-0.007348,0.003221,-0.529046,0.057294,0.846649,0.003573
41839,NaN,-2.740388,13.598079,2.449680,0.616951,13.436732,-13.992122,-3.609860,-1.491971,0.047260,-0.939941,0.107422,-0.154541,-0.027606,0.136384,0.021832,0.999809,-0.018048,-0.007459,0.000236,-0.521598,0.067059,0.850355,0.018301
41840,NaN,-0.560880,1.890657,6.568553,-5.244261,2.644793,-13.353089,-2.906517,-0.463802,-0.335374,-0.939697,0.098633,-0.152344,-0.005728,0.019868,0.065388,0.999890,-0.014532,-0.002319,-0.001677,-0.519531,0.076818,0.850239,0.035779
41841,NaN,-2.028652,1.126266,7.053961,-5.077122,1.987574,-14.853783,-2.006864,0.176557,-0.569390,-0.937256,0.088135,-0.154297,-0.020191,0.012027,0.070439,0.999945,-0.010034,0.000883,-0.002847,-0.519381,0.079575,0.849593,0.045855
41842,NaN,-2.603551,1.492628,8.620315,-6.100368,2.760964,-16.015604,-1.716223,0.526172,-0.797614,-0.937256,0.083740,-0.160645,-0.025747,0.015769,0.086138,0.999952,-0.008581,0.002631,-0.003988,-0.521821,0.081632,0.847144,0.058191
41843,NaN,-0.364357,-4.222477,7.595841,-7.351320,-2.695741,-13.600542,-1.720257,0.975951,-0.813082,-0.930908,0.081787,-0.171143,-0.003442,-0.041555,0.076335,0.999943,-0.008601,0.004880,-0.004065,-0.524987,0.082388,0.844380,0.067994
41844,NaN,0.703971,-4.682106,4.133026,-4.941113,-3.656685,-11.121678,-0.848987,1.669002,-0.889047,-0.930664,0.073242,-0.179688,0.007178,-0.046677,0.041469,0.999946,-0.004245,0.008345,-0.004445,-0.532571,0.080881,0.839003,0.076816
41845,NaN,0.066336,-0.748532,2.765807,-2.638660,-0.120013,-10.924977,-0.747188,2.177067,-0.925617,-0.928223,0.062500,-0.200684,0.000930,-0.007386,0.027677,0.999923,-0.003736,0.010885,-0.004628,-0.541007,0.078146,0.833227,0.083290
41846,NaN,1.532932,1.114963,2.201865,-2.311976,1.641404,-9.179304,-1.046973,2.598674,-1.036885,-0.923828,0.058350,-0.221924,0.015671,0.011183,0.021758,0.999888,-0.005235,0.012993,-0.005184,-0.552128,0.075836,0.825059,0.093176
41847,NaN,2.903985,0.578119,1.100302,-1.925138,0.866822,-7.463287,-1.057096,2.803738,-1.130602,-0.917480,0.049805,-0.240723,0.029222,0.005673,0.010564,0.999872,-0.005285,0.014018,-0.005653,-0.562697,0.072774,0.817149,0.101709
41848,NaN,4.991470,-0.529552,1.026839,-2.761877,-0.280782,-5.506796,-1.325731,3.130366,-1.203043,-0.915039,0.039062,-0.270264,0.050035,-0.005531,0.009522,0.999837,-0.006628,0.015651,-0.006015,-0.575323,0.070508,0.806953,0.113400
41849,NaN,6.983752,-1.703462,2.918854,-5.288099,-1.044903,-4.232942,-1.128422,3.467777,-1.240645,-0.906494,0.032715,-0.297852,0.070224,-0.017309,0.028070,0.999815,-0.005642,0.017338,-0.006203,-0.588107,0.066770,0.796625,0.122723
41850,NaN,7.134655,1.211813,2.779362,-4.267353,1.578176,-3.536726,-1.036331,3.740822,-1.265006,-0.895752,0.022217,-0.329590,0.071924,0.011804,0.026390,0.999792,-0.005181,0.018703,-0.006325,-0.602747,0.062667,0.784254,0.133095
41851,NaN,11.049544,1.977008,-1.474817,-0.854244,0.642956,1.457309,-1.081784,3.995089,-1.318301,-0.885010,0.015869,-0.363281,0.110297,0.018954,-0.017057,0.999764,-0.005408,0.019974,-0.006591,-0.617055,0.058085,0.771722,0.142531
41852,NaN,16.794964,1.717423,-2.545560,-0.699096,-0.813964,7.225468,-0.639045,4.255881,-1.467910,-0.865723,0.000977,-0.401367,0.167476,0.015855,-0.029075,0.999742,-0.003195,0.021278,-0.007339,-0.632923,0.051588,0.757400,0.151961
41853,NaN,26.848770,10.156151,-0.829476,-1.148321,5.899916,18.265977,-0.259712,4.588290,-1.779660,-0.850342,-0.016113,-0.430908,0.269091,0.099152,-0.014594,0.999696,-0.001298,0.022939,-0.008897,-0.648688,0.042169,0.742911,0.159714
41854,NaN,33.896136,20.750555,-0.534892,1.681002,13.857448,27.397998,-0.591102,4.974293,-2.115359,-0.827148,-0.022461,-0.475342,0.340847,0.203873,-0.014418,0.999630,-0.002955,0.024868,-0.010575,-0.665868,0.032014,0.725602,0.170577
41855,NaN,41.329376,20.627753,3.241446,-0.983588,11.900697,34.917872,-2.359166,5.156918,-2.768993,-0.803467,-0.039551,-0.513428,0.416710,0.200803,0.019308,0.999502,-0.011794,0.025780,-0.013843,-0.681506,0.025409,0.706504,0.189093
41856,NaN,39.763926,3.962384,3.356290,-3.913648,-5.153028,29.756673,-2.769223,5.220685,-3.307478,-0.771484,-0.047852,-0.551514,0.398913,0.033397,0.022668,0.999427,-0.013843,0.026098,-0.016534,-0.696312,0.018834,0.685186,0.212872
41857,NaN,34.709622,1.836105,7.801373,-7.108440,-6.088730,24.552751,-1.674175,5.311041,-3.419709,-0.745605,-0.062744,-0.587402,0.349255,0.013002,0.068633,0.999466,-0.008369,0.026550,-0.017096,-0.710338,0.007286,0.664871,0.230897
41858,NaN,36.615592,4.466236,6.352134,-3.356624,-6.605639,26.870331,-2.326221,5.096967,-3.547027,-0.715820,-0.069092,-0.621338,0.368331,0.038805,0.053678,0.999450,-0.011629,0.025480,-0.017732,-0.722824,-0.001248,0.642947,0.253266
41859,NaN,39.609057,1.741879,2.706692,0.373234,-13.094952,27.700339,-1.662153,3.963506,-3.803857,-0.691895,-0.096924,-0.640137,0.396760,0.010057,0.019104,0.999588,-0.008310,0.019815,-0.019017,-0.730462,-0.012486,0.626229,0.272226
41860,NaN,38.359322,0.227529,2.528237,0.228884,-15.884631,25.188708,0.528809,1.723784,-5.482346,-0.673828,-0.133301,-0.652588,0.383661,-0.008303,0.021963,0.999584,0.002644,0.008618,-0.027408,-0.727866,-0.032438,0.619395,0.292420
41861,NaN,25.392910,16.664594,2.480524,5.589657,1.857627,20.082214,0.450494,1.432903,-5.658116,-0.647217,-0.169678,-0.660889,0.258677,0.159318,0.023328,0.999572,0.002252,0.007163,-0.028287,-0.723648,-0.053679,0.613654,0.311257
41862,NaN,20.653263,18.160127,-1.772572,9.903777,2.579833,15.771898,-1.468785,2.083405,-4.688937,-0.625977,-0.176025,-0.682129,0.210503,0.176549,-0.021214,0.999644,-0.007343,0.010416,-0.023442,-0.722701,-0.064819,0.601976,0.333358
41863,NaN,14.662855,13.570172,-2.027953,8.459030,1.160021,8.360031,-3.394511,3.577199,-3.057628,-0.596680,-0.167480,-0.709717,0.148255,0.133043,-0.025195,0.999579,-0.016970,0.017883,-0.015286,-0.729168,-0.067691,0.582147,0.353322
41864,NaN,10.699126,13.000338,1.004587,5.910145,3.254765,5.643662,-3.828594,2.989695,-2.198628,-0.578125,-0.145996,-0.735352,0.108522,0.128956,0.005956,0.999645,-0.019141,0.014947,-0.010992,-0.733950,-0.063574,0.563511,0.373806
41865,NaN,9.253982,11.050374,-0.147593,6.497983,1.840984,2.919172,-4.804298,2.690977,-1.656475,-0.551514,-0.120117,-0.756836,0.093396,0.109635,-0.005370,0.999587,-0.024018,0.013453,-0.008281,-0.739661,-0.055616,0.543896,0.392410
41866,NaN,7.249158,6.511586,-0.638501,4.843503,-0.606550,-1.356598,-5.589581,2.375854,-1.339578,-0.535645,-0.081543,-0.776123,0.072828,0.064401,-0.009056,0.999517,-0.027943,0.011877,-0.006697,-0.742992,-0.041209,0.523589,0.414873
41867,NaN,4.829390,1.196614,-2.059711,2.893046,-3.247154,-6.637917,-5.755346,1.902849,-0.903549,-0.517822,-0.042969,-0.789307,0.048145,0.011141,-0.021384,0.999531,-0.028772,0.009513,-0.004517,-0.746937,-0.026124,0.504150,0.432708
41868,NaN,2.294437,-3.353662,-3.955033,1.087156,-5.231350,-11.709590,-5.401017,1.217229,-0.566284,-0.510498,-0.002197,-0.798096,0.022610,-0.034655,-0.038763,0.999613,-0.027002,0.006085,-0.002831,-0.747580,-0.008435,0.487716,0.450763
41869,NaN,0.000699,-5.620447,-4.301857,-0.746036,-5.163958,-14.594126,-4.923187,0.325749,-0.327707,-0.513428,0.025635,-0.800293,-0.000155,-0.057240,-0.041618,0.999694,-0.024613,0.001629,-0.001638,-0.747616,0.008434,0.475238,0.463841
41870,NaN,-0.420472,-7.622465,-5.608842,-1.688314,-6.593190,-16.400775,-4.397726,-0.531047,0.045122,-0.516846,0.066406,-0.804932,-0.004041,-0.077434,-0.054405,0.999755,-0.021987,-0.002655,0.000226,-0.744857,0.027382,0.466950,0.475810
41871,NaN,-2.417953,-7.918142,-8.315029,-0.710186,-6.756155,-19.379236,-3.589545,-0.964710,0.286774,-0.526123,0.094238,-0.798584,-0.023668,-0.080692,-0.081826,0.999826,-0.017947,-0.004823,0.001434,-0.742668,0.043708,0.461881,0.482908
41872,NaN,-5.524282,-9.636148,-9.104733,-2.155782,-6.098307,-22.635524,-2.074073,-1.300076,0.448855,-0.537109,0.104980,-0.786133,-0.054436,-0.097424,-0.090396,0.999923,-0.010370,-0.006500,0.002244,-0.739651,0.056284,0.461679,0.486417
41873,NaN,-6.058386,-9.468110,-9.827608,-1.714286,-6.217033,-23.278810,-0.056997,-1.614447,0.479685,-0.547607,0.100586,-0.775391,-0.059561,-0.094853,-0.098733,0.999965,-0.000285,-0.008072,0.002398,-0.737049,0.061525,0.467357,0.484304
41874,NaN,-8.425219,-12.796485,-11.226941,-3.422994,-7.420060,-26.958757,1.626613,-1.627548,0.501279,-0.555908,0.094238,-0.779541,-0.083010,-0.127252,-0.113985,0.999931,0.008133,-0.008138,0.002506,-0.734918,0.060938,0.477315,0.477863
41875,NaN,-8.527085,-15.970830,-12.219043,-4.665793,-9.922971,-28.701619,3.287011,-1.804343,0.584160,-0.569580,0.062012,-0.760254,-0.083685,-0.157909,-0.125555,0.999820,0.016434,-0.009021,0.002921,-0.732878,0.054553,0.491531,0.467237
41876,NaN,-7.082579,-16.114639,-14.121234,-2.411692,-12.381116,-28.521596,4.697687,-2.510733,0.659389,-0.592041,0.027588,-0.747314,-0.068490,-0.157986,-0.145818,0.999640,0.023486,-0.012552,0.003297,-0.730156,0.044380,0.511637,0.450699
41877,NaN,-4.010837,-12.426529,-12.847612,0.527124,-11.783994,-23.824789,4.678392,-3.026183,0.668315,-0.610107,-0.002441,-0.725830,-0.037721,-0.121335,-0.131920,0.999606,0.023389,-0.015129,0.003341,-0.724674,0.035812,0.532873,0.435445
41878,NaN,-0.307534,-7.879996,-7.215006,0.300688,-8.499734,-16.284832,3.803511,-3.068794,0.742943,-0.626465,-0.019531,-0.708740,-0.001663,-0.077416,-0.073664,0.999695,0.019016,-0.015342,0.003714,-0.719440,0.030361,0.552346,0.419998
41879,NaN,2.896838,-3.873156,-4.059825,0.810996,-6.219089,-10.545183,2.774523,-3.232766,0.859297,-0.647461,-0.028320,-0.689453,0.029790,-0.038041,-0.040652,0.999764,0.013872,-0.016163,0.004296,-0.712570,0.029535,0.569536,0.408656
41880,NaN,4.538354,-0.392721,-3.248822,2.389786,-4.342490,-7.217754,1.833645,-3.338407,1.054214,-0.672363,-0.041016,-0.670166,0.045937,-0.003393,-0.031757,0.999805,0.009168,-0.016691,0.005271,-0.706198,0.032423,0.585343,0.396997
41881,NaN,5.963372,2.316597,-2.325415,3.178097,-2.642817,-4.404794,1.166423,-3.595489,1.152440,-0.691406,-0.043457,-0.642578,0.059902,0.023642,-0.022042,0.999805,0.005832,-0.017976,0.005762,-0.698016,0.038807,0.600050,0.388855
41882,NaN,8.750244,5.362378,-0.685616,3.387836,-0.784527,-0.133614,1.084933,-3.964576,1.045129,-0.714600,-0.043457,-0.615234,0.087330,0.054110,-0.004831,0.999775,0.005424,-0.019821,0.005225,-0.689363,0.044661,0.616215,0.378236
41883,NaN,11.011214,8.484915,2.553603,2.109009,2.443339,3.946533,1.587880,-3.702557,0.982782,-0.733398,-0.050049,-0.589600,0.109188,0.085170,0.028239,0.999785,0.007939,-0.018511,0.004914,-0.680023,0.049208,0.631625,0.369050
41884,NaN,14.764744,9.230035,7.826171,-2.561919,4.582382,8.540489,2.548060,-2.576578,1.110936,-0.739258,-0.060791,-0.574707,0.146101,0.092092,0.081325,0.999820,0.012740,-0.012882,0.005554,-0.675727,0.046901,0.645286,0.353268
41885,NaN,19.865162,8.517330,12.960232,-8.168843,4.910477,13.516851,2.743069,-1.266468,0.900088,-0.745361,-0.071533,-0.566162,0.197440,0.084264,0.132015,0.999876,0.013715,-0.006332,0.004500,-0.673792,0.042768,0.654116,0.341037
41886,NaN,21.132933,3.070187,11.974653,-10.595974,-0.229076,12.257360,1.840866,-0.618797,0.394613,-0.742920,-0.077881,-0.557617,0.210897,0.030010,0.120678,0.999951,0.009204,-0.003094,0.001973,-0.674711,0.035681,0.659620,0.329231
41887,NaN,17.119205,-1.196194,8.630834,-9.530619,-3.643407,6.462454,0.577895,0.638513,-0.243393,-0.734375,-0.082031,-0.568115,0.171451,-0.012419,0.085726,0.999990,0.002889,0.003193,-0.001217,-0.676515,0.031878,0.658452,0.328258
41888,NaN,7.228975,-3.306477,0.563846,-2.545086,-5.322272,-4.455455,1.200841,2.676925,-0.702074,-0.710449,-0.101318,-0.583008,0.072238,-0.033348,0.004472,0.999886,0.006004,0.013384,-0.003510,-0.686290,0.018168,0.651490,0.322856
41889,NaN,-5.179283,-7.276243,-15.053385,10.309554,-9.944100,-19.869517,2.999888,4.344908,-0.698012,-0.690674,-0.133545,-0.608154,-0.055310,-0.070316,-0.150425,0.999645,0.014998,0.021722,-0.003490,-0.699347,-0.001417,0.641255,0.315761
41890,NaN,-11.506505,-13.474532,-20.428956,13.166781,-13.285371,-29.337506,6.150299,3.441011,-0.783412,-0.668213,-0.172119,-0.616455,-0.119113,-0.127960,-0.206268,0.999372,0.030745,0.017201,-0.003916,-0.709096,-0.030743,0.638610,0.297346
41891,NaN,2.360913,-20.832937,28.734207,-34.417757,-8.862089,-11.256133,1.487344,1.639852,-0.480039,-0.657715,-0.169922,-0.622803,0.025452,-0.210517,0.285578,0.999936,0.007437,0.008199,-0.002400,-0.713346,-0.039984,0.634891,0.294028
41892,NaN,23.677695,4.963689,27.168534,-22.543031,1.769471,18.682955,-2.563247,1.226151,0.569603,-0.670410,-0.174072,-0.620605,0.238285,0.053778,0.269556,0.999895,-0.012816,0.006131,0.002848,-0.719196,-0.030512,0.626741,0.298367
41893,NaN,54.799830,73.379247,-58.634176,80.533939,19.230877,60.573928,13.325583,-3.003099,-1.291736,-0.675293,-0.279297,-0.547852,0.561102,0.766671,-0.527600,0.997648,0.066576,-0.015004,-0.006454,-0.704146,-0.077889,0.655722,0.261038
41894,NaN,30.219074,21.861307,-20.959965,24.829757,0.289663,25.013565,10.295918,-2.240069,-2.597110,-0.665771,-0.315918,-0.526611,0.307322,0.224925,-0.194701,0.998528,0.051454,-0.011195,-0.012979,-0.688427,-0.119849,0.675395,0.235681
41895,NaN,-0.924345,-7.685510,17.688357,-18.726979,-3.107423,-13.334518,-2.841561,-1.253067,-2.415584,-0.659668,-0.307373,-0.535156,-0.011263,-0.074204,0.177884,0.999807,-0.014207,-0.006265,-0.012077,-0.682921,-0.116725,0.674779,0.254296
41896,NaN,-17.167138,-16.924415,-1.449528,-1.256689,-5.877207,-33.203173,-4.436714,-2.170430,-0.267437,-0.672607,-0.296631,-0.520264,-0.171754,-0.169308,-0.012603,0.999694,-0.022181,-0.010851,-0.001337,-0.677669,-0.099987,0.676601,0.270144
41897,NaN,-1.751513,-4.764946,-3.462078,2.411656,-3.960727,-13.843834,0.982205,-3.240870,2.250838,-0.694092,-0.281738,-0.494873,-0.016412,-0.047667,-0.035127,0.999793,0.004911,-0.016203,0.011253,-0.669117,-0.091302,0.689892,0.260759
41898,NaN,17.486665,-4.058428,-10.596067,7.688956,-13.987894,3.591791,0.373853,-2.764126,3.512891,-0.718262,-0.256104,-0.486572,0.176984,-0.037293,-0.103596,0.999749,0.001869,-0.013819,0.017563,-0.663844,-0.077129,0.701478,0.247569
41899,NaN,22.815199,-11.699410,2.673171,-7.786968,-19.031191,5.731049,-2.005898,-1.418827,4.115503,-0.729492,-0.230225,-0.471924,0.230288,-0.111983,0.029500,0.999713,-0.010029,-0.007093,0.020576,-0.664547,-0.054259,0.705088,0.241421
41900,NaN,23.487420,-7.746044,-0.552139,-4.206694,-15.838721,8.715540,1.838929,-3.761358,3.439089,-0.757324,-0.217529,-0.436035,0.236216,-0.073378,-0.001774,0.999633,0.009194,-0.018804,0.017193,-0.654803,-0.044059,0.720976,0.222454
41901,NaN,18.629258,3.699816,-6.218627,3.951686,-4.473866,9.257409,3.208135,-3.643837,3.307978,-0.774414,-0.211182,-0.400146,0.186720,0.041039,-0.058150,0.999569,0.016038,-0.018217,0.016538,-0.644361,-0.038565,0.736888,0.200769
41902,NaN,16.245727,4.612256,-6.291003,4.040544,-1.948304,7.639083,2.850409,-3.287177,3.668738,-0.793945,-0.192139,-0.364258,0.162561,0.049969,-0.059545,0.999595,0.014250,-0.016434,0.018341,-0.635201,-0.031362,0.751212,0.176685
41903,NaN,19.792362,5.039874,-9.657153,6.172448,-2.218566,11.802563,3.240954,-2.893895,4.298516,-0.811523,-0.170654,-0.334717,0.198119,0.056180,-0.092826,0.999533,0.016202,-0.014467,0.021489,-0.627327,-0.022938,0.763586,0.151235
41904,NaN,27.796430,9.296278,-5.856085,0.887749,2.315426,19.969379,2.886996,-2.094083,4.495777,-0.824707,-0.147217,-0.315674,0.276352,0.099991,-0.054252,0.999588,0.014433,-0.010469,0.022476,-0.621985,-0.013755,0.773026,0.124004
41905,NaN,37.368512,13.082020,5.876264,-12.696773,7.933883,27.304044,2.688371,-1.739291,4.041656,-0.833740,-0.127930,-0.294678,0.370411,0.137493,0.063812,0.999668,0.013440,-0.008695,0.020206,-0.617379,-0.005410,0.780120,0.101125
41906,NaN,36.683282,13.138368,4.838552,-12.504421,9.339782,26.212678,4.326764,-2.484523,3.026148,-0.836182,-0.110840,-0.271729,0.364138,0.135753,0.055826,0.999574,0.021631,-0.012421,0.015129,-0.608716,-0.006100,0.789991,0.073085
41907,NaN,27.744815,22.401408,8.666995,-14.108367,20.786063,16.934587,2.211196,-1.969181,3.122476,-0.841064,-0.093750,-0.254883,0.273029,0.227303,0.091874,0.999769,0.011055,-0.009845,0.015611,-0.601873,0.000227,0.796703,0.054891
41908,NaN,20.089277,11.273695,10.120875,-14.681993,11.079268,7.354586,0.660843,-2.559291,2.947161,-0.852295,-0.063965,-0.223389,0.197886,0.115327,0.104132,0.999804,0.003304,-0.012796,0.014735,-0.592509,0.010534,0.804377,0.042439
41909,NaN,15.606816,5.274919,8.877709,-12.869235,5.630398,2.551061,1.602140,-1.950335,2.976169,-0.856934,-0.051025,-0.212891,0.154389,0.054333,0.090719,0.999810,0.008010,-0.009751,0.014880,-0.585270,0.018171,0.810183,0.027068
41910,NaN,14.259790,6.585988,5.300425,-9.196732,7.041666,2.045853,1.089315,-1.815927,2.416535,-0.855225,-0.036133,-0.196045,0.141299,0.067278,0.054655,0.999871,0.005446,-0.009079,0.012082,-0.578729,0.025035,0.814998,0.014982
41911,NaN,11.678686,3.418854,1.659293,-5.280989,3.887769,0.571040,1.569049,-1.290878,2.085642,-0.853760,-0.014648,-0.187744,0.116311,0.035268,0.017619,0.999894,0.007845,-0.006454,0.010428,-0.573762,0.029090,0.818502,0.002390
41912,NaN,6.715191,3.518730,-0.024855,-2.114641,3.864314,-3.642667,2.337693,-0.462384,1.450671,-0.855957,-0.008301,-0.183594,0.066894,0.035672,0.000321,0.999903,0.011688,-0.002312,0.007253,-0.572803,0.028408,0.819120,-0.011540
41913,NaN,0.022315,5.041269,2.489407,-2.203052,5.044184,-10.958765,1.666219,-0.729650,1.295510,-0.851807,-0.004150,-0.170898,-0.000194,0.050203,0.025313,0.999938,0.008331,-0.003648,0.006477,-0.569942,0.028901,0.820877,-0.022178
41914,NaN,-3.506887,12.724981,5.553489,-3.662873,12.384758,-15.998314,0.196713,-1.072730,1.155217,-0.847656,0.004395,-0.164551,-0.036101,0.126989,0.055468,0.999968,0.000984,-0.005364,0.005776,-0.566087,0.033073,0.823260,-0.026354
41915,NaN,-4.775327,19.734582,4.651498,-1.997208,19.229715,-17.566015,-0.930871,-1.469438,0.714946,-0.850098,0.012939,-0.145752,-0.048794,0.197385,0.045240,0.999956,-0.004654,-0.007347,0.003575,-0.559767,0.038458,0.827386,-0.024788
41916,NaN,1.235810,21.271694,2.185684,-1.501606,21.318507,-11.242162,-1.784783,-1.592096,0.468272,-0.845947,0.021484,-0.135254,0.011695,0.212929,0.020052,0.999926,-0.008924,-0.007960,0.002341,-0.553485,0.045482,0.831417,-0.018204
41917,NaN,-0.873184,13.348391,0.477880,0.823810,13.205687,-11.834819,-2.738767,-1.702244,0.484918,-0.848145,0.021484,-0.122559,-0.009085,0.133510,0.002874,0.999867,-0.013693,-0.008511,0.002424,-0.545671,0.054919,0.836154,-0.008546
41918,NaN,1.596381,2.919439,1.697941,-1.887526,3.173881,-9.249505,-3.798824,-1.454264,0.242335,-0.839600,0.025879,-0.116211,0.015807,0.029531,0.016536,0.999792,-0.018993,-0.007271,0.001212,-0.539178,0.066728,0.839508,0.007841
41919,NaN,0.412959,-0.174080,7.520937,-6.967479,0.648558,-12.604126,-3.766847,-0.567117,-0.166020,-0.833252,0.027832,-0.109863,0.003916,-0.000327,0.075236,0.999818,-0.018833,-0.002835,-0.000830,-0.535439,0.076198,0.840790,0.023909
41920,NaN,-1.025532,-1.195555,9.487970,-8.278067,-0.005969,-14.708953,-1.874538,0.297103,-0.172010,-0.828857,0.019287,-0.116211,-0.010124,-0.011057,0.095001,0.999955,-0.009373,0.001485,-0.000860,-0.536751,0.080983,0.839161,0.033908
41921,NaN,-2.188361,-4.184854,9.170244,-8.064556,-2.981425,-15.510786,-0.602971,0.986014,-0.289768,-0.826660,0.015137,-0.118164,-0.021491,-0.041540,0.091935,0.999982,-0.003015,0.004930,-0.001449,-0.540587,0.081219,0.836513,0.037615
41922,NaN,-6.190400,-4.547719,7.267135,-4.929378,-3.883901,-18.323169,-0.915784,1.245275,-0.358570,-0.824463,0.015137,-0.130859,-0.061530,-0.045032,0.073262,0.999969,-0.004579,0.006226,-0.001793,-0.546325,0.082454,0.832326,0.044303
41923,NaN,0.682288,-2.822586,2.678678,-3.224873,-2.247033,-10.210824,-1.863671,1.399010,-0.698620,-0.818115,0.012939,-0.139404,0.006913,-0.027999,0.027000,0.999926,-0.009318,0.006995,-0.003493,-0.551186,0.084324,0.828317,0.054540
41924,NaN,2.194333,-2.074224,2.426913,-3.430885,-1.409698,-8.695086,-0.744902,2.034531,-0.855384,-0.820068,0.004395,-0.154053,0.022100,-0.020747,0.024122,0.999932,-0.003724,0.010172,-0.004277,-0.560044,0.082712,0.821989,0.061996
41925,NaN,1.389857,2.501204,3.800946,-3.452782,3.272899,-9.822738,0.009199,2.384590,-1.039939,-0.805176,-0.001953,-0.168945,0.014480,0.024936,0.037840,0.999915,0.000046,0.011923,-0.005200,-0.569481,0.077668,0.815673,0.065852
41926,NaN,1.701833,4.259182,2.361686,-1.863274,4.716003,-8.863790,-0.642463,2.609013,-1.268064,-0.800537,-0.016846,-0.183594,0.017593,0.042557,0.023253,0.999890,-0.003212,0.013045,-0.006340,-0.580418,0.073873,0.807555,0.074244
41927,NaN,3.070044,3.587154,-0.455871,0.239254,3.478956,-6.597320,-1.161754,2.792676,-1.468149,-0.798096,-0.025391,-0.204834,0.030893,0.035616,-0.005197,0.999859,-0.005808,0.013963,-0.007340,-0.590640,0.070272,0.799446,0.084217
41928,NaN,4.328517,2.179656,2.500014,-3.065178,2.692180,-6.194591,-1.198174,3.093775,-1.513923,-0.785156,-0.040283,-0.223633,0.043828,0.021613,0.024195,0.999834,-0.005991,0.015468,-0.007569,-0.602800,0.066851,0.789288,0.095855
41929,NaN,5.185959,2.369334,4.169388,-4.691955,3.177638,-5.596802,-1.280653,3.331936,-1.676630,-0.780518,-0.053223,-0.251221,0.052740,0.023516,0.040669,0.999806,-0.006403,0.016659,-0.008383,-0.614603,0.062487,0.779036,0.107057
41930,NaN,9.682179,1.536884,1.996978,-3.648755,1.517640,-0.622273,-1.553344,3.616054,-1.781330,-0.767578,-0.063721,-0.270020,0.097293,0.014649,0.018098,0.999767,-0.007766,0.018079,-0.008906,-0.628047,0.058772,0.766448,0.121079
41931,NaN,14.032925,1.296014,-3.350315,0.869380,-0.702706,4.628318,-1.036468,3.939564,-1.860502,-0.754639,-0.078613,-0.297607,0.139744,0.011475,-0.036322,0.999749,-0.005182,0.019696,-0.009302,-0.641558,0.052499,0.753802,0.132021
41932,NaN,24.177695,6.683137,-3.691339,1.563558,2.814191,15.334276,-0.204933,4.382910,-2.044589,-0.739258,-0.093506,-0.327148,0.241556,0.064320,-0.042276,0.999707,-0.001025,0.021912,-0.010222,-0.657349,0.042894,0.738875,0.141830
41933,NaN,33.999601,19.158293,-0.780290,1.756279,13.285553,26.843987,-0.624605,4.772172,-2.328779,-0.717529,-0.114990,-0.354492,0.341871,0.187567,-0.016536,0.999643,-0.003123,0.023858,-0.011643,-0.672961,0.032946,0.722981,0.152764
41934,NaN,40.222546,22.746072,5.164277,-1.779918,15.610551,33.940882,-1.829330,5.024985,-3.023433,-0.691895,-0.125488,-0.394775,0.406699,0.221732,0.039415,0.999528,-0.009145,0.025121,-0.015115,-0.688857,0.024599,0.703766,0.172001
41935,NaN,38.911512,7.669132,4.218332,-3.067580,-0.449085,29.943687,-2.671931,4.969750,-3.551078,-0.666260,-0.140381,-0.424316,0.391272,0.070225,0.031510,0.999444,-0.013357,0.024844,-0.017752,-0.702580,0.017021,0.684397,0.194146
41936,NaN,34.767962,-0.311250,4.788475,-4.379235,-8.464432,23.960849,-1.439869,4.975963,-3.488620,-0.640625,-0.151123,-0.456055,0.348607,-0.008885,0.039268,0.999512,-0.007198,0.024876,-0.017440,-0.716278,0.005524,0.664286,0.213635
41937,NaN,34.610735,6.057337,4.927735,-1.165158,-4.273890,25.384296,-1.793769,5.098906,-3.643429,-0.608643,-0.159668,-0.487793,0.348236,0.054628,0.039908,0.999469,-0.008967,0.025490,-0.018214,-0.728893,-0.005600,0.643856,0.232666
41938,NaN,37.450701,2.893251,1.509103,2.494564,-10.882980,26.078540,-1.544947,4.187978,-3.547017,-0.576416,-0.170166,-0.502686,0.375146,0.022358,0.007050,0.999594,-0.007724,0.020937,-0.017733,-0.738483,-0.016028,0.625220,0.251962
41939,NaN,37.171252,7.574333,0.188542,5.878653,-8.905417,26.586455,-0.542407,1.700722,-5.067102,-0.560547,-0.202393,-0.504639,0.373469,0.066294,-0.001474,0.999639,-0.002712,0.008503,-0.025332,-0.737198,-0.032000,0.617622,0.272138
41940,NaN,31.645514,11.181597,2.977199,3.956214,-4.617108,23.323787,-0.028175,0.713417,-5.917327,-0.541016,-0.221680,-0.508789,0.319681,0.102393,0.028621,0.999556,-0.000141,0.003567,-0.029582,-0.731422,-0.050853,0.612759,0.294894
41941,NaN,23.870170,18.654341,-4.536899,13.189501,1.373880,17.795741,-2.626477,2.607393,-4.668718,-0.509277,-0.219482,-0.538330,0.242319,0.180270,-0.050908,0.999556,-0.013130,0.013035,-0.023340,-0.732874,-0.059372,0.597889,0.319218
41942,NaN,18.789531,11.522001,-1.748834,8.127086,-2.136291,10.634299,-4.095250,3.760703,-3.478217,-0.484375,-0.206543,-0.566162,0.189454,0.111496,-0.023350,0.999462,-0.020473,0.018800,-0.017388,-0.739549,-0.060576,0.575484,0.343826
41943,NaN,14.880666,11.871954,0.075419,7.009998,-0.004014,7.883073,-4.268054,3.206573,-2.737318,-0.457275,-0.191406,-0.583252,0.150372,0.116615,-0.004152,0.999550,-0.021337,0.016030,-0.013685,-0.745033,-0.058156,0.555199,0.365101
41944,NaN,11.795391,10.985679,1.249047,5.890200,0.893128,5.214641,-4.501252,2.663883,-2.149732,-0.434570,-0.167725,-0.604736,0.119258,0.108800,0.008451,0.999600,-0.022503,0.013318,-0.010747,-0.749516,-0.052164,0.535674,0.385432
41945,NaN,8.762407,7.116305,1.265765,4.009909,-0.339510,0.807960,-5.139809,2.513231,-1.629510,-0.414551,-0.135498,-0.626221,0.088336,0.070720,0.009729,0.999558,-0.025695,0.012564,-0.008146,-0.754119,-0.042088,0.515686,0.404477
41946,NaN,6.198872,1.534091,-0.365003,2.097089,-3.230165,-4.706152,-5.521297,1.981050,-1.077937,-0.400879,-0.096924,-0.647705,0.062027,0.014887,-0.004680,0.999555,-0.027602,0.009904,-0.005389,-0.757782,-0.028114,0.496172,0.422835
41947,NaN,3.445933,-2.953067,-2.845763,0.812282,-5.284106,-10.141200,-5.311730,1.321799,-0.735048,-0.395508,-0.062744,-0.649902,0.034163,-0.030402,-0.027884,0.999619,-0.026555,0.006608,-0.003675,-0.759968,-0.012598,0.479637,0.438450
41948,NaN,0.183463,-5.820687,-4.111121,-0.916157,-5.336838,-14.447774,-4.845083,0.492583,-0.563126,-0.389893,-0.036865,-0.656494,0.001570,-0.059185,-0.039689,0.999700,-0.024223,0.002463,-0.002815,-0.759939,0.003334,0.466645,0.452465
41949,NaN,-0.469598,-8.182290,-5.465006,-2.068524,-6.837501,-16.594416,-4.278984,-0.372518,-0.256705,-0.390869,-0.004883,-0.652588,-0.004702,-0.082961,-0.052892,0.999769,-0.021393,-0.001862,-0.001283,-0.758245,0.019834,0.458271,0.463314
41950,NaN,-3.345412,-10.722332,-7.257664,-3.518175,-7.139304,-20.558509,-3.252592,-0.858779,0.181165,-0.395752,0.012451,-0.652588,-0.033049,-0.108416,-0.070962,0.999858,-0.016262,-0.004294,0.000906,-0.756303,0.034632,0.453664,0.470101
41951,NaN,-6.093685,-9.192055,-8.661120,-2.147245,-5.200771,-22.657026,-1.838442,-1.248547,0.605388,-0.402588,0.029541,-0.650635,-0.060118,-0.092897,-0.086137,0.999934,-0.009192,-0.006243,0.003027,-0.754529,0.045888,0.453923,0.471736
41952,NaN,-8.649813,-6.819172,-9.134473,-0.504802,-2.625198,-23.869977,-0.231302,-1.525816,0.841130,-0.408936,0.029541,-0.650635,-0.085510,-0.068659,-0.091920,0.999961,-0.001156,-0.007629,0.004206,-0.753089,0.052464,0.458731,0.468691
41953,NaN,-10.758671,-7.873815,-7.706945,-2.396787,-1.366297,-24.962636,1.134593,-1.798975,1.004989,-0.419434,0.025146,-0.637939,-0.106489,-0.078833,-0.078478,0.999931,0.005673,-0.008995,0.005025,-0.751566,0.054708,0.467862,0.461801
41954,NaN,-10.392840,-11.753295,-8.503454,-4.435863,-4.553834,-26.486654,2.238510,-1.809104,1.156696,-0.427490,0.014404,-0.633545,-0.102467,-0.117160,-0.087279,0.999880,0.011192,-0.009045,0.005783,-0.750669,0.053398,0.479279,0.451592
41955,NaN,-8.575668,-13.947382,-10.849887,-3.648430,-8.571675,-27.102749,3.797212,-1.984038,1.144926,-0.446045,-0.007080,-0.624756,-0.083865,-0.137854,-0.111965,0.999754,0.018985,-0.009919,0.005724,-0.749333,0.046356,0.494869,0.437557
41956,NaN,-7.549655,-13.606347,-12.667439,-1.109144,-10.295050,-26.996088,4.965145,-2.572862,1.027977,-0.457764,-0.032715,-0.614014,-0.073140,-0.133228,-0.130957,0.999596,0.024822,-0.012863,0.005139,-0.746291,0.036250,0.514767,0.420418
41957,NaN,-2.945771,-11.897191,-9.873301,-0.560662,-10.854203,-21.192993,4.775346,-2.632187,1.072325,-0.469727,-0.056396,-0.592773,-0.027500,-0.116715,-0.101909,0.999614,0.023874,-0.013159,0.005361,-0.742352,0.026711,0.534225,0.403490
41958,NaN,2.119064,-7.587275,-4.746806,-0.725621,-8.592826,-13.008997,3.568125,-2.500848,0.878175,-0.488525,-0.071289,-0.588379,0.022124,-0.074917,-0.048538,0.999753,0.017839,-0.012503,0.004391,-0.738021,0.021278,0.550408,0.389773
41959,NaN,4.188251,-3.986042,-3.174131,0.540434,-6.534719,-9.099646,2.141382,-2.727589,0.758861,-0.502930,-0.082275,-0.569092,0.042464,-0.039361,-0.031588,0.999842,0.010706,-0.013637,0.003794,-0.732110,0.020776,0.564472,0.380729
41960,NaN,6.749996,-0.542292,-2.121882,1.848980,-4.906392,-5.031078,1.047372,-2.869670,0.716702,-0.521729,-0.090820,-0.554199,0.067814,-0.005072,-0.020274,0.999877,0.005237,-0.014348,0.003583,-0.725682,0.024874,0.576858,0.374168
41961,NaN,9.946874,4.413258,-0.507235,3.375370,-2.080100,0.333561,0.453139,-2.857970,0.689611,-0.534424,-0.090820,-0.545654,0.099374,0.044485,-0.003551,0.999889,0.002266,-0.014289,0.003448,-0.718709,0.030563,0.587920,0.369963
41962,NaN,13.492474,12.028908,3.178085,4.531471,3.737743,7.574639,0.438785,-2.779253,0.573588,-0.546875,-0.097412,-0.530762,0.134118,0.120602,0.033913,0.999897,0.002194,-0.013896,0.002868,-0.711819,0.036197,0.598684,0.365488
41963,NaN,19.516468,17.065768,8.714934,2.442192,7.630222,16.337921,1.279365,-2.343544,0.372968,-0.550781,-0.105957,-0.511719,0.193799,0.170448,0.090516,0.999909,0.006397,-0.011717,0.001865,-0.705657,0.037040,0.609235,0.359875
41964,NaN,23.669118,14.585007,15.530806,-5.233782,7.557200,20.676824,2.093862,-1.272285,0.176803,-0.561035,-0.116699,-0.511475,0.235562,0.144412,0.158326,0.999925,0.010469,-0.006361,0.000884,-0.702562,0.032715,0.617512,0.352157
41965,NaN,19.244516,7.409457,19.298203,-12.695098,5.950872,14.704213,1.717331,0.097111,-0.416678,-0.558594,-0.129395,-0.513672,0.192691,0.072033,0.193513,0.999961,0.008587,0.000486,-0.002083,-0.702386,0.025224,0.620233,0.348321
41966,NaN,8.623927,-2.234332,13.256127,-12.660132,0.356693,-0.083168,2.765335,0.357242,-1.255794,-0.557617,-0.157471,-0.500732,0.086325,-0.024714,0.132076,0.999883,0.013826,0.001786,-0.006279,-0.701775,0.011263,0.623750,0.343978
41967,NaN,3.252066,-2.929462,-4.069457,2.132841,-5.529970,-9.048271,5.523414,-0.438536,-1.764050,-0.554443,-0.193848,-0.494141,0.032358,-0.028443,-0.041417,0.999577,0.027613,-0.002192,-0.008819,-0.697393,-0.012867,0.634617,0.332774
41968,NaN,0.494988,-9.912723,-5.224355,0.431002,-10.013613,-14.844893,3.808744,1.721871,-1.353273,-0.543213,-0.217285,-0.500244,0.003823,-0.098136,-0.054155,0.999759,0.019042,0.008609,-0.006766,-0.700454,-0.032974,0.634525,0.325047
41969,NaN,-7.421477,-16.449062,-32.785191,23.796164,-20.272018,-30.375461,5.274314,3.904437,-1.100740,-0.518799,-0.251709,-0.493652,-0.081522,-0.155362,-0.330486,0.999447,0.026367,0.019519,-0.005503,-0.709798,-0.061260,0.628885,0.311348
41970,NaN,-3.261033,-21.005073,3.892874,-11.036687,-13.983812,-22.043911,3.275374,0.474366,-1.289151,-0.514404,-0.258057,-0.504395,-0.033879,-0.210436,0.035564,0.999842,0.016376,0.002372,-0.006445,-0.708338,-0.077370,0.631912,0.304890
41971,NaN,0.254225,-4.781413,38.541999,-37.491781,8.161257,-3.883511,-8.974963,-0.615952,-0.533056,-0.521484,-0.234619,-0.506592,0.001255,-0.030470,0.387052,0.998985,-0.044860,-0.003079,-0.002664,-0.708337,-0.046260,0.619563,0.335054
41972,NaN,22.934594,52.081920,-72.881758,87.032699,5.619770,20.807271,9.068804,-2.733358,0.654690,-0.536377,-0.294678,-0.455322,0.237278,0.553802,-0.700991,0.998873,0.045327,-0.013662,0.003272,-0.698514,-0.071141,0.643638,0.304543
41973,NaN,49.726436,2.346509,-1.598583,0.920850,-24.170651,33.725275,11.138177,-2.226854,-0.602981,-0.539307,-0.331299,-0.418945,0.497461,0.022602,-0.009170,0.998383,0.055661,-0.011128,-0.003013,-0.685350,-0.108455,0.667102,0.271122
41974,NaN,18.909247,-5.405230,17.496157,-19.031790,-10.330649,5.152173,-1.781565,-0.700942,-0.053807,-0.539795,-0.316162,-0.425537,0.188462,-0.052538,0.176095,0.999954,-0.008908,-0.003505,-0.000269,-0.683802,-0.101465,0.667458,0.276803
41975,NaN,3.128230,2.093382,1.639977,-1.254171,0.530148,-5.939344,1.032940,-1.879848,1.095165,-0.556641,-0.320557,-0.408447,0.031011,0.021018,0.016801,0.999927,0.005165,-0.009399,0.005476,-0.678476,-0.098732,0.675816,0.270544
41976,NaN,3.455054,-1.816324,-12.167697,11.173222,-6.004671,-8.273889,2.188694,-3.070272,2.206737,-0.573730,-0.318359,-0.387207,0.036603,-0.016438,-0.121312,0.999761,0.010943,-0.015350,0.011033,-0.669900,-0.094277,0.690378,0.256366
41977,NaN,18.312726,-8.672559,-0.745624,-2.773740,-15.989947,2.340687,-0.489596,-1.481845,3.429791,-0.593262,-0.299316,-0.378906,0.184626,-0.083584,-0.005885,0.999823,-0.002448,-0.007409,0.017148,-0.669299,-0.078881,0.696203,0.247221
41978,NaN,18.428834,-4.065171,-0.640900,-2.105892,-11.464764,5.040909,1.977433,-2.737813,3.510853,-0.610596,-0.286377,-0.347168,0.185032,-0.037359,-0.004260,0.999703,0.009886,-0.013688,0.017553,-0.663128,-0.069588,0.709308,0.228696
41979,NaN,23.104816,1.630413,-3.370954,0.763480,-8.113400,12.126187,3.004458,-3.170227,3.767316,-0.638428,-0.275879,-0.323975,0.231173,0.021125,-0.029752,0.999584,0.015020,-0.015849,0.018834,-0.654878,-0.062534,0.724263,0.206561
41980,NaN,21.747058,3.434607,-3.948286,1.231040,-5.004725,11.950093,3.170429,-3.211091,4.052576,-0.657715,-0.262939,-0.294434,0.217297,0.039334,-0.035396,0.999540,0.015850,-0.016053,0.020260,-0.646134,-0.054552,0.739262,0.181729
41981,NaN,22.065493,13.618368,-6.851809,4.802618,5.075007,16.075675,3.584114,-3.290844,4.535260,-0.683838,-0.239502,-0.264893,0.218534,0.142311,-0.062396,0.999447,0.017917,-0.016451,0.022672,-0.636763,-0.046347,0.753972,0.154631
41982,NaN,30.910280,22.585909,-4.270965,1.086357,13.480909,26.249862,1.760386,-1.461261,5.108245,-0.692871,-0.213867,-0.252441,0.303486,0.234010,-0.038442,0.999608,0.008801,-0.007305,0.025538,-0.634452,-0.031252,0.761122,0.131099
41983,NaN,31.511923,11.763894,8.334121,-13.079536,6.621529,21.583511,1.470036,-2.132095,4.074843,-0.708496,-0.190430,-0.237549,0.311726,0.123380,0.087569,0.999709,0.007349,-0.010659,0.020372,-0.628601,-0.019000,0.769259,0.112875
41984,NaN,34.652003,16.676645,1.084277,-6.927832,11.259443,26.311759,2.685730,-2.478044,3.636443,-0.717285,-0.173340,-0.216553,0.343226,0.172823,0.017403,0.999668,0.013427,-0.012389,0.018180,-0.620618,-0.011816,0.778761,0.090695
41985,NaN,33.136452,21.047357,11.662431,-17.414376,18.378851,22.369510,2.666801,-2.370332,3.436863,-0.724365,-0.147705,-0.195557,0.326266,0.214495,0.123354,0.999693,0.013333,-0.011850,0.017183,-0.612605,-0.005628,0.787285,0.069761
41986,NaN,28.042251,14.716721,9.902303,-15.753161,13.457254,16.101740,1.181246,-2.840875,3.405230,-0.731445,-0.126221,-0.180908,0.276417,0.151293,0.103854,0.999737,0.005906,-0.014203,0.017025,-0.602536,0.005316,0.796212,0.054482
41987,NaN,20.629146,9.502117,8.044278,-12.849273,9.344802,8.299589,1.396869,-2.214104,3.394168,-0.740479,-0.104736,-0.164307,0.203734,0.097918,0.083385,0.999770,0.006984,-0.011070,0.016970,-0.594550,0.015224,0.802986,0.038625
41988,NaN,9.996641,8.588910,7.569654,-9.620368,9.079313,-2.330336,1.375829,-2.267502,3.250310,-0.749512,-0.081299,-0.151611,0.097688,0.086960,0.077409,0.999780,0.006879,-0.011337,0.016250,-0.586371,0.024744,0.809331,0.023252
41989,NaN,5.840940,8.811250,4.322856,-5.365646,9.218907,-5.732507,1.017092,-2.208322,2.889664,-0.750244,-0.055664,-0.141357,0.056645,0.088716,0.044311,0.999822,0.005085,-0.011041,0.014447,-0.577797,0.033711,0.815418,0.010388
41990,NaN,12.209248,2.445993,0.720887,-4.605851,3.129854,1.347507,1.648941,-1.266881,2.111550,-0.748535,-0.042725,-0.132812,0.121776,0.025682,0.008189,0.999890,0.008244,-0.006334,0.010557,-0.573377,0.037684,0.818421,-0.002490
41991,NaN,3.357031,3.214979,4.023090,-4.752277,3.569255,-8.242266,1.778782,-0.677731,1.578252,-0.750977,-0.030029,-0.128662,0.033180,0.032052,0.040629,0.999924,0.008894,-0.003389,0.007891,-0.570881,0.039035,0.819978,-0.014420
41992,NaN,-4.319537,12.274383,8.006215,-5.346542,12.051004,-17.532918,-0.490687,-1.296771,0.713159,-0.753174,-0.030029,-0.124512,-0.044150,0.122783,0.079477,0.999970,-0.002453,-0.006484,0.003566,-0.565866,0.043306,0.823232,-0.014493
41993,NaN,-4.403584,20.265044,4.042553,-0.897814,19.914614,-16.812329,-1.569721,-1.392185,0.155179,-0.747070,-0.021484,-0.122559,-0.044466,0.202923,0.038525,0.999945,-0.007848,-0.006961,0.000776,-0.559758,0.048286,0.827201,-0.008770
41994,NaN,-3.954785,22.108048,0.163512,3.090275,21.637592,-14.977827,-1.964784,-0.946968,0.324477,-0.749268,-0.014893,-0.124756,-0.039907,0.221017,-0.000725,0.999939,-0.009824,-0.004735,0.001622,-0.555818,0.055016,0.829481,-0.001330
41995,NaN,-3.174843,12.791365,0.571693,1.981127,12.445719,-13.710683,-2.518058,-0.906701,0.117847,-0.740723,-0.012939,-0.114258,-0.031844,0.127952,0.003962,0.999910,-0.012590,-0.004533,0.000589,-0.551320,0.062495,0.831906,0.008537
41996,NaN,-1.140125,0.776520,3.524363,-2.677999,1.024075,-12.282908,-3.671245,-0.507412,-0.376490,-0.743164,-0.010742,-0.122559,-0.011475,0.008432,0.035064,0.999827,-0.018355,-0.002537,-0.001882,-0.548402,0.070869,0.832820,0.025368
41997,NaN,-3.219689,-4.065703,8.051663,-6.700743,-3.231277,-15.844247,-2.631580,0.037120,-0.074178,-0.739014,-0.002197,-0.120605,-0.032197,-0.039581,0.081048,0.999913,-0.013158,0.000186,-0.000371,-0.547573,0.077769,0.832335,0.036541
41998,NaN,-1.436077,-4.217321,9.754683,-9.027912,-2.766412,-14.896307,-1.512319,0.606217,-0.374445,-0.739014,-0.008545,-0.131104,-0.014142,-0.041407,0.097905,0.999965,-0.007562,0.003031,-0.001872,-0.549910,0.080080,0.830173,0.044702
41999,NaN,-2.176670,-5.270387,9.534207,-8.799549,-3.744189,-15.466252,-1.236856,0.818507,-0.532571,-0.736816,-0.008545,-0.135254,-0.021515,-0.052055,0.095754,0.999969,-0.006184,0.004092,-0.002663,-0.552682,0.081088,0.827830,0.051628
42000,NaN,0.908342,-7.316963,2.749495,-4.292201,-6.591517,-10.035854,-2.080602,1.336180,-0.769334,-0.730225,-0.014893,-0.152344,0.008989,-0.072913,0.028194,0.999916,-0.010403,0.006681,-0.003847,-0.557702,0.083208,0.823422,0.063413
42001,NaN,1.845944,-5.697887,1.379470,-3.117659,-5.176896,-8.691892,-1.168921,1.953273,-0.926929,-0.728271,-0.014893,-0.162842,0.018331,-0.056983,0.013948,0.999924,-0.005844,0.009766,-0.004635,-0.564927,0.082029,0.817923,0.071620
42002,NaN,0.108824,-1.649630,2.488898,-2.673728,-1.072535,-10.605424,-0.586307,2.305916,-1.047250,-0.723877,-0.025391,-0.179688,0.001289,-0.016430,0.024923,0.999916,-0.002931,0.011529,-0.005236,-0.574269,0.078537,0.811120,0.078299
42003,NaN,0.337608,1.061031,0.509865,-0.345557,1.156829,-9.607773,-0.725068,2.487977,-1.181132,-0.721680,-0.029785,-0.194336,0.003501,0.010608,0.005017,0.999899,-0.003625,0.012439,-0.005905,-0.583560,0.074850,0.804069,0.085601
42004,NaN,1.242236,1.780134,0.041549,-0.011849,1.755556,-8.535417,-0.447290,2.792524,-1.283210,-0.719238,-0.038330,-0.213379,0.012540,0.017722,0.000201,0.999879,-0.002236,0.013962,-0.006416,-0.594547,0.069760,0.795666,0.092538
42005,NaN,3.589786,3.636565,1.582112,-1.650378,3.870731,-6.510308,-0.326941,3.096984,-1.367206,-0.712646,-0.048828,-0.232422,0.036384,0.036143,0.015201,0.999855,-0.001635,0.015484,-0.006836,-0.606041,0.063853,0.786665,0.098971
42006,NaN,5.634885,4.562786,1.858832,-2.103743,4.691009,-4.373136,-0.636574,3.463462,-1.547364,-0.697754,-0.051025,-0.255615,0.057009,0.045245,0.017460,0.999815,-0.003183,0.017316,-0.007736,-0.619093,0.057906,0.775748,0.107631
42007,NaN,7.782991,4.240366,3.317536,-3.835421,4.475425,-2.409421,-1.007066,3.788895,-1.657614,-0.691162,-0.063721,-0.281006,0.078786,0.041915,0.031477,0.999774,-0.005035,0.018943,-0.008287,-0.632471,0.052545,0.763778,0.117742
42008,NaN,12.883795,2.260879,1.777844,-3.440218,1.554572,2.835764,-0.878084,4.065185,-1.755453,-0.676025,-0.074463,-0.304199,0.129355,0.021545,0.015056,0.999745,-0.004390,0.020324,-0.008777,-0.647072,0.046108,0.750173,0.128107
42009,NaN,19.863259,3.168280,1.687426,-3.637815,1.262428,9.999602,-0.322705,4.490333,-1.847474,-0.663086,-0.087158,-0.333740,0.199225,0.029867,0.012356,0.999704,-0.001613,0.022449,-0.009236,-0.662471,0.037336,0.735638,0.136292
42010,NaN,28.062470,9.358268,1.182309,-1.663286,5.284580,19.266513,0.248928,4.948056,-1.905328,-0.641602,-0.102051,-0.363281,0.281679,0.090893,0.004977,0.999648,0.001244,0.024737,-0.009526,-0.679675,0.026007,0.718972,0.142986
42011,NaN,35.935732,16.659361,3.911653,-1.810425,10.604200,28.503213,-0.127827,5.197496,-2.222575,-0.622314,-0.110596,-0.388672,0.362031,0.162601,0.029626,0.999600,-0.000639,0.025984,-0.011111,-0.696486,0.014729,0.701215,0.151617
42012,NaN,40.460065,15.629174,7.536380,-3.837324,8.026267,33.295662,-1.254941,5.257959,-2.923153,-0.596680,-0.121094,-0.422607,0.408608,0.150763,0.063698,0.999528,-0.006274,0.026286,-0.014613,-0.712733,0.004649,0.681248,0.167007
42013,NaN,38.110624,4.556536,5.041828,-2.249977,-4.181069,28.600176,-2.082258,5.437023,-3.205762,-0.571045,-0.129639,-0.454346,0.382950,0.039886,0.039588,0.999448,-0.010409,0.027180,-0.016026,-0.728137,-0.003389,0.659829,0.185556
42014,NaN,31.607327,0.325119,5.039433,-2.088021,-7.889757,21.132136,-2.062368,5.521174,-3.267110,-0.543213,-0.140381,-0.477539,0.317305,-0.001467,0.041644,0.999432,-0.010310,0.027601,-0.016332,-0.743361,-0.011991,0.636738,0.204537
42015,NaN,33.685731,2.546245,2.073874,2.909668,-8.623313,22.781569,-1.061605,4.554394,-3.215872,-0.513428,-0.150879,-0.502930,0.337563,0.020120,0.012940,0.999597,-0.005307,0.022769,-0.016077,-0.754341,-0.022933,0.618270,0.219513
42016,NaN,36.680226,6.458429,1.368933,6.088339,-7.896236,26.094619,0.194832,2.792265,-3.984701,-0.500244,-0.166016,-0.515625,0.368136,0.057248,0.008614,0.999704,0.000974,0.013960,-0.019922,-0.758716,-0.039129,0.606709,0.233928
42017,NaN,34.330096,13.147926,0.673913,8.923880,-2.954728,25.728623,-1.230462,2.151118,-4.804981,-0.472412,-0.174561,-0.532471,0.346368,0.123205,0.002249,0.999635,-0.006152,0.010754,-0.024022,-0.759592,-0.051536,0.595941,0.255380
42018,NaN,27.055127,13.945763,-3.430023,12.578741,-1.735147,18.055896,-4.007676,3.316552,-4.278563,-0.445557,-0.155029,-0.560303,0.272792,0.132853,-0.041519,0.999433,-0.020035,0.016580,-0.021389,-0.764864,-0.053306,0.576319,0.282838
42019,NaN,20.949942,12.459127,-2.954269,11.671534,-1.281694,11.743503,-6.159510,4.865869,-2.866991,-0.412598,-0.127197,-0.594482,0.210384,0.120487,-0.038409,0.999127,-0.030789,0.024322,-0.014331,-0.775808,-0.044848,0.547732,0.310000
42020,NaN,15.810222,9.471826,-1.103954,8.778140,-1.451181,6.361565,-5.677082,3.925298,-2.281087,-0.385742,-0.103516,-0.620117,0.158874,0.092486,-0.016800,0.999340,-0.028379,0.019622,-0.011403,-0.783904,-0.035231,0.522538,0.333478
42021,NaN,12.317035,9.348419,0.028764,7.714989,0.084931,3.584987,-5.329315,3.403753,-1.881804,-0.363281,-0.077637,-0.633057,0.123995,0.092246,-0.004288,0.999456,-0.026642,0.017016,-0.009407,-0.790176,-0.024916,0.499691,0.353993
42022,NaN,7.829039,6.724583,1.296358,4.747019,0.698969,-0.585553,-5.322668,3.036835,-1.607529,-0.343018,-0.045410,-0.650391,0.078996,0.066905,0.009984,0.999498,-0.026609,0.015182,-0.008036,-0.795238,-0.013424,0.477644,0.373192
42023,NaN,4.437286,2.310640,0.291926,2.374347,-0.992089,-5.513003,-5.609241,2.307614,-1.283039,-0.329346,-0.004883,-0.659180,0.044545,0.022881,0.001762,0.999520,-0.028042,0.011536,-0.006414,-0.798354,0.001514,0.457680,0.391353
42024,NaN,2.490172,-2.163899,-2.148587,0.811406,-3.846149,-10.027084,-5.558877,1.246365,-1.048004,-0.323975,0.025146,-0.663574,0.024654,-0.022357,-0.021025,0.999581,-0.027791,0.006231,-0.005239,-0.798816,0.018683,0.441517,0.408176
42025,NaN,1.525044,-6.333186,-3.074320,-1.852123,-6.360776,-12.638828,-4.700867,0.313463,-0.841145,-0.326904,0.055176,-0.666016,0.014935,-0.064095,-0.029266,0.999714,-0.023502,0.001567,-0.004205,-0.797128,0.034955,0.430615,0.421824
42026,NaN,0.738112,-7.938034,-4.233248,-2.750936,-7.316965,-14.325180,-3.652464,-0.356786,-0.649535,-0.333984,0.078857,-0.666016,0.007195,-0.080159,-0.040860,0.999826,-0.018261,-0.001784,-0.003247,-0.794248,0.048772,0.424276,0.432182
42027,NaN,-0.839695,-7.584205,-5.827758,-2.176459,-6.774254,-16.259024,-2.680790,-0.841385,-0.273117,-0.336426,0.093750,-0.661865,-0.008259,-0.076603,-0.057289,0.999900,-0.013404,-0.004207,-0.001366,-0.791145,0.060651,0.421839,0.438706
42028,NaN,-3.972388,-5.663815,-7.761234,-0.545525,-4.569986,-19.135244,-1.890491,-1.269537,0.067222,-0.349609,0.106689,-0.657715,-0.039213,-0.057383,-0.077322,0.999935,-0.009452,-0.006348,0.000336,-0.788018,0.071107,0.422592,0.442026
42029,NaN,-6.630928,-5.006634,-9.284080,0.138820,-3.389502,-21.800932,-0.935714,-1.660735,0.326174,-0.354248,0.117432,-0.651611,-0.065454,-0.050609,-0.093151,0.999953,-0.004678,-0.008304,0.001631,-0.784865,0.079149,0.426922,0.442108
42030,NaN,-7.472104,-7.913702,-9.312814,-2.165369,-4.822088,-23.125789,0.832025,-1.860582,0.529772,-0.373047,0.106689,-0.638672,-0.073639,-0.078943,-0.094145,0.999945,0.004160,-0.009303,0.002649,-0.782366,0.081243,0.435785,0.437486
42031,NaN,-9.048012,-11.466416,-9.503277,-4.746795,-6.339674,-25.333819,2.767303,-1.873774,0.605935,-0.389404,0.089355,-0.638428,-0.089229,-0.113599,-0.097449,0.999856,0.013836,-0.009368,0.003030,-0.780625,0.075825,0.448849,0.428263
42032,NaN,-8.147920,-13.517657,-10.171330,-4.931507,-8.781065,-25.657903,4.604743,-2.070307,0.599474,-0.395020,0.063721,-0.629883,-0.079998,-0.133016,-0.105626,0.999677,0.023021,-0.010350,0.002997,-0.778780,0.063852,0.466362,0.414646
42033,NaN,-10.409266,-13.829692,-12.208263,-3.173353,-8.948346,-28.743003,6.130588,-2.533703,0.607455,-0.419189,0.020752,-0.620850,-0.102087,-0.134755,-0.127552,0.999445,0.030647,-0.012666,0.003037,-0.775663,0.046616,0.488472,0.396951
42034,NaN,-7.121936,-10.644880,-11.331122,0.251601,-8.487503,-24.651851,6.679318,-3.041066,0.671592,-0.435059,-0.009277,-0.601562,-0.069101,-0.102797,-0.117847,0.999321,0.033389,-0.015202,0.003357,-0.770645,0.028787,0.512977,0.377003
42035,NaN,-1.711101,-6.768449,-7.147137,1.341953,-6.988568,-16.823250,5.549248,-2.836153,0.645259,-0.451172,-0.041504,-0.584473,-0.015864,-0.065715,-0.073544,0.999509,0.027742,-0.014178,0.003226,-0.765015,0.014394,0.534009,0.359694
42036,NaN,0.576780,-2.346206,-4.591850,2.566627,-3.899591,-12.076109,3.901294,-2.741858,0.742179,-0.467773,-0.050049,-0.571533,0.006485,-0.022538,-0.046279,0.999709,0.019505,-0.013708,0.003711,-0.759128,0.006919,0.551309,0.346028
42037,NaN,2.840130,2.090587,-3.981969,4.844494,-1.396365,-8.118403,2.336075,-2.929620,0.854390,-0.494873,-0.062988,-0.552246,0.028887,0.021488,-0.039150,0.999815,0.011680,-0.014647,0.004272,-0.752478,0.005475,0.566329,0.336182
42038,NaN,6.782221,4.651219,-2.148088,5.013971,-0.535781,-2.970709,1.204545,-3.202907,1.006301,-0.509521,-0.067383,-0.533203,0.067916,0.046978,-0.020112,0.999841,0.006022,-0.016014,0.005031,-0.745020,0.009709,0.580355,0.328694
42039,NaN,11.405839,7.297826,3.855051,1.442485,1.963312,4.053041,0.546660,-3.299614,1.128979,-0.532959,-0.061035,-0.514160,0.112986,0.073509,0.040621,0.999844,0.002733,-0.016497,0.005645,-0.737218,0.016370,0.593390,0.322692
42040,NaN,17.597063,11.570267,11.558644,-2.929801,6.106638,13.235428,0.310556,-2.780853,0.920346,-0.553955,-0.067383,-0.499268,0.173805,0.116324,0.118193,0.999892,0.001553,-0.013904,0.004602,-0.730371,0.022916,0.604102,0.317953
42041,NaN,25.147255,9.166872,12.603398,-5.104383,1.735774,19.275709,2.353926,-2.165394,0.447685,-0.562012,-0.078125,-0.478027,0.249877,0.090716,0.129817,0.999870,0.011769,-0.010826,0.002238,-0.724724,0.019112,0.615613,0.308919
42042,NaN,30.138459,2.265294,19.161933,-14.699900,-3.396679,22.635755,5.092229,-1.123066,-0.233204,-0.563477,-0.104004,-0.467285,0.300323,0.017386,0.193795,0.999659,0.025458,-0.005615,-0.001166,-0.721182,0.002104,0.627373,0.293761
42043,NaN,21.450800,-2.173885,17.624178,-16.041304,-4.592013,12.481436,2.462841,0.570485,-0.918387,-0.556885,-0.105957,-0.473633,0.214900,-0.024888,0.175336,0.999910,0.012314,0.002852,-0.004592,-0.721590,-0.010494,0.628878,0.289327
42044,NaN,6.535481,-3.932399,2.008523,-3.132595,-5.408624,-5.001908,-1.848469,2.072937,-1.206447,-0.550781,-0.103760,-0.492676,0.065323,-0.039534,0.019773,0.999885,-0.009242,0.010364,-0.006032,-0.726557,-0.009974,0.618418,0.299291
42045,NaN,-3.299202,-1.809462,-3.529485,2.183428,-1.214255,-14.326190,-0.724960,3.326735,-0.722408,-0.540039,-0.110352,-0.505371,-0.033638,-0.018100,-0.034673,0.999849,-0.003625,0.016633,-0.003612,-0.735695,-0.014550,0.605110,0.303945
42046,NaN,-18.694433,-2.921898,-34.301893,28.166333,-4.459377,-36.663264,5.545050,3.299603,-0.481979,-0.534668,-0.144531,-0.496582,-0.192631,-0.019294,-0.340499,0.999477,0.027720,0.016495,-0.002409,-0.744339,-0.040716,0.600892,0.288499
42047,NaN,-20.933176,-11.965212,-20.634801,12.747134,-5.185872,-38.404156,7.807353,0.419208,-0.462776,-0.531494,-0.176758,-0.477295,-0.210034,-0.111006,-0.210355,0.999233,0.039027,0.002096,-0.002313,-0.742778,-0.071727,0.610028,0.266463
42048,NaN,2.381189,-19.481620,16.171745,-21.035327,-14.053654,-12.404683,0.472963,-1.984278,-0.828593,-0.546875,-0.163818,-0.475342,0.021401,-0.195290,0.161476,0.999939,0.002365,-0.009921,-0.004143,-0.735402,-0.072785,0.617852,0.268600
42049,NaN,32.519418,26.361957,48.531563,-33.829205,18.327646,41.438635,-5.507608,0.104665,-0.122762,-0.546387,-0.174561,-0.470947,0.325613,0.276645,0.477646,0.999621,-0.027535,0.000523,-0.000614,-0.737292,-0.053026,0.609784,0.285923
42050,NaN,58.849911,90.232574,-68.449731,96.324207,31.818560,67.503202,13.847011,-2.066893,-2.692562,-0.559082,-0.241211,-0.421875,0.607570,0.938394,-0.614107,0.997460,0.069176,-0.010326,-0.013451,-0.721918,-0.108385,0.634693,0.253480
42051,NaN,35.186779,-15.402437,6.839253,-7.856628,-29.921605,13.957606,6.395511,-2.330120,-1.029500,-0.561035,-0.243408,-0.417480,0.350271,-0.157998,0.067469,0.999408,0.031971,-0.011648,-0.005146,-0.709335,-0.131712,0.650265,0.238015
42052,NaN,-0.785440,-18.169453,1.789859,-5.344765,-14.693060,-19.267480,-6.094627,-1.696938,-0.888120,-0.568115,-0.224121,-0.419678,-0.008842,-0.181000,0.023350,0.999490,-0.030468,-0.008483,-0.004440,-0.706234,-0.110567,0.648483,0.261686
42053,NaN,-8.742513,-20.601024,5.097992,-9.925377,-11.856238,-26.775427,-2.063341,-2.263822,1.066385,-0.585205,-0.217773,-0.398682,-0.086913,-0.205941,0.052119,0.999869,-0.010316,-0.011319,0.005332,-0.701345,-0.096845,0.654273,0.265826
42054,NaN,3.522474,-8.686729,-13.582893,11.193559,-11.900786,-12.123277,4.162201,-4.826742,2.296285,-0.613037,-0.209229,-0.371094,0.039489,-0.083591,-0.136673,0.999426,0.020807,-0.024129,0.011479,-0.686087,-0.096807,0.677785,0.246009
42055,NaN,14.959291,-8.772852,-10.812572,7.982545,-16.631707,-1.022706,-1.841909,-1.859616,4.097479,-0.635254,-0.175049,-0.362793,0.152353,-0.085608,-0.105923,0.999705,-0.009209,-0.009297,0.020485,-0.685522,-0.074286,0.683674,0.239022
42056,NaN,25.198533,-10.679204,-0.151205,-3.774794,-19.705825,8.796898,-0.060443,-2.822683,4.117732,-0.650391,-0.157959,-0.335449,0.254100,-0.101574,0.002096,0.999688,-0.000302,-0.014112,0.020587,-0.680342,-0.055766,0.695074,0.225605
42057,NaN,28.221152,4.375641,-1.110401,-0.358262,-6.585597,17.991733,3.541670,-4.077663,3.448802,-0.667480,-0.149414,-0.310059,0.281537,0.048735,-0.004525,0.999487,0.017705,-0.020385,0.017241,-0.668734,-0.051197,0.713534,0.202589
42058,NaN,25.126720,8.725077,-2.871540,1.524994,-0.664703,16.885081,2.745695,-3.635981,3.402136,-0.693359,-0.134521,-0.278320,0.250183,0.091854,-0.022920,0.999596,0.013727,-0.018177,0.017008,-0.657987,-0.043430,0.729495,0.181668
42059,NaN,18.656717,9.305709,-8.734978,7.466359,1.730073,11.450226,2.036522,-2.829445,4.084873,-0.700439,-0.106689,-0.261475,0.185805,0.097723,-0.083738,0.999640,0.010181,-0.014146,0.020422,-0.650707,-0.032642,0.741270,0.161351
42060,NaN,24.926284,7.861710,-4.241857,1.449005,0.905927,16.607632,1.674404,-1.896106,4.697195,-0.718262,-0.081055,-0.244873,0.247703,0.084785,-0.039372,0.999644,0.008371,-0.009479,0.023483,-0.646640,-0.018083,0.749711,0.139509
42061,NaN,36.911238,6.665485,3.039961,-8.336694,0.090827,26.879900,1.713965,-2.513081,3.838829,-0.731445,-0.059570,-0.230225,0.367320,0.073427,0.035633,0.999700,0.008569,-0.012564,0.019192,-0.639557,-0.007472,0.759147,0.120859
42062,NaN,37.996282,9.267297,3.391654,-9.434371,3.972309,28.083115,3.117929,-2.652708,2.774731,-0.738037,-0.049072,-0.207031,0.378126,0.097331,0.040434,0.999694,0.015588,-0.013262,0.013872,-0.630581,-0.004248,0.769692,0.099624
42063,NaN,33.268509,17.618487,8.971219,-14.042950,14.559639,23.176296,4.412464,-2.032782,2.563060,-0.746826,-0.040527,-0.189941,0.329447,0.178335,0.096991,0.999623,0.022060,-0.010163,0.012814,-0.623711,-0.007276,0.778056,0.074570
42064,NaN,24.157263,12.371169,12.114466,-16.393221,11.381039,12.210231,1.525498,-2.404762,2.843066,-0.758057,-0.012695,-0.171143,0.238303,0.126171,0.124979,0.999798,0.007627,-0.012023,0.014214,-0.615159,0.000840,0.786164,0.059376
42065,NaN,21.052333,6.594272,8.692366,-13.259338,6.112351,8.869234,2.084704,-2.169252,2.928102,-0.760498,0.000244,-0.158447,0.208573,0.068079,0.089895,0.999780,0.010423,-0.010845,0.014639,-0.607382,0.006587,0.793263,0.042153
42066,NaN,12.591383,7.453690,6.984421,-9.681208,7.579642,0.755316,1.973340,-1.706517,2.727029,-0.767334,0.017334,-0.152344,0.124282,0.075538,0.071651,0.999822,0.009866,-0.008532,0.013634,-0.601310,0.012546,0.798505,0.025640
42067,NaN,7.085263,6.589485,2.323519,-3.918251,6.712213,-3.599334,1.551706,-1.404333,2.613461,-0.778564,0.034424,-0.148193,0.069817,0.066626,0.024243,0.999860,0.007758,-0.007021,0.013067,-0.596059,0.018500,0.802645,0.011496
42068,NaN,8.887084,2.234094,1.217882,-3.661910,2.504360,-1.702768,2.345659,-0.465265,1.855654,-0.781006,0.049316,-0.144043,0.088630,0.023017,0.012653,0.999885,0.011728,-0.002326,0.009278,-0.594726,0.019608,0.803681,-0.003745
42069,NaN,0.641303,-0.105122,1.044817,-1.189398,-0.067102,-9.504813,1.375462,-0.578362,1.263566,-0.789551,0.051514,-0.139893,0.006390,-0.001083,0.010459,0.999952,0.006877,-0.002892,0.006318,-0.592491,0.020591,0.805208,-0.013087
42070,NaN,-4.983274,5.072131,5.501002,-3.671108,4.769621,-16.490383,1.131837,-0.966481,1.340556,-0.796387,0.064453,-0.142090,-0.050436,0.050073,0.055052,0.999950,0.005659,-0.004832,0.006703,-0.588915,0.023152,0.807565,-0.021951
42071,NaN,3.701797,17.515610,5.623603,-6.280782,17.673263,-9.241076,0.123341,-1.484361,0.930130,-0.794434,0.070801,-0.120850,0.035784,0.175290,0.056613,0.999961,0.000617,-0.007422,0.004651,-0.582817,0.026388,0.811779,-0.025360
42072,NaN,-1.968431,24.309031,2.916512,-1.725023,24.058780,-14.449984,-0.289213,-1.394493,0.714548,-0.802979,0.077148,-0.114502,-0.020754,0.243059,0.028671,0.999968,-0.001446,-0.006972,0.003573,-0.577403,0.030299,0.815464,-0.026572
42073,NaN,-4.094913,22.295714,2.243612,-0.138816,21.864780,-16.200063,-1.322434,-1.365621,0.878369,-0.805176,0.083496,-0.099854,-0.042073,0.222915,0.020677,0.999945,-0.006612,-0.006828,0.004392,-0.571493,0.037522,0.819399,-0.023923
42074,NaN,-2.504404,12.375132,1.283588,0.236936,12.102359,-13.624709,-2.069217,-1.434832,1.005599,-0.816162,0.094238,-0.091309,-0.025751,0.123746,0.011372,0.999908,-0.010346,-0.007174,0.005028,-0.565468,0.047259,0.823208,-0.018476
42075,NaN,1.203881,3.508147,3.573223,-3.514849,3.733078,-10.295216,-2.276474,-0.859978,0.970013,-0.810059,0.102783,-0.089355,0.011715,0.035543,0.035380,0.999914,-0.011382,-0.004300,0.004850,-0.561259,0.057612,0.825545,-0.012051
42076,NaN,2.588722,1.915599,4.386419,-4.821682,2.445511,-9.195711,-2.948107,-0.102352,0.388375,-0.814453,0.107178,-0.083008,0.025827,0.019850,0.043588,0.999889,-0.014740,-0.000512,0.001942,-0.560348,0.067203,0.825526,-0.000825
42077,NaN,-0.101619,-1.907022,8.410858,-7.971068,-1.196155,-12.881641,-1.898154,0.522680,0.025392,-0.814453,0.107178,-0.089355,-0.000794,-0.018271,0.084287,0.999952,-0.009491,0.002613,0.000127,-0.561848,0.072632,0.824015,0.007114
42078,NaN,-2.991008,-4.678349,7.998702,-6.966799,-4.180063,-15.179446,-0.734808,0.830895,0.134131,-0.822998,0.109375,-0.095703,-0.029546,-0.046509,0.080281,0.999984,-0.003674,0.004154,0.000671,-0.565541,0.074946,0.821244,0.010229
42079,NaN,-2.536288,-4.061903,5.174113,-4.501791,-3.725599,-13.756761,-1.415327,1.113440,-0.313259,-0.820801,0.104980,-0.102051,-0.025136,-0.040211,0.052167,0.999958,-0.007077,0.005567,-0.001566,-0.569550,0.077610,0.818100,0.017343
42080,NaN,0.450480,-0.516469,2.541703,-2.594508,-0.138571,-10.235726,-2.062524,1.357472,-0.615069,-0.824951,0.103027,-0.118896,0.004662,-0.004917,0.025437,0.999919,-0.010312,0.006787,-0.003075,-0.574813,0.080667,0.813812,0.028158
42081,NaN,0.493336,0.388708,2.810571,-2.715993,0.833542,-10.283832,-0.896787,2.156916,-0.905713,-0.826904,0.092285,-0.133545,0.005254,0.003990,0.028032,0.999922,-0.004484,0.010784,-0.004528,-0.583063,0.079256,0.807782,0.035277
42082,NaN,-1.788433,2.342097,2.399805,-1.334161,2.529370,-12.315587,-0.178045,2.426288,-1.118193,-0.824707,0.085938,-0.148438,-0.017460,0.023541,0.024191,0.999910,-0.000890,0.012131,-0.005591,-0.593169,0.074644,0.800596,0.040306
42083,NaN,-1.545164,2.439543,0.999569,-0.108971,2.464303,-11.616295,-0.814482,2.497975,-1.346924,-0.820068,0.075195,-0.167480,-0.015161,0.024539,0.010087,0.999891,-0.004072,0.012489,-0.006734,-0.602536,0.071163,0.793432,0.048489
42084,NaN,1.430181,0.837680,-0.245952,0.021393,0.846654,-8.366970,-1.284517,2.566013,-1.463004,-0.826172,0.060303,-0.186279,0.014329,0.008255,-0.002697,0.999870,-0.006422,0.012830,-0.007315,-0.612442,0.068371,0.785340,0.058999
42085,NaN,3.418295,0.543658,0.697522,-1.347918,0.746445,-6.635951,-1.324647,2.807446,-1.610426,-0.819580,0.051758,-0.209473,0.034319,0.005205,0.006459,0.999847,-0.006623,0.014037,-0.008052,-0.622452,0.065272,0.776776,0.070082
42086,NaN,4.503243,1.082309,1.783453,-2.414282,1.419323,-5.715688,-1.159026,3.092842,-1.742373,-0.821289,0.036865,-0.228516,0.045393,0.010529,0.017073,0.999826,-0.005795,0.015463,-0.008711,-0.633966,0.060783,0.766692,0.081096
42087,NaN,7.567543,1.043837,-0.459142,-0.668217,0.758139,-2.227235,-1.110231,3.381204,-1.864741,-0.808105,0.017578,-0.260010,0.075676,0.009702,-0.005926,0.999798,-0.005551,0.016905,-0.009323,-0.645714,0.055778,0.755929,0.092273
42088,NaN,13.851576,0.249532,-2.783922,0.776626,-1.031027,4.257919,-0.718945,3.755237,-1.945851,-0.799316,0.000488,-0.283203,0.137975,0.001045,-0.030439,0.999770,-0.003594,0.018775,-0.009729,-0.659251,0.048752,0.743323,0.102384
42089,NaN,23.061574,7.342846,-1.946734,0.927725,4.947270,13.938256,0.016900,4.253983,-2.098227,-0.792480,-0.018555,-0.321045,0.230886,0.071009,-0.024371,0.999719,0.000084,0.021268,-0.010490,-0.673814,0.038714,0.729605,0.110244
42090,NaN,32.691945,20.198520,-2.764895,4.657784,15.493007,25.150159,-0.130369,4.754413,-2.188109,-0.777344,-0.031250,-0.354980,0.328320,0.198377,-0.035573,0.999657,-0.000652,0.023769,-0.010939,-0.690238,0.028251,0.713161,0.119059
42091,NaN,41.348010,23.597605,3.115459,0.975847,17.521024,34.544754,-2.164333,4.773991,-2.996464,-0.762207,-0.052734,-0.396973,0.417502,0.229988,0.018709,0.999544,-0.010820,0.023866,-0.014980,-0.704863,0.022188,0.695489,0.137735
42092,NaN,40.913949,4.305141,2.604907,-0.830908,-2.974112,31.286686,-3.842169,4.977824,-3.693083,-0.738525,-0.065430,-0.435059,0.410313,0.035841,0.015110,0.999335,-0.019207,0.024884,-0.018461,-0.719248,0.018803,0.674687,0.164701
42093,NaN,35.893724,-7.146179,8.607740,-8.234597,-12.957193,24.501704,-1.230197,4.968842,-3.395184,-0.714844,-0.086670,-0.473145,0.359659,-0.077069,0.077610,0.999528,-0.006150,0.024840,-0.016973,-0.732766,0.007680,0.655799,0.181447
42094,NaN,37.311929,2.211875,9.410257,-4.874511,-6.085055,27.928393,-1.912706,4.807055,-3.985401,-0.693115,-0.103760,-0.506836,0.375587,0.015491,0.084925,0.999467,-0.009562,0.024031,-0.019923,-0.744962,-0.003157,0.635629,0.202478
42095,NaN,41.890084,-5.215400,5.644818,-1.584092,-17.111626,29.148983,-2.365215,5.041213,-3.872003,-0.665039,-0.125000,-0.542725,0.419051,-0.059677,0.046562,0.999425,-0.011824,0.025201,-0.019356,-0.756680,-0.011748,0.614024,0.224215
42096,NaN,36.391800,-4.404190,1.455607,2.649067,-17.380953,22.380594,-0.680742,2.528806,-5.130293,-0.651123,-0.163574,-0.557373,0.362776,-0.053319,0.010135,0.999585,-0.003403,0.012642,-0.025648,-0.758908,-0.027849,0.602503,0.245507
42097,NaN,27.081683,12.009575,3.708544,4.358727,-0.451355,19.714343,1.648035,-0.597675,-6.681496,-0.643555,-0.206543,-0.561279,0.274505,0.110650,0.038840,0.999404,0.008239,-0.002988,-0.033401,-0.748235,-0.053471,0.605493,0.265826
42098,NaN,22.746969,22.557363,-5.929780,16.006182,6.318248,17.845571,-1.251369,0.893242,-5.912792,-0.617676,-0.225586,-0.584473,0.233725,0.218344,-0.061714,0.999533,-0.006256,0.004466,-0.029559,-0.743476,-0.067730,0.598111,0.291408
42099,NaN,17.928152,19.377340,-3.326713,12.572973,5.193859,13.048470,-3.891042,4.390116,-3.728836,-0.581787,-0.225586,-0.622559,0.182001,0.189649,-0.040960,0.999396,-0.019451,0.021946,-0.018640,-0.752048,-0.070768,0.574492,0.315236
42100,NaN,13.331132,11.814421,2.240035,4.870537,2.145156,7.330879,-3.461055,3.657633,-3.011509,-0.560791,-0.221191,-0.663086,0.135428,0.116451,0.017911,0.999570,-0.017303,0.018286,-0.015055,-0.758946,-0.072213,0.553626,0.335089
42101,NaN,11.938524,12.658365,1.961924,5.994653,2.859338,6.386680,-4.191605,2.956677,-2.489519,-0.540283,-0.203857,-0.703369,0.121198,0.125432,0.015199,0.999594,-0.020955,0.014781,-0.012446,-0.764173,-0.068121,0.534251,0.354929
42102,NaN,9.389795,13.227890,-0.205646,8.484543,3.621850,3.528186,-6.129211,2.637358,-2.128468,-0.515869,-0.167480,-0.731201,0.095224,0.131099,-0.007337,0.999387,-0.030640,0.013184,-0.010640,-0.769241,-0.055178,0.511962,0.378309
42103,NaN,7.176431,7.419634,-1.128382,6.432490,0.130383,-1.664734,-6.988238,2.309631,-1.435630,-0.500488,-0.122314,-0.765381,0.072136,0.073206,-0.014685,0.999297,-0.034933,0.011545,-0.007176,-0.773833,-0.036308,0.489098,0.400808
42104,NaN,5.647443,4.478765,-3.672783,6.698682,-2.079791,-5.784984,-7.156297,1.512735,-0.922089,-0.487061,-0.077148,-0.789062,0.056388,0.043166,-0.038719,0.999321,-0.035773,0.007562,-0.004609,-0.776583,-0.014117,0.468220,0.421294
42105,NaN,4.958374,-0.765574,-5.812548,4.670673,-6.091635,-9.944787,-7.266511,0.673102,-0.443540,-0.493164,-0.017090,-0.810547,0.049368,-0.009874,-0.057960,0.999332,-0.036324,0.003365,-0.002217,-0.777227,0.011647,0.449947,0.439692
42106,NaN,2.507912,-7.774943,-7.484397,-0.060607,-9.579361,-15.375619,-6.547283,0.294031,-0.200968,-0.490479,0.032227,-0.815186,0.024892,-0.080169,-0.072282,0.999463,-0.032731,0.001470,-0.001005,-0.776707,0.035804,0.434119,0.454955
42107,NaN,-2.814311,-11.977014,-9.158296,-3.884822,-9.223661,-21.433073,-4.759796,-0.288085,0.098741,-0.500244,0.072998,-0.817627,-0.027954,-0.121919,-0.088739,0.999716,-0.023797,-0.001440,0.000494,-0.775242,0.055147,0.424257,0.464719
42108,NaN,-5.419198,-9.723644,-9.709079,-2.870833,-6.540802,-22.741203,-2.826861,-0.860324,0.396334,-0.500488,0.085693,-0.824219,-0.053583,-0.098704,-0.095934,0.999889,-0.014134,-0.004301,0.001982,-0.773475,0.068982,0.420854,0.468893
42109,NaN,-8.038221,-8.526344,-10.302346,-2.314366,-4.602820,-24.540328,-0.710586,-1.235137,0.655182,-0.515625,0.094238,-0.824219,-0.079464,-0.085891,-0.103212,0.999969,-0.003553,-0.006176,0.003276,-0.772151,0.076003,0.423713,0.467412
42110,NaN,-9.042850,-9.472106,-10.105190,-3.269227,-4.595874,-25.362219,1.451213,-1.489660,0.826190,-0.525879,0.079346,-0.819824,-0.089279,-0.094352,-0.102405,0.999937,0.007256,-0.007448,0.004131,-0.771406,0.075810,0.432506,0.460570
42111,NaN,-9.863326,-15.399186,-10.601256,-7.282546,-7.980240,-27.979667,3.215467,-1.553099,0.877516,-0.535645,0.055664,-0.817383,-0.097121,-0.152681,-0.109233,0.999831,0.016076,-0.007765,0.004387,-0.771164,0.068870,0.445482,0.449564
42112,NaN,-9.665609,-18.248386,-11.905495,-7.719270,-10.854471,-29.577391,4.767148,-1.650827,0.857620,-0.555908,0.023682,-0.812744,-0.094870,-0.179974,-0.124153,0.999673,0.023833,-0.008253,0.004288,-0.770786,0.056447,0.462081,0.434952
42114,NaN,-5.736502,-13.411848,-13.277931,-1.557064,-22.916317,-41.854405,5.752998,-2.632582,0.820622,-0.599854,-0.066406,-0.782471,-0.105305,-0.253163,-0.283275,0.997966,0.057491,-0.026308,0.008201,-0.763883,0.027252,0.505949,0.399694
42115,NaN,0.316581,-6.796062,-5.051262,-0.310127,-7.102848,-14.421571,4.171700,-2.708559,0.955269,-0.624756,-0.083740,-0.765381,0.004183,-0.066870,-0.051863,0.999679,0.020856,-0.013541,0.004776,-0.759211,0.019905,0.524351,0.385045
42116,NaN,3.279712,-1.964502,-2.574359,1.344222,-4.327885,-8.973766,2.552132,-2.893091,1.091004,-0.643311,-0.098633,-0.743896,0.033273,-0.019138,-0.025511,0.999799,0.012760,-0.014464,0.005455,-0.753837,0.018646,0.540019,0.373846
42117,NaN,5.242844,2.862931,-2.421803,4.280759,-1.769415,-5.330578,1.025997,-3.097577,1.259291,-0.666748,-0.096680,-0.727051,0.052611,0.029081,-0.023256,0.999847,0.005130,-0.015487,0.006296,-0.747724,0.024844,0.553460,0.366024
42118,NaN,7.021643,5.821613,-1.544008,5.370523,0.011447,-2.280679,-0.065559,-3.194047,1.324023,-0.694580,-0.088135,-0.707764,0.070064,0.058675,-0.014339,0.999851,-0.000328,-0.015969,0.006620,-0.741199,0.034597,0.565021,0.360802
42119,NaN,9.618880,8.953114,4.062951,2.736894,3.878286,3.096422,-0.356348,-3.079873,1.223654,-0.709473,-0.081787,-0.690918,0.094999,0.090189,0.041938,0.999861,-0.001782,-0.015399,0.006118,-0.734394,0.045777,0.575604,0.356722
42120,NaN,15.023363,13.796764,8.829967,1.851204,7.590524,10.994753,0.643873,-2.425805,0.970503,-0.728271,-0.088135,-0.686523,0.148473,0.138402,0.090553,0.999909,0.003219,-0.012129,0.004852,-0.729235,0.050531,0.585373,0.350716
42121,NaN,19.590334,13.579534,15.578847,-3.932765,8.973477,16.924229,2.555581,-0.895798,0.791392,-0.731934,-0.105469,-0.673828,0.194664,0.134554,0.158387,0.999901,0.012777,-0.004479,0.003957,-0.728451,0.045785,0.592949,0.340110
42122,NaN,18.574572,4.349372,19.036806,-12.486903,3.848785,13.757553,4.213479,0.205335,0.689269,-0.731445,-0.128906,-0.669434,0.185800,0.040114,0.191046,0.999772,0.021066,0.001027,0.003446,-0.731040,0.032127,0.599061,0.325076
42123,NaN,17.253484,-3.365074,12.383976,-11.160391,-4.913766,7.897687,3.612103,-0.359642,0.381826,-0.730713,-0.150391,-0.671387,0.172379,-0.035554,0.123519,0.999833,0.018060,-0.001798,0.001909,-0.731078,0.021212,0.606020,0.312754
42124,NaN,12.827477,-5.366098,5.824335,-6.690975,-7.600053,1.355226,2.242566,1.328434,-0.324363,-0.710938,-0.173828,-0.686035,0.128567,-0.054511,0.056782,0.999914,0.011213,0.006642,-0.001622,-0.734781,0.009957,0.604641,0.307256
42125,NaN,2.366677,-11.540037,-17.597104,10.721484,-16.855203,-16.831610,4.065304,4.026480,-0.633232,-0.686523,-0.208252,-0.700684,0.019729,-0.111853,-0.178693,0.999586,0.020324,0.020130,-0.003166,-0.745996,-0.012342,0.595730,0.297394
42126,NaN,0.465612,-22.015992,-1.331786,-7.807434,-18.849113,-18.202093,3.887461,3.936261,-0.662695,-0.656494,-0.225342,-0.721680,0.003608,-0.219858,-0.017672,0.999612,0.019435,0.019679,-0.003313,-0.756215,-0.034657,0.586546,0.287926
42127,NaN,22.019347,-10.749932,56.865365,-51.891481,-2.071669,23.893659,-5.584643,2.285522,-0.250914,-0.647217,-0.184570,-0.747559,0.226572,-0.091898,0.568800,0.999544,-0.027919,0.011426,-0.001254,-0.763176,-0.016419,0.569540,0.304822
42128,NaN,34.542840,71.418901,-24.480794,58.132842,33.788264,38.884338,3.829864,0.247751,-1.665984,-0.635742,-0.274658,-0.713135,0.351094,0.715799,-0.231543,0.999781,0.019148,0.001239,-0.008329,-0.760872,-0.036145,0.574159,0.300182
42129,NaN,16.376880,33.584196,-45.287985,56.256572,8.957887,4.249364,12.860985,-0.276472,-0.682683,-0.642334,-0.334717,-0.687256,0.165584,0.363427,-0.429862,0.997926,0.064260,-0.001381,-0.003411,-0.755255,-0.085797,0.593132,0.265373
42130,NaN,5.122256,-25.452556,2.264004,-9.038281,-23.572462,-16.280461,0.104713,-2.842887,-1.157218,-0.663818,-0.328369,-0.666016,0.049421,-0.254827,0.023218,0.999882,0.000524,-0.014214,-0.005786,-0.745166,-0.085837,0.603429,0.270616
42131,NaN,-0.499058,-17.760025,-11.392295,5.276416,-17.076475,-21.036960,-1.248836,-2.741161,0.686110,-0.683105,-0.317627,-0.661865,-0.002828,-0.178319,-0.112860,0.999881,-0.006244,-0.013705,0.003430,-0.738069,-0.074602,0.612488,0.273033
42132,NaN,-0.720776,-5.208384,2.148965,-3.717107,-3.577892,-12.188651,0.105375,-1.065198,2.906261,-0.698242,-0.306885,-0.651123,-0.006564,-0.052194,0.021426,0.999880,0.000527,-0.005326,0.014531,-0.738658,-0.064623,0.617562,0.262345
42133,NaN,7.191020,-1.379637,-10.969922,10.688072,-6.834899,-6.214990,4.126975,-3.529392,3.372579,-0.727783,-0.307129,-0.610840,0.074027,-0.010310,-0.108642,0.999489,0.020631,-0.017644,0.016860,-0.730245,-0.063747,0.637125,0.238224
42134,NaN,21.693224,5.098386,-5.286584,7.940230,-5.554254,10.937671,-0.779535,-2.254346,3.612176,-0.754395,-0.274902,-0.604736,0.216546,0.054697,-0.050632,0.999766,-0.003897,-0.011271,0.018059,-0.727454,-0.046688,0.645419,0.228177
42135,NaN,26.335693,4.200494,-3.528708,5.859261,-6.949173,15.504276,-0.784306,-3.196784,2.720357,-0.780273,-0.257812,-0.581543,0.263275,0.045459,-0.031252,0.999772,-0.003921,-0.015983,0.013601,-0.719885,-0.030237,0.657079,0.221584
42136,NaN,21.191454,4.421044,-4.417572,6.042854,-4.317660,10.993534,1.205688,-3.061472,3.022100,-0.799805,-0.240723,-0.558350,0.211852,0.047664,-0.040652,0.999751,0.006028,-0.015306,0.015109,-0.712824,-0.021242,0.669716,0.207150
42137,NaN,18.996112,5.458719,-0.179597,1.744435,-0.781104,9.858715,0.786355,-2.800778,3.386836,-0.825684,-0.221436,-0.532959,0.188999,0.057793,0.001078,0.999751,0.003931,-0.014003,0.016933,-0.706233,-0.008508,0.681178,0.192766
42138,NaN,17.584975,1.707857,-5.239258,5.273602,-4.363709,7.295265,0.367971,-3.180015,3.601624,-0.849854,-0.187256,-0.503662,0.176306,0.020344,-0.049556,0.999710,0.001840,-0.015899,0.018006,-0.698664,0.005533,0.692707,0.178872
42139,NaN,23.107111,3.114958,-5.282834,5.112437,-3.563891,13.266042,-0.837490,-2.940383,3.476822,-0.869629,-0.163818,-0.480469,0.231230,0.034956,-0.049570,0.999732,-0.004187,-0.014701,0.017383,-0.690862,0.024470,0.702393,0.169571
42140,NaN,28.544220,-3.720286,4.084411,-6.625874,-7.593316,17.456099,-0.410583,-3.843889,2.504536,-0.895508,-0.146729,-0.452881,0.285021,-0.033540,0.046396,0.999735,-0.002053,-0.019218,0.012522,-0.679264,0.037944,0.714820,0.161843
42141,NaN,31.329115,-2.354280,4.128140,-7.434550,-5.738713,20.448836,2.648642,-3.798001,2.119028,-0.914551,-0.140381,-0.414795,0.312666,-0.020824,0.046936,0.999676,0.013242,-0.018988,0.010594,-0.667172,0.041055,0.729610,0.144445
42142,NaN,33.186918,8.418239,6.125718,-7.883563,5.667376,23.583534,4.274712,-3.059955,2.130565,-0.923096,-0.138428,-0.381104,0.329950,0.086297,0.068145,0.999598,0.021371,-0.015298,0.010651,-0.658168,0.036771,0.742164,0.121057
42143,NaN,28.876026,13.856031,7.057825,-8.160645,12.496321,19.388139,4.078143,-2.439437,2.849506,-0.944336,-0.129883,-0.357666,0.285849,0.141121,0.076937,0.999616,0.020388,-0.012196,0.014246,-0.650987,0.036848,0.752087,0.096040
42144,NaN,21.286287,13.767227,8.651358,-9.528014,13.924031,10.988809,3.150696,-2.703349,2.763486,-0.947021,-0.108643,-0.322021,0.209732,0.139169,0.091547,0.999689,0.015752,-0.013515,0.013816,-0.642536,0.038282,0.761647,0.074668
42145,NaN,13.609398,14.462715,6.281192,-6.444647,14.978857,3.143855,1.788717,-2.954346,2.604494,-0.962402,-0.091553,-0.296631,0.133240,0.145793,0.066095,0.999766,0.008943,-0.014771,0.013021,-0.632278,0.044638,0.771212,0.058860
42146,NaN,9.446838,7.002190,5.162840,-6.031172,7.704994,-1.496244,2.369125,-2.761919,2.203402,-0.981689,-0.074463,-0.269287,0.092961,0.070423,0.053752,0.999774,0.011845,-0.013809,0.011016,-0.622672,0.046458,0.779966,0.042127
42147,NaN,5.733657,1.593628,2.971960,-4.006739,2.105720,-4.938745,2.056157,-2.493926,1.921930,-0.992676,-0.063721,-0.246094,0.056804,0.016172,0.030596,0.999823,0.010280,-0.012469,0.009609,-0.613670,0.048835,0.787572,0.027477
42148,NaN,4.488764,-1.619137,1.594129,-2.810194,-1.231065,-5.825333,2.324052,-1.255500,1.649922,-0.988525,-0.057373,-0.229248,0.044920,-0.016007,0.016036,0.999879,0.011620,-0.006277,0.008249,-0.609455,0.048379,0.791237,0.012950
42149,NaN,-0.269550,1.437458,5.706784,-5.291206,1.828207,-11.647244,1.326065,-1.470390,1.651452,-0.997314,-0.040283,-0.210205,-0.003232,0.013971,0.057139,0.999917,0.006630,-0.007352,0.008257,-0.604025,0.051685,0.795284,0.002239
42150,NaN,0.637119,10.151478,8.800493,-7.713647,10.726066,-12.332502,-0.146688,-1.895347,1.547595,-0.997803,-0.025391,-0.193359,0.004751,0.101620,0.087981,0.999925,-0.000733,-0.009476,0.007738,-0.596431,0.058311,0.800540,-0.002345
42151,NaN,3.339287,17.296934,4.589901,-3.734512,17.811728,-9.376310,0.074415,-1.590663,1.229359,-1.008789,-0.010498,-0.174561,0.031962,0.173152,0.046221,0.999949,0.000372,-0.007953,0.006147,-0.590143,0.063505,0.804767,-0.006865
42153,NaN,-1.880391,14.071547,3.044521,-1.642353,27.841646,-17.895276,-0.918215,-0.948245,1.055327,-1.002930,0.010986,-0.155518,-0.041137,0.281550,0.057927,0.999857,-0.009182,-0.009482,0.010553,-0.581781,0.077355,0.809634,-0.006307
42154,NaN,0.477243,6.828708,4.053600,-3.114772,7.149968,-11.382895,-1.207325,-0.690886,0.757679,-1.003174,0.019531,-0.151367,0.004374,0.068547,0.040138,0.999969,-0.006037,-0.003454,0.003788,-0.578637,0.083836,0.811256,-0.003937
42155,NaN,2.257072,3.771388,3.984506,-3.934077,4.421566,-9.404814,-1.242496,-0.100617,0.341145,-1.003174,0.015137,-0.151367,0.022486,0.037999,0.039621,0.999979,-0.006212,-0.000503,0.001706,-0.577697,0.088824,0.811404,0.000071
42156,NaN,1.599064,-0.206578,4.235119,-4.503449,0.487971,-9.684544,-1.130132,0.740530,0.307754,-1.005371,0.023682,-0.162109,0.016150,-0.001802,0.042302,0.999976,-0.005651,0.003703,0.001539,-0.580399,0.093103,0.808982,0.004045
42157,NaN,-0.616330,-1.601824,7.528616,-7.137946,-0.761727,-12.657755,-0.882532,0.980613,-0.058164,-1.007568,0.023926,-0.166260,-0.005798,-0.015684,0.075385,0.999978,-0.004413,0.004903,-0.000291,-0.583950,0.095420,0.806120,0.008238
42158,NaN,-4.138714,-1.825379,7.495523,-6.131790,-1.428610,-15.895734,-0.567685,0.792706,0.052437,-1.005615,0.025879,-0.174805,-0.041085,-0.018051,0.075170,0.999988,-0.002838,0.003964,0.000262,-0.587152,0.097003,0.803572,0.010667
42159,NaN,-3.372386,-0.023678,5.721537,-4.434518,0.279311,-14.748847,-0.896766,1.316150,-0.163318,-0.997070,0.019531,-0.187500,-0.033346,0.000048,0.057436,0.999968,-0.004484,0.006581,-0.000817,-0.591987,0.098919,0.799706,0.015385
42160,NaN,-1.762375,4.498576,1.484175,-0.099254,4.390983,-12.313642,-1.739315,1.606121,-0.674465,-0.994873,0.017578,-0.193848,-0.017354,0.045172,0.014590,0.999924,-0.008696,0.008030,-0.003372,-0.597794,0.100982,0.794870,0.025009
42161,NaN,-1.625675,4.081932,1.606120,-0.300732,4.062783,-12.112078,-1.639908,2.112437,-1.094391,-0.994629,0.009033,-0.212646,-0.015864,0.041038,0.015894,0.999896,-0.008199,0.010562,-0.005472,-0.605171,0.101272,0.788813,0.035859
42162,NaN,-0.806290,0.906233,1.744866,-1.280101,1.119515,-11.086922,-0.877887,2.268024,-1.188315,-0.979736,0.004639,-0.231689,-0.007810,0.009186,0.017498,0.999908,-0.004389,0.011340,-0.005941,-0.613749,0.098476,0.782102,0.043940
42163,NaN,0.262443,0.562957,0.904926,-0.801128,0.749932,-9.792520,-0.798683,2.354469,-1.272393,-0.985840,-0.008057,-0.259033,0.002766,0.005648,0.008995,0.999902,-0.003993,0.011772,-0.006362,-0.622233,0.095437,0.775243,0.052120
42164,NaN,2.466273,0.143597,-1.534554,1.015657,0.006089,-7.087672,-0.958959,2.573866,-1.444457,-0.968750,-0.016602,-0.276123,0.024472,0.001184,-0.015667,0.999880,-0.004795,0.012869,-0.007222,-0.631651,0.091774,0.767348,0.061416
42165,NaN,4.394012,-0.360953,0.461647,-1.285049,-0.018618,-5.570333,-1.002193,2.790246,-1.456299,-0.959961,-0.031494,-0.303467,0.043971,-0.003908,0.004022,0.999864,-0.005011,0.013951,-0.007281,-0.641372,0.088495,0.758782,0.071130
42166,NaN,5.604817,-0.373395,2.209351,-3.038650,0.314902,-4.607018,-0.890239,3.104231,-1.443376,-0.951172,-0.042236,-0.328857,0.056354,-0.004044,0.021238,0.999844,-0.004451,0.015520,-0.007217,-0.652483,0.084406,0.748790,0.080350
42168,NaN,9.577509,1.279073,-0.004777,-1.379338,2.469080,9.299548,-0.692616,3.483818,-1.446202,-0.929443,-0.065430,-0.387939,0.191731,0.022777,-0.006938,0.999265,-0.006924,0.034830,-0.014458,-0.676346,0.075248,0.726168,0.097847
42169,NaN,19.125739,9.372847,-1.768652,2.911731,7.961555,9.804863,-0.247620,3.958895,-1.610135,-0.910156,-0.080322,-0.426025,0.191602,0.092162,-0.021592,0.999771,-0.001238,0.019793,-0.008050,-0.690039,0.067914,0.712817,0.105479
42170,NaN,26.510763,22.347635,-7.495974,12.259687,18.117756,18.110440,-0.665558,4.546655,-1.661922,-0.888916,-0.086670,-0.464111,0.265144,0.221009,-0.081726,0.999702,-0.003327,0.022731,-0.008309,-0.704943,0.061881,0.697122,0.115092
42171,NaN,37.084532,24.824431,-4.589058,11.703455,19.190777,29.004027,-2.715010,4.660657,-2.417970,-0.869629,-0.095215,-0.506348,0.372549,0.243015,-0.057883,0.999563,-0.013573,0.023300,-0.012088,-0.718950,0.059685,0.679350,0.134283
42173,NaN,45.468378,3.774082,2.200353,4.690680,-6.177021,81.159425,-3.808826,4.397771,-3.776029,-0.809570,-0.127197,-0.578125,0.912068,0.041664,0.001897,0.997596,-0.038058,0.043942,-0.037730,-0.739745,0.055381,0.643255,0.189559
42174,NaN,41.669968,5.158348,8.685861,-1.340221,-2.225886,32.979190,-2.961882,4.534895,-4.002784,-0.781738,-0.139893,-0.614014,0.419452,0.044392,0.076674,0.999433,-0.014807,0.022670,-0.020010,-0.749559,0.048426,0.624228,0.214838
42175,NaN,44.538183,-0.888102,4.677616,1.745527,-11.975752,33.306485,-3.042518,4.776263,-3.964974,-0.745605,-0.150391,-0.656494,0.446048,-0.017115,0.036346,0.999403,-0.015210,0.023877,-0.019821,-0.759031,0.042304,0.603639,0.240212
42176,NaN,34.235098,-3.030343,5.000885,-0.043819,-12.553863,22.564582,-1.282589,4.294165,-4.402762,-0.717041,-0.180420,-0.679688,0.342549,-0.037553,0.042880,0.999507,-0.006412,0.021467,-0.022010,-0.766288,0.028199,0.586242,0.261396
42177,NaN,24.423576,1.624552,-8.474803,12.017425,-11.136010,10.245965,-1.351912,-1.694193,-5.489396,-0.720459,-0.208252,-0.666748,0.245255,0.008959,-0.082750,0.999565,-0.006759,-0.008470,-0.027443,-0.753636,0.019499,0.591473,0.286030
42178,NaN,30.740227,24.926574,-0.219548,15.694277,6.890142,25.851876,-2.951786,0.127600,-6.469579,-0.692383,-0.225342,-0.681396,0.315244,0.239082,-0.005974,0.999368,-0.014756,0.000638,-0.032341,-0.744106,0.011077,0.586936,0.318889
42179,NaN,17.890593,16.272065,-2.434097,12.339587,3.045917,10.900120,-3.895918,3.522772,-4.008071,-0.654541,-0.223145,-0.721924,0.181609,0.158543,-0.030640,0.999454,-0.019476,0.017611,-0.020037,-0.747442,0.008194,0.567511,0.345245
42180,NaN,17.233818,8.707157,1.182424,5.822418,-2.091516,8.513530,-3.284269,3.199054,-3.365914,-0.627197,-0.216553,-0.747314,0.173917,0.084302,0.007651,0.999596,-0.016419,0.015993,-0.016827,-0.750263,0.005073,0.549826,0.367111
42181,NaN,12.331111,8.777544,2.496129,4.590025,0.394345,4.818086,-3.397415,2.769570,-2.882380,-0.604248,-0.205811,-0.768555,0.124879,0.086371,0.021764,0.999656,-0.016985,0.013846,-0.014410,-0.752253,0.004813,0.533075,0.387200
42182,NaN,10.400944,8.995471,2.249891,5.053659,0.983513,3.134065,-3.985119,2.084801,-2.324576,-0.585693,-0.188721,-0.783691,0.105263,0.089146,0.019624,0.999680,-0.019923,0.010423,-0.011622,-0.752914,0.009269,0.517487,0.406499
42183,NaN,7.893987,7.418343,0.434961,5.494546,0.209328,-0.470359,-4.890191,1.679991,-1.731759,-0.571777,-0.156494,-0.809326,0.079601,0.073562,0.001879,0.999628,-0.024448,0.008399,-0.008658,-0.753245,0.019783,0.501102,0.425591
42184,NaN,6.771010,1.002942,-0.980474,2.301712,-4.085500,-4.731144,-5.035775,0.998846,-1.166347,-0.564453,-0.122070,-0.813721,0.067715,0.009378,-0.010385,0.999654,-0.025176,0.004994,-0.005831,-0.752414,0.033376,0.486695,0.442592
42185,NaN,4.420354,-4.026288,-2.550125,-0.551156,-6.457473,-9.317075,-4.872280,0.387188,-1.027774,-0.563232,-0.089844,-0.822510,0.043946,-0.041096,-0.024592,0.999688,-0.024359,0.001936,-0.005138,-0.750045,0.048339,0.474465,0.458235
42186,NaN,2.351547,-6.834590,-4.493361,-1.903958,-7.686000,-12.930092,-4.787105,-0.180777,-0.758515,-0.562256,-0.051270,-0.831299,0.023293,-0.069483,-0.043258,0.999706,-0.023933,-0.000904,-0.003792,-0.746364,0.064678,0.464377,0.472348
42187,NaN,-0.433235,-10.775951,-5.558541,-5.005056,-8.517138,-16.855010,-4.033402,-0.671153,-0.299021,-0.571777,-0.017090,-0.831543,-0.004313,-0.108845,-0.053412,0.999790,-0.020166,-0.003356,-0.001495,-0.742649,0.080609,0.457343,0.482507
42188,NaN,-4.146559,-13.589657,-6.238153,-7.610695,-7.903396,-20.784988,-2.428239,-1.020636,0.152309,-0.580566,-0.006348,-0.829346,-0.041048,-0.136674,-0.060935,0.999913,-0.012141,-0.005103,0.000762,-0.739463,0.092381,0.455331,0.487169
42189,NaN,-7.683508,-12.352084,-6.540656,-6.999003,-5.246677,-23.149658,-0.795821,-1.284654,0.388088,-0.593750,0.004395,-0.818848,-0.076175,-0.123929,-0.065405,0.999970,-0.003979,-0.006423,0.001940,-0.737104,0.099336,0.457936,0.486933
42190,NaN,-10.205346,-10.701616,-6.796056,-5.732268,-3.173319,-24.709794,0.735060,-1.613258,0.587070,-0.604248,0.000000,-0.810303,-0.101185,-0.107061,-0.069173,0.999956,0.003675,-0.008066,0.002935,-0.735010,0.101994,0.465474,0.482381
42191,NaN,-10.474465,-9.971673,-7.213815,-4.697424,-3.190618,-24.942897,2.089209,-1.931605,0.914262,-0.622803,-0.010742,-0.795410,-0.103580,-0.099424,-0.074182,0.999888,0.010446,-0.009658,0.004571,-0.733714,0.101094,0.477080,0.473115
42192,NaN,-8.939528,-8.991652,-7.265389,-3.398551,-3.978118,-23.456466,2.929705,-1.994903,1.227890,-0.639404,-0.025635,-0.786865,-0.088106,-0.089374,-0.074849,0.999824,0.014648,-0.009974,0.006139,-0.733081,0.098152,0.490699,0.460623
42193,NaN,-8.468387,-7.598253,-8.599763,-1.017096,-4.609329,-23.269857,3.577047,-2.151150,1.301121,-0.655518,-0.051514,-0.765381,-0.083253,-0.074962,-0.088245,0.999761,0.017884,-0.010755,0.006505,-0.732391,0.093167,0.506052,0.445909
42195,NaN,-4.007807,-7.833154,-8.917919,0.138080,-15.674269,-29.350632,3.091131,-2.483417,1.428425,-0.695068,-0.075195,-0.729004,-0.073421,-0.152093,-0.184987,0.999112,0.030902,-0.024827,0.014280,-0.728290,0.089018,0.536301,0.417193
42196,NaN,3.372485,-8.131449,-5.232934,-1.702210,-9.950963,-11.530888,1.262035,-2.404026,1.508925,-0.716309,-0.071045,-0.716309,0.034965,-0.080723,-0.052425,0.999879,0.006310,-0.012020,0.007544,-0.725476,0.093477,0.546939,0.407190
42197,NaN,4.870859,-6.291055,-3.662474,-1.409952,-8.586027,-8.810710,0.098023,-2.583358,1.469687,-0.735596,-0.060303,-0.693115,0.049637,-0.062530,-0.036018,0.999889,0.000490,-0.012916,0.007348,-0.721137,0.102911,0.555861,0.400486
42198,NaN,6.849395,-3.143159,-1.868690,-0.456969,-6.281368,-5.272186,-0.745087,-2.769133,1.391308,-0.757080,-0.047607,-0.678467,0.068960,-0.031020,-0.017618,0.999873,-0.003725,-0.013845,0.006956,-0.715763,0.115001,0.563555,0.396061
42199,NaN,9.510073,0.811076,0.462303,0.667861,-3.212425,-0.838232,-1.249014,-2.746729,1.202436,-0.768066,-0.036865,-0.657227,0.094975,0.008716,0.005875,0.999868,-0.006245,-0.013733,0.006012,-0.709305,0.128941,0.570241,0.393810
42200,NaN,12.471290,5.311688,3.349928,1.829134,0.617411,4.016069,-0.849202,-2.325497,0.827301,-0.780762,-0.030518,-0.642334,0.124092,0.053777,0.034717,0.999915,-0.004246,-0.011627,0.004136,-0.703706,0.138884,0.576222,0.391760
42201,NaN,15.713183,10.920152,4.874638,4.662665,4.315185,8.883305,1.046385,-1.815218,0.311286,-0.797363,-0.043457,-0.631836,0.156507,0.109183,0.050740,0.999944,0.005232,-0.009076,0.001556,-0.699468,0.140317,0.584506,0.386534
42202,NaN,22.835444,9.231082,7.481509,1.334239,2.459874,15.776051,3.680465,-0.830374,0.156013,-0.801025,-0.066895,-0.627197,0.227965,0.091080,0.077446,0.999822,0.018401,-0.004152,0.000780,-0.699811,0.129487,0.594297,0.374577
42203,NaN,23.001459,2.527884,14.381255,-8.724876,1.965287,15.921611,4.456095,1.011288,-0.027073,-0.789551,-0.094727,-0.633545,0.230743,0.022053,0.143162,0.999739,0.022279,0.005056,-0.000135,-0.705190,0.112487,0.599080,0.362156
42204,NaN,13.928237,-1.841151,16.980659,-13.937462,3.065607,6.980437,3.522764,2.457133,-0.754512,-0.771729,-0.122559,-0.645996,0.141273,-0.021909,0.167714,0.999762,0.017612,0.012285,-0.003772,-0.713008,0.093338,0.597066,0.355556
42205,NaN,-0.944441,-7.927284,10.660157,-13.307410,0.202118,-10.258551,5.722663,1.177723,-1.462286,-0.772217,-0.174072,-0.635010,-0.009420,-0.082211,0.104333,0.999547,0.028609,0.005888,-0.007310,-0.716173,0.066962,0.603471,0.344144
42206,NaN,-0.286672,-4.663514,-0.319816,-2.344903,-3.590150,-11.694706,4.042553,1.867189,-1.085842,-0.752686,-0.195557,-0.647705,-0.003155,-0.046542,-0.004111,0.999737,0.020211,0.009335,-0.005429,-0.721115,0.045988,0.603935,0.336365
42207,NaN,-9.748532,-9.785247,-14.120142,6.155225,-9.737738,-25.856832,2.335144,3.685492,-0.373309,-0.724609,-0.214600,-0.670898,-0.100259,-0.096024,-0.140499,0.999760,0.011675,0.018426,-0.001866,-0.731975,0.030762,0.594477,0.331456
42208,NaN,-19.141328,-9.831325,-26.257589,16.070622,-9.866926,-38.038161,5.126868,2.934739,-0.127222,-0.721436,-0.251221,-0.668457,-0.195322,-0.091466,-0.262132,0.999564,0.025631,0.014672,-0.000636,-0.740966,0.006754,0.591982,0.316986
42209,NaN,-13.337726,-12.927402,0.321818,-7.630698,-4.115819,-26.242532,1.999587,-0.509921,-0.003805,-0.725586,-0.253174,-0.662109,-0.133385,-0.129293,0.001585,0.999947,0.009998,-0.002550,-0.000019,-0.739320,0.000874,0.597121,0.311210
42210,NaN,1.138109,-7.499123,14.564967,-16.206572,-0.893888,-7.323426,-2.999847,-1.075206,1.086098,-0.743164,-0.225342,-0.660156,0.010993,-0.072735,0.146812,0.999858,-0.014999,-0.005376,0.005430,-0.737693,0.016886,0.596328,0.316096
42211,NaN,10.906898,22.778502,-2.322130,13.676242,12.860037,7.236356,3.359839,-2.876970,2.274023,-0.767334,-0.268555,-0.611084,0.106749,0.229337,-0.017830,0.999691,0.016797,-0.014383,0.011369,-0.732726,0.016552,0.611862,0.297427
42212,NaN,74.879278,66.171501,-33.470950,61.980370,12.927784,74.385159,10.022693,-3.375397,-0.497770,-0.780273,-0.320068,-0.557861,0.755591,0.675070,-0.288374,0.998599,0.050090,-0.016869,-0.002488,-0.721479,-0.016670,0.638295,0.267899
42213,NaN,72.808368,23.479181,0.150996,10.251131,-9.846722,65.352605,3.053130,-1.761645,-1.779613,-0.780029,-0.328613,-0.555664,0.730062,0.228177,0.011452,0.999805,0.015265,-0.008808,-0.008897,-0.712735,-0.030416,0.648773,0.264912
42214,NaN,13.998726,-1.462808,9.038849,-8.736962,-4.294128,3.789814,-4.726637,0.207036,-1.766538,-0.772217,-0.311523,-0.574707,0.139957,-0.013725,0.090575,0.999681,-0.023631,0.001035,-0.008832,-0.711569,-0.019559,0.641290,0.286415
42216,NaN,-12.327383,-14.388182,-0.374017,-10.111676,-13.718039,-43.664740,-0.051965,-2.280044,-0.333385,-0.799316,-0.322266,-0.534424,-0.247251,-0.286946,-0.012964,0.999734,-0.000520,-0.022798,-0.003334,-0.695414,-0.014083,0.657454,0.289752
42217,NaN,4.729849,-12.120212,-14.096025,8.196567,-17.208049,-11.965235,0.588683,-2.417230,2.274103,-0.823242,-0.298828,-0.517578,0.050371,-0.120227,-0.140719,0.999858,0.002943,-0.012086,0.011370,-0.690633,-0.005142,0.666769,0.280033
42218,NaN,11.237050,-12.435391,-4.281790,-1.320614,-16.364899,-4.367228,0.420088,-1.707590,3.485288,-0.844971,-0.279541,-0.492188,0.114875,-0.122278,-0.042102,0.999810,0.002100,-0.008537,0.017425,-0.689228,0.008432,0.673546,0.266889
