// Start Time: Unknown
// Update Rate: 100.0Hz
// Filter Profile: human (46.1)
// Firmware Version: 4.4.0
PacketCounter,SampleTimeFine,Acc_X,Acc_Y,Acc_Z,FreeAcc_X,FreeAcc_Y,FreeAcc_Z,Gyr_X,Gyr_Y,Gyr_Z,Mag_X,Mag_Y,Mag_Z,VelInc_X,VelInc_Y,VelInc_Z,OriInc_q0,OriInc_q1,OriInc_q2,OriInc_q3,Quat_q0,Quat_q1,Quat_q2,Quat_q3
49535,NaN,5.300625,1.074213,0.118826,-0.000000,-0.000000,-4.403058,0.272268,1.545326,-0.522767,-0.983398,-0.159668,0.238770,0.053041,0.010602,0.000793,0.999966,0.001361,0.007727,-0.002614,-0.026748,-0.692970,-0.111636,-0.711768
49536,NaN,4.464425,0.875935,-0.394069,0.000000,0.000000,-5.246148,0.331643,1.460074,-0.512147,-0.987305,-0.168213,0.228271,0.044636,0.008652,-0.004252,0.999969,0.001658,0.007300,-0.002561,-0.014530,-0.728654,-0.124987,-0.673224
49537,NaN,5.249902,0.589013,-0.525920,-0.387112,0.392499,-4.532466,0.699276,1.240367,-0.449515,-0.985352,-0.170410,0.221924,0.052478,0.005791,-0.005564,0.999972,0.003496,0.006202,-0.002248,-0.023949,-0.708423,-0.115964,-0.695785
49538,NaN,7.209374,2.081607,0.244677,0.513374,-0.554979,-2.343018,1.007976,1.264965,-0.415555,-0.991455,-0.174561,0.207275,0.072151,0.020655,0.002095,0.999965,0.005040,0.006325,-0.002078,-0.021090,-0.703877,-0.121090,-0.699607
49539,NaN,8.046877,2.730710,1.077199,1.346194,-0.850904,-1.396496,0.928824,1.375401,-0.410549,-0.993896,-0.172363,0.200928,0.080597,0.027093,0.010344,0.999963,0.004644,0.006877,-0.002053,-0.019401,-0.699185,-0.126644,-0.703367
49540,NaN,9.080591,3.340963,1.112353,1.351267,-1.191163,-0.241343,0.813232,1.404656,-0.379528,-0.997803,-0.180908,0.190430,0.090945,0.033193,0.010620,0.999965,0.004066,0.007023,-0.001898,-0.017002,-0.694059,-0.130963,-0.707701
49541,NaN,9.107873,3.866345,1.091184,1.289952,-1.655736,-0.082010,0.694976,1.457239,-0.336176,-0.998047,-0.178711,0.175537,0.091220,0.038474,0.010381,0.999966,0.003475,0.007286,-0.001681,-0.015054,-0.688141,-0.135332,-0.712686
49542,NaN,8.790786,3.949006,1.876677,1.980195,-1.638858,-0.337129,0.595217,1.494771,-0.340201,-1.004395,-0.178711,0.163086,0.088112,0.039286,0.018226,0.999966,0.002976,0.007474,-0.001701,-0.013206,-0.682605,-0.138731,-0.717376
49543,NaN,8.450438,3.432547,3.468453,3.337867,-0.867743,-0.684354,0.296080,1.486263,-0.417960,-1.001953,-0.189453,0.148193,0.084831,0.034098,0.034106,0.999969,0.001480,0.007431,-0.002090,-0.012212,-0.675790,-0.142940,-0.722998
49544,NaN,7.964725,2.672873,3.554741,3.208133,-0.191657,-1.275300,0.149503,1.413347,-0.446254,-1.004150,-0.193604,0.139893,0.079955,0.026524,0.035003,0.999972,0.000748,0.007067,-0.002231,-0.012310,-0.670353,-0.145071,-0.727620
49545,NaN,8.016359,2.564029,3.527374,2.992406,-0.015351,-1.191638,0.288789,1.443479,-0.343200,-1.004150,-0.193604,0.127197,0.080459,0.025452,0.034731,0.999971,0.001444,0.007217,-0.001716,-0.011596,-0.662632,-0.149645,-0.733751
49546,NaN,8.060286,3.268635,3.493366,2.958934,-0.660268,-0.943470,0.425445,1.588545,-0.254550,-1.006104,-0.197754,0.110352,0.080919,0.032510,0.034361,0.999965,0.002127,0.007943,-0.001273,-0.009931,-0.656615,-0.152136,-0.738656
49547,NaN,7.463142,3.583800,2.930178,2.373216,-1.158432,-1.436978,0.536305,1.784733,-0.174495,-1.012695,-0.195557,0.099609,0.074921,0.035695,0.028730,0.999956,0.002681,0.008924,-0.000872,-0.007089,-0.646946,-0.157058,-0.746152
49548,NaN,7.252724,2.815794,3.600913,2.777689,-0.306986,-1.708015,0.668560,1.950513,-0.084927,-1.012451,-0.206299,0.076416,0.072886,0.028008,0.035393,0.999947,0.003343,0.009752,-0.000425,-0.003712,-0.639592,-0.159888,-0.751894
49549,NaN,7.795651,2.006172,4.612831,3.262353,0.876089,-1.171993,0.589156,2.172021,-0.075887,-1.014648,-0.204102,0.059570,0.078459,0.019898,0.045337,0.999937,0.002946,0.010860,-0.000379,0.000326,-0.627856,-0.165484,-0.760534
49550,NaN,9.091543,2.217892,4.909559,3.110779,1.032663,0.233741,0.479293,2.375727,-0.213267,-1.014648,-0.206055,0.032227,0.091514,0.021966,0.048064,0.999926,0.002396,0.011878,-0.001066,0.002985,-0.618598,-0.167960,-0.767539
49551,NaN,10.584505,2.424119,5.002560,2.519896,1.207975,1.811292,0.611752,2.588922,-0.442531,-1.016846,-0.208252,0.008789,0.106534,0.023856,0.048723,0.999909,0.003059,0.012944,-0.002213,0.004951,-0.604505,-0.172734,-0.777632
49552,NaN,13.488740,4.545885,5.403612,2.229055,-0.037808,5.248069,0.715106,2.707212,-0.780167,-1.016602,-0.218750,-0.010010,0.135779,0.044741,0.052363,0.999894,0.003575,0.013536,-0.003901,0.006417,-0.593224,-0.177788,-0.785134
49553,NaN,15.771681,6.054995,5.496390,1.346013,-0.880532,7.879350,0.218271,2.912970,-1.126821,-1.010254,-0.229492,-0.039551,0.158833,0.059599,0.052721,0.999877,0.001091,0.014564,-0.005634,0.004158,-0.577003,-0.181757,-0.796251
49554,NaN,16.678751,6.460116,5.780790,0.846051,-0.886492,8.943695,0.128791,2.884102,-1.271602,-1.007812,-0.238037,-0.062744,0.168004,0.063499,0.055432,0.999876,0.000644,0.014420,-0.006358,0.002088,-0.564291,-0.185855,-0.804381
49555,NaN,18.145099,8.104781,5.027333,-0.755099,-2.191257,10.554094,-0.050228,2.594452,-1.362681,-1.000977,-0.259277,-0.096436,0.182629,0.079818,0.047889,0.999893,-0.000251,0.012972,-0.006813,-0.001167,-0.548787,-0.190796,-0.813897
49556,NaN,20.261734,8.754218,4.509261,-2.503019,-2.375597,12.448691,-0.397686,2.282523,-1.349982,-0.998535,-0.270020,-0.111328,0.203698,0.086256,0.042600,0.999910,-0.001988,0.011412,-0.006750,-0.005574,-0.538159,-0.192878,-0.820458
49557,NaN,19.790492,8.491559,4.764707,-2.797735,-1.963753,11.976369,-1.053790,1.920581,-1.363526,-0.989746,-0.287109,-0.130127,0.198921,0.083805,0.045297,0.999917,-0.005269,0.009603,-0.006817,-0.009352,-0.525418,-0.197182,-0.827628
49558,NaN,15.580082,6.854587,5.834822,-0.774178,-0.974318,8.137407,-1.504007,1.594167,-1.439204,-0.985352,-0.295654,-0.149170,0.156746,0.067850,0.056589,0.999914,-0.007520,0.007971,-0.007196,-0.017686,-0.517287,-0.194797,-0.833160
49559,NaN,10.878223,5.516336,5.121135,0.179471,-0.912304,3.382782,-1.529163,1.351262,-1.433977,-0.982910,-0.308350,-0.167969,0.109517,0.054766,0.050053,0.999922,-0.007646,0.006756,-0.007170,-0.021562,-0.507116,-0.198709,-0.838381
49560,NaN,8.135599,3.547260,2.659879,-1.161829,-0.487437,-0.633593,-1.585643,1.187301,-1.286625,-0.969971,-0.314697,-0.182861,0.081738,0.035154,0.025835,0.999930,-0.007928,0.005936,-0.006433,-0.029795,-0.500655,-0.195439,-0.842770
49561,NaN,7.075350,1.744267,1.654188,-1.932468,0.651578,-2.623860,-1.476640,1.066984,-1.021880,-0.965576,-0.321045,-0.201904,0.070928,0.017200,0.016036,0.999945,-0.007383,0.005335,-0.005109,-0.031394,-0.492026,-0.198693,-0.847021
49562,NaN,6.959296,1.141470,1.869888,-1.876143,1.256478,-2.874973,-1.362381,0.988555,-0.755753,-0.961182,-0.327393,-0.218750,0.069727,0.011277,0.018277,0.999957,-0.006812,0.004943,-0.003779,-0.036963,-0.486854,-0.194929,-0.850652
49563,NaN,7.532694,1.203119,2.956736,-1.364364,1.683378,-1.923746,-1.267285,0.842823,-0.613654,-0.954834,-0.329590,-0.227295,0.075487,0.011985,0.029173,0.999966,-0.006336,0.004214,-0.003068,-0.038436,-0.480907,-0.195395,-0.853857
49564,NaN,8.595267,1.355620,4.277751,-0.888483,2.197477,-0.410736,-1.086755,0.608060,-0.599003,-0.952637,-0.335938,-0.231445,0.086123,0.013530,0.042442,0.999976,-0.005434,0.003040,-0.002995,-0.043012,-0.477505,-0.192308,-0.856245
49565,NaN,9.886445,1.713857,5.145353,-0.891897,2.450737,1.157810,-0.885281,0.410317,-0.633923,-0.950439,-0.338135,-0.248291,0.099024,0.017052,0.051175,0.999983,-0.004426,0.002052,-0.003170,-0.047236,-0.474987,-0.190265,-0.857878
49566,NaN,10.592089,2.253960,5.616222,-0.889318,2.287292,2.136862,-0.768983,0.223617,-0.726599,-0.941895,-0.342529,-0.241943,0.106065,0.022370,0.055957,0.999985,-0.003845,0.001118,-0.003633,-0.051965,-0.473148,-0.188743,-0.858957
49567,NaN,10.561159,2.526097,5.258819,-1.166222,1.937575,2.038892,-0.801778,0.008506,-0.780922,-0.943848,-0.346680,-0.252441,0.105712,0.025059,0.052483,0.999984,-0.004009,0.000043,-0.003905,-0.059726,-0.473204,-0.184193,-0.859409
49568,NaN,9.964154,2.984499,4.565546,-1.411526,1.202280,1.394356,-0.939391,-0.192129,-0.755238,-0.935303,-0.351074,-0.250488,0.099710,0.029683,0.045612,0.999981,-0.004697,-0.000961,-0.003776,-0.065370,-0.473044,-0.181882,-0.859578
49569,NaN,8.627884,2.774846,3.748870,-1.368633,0.810437,-0.134662,-1.088170,-0.328264,-0.664275,-0.937256,-0.353027,-0.258789,0.086309,0.027666,0.037480,0.999978,-0.005441,-0.001641,-0.003321,-0.074784,-0.475263,-0.174271,-0.859164
49570,NaN,7.148963,1.964666,3.095075,-1.153642,0.988171,-1.923474,-1.146813,-0.440063,-0.535047,-0.937500,-0.351074,-0.254639,0.071474,0.019633,0.030995,0.999978,-0.005734,-0.002200,-0.002675,-0.080189,-0.476247,-0.170448,-0.858898
49571,NaN,6.007829,1.046109,2.502340,-1.016447,1.353876,-3.442142,-1.126337,-0.604699,-0.389929,-0.941406,-0.357422,-0.252441,0.060023,0.010485,0.025146,0.999978,-0.005632,-0.003023,-0.001950,-0.089192,-0.480434,-0.161261,-0.857451
49572,NaN,4.915798,0.245544,2.161960,-0.706041,1.692911,-4.759483,-1.035549,-0.735413,-0.228446,-0.937256,-0.353027,-0.250244,0.049081,0.002512,0.021787,0.999979,-0.005178,-0.003677,-0.001142,-0.093250,-0.482931,-0.157039,-0.856400
49573,NaN,4.155753,-0.274117,2.039781,-0.336486,1.891898,-5.592089,-0.941838,-0.868935,-0.071462,-0.937256,-0.357422,-0.246094,0.041467,-0.002659,0.020591,0.999979,-0.004709,-0.004345,-0.000357,-0.101325,-0.488561,-0.147201,-0.854034
49574,NaN,3.455402,-0.265399,1.987379,0.010937,1.636909,-6.168493,-0.825137,-0.991485,0.088578,-0.941406,-0.353271,-0.237549,0.034456,-0.002556,0.020055,0.999979,-0.004126,-0.004957,0.000443,-0.103690,-0.492431,-0.142955,-0.852246
49575,NaN,2.796753,0.049308,2.107733,0.485585,1.106538,-6.525376,-0.666363,-1.109966,0.245891,-0.939697,-0.344482,-0.233398,0.027849,0.000598,0.021230,0.999978,-0.003332,-0.005550,0.001229,-0.108978,-0.498542,-0.133820,-0.849513
49576,NaN,2.306253,0.418369,2.323591,0.926926,0.604356,-6.703297,-0.490206,-1.197391,0.386710,-0.945801,-0.346680,-0.220703,0.022915,0.004285,0.023363,0.999977,-0.002451,-0.005987,0.001934,-0.109356,-0.503608,-0.130118,-0.847047
49577,NaN,2.312287,0.711394,2.442385,1.056228,0.285062,-6.553710,-0.304807,-1.259276,0.465183,-0.952393,-0.338135,-0.212402,0.022952,0.007205,0.024558,0.999976,-0.001524,-0.006296,0.002326,-0.113788,-0.510516,-0.120986,-0.843675
49578,NaN,2.326695,0.109994,2.282894,0.988238,0.821417,-6.815071,-0.052388,-1.315078,0.505749,-0.956787,-0.333984,-0.203857,0.023113,0.001165,0.022981,0.999975,-0.000262,-0.006575,0.002529,-0.112581,-0.516327,-0.118723,-0.840617
49579,NaN,2.647114,-0.551998,2.005661,0.704637,1.483937,-6.874008,0.236708,-1.418853,0.526045,-0.958984,-0.327637,-0.182861,0.026342,-0.005474,0.020237,0.999971,0.001184,-0.007094,0.002630,-0.114516,-0.523918,-0.112027,-0.836568
49580,NaN,3.165672,-1.046997,1.841437,0.418332,2.089627,-6.655660,0.460422,-1.518481,0.533199,-0.965332,-0.325439,-0.172119,0.031544,-0.010428,0.018630,0.999965,0.002302,-0.007592,0.002666,-0.111926,-0.530813,-0.111683,-0.832609
49581,NaN,3.648300,-1.073750,1.702957,0.182962,2.219556,-6.290908,0.559909,-1.571922,0.553862,-0.963379,-0.321289,-0.155273,0.036377,-0.010685,0.017286,0.999961,0.002800,-0.007860,0.002769,-0.114309,-0.539118,-0.105157,-0.827785
49582,NaN,4.451397,-0.640794,1.812556,-0.001904,2.039834,-5.413877,0.517585,-1.601363,0.551367,-0.967529,-0.319092,-0.138428,0.044385,-0.006333,0.018465,0.999961,0.002588,-0.008007,0.002757,-0.111469,-0.546310,-0.104894,-0.823479
49583,NaN,5.490385,0.434040,2.018343,-0.184303,1.281241,-4.091670,0.340264,-1.628169,0.547863,-0.969727,-0.317139,-0.123535,0.054725,0.004456,0.020637,0.999962,0.001701,-0.008141,0.002739,-0.113727,-0.553967,-0.097205,-0.818986
49584,NaN,6.456939,1.748675,1.973635,-0.573000,0.273791,-2.867138,0.138395,-1.646742,0.534735,-0.967773,-0.310791,-0.106689,0.064357,0.017645,0.020279,0.999962,0.000692,-0.008234,0.002674,-0.111950,-0.561027,-0.095351,-0.814631
49585,NaN,7.204559,3.468601,2.071774,-0.789584,-1.231279,-1.683225,-0.110409,-1.649773,0.513288,-0.974121,-0.304199,-0.094238,0.071782,0.034882,0.021291,0.999963,-0.000552,-0.008249,0.002566,-0.115833,-0.567972,-0.085585,-0.810349
49586,NaN,7.497925,4.930854,2.190459,-0.786555,-2.605382,-0.985336,-0.296387,-1.643697,0.541790,-0.978516,-0.302246,-0.079346,0.074662,0.049544,0.022446,0.999961,-0.001482,-0.008218,0.002709,-0.115179,-0.574669,-0.081890,-0.806091
49587,NaN,7.508570,5.297427,2.433477,-0.525410,-3.055453,-0.826588,-0.445291,-1.583180,0.528045,-0.978516,-0.300049,-0.064453,0.074750,0.053227,0.024809,0.999963,-0.002226,-0.007916,0.002640,-0.117838,-0.581091,-0.072741,-0.801970
49588,NaN,7.218329,4.989671,2.443910,-0.296207,-2.905276,-1.184578,-0.440275,-1.523343,0.498538,-0.982910,-0.291504,-0.049805,0.071870,0.050131,0.024877,0.999965,-0.002201,-0.007617,0.002493,-0.117669,-0.587100,-0.068627,-0.797971
49589,NaN,6.936673,4.359094,2.706074,0.163307,-2.459622,-1.544409,-0.266038,-1.502229,0.443982,-0.978516,-0.289551,-0.039307,0.069064,0.043781,0.027522,0.999968,-0.001330,-0.007511,0.002220,-0.120276,-0.592812,-0.061740,-0.793911
49590,NaN,6.523705,3.567986,3.085067,0.831605,-1.876524,-2.028547,-0.117714,-1.522036,0.409008,-0.976562,-0.285156,-0.026611,0.064927,0.035831,0.031325,0.999969,-0.000589,-0.007610,0.002045,-0.119469,-0.598890,-0.059144,-0.789658
49591,NaN,6.932693,3.018825,3.641432,1.410834,-1.338882,-1.648671,-0.064960,-1.525557,0.391836,-0.976562,-0.281006,-0.005615,0.068987,0.030336,0.036932,0.999969,-0.000325,-0.007628,0.001959,-0.120751,-0.604489,-0.054219,-0.785540
49592,NaN,7.438933,2.364588,4.069285,1.897521,-0.656462,-1.242092,-0.075252,-1.487052,0.349924,-0.978760,-0.281006,0.002930,0.074043,0.023791,0.041235,0.999971,-0.000376,-0.007435,0.001750,-0.120006,-0.610360,-0.051968,-0.781255
49593,NaN,8.010240,2.170676,4.283218,2.102327,-0.410435,-0.722482,-0.019318,-1.502892,0.287238,-0.983154,-0.270264,0.019775,0.079746,0.021826,0.043430,0.999971,-0.000097,-0.007514,0.001436,-0.122741,-0.615805,-0.047227,-0.776845
49594,NaN,8.573561,1.721605,4.656726,2.531882,0.085407,-0.234815,-0.058607,-1.401136,0.226175,-0.974609,-0.274658,0.026123,0.085387,0.017327,0.047161,0.999975,-0.000293,-0.007006,0.001131,-0.122373,-0.621247,-0.045444,-0.772665
49595,NaN,8.664205,1.334216,4.993904,2.998406,0.410723,-0.188389,-0.276824,-1.280208,0.170613,-0.974609,-0.272705,0.041016,0.086309,0.013485,0.050474,0.999978,-0.001384,-0.006401,0.000853,-0.122065,-0.625463,-0.043670,-0.769408
49596,NaN,8.923123,0.957636,5.237642,3.344571,0.759438,-0.004123,-0.529257,-1.158324,0.130857,-0.976562,-0.274658,0.047363,0.088920,0.009774,0.052866,0.999980,-0.002646,-0.005792,0.000654,-0.123470,-0.629610,-0.040518,-0.765967
49597,NaN,8.808126,1.154419,4.894337,3.078949,0.490177,-0.161311,-0.620043,-1.086846,0.112882,-0.972412,-0.272705,0.053711,0.087807,0.011746,0.049385,0.999980,-0.003100,-0.005434,0.000564,-0.127381,-0.632623,-0.034929,-0.763114
49598,NaN,8.618848,1.539800,4.402719,2.660162,0.068173,-0.380961,-0.571657,-1.065493,0.116963,-0.970215,-0.270508,0.062012,0.085943,0.015575,0.044441,0.999982,-0.002858,-0.005327,0.000585,-0.128930,-0.636330,-0.031701,-0.759905
49599,NaN,8.450899,2.137177,3.814944,2.078007,-0.538852,-0.542855,-0.455297,-1.057243,0.138985,-0.972412,-0.270508,0.066406,0.084291,0.021518,0.038547,0.999983,-0.002276,-0.005286,0.000695,-0.131049,-0.639205,-0.027710,-0.757281
49600,NaN,8.355073,2.326899,3.385984,1.718562,-0.732892,-0.691535,-0.341807,-0.957189,0.108987,-0.965820,-0.272705,0.072510,0.083375,0.023373,0.034219,0.999987,-0.001709,-0.004786,0.000545,-0.131864,-0.642609,-0.025442,-0.754333
49601,NaN,8.317928,2.373545,3.145230,1.525310,-0.787935,-0.770216,-0.287496,-0.844222,0.061055,-0.968018,-0.270508,0.083252,0.083038,0.023806,0.031769,0.999990,-0.001437,-0.004221,0.000305,-0.133573,-0.644706,-0.022909,-0.752322
49602,NaN,8.839944,2.287875,3.287469,1.671121,-0.632280,-0.273628,-0.350046,-0.775866,0.014184,-0.963623,-0.270508,0.091553,0.088270,0.022943,0.033177,0.999991,-0.001750,-0.003879,0.000071,-0.134740,-0.647383,-0.021031,-0.749866
49603,NaN,9.511295,1.683378,3.462047,1.902969,0.058234,0.269930,-0.509600,-0.751624,-0.051855,-0.959473,-0.272705,0.093750,0.094986,0.016898,0.034935,0.999990,-0.002548,-0.003758,-0.000259,-0.137695,-0.648998,-0.018406,-0.747999
49604,NaN,10.105974,1.025655,3.457926,2.013079,0.803454,0.696426,-0.513201,-0.734292,-0.118176,-0.959473,-0.270508,0.095947,0.100938,0.010286,0.034924,0.999990,-0.002566,-0.003671,-0.000591,-0.139873,-0.651370,-0.016367,-0.745577
49605,NaN,10.367408,0.419236,3.439189,2.127462,1.437075,0.812527,-0.433009,-0.711209,-0.170404,-0.963379,-0.279297,0.104492,0.103554,0.004179,0.034751,0.999991,-0.002165,-0.003556,-0.000852,-0.142788,-0.652784,-0.014518,-0.743823
49606,NaN,10.590800,-0.051570,3.774697,2.597818,1.873021,0.965004,-0.295436,-0.715479,-0.199198,-0.957031,-0.277100,0.104248,0.105772,-0.000565,0.038126,0.999992,-0.001477,-0.003577,-0.000996,-0.144548,-0.655211,-0.013561,-0.741364
49607,NaN,10.858680,-0.421897,4.509778,3.419173,2.148811,1.238027,-0.114412,-0.697602,-0.186283,-0.952637,-0.281494,0.116943,0.108425,-0.004294,0.045479,0.999993,-0.000572,-0.003488,-0.000931,-0.147074,-0.656729,-0.012001,-0.739549
49608,NaN,11.266908,-0.859501,4.820362,3.854777,2.603252,1.557491,0.118730,-0.722157,-0.124947,-0.948486,-0.277100,0.119141,0.112489,-0.008694,0.048605,0.999993,0.000594,-0.003611,-0.000625,-0.147192,-0.659471,-0.012322,-0.737076
49609,NaN,12.288808,-0.969229,4.866450,3.896850,2.918062,2.513516,0.479654,-0.672748,-0.117588,-0.946289,-0.279297,0.125488,0.122718,-0.009882,0.049054,0.999991,0.002398,-0.003364,-0.000588,-0.147928,-0.661225,-0.011842,-0.735363
49610,NaN,14.393495,-1.273227,4.647785,3.665035,3.770125,4.426283,1.119638,-0.674587,-0.154564,-0.944336,-0.275146,0.135986,0.143767,-0.013105,0.046890,0.999978,0.005598,-0.003373,-0.000773,-0.144835,-0.664506,-0.015974,-0.732939
49611,NaN,16.771032,-2.064124,2.148027,1.253895,5.521109,6.252393,1.524331,-0.467403,-0.130145,-0.944092,-0.279297,0.144531,0.167646,-0.020915,0.021713,0.999968,0.007622,-0.002337,-0.000651,-0.142632,-0.666166,-0.018455,-0.731804
49612,NaN,15.850857,-2.427157,1.503888,0.790675,5.790023,5.195739,1.438043,-0.279873,-0.007985,-0.942139,-0.272949,0.159180,0.158487,-0.024386,0.015086,0.999973,0.007190,-0.001399,-0.000040,-0.137898,-0.668194,-0.023546,-0.730717
49613,NaN,15.781257,-3.584550,1.807745,1.318855,6.794691,4.926979,0.871036,-0.355454,0.138377,-0.940186,-0.266602,0.156982,0.157805,-0.035815,0.018202,0.999989,0.004355,-0.001777,0.000692,-0.136836,-0.669151,-0.021921,-0.730090
49614,NaN,15.756954,-2.481173,-0.461163,-1.069735,6.039244,4.919363,1.158017,-0.458021,0.292705,-0.937988,-0.264404,0.165527,0.157616,-0.024555,-0.004393,0.999980,0.005790,-0.002290,0.001464,-0.131945,-0.671630,-0.024858,-0.728619
49615,NaN,22.188058,2.491706,3.776139,1.959518,1.920266,12.665036,1.298308,-0.598380,0.443843,-0.942627,-0.255859,0.173828,0.221710,0.025161,0.038588,0.999972,0.006491,-0.002992,0.002219,-0.129224,-0.673970,-0.021909,-0.727038
49616,NaN,29.986983,8.525343,9.521872,6.343729,-3.174156,22.003090,-0.338374,-0.525543,0.496543,-0.938232,-0.255859,0.171875,0.299405,0.086159,0.095861,0.999992,-0.001692,-0.002628,0.002483,-0.128620,-0.675707,-0.018669,-0.725622
49617,NaN,26.777162,10.294563,6.723178,3.175428,-5.481982,18.963093,-1.575662,0.670331,0.504412,-0.940430,-0.258057,0.156982,0.267731,0.104142,0.065517,0.999960,-0.007878,0.003352,0.002522,-0.134823,-0.671251,-0.006640,-0.728835
49618,NaN,7.924949,16.455040,-4.697751,-8.193477,-13.459048,0.548858,0.650165,1.481105,0.283240,-0.951416,-0.251465,0.148438,0.078668,0.164815,-0.047026,0.999966,0.003251,0.007405,0.001416,-0.131559,-0.666275,-0.009060,-0.733954
49619,NaN,1.159986,11.605253,-5.297146,-7.351158,-10.141384,-7.129920,1.409809,0.938407,0.131445,-0.945068,-0.251465,0.144287,0.011277,0.116430,-0.052205,0.999964,0.007049,0.004692,0.000657,-0.127177,-0.662774,-0.012958,-0.737827
49620,NaN,1.138903,2.933612,-1.705022,-2.283861,-2.344876,-8.365011,-0.447301,0.671320,-0.076514,-0.951416,-0.251465,0.133789,0.011343,0.029293,-0.017154,0.999992,-0.002236,0.003357,-0.000383,-0.128901,-0.659998,-0.011991,-0.740029
49621,NaN,1.691948,-2.953965,-4.556785,-4.077069,3.936666,-9.331249,-2.285863,0.396385,-0.072920,-0.949219,-0.253662,0.123047,0.016819,-0.030064,-0.045260,0.999933,-0.011429,0.001982,-0.000365,-0.136304,-0.656305,-0.004678,-0.742067
49622,NaN,4.407823,-2.574014,-6.371653,-6.116148,4.555449,-6.898733,-2.306814,0.165742,0.118117,-0.951416,-0.255615,0.118896,0.044041,-0.026447,-0.063451,0.999933,-0.011534,0.000829,0.000591,-0.143427,-0.654073,0.004153,-0.742698
49623,NaN,10.694469,1.248881,-4.497554,-5.741685,1.926525,0.161310,-1.625313,-0.174534,0.135838,-0.945068,-0.251465,0.116699,0.106976,0.012196,-0.044982,0.999966,-0.008126,-0.000873,0.000679,-0.148551,-0.653240,0.011334,-0.742349
49624,NaN,15.147370,0.369760,-2.243900,-3.766053,3.236298,4.677214,-0.713010,-0.562376,0.003207,-0.951416,-0.253662,0.118896,0.151536,0.003621,-0.022026,0.999990,-0.003565,-0.002812,0.000016,-0.150838,-0.654787,0.014406,-0.740469
49625,NaN,17.179777,-1.090940,-0.012439,-1.333855,4.552380,6.735125,0.100452,-0.773825,-0.255018,-0.949219,-0.253662,0.131592,0.171782,-0.011129,0.000535,0.999992,0.000502,-0.003869,-0.001275,-0.152080,-0.657770,0.014966,-0.737555
49626,NaN,13.452157,-2.133791,1.665645,0.992524,4.435311,3.134506,0.720833,-0.792405,-0.386389,-0.944824,-0.260010,0.140137,0.134413,-0.021659,0.017111,0.999984,0.003604,-0.003962,-0.001932,-0.151076,-0.661254,0.011636,-0.734700
49627,NaN,10.754801,-2.014567,2.262159,1.851034,3.640219,0.587496,0.736931,-0.482197,-0.214158,-0.938477,-0.253662,0.140137,0.107471,-0.020345,0.022806,0.999990,0.003685,-0.002411,-0.001071,-0.150691,-0.663678,0.010861,-0.732602
49628,NaN,9.539878,1.131021,3.215335,2.169243,0.200685,0.080785,0.774439,-0.312626,0.024868,-0.940674,-0.253662,0.146484,0.095347,0.011197,0.032346,0.999991,0.003872,-0.001563,0.000124,-0.148016,-0.665396,0.008340,-0.731621
49629,NaN,8.486921,3.062363,3.403013,2.016485,-1.920664,-0.580620,0.813892,-0.186189,0.114410,-0.942627,-0.258057,0.150635,0.084820,0.030533,0.034233,0.999991,0.004069,-0.000931,0.000572,-0.146323,-0.666670,0.008447,-0.730801
49630,NaN,7.910770,2.791902,3.957833,2.697068,-1.885544,-1.140326,0.746399,-0.166386,0.130369,-0.944824,-0.255859,0.159180,0.079057,0.027822,0.039748,0.999992,0.003732,-0.000832,0.000652,-0.143354,-0.667809,0.006273,-0.730370
49631,NaN,7.954653,1.791941,3.790748,2.770750,-0.898663,-1.305477,0.600739,-0.115095,0.130640,-0.936523,-0.245117,0.152588,0.079513,0.017857,0.038007,0.999995,0.003004,-0.000575,0.000653,-0.141914,-0.668513,0.006469,-0.730006
49632,NaN,8.322605,1.478940,3.311935,2.367699,-0.426236,-1.058590,0.498585,-0.112495,0.135762,-0.936523,-0.249512,0.158936,0.083197,0.014763,0.033203,0.999997,0.002493,-0.000562,0.000679,-0.139751,-0.669267,0.005180,-0.729743
49633,NaN,8.613814,1.610962,1.920774,0.966807,-0.239191,-0.896947,0.290430,-0.012329,0.097507,-0.942871,-0.245117,0.154785,0.086129,0.016124,0.019236,0.999999,0.001452,-0.000062,0.000488,-0.139271,-0.669250,0.005993,-0.729844
49634,NaN,8.333234,1.812875,0.620767,-0.331889,-0.237569,-1.271725,-0.179076,0.168344,0.059463,-0.940918,-0.245117,0.152588,0.083332,0.018159,0.006121,0.999999,-0.000895,0.000842,0.000297,-0.139662,-0.668505,0.006726,-0.730445
49635,NaN,7.874039,1.939035,0.455122,-0.518680,-0.422985,-1.718276,-0.406069,0.200219,0.043446,-0.940918,-0.240723,0.158936,0.078741,0.019417,0.004433,0.999997,-0.002030,0.001001,0.000217,-0.141604,-0.667223,0.009552,-0.731212
49636,NaN,7.924580,1.958520,1.499917,0.468657,-0.646126,-1.551490,-0.299001,0.143595,0.050062,-0.945068,-0.242920,0.150635,0.079252,0.019627,0.014913,0.999999,-0.001495,0.000718,0.000250,-0.142429,-0.666479,0.010708,-0.731714
49637,NaN,7.898934,1.989351,1.779895,0.701706,-0.757878,-1.539120,-0.165893,0.088030,-0.026786,-0.947266,-0.245117,0.146240,0.079000,0.019898,0.017748,1.000000,-0.000829,0.000440,-0.000134,-0.149214,-0.665678,0.017286,-0.730964
49638,NaN,6.944045,2.625757,1.875830,0.700366,-1.565289,-2.349950,0.139049,0.137815,-0.136916,-0.940918,-0.247314,0.148438,0.069471,0.026197,0.018729,0.999999,0.000695,0.000689,-0.000685,-0.149268,-0.665286,0.016216,-0.731335
49639,NaN,5.982111,3.004718,3.626106,2.325505,-2.525657,-3.017423,0.392555,0.195457,-0.249349,-0.943115,-0.242920,0.146240,0.059894,0.029901,0.036261,0.999997,0.001963,0.000977,-0.001247,-0.154861,-0.664475,0.019608,-0.730826
49640,NaN,5.603446,2.021690,3.827232,2.796555,-1.683104,-3.529383,0.198187,0.196627,-0.344335,-0.940918,-0.247314,0.144287,0.056107,0.020082,0.038237,0.999998,0.000991,0.000983,-0.001722,-0.155483,-0.663939,0.017585,-0.731233
49641,NaN,5.446316,1.396374,3.320010,2.456001,-0.997926,-3.845543,0.188645,0.229934,-0.355773,-0.938477,-0.251465,0.144287,0.054526,0.013835,0.033151,0.999997,0.000943,0.001150,-0.001779,-0.159770,-0.662808,0.018937,-0.731301
49642,NaN,6.232263,0.393351,2.242251,1.619775,0.408643,-3.391415,0.780952,0.205439,-0.292982,-0.940674,-0.253662,0.146484,0.062351,0.003755,0.022373,0.999991,0.003905,0.001027,-0.001465,-0.158275,-0.662698,0.014944,-0.731818
49643,NaN,7.406821,1.424920,0.101122,-0.800818,0.210851,-2.314967,1.068137,0.352424,-0.250607,-0.940430,-0.257812,0.146484,0.074088,0.014151,0.000956,0.999983,0.005341,0.001762,-0.001253,-0.158976,-0.661769,0.013016,-0.732543
49644,NaN,8.045199,1.697344,1.455832,0.384061,-0.189769,-1.473503,1.297357,0.501191,-0.205479,-0.945068,-0.249268,0.144287,0.080506,0.016797,0.014466,0.999975,0.006487,0.002506,-0.001027,-0.155469,-0.660957,0.007183,-0.734107
49645,NaN,8.529270,2.187074,2.851843,1.547110,-0.812045,-0.723605,0.947301,0.701142,-0.230498,-0.940674,-0.251465,0.140137,0.085417,0.021638,0.028322,0.999982,0.004736,0.003506,-0.001152,-0.155493,-0.658703,0.004534,-0.736147
49646,NaN,8.362202,1.692179,2.748931,1.530267,-0.299141,-0.985759,0.613583,1.007126,-0.223937,-0.940918,-0.249268,0.129395,0.083778,0.016744,0.027119,0.999982,0.003068,0.005036,-0.001120,-0.154320,-0.655462,0.000752,-0.739293
49647,NaN,8.174973,0.540413,1.949285,0.956271,0.970062,-1.502109,0.582013,1.112262,-0.230601,-0.945068,-0.251465,0.127441,0.081863,0.005254,0.019053,0.999980,0.002910,0.005561,-0.001153,-0.154240,-0.651348,-0.002125,-0.742935
49648,NaN,7.441412,-0.027867,1.716288,0.849971,1.436878,-2.360634,0.645200,1.296989,-0.182549,-0.947266,-0.251465,0.112549,0.074523,-0.000401,0.016679,0.999973,0.003226,0.006485,-0.000913,-0.152802,-0.647004,-0.006118,-0.746994
49649,NaN,6.861438,-1.004692,1.936622,1.242562,2.236170,-3.082624,0.899450,1.444142,-0.085752,-0.945312,-0.244873,0.099854,0.068747,-0.010162,0.018825,0.999964,0.004497,0.007221,-0.000429,-0.150378,-0.641835,-0.010545,-0.751880
49650,NaN,5.955942,-1.167596,1.851318,1.212501,2.236090,-3.999540,1.312283,1.452254,0.054116,-0.951904,-0.242676,0.091309,0.059695,-0.011779,0.018003,0.999952,0.006561,0.007261,0.000271,-0.145883,-0.637330,-0.016398,-0.756478
49651,NaN,5.808162,-0.565412,2.746333,1.871105,1.532743,-3.833945,1.497517,1.583082,0.189145,-0.956055,-0.240479,0.083008,0.058302,-0.005802,0.026959,0.999940,0.007487,0.007915,0.000946,-0.139084,-0.631938,-0.023299,-0.762081
49652,NaN,5.870770,0.397823,2.569489,1.417895,0.699010,-3.589624,1.611960,1.692804,0.255533,-0.954346,-0.236328,0.063965,0.058918,0.003849,0.025228,0.999931,0.008060,0.008464,0.001278,-0.132814,-0.626591,-0.029812,-0.767369
49653,NaN,5.884861,2.113921,1.014391,-0.465674,-0.735484,-3.538053,1.849143,1.839957,0.269008,-0.956543,-0.231934,0.059570,0.058911,0.021127,0.009797,0.999914,0.009245,0.009200,0.001345,-0.124794,-0.620236,-0.037672,-0.773508
49654,NaN,6.049349,3.789755,1.360650,-0.470877,-2.330675,-2.945799,1.831647,2.063337,0.202078,-0.963135,-0.227539,0.040527,0.060594,0.037836,0.013328,0.999904,0.009158,0.010316,0.001010,-0.117935,-0.613373,-0.045415,-0.779617
49655,NaN,7.084307,4.386578,2.436844,0.186417,-2.702602,-1.564797,1.469006,2.292206,-0.011060,-0.958984,-0.227539,0.021484,0.071121,0.043685,0.023876,0.999907,0.007345,0.011461,-0.000055,-0.111524,-0.604712,-0.053427,-0.786785
49656,NaN,8.481802,4.224057,4.211086,1.419490,-2.225684,0.214468,0.812994,2.603722,-0.270379,-0.958740,-0.233887,0.000488,0.085415,0.041957,0.041172,0.999906,0.004065,0.013018,-0.001352,-0.109427,-0.594789,-0.058891,-0.794219
49657,NaN,9.964749,5.220449,4.587822,1.028314,-2.736329,1.979027,0.328084,2.757810,-0.561561,-0.958984,-0.233887,-0.022949,0.100414,0.051849,0.044582,0.999900,0.001640,0.013789,-0.002808,-0.108990,-0.583257,-0.063996,-0.802394
49658,NaN,12.215410,6.523025,4.726055,0.042384,-3.298529,4.442363,0.286713,2.850949,-0.833283,-0.960938,-0.244385,-0.043945,0.123082,0.064653,0.045603,0.999889,0.001434,0.014254,-0.004166,-0.110576,-0.571639,-0.069124,-0.810076
49659,NaN,15.096920,7.574965,5.622033,-0.554059,-3.372211,7.657383,0.389603,2.928539,-1.094908,-0.950195,-0.252930,-0.075684,0.152183,0.074812,0.054144,0.999876,0.001948,0.014642,-0.005474,-0.110930,-0.558874,-0.076961,-0.818188
49660,NaN,17.292792,7.010022,5.753571,-1.642482,-1.968931,9.543937,0.242815,2.996023,-1.282565,-0.947754,-0.261475,-0.098877,0.174209,0.068918,0.055017,0.999867,0.001214,0.014979,-0.006413,-0.114334,-0.546179,-0.083191,-0.825648
49661,NaN,18.479706,5.736223,5.096256,-3.148641,-0.148393,9.945971,-0.187825,3.000741,-1.265567,-0.939209,-0.274170,-0.128418,0.185892,0.056234,0.048126,0.999867,-0.000939,0.015003,-0.006328,-0.116255,-0.532361,-0.089540,-0.833702
49662,NaN,18.200613,5.509944,4.447796,-4.179357,0.210349,9.262461,-0.747449,2.866188,-1.165702,-0.934814,-0.282715,-0.155762,0.182934,0.054194,0.041657,0.999873,-0.003737,0.014330,-0.005828,-0.121809,-0.519384,-0.091183,-0.840886
49663,NaN,15.655530,5.107505,4.212684,-3.778487,-0.001802,6.759287,-1.036687,2.614573,-1.128696,-0.932617,-0.289062,-0.183105,0.157372,0.050399,0.039811,0.999885,-0.005183,0.013072,-0.005643,-0.125351,-0.506591,-0.093239,-0.847914
49664,NaN,12.692430,5.227169,4.399300,-2.702463,-0.877113,4.318445,-1.157618,2.337953,-1.088768,-0.917480,-0.297607,-0.204346,0.127708,0.051826,0.042202,0.999900,-0.005788,0.011689,-0.005444,-0.131800,-0.495390,-0.092546,-0.853611
49665,NaN,11.851821,4.985572,3.696279,-3.227790,-0.838858,3.143082,-1.376917,2.029234,-1.060027,-0.915283,-0.301758,-0.231689,0.119146,0.049473,0.035415,0.999911,-0.006884,0.010146,-0.005300,-0.135538,-0.484764,-0.092745,-0.859088
49666,NaN,12.366616,1.877778,3.965396,-3.078935,2.373901,2.719787,-1.053519,1.685715,-0.968120,-0.910889,-0.310303,-0.242432,0.124084,0.018383,0.038512,0.999939,-0.005267,0.008428,-0.004841,-0.141464,-0.476325,-0.091704,-0.862956
49667,NaN,12.463403,0.896721,5.079042,-2.247889,3.437496,3.035069,-0.740583,1.226145,-0.875448,-0.904541,-0.312500,-0.259277,0.124980,0.008607,0.049993,0.999965,-0.003703,0.006131,-0.004377,-0.143305,-0.469705,-0.093382,-0.866095
49668,NaN,10.692922,1.766098,6.597674,-0.326999,2.145504,2.688331,-0.473907,0.805162,-0.823227,-0.900146,-0.321045,-0.269775,0.107265,0.017376,0.065504,0.999981,-0.002370,0.004026,-0.004116,-0.147607,-0.465479,-0.093840,-0.867603
49669,NaN,8.800546,3.099749,6.944365,0.643863,0.323812,1.796028,-0.260817,0.444452,-0.706039,-0.893799,-0.322998,-0.269775,0.088268,0.030777,0.069207,0.999990,-0.001304,0.002222,-0.003530,-0.148325,-0.462737,-0.096206,-0.868688
49670,NaN,7.924101,3.367294,5.998100,0.228573,-0.210888,0.675894,-0.175937,0.213948,-0.517183,-0.899902,-0.327393,-0.269775,0.079392,0.033520,0.059867,0.999996,-0.000880,0.001070,-0.002586,-0.150878,-0.461421,-0.096797,-0.868883
49671,NaN,7.458715,2.506675,4.713087,-0.465997,0.422828,-0.662111,-0.097138,0.062905,-0.356457,-0.895508,-0.331543,-0.271729,0.074647,0.024957,0.047095,0.999998,-0.000486,0.000315,-0.001782,-0.149727,-0.460589,-0.098833,-0.869294
49672,NaN,7.712425,2.114164,3.784791,-1.305806,0.869831,-1.105560,-0.056789,-0.096480,-0.284341,-0.895508,-0.335938,-0.269775,0.077136,0.021043,0.037879,0.999999,-0.000284,-0.000482,-0.001422,-0.151144,-0.460819,-0.099170,-0.868888
49673,NaN,8.252384,2.258166,3.399344,-1.924957,0.926488,-0.857646,-0.071565,-0.265645,-0.306940,-0.893311,-0.335938,-0.265381,0.082513,0.022467,0.034095,0.999998,-0.000358,-0.001328,-0.001535,-0.150962,-0.461600,-0.100362,-0.868368
49674,NaN,8.423447,2.322553,3.660270,-1.778851,0.958688,-0.557272,-0.022869,-0.434394,-0.331138,-0.889160,-0.333740,-0.267578,0.084193,0.023090,0.036783,0.999996,-0.000114,-0.002172,-0.001656,-0.152673,-0.463296,-0.100700,-0.867126
49675,NaN,8.143991,2.132928,3.827378,-1.417776,1.055672,-0.735353,-0.016271,-0.590288,-0.320885,-0.897461,-0.338135,-0.259033,0.081361,0.021202,0.038512,0.999994,-0.000081,-0.002951,-0.001604,-0.152362,-0.465536,-0.101999,-0.865828
49676,NaN,7.519868,2.404180,3.978938,-0.957523,0.597399,-1.044197,-0.146806,-0.726263,-0.266280,-0.897217,-0.340332,-0.250732,0.075086,0.023971,0.040045,0.999992,-0.000734,-0.003631,-0.001331,-0.154228,-0.468424,-0.101430,-0.864005
49677,NaN,6.933058,1.874564,4.148629,-0.367299,0.877667,-1.573337,-0.374031,-0.829750,-0.163757,-0.901611,-0.340332,-0.246338,0.069173,0.018767,0.041738,0.999989,-0.001870,-0.004149,-0.000819,-0.154036,-0.471516,-0.100705,-0.862441
49678,NaN,6.433690,1.269027,4.107803,0.014735,1.238752,-2.174512,-0.509858,-0.935303,-0.018440,-0.899414,-0.338135,-0.244385,0.064145,0.012790,0.041346,0.999986,-0.002549,-0.004676,-0.000092,-0.155789,-0.475135,-0.097829,-0.860468
49679,NaN,5.924382,0.844093,3.811195,0.150532,1.409132,-2.860910,-0.560188,-1.050758,0.106976,-0.903809,-0.335938,-0.231689,0.059038,0.008580,0.038399,0.999982,-0.002801,-0.005254,0.000535,-0.155195,-0.479179,-0.095358,-0.858609
49680,NaN,5.317741,0.288575,3.519857,0.365305,1.667597,-3.661576,-0.448641,-1.197825,0.176806,-0.901611,-0.333984,-0.223145,0.052963,0.003012,0.035510,0.999979,-0.002243,-0.005989,0.000884,-0.156081,-0.484042,-0.092078,-0.856075
49681,NaN,5.158492,0.228292,3.673436,0.656590,1.630767,-3.724573,-0.257470,-1.350371,0.213918,-0.910156,-0.331787,-0.212646,0.051333,0.002386,0.037078,0.999976,-0.001287,-0.006752,0.001070,-0.155233,-0.489718,-0.089934,-0.853224
49682,NaN,4.789377,-0.047761,3.549326,0.853724,1.725116,-4.170648,-0.025701,-1.466254,0.250289,-0.918701,-0.327637,-0.199951,0.047632,-0.000413,0.035843,0.999972,-0.000129,-0.007331,0.001251,-0.154887,-0.496047,-0.088072,-0.849818
49683,NaN,4.342317,-0.915608,3.130406,0.921565,2.358729,-5.008513,0.334674,-1.554059,0.305442,-0.916504,-0.331787,-0.187256,0.043192,-0.009143,0.031625,0.999967,0.001673,-0.007770,0.001527,-0.152194,-0.503016,-0.088060,-0.846201
49684,NaN,3.989316,-1.399339,2.784489,0.927624,2.677706,-5.618021,0.739578,-1.570309,0.413453,-0.918457,-0.327637,-0.164062,0.039702,-0.014015,0.028105,0.999960,0.003698,-0.007851,0.002067,-0.149273,-0.510380,-0.088952,-0.842210
49685,NaN,3.841522,-1.308708,2.258438,0.574044,2.532244,-5.961903,1.005429,-1.501536,0.518755,-0.925049,-0.319092,-0.157715,0.038279,-0.013102,0.022806,0.999956,0.005027,-0.007508,0.002594,-0.145865,-0.517834,-0.090031,-0.838132
49686,NaN,3.833146,-0.796966,1.653853,0.009326,2.039031,-6.083686,1.167025,-1.436527,0.636657,-0.933838,-0.310547,-0.138672,0.038237,-0.007945,0.016767,0.999952,0.005835,-0.007183,0.003183,-0.140818,-0.524962,-0.092222,-0.834314
49687,NaN,4.313916,0.675192,1.225281,-0.720151,0.784468,-5.404448,1.189306,-1.450535,0.754623,-0.931641,-0.308594,-0.115479,0.043023,0.006840,0.012606,0.999949,0.005946,-0.007253,0.003773,-0.133632,-0.532091,-0.094800,-0.830683
49688,NaN,5.010955,2.219891,1.159861,-1.157841,-0.484412,-4.353146,1.088581,-1.509287,0.860738,-0.938232,-0.297852,-0.098633,0.049924,0.022349,0.012097,0.999947,0.005443,-0.007546,0.004304,-0.127873,-0.539462,-0.096019,-0.826686
49689,NaN,5.640141,3.539183,1.653225,-0.972201,-1.579219,-3.207425,0.832820,-1.558585,0.927670,-0.942627,-0.295898,-0.083740,0.056105,0.035582,0.017118,0.999950,0.004164,-0.007793,0.004638,-0.121591,-0.546871,-0.096218,-0.822733
49690,NaN,6.386270,4.515164,2.197671,-0.710262,-2.326849,-2.061537,0.424910,-1.552693,0.940938,-0.942871,-0.285156,-0.069092,0.063476,0.045403,0.022567,0.999957,0.002125,-0.007763,0.004705,-0.117303,-0.553941,-0.094446,-0.818822
49691,NaN,7.080662,5.016220,2.280704,-0.793566,-2.677828,-1.286413,0.055617,-1.541740,0.955006,-0.947266,-0.274414,-0.060547,0.070387,0.050493,0.023365,0.999959,0.000278,-0.007709,0.004775,-0.113760,-0.560805,-0.090996,-0.815031
49692,NaN,7.599778,4.973695,2.192855,-0.931037,-2.576779,-0.879910,-0.264350,-1.479327,0.875799,-0.953857,-0.268066,-0.043701,0.075614,0.050098,0.022423,0.999962,-0.001322,-0.007397,0.004379,-0.111604,-0.567056,-0.086620,-0.811474
49693,NaN,7.552225,4.537155,2.122121,-0.833275,-2.261244,-1.076767,-0.448980,-1.451804,0.763626,-0.956299,-0.257324,-0.033203,0.075192,0.045707,0.021665,0.999964,-0.002245,-0.007259,0.003818,-0.109573,-0.573028,-0.082254,-0.808002
49694,NaN,7.512127,3.868558,2.007665,-0.774720,-1.705694,-1.332256,-0.500322,-1.455843,0.649578,-0.954102,-0.250977,-0.016357,0.074847,0.038980,0.020525,0.999965,-0.002502,-0.007279,0.003248,-0.108980,-0.578878,-0.077573,-0.804367
49695,NaN,7.926889,3.077851,1.870403,-0.855043,-0.903478,-1.195355,-0.384247,-1.509348,0.562585,-0.954346,-0.246826,-0.003662,0.079038,0.031038,0.019242,0.999966,-0.001921,-0.007547,0.002813,-0.107205,-0.584937,-0.074381,-0.800514
49696,NaN,8.193021,2.676955,2.166494,-0.502075,-0.510255,-0.954275,-0.260997,-1.482110,0.524343,-0.958740,-0.240234,0.002686,0.081696,0.027013,0.022236,0.999968,-0.001305,-0.007410,0.002622,-0.106420,-0.590901,-0.071007,-0.796535
49697,NaN,8.494483,2.494207,2.529667,-0.101963,-0.321386,-0.611524,-0.181968,-1.393069,0.482243,-0.962891,-0.238281,0.013184,0.084705,0.025170,0.025864,0.999972,-0.000910,-0.006965,0.002411,-0.104730,-0.596551,-0.068676,-0.792744
49698,NaN,8.776381,2.176635,2.775953,0.202549,-0.004035,-0.356149,-0.161515,-1.302627,0.439762,-0.960693,-0.238281,0.030029,0.087532,0.021982,0.028312,0.999976,-0.000808,-0.006513,0.002199,-0.103916,-0.601761,-0.066041,-0.789128
49699,NaN,9.303756,2.040500,3.462741,0.864735,0.186429,0.283351,-0.129322,-1.323375,0.384259,-0.954590,-0.227539,0.040527,0.092766,0.020606,0.035229,0.999976,-0.000647,-0.006617,0.001921,-0.103290,-0.607134,-0.063608,-0.785286
49700,NaN,9.676990,1.902714,4.049444,1.482398,0.338220,0.739507,-0.207592,-1.334053,0.340228,-0.956543,-0.229736,0.053223,0.096464,0.019234,0.041119,0.999976,-0.001038,-0.006670,0.001701,-0.103009,-0.612354,-0.061070,-0.781462
49701,NaN,9.647047,2.019705,4.810674,2.345376,0.134280,0.900246,-0.323094,-1.238850,0.283419,-0.956787,-0.225586,0.061768,0.096141,0.020412,0.048670,0.999979,-0.001615,-0.006194,0.001417,-0.103199,-0.617171,-0.058317,-0.777849
49702,NaN,9.352122,2.169506,5.232317,2.917134,-0.154425,0.723505,-0.373312,-1.102133,0.223158,-0.956787,-0.225586,0.068115,0.093207,0.021897,0.052797,0.999982,-0.001867,-0.005511,0.001116,-0.103806,-0.621315,-0.055608,-0.774661
49703,NaN,9.011692,2.361760,5.393275,3.220250,-0.484516,0.447441,-0.350087,-0.973225,0.189184,-0.958984,-0.221191,0.074219,0.089831,0.023798,0.054329,0.999986,-0.001750,-0.004866,0.000946,-0.104760,-0.624986,-0.052858,-0.771767
49704,NaN,8.889980,2.032887,5.110752,3.085631,-0.225946,0.172860,-0.241345,-0.960316,0.176716,-0.958984,-0.219238,0.091309,0.088635,0.020469,0.051509,0.999987,-0.001207,-0.004802,0.000884,-0.105088,-0.628599,-0.050872,-0.768916
49705,NaN,8.761300,1.690429,4.520999,2.654184,0.074967,-0.168714,-0.046842,-0.990113,0.166774,-0.956787,-0.217041,0.097656,0.087374,0.016988,0.045639,0.999987,-0.000234,-0.004951,0.000834,-0.104419,-0.632346,-0.049973,-0.765988
49706,NaN,8.541326,1.452511,3.997018,2.290936,0.260424,-0.553998,0.052439,-0.924594,0.115540,-0.956787,-0.217041,0.099609,0.085219,0.014564,0.040368,0.999989,0.000262,-0.004623,0.000578,-0.104044,-0.635932,-0.049327,-0.763107
49707,NaN,8.298120,1.484974,3.457869,1.875966,0.189887,-0.898372,0.024361,-0.821658,0.052268,-0.950439,-0.214844,0.114502,0.082834,0.014867,0.034921,0.999992,0.000122,-0.004108,0.000261,-0.103621,-0.638981,-0.049090,-0.760629
49708,NaN,7.914667,1.670847,3.077334,1.611327,-0.064798,-1.309582,-0.051995,-0.710374,-0.011462,-0.954834,-0.208496,0.116455,0.079038,0.016712,0.031050,0.999994,-0.000260,-0.003552,-0.000057,-0.104008,-0.641644,-0.048562,-0.758365
49709,NaN,7.508286,2.180535,2.597854,1.204850,-0.626232,-1.686560,-0.204056,-0.629934,-0.054006,-0.954590,-0.212891,0.125000,0.075006,0.021812,0.026193,0.999994,-0.001020,-0.003150,-0.000270,-0.103824,-0.643726,-0.048619,-0.756620
49710,NaN,7.452168,2.401982,1.915313,0.560191,-0.818381,-1.813370,-0.305997,-0.558987,-0.086422,-0.950195,-0.217041,0.125000,0.074478,0.024017,0.019325,0.999995,-0.001530,-0.002795,-0.000432,-0.105274,-0.645653,-0.047451,-0.754850
49711,NaN,7.902187,2.475816,1.181183,-0.199930,-0.746298,-1.483680,-0.353969,-0.579537,-0.088674,-0.952393,-0.219238,0.131348,0.078998,0.024744,0.011997,0.999994,-0.001770,-0.002898,-0.000443,-0.106261,-0.647469,-0.046632,-0.753205
49712,NaN,8.717155,2.203633,1.196842,-0.230417,-0.303787,-0.750034,-0.375532,-0.586407,-0.084496,-0.950195,-0.217285,0.133545,0.087145,0.022022,0.012183,0.999994,-0.001878,-0.002932,-0.000422,-0.107934,-0.649450,-0.045180,-0.751348
49713,NaN,8.807855,1.803559,1.825695,0.458744,0.057537,-0.650243,-0.488539,-0.574289,-0.101877,-0.949951,-0.223633,0.142090,0.088035,0.018036,0.018466,0.999993,-0.002443,-0.002871,-0.000509,-0.109657,-0.651179,-0.043704,-0.749687
49714,NaN,8.694662,1.182925,2.162635,0.915767,0.601705,-0.842036,-0.632468,-0.601942,-0.097445,-0.947998,-0.221436,0.141846,0.086887,0.011856,0.021850,0.999990,-0.003162,-0.003010,-0.000487,-0.112215,-0.653057,-0.041322,-0.747808
49715,NaN,8.716675,0.426592,2.789745,1.663798,1.270912,-0.892970,-0.791904,-0.655228,-0.073812,-0.947998,-0.219482,0.150391,0.087076,0.004345,0.028166,0.999987,-0.003960,-0.003276,-0.000369,-0.115169,-0.654919,-0.038271,-0.745890
49716,NaN,9.331022,-0.653168,3.236335,2.224937,2.385272,-0.467736,-0.781300,-0.685975,-0.044516,-0.945801,-0.225830,0.150391,0.093197,-0.006425,0.032708,0.999986,-0.003906,-0.003430,-0.000223,-0.118026,-0.657006,-0.035108,-0.743761
49717,NaN,10.031557,-1.480151,3.712754,2.786904,3.267287,0.095135,-0.602720,-0.677360,-0.054023,-0.943604,-0.223633,0.158936,0.100185,-0.014716,0.037511,0.999990,-0.003014,-0.003387,-0.000270,-0.119537,-0.658983,-0.033283,-0.741852
49718,NaN,12.085729,-1.641646,4.487439,3.440471,3.772659,2.138318,-0.253766,-0.638176,-0.113507,-0.943359,-0.228027,0.163086,0.120704,-0.016428,0.045281,0.999994,-0.001269,-0.003191,-0.000568,-0.120903,-0.661171,-0.032335,-0.739723
49719,NaN,14.457398,-2.373842,3.805510,2.711445,5.078045,4.187109,0.007664,-0.562194,-0.119558,-0.941406,-0.225830,0.167236,0.144452,-0.023826,0.038460,0.999996,0.000038,-0.002811,-0.000598,-0.120991,-0.663053,-0.032629,-0.738009
49720,NaN,16.118001,-3.043804,0.441886,-0.597081,6.474027,5.253173,0.719149,-0.493135,-0.019500,-0.945557,-0.223633,0.173584,0.161166,-0.030470,0.004707,0.999990,0.003596,-0.002466,-0.000098,-0.118762,-0.665294,-0.035050,-0.736241
49721,NaN,16.964363,-3.534747,2.034022,0.993706,6.959435,6.156032,0.959646,-0.416863,0.115315,-0.941406,-0.219482,0.179932,0.169621,-0.035348,0.020524,0.999986,0.004798,-0.002084,0.000577,-0.114477,-0.667221,-0.038292,-0.735013
49722,NaN,15.931937,-3.931809,2.695254,1.803530,7.038884,5.145636,0.654830,-0.242631,0.284207,-0.945801,-0.215088,0.188477,0.159342,-0.039180,0.027017,0.999993,0.003274,-0.001213,0.001421,-0.111297,-0.668533,-0.039612,-0.734240
49723,NaN,15.267042,-3.539781,-0.782895,-1.661202,6.767737,4.246585,1.347230,-0.163963,0.434903,-0.941895,-0.206543,0.190430,0.152753,-0.035012,-0.007940,0.999975,0.006736,-0.000820,0.002174,-0.104358,-0.669766,-0.043289,-0.733927
49724,NaN,21.241246,1.665565,3.739889,1.870675,2.553979,11.586576,2.089877,-0.226581,0.547431,-0.941895,-0.202393,0.196777,0.212324,0.016843,0.037815,0.999941,0.010449,-0.001133,0.002737,-0.095396,-0.671762,-0.049005,-0.732962
49725,NaN,28.880617,8.541417,10.297205,7.332329,-3.067716,21.007809,0.321787,-0.142838,0.441057,-0.946289,-0.196045,0.200928,0.288543,0.085885,0.103316,0.999996,0.001609,-0.000714,0.002205,-0.092529,-0.672412,-0.048202,-0.732787
49726,NaN,26.526372,9.304336,2.978528,0.082275,-3.973535,18.174605,-0.514891,0.828856,0.219634,-0.950684,-0.195801,0.186279,0.265281,0.093409,0.028446,0.999987,-0.002574,0.004144,0.001098,-0.093257,-0.669176,-0.045960,-0.735795
49727,NaN,8.157177,15.801293,-8.101211,-9.879345,-13.468814,0.328034,1.682259,1.198661,0.148278,-0.950928,-0.187256,0.184082,0.080972,0.158750,-0.080165,0.999946,0.008411,0.005993,0.000741,-0.086679,-0.665358,-0.051834,-0.739661
49728,NaN,2.414526,10.526065,-3.538220,-4.278876,-9.743133,-5.824508,2.126452,0.973224,0.062869,-0.951172,-0.176514,0.177490,0.023943,0.105637,-0.034377,0.999932,0.010632,0.004866,0.000314,-0.079117,-0.662646,-0.059908,-0.742329
49729,NaN,2.284048,3.215136,0.246347,-0.124663,-2.704503,-6.934363,-0.128063,0.628567,-0.190047,-0.957275,-0.189453,0.171387,0.022879,0.032131,0.002371,0.999994,-0.000640,0.003143,-0.000950,-0.078195,-0.659939,-0.061810,-0.744678
49730,NaN,2.864905,-0.152043,-6.562730,-6.843935,0.835662,-7.873214,-1.470450,0.392694,-0.092494,-0.955078,-0.191650,0.169189,0.028519,-0.002016,-0.065670,0.999971,-0.007352,0.001963,-0.000462,-0.083271,-0.657849,-0.056792,-0.746375
49731,NaN,7.535068,1.516005,-8.100536,-9.026639,0.257909,-3.244066,-1.105470,0.131700,0.042606,-0.957275,-0.193604,0.162842,0.075294,0.014728,-0.081137,0.999984,-0.005527,0.000658,0.000213,-0.086755,-0.656841,-0.052424,-0.747185
49732,NaN,12.782445,3.697517,-3.916044,-5.668579,-0.928750,2.812781,-0.688971,-0.125330,-0.029094,-0.957275,-0.195801,0.160889,0.127854,0.036822,-0.039207,0.999994,-0.003445,-0.000627,-0.000145,-0.089161,-0.656993,-0.049891,-0.746941
49733,NaN,15.639380,3.282768,-1.434313,-3.497557,-0.026406,5.845854,-0.419471,-0.510387,-0.209878,-0.950684,-0.195801,0.169189,0.156464,0.032634,-0.014012,0.999994,-0.002097,-0.002552,-0.001049,-0.091609,-0.658705,-0.048538,-0.745225
49734,NaN,14.980099,1.437912,0.130034,-1.641232,1.613022,5.059799,0.092796,-0.824108,-0.349952,-0.950684,-0.197998,0.179932,0.149819,0.014116,0.001924,0.999990,0.000464,-0.004121,-0.001750,-0.092809,-0.661721,-0.049658,-0.742324
49735,NaN,12.600635,-1.014132,0.108462,-1.110194,3.571159,2.263291,0.537298,-0.925122,-0.429166,-0.952393,-0.204590,0.192627,0.125977,-0.010416,0.001640,0.999983,0.002686,-0.004626,-0.002146,-0.092588,-0.665347,-0.052753,-0.738890
49736,NaN,10.761387,-2.682777,0.581074,-0.250110,4.838465,0.180730,0.789080,-0.969754,-0.305559,-0.948242,-0.206543,0.200928,0.107543,-0.027016,0.006226,0.999979,0.003945,-0.004849,-0.001528,-0.091348,-0.669196,-0.056234,-0.735303
49737,NaN,10.023323,-1.986435,1.448699,0.726687,3.985372,-0.320593,0.801002,-0.936556,-0.054443,-0.946289,-0.196045,0.213623,0.100159,-0.019951,0.014876,0.999981,0.004005,-0.004683,-0.000272,-0.089524,-0.673105,-0.058345,-0.731786
49738,NaN,9.712189,-1.049658,1.680567,1.006723,2.997841,-0.418447,0.813059,-0.792183,0.180021,-0.939941,-0.191650,0.213623,0.097064,-0.010478,0.017148,0.999983,0.004065,-0.003961,0.000900,-0.086361,-0.676404,-0.060359,-0.728956
49739,NaN,9.324778,-0.722947,2.016369,1.418933,2.563972,-0.704872,0.837111,-0.602952,0.442071,-0.946533,-0.187500,0.226318,0.093202,-0.007109,0.020415,0.999984,0.004186,-0.003015,0.002210,-0.082545,-0.679211,-0.060915,-0.726738
49741,NaN,8.610723,0.921574,2.307748,3.522264,1.480467,7.699437,0.782313,-0.417727,0.739084,-0.942627,-0.170410,0.238770,0.171879,0.019337,0.047022,0.999933,0.007823,-0.004177,0.007391,-0.072111,-0.683293,-0.061231,-0.723990
49742,NaN,8.641464,2.140113,2.301777,1.791828,-0.534057,-0.809527,0.747698,-0.300533,0.781872,-0.947021,-0.163818,0.240967,0.086296,0.021652,0.023228,0.999984,0.003738,-0.001503,0.003909,-0.067290,-0.684974,-0.060362,-0.722938
49743,NaN,8.570251,2.624898,2.362826,1.893370,-1.073125,-0.802391,0.767839,-0.290300,0.681029,-0.938965,-0.153320,0.242920,0.085578,0.026449,0.023854,0.999986,0.003839,-0.001451,0.003405,-0.062287,-0.686473,-0.060706,-0.721935
49744,NaN,8.480775,2.715715,2.802672,2.383145,-1.221016,-0.869363,0.817220,-0.329299,0.566290,-0.945557,-0.144775,0.244873,0.084684,0.027282,0.028278,0.999986,0.004086,-0.001646,0.002831,-0.057921,-0.688134,-0.060935,-0.720696
49745,NaN,8.146190,2.715646,2.909619,2.554958,-1.301529,-1.211584,0.715927,-0.338777,0.491497,-0.949951,-0.142578,0.251221,0.081345,0.027252,0.029331,0.999989,0.003580,-0.001694,0.002457,-0.053792,-0.689700,-0.061725,-0.719451
49746,NaN,8.233848,2.999514,2.885367,2.575030,-1.595018,-1.098128,0.571640,-0.372349,0.409447,-0.943604,-0.134033,0.255371,0.082223,0.030081,0.029093,0.999992,0.002858,-0.001862,0.002047,-0.050743,-0.691325,-0.061734,-0.718111
49747,NaN,8.121983,3.505961,2.901334,2.650078,-2.128645,-1.145402,0.472502,-0.378133,0.296257,-0.945801,-0.131836,0.266113,0.081113,0.035111,0.029250,0.999994,0.002363,-0.001891,0.001481,-0.048164,-0.692886,-0.062309,-0.716734
49748,NaN,7.951268,4.386351,2.671289,2.486546,-3.043480,-1.201496,0.412884,-0.396949,0.180668,-0.943848,-0.131836,0.266113,0.079420,0.043880,0.026961,0.999995,0.002064,-0.001985,0.000903,-0.046440,-0.694440,-0.062636,-0.715313
49749,NaN,7.860244,4.877958,2.719234,2.597198,-3.541521,-1.228742,0.362294,-0.402582,0.043452,-0.945801,-0.129639,0.276611,0.078537,0.048747,0.027439,0.999996,0.001811,-0.002013,0.000217,-0.045155,-0.695971,-0.063687,-0.713813
49750,NaN,8.165128,4.978012,2.699138,2.613894,-3.587512,-0.922670,0.246258,-0.380464,-0.077160,-0.937500,-0.129639,0.270264,0.081619,0.049715,0.027208,0.999997,0.001231,-0.001902,-0.000386,-0.044803,-0.697292,-0.064529,-0.712469
49751,NaN,8.101651,5.537940,2.672887,2.634180,-4.138114,-0.902753,-0.080046,-0.280228,-0.175914,-0.941406,-0.134033,0.274414,0.081028,0.055319,0.026820,0.999999,-0.000400,-0.001401,-0.000880,-0.045801,-0.698210,-0.064793,-0.711482
49752,NaN,8.051620,6.210037,3.025683,3.005890,-4.788461,-0.835876,-0.402550,-0.173988,-0.247186,-0.935059,-0.134033,0.272217,0.080567,0.062062,0.030202,0.999997,-0.002013,-0.000870,-0.001236,-0.048085,-0.698532,-0.064223,-0.711067
49753,NaN,7.992114,6.813482,3.586128,3.550549,-5.374384,-0.775702,-0.735220,-0.036775,-0.329438,-0.935059,-0.140381,0.270264,0.080027,0.068134,0.035626,0.999992,-0.003676,-0.000184,-0.001647,-0.051837,-0.698369,-0.062750,-0.711095
49754,NaN,7.984070,5.983437,3.024281,2.916985,-4.556807,-0.900934,-0.966602,0.183084,-0.429353,-0.934814,-0.146973,0.270264,0.079997,0.059808,0.029881,0.999986,-0.004833,0.000915,-0.002147,-0.056455,-0.697143,-0.061174,-0.712083
49755,NaN,7.867069,3.571314,2.397949,2.210680,-2.187722,-1.403079,-0.986125,0.412178,-0.512557,-0.940918,-0.157471,0.266113,0.078811,0.035628,0.023641,0.999982,-0.004931,0.002061,-0.002563,-0.061593,-0.695223,-0.059564,-0.713669
49756,NaN,7.995503,1.044428,2.255496,2.009942,0.352377,-1.692235,-0.830487,0.624806,-0.531022,-0.936523,-0.164062,0.257812,0.080052,0.010325,0.022262,0.999983,-0.004152,0.003124,-0.002655,-0.065869,-0.692355,-0.059112,-0.716108
49757,NaN,7.273241,-0.800138,2.250861,1.992437,2.068172,-2.716271,-0.623726,0.887533,-0.533498,-0.944824,-0.168213,0.249268,0.072810,-0.008126,0.022211,0.999982,-0.003119,0.004438,-0.002667,-0.069678,-0.688797,-0.059016,-0.719181
49758,NaN,6.078349,-1.976673,1.925890,1.672863,3.043960,-4.111981,-0.265955,1.093954,-0.555146,-0.948975,-0.176758,0.240967,0.060833,-0.019910,0.018953,0.999980,-0.001330,0.005470,-0.002776,-0.071952,-0.684365,-0.060778,-0.723030
49759,NaN,5.093779,-1.857128,1.134765,0.866018,2.781382,-5.101359,0.131488,1.374657,-0.556555,-0.948975,-0.178955,0.226318,0.050962,-0.018720,0.010985,0.999972,0.000657,0.006873,-0.002783,-0.073096,-0.679250,-0.063651,-0.727479
49760,NaN,4.642922,-2.286086,0.503241,0.190853,3.149514,-5.679939,0.538331,1.589910,-0.567078,-0.953125,-0.180908,0.215576,0.046402,-0.023005,0.004602,0.999961,0.002692,0.007949,-0.002835,-0.072527,-0.673225,-0.068447,-0.732682
49761,NaN,4.518771,-2.613146,-0.484123,-0.868758,3.463200,-5.974351,0.813657,1.714369,-0.496555,-0.955078,-0.185303,0.196777,0.045078,-0.026222,-0.005335,0.999952,0.004068,0.008572,-0.002483,-0.071019,-0.667032,-0.073717,-0.737964
49762,NaN,4.743051,-2.377805,-0.378176,-0.891041,3.291987,-5.730849,1.245372,1.575411,-0.504422,-0.961670,-0.183105,0.188232,0.047338,-0.023872,-0.004303,0.999946,0.006227,0.007877,-0.002522,-0.067847,-0.661220,-0.080797,-0.742736
49763,NaN,5.435809,-0.064390,0.547943,-0.127471,1.225907,-4.489841,1.415616,1.395170,-0.546352,-0.965820,-0.185059,0.175537,0.054392,-0.000829,0.005095,0.999947,0.007078,0.006976,-0.002732,-0.064631,-0.656258,-0.088329,-0.746557
49764,NaN,7.351427,1.240003,1.266912,0.277489,0.440803,-2.268552,1.205090,1.256545,-0.624914,-0.963623,-0.191650,0.173584,0.073630,0.012095,0.012280,0.999957,0.006025,0.006283,-0.003125,-0.062044,-0.651427,-0.095562,-0.750108
49765,NaN,7.524824,0.756422,0.615591,-0.490487,0.960962,-2.302075,1.115091,1.214466,-0.550024,-0.965820,-0.191650,0.162842,0.075304,0.007324,0.005740,0.999962,0.005575,0.006072,-0.002750,-0.059894,-0.646925,-0.101908,-0.753337
49766,NaN,8.053309,0.740309,0.293556,-0.977380,1.105206,-1.855762,1.609631,1.092590,-0.408731,-0.968018,-0.189453,0.158691,0.080563,0.007217,0.002554,0.999951,0.008048,0.005463,-0.002044,-0.055249,-0.642842,-0.109905,-0.756057
49767,NaN,9.109989,2.909341,-0.062304,-1.445819,-0.768588,-0.390446,1.542429,1.074475,-0.284981,-0.968018,-0.191406,0.154541,0.091137,0.028970,-0.000889,0.999955,0.007712,0.005372,-0.001425,-0.050777,-0.639014,-0.116942,-0.758556
49768,NaN,9.495661,3.978265,1.211690,-0.253569,-1.547151,0.434451,0.953976,1.125841,-0.263226,-0.972168,-0.191406,0.144043,0.095076,0.039601,0.011771,0.999972,0.004770,0.005629,-0.001316,-0.047582,-0.634607,-0.122016,-0.761657
49769,NaN,9.516022,3.982908,3.446661,1.845968,-1.224145,0.835816,0.803509,1.168270,-0.265286,-0.976562,-0.191406,0.135498,0.095413,0.039565,0.034069,0.999974,0.004018,0.005841,-0.001326,-0.045329,-0.630165,-0.126191,-0.764796
49770,NaN,9.768890,4.512168,3.477391,1.765433,-1.622611,1.238654,0.625878,1.336414,-0.273752,-0.976562,-0.191406,0.120605,0.097981,0.044880,0.034261,0.999972,0.003129,0.006682,-0.001369,-0.043216,-0.624798,-0.129990,-0.768676
49771,NaN,10.188133,5.103923,3.202316,1.341001,-2.093189,1.759762,0.660594,1.469779,-0.245560,-0.978760,-0.191406,0.118652,0.102176,0.050809,0.031441,0.999967,0.003303,0.007349,-0.001228,-0.041140,-0.619106,-0.133607,-0.772764
49772,NaN,10.775546,5.865764,5.069847,2.933092,-2.356456,2.917750,0.441179,1.680724,-0.227126,-0.980713,-0.199951,0.091064,0.108244,0.058424,0.049919,0.999962,0.002206,0.008404,-0.001136,-0.039252,-0.612309,-0.136578,-0.777743
49773,NaN,11.264393,5.973508,4.725227,2.279513,-2.369127,3.381360,-0.014087,1.952913,-0.372852,-0.984863,-0.201904,0.076416,0.113209,0.059528,0.046144,0.999951,-0.000070,0.009764,-0.001864,-0.039411,-0.604421,-0.138040,-0.783625
49774,NaN,11.640777,5.487495,4.321936,1.456271,-1.854568,3.556339,-0.319926,2.306436,-0.543628,-0.984863,-0.206299,0.048828,0.117044,0.054625,0.041784,0.999929,-0.001600,0.011532,-0.002718,-0.040715,-0.594660,-0.139079,-0.790809
49775,NaN,12.473395,4.338254,5.104754,1.493132,-0.386647,4.261142,-0.292551,2.678168,-0.750221,-0.982666,-0.214600,0.025635,0.125564,0.042986,0.049307,0.999902,-0.001463,0.013390,-0.003751,-0.042685,-0.583425,-0.140683,-0.798750
49776,NaN,14.770630,4.818781,5.994825,1.183774,-0.081495,6.797469,-0.436710,3.084963,-1.032019,-0.982666,-0.220947,-0.001709,0.148853,0.047549,0.057554,0.999865,-0.002183,0.015424,-0.005160,-0.045631,-0.569938,-0.142851,-0.807888
49777,NaN,16.319245,3.081016,6.725753,0.584718,2.182823,7.960994,-0.564982,3.405380,-1.281492,-0.984375,-0.238037,-0.039551,0.164499,0.029943,0.064379,0.999831,-0.002825,0.017026,-0.006407,-0.049978,-0.555035,-0.144971,-0.817571
49778,NaN,17.581785,2.804316,5.389099,-1.821382,2.647867,8.508231,-0.575068,3.470108,-1.433783,-0.977783,-0.248535,-0.075439,0.176912,0.026926,0.050749,0.999820,-0.002875,0.017349,-0.007168,-0.054635,-0.539295,-0.147664,-0.827268
49779,NaN,17.747615,2.833734,4.211077,-3.614968,2.595675,8.100944,-0.350460,3.330064,-1.398607,-0.979736,-0.259277,-0.103027,0.178337,0.027162,0.039098,0.999835,-0.001752,0.016649,-0.006993,-0.058897,-0.524297,-0.150869,-0.835992
49780,NaN,16.504775,4.835692,3.095180,-4.544181,0.306664,7.057376,-0.284624,3.132410,-1.276206,-0.968750,-0.274170,-0.132324,0.165809,0.047342,0.028291,0.999856,-0.001423,0.015661,-0.006381,-0.062439,-0.509864,-0.154024,-0.844048
49781,NaN,13.834152,6.912922,2.791413,-3.945442,-2.300356,5.223518,-0.470034,2.787528,-1.192712,-0.960205,-0.284912,-0.159912,0.139120,0.068363,0.025817,0.999882,-0.002350,0.013937,-0.005963,-0.066517,-0.496968,-0.155931,-0.851049
49782,NaN,12.578786,8.115675,2.848460,-3.649907,-3.667605,4.519659,-0.810217,2.386995,-1.131860,-0.958008,-0.293213,-0.183105,0.126570,0.080552,0.026650,0.999905,-0.004051,0.011935,-0.005659,-0.071349,-0.485449,-0.156156,-0.857242
49783,NaN,13.051561,7.080692,2.711160,-4.427458,-2.519561,4.395294,-1.181352,2.056168,-1.016530,-0.959717,-0.303955,-0.204102,0.131140,0.070295,0.025349,0.999917,-0.005907,0.010281,-0.005083,-0.076962,-0.475372,-0.154279,-0.862726
49784,NaN,12.714757,4.699539,2.909048,-4.443944,-0.278818,3.316628,-1.446488,1.673527,-1.009019,-0.948975,-0.312500,-0.223145,0.127619,0.046556,0.027686,0.999926,-0.007232,0.008367,-0.005045,-0.083279,-0.466652,-0.151212,-0.867430
49785,NaN,11.334690,4.499022,3.613035,-3.351074,-0.302225,2.452906,-1.487999,1.235129,-1.037629,-0.938232,-0.316650,-0.238037,0.113798,0.044664,0.035095,0.999940,-0.007440,0.006176,-0.005188,-0.090312,-0.459855,-0.147683,-0.870958
49786,NaN,9.223552,4.555274,3.384948,-2.550203,-0.970086,0.667546,-1.423275,0.890714,-0.988239,-0.936035,-0.321045,-0.254883,0.092608,0.045333,0.033114,0.999953,-0.007116,0.004453,-0.004941,-0.097090,-0.454502,-0.144270,-0.873606
49787,NaN,7.057317,2.786396,2.837208,-1.826880,-0.017428,-1.920859,-1.197815,0.636389,-0.869589,-0.935791,-0.329590,-0.256836,0.070783,0.027725,0.027981,0.999968,-0.005989,0.003182,-0.004348,-0.103148,-0.450490,-0.141317,-0.875471
49788,NaN,5.321355,1.371015,2.436269,-1.149691,0.734659,-3.958610,-0.903116,0.463321,-0.662567,-0.923096,-0.329590,-0.265381,0.053315,0.013643,0.024178,0.999982,-0.004516,0.002317,-0.003313,-0.107629,-0.447466,-0.139206,-0.876819
49789,NaN,4.302869,0.461459,2.628150,-0.377936,1.305475,-4.935427,-0.665306,0.298705,-0.472033,-0.927246,-0.338135,-0.273682,0.043079,0.004600,0.026202,0.999991,-0.003327,0.001494,-0.002360,-0.110978,-0.445457,-0.137504,-0.877693
49790,NaN,4.553342,0.370585,3.053177,-0.183763,1.534062,-4.539641,-0.440200,0.075137,-0.345086,-0.927246,-0.340088,-0.273682,0.045551,0.003694,0.030507,0.999996,-0.002201,0.000376,-0.001725,-0.113338,-0.444608,-0.136459,-0.877985
49791,NaN,5.565274,1.116191,3.485394,-0.475586,1.224561,-3.282727,-0.239024,-0.182545,-0.291742,-0.925049,-0.335938,-0.267578,0.055637,0.011122,0.034891,0.999998,-0.001195,-0.000913,-0.001459,-0.115274,-0.445065,-0.135953,-0.877579
49792,NaN,6.318826,2.222992,3.726324,-0.788424,0.475343,-2.203015,-0.100701,-0.399432,-0.288936,-0.922852,-0.342285,-0.265381,0.063146,0.022157,0.037378,0.999997,-0.000504,-0.001997,-0.001445,-0.116998,-0.446540,-0.135960,-0.876600
49793,NaN,6.718208,2.950784,3.946959,-0.864494,-0.030933,-1.525864,-0.034607,-0.620324,-0.268335,-0.929199,-0.344482,-0.263184,0.067099,0.029425,0.039673,0.999994,-0.000173,-0.003102,-0.001342,-0.118673,-0.449045,-0.136042,-0.875081
49794,NaN,6.694678,3.533346,3.939720,-0.856397,-0.571634,-1.341313,-0.048433,-0.794731,-0.199750,-0.931152,-0.344482,-0.256836,0.066825,0.035276,0.039654,0.999992,-0.000242,-0.003974,-0.000999,-0.120172,-0.452344,-0.135831,-0.873209
49795,NaN,6.553943,3.615617,3.950269,-0.712933,-0.691288,-1.407634,-0.144772,-0.988798,-0.093492,-0.931152,-0.346680,-0.241943,0.065360,0.036154,0.039800,0.999987,-0.000724,-0.004944,-0.000467,-0.121578,-0.456497,-0.134813,-0.871008
49796,NaN,6.244154,2.997276,3.784127,-0.551161,-0.249855,-1.943379,-0.299296,-1.166491,0.036093,-0.931152,-0.342529,-0.233643,0.062214,0.030041,0.038160,0.999982,-0.001496,-0.005832,0.000180,-0.122858,-0.461406,-0.132752,-0.868555
49797,NaN,5.700983,1.978972,3.563326,-0.269745,0.467347,-2.825338,-0.421710,-1.286619,0.166550,-0.935303,-0.344727,-0.225098,0.056763,0.019913,0.035957,0.999977,-0.002109,-0.006433,0.000833,-0.123959,-0.466826,-0.129742,-0.865953
49798,NaN,4.977307,0.894120,3.152968,-0.049256,1.161063,-3.967762,-0.455988,-1.399336,0.281624,-0.941895,-0.340332,-0.216553,0.049538,0.009083,0.031856,0.999972,-0.002280,-0.006997,0.001408,-0.124687,-0.472772,-0.126270,-0.863131
49799,NaN,4.298444,0.063077,2.558661,-0.043930,1.619274,-5.079526,-0.438185,-1.525919,0.370179,-0.946045,-0.338379,-0.197510,0.042786,0.000767,0.025912,0.999967,-0.002191,-0.007630,0.001851,-0.125085,-0.479294,-0.122548,-0.860008
49800,NaN,3.688760,-0.224227,2.002652,-0.111391,1.605752,-5.929832,-0.367690,-1.616699,0.443642,-0.948486,-0.327637,-0.193359,0.036729,-0.002123,0.020328,0.999963,-0.001838,-0.008083,0.002218,-0.125059,-0.486279,-0.118880,-0.856598
49801,NaN,3.104124,0.100944,1.293385,-0.406576,1.023716,-6.633847,-0.335961,-1.652165,0.532926,-0.952637,-0.323242,-0.178711,0.030930,0.001114,0.013188,0.999961,-0.001680,-0.008261,0.002665,-0.124571,-0.493435,-0.115107,-0.853085
49802,NaN,2.900506,0.153164,0.777993,-0.712838,0.848445,-7.017436,-0.308395,-1.643745,0.630831,-0.959229,-0.316895,-0.163818,0.028935,0.001635,0.008015,0.999960,-0.001542,-0.008219,0.003154,-0.123631,-0.500615,-0.111162,-0.849554
49803,NaN,2.818425,-0.340801,0.635003,-0.707093,1.258993,-7.287291,-0.207316,-1.625935,0.721556,-0.967773,-0.312744,-0.144775,0.028143,-0.003300,0.006582,0.999960,-0.001037,-0.008130,0.003608,-0.121984,-0.507767,-0.107465,-0.846017
49804,NaN,3.144349,-0.486616,0.724508,-0.717092,1.483792,-6.996216,0.079301,-1.616209,0.786404,-0.968018,-0.302002,-0.132324,0.031402,-0.004746,0.007497,0.999960,0.000396,-0.008081,0.003932,-0.119397,-0.515084,-0.104737,-0.842296
49805,NaN,3.907273,-0.107257,0.825757,-0.945734,1.339248,-6.169647,0.462744,-1.629433,0.849701,-0.974365,-0.297852,-0.117432,0.039008,-0.000926,0.008573,0.999955,0.002314,-0.008147,0.004248,-0.115476,-0.522636,-0.103519,-0.838332
49806,NaN,4.594515,0.542933,0.965070,-1.100207,0.904107,-5.306338,0.788036,-1.633765,0.889862,-0.976807,-0.289307,-0.092041,0.045840,0.005594,0.010047,0.999949,0.003940,-0.008169,0.004449,-0.110639,-0.530417,-0.103430,-0.834098
49807,NaN,5.151557,1.426494,1.420315,-0.893099,0.214330,-4.358686,0.934954,-1.654973,0.927034,-0.983398,-0.278564,-0.073242,0.051329,0.014435,0.014696,0.999944,0.004675,-0.008275,0.004635,-0.105144,-0.538278,-0.103948,-0.829696
49808,NaN,5.580611,2.298672,2.348435,-0.155248,-0.482675,-3.356393,0.856222,-1.657691,0.964429,-0.983643,-0.270020,-0.060547,0.055497,0.023153,0.024044,0.999945,0.004281,-0.008288,0.004822,-0.099823,-0.546132,-0.103888,-0.825217
49809,NaN,6.021982,2.962169,3.114166,0.477727,-0.996205,-2.497341,0.594036,-1.634806,0.982641,-0.990234,-0.259521,-0.045898,0.059816,0.029823,0.031720,0.999950,0.002970,-0.008174,0.004913,-0.094991,-0.553649,-0.102834,-0.820899
49810,NaN,6.522149,3.710197,3.385971,0.647371,-1.625444,-1.768699,0.227150,-1.535489,0.974953,-0.990234,-0.250977,-0.029053,0.064777,0.037380,0.034401,0.999958,0.001136,-0.007677,0.004875,-0.091250,-0.560583,-0.100218,-0.816931
49811,NaN,6.798340,4.005194,3.265136,0.545861,-1.919947,-1.510015,-0.132601,-1.392227,0.912850,-0.992676,-0.244629,-0.011963,0.067570,0.040383,0.033096,0.999965,-0.000663,-0.006961,0.004564,-0.088589,-0.566640,-0.096478,-0.813489
49812,NaN,6.715299,4.285881,2.778603,0.206420,-2.319227,-1.703309,-0.382751,-1.286939,0.837616,-0.999268,-0.236084,-0.001465,0.066792,0.043193,0.028134,0.999969,-0.001914,-0.006435,0.004188,-0.086945,-0.572121,-0.091913,-0.810352
49813,NaN,7.184814,4.304927,2.895831,0.244904,-2.296486,-1.256705,-0.532683,-1.210658,0.760775,-0.999512,-0.225342,0.004639,0.071507,0.043399,0.029277,0.999971,-0.002663,-0.006053,0.003804,-0.085941,-0.577121,-0.087048,-0.807446
49814,NaN,7.110235,4.522475,3.684411,1.083358,-2.576075,-1.050716,-0.655308,-1.181138,0.673776,-1.001465,-0.223145,0.017334,0.070731,0.045585,0.037114,0.999972,-0.003277,-0.005906,0.003369,-0.085635,-0.581902,-0.081950,-0.804575
49815,NaN,7.446748,5.139203,4.821687,2.102591,-3.152138,-0.286097,-0.768621,-1.132284,0.600841,-0.999512,-0.216797,0.021484,0.074038,0.051801,0.048438,0.999972,-0.003843,-0.005661,0.003004,-0.085917,-0.586350,-0.076621,-0.801836
49816,NaN,8.083795,6.083270,5.781875,2.848187,-4.007782,0.751776,-0.826178,-1.129678,0.539238,-1.003906,-0.212646,0.030029,0.080346,0.061289,0.058021,0.999972,-0.004131,-0.005648,0.002696,-0.086554,-0.590707,-0.071329,-0.799053
49817,NaN,8.372045,6.035279,6.016263,3.056439,-4.001459,1.020415,-0.805128,-1.127762,0.447049,-1.001953,-0.210449,0.042725,0.083245,0.060782,0.060389,0.999974,-0.004026,-0.005639,0.002235,-0.087547,-0.595000,-0.066301,-0.796187
49818,NaN,8.462548,5.432087,5.787371,2.915563,-3.488152,0.861908,-0.803361,-1.115145,0.338785,-1.001953,-0.206299,0.053223,0.084209,0.054697,0.058125,0.999975,-0.004017,-0.005576,0.001694,-0.088808,-0.599141,-0.061815,-0.793299
49819,NaN,8.578793,4.261358,5.520805,2.775947,-2.403845,0.615576,-0.819048,-1.116975,0.245256,-0.999756,-0.206299,0.059570,0.085426,0.042945,0.055510,0.999975,-0.004095,-0.005585,0.001226,-0.090633,-0.603261,-0.057333,-0.790300
49820,NaN,8.798235,2.954033,5.513245,2.885271,-1.152693,0.525425,-0.826326,-1.079845,0.159359,-1.001953,-0.201904,0.070068,0.087660,0.029839,0.055483,0.999977,-0.004132,-0.005399,0.000797,-0.092585,-0.607112,-0.053398,-0.787395
49821,NaN,9.198349,1.759759,5.522661,2.978138,0.024270,0.643653,-0.869066,-1.084399,0.132121,-1.006104,-0.201904,0.078613,0.091671,0.017899,0.055647,0.999976,-0.004345,-0.005422,0.000661,-0.094992,-0.610992,-0.049071,-0.784383
49822,NaN,9.817469,1.159159,5.393778,2.852918,0.671966,1.060543,-1.031234,-1.062534,0.117734,-1.004150,-0.201904,0.084961,0.097880,0.011929,0.054397,0.999972,-0.005156,-0.005313,0.000589,-0.097689,-0.614587,-0.044492,-0.781511
49823,NaN,9.996110,0.674588,4.946958,2.518564,1.122957,1.015253,-1.245870,-0.945304,0.074070,-1.006104,-0.202148,0.093262,0.099723,0.007093,0.049898,0.999969,-0.006229,-0.004726,0.000370,-0.101437,-0.617663,-0.038932,-0.778902
49824,NaN,10.084040,0.191879,4.094058,1.803867,1.595887,0.802599,-1.300953,-0.814676,0.037000,-0.997559,-0.206299,0.097656,0.100672,0.002205,0.041337,0.999971,-0.006505,-0.004073,0.000185,-0.105227,-0.620056,-0.033647,-0.776740
49825,NaN,10.121043,-0.225002,3.431182,1.278408,2.003801,0.608876,-1.095709,-0.708107,0.004364,-0.999268,-0.214844,0.101807,0.101088,-0.002058,0.034681,0.999979,-0.005479,-0.003541,0.000022,-0.108726,-0.622210,-0.029004,-0.774721
49826,NaN,10.160075,-0.568947,3.685739,1.628218,2.285495,0.640086,-0.772714,-0.613268,-0.044647,-0.997559,-0.206299,0.104004,0.101486,-0.005569,0.037190,0.999988,-0.003864,-0.003066,-0.000223,-0.111213,-0.624041,-0.026060,-0.772998
49827,NaN,10.652682,-1.355063,4.449044,2.447484,3.050303,1.133312,-0.358012,-0.549854,-0.084638,-0.999512,-0.210693,0.110352,0.106398,-0.013516,0.044807,0.999995,-0.001790,-0.002749,-0.000423,-0.112730,-0.625945,-0.024634,-0.771283
49828,NaN,11.269579,-1.874032,4.554907,2.563833,3.666077,1.643705,0.136636,-0.503142,-0.074006,-0.997314,-0.210693,0.112549,0.112574,-0.018813,0.045820,0.999997,0.000683,-0.002516,-0.000370,-0.112460,-0.627832,-0.025315,-0.769766
49829,NaN,13.078963,-2.348647,5.095776,2.877905,4.461663,3.391599,0.650567,-0.484456,-0.082350,-0.995117,-0.210693,0.123047,0.130656,-0.023707,0.051197,0.999992,0.003253,-0.002422,-0.000412,-0.110797,-0.630039,-0.027804,-0.768116
49830,NaN,16.186193,-3.276854,7.192009,4.527621,5.851936,6.610175,0.881668,-0.394089,-0.092062,-0.997314,-0.210693,0.129395,0.161705,-0.033161,0.072093,0.999988,0.004408,-0.001970,-0.000460,-0.108296,-0.631892,-0.031373,-0.766812
49831,NaN,18.252748,-5.038763,1.973745,-0.694046,8.505286,7.205712,1.492919,-0.287662,0.001777,-0.999512,-0.204346,0.135742,0.182500,-0.050533,0.019623,0.999971,0.007465,-0.001438,0.000009,-0.103617,-0.633777,-0.036934,-0.765654
49832,NaN,18.947777,-5.389871,2.049530,-0.759698,9.008252,7.809547,2.044891,-0.132613,0.139692,-0.995361,-0.202148,0.144043,0.189502,-0.053973,0.020069,0.999947,0.010224,-0.000663,0.000698,-0.096534,-0.635212,-0.044231,-0.765003
49833,NaN,18.549762,-5.408698,2.760161,-0.079119,8.921796,7.547058,1.772909,-0.027240,0.251520,-0.997559,-0.193604,0.146240,0.185562,-0.054096,0.027147,0.999960,0.008864,-0.000136,0.001258,-0.089946,-0.636194,-0.050198,-0.764622
49834,NaN,19.710796,-2.870023,2.852675,-0.437710,6.654259,9.172028,1.738555,-0.156298,0.386905,-0.993652,-0.185059,0.154541,0.197141,-0.028566,0.028432,0.999960,0.008693,-0.000781,0.001934,-0.083015,-0.637550,-0.055310,-0.763924
49835,NaN,22.927353,2.160099,5.486964,1.361866,2.291013,13.710315,1.830638,-0.346794,0.402963,-0.998047,-0.174316,0.160889,0.229134,0.021557,0.055464,0.999955,0.009153,-0.001734,0.002015,-0.075735,-0.639709,-0.060870,-0.762451
49836,NaN,21.846147,9.915352,4.570239,0.477925,-5.527455,13.971181,1.255258,-0.107742,0.199511,-1.002441,-0.176514,0.162842,0.218338,0.099081,0.046442,0.999980,0.006276,-0.000539,0.000998,-0.071060,-0.640557,-0.064664,-0.761876
49837,NaN,14.568882,14.949520,-7.794612,-10.400978,-12.030722,5.794048,2.036047,0.369341,0.050529,-1.000488,-0.170166,0.162842,0.145509,0.150317,-0.076687,0.999946,0.010180,0.001847,0.000253,-0.064225,-0.639847,-0.072385,-0.762385
49838,NaN,7.813466,13.931378,-9.136333,-10.264212,-12.569817,-1.138761,2.726697,0.823629,0.161064,-1.002686,-0.165771,0.162842,0.077650,0.140608,-0.089773,0.999898,0.013633,0.004118,0.000805,-0.054628,-0.637505,-0.082359,-0.764081
49839,NaN,3.463448,8.173386,-2.550580,-2.945973,-7.518071,-5.328846,0.637374,0.934603,0.169654,-1.007080,-0.159424,0.150146,0.034446,0.081844,-0.025406,0.999984,0.003187,0.004673,0.000848,-0.051564,-0.634160,-0.084505,-0.766839
49840,NaN,3.876318,2.953760,0.361625,-0.345236,-2.157808,-5.441729,-2.256063,0.650935,0.031737,-1.011230,-0.167969,0.137451,0.038769,0.029581,0.003157,0.999931,-0.011280,0.003255,0.000159,-0.058270,-0.631008,-0.075950,-0.769847
49841,NaN,5.843437,1.186757,-2.049899,-3.177626,-0.141131,-4.368564,-3.076441,0.264988,0.037227,-1.006592,-0.176514,0.135498,0.058405,0.011560,-0.020756,0.999881,-0.015382,0.001325,0.000186,-0.067727,-0.629023,-0.064058,-0.771777
49842,NaN,8.530402,1.011558,-2.668790,-4.347136,0.567354,-1.958146,-1.761822,-0.043271,0.105447,-1.013184,-0.169922,0.131104,0.085305,0.009925,-0.026757,0.999961,-0.008809,-0.000216,0.000527,-0.072861,-0.628570,-0.056938,-0.772237
49843,NaN,12.193177,1.394690,-0.950519,-3.406230,0.870145,1.984033,-0.763670,-0.263879,0.181650,-1.010986,-0.174316,0.135498,0.121932,0.014022,-0.009398,0.999991,-0.003818,-0.001319,0.000908,-0.074636,-0.629348,-0.053320,-0.771691
49844,NaN,14.266222,0.677325,-0.946431,-3.727195,1.938406,3.870501,-0.628252,-0.586080,0.146569,-1.006836,-0.172119,0.139648,0.142684,0.006849,-0.009068,0.999991,-0.003141,-0.002930,0.000733,-0.076202,-0.631409,-0.050218,-0.770061
49845,NaN,13.499241,-0.780898,-0.958202,-3.420192,3.224288,2.901974,-0.500365,-0.824505,0.059301,-1.004639,-0.172119,0.145996,0.135033,-0.007792,-0.009006,0.999988,-0.002502,-0.004123,0.000297,-0.077761,-0.634392,-0.047788,-0.767604
49846,NaN,12.199790,-0.995892,1.091037,-1.049676,3.145199,2.020403,0.278508,-0.876751,0.028359,-1.004639,-0.170166,0.152344,0.121950,-0.009957,0.011431,0.999989,0.001393,-0.004384,0.000142,-0.077046,-0.637897,-0.048343,-0.764731
49847,NaN,10.622673,0.354640,1.874624,0.013067,1.510511,0.873695,0.643625,-0.751035,0.108826,-1.013184,-0.167969,0.160889,0.106153,0.003543,0.019156,0.999988,0.003218,-0.003755,0.000544,-0.074759,-0.641027,-0.050165,-0.762220
49848,NaN,9.323860,1.897118,2.616652,0.968322,-0.259477,0.004375,0.681817,-0.737494,0.207485,-1.004883,-0.163818,0.171387,0.093121,0.018978,0.026575,0.999987,0.003409,-0.003687,0.001037,-0.072058,-0.644172,-0.051689,-0.759723
49849,NaN,8.634504,2.873671,3.079031,1.576564,-1.360327,-0.434181,0.393159,-0.803790,0.254416,-1.004883,-0.161621,0.184082,0.086184,0.028785,0.031193,0.999989,0.001966,-0.004019,0.001272,-0.070034,-0.647417,-0.052071,-0.757123
49850,NaN,7.850665,2.285783,3.424676,2.133888,-0.942164,-1.260226,0.036203,-0.759679,0.231602,-1.002686,-0.159424,0.186035,0.078349,0.022942,0.034549,0.999992,0.000181,-0.003798,0.001158,-0.069311,-0.650390,-0.051084,-0.754705
49851,NaN,7.123183,1.714095,3.573296,2.462133,-0.528702,-2.059982,-0.218507,-0.656567,0.158189,-1.002686,-0.161621,0.194580,0.071100,0.017236,0.035948,0.999994,-0.001093,-0.003283,0.000791,-0.069594,-0.652820,-0.049515,-0.752683
49852,NaN,6.732413,1.239660,3.888479,2.885831,-0.155780,-2.489438,-0.265574,-0.501160,0.100907,-1.004883,-0.159424,0.196777,0.067220,0.012482,0.039037,0.999996,-0.001328,-0.002506,0.000505,-0.070252,-0.654642,-0.047939,-0.751140
49853,NaN,6.843507,0.918381,4.556309,3.576101,0.147834,-2.354369,-0.153623,-0.406417,0.076032,-0.998291,-0.163818,0.200928,0.068339,0.009245,0.045695,0.999998,-0.000768,-0.002032,0.000380,-0.070568,-0.656123,-0.046968,-0.749878
49854,NaN,7.115328,1.216739,4.840075,3.837101,-0.119062,-2.015440,0.023763,-0.375827,0.059228,-0.996338,-0.159424,0.202881,0.071059,0.012183,0.048536,0.999998,0.000119,-0.001879,0.000296,-0.070384,-0.657536,-0.046676,-0.748675
49855,NaN,7.314582,2.113326,4.139956,3.108160,-0.957982,-1.779629,0.147179,-0.345059,0.061177,-1.004639,-0.161621,0.205078,0.073068,0.021125,0.041541,0.999998,0.000736,-0.001725,0.000306,-0.069753,-0.658885,-0.046903,-0.747533
49856,NaN,7.380602,2.957934,2.993996,1.957161,-1.756003,-1.733544,0.202105,-0.315472,0.052956,-1.002441,-0.161621,0.209473,0.073751,0.029569,0.030086,0.999998,0.001011,-0.001577,0.000265,-0.068958,-0.660102,-0.047353,-0.746503
49857,NaN,7.715459,3.416145,2.411085,1.351926,-2.139906,-1.410028,0.176596,-0.335518,0.007701,-0.998535,-0.157471,0.213623,0.077113,0.034143,0.024270,0.999998,0.000883,-0.001678,0.000039,-0.068427,-0.661408,-0.047869,-0.745363
49858,NaN,7.486162,3.756616,2.923978,1.905183,-2.517665,-1.521970,0.113084,-0.341017,-0.104390,-0.998291,-0.159668,0.213623,0.074831,0.037511,0.029389,0.999998,0.000565,-0.001705,-0.000522,-0.068487,-0.662637,-0.048549,-0.744221
49859,NaN,7.342207,3.837546,1.938144,0.972381,-2.588930,-1.766387,0.156037,-0.397911,-0.228439,-0.996094,-0.161621,0.213623,0.073427,0.038276,0.019557,0.999997,0.000780,-0.001990,-0.001142,-0.068919,-0.664105,-0.049748,-0.742792
49860,NaN,7.686312,3.817527,2.609700,1.633418,-2.496845,-1.353314,0.149272,-0.277620,-0.362737,-0.998291,-0.163818,0.221924,0.076896,0.038016,0.026232,0.999997,0.000746,-0.001388,-0.001814,-0.069774,-0.665021,-0.051495,-0.741773
49861,NaN,7.377630,3.793481,3.479543,2.538161,-2.507275,-1.554459,-0.165058,0.079514,-0.498619,-1.000000,-0.172363,0.224121,0.073884,0.037779,0.034735,0.999996,-0.000825,0.000398,-0.002493,-0.072153,-0.664529,-0.052566,-0.741911
49862,NaN,6.400981,5.221984,3.765698,2.844635,-4.061579,-2.207852,-0.513064,0.229157,-0.514558,-0.995850,-0.170166,0.215820,0.064187,0.052151,0.037450,0.999993,-0.002565,0.001146,-0.002573,-0.075587,-0.663270,-0.052614,-0.742692
49863,NaN,5.504140,4.176777,3.459843,2.640615,-3.171940,-3.279902,-0.551142,0.250614,-0.534391,-0.999756,-0.183105,0.215820,0.055196,0.041715,0.034414,0.999992,-0.002756,0.001253,-0.002672,-0.079334,-0.661977,-0.052432,-0.743467
49864,NaN,5.730158,1.819759,1.893776,1.136091,-0.751350,-3.658240,-0.574776,0.451886,-0.519794,-0.997559,-0.187500,0.207520,0.057391,0.018103,0.018756,0.999990,-0.002874,0.002259,-0.002599,-0.082858,-0.659814,-0.052447,-0.745003
49865,NaN,5.317944,0.240388,1.326564,0.671820,0.757403,-4.420753,-0.379373,0.599611,-0.422823,-0.999512,-0.193848,0.205322,0.053224,0.002316,0.013102,0.999991,-0.001897,0.002998,-0.002114,-0.085528,-0.657298,-0.052675,-0.746907
49866,NaN,5.473267,-0.581804,3.966247,3.280638,1.527322,-4.074150,-0.131835,0.623957,-0.366502,-1.001465,-0.197998,0.194824,0.054845,-0.005892,0.039495,0.999993,-0.000659,0.003120,-0.001833,-0.086995,-0.654696,-0.053890,-0.748933
49867,NaN,5.831087,-1.213904,3.491621,2.769551,2.255516,-3.904332,0.024402,0.525644,-0.324302,-1.005859,-0.200195,0.186279,0.058383,-0.012238,0.034761,0.999995,0.000122,0.002628,-0.001622,-0.087989,-0.652639,-0.055270,-0.750510
49868,NaN,7.001852,-1.015681,2.206840,1.291226,2.368528,-2.909769,0.515930,0.535918,-0.194673,-1.010010,-0.197998,0.186279,0.070067,-0.010282,0.021854,0.999993,0.002580,0.002680,-0.000973,-0.086741,-0.650661,-0.058267,-0.752145
49869,NaN,8.032770,-0.006719,0.990387,-0.153549,1.646840,-1.889907,1.073175,0.574859,-0.044545,-1.003662,-0.195801,0.186279,0.080356,-0.000137,0.009672,0.999981,0.005366,0.002874,-0.000223,-0.083250,-0.648930,-0.062694,-0.753677
49870,NaN,9.244794,0.906475,0.433428,-0.966382,1.021541,-0.620399,1.402889,0.602641,0.034011,-1.010254,-0.189453,0.186279,0.092459,0.009051,0.004119,0.999971,0.007014,0.003013,0.000170,-0.078196,-0.647104,-0.068313,-0.755298
49871,NaN,9.995108,1.926276,1.432963,-0.165741,0.189195,0.463628,1.174735,0.670695,0.045581,-1.010254,-0.189453,0.177979,0.099994,0.019202,0.014107,0.999977,0.005874,0.003353,0.000228,-0.073993,-0.645022,-0.072860,-0.757076
49872,NaN,10.380438,3.061376,0.595152,-1.121001,-0.846140,0.934729,1.030092,0.728396,0.025265,-1.012695,-0.183105,0.173584,0.103822,0.030597,0.005731,0.999980,0.005150,0.003642,0.000126,-0.070151,-0.642517,-0.077112,-0.759147
49873,NaN,10.490942,3.592404,0.929382,-0.866921,-1.325637,1.201839,1.091940,0.961120,-0.032229,-1.014648,-0.187256,0.169434,0.104959,0.035858,0.008985,0.999974,0.005460,0.004806,-0.000161,-0.066395,-0.639213,-0.081694,-0.761791
49874,NaN,9.870555,2.714513,3.316606,1.500820,-0.470491,0.832561,0.865377,1.271862,-0.109719,-1.014648,-0.189453,0.156738,0.098929,0.026949,0.032654,0.999970,0.004327,0.006359,-0.000549,-0.063392,-0.634471,-0.085919,-0.765536
49875,NaN,10.492840,3.073464,5.647243,3.547043,-0.512620,1.959748,0.772586,1.527370,-0.243520,-1.019043,-0.189453,0.146240,0.105393,0.030390,0.055787,0.999963,0.003863,0.007637,-0.001218,-0.061216,-0.628732,-0.090128,-0.769952
49876,NaN,11.592662,5.812740,6.673706,4.195083,-2.796266,3.872804,0.538885,1.872219,-0.506057,-1.025391,-0.193604,0.116699,0.116692,0.057655,0.065803,0.999949,0.002694,0.009361,-0.002530,-0.060489,-0.621291,-0.094525,-0.775502
49877,NaN,12.006316,7.388672,7.100892,4.320546,-4.073321,4.812581,0.700266,2.181140,-0.790531,-1.029541,-0.195557,0.104004,0.121120,0.073163,0.069949,0.999927,0.003501,0.010905,-0.003953,-0.060345,-0.612617,-0.100347,-0.781658
49878,NaN,12.234561,7.662967,6.489234,3.391053,-4.145407,5.080888,0.678711,2.501839,-1.154183,-1.027344,-0.206299,0.080811,0.123585,0.075702,0.063609,0.999899,0.003393,0.012509,-0.005771,-0.061312,-0.602218,-0.107521,-0.788678
49879,NaN,12.324042,5.558785,6.050312,2.511649,-1.912698,4.658067,0.255748,2.924888,-1.481328,-1.022705,-0.221191,0.053467,0.124515,0.054593,0.058759,0.999865,0.001279,0.014624,-0.007406,-0.064803,-0.589875,-0.113870,-0.796795
49880,NaN,13.560850,5.742895,3.060253,-1.173320,-1.901915,5.060878,-0.639404,3.246658,-1.674939,-1.026367,-0.242432,0.017578,0.136555,0.056381,0.028209,0.999828,-0.003197,0.016232,-0.008374,-0.071246,-0.575463,-0.117589,-0.806188
49881,NaN,12.944528,4.856377,0.323460,-4.088554,-1.310502,3.332294,-1.076948,3.475878,-1.692459,-1.021729,-0.263916,-0.024414,0.129877,0.047474,0.000722,0.999799,-0.005384,0.017378,-0.008462,-0.079109,-0.559947,-0.119330,-0.816064
49882,NaN,10.976942,2.994436,0.756609,-3.447990,0.161093,1.054715,-1.154214,3.485830,-1.614966,-1.021729,-0.274414,-0.058350,0.110114,0.029092,0.005479,0.999799,-0.005771,0.017428,-0.008074,-0.086589,-0.543989,-0.120778,-0.825828
49883,NaN,9.412390,0.859084,0.279625,-3.607629,1.842799,-1.269402,-1.490556,3.369761,-1.503155,-1.015137,-0.287109,-0.096191,0.094214,0.007896,0.001149,0.999802,-0.007452,0.016848,-0.007515,-0.094798,-0.528403,-0.120145,-0.835086
49884,NaN,7.588816,-0.663825,0.842111,-2.538574,2.916523,-3.195698,-1.377728,3.086077,-1.352095,-1.014893,-0.299805,-0.134277,0.075960,-0.007099,0.007297,0.999834,-0.006888,0.015430,-0.006760,-0.101988,-0.513792,-0.119645,-0.843387
49885,NaN,7.229031,0.160426,1.638400,-1.900166,2.167511,-2.982103,-1.146700,2.533674,-1.165260,-1.012451,-0.310547,-0.153076,0.072498,0.001273,0.015458,0.999886,-0.005733,0.012668,-0.005826,-0.108321,-0.501755,-0.119080,-0.849899
49886,NaN,9.091288,0.629580,1.623929,-3.004538,2.345344,-1.377416,-0.911811,1.964082,-0.929565,-1.001709,-0.319092,-0.176270,0.091094,0.005944,0.015318,0.999931,-0.004559,0.009820,-0.004648,-0.113202,-0.492180,-0.118769,-0.854891
49887,NaN,11.593902,1.631506,1.988662,-4.166953,2.265268,1.074773,-0.772562,1.515409,-0.668243,-0.995361,-0.319092,-0.189209,0.116139,0.016002,0.018945,0.999958,-0.003863,0.007577,-0.003341,-0.117056,-0.484835,-0.117963,-0.858672
49888,NaN,12.878562,3.243539,1.880703,-5.222943,1.183757,2.484932,-0.794116,1.224074,-0.467276,-0.995361,-0.323242,-0.203857,0.128972,0.032206,0.017890,0.999971,-0.003971,0.006120,-0.002336,-0.120133,-0.478714,-0.116521,-0.861872
49889,NaN,13.001614,3.155515,1.946858,-5.381606,1.349865,2.516277,-0.545486,1.083597,-0.407713,-0.989014,-0.327393,-0.218750,0.130183,0.031342,0.018678,0.999980,-0.002727,0.005418,-0.002039,-0.122563,-0.473457,-0.115794,-0.864528
49890,NaN,13.385900,3.102993,2.022838,-5.651289,1.572042,2.776694,-0.099288,0.994521,-0.408564,-0.988525,-0.338135,-0.224854,0.134020,0.030766,0.019547,0.999985,-0.000496,0.004973,-0.002043,-0.123906,-0.468789,-0.117023,-0.866712
49891,NaN,13.433113,3.014458,2.009124,-5.790243,1.719657,2.720737,0.280800,0.833401,-0.367105,-0.986572,-0.333984,-0.235596,0.134468,0.029870,0.019573,0.999989,0.001404,0.004167,-0.001836,-0.124350,-0.465118,-0.119614,-0.868271
49892,NaN,12.320110,2.316603,2.971032,-4.395296,2.154881,2.104356,0.457378,0.630316,-0.362580,-0.982178,-0.344482,-0.231201,0.123336,0.022875,0.029374,0.999991,0.002287,0.003152,-0.001813,-0.124455,-0.462430,-0.122875,-0.869236
49893,NaN,10.379461,1.202158,3.687145,-2.678574,2.688676,0.597371,0.501918,0.327928,-0.385323,-0.984131,-0.346680,-0.231201,0.103878,0.011729,0.036731,0.999994,0.002510,0.001640,-0.001927,-0.124768,-0.461064,-0.126149,-0.869447
49894,NaN,8.233473,1.723331,4.248249,-1.104288,1.597175,-0.591141,0.425597,-0.033236,-0.383464,-0.986084,-0.355225,-0.229004,0.082360,0.016985,0.042532,0.999996,0.002128,-0.000166,-0.001917,-0.125494,-0.461250,-0.128858,-0.868847
49895,NaN,6.494996,2.824933,4.077800,-0.393191,-0.000617,-1.649418,0.145417,-0.335629,-0.290866,-0.990234,-0.355225,-0.226807,0.064922,0.028125,0.040907,0.999997,0.000727,-0.001678,-0.001454,-0.126639,-0.462598,-0.129949,-0.867801
49896,NaN,4.765676,3.380864,3.212977,-0.210451,-1.191475,-3.255160,-0.173847,-0.590742,-0.099069,-0.988281,-0.353271,-0.226807,0.047578,0.033813,0.032241,0.999995,-0.000869,-0.002954,-0.000495,-0.127886,-0.465012,-0.129032,-0.866464
49897,NaN,3.827495,3.542769,2.510684,-0.287950,-1.748749,-4.302394,-0.440331,-0.854074,0.092382,-0.992432,-0.348877,-0.214355,0.038151,0.035501,0.025192,0.999988,-0.002202,-0.004270,0.000462,-0.129060,-0.468472,-0.126361,-0.864818
49898,NaN,3.550644,3.505792,1.954789,-0.580302,-1.887956,-4.830962,-0.682209,-1.095164,0.251044,-0.988281,-0.346924,-0.208008,0.035355,0.035169,0.019622,0.999978,-0.003411,-0.005476,0.001255,-0.130278,-0.472939,-0.122117,-0.862811
49899,NaN,2.858943,2.755974,1.608802,-0.406459,-1.482221,-5.813331,-0.771963,-1.299765,0.388372,-0.999023,-0.340332,-0.193115,0.028431,0.027677,0.016166,0.999970,-0.003860,-0.006499,0.001942,-0.131219,-0.478254,-0.117017,-0.860443
49900,NaN,1.996877,1.926463,1.312198,-0.099343,-1.046375,-6.928984,-0.642498,-1.522898,0.510552,-1.003418,-0.333984,-0.180420,0.019819,0.019358,0.013211,0.999963,-0.003212,-0.007614,0.002553,-0.131448,-0.484686,-0.112055,-0.857464
49901,NaN,1.107364,1.750386,0.977644,0.099951,-1.222060,-7.878163,-0.396853,-1.778462,0.616143,-1.001221,-0.332031,-0.165771,0.010932,0.017557,0.009839,0.999954,-0.001984,-0.008892,0.003081,-0.130760,-0.492360,-0.107686,-0.853749
49902,NaN,0.769761,1.989798,0.652105,-0.024627,-1.593210,-8.251258,-0.112412,-2.040542,0.719631,-1.012207,-0.321289,-0.146729,0.007559,0.019929,0.006587,0.999941,-0.000562,-0.010203,0.003598,-0.129049,-0.501373,-0.104136,-0.849192
49903,NaN,0.829886,1.867933,0.352794,-0.275370,-1.486136,-8.392183,0.129108,-2.218584,0.816458,-1.016357,-0.314941,-0.121338,0.008183,0.018711,0.003631,0.999930,0.000646,-0.011093,0.004082,-0.126407,-0.511254,-0.101198,-0.844038
49904,NaN,0.908240,1.482721,0.076401,-0.483967,-1.119985,-8.571511,0.415552,-2.338046,0.973489,-1.025146,-0.302246,-0.098145,0.009000,0.014869,0.000900,0.999918,0.002078,-0.011690,0.004867,-0.122390,-0.521848,-0.099039,-0.838383
49905,NaN,0.864534,1.307816,0.067652,-0.423022,-0.980006,-8.662510,0.785013,-2.422339,1.146662,-1.033691,-0.297852,-0.070801,0.008561,0.013124,0.000832,0.999903,0.003925,-0.012111,0.005733,-0.116725,-0.532987,-0.097846,-0.832302
49906,NaN,1.815310,0.609388,0.961123,0.113836,-0.012750,-7.673287,0.900458,-2.434649,1.308373,-1.036133,-0.282959,-0.045410,0.017994,0.006168,0.009859,0.999894,0.004502,-0.012173,0.006542,-0.110037,-0.544243,-0.096750,-0.826033
49907,NaN,2.548038,-0.287061,1.208889,0.189566,1.039906,-7.182372,0.854773,-2.466559,1.419767,-1.042969,-0.263916,-0.011719,0.025349,-0.002743,0.012390,0.999890,0.004274,-0.012332,0.007099,-0.103030,-0.555515,-0.095048,-0.819606
49908,NaN,4.667245,-0.681721,1.563748,-0.133758,1.971291,-5.253308,0.499098,-2.481927,1.420209,-1.047363,-0.255371,0.011475,0.046521,-0.006526,0.016199,0.999895,0.002495,-0.012409,0.007101,-0.096977,-0.566574,-0.091927,-0.813104
49909,NaN,6.438569,0.312578,1.709242,-0.518392,1.406471,-3.314632,0.021898,-2.364707,1.388585,-1.047607,-0.240479,0.036621,0.064154,0.003570,0.017852,0.999906,0.000109,-0.011823,0.006943,-0.092350,-0.576772,-0.086926,-0.807000
49910,NaN,8.245797,3.260278,1.732119,-1.052058,-1.105069,-0.908137,-0.595589,-2.159988,1.304937,-1.054443,-0.227539,0.051514,0.082050,0.033192,0.018111,0.999916,-0.002978,-0.010800,0.006525,-0.089734,-0.585752,-0.079794,-0.801546
49911,NaN,10.669780,4.803084,1.583060,-1.839873,-2.170908,1.646740,-1.154281,-1.716801,1.109355,-1.054443,-0.221191,0.068359,0.106289,0.048715,0.016464,0.999931,-0.005771,-0.008584,0.005547,-0.089350,-0.592505,-0.071143,-0.797429
49912,NaN,11.973245,4.730829,2.746175,-0.961140,-1.944028,3.170949,-1.399646,-1.448985,0.800944,-1.050537,-0.210449,0.080811,0.119340,0.047981,0.027993,0.999941,-0.006998,-0.007245,0.004005,-0.090811,-0.597934,-0.062595,-0.793921
49913,NaN,12.490438,5.577217,5.615622,1.716756,-2.842623,4.596336,-1.466213,-1.512799,0.525263,-1.054688,-0.214844,0.089355,0.124329,0.056513,0.056686,0.999941,-0.007331,-0.007564,0.002626,-0.093580,-0.603391,-0.054514,-0.790057
49914,NaN,11.608510,5.907539,8.550743,4.871366,-3.615683,4.538716,-1.461126,-1.697303,0.348431,-1.054688,-0.212891,0.110596,0.115252,0.059904,0.086052,0.999936,-0.007305,-0.008486,0.001742,-0.097051,-0.609489,-0.046985,-0.785428
49915,NaN,10.737605,5.847211,9.586979,6.235366,-3.975215,3.851417,-1.097975,-1.892011,0.266552,-1.050293,-0.212891,0.123291,0.106386,0.059143,0.096556,0.999939,-0.005490,-0.009460,0.001333,-0.099792,-0.616401,-0.040940,-0.780010
49916,NaN,10.282711,5.107602,7.906035,4.967453,-3.386129,2.764292,-0.517707,-1.980598,0.208938,-1.050293,-0.210693,0.148682,0.101985,0.051389,0.079940,0.999947,-0.002588,-0.009903,0.001045,-0.100909,-0.623859,-0.037451,-0.774090
49917,NaN,8.840144,3.864095,5.397965,3.145459,-2.370216,0.516985,-0.031475,-1.943170,0.122832,-1.050293,-0.206543,0.165527,0.087848,0.038704,0.054829,0.999953,-0.000157,-0.009716,0.000614,-0.100894,-0.631346,-0.035963,-0.768068
49918,NaN,8.804529,1.374681,3.056958,1.305109,0.194992,-0.484709,0.227739,-1.613406,0.032582,-1.049805,-0.215088,0.186768,0.087793,0.013726,0.031294,0.999967,0.001139,-0.008067,0.000163,-0.100244,-0.637597,-0.036136,-0.762965
49919,NaN,9.640451,-1.451320,1.401667,-0.026210,3.235300,-0.509973,0.203143,-1.114895,-0.085571,-1.041504,-0.208740,0.190918,0.096318,-0.014569,0.014539,0.999984,0.001016,-0.005574,-0.000428,-0.100126,-0.641916,-0.036624,-0.759327
49920,NaN,12.040117,-3.052137,2.363023,0.803103,5.219292,1.675448,-0.198845,-0.578146,-0.287417,-1.045654,-0.213135,0.199219,0.120288,-0.030671,0.024009,0.999994,-0.000994,-0.002891,-0.001437,-0.101880,-0.643909,-0.036691,-0.757401
49921,NaN,16.407875,-2.107036,6.226725,3.911991,4.911926,6.709993,-0.891843,-0.174683,-0.613104,-1.045410,-0.225830,0.195312,0.163959,-0.021295,0.062505,0.999985,-0.004459,-0.000873,-0.003066,-0.107107,-0.643983,-0.035198,-0.756687
49922,NaN,19.553109,-0.382921,1.422081,-1.430536,4.382321,9.246167,-1.575452,-0.051541,-0.884132,-1.038574,-0.238770,0.193115,0.195508,-0.004581,0.014305,0.999959,-0.007877,-0.000258,-0.004421,-0.115469,-0.643100,-0.032175,-0.756343
49923,NaN,21.540281,-1.362300,-2.008597,-4.875139,6.246949,10.363532,0.081568,-0.484920,-0.721075,-1.036133,-0.245117,0.197510,0.215400,-0.014392,-0.019569,0.999990,0.000408,-0.002425,-0.003605,-0.118014,-0.644848,-0.034522,-0.754355
49924,NaN,21.366554,-5.165480,5.119140,2.703001,9.326068,10.562138,0.682590,0.004085,-0.554490,-1.038330,-0.249512,0.199463,0.213522,-0.052421,0.051009,0.999990,0.003413,0.000020,-0.002772,-0.117887,-0.645107,-0.038920,-0.753940
49925,NaN,16.202957,-6.298991,7.018143,5.381158,9.189139,5.616791,0.255520,0.545348,-0.394902,-1.040283,-0.255859,0.191162,0.162095,-0.063399,0.069659,0.999994,0.001278,0.002727,-0.001975,-0.118448,-0.643110,-0.041479,-0.755420
49926,NaN,16.190578,-4.797624,11.998754,9.950847,7.325249,6.813805,-0.491695,1.045049,-0.055097,-1.042480,-0.253662,0.180664,0.162517,-0.047727,0.119257,0.999983,-0.002458,0.005225,-0.000275,-0.120034,-0.638812,-0.040333,-0.758870
49927,NaN,18.368431,0.554198,2.697141,-0.405689,3.508762,8.421884,0.484379,1.373367,0.234674,-1.046631,-0.253662,0.170166,0.183857,0.005694,0.025723,0.999973,0.002422,0.006867,0.001173,-0.117320,-0.633911,-0.042245,-0.763288
49928,NaN,16.928011,8.596381,-3.367285,-7.291219,-4.166917,7.544330,1.829837,1.651411,0.289111,-1.049072,-0.245117,0.153076,0.168874,0.086520,-0.034278,0.999923,0.009149,0.008257,0.001446,-0.110084,-0.628638,-0.049137,-0.768298
49929,NaN,11.278988,10.509692,-4.935341,-8.071386,-7.334239,2.149196,1.349989,1.931368,0.059211,-1.059814,-0.245117,0.140381,0.112280,0.105465,-0.049728,0.999931,0.006750,0.009657,0.000296,-0.105135,-0.621921,-0.055196,-0.774024
49930,NaN,7.365578,6.531380,-4.886459,-6.926206,-4.439102,-2.525132,0.478811,1.905948,-0.041408,-1.064209,-0.240723,0.125732,0.073200,0.065416,-0.049407,0.999952,0.002394,0.009530,-0.000207,-0.103302,-0.614735,-0.058095,-0.779778
49931,NaN,4.406079,1.489476,-3.038072,-4.089643,-0.306468,-6.065369,-0.279476,1.310086,-0.233952,-1.062012,-0.247070,0.113037,0.043878,0.014801,-0.030689,0.999977,-0.001397,0.006550,-0.001170,-0.104693,-0.609390,-0.058400,-0.783756
49932,NaN,4.067048,1.170827,-1.959739,-2.978421,-0.101221,-6.225087,-0.514174,0.819485,-0.212420,-1.066162,-0.251465,0.104492,0.040602,0.011614,-0.019794,0.999988,-0.002571,0.004097,-0.001062,-0.106887,-0.605849,-0.057397,-0.786275
49933,NaN,6.853632,2.438486,-0.295727,-2.208180,-0.716729,-2.912248,-0.376773,0.382810,-0.237869,-1.064209,-0.249268,0.104492,0.068559,0.024298,-0.003134,0.999996,-0.001884,0.001914,-0.001189,-0.108856,-0.604060,-0.056841,-0.787420
49934,NaN,11.197023,5.133522,-0.898561,-4.160193,-2.234385,1.599323,-0.137801,0.064297,-0.286963,-1.063721,-0.260010,0.102539,0.112041,0.051168,-0.009057,0.999999,-0.000689,0.000321,-0.001435,-0.110425,-0.603674,-0.057137,-0.787477
49935,NaN,14.520332,5.358803,0.409120,-3.736482,-1.661105,5.120609,0.107663,-0.166656,-0.303041,-1.065674,-0.264160,0.106689,0.145281,0.053366,0.004241,0.999998,0.000538,-0.000833,-0.001515,-0.111344,-0.604290,-0.058383,-0.786783
49936,NaN,14.982383,5.202514,2.558311,-1.704523,-1.441489,6.096394,0.206558,-0.464794,-0.309516,-1.059326,-0.264160,0.113037,0.149844,0.051767,0.025985,0.999996,0.001033,-0.002324,-0.001548,-0.112118,-0.606184,-0.059826,-0.785106
49937,NaN,13.494079,5.748581,2.359477,-1.502686,-2.281282,4.790051,0.403104,-0.602704,-0.354341,-1.054932,-0.272949,0.121582,0.134970,0.057198,0.024117,0.999992,0.002016,-0.003014,-0.001772,-0.112469,-0.608654,-0.062144,-0.782962
49938,NaN,11.264447,5.710169,1.471704,-1.730935,-2.717276,2.486857,0.625036,-0.607265,-0.406917,-1.054932,-0.268555,0.127930,0.112715,0.056825,0.015237,0.999988,0.003125,-0.003036,-0.002035,-0.112388,-0.611299,-0.065461,-0.780639
49939,NaN,9.267879,4.468758,2.027867,-0.523735,-1.995970,0.469168,0.539957,-0.694093,-0.456662,-1.050293,-0.277100,0.136475,0.092709,0.044420,0.020721,0.999988,0.002700,-0.003470,-0.002283,-0.112748,-0.614144,-0.068574,-0.778083
49940,NaN,7.993392,2.810961,3.105913,1.035775,-0.717346,-0.876548,0.206237,-0.745650,-0.459637,-1.045898,-0.283691,0.149170,0.079882,0.027894,0.031386,0.999990,0.001031,-0.003728,-0.002298,-0.114189,-0.617048,-0.070368,-0.775410
49941,NaN,7.281167,1.521268,3.483508,1.735938,0.353779,-1.792371,-0.015173,-0.766319,-0.378691,-1.045654,-0.290039,0.149170,0.072706,0.015078,0.035113,0.999991,-0.000076,-0.003832,-0.001893,-0.115975,-0.619861,-0.071040,-0.772836
49942,NaN,7.320943,1.181570,4.055365,2.378221,0.685607,-1.731106,-0.076266,-0.771802,-0.288418,-1.045654,-0.292236,0.157715,0.073069,0.011726,0.040831,0.999991,-0.000381,-0.003859,-0.001442,-0.117624,-0.622733,-0.071199,-0.770259
49943,NaN,7.396957,1.327858,4.685647,3.024363,0.546043,-1.506773,-0.025610,-0.707899,-0.159343,-1.045654,-0.290039,0.168213,0.073814,0.013226,0.047116,0.999993,-0.000128,-0.003539,-0.000797,-0.118572,-0.625373,-0.071180,-0.767973
49944,NaN,7.074029,1.692105,4.075714,2.510689,0.129336,-1.863095,0.028326,-0.660103,-0.037433,-1.039307,-0.290039,0.174561,0.070608,0.016902,0.040993,0.999995,0.000142,-0.003301,-0.000187,-0.118879,-0.627933,-0.071020,-0.765848
49945,NaN,7.227100,2.379222,4.033291,2.425964,-0.495828,-1.564793,0.018043,-0.588607,0.033122,-1.045410,-0.296631,0.180908,0.072148,0.023801,0.040548,0.999996,0.000090,-0.002943,0.000166,-0.118907,-0.630196,-0.070636,-0.764018
49946,NaN,7.367717,2.119138,3.737724,2.173847,-0.204517,-1.567868,0.053730,-0.364349,0.080293,-1.039062,-0.294434,0.183105,0.073600,0.021211,0.037517,0.999998,0.000269,-0.001822,0.000401,-0.118568,-0.631658,-0.070386,-0.762886
49947,NaN,7.180215,1.171478,3.156486,1.741790,0.672917,-2.105250,0.047280,-0.086770,0.109356,-1.041016,-0.296631,0.185059,0.071782,0.011747,0.031599,1.000000,0.000236,-0.000434,0.000547,-0.118035,-0.632045,-0.070170,-0.762668
49948,NaN,6.360307,0.121269,3.419244,2.237968,1.445348,-3.099872,-0.065891,0.070276,0.083495,-1.045410,-0.294434,0.183105,0.063615,0.001251,0.034170,1.000000,-0.000329,0.000351,0.000417,-0.117903,-0.631767,-0.069712,-0.762961
49949,NaN,5.999968,-0.042008,4.581571,3.449767,1.454404,-3.257080,0.074942,0.077323,0.035952,-1.041260,-0.294434,0.185059,0.060017,-0.000426,0.045792,1.000000,0.000375,0.000387,0.000180,-0.117505,-0.631518,-0.069930,-0.763208
49950,NaN,5.545596,-0.026283,5.133860,4.065471,1.309464,-3.578264,0.540477,0.065746,0.012416,-1.041260,-0.294434,0.180908,0.055473,-0.000398,0.051319,0.999996,0.002702,0.000329,0.000062,-0.115728,-0.631573,-0.071996,-0.763243
49951,NaN,6.416298,0.125854,3.584600,2.373041,1.480086,-3.014745,0.805570,0.221884,0.028001,-1.045410,-0.294434,0.180908,0.064203,0.001123,0.035779,0.999991,0.004028,0.001109,0.000140,-0.112999,-0.631186,-0.075110,-0.763671
49952,NaN,6.737523,0.186785,2.660661,1.385018,1.559059,-2.873006,1.037412,0.420110,0.103673,-1.045654,-0.288086,0.183105,0.067430,0.001765,0.026474,0.999984,0.005187,0.002101,0.000518,-0.109165,-0.630167,-0.078976,-0.764680
49953,NaN,7.095526,1.064523,2.061583,0.645497,0.836649,-2.422620,1.128222,0.559529,0.186205,-1.056396,-0.285889,0.183105,0.071003,0.010596,0.020477,0.999980,0.005641,0.002798,0.000931,-0.104678,-0.628694,-0.083007,-0.766092
49954,NaN,7.696840,1.672838,2.135040,0.541376,0.418754,-1.680676,1.024949,0.585467,0.213164,-1.052002,-0.285889,0.185059,0.077013,0.016702,0.021211,0.999982,0.005125,0.002927,0.001066,-0.100391,-0.627030,-0.086551,-0.767635
49955,NaN,8.352482,2.147024,1.807764,0.043405,0.135659,-1.002391,1.010080,0.590364,0.217317,-1.054443,-0.275146,0.174561,0.083555,0.021470,0.017939,0.999982,0.005050,0.002952,0.001087,-0.096135,-0.625344,-0.090042,-0.769152
49956,NaN,8.758046,2.172007,1.974888,0.093244,0.222789,-0.578905,1.117450,0.657040,0.216543,-1.054443,-0.279541,0.174561,0.087621,0.021705,0.019582,0.999978,0.005587,0.003285,0.001083,-0.091508,-0.623403,-0.093957,-0.770823
49957,NaN,9.072064,2.101382,1.942782,-0.041734,0.377184,-0.307512,1.286890,0.797170,0.200334,-1.056885,-0.270752,0.176514,0.090776,0.020981,0.019201,0.999971,0.006434,0.003986,0.001002,-0.086350,-0.620985,-0.098654,-0.772780
49958,NaN,9.188526,2.575568,2.943191,0.848677,0.009775,0.137397,1.086137,0.969212,0.117801,-1.061035,-0.275146,0.163818,0.092012,0.025651,0.029126,0.999973,0.005431,0.004846,0.000589,-0.082040,-0.617715,-0.102880,-0.775315
49959,NaN,9.150056,3.740092,4.535391,2.332878,-0.991882,0.763441,0.915978,1.201577,-0.066213,-1.063232,-0.275146,0.151123,0.091784,0.037164,0.044974,0.999971,0.004580,0.006008,-0.000331,-0.078849,-0.613370,-0.107125,-0.778514
49960,NaN,9.388220,4.925695,5.215801,2.843424,-1.953584,1.487846,0.920747,1.540801,-0.322599,-1.065186,-0.275146,0.146973,0.094360,0.048866,0.051658,0.999958,0.004604,0.007704,-0.001613,-0.076446,-0.607492,-0.112289,-0.782624
49961,NaN,9.535525,5.456490,4.548796,2.027050,-2.380875,1.659456,0.860262,1.918493,-0.589815,-1.062988,-0.285645,0.123779,0.095947,0.054089,0.044803,0.999940,0.004301,0.009592,-0.002949,-0.075061,-0.599936,-0.118173,-0.787705
49962,NaN,10.074011,5.041116,3.921088,1.071089,-1.788230,1.931373,0.698420,2.287891,-0.793528,-1.069092,-0.298584,0.104980,0.101380,0.049875,0.038228,0.999921,0.003492,0.011439,-0.003968,-0.074714,-0.590607,-0.124169,-0.793841
49963,NaN,11.623776,4.919933,4.679786,1.070670,-1.049273,3.564941,0.496231,2.566255,-0.949173,-1.071045,-0.304932,0.079590,0.117058,0.048531,0.045420,0.999903,0.002481,0.012831,-0.004746,-0.075417,-0.579949,-0.129887,-0.800688
49964,NaN,12.961843,4.548597,4.943414,0.525247,-0.156849,4.775688,0.118761,2.799419,-1.066181,-1.066650,-0.319824,0.045898,0.130534,0.044763,0.047638,0.999888,0.000594,0.013997,-0.005331,-0.077488,-0.567955,-0.134527,-0.808285
49965,NaN,13.381974,3.275293,4.241289,-0.735541,1.213182,4.531754,-0.227924,2.981015,-1.084167,-1.066406,-0.328125,0.020508,0.134607,0.032071,0.040374,0.999874,-0.001140,0.014904,-0.005421,-0.080504,-0.555008,-0.137821,-0.816389
49966,NaN,13.779563,2.862160,3.308989,-2.201253,1.701417,4.373918,-0.434901,2.979565,-1.026492,-1.063965,-0.345215,-0.019531,0.138412,0.027981,0.030970,0.999873,-0.002174,0.014897,-0.005132,-0.083813,-0.541820,-0.140100,-0.824487
49967,NaN,14.186383,3.387291,2.499334,-3.541971,1.295722,4.495751,-0.706432,2.923776,-0.919602,-1.059570,-0.353760,-0.046875,0.142362,0.033302,0.022796,0.999876,-0.003532,0.014618,-0.004598,-0.087461,-0.528749,-0.140886,-0.832422
49968,NaN,14.194713,4.012099,1.507559,-4.878306,0.629384,4.174743,-1.117323,2.784705,-0.796523,-1.059570,-0.360107,-0.080811,0.142295,0.039631,0.012874,0.999880,-0.005586,0.013923,-0.003982,-0.091747,-0.515994,-0.139543,-0.840155
49969,NaN,13.928684,5.020245,1.271747,-5.396157,-0.390849,4.027157,-1.428878,2.528278,-0.702284,-1.051025,-0.366455,-0.112305,0.139605,0.049793,0.010597,0.999888,-0.007144,0.012641,-0.003511,-0.096610,-0.504158,-0.136496,-0.847266
49970,NaN,12.364011,6.037211,1.339256,-5.006530,-1.781495,2.948927,-1.702853,2.207660,-0.651316,-1.048828,-0.374756,-0.144043,0.123970,0.060072,0.011513,0.999898,-0.008514,0.011038,-0.003256,-0.102147,-0.493468,-0.131969,-0.853604
49971,NaN,10.612209,5.317847,1.053652,-4.681444,-1.652559,1.020320,-1.902686,1.867491,-0.508124,-1.046875,-0.370605,-0.167480,0.106346,0.052999,0.009039,0.999908,-0.009513,0.009337,-0.002541,-0.107770,-0.484133,-0.126044,-0.859136
49972,NaN,10.053715,2.781636,1.817879,-3.810013,0.659473,0.044555,-1.598607,1.427454,-0.292954,-1.042480,-0.381104,-0.186279,0.100703,0.027809,0.017238,0.999942,-0.007993,0.007137,-0.001465,-0.111999,-0.476935,-0.120651,-0.863384
49973,NaN,9.579022,0.641260,3.363506,-2.229091,2.679520,-0.255902,-1.057211,1.110784,-0.136725,-1.040283,-0.383301,-0.196777,0.095979,0.006523,0.033068,0.999970,-0.005286,0.005554,-0.000684,-0.114439,-0.471439,-0.117032,-0.866575
49974,NaN,7.830995,0.688822,4.627576,-0.339997,2.195794,-0.965329,-0.660100,0.822411,-0.078049,-1.040283,-0.378906,-0.207520,0.078502,0.007010,0.045930,0.999986,-0.003300,0.004112,-0.000390,-0.115871,-0.467475,-0.114809,-0.868826
49975,NaN,6.035322,1.185936,4.448760,0.361051,1.135545,-2.315823,-0.592019,0.536473,-0.011304,-1.034180,-0.378906,-0.218018,0.060473,0.011987,0.044290,0.999992,-0.002960,0.002682,-0.000057,-0.116997,-0.464779,-0.112574,-0.870413
49976,NaN,4.856359,1.174393,3.610847,0.263059,0.687808,-3.692291,-0.553318,0.299202,0.120590,-1.033936,-0.381104,-0.220215,0.048610,0.011873,0.036003,0.999995,-0.002767,0.001496,0.000603,-0.117616,-0.463251,-0.110030,-0.871469
49977,NaN,4.036434,0.537805,2.723894,0.019620,0.945038,-5.005597,-0.379359,0.038670,0.233571,-1.038574,-0.374512,-0.224365,0.040363,0.005477,0.027221,0.999998,-0.001897,0.000193,0.001168,-0.117457,-0.462974,-0.107858,-0.871909
49978,NaN,3.768854,-0.275454,2.398294,-0.016949,1.593829,-5.630421,-0.032149,-0.297326,0.287468,-1.038574,-0.368164,-0.216064,0.037657,-0.002697,0.024039,0.999998,-0.000161,-0.001487,0.001437,-0.116467,-0.464437,-0.106840,-0.871389
49979,NaN,3.856278,-0.441601,2.468204,0.030236,1.774840,-5.569235,0.366365,-0.634948,0.312905,-1.036377,-0.368164,-0.207520,0.038491,-0.004401,0.024796,0.999992,0.001832,-0.003175,0.001565,-0.114593,-0.467568,-0.107339,-0.869900
49980,NaN,3.814861,0.070361,2.610000,0.156662,1.283938,-5.374556,0.687734,-0.952629,0.349730,-1.042725,-0.372559,-0.201172,0.038023,0.000680,0.026284,0.999981,0.003439,-0.004763,0.001749,-0.112006,-0.472318,-0.108912,-0.867472
49981,NaN,3.937051,1.972575,2.945057,0.263134,-0.461359,-4.541809,0.837537,-1.249630,0.422321,-1.044922,-0.366211,-0.177979,0.039144,0.019684,0.029778,0.999969,0.004188,-0.006248,0.002112,-0.108875,-0.478411,-0.110844,-0.864282
49982,NaN,4.287285,3.037595,3.147945,0.261435,-1.358595,-3.845927,0.770517,-1.535781,0.498252,-1.049072,-0.362061,-0.156738,0.042553,0.030360,0.031924,0.999960,0.003853,-0.007679,0.002491,-0.105757,-0.485756,-0.112086,-0.860403
49983,NaN,4.574103,3.931932,3.619698,0.577226,-2.100376,-3.124010,0.527135,-1.800358,0.591937,-1.053467,-0.357666,-0.135742,0.045296,0.039358,0.036710,0.999952,0.002636,-0.009002,0.002960,-0.102936,-0.494076,-0.111958,-0.856013
49984,NaN,4.938280,4.561436,4.062339,0.882233,-2.592636,-2.451051,0.208567,-2.003581,0.701453,-1.062012,-0.353516,-0.114502,0.048812,0.045743,0.041162,0.999943,0.001043,-0.010018,0.003507,-0.100557,-0.503149,-0.110042,-0.851246
49985,NaN,5.351297,4.041326,3.515003,0.383593,-2.081775,-2.543516,-0.069990,-2.135399,0.786981,-1.062012,-0.344971,-0.089355,0.052974,0.040635,0.035703,0.999935,-0.000350,-0.010677,0.003935,-0.098554,-0.512591,-0.106683,-0.846260
49986,NaN,5.522267,3.043109,2.402131,-0.483116,-1.229131,-3.196036,-0.108970,-2.226507,0.865227,-1.064453,-0.336426,-0.068115,0.054818,0.030682,0.024616,0.999929,-0.000545,-0.011132,0.004326,-0.096367,-0.522400,-0.102884,-0.840968
49987,NaN,5.888466,0.808687,1.954744,-0.783977,0.925023,-3.674540,0.125000,-2.223471,0.929477,-1.066650,-0.325928,-0.047119,0.058624,0.008347,0.020205,0.999927,0.000625,-0.011117,0.004647,-0.093271,-0.532238,-0.099903,-0.835490
49988,NaN,5.975772,-1.632093,1.904217,-0.612099,3.247859,-4.238212,0.759164,-2.357232,0.914268,-1.068848,-0.321777,-0.015381,0.059602,-0.016122,0.019684,0.999913,0.003796,-0.011786,0.004571,-0.088615,-0.542869,-0.099518,-0.829178
49989,NaN,5.490331,-1.936580,1.636860,-0.533032,3.371417,-4.820529,1.637295,-2.646324,0.858677,-1.069092,-0.308838,0.014160,0.054765,-0.019268,0.016936,0.999870,0.008186,-0.013231,0.004293,-0.081918,-0.554911,-0.102789,-0.821461
49990,NaN,5.276759,-0.425959,1.867127,-0.140080,1.865876,-4.520346,2.212288,-2.799122,0.881694,-1.069092,-0.300537,0.052002,0.052519,-0.004239,0.019361,0.999831,0.011061,-0.013995,0.004408,-0.073604,-0.567700,-0.108218,-0.812766
49991,NaN,5.359746,1.882031,2.534138,0.643948,-0.280202,-3.632573,2.436436,-2.757283,0.973014,-1.067383,-0.285645,0.087891,0.053148,0.018763,0.026305,0.999819,0.012181,-0.013786,0.004865,-0.064215,-0.580213,-0.114322,-0.803840
49992,NaN,5.642128,4.593431,3.458586,1.757490,-2.719582,-2.436841,2.315424,-2.615207,1.074614,-1.069580,-0.277100,0.123779,0.055712,0.045825,0.035848,0.999833,0.011576,-0.013075,0.005373,-0.054680,-0.592010,-0.119598,-0.795129
49993,NaN,6.123083,6.567520,3.798466,2.343842,-4.462753,-1.467952,1.930750,-2.384028,1.116437,-1.067627,-0.266602,0.149170,0.060401,0.065638,0.039342,0.999867,0.009653,-0.011920,0.005582,-0.045947,-0.602594,-0.123300,-0.787126
49994,NaN,6.868815,7.583372,3.633872,2.354039,-5.314992,-0.642332,1.238822,-2.144982,1.107675,-1.065918,-0.249512,0.174316,0.067869,0.075981,0.037540,0.999908,0.006194,-0.010725,0.005538,-0.039182,-0.611956,-0.124316,-0.780077
49995,NaN,7.805565,7.348315,3.562090,2.276239,-4.950451,0.082764,0.330948,-1.971431,1.054357,-1.062012,-0.238770,0.193359,0.077310,0.073832,0.036507,0.999936,0.001655,-0.009857,0.005272,-0.035281,-0.620316,-0.121986,-0.774004
49996,NaN,8.819464,5.876867,3.841677,2.363415,-3.367244,0.682609,-0.573760,-1.873036,0.935608,-1.062012,-0.234619,0.208008,0.087554,0.059291,0.039069,0.999941,-0.002869,-0.009365,0.004678,-0.034581,-0.627988,-0.116558,-0.768667
49997,NaN,9.641799,3.857175,3.778402,2.103674,-1.363901,0.949717,-1.152071,-1.832468,0.758860,-1.053467,-0.230225,0.227051,0.095920,0.039157,0.038440,0.999934,-0.005760,-0.009162,0.003794,-0.036349,-0.635223,-0.109422,-0.763674
49998,NaN,9.783420,2.262925,3.373895,1.715240,0.062124,0.640540,-1.267781,-1.906885,0.590316,-1.051514,-0.228271,0.241699,0.097440,0.023134,0.034524,0.999930,-0.006339,-0.009534,0.002952,-0.039159,-0.642529,-0.102408,-0.758377
49999,NaN,9.833968,1.373110,3.526575,1.975022,0.871364,0.500682,-1.064379,-1.925383,0.427231,-1.047119,-0.228271,0.256592,0.097965,0.014131,0.036136,0.999937,-0.005322,-0.009627,0.002136,-0.041944,-0.649789,-0.096616,-0.752781
50000,NaN,9.809314,0.641172,3.307132,1.910112,1.504051,0.269803,-0.460205,-1.959246,0.341893,-1.038574,-0.226074,0.277588,0.097752,0.006657,0.034015,0.999948,-0.002301,-0.009796,0.001709,-0.043093,-0.657167,-0.093411,-0.746692
50001,NaN,9.127557,0.489274,4.060207,2.927629,1.551525,-0.375758,0.062350,-1.893702,0.335702,-1.028076,-0.221924,0.290283,0.090877,0.005033,0.041465,0.999954,0.000312,-0.009468,0.001678,-0.042520,-0.664367,-0.092127,-0.740487
50002,NaN,8.521440,0.889123,5.387728,4.504963,1.131739,-0.820744,0.232041,-1.688028,0.287208,-1.028076,-0.219727,0.302979,0.084743,0.008950,0.054604,0.999963,0.001160,-0.008440,0.001436,-0.041456,-0.670732,-0.091713,-0.734840
50003,NaN,8.458630,1.092770,6.638114,5.912065,1.014448,-0.822514,0.461053,-1.482622,0.181027,-1.017334,-0.221924,0.319824,0.084081,0.010850,0.067031,0.999969,0.002305,-0.007413,0.000905,-0.039926,-0.676327,-0.092489,-0.729680
50004,NaN,11.186077,0.846863,6.204786,5.381055,1.742920,1.691616,0.707156,-1.233336,0.042111,-1.010986,-0.217773,0.338867,0.111473,0.008271,0.062766,0.999975,0.003536,-0.006167,0.000211,-0.037939,-0.680905,-0.094719,-0.725229
50005,NaN,15.495415,1.144418,7.104315,6.145367,2.367962,5.951625,0.543052,-0.942075,-0.114417,-1.010986,-0.217773,0.343018,0.154624,0.011161,0.071803,0.999985,0.002715,-0.004710,-0.000572,-0.036953,-0.684350,-0.096897,-0.721742
50006,NaN,18.634917,0.576376,4.822346,3.760780,3.346902,8.774975,-0.233439,-0.552989,-0.194368,-1.002441,-0.217773,0.345215,0.186220,0.005639,0.048732,0.999995,-0.001167,-0.002765,-0.000972,-0.038703,-0.686113,-0.096649,-0.720007
50007,NaN,19.136636,-0.214657,-1.883820,-2.915391,3.670499,8.837595,0.252720,-0.421588,-0.173763,-1.004395,-0.224365,0.345215,0.191404,-0.002289,-0.018438,0.999997,0.001264,-0.002108,-0.000869,-0.038667,-0.687583,-0.098072,-0.718412
50008,NaN,18.364734,-1.303294,1.546445,0.502085,4.916725,7.989760,0.071863,-0.178886,-0.096695,-1.002197,-0.222168,0.345215,0.183627,-0.013127,0.015624,0.999999,0.000359,-0.000894,-0.000483,-0.038836,-0.688102,-0.098630,-0.717829
50009,NaN,14.832866,-3.058192,2.294019,1.299911,6.019358,4.212521,-0.129510,0.005006,0.163456,-0.998047,-0.222168,0.340820,0.148354,-0.030446,0.022956,0.999999,-0.000648,0.000025,0.000817,-0.038695,-0.688130,-0.097603,-0.717951
50010,NaN,11.446956,-0.091736,0.644000,0.040276,2.295440,1.420522,-0.084530,0.367556,0.372591,-1.004639,-0.213623,0.343018,0.114483,-0.000701,0.006230,0.999996,-0.000423,0.001838,0.001863,-0.037445,-0.686885,-0.096045,-0.719418
50011,NaN,8.521211,1.638046,-1.348051,-1.693433,-0.159481,-1.197702,0.386169,0.658349,0.397126,-1.007080,-0.209229,0.330322,0.085134,0.016576,-0.013729,0.999991,0.001931,0.003292,0.001986,-0.034376,-0.684763,-0.096192,-0.721571
50012,NaN,5.910703,1.873901,-5.707499,-5.872319,-1.340072,-3.918403,1.405490,0.402178,0.383769,-1.011475,-0.200684,0.330322,0.058956,0.019253,-0.057060,0.999971,0.007027,0.002011,0.001919,-0.027963,-0.683635,-0.099964,-0.722405
50013,NaN,5.709203,1.678367,-4.930195,-5.080355,-1.200420,-4.114716,1.675822,-0.004455,0.232554,-1.011475,-0.198486,0.332275,0.057073,0.017262,-0.049157,0.999964,0.008379,-0.000022,0.001163,-0.021398,-0.683967,-0.105217,-0.721568
50014,NaN,10.394248,-1.026704,-3.280594,-4.030688,2.392081,0.081154,1.140546,-0.041512,0.127874,-1.007324,-0.192139,0.340576,0.103956,-0.010013,-0.032842,0.999984,0.005703,-0.000208,0.000639,-0.017043,-0.684238,-0.108841,-0.720890
50015,NaN,17.628354,0.514233,-1.507106,-2.525554,2.343364,7.548901,0.617893,-0.126969,0.112627,-1.005615,-0.181396,0.334229,0.176290,0.005288,-0.014943,0.999995,0.003089,-0.000635,0.000563,-0.014594,-0.684795,-0.110670,-0.720135
50016,NaN,18.545049,6.578077,-0.464051,-0.725802,-3.281241,9.580915,-0.282755,-0.318369,0.044447,-1.001221,-0.185547,0.342773,0.185443,0.065816,-0.004438,0.999998,-0.001414,-0.001592,0.000222,-0.015565,-0.685906,-0.109406,-0.719251
50017,NaN,16.746061,8.897992,0.229608,0.393970,-5.746330,8.256122,-0.512659,-0.433282,-0.153219,-1.003418,-0.185547,0.340576,0.167524,0.088858,0.002431,0.999994,-0.002563,-0.002166,-0.000766,-0.018113,-0.687326,-0.108052,-0.718039
50018,NaN,10.530483,8.313516,0.256939,0.726609,-6.213175,2.059106,0.296652,-0.386699,-0.434588,-0.994629,-0.196289,0.342773,0.105480,0.082902,0.002896,0.999995,0.001483,-0.001933,-0.002173,-0.018853,-0.688462,-0.110541,-0.716551
50019,NaN,8.554013,2.967513,-1.344050,-1.369366,-1.516612,-0.890356,0.840004,-0.472577,-0.489832,-0.994629,-0.189941,0.353271,0.085644,0.029521,-0.013114,0.999985,0.004200,-0.002363,-0.002449,-0.017979,-0.689943,-0.115189,-0.714413
50020,NaN,8.439598,-0.039724,-4.212258,-4.551408,1.007664,-1.612654,0.903055,-0.567069,-0.308355,-0.994629,-0.189941,0.361816,0.084514,-0.000338,-0.041885,0.999985,0.004515,-0.002835,-0.001542,-0.016287,-0.691821,-0.119422,-0.711938
50021,NaN,8.508577,-0.877786,-3.907511,-4.327102,1.873123,-1.676200,0.707718,-0.550803,-0.057356,-0.984131,-0.185791,0.363770,0.085191,-0.008664,-0.038871,0.999990,0.003539,-0.002754,-0.000287,-0.014374,-0.693788,-0.122092,-0.709609
50022,NaN,8.659666,-1.233443,-2.860395,-3.310002,2.389762,-1.564914,0.361858,-0.469465,0.252712,-0.986572,-0.179443,0.370117,0.086679,-0.012173,-0.028423,0.999995,0.001809,-0.002347,0.001264,-0.012505,-0.695613,-0.122445,-0.707795
50023,NaN,9.223328,-1.179988,-0.065077,-0.514658,2.850663,-0.976686,0.571197,-0.531770,0.482694,-0.984619,-0.168701,0.372070,0.092263,-0.011576,-0.000439,0.999989,0.002856,-0.002659,0.002413,-0.009137,-0.697808,-0.122751,-0.705629
50024,NaN,9.759442,1.040001,1.716446,1.643475,1.046999,-0.041469,0.943443,-0.608064,0.611968,-0.984863,-0.157959,0.384766,0.097509,0.010616,0.017511,0.999980,0.004717,-0.003040,0.003060,-0.004054,-0.700351,-0.123872,-0.702956
50025,NaN,10.527920,2.942708,2.212111,2.529913,-0.603255,1.032798,1.003778,-0.730496,0.536042,-0.980957,-0.151611,0.386719,0.105118,0.029596,0.022654,0.999977,0.005019,-0.003652,0.002680,0.000891,-0.703245,-0.125503,-0.699782
50026,NaN,11.010270,3.798087,2.420317,3.000514,-1.322564,1.622160,0.818790,-0.864139,0.357313,-0.978760,-0.145020,0.395264,0.109928,0.038077,0.024834,0.999981,0.004094,-0.004321,0.001787,0.004486,-0.706459,-0.127073,-0.696239
50027,NaN,10.316876,3.467922,1.814636,2.465530,-1.234504,0.871570,0.466588,-0.933595,0.230381,-0.972412,-0.143066,0.407959,0.103042,0.034755,0.018709,0.999986,0.002333,-0.004668,0.001152,0.006342,-0.709824,-0.127901,-0.692640
50028,NaN,9.184981,2.365882,0.231827,0.793592,-0.659968,-0.381410,0.134986,-0.919548,0.204836,-0.970459,-0.138672,0.416260,0.091814,0.023751,0.002756,0.999989,0.000675,-0.004598,0.001024,0.006950,-0.713098,-0.127643,-0.689312
50029,NaN,8.331953,1.070825,-0.112590,0.277053,0.375929,-1.424472,0.143204,-0.900238,0.276196,-0.968506,-0.132324,0.420410,0.083309,0.010824,-0.000743,0.999989,0.000716,-0.004501,0.001381,0.007836,-0.716354,-0.127179,-0.686004
50030,NaN,7.880824,0.366043,0.043541,0.359839,0.995432,-1.994607,0.346178,-0.900454,0.419086,-0.960205,-0.123779,0.433105,0.078797,0.003824,0.000797,0.999986,0.001731,-0.004502,0.002095,0.009949,-0.719653,-0.126876,-0.682571
50031,NaN,7.638467,-0.376831,0.144600,0.382316,1.669668,-2.357853,0.564319,-0.975510,0.554680,-0.962402,-0.119629,0.443604,0.076387,-0.003561,0.001808,0.999980,0.002822,-0.004878,0.002773,0.013252,-0.723282,-0.126850,-0.678673
50032,NaN,7.923095,-0.846358,0.031694,0.272447,2.119915,-2.136504,0.744460,-1.058643,0.621253,-0.956543,-0.106689,0.447754,0.079254,-0.008220,0.000706,0.999974,0.003722,-0.005293,0.003106,0.017392,-0.727168,-0.127165,-0.674354
50033,NaN,8.586828,-0.391802,0.394137,0.853878,1.826116,-1.447421,0.914628,-1.133742,0.672286,-0.948242,-0.093994,0.458252,0.085857,-0.003649,0.004411,0.999968,0.004573,-0.005669,0.003361,0.022261,-0.731305,-0.127897,-0.669582
50034,NaN,8.843770,0.305671,0.891965,1.615421,1.261205,-1.158214,0.988819,-1.166218,0.686839,-0.940186,-0.081055,0.474854,0.088373,0.003314,0.009451,0.999965,0.004944,-0.005831,0.003434,0.027446,-0.735479,-0.128778,-0.664631
50035,NaN,8.450951,1.509415,1.085331,2.158027,0.053333,-1.433329,1.030089,-1.155611,0.674678,-0.934082,-0.066162,0.483154,0.084393,0.015321,0.011420,0.999964,0.005150,-0.005778,0.003373,0.032729,-0.739576,-0.129871,-0.659613
50036,NaN,8.205606,2.427672,1.138375,2.519350,-0.880511,-1.603078,0.937008,-1.125730,0.681923,-0.934326,-0.057617,0.495850,0.081907,0.024501,0.011960,0.999967,0.004685,-0.005629,0.003410,0.037732,-0.743513,-0.130577,-0.654763
50037,NaN,8.176575,2.753252,1.273968,2.841793,-1.191233,-1.654031,0.717890,-1.090247,0.690692,-0.928223,-0.049072,0.500000,0.081599,0.027767,0.013284,0.999973,0.003589,-0.005451,0.003453,0.041947,-0.747368,-0.130559,-0.650105
50038,NaN,8.550393,2.520455,1.884944,3.522941,-0.800753,-1.448391,0.495566,-1.029679,0.691790,-0.922119,-0.038330,0.512695,0.085317,0.025452,0.019352,0.999978,0.002478,-0.005148,0.003459,0.045391,-0.750993,-0.129766,-0.645841
50039,NaN,8.673347,1.792965,2.639245,4.176259,0.064753,-1.568843,0.440922,-0.953828,0.674593,-0.920166,-0.027588,0.518799,0.086545,0.018163,0.026845,0.999981,0.002205,-0.004769,0.003373,0.048604,-0.754386,-0.128868,-0.641819
50040,NaN,8.450625,0.931193,3.248549,4.589360,0.984625,-2.015197,0.599098,-0.839107,0.657635,-0.916260,-0.017090,0.529297,0.084338,0.009491,0.032868,0.999981,0.002995,-0.004196,0.003288,0.052451,-0.757275,-0.128490,-0.638181
50041,NaN,8.237854,0.320733,3.859901,5.046535,1.680459,-2.425394,0.927543,-0.682453,0.635025,-0.912109,-0.010498,0.535645,0.082236,0.003289,0.038895,0.999978,0.004638,-0.003412,0.003175,0.057549,-0.759591,-0.129218,-0.634832
50042,NaN,8.065670,0.492594,3.270940,4.553273,1.343176,-2.501046,1.256719,-0.483633,0.626883,-0.910889,0.015137,0.535400,0.080562,0.004972,0.032935,0.999972,0.006284,-0.002418,0.003134,0.064020,-0.761062,-0.130941,-0.632093
50043,NaN,8.378608,1.779003,1.874783,3.692699,-0.224906,-1.863232,1.547576,-0.266143,0.646864,-0.911133,0.028076,0.539551,0.083703,0.017914,0.018998,0.999964,0.007738,-0.001331,0.003234,0.071775,-0.761794,-0.133447,-0.629849
50044,NaN,8.741601,3.640033,0.694163,3.250897,-2.308758,-1.195961,1.685143,-0.069626,0.682859,-0.907471,0.047363,0.535156,0.087289,0.036638,0.007280,0.999959,0.008426,-0.000348,0.003414,0.080340,-0.761724,-0.136175,-0.628314
50045,NaN,8.847855,5.597395,0.250607,3.535876,-4.318533,-0.951244,1.634505,0.165300,0.674413,-0.916504,0.066650,0.537109,0.088291,0.056249,0.002892,0.999961,0.008172,0.000826,0.003372,0.088791,-0.760968,-0.138666,-0.627548
50046,NaN,8.561018,7.516968,0.223594,4.153790,-6.200410,-1.201875,1.413415,0.459019,0.561704,-0.918945,0.075195,0.532959,0.085404,0.075392,0.002572,0.999968,0.007067,0.002295,0.002808,0.096285,-0.759143,-0.140788,-0.628180
50047,NaN,8.098191,9.072291,1.266407,5.611060,-7.382578,-1.843724,1.060302,0.792645,0.253620,-0.919434,0.088135,0.520020,0.080917,0.090758,0.012824,0.999977,0.005301,0.003963,0.001268,0.101660,-0.756294,-0.142767,-0.630319
50048,NaN,8.548408,8.183877,3.451888,7.390046,-5.767634,-1.807200,0.669917,1.156165,-0.105781,-0.927979,0.083740,0.503174,0.085726,0.081678,0.034298,0.999978,0.003350,0.005781,-0.000529,0.104689,-0.752078,-0.144759,-0.634400
50049,NaN,8.384769,4.987091,5.631164,8.184606,-2.025180,-2.343132,0.288073,1.439376,-0.430477,-0.938477,0.081787,0.494873,0.084357,0.049609,0.055777,0.999971,0.001440,0.007197,-0.002152,0.105444,-0.747018,-0.146530,-0.639824
50050,NaN,7.385050,2.664658,7.146831,8.510419,0.607636,-3.494734,0.103351,1.819691,-0.708826,-0.948975,0.077393,0.473633,0.074590,0.026346,0.070806,0.999952,0.000517,0.009098,-0.003544,0.104841,-0.740417,-0.148609,-0.647075
50051,NaN,5.649424,0.314460,5.894985,6.184296,2.241296,-4.965663,0.116976,2.265200,-0.855280,-0.966064,0.073242,0.448486,0.057170,0.002867,0.058307,0.999927,0.000585,0.011326,-0.004276,0.104181,-0.732327,-0.150951,-0.655788
50052,NaN,5.614521,-1.287095,4.695405,4.344780,3.331954,-4.788399,0.337181,2.798058,-1.000135,-0.974609,0.069092,0.425293,0.056729,-0.013232,0.046141,0.999888,0.001686,0.013990,-0.005000,0.104247,-0.721921,-0.154361,-0.666434
50053,NaN,8.092087,-3.152132,2.608230,1.657984,4.546390,-2.144916,0.637684,3.119610,-1.169725,-0.993652,0.062744,0.389404,0.081127,-0.032076,0.024716,0.999856,0.003188,0.015597,-0.005848,0.105043,-0.710176,-0.159054,-0.677729
50054,NaN,12.384103,-3.835361,0.303156,-0.985085,4.699498,2.232851,0.545308,3.229560,-1.336104,-1.010498,0.054199,0.362061,0.123607,-0.039184,0.000928,0.999844,0.002726,0.016147,-0.006680,0.105069,-0.697532,-0.164051,-0.689562
50055,NaN,16.247997,-3.462175,-0.816395,-2.411636,4.268033,6.080433,0.179548,3.131552,-1.454753,-1.018799,0.041504,0.334717,0.162068,-0.035793,-0.010736,0.999851,0.000898,0.015657,-0.007273,0.103232,-0.685332,-0.168069,-0.701011
50056,NaN,18.690902,-1.823222,-2.310283,-3.884597,2.427461,8.544706,-0.265660,3.084772,-1.490089,-1.033203,0.022461,0.301025,0.186380,-0.019655,-0.025955,0.999852,-0.001328,0.015423,-0.007450,0.099743,-0.673073,-0.170705,-0.712659
50057,NaN,20.490016,-5.283307,-1.840588,-5.509567,5.998035,9.802911,-0.400421,2.972615,-1.488562,-1.037354,0.016113,0.269531,0.204197,-0.054395,-0.021337,0.999860,-0.002002,0.014862,-0.007442,0.095614,-0.661303,-0.172776,-0.723660
50058,NaN,22.800452,-8.528835,-0.509912,-6.418863,9.747663,11.555362,0.092383,2.920185,-1.508568,-1.053955,-0.000977,0.239990,0.227245,-0.087001,-0.008461,0.999865,0.000462,0.014600,-0.007543,0.093025,-0.649092,-0.176704,-0.734031
