// Start Time: Unknown
// Update Rate: 100.0Hz
// Filter Profile: human (46.1)
// Firmware Version: 4.4.0
PacketCounter,SampleTimeFine,Acc_X,Acc_Y,Acc_Z,FreeAcc_X,FreeAcc_Y,FreeAcc_Z,Gyr_X,Gyr_Y,Gyr_Z,Mag_X,Mag_Y,Mag_Z,VelInc_X,VelInc_Y,VelInc_Z,OriInc_q0,OriInc_q1,OriInc_q2,OriInc_q3,Quat_q0,Quat_q1,Quat_q2,Quat_q3
38253,NaN,7.824681,0.428474,-0.436300,-0.000000,-0.000000,-1.964183,1.134386,-0.107164,0.974771,-1.099609,-0.105469,-0.166504,0.078227,0.004691,-0.004295,0.999972,0.005672,-0.000536,0.004874,0.686746,0.077034,-0.722101,0.031881
38254,NaN,7.472711,0.351638,-0.223582,0.000000,-0.000000,-2.328393,1.231920,-0.107559,0.868787,-1.099854,-0.101318,-0.160400,0.074712,0.003854,-0.002173,0.999971,0.006160,-0.000538,0.004344,0.694645,0.092718,-0.711279,0.054347
38255,NaN,7.166088,0.289705,-0.111635,-0.173149,-0.142621,-2.643404,1.290187,-0.109920,0.761095,-1.097900,-0.094971,-0.162598,0.071650,0.003177,-0.001057,0.999972,0.006451,-0.000550,0.003805,0.690867,0.072703,-0.718543,0.033368
38256,NaN,6.668665,0.220454,-0.105394,-0.169336,-0.135022,-3.143075,1.321434,-0.095943,0.637405,-1.098145,-0.090820,-0.160645,0.066680,0.002424,-0.001006,0.999973,0.006607,-0.000480,0.003187,0.689917,0.074992,-0.718866,0.040282
38257,NaN,5.910325,0.353324,-0.209524,-0.071302,0.087752,-3.889192,1.293257,-0.095145,0.527158,-1.100098,-0.090820,-0.156494,0.059095,0.003702,-0.002044,0.999976,0.006466,-0.000476,0.002636,0.689265,0.077702,-0.718820,0.046617
38258,NaN,5.075624,0.544257,-0.378020,0.076630,0.371669,-4.708082,1.231462,-0.092932,0.401787,-1.095947,-0.090820,-0.146240,0.050747,0.005568,-0.003723,0.999979,0.006157,-0.000465,0.002009,0.688345,0.080522,-0.718995,0.052390
38259,NaN,4.361387,0.664150,-0.488851,0.175103,0.557479,-5.412656,1.116641,-0.132372,0.319653,-1.098145,-0.088623,-0.146240,0.043606,0.006738,-0.004822,0.999983,0.005583,-0.000662,0.001598,0.687314,0.083490,-0.719279,0.057164
38260,NaN,3.889770,0.586729,-0.552991,0.256455,0.527532,-5.883785,0.990716,-0.196339,0.213571,-1.093994,-0.086670,-0.144287,0.038897,0.005936,-0.005462,0.999987,0.004954,-0.000982,0.001068,0.686124,0.086182,-0.719750,0.061379
38261,NaN,3.554931,0.509652,-0.542077,0.257109,0.458903,-6.219025,0.861251,-0.234779,0.151956,-1.093994,-0.088623,-0.140137,0.035552,0.005147,-0.005357,0.999990,0.004306,-0.001174,0.000760,0.684279,0.089805,-0.720875,0.063542
38262,NaN,3.231767,0.433598,-0.470209,0.205267,0.388789,-6.547704,0.739608,-0.246635,0.111033,-1.095947,-0.088623,-0.135986,0.032321,0.004371,-0.004646,0.999992,0.003698,-0.001233,0.000555,0.683017,0.092013,-0.721528,0.066477
38263,NaN,3.023222,0.431213,-0.355382,0.085359,0.355966,-6.760130,0.626379,-0.241642,0.104880,-1.100342,-0.088623,-0.131836,0.030234,0.004339,-0.003504,0.999994,0.003132,-0.001208,0.000524,0.680670,0.095594,-0.723238,0.066910
38264,NaN,2.828325,0.481387,-0.351615,0.070787,0.416215,-6.953223,0.522400,-0.205176,0.121422,-1.093994,-0.088623,-0.123779,0.028284,0.004840,-0.003475,0.999996,0.002612,-0.001026,0.000607,0.679635,0.097001,-0.723816,0.069114
38265,NaN,2.392159,0.530148,-0.426258,0.143531,0.488708,-7.378404,0.377236,-0.145465,0.184737,-1.089844,-0.084473,-0.127930,0.023920,0.005332,-0.004235,0.999998,0.001886,-0.000727,0.000924,0.677727,0.099710,-0.725287,0.068579
38266,NaN,2.027167,0.578552,-0.584919,0.302313,0.596816,-7.729740,0.217728,-0.126849,0.259192,-1.094238,-0.078125,-0.121826,0.020268,0.005818,-0.005830,0.999998,0.001089,-0.000634,0.001296,0.677068,0.099551,-0.725770,0.070184
38267,NaN,2.068537,0.619846,-0.830690,0.516748,0.681695,-7.662953,0.047853,-0.157012,0.342356,-1.085693,-0.080322,-0.125977,0.020681,0.006236,-0.008289,0.999998,0.000239,-0.000785,0.001712,0.674908,0.100924,-0.727748,0.068535
38268,NaN,2.611476,0.646557,-1.136219,0.762918,0.757493,-7.097362,-0.139365,-0.220982,0.427100,-1.090332,-0.069580,-0.124023,0.026113,0.006513,-0.011338,0.999997,-0.000697,-0.001105,0.002135,0.674026,0.098975,-0.728754,0.069358
38269,NaN,3.349612,0.681064,-1.375435,0.905611,0.786431,-6.328875,-0.312049,-0.281683,0.502573,-1.086182,-0.065430,-0.117920,0.033498,0.006873,-0.013718,0.999995,-0.001560,-0.001408,0.002513,0.670470,0.098887,-0.732303,0.066505
38270,NaN,4.171910,0.824540,-1.491451,0.905253,0.918568,-5.494604,-0.491394,-0.360375,0.563013,-1.084229,-0.059082,-0.115967,0.041723,0.008326,-0.014860,0.999991,-0.002457,-0.001802,0.002815,0.669201,0.095297,-0.733947,0.066414
38271,NaN,5.382560,0.937545,-1.387858,0.610783,0.901950,-4.281824,-0.679408,-0.480474,0.558366,-1.082520,-0.050537,-0.107910,0.053832,0.009479,-0.013781,0.999987,-0.003397,-0.002402,0.002792,0.664093,0.093968,-0.739125,0.062008
38272,NaN,7.315161,1.132004,-1.250824,0.207277,0.969131,-2.371236,-0.896522,-0.669871,0.516309,-1.080811,-0.040039,-0.097900,0.073164,0.011453,-0.012314,0.999981,-0.004483,-0.003349,0.002582,0.661866,0.089289,-0.741856,0.060093
38273,NaN,9.698559,1.326995,-1.165912,-0.299540,0.929873,-0.003130,-1.068142,-0.898201,0.419423,-1.076416,-0.042236,-0.091797,0.097009,0.013412,-0.011295,0.999973,-0.005341,-0.004491,0.002097,0.655928,0.087279,-0.747870,0.053202
38274,NaN,12.485766,1.095804,-1.107875,-0.756193,0.526780,2.736095,-1.204252,-1.080029,0.258069,-1.072510,-0.033691,-0.079590,0.124901,0.011055,-0.010471,0.999966,-0.006021,-0.005400,0.001290,0.652325,0.082649,-0.751820,0.049072
38275,NaN,15.445753,0.891880,-0.707218,-1.680494,-0.078231,5.583234,-1.367722,-1.155350,0.081545,-1.070557,-0.029541,-0.067383,0.154492,0.008937,-0.006241,0.999960,-0.006839,-0.005777,0.000408,0.647433,0.080863,-0.756751,0.040234
38276,NaN,18.549489,0.613652,-0.276170,-2.691964,-0.688370,8.539757,-1.504852,-1.159805,-0.166666,-1.068115,-0.035889,-0.052979,0.185512,0.005966,-0.001731,0.999955,-0.007524,-0.005799,-0.000833,0.643658,0.076852,-0.760707,0.033530
38277,NaN,21.905472,-0.030611,0.362594,-3.825218,-1.860563,11.678752,-1.462563,-1.141042,-0.517120,-1.063965,-0.031738,-0.044922,0.219028,-0.000840,0.004880,0.999954,-0.007313,-0.005705,-0.002586,0.642181,0.075303,-0.762482,0.023562
38278,NaN,26.260935,-0.389976,0.971227,-5.319471,-2.883722,15.762814,-1.385122,-1.110881,-1.057374,-1.061279,-0.046631,-0.034424,0.262525,-0.005214,0.011204,0.999947,-0.006925,-0.005554,-0.005287,0.638557,0.075013,-0.765773,0.014466
38279,NaN,29.947011,-0.193172,0.490420,-5.259401,-3.231329,19.495600,-1.373763,-1.069269,-1.394688,-1.060791,-0.061523,-0.023926,0.299415,-0.003979,0.006528,0.999938,-0.006869,-0.005346,-0.006973,0.641908,0.074614,-0.763125,0.005218
38280,NaN,32.953385,0.207375,-0.729095,-4.875572,-3.564993,22.590707,-1.451380,-1.053930,-1.785775,-1.055908,-0.082764,-0.011230,0.329567,-0.000913,-0.005555,0.999920,-0.007257,-0.005270,-0.008929,0.638424,0.076791,-0.765818,-0.006444
38281,NaN,35.375741,0.555155,-2.773756,-2.767423,-3.672323,25.375814,-1.427049,-1.191285,-2.191784,-1.053223,-0.102051,-0.000732,0.353945,0.001485,-0.025650,0.999897,-0.007135,-0.005956,-0.010959,0.644173,0.076020,-0.760914,-0.016500
38282,NaN,37.804299,0.090977,-5.357409,-0.917186,-5.194908,28.002015,-1.539021,-1.186253,-2.343564,-1.052490,-0.118896,0.007812,0.378325,-0.003923,-0.051313,0.999884,-0.007695,-0.005931,-0.011717,0.639977,0.079872,-0.763629,-0.030353
38283,NaN,39.643769,-0.018914,-7.147131,1.003057,-5.827991,30.032330,-1.523941,-1.169956,-2.414932,-1.051514,-0.150879,0.016602,0.396801,-0.005512,-0.069122,0.999881,-0.007619,-0.005850,-0.012074,0.644383,0.078370,-0.759727,-0.037999
38284,NaN,39.877547,-0.078036,-7.368396,0.842094,-6.996852,30.121591,-1.343122,-0.919591,-2.426014,-1.059326,-0.172119,0.020996,0.399056,-0.006106,-0.071820,0.999893,-0.006715,-0.004598,-0.012130,0.640886,0.083075,-0.761403,-0.051273
38285,NaN,37.612715,-0.233269,-5.869289,-0.066409,-6.745721,27.652354,-0.973818,-0.653819,-2.379766,-1.056396,-0.195557,0.029541,0.376251,-0.007091,-0.057436,0.999912,-0.004869,-0.003269,-0.011898,0.643985,0.077131,-0.759133,-0.055246
38286,NaN,34.832022,-0.691620,-4.145846,-1.479651,-7.576915,24.411252,-0.387449,-0.527692,-2.311049,-1.055420,-0.220947,0.036133,0.348316,-0.011020,-0.040521,0.999928,-0.001937,-0.002638,-0.011555,0.641447,0.084504,-0.759779,-0.064357
38287,NaN,32.085563,-1.615979,-2.652411,-2.099608,-8.002278,21.342514,0.325520,-0.303230,-2.128369,-1.056885,-0.242188,0.034424,0.320699,-0.019531,-0.026068,0.999941,0.001628,-0.001516,-0.010642,0.644276,0.096107,-0.756860,-0.053236
38288,NaN,28.376968,-2.037663,-1.100387,-3.036469,-8.260787,17.263734,1.188381,-0.131677,-1.845352,-1.056152,-0.265625,0.047119,0.283573,-0.022929,-0.010948,0.999940,0.005942,-0.000658,-0.009227,0.642677,0.106878,-0.756668,-0.054743
38289,NaN,25.073580,-1.104340,-0.233599,-3.032080,-6.480529,14.244657,2.016648,-0.002816,-1.525542,-1.062012,-0.278320,0.049316,0.250642,-0.012931,-0.002457,0.999920,0.010083,-0.000014,-0.007628,0.646848,0.119503,-0.752426,-0.034091
38290,NaN,21.857739,0.542286,0.096571,-3.075364,-4.503319,11.360898,2.587686,0.223730,-1.173773,-1.065430,-0.299561,0.055908,0.218605,0.004129,0.000780,0.999898,0.012938,0.001119,-0.005869,0.645877,0.132314,-0.751366,-0.028015
38291,NaN,18.228729,1.863936,0.520743,-2.940533,-2.122962,8.156058,2.832195,0.456493,-0.838405,-1.067139,-0.310303,0.064209,0.182375,0.017803,0.005047,0.999888,0.014160,0.002282,-0.004192,0.651948,0.138554,-0.745474,-0.005901
38292,NaN,14.508189,2.680048,0.985834,-3.082646,-0.744739,4.629744,2.807963,0.798051,-0.457157,-1.066895,-0.316650,0.062256,0.145181,0.026332,0.009651,0.999891,0.014039,0.003990,-0.002286,0.652892,0.149419,-0.742558,0.003628
38293,NaN,9.805340,2.338732,1.747201,-3.099683,0.050783,-0.063034,2.755716,1.170249,-0.260997,-1.067139,-0.316650,0.056152,0.098185,0.023021,0.017217,0.999887,0.013778,0.005851,-0.001305,0.661221,0.143987,-0.736019,0.018169
38294,NaN,4.246861,1.290659,2.952959,-3.494655,-0.243675,-5.794143,2.663204,1.670370,-0.118782,-1.071045,-0.324951,0.050293,0.042722,0.012490,0.029342,0.999876,0.013315,0.008352,-0.000594,0.665380,0.153059,-0.730078,0.028777
38295,NaN,-1.854084,-0.037720,4.333487,-4.096324,-0.716034,-12.031665,2.416410,2.036871,0.126098,-1.070801,-0.329346,0.040039,-0.018098,-0.000914,0.043512,0.999875,0.012082,0.010184,0.000630,0.677140,0.139496,-0.721716,0.033894
38296,NaN,-7.076172,0.003929,5.470104,-5.027082,-0.286775,-17.204361,2.009512,1.724775,0.435245,-1.073242,-0.322754,0.027588,-0.070286,-0.000668,0.055304,0.999910,0.010047,0.008624,0.002176,0.681827,0.144424,-0.715775,0.043819
38297,NaN,-9.414434,0.057829,5.025719,-4.805674,-0.011123,-19.341326,1.389601,1.267061,0.753091,-1.081787,-0.318604,0.025391,-0.093824,-0.000127,0.050853,0.999949,0.006948,0.006335,0.003765,0.693173,0.135763,-0.706084,0.050239
38298,NaN,-8.771333,0.528664,3.880606,-3.887839,0.508571,-18.581919,0.670065,0.834249,0.924729,-1.086182,-0.314209,0.021240,-0.087573,0.004751,0.039188,0.999975,0.003350,0.004171,0.004624,0.695414,0.134608,-0.703635,0.056374
38299,NaN,-6.512765,0.278633,2.772275,-2.925594,0.147565,-16.262330,0.074790,0.569018,0.964684,-1.088623,-0.303711,0.010986,-0.065061,0.002462,0.027909,0.999984,0.000374,0.002845,0.004823,0.705832,0.127728,-0.693987,0.062205
38300,NaN,-4.348261,-0.108981,1.714727,-1.755677,-0.191471,-14.141699,-0.396867,0.473343,0.900089,-1.088867,-0.299316,0.006592,-0.043436,-0.001251,0.017252,0.999985,-0.001984,0.002367,0.004500,0.707437,0.123056,-0.693004,0.064305
38301,NaN,-3.013162,-0.327691,0.994603,-1.018277,-0.349319,-12.815485,-0.689236,0.451749,0.884030,-1.089111,-0.290771,0.000488,-0.030094,-0.003376,0.010026,0.999982,-0.003446,0.002259,0.004420,0.714551,0.108192,-0.688589,0.059643
38302,NaN,-2.319532,-0.830441,0.869893,-0.760742,-0.871977,-12.155217,-0.848342,0.480510,0.883051,-1.091553,-0.278076,-0.008057,-0.023137,-0.008369,0.008790,0.999978,-0.004242,0.002403,0.004415,0.716385,0.101976,-0.687588,0.060135
38303,NaN,-1.697942,-1.086601,0.697535,-0.542268,-1.134365,-11.535876,-0.900893,0.491537,0.851356,-1.093994,-0.273682,-0.012207,-0.016916,-0.010906,0.007066,0.999978,-0.004504,0.002458,0.004257,0.721696,0.092541,-0.683429,0.059293
38304,NaN,-0.870874,-1.244286,0.552486,-0.332976,-1.300246,-10.712888,-0.857899,0.503993,0.832993,-1.094238,-0.260986,-0.022705,-0.008643,-0.012455,0.005600,0.999979,-0.004289,0.002520,0.004165,0.723552,0.086448,-0.682237,0.059599
38305,NaN,-0.080589,-1.251247,0.285201,-0.030624,-1.280996,-9.920131,-0.741784,0.508645,0.812474,-1.098877,-0.254639,-0.024902,-0.000748,-0.012505,0.002900,0.999982,-0.003709,0.002543,0.004062,0.728078,0.080149,-0.677936,0.062305
38306,NaN,0.747407,-1.135945,0.087802,0.193618,-1.140761,-9.093062,-0.625454,0.569821,0.801007,-1.101074,-0.252441,-0.032959,0.007522,-0.011327,0.000892,0.999983,-0.003127,0.002849,0.004005,0.729997,0.074979,-0.676366,0.063328
38307,NaN,1.085869,-1.008907,-0.109333,0.397194,-0.967180,-8.756398,-0.483087,0.651408,0.774112,-1.101318,-0.239746,-0.039307,0.010894,-0.010050,-0.001104,0.999984,-0.002415,0.003257,0.003871,0.734392,0.069993,-0.671722,0.067513
38308,NaN,1.362899,-1.213145,-0.206483,0.559067,-1.138004,-8.484445,-0.313644,0.719418,0.741489,-1.101562,-0.235352,-0.047607,0.013666,-0.012084,-0.002095,0.999985,-0.001568,0.003597,0.003707,0.736657,0.066108,-0.669437,0.069432
38309,NaN,1.728330,-1.538782,-0.353698,0.820954,-1.401232,-8.126676,-0.123157,0.766387,0.694919,-1.103760,-0.231201,-0.057861,0.017323,-0.015330,-0.003594,0.999986,-0.000616,0.003832,0.003475,0.740764,0.062779,-0.664639,0.074714
38310,NaN,2.120685,-1.763675,-0.251632,0.819569,-1.615054,-7.717211,0.092232,0.813653,0.653010,-1.102051,-0.222656,-0.072266,0.021254,-0.017566,-0.002611,0.999986,0.000461,0.004068,0.003265,0.743185,0.060647,-0.661787,0.077693
38311,NaN,2.294680,-1.883634,-0.092356,0.742121,-1.725351,-7.511709,0.295952,0.889221,0.596507,-1.106445,-0.216309,-0.082764,0.022998,-0.018766,-0.001054,0.999985,0.001480,0.004446,0.002983,0.747131,0.058775,-0.656749,0.083794
38312,NaN,2.313380,-1.803745,0.144421,0.524201,-1.674352,-7.457323,0.431019,0.967340,0.542035,-1.102295,-0.211914,-0.093018,0.023189,-0.017978,0.001293,0.999982,0.002155,0.004837,0.002710,0.749940,0.058200,-0.653103,0.087516
38313,NaN,1.973471,-1.372417,0.345320,0.232641,-1.284862,-7.765178,0.499246,1.059757,0.489329,-1.106934,-0.201416,-0.097412,0.019786,-0.013684,0.003314,0.999980,0.002496,0.005299,0.002447,0.754059,0.057150,-0.647552,0.093839
38314,NaN,1.215903,-0.713450,0.558168,-0.201947,-0.726640,-8.497331,0.487711,1.115097,0.449372,-1.100830,-0.199219,-0.109619,0.012206,-0.007121,0.005496,0.999979,0.002439,0.005575,0.002247,0.757303,0.057010,-0.643234,0.097428
38315,NaN,0.468019,-0.089844,0.787702,-0.661234,-0.218185,-9.210406,0.419776,1.106389,0.411732,-1.100586,-0.201172,-0.123779,0.004726,-0.000905,0.007849,0.999980,0.002099,0.005532,0.002059,0.761387,0.055907,-0.637602,0.103086
38316,NaN,0.112927,0.134370,1.043349,-1.011424,-0.086387,-9.514470,0.298046,1.027994,0.407486,-1.094482,-0.194824,-0.127930,0.001180,0.001331,0.010429,0.999984,0.001490,0.005140,0.002037,0.764359,0.055213,-0.633639,0.105872
38317,NaN,0.007300,0.080638,1.073390,-1.042665,-0.157227,-9.596253,0.133195,0.966216,0.402404,-1.098877,-0.188477,-0.140381,0.000123,0.000799,0.010734,0.999986,0.000666,0.004831,0.002012,0.767984,0.053182,-0.628676,0.110177
38318,NaN,-0.088505,-0.143153,1.122382,-1.052579,-0.394778,-9.656855,-0.004613,0.907986,0.427327,-1.099121,-0.182129,-0.150879,-0.000831,-0.001433,0.011228,0.999987,-0.000023,0.004540,0.002137,0.770594,0.051321,-0.625298,0.112042
38319,NaN,-0.085441,-0.496766,1.072761,-0.917632,-0.726775,-9.626596,-0.083244,0.840928,0.482213,-1.093018,-0.177734,-0.163086,-0.000797,-0.004965,0.010733,0.999988,-0.000416,0.004205,0.002411,0.773779,0.048454,-0.620890,0.115814
38320,NaN,-0.026750,-0.749465,1.082634,-0.853517,-0.964649,-9.537994,-0.130616,0.793624,0.554447,-1.095459,-0.169189,-0.171387,-0.000204,-0.007488,0.010832,0.999988,-0.000653,0.003968,0.002772,0.775944,0.045768,-0.618023,0.117743
38321,NaN,0.062100,-0.830220,1.116436,-0.843071,-1.036306,-9.419195,-0.143574,0.750658,0.633733,-1.097656,-0.165039,-0.181641,0.000689,-0.008292,0.011168,0.999988,-0.000718,0.003753,0.003169,0.778688,0.042261,-0.614032,0.121753
38322,NaN,0.219076,-0.839681,1.150730,-0.836969,-1.026970,-9.245204,-0.117982,0.701154,0.704016,-1.091553,-0.158691,-0.187988,0.002261,-0.008382,0.011504,0.999987,-0.000590,0.003506,0.003520,0.780427,0.039214,-0.611516,0.124278
38323,NaN,0.417028,-0.759687,1.211391,-0.862525,-0.926954,-9.028282,-0.098678,0.671193,0.768775,-1.089844,-0.143799,-0.194336,0.004240,-0.007575,0.012103,0.999987,-0.000493,0.003356,0.003844,0.782741,0.035513,-0.607824,0.128859
38324,NaN,0.519821,-0.437309,1.106695,-0.815309,-0.570565,-8.978456,-0.062264,0.643844,0.822430,-1.088135,-0.135254,-0.202637,0.005252,-0.004348,0.011051,0.999986,-0.000311,0.003219,0.004112,0.784168,0.032355,-0.605483,0.132000
38325,NaN,0.630372,-0.227488,1.074085,-0.803297,-0.334528,-8.893136,0.002293,0.625232,0.860275,-1.094727,-0.124512,-0.211182,0.006347,-0.002248,0.010721,0.999986,0.000011,0.003126,0.004301,0.786160,0.028922,-0.601904,0.137213
38326,NaN,0.935862,-0.169900,0.898749,-0.575813,-0.178279,-8.651181,0.081267,0.595482,0.902707,-1.086914,-0.111816,-0.215332,0.009393,-0.001660,0.008959,0.999985,0.000406,0.002977,0.004514,0.787309,0.026116,-0.599630,0.141089
38327,NaN,1.146934,-0.306251,0.698131,-0.293210,-0.212363,-8.483947,0.186447,0.575024,0.946120,-1.091309,-0.105469,-0.227783,0.011504,-0.003015,0.006945,0.999984,0.000932,0.002875,0.004731,0.788963,0.023237,-0.596138,0.147029
38328,NaN,1.409473,-0.268438,0.504584,-0.051823,-0.068310,-8.294167,0.292885,0.531234,0.968307,-1.087402,-0.094727,-0.228027,0.014121,-0.002623,0.005004,0.999984,0.001464,0.002656,0.004842,0.789787,0.021116,-0.593930,0.151780
38329,NaN,1.959679,-0.347064,0.403350,0.210521,0.019261,-7.793094,0.373269,0.468828,0.970851,-1.083740,-0.080078,-0.230225,0.019623,-0.003383,0.003981,0.999984,0.001866,0.002344,0.004854,0.790947,0.018949,-0.590805,0.158092
38330,NaN,2.673795,-0.243236,0.168288,0.585653,0.354727,-7.211192,0.420881,0.374537,0.954218,-1.083984,-0.069336,-0.232422,0.026752,-0.002308,0.001628,0.999985,0.002104,0.001873,0.004771,0.791247,0.017499,-0.589073,0.163141
38331,NaN,4.165024,-0.110791,0.086175,1.007671,0.895025,-5.869271,0.449533,0.166402,0.912313,-1.079834,-0.067139,-0.234375,0.041655,-0.000920,0.000825,0.999987,0.002248,0.000832,0.004562,0.791340,0.016354,-0.587177,0.169521
38332,NaN,6.921784,0.393562,0.103948,1.526353,2.095736,-3.381929,0.460645,-0.191310,0.816432,-1.084473,-0.056641,-0.230713,0.069200,0.004216,0.001115,0.999989,0.002303,-0.000957,0.004082,0.790039,0.015942,-0.587603,0.174085
38333,NaN,11.213312,0.870001,0.455981,2.073827,3.628497,0.638889,0.417739,-0.698737,0.658679,-1.076172,-0.052490,-0.222412,0.112087,0.009059,0.004970,0.999986,0.002089,-0.003494,0.003293,0.787665,0.016023,-0.589399,0.178706
38334,NaN,17.099548,0.926556,0.672626,3.117711,5.203400,6.215594,0.157467,-1.241399,0.396644,-1.080322,-0.050293,-0.206055,0.170930,0.009599,0.007795,0.999978,0.000787,-0.006207,0.001983,0.783623,0.016584,-0.594166,0.180629
38335,NaN,23.095523,0.871144,-0.475440,5.298927,6.990956,11.574823,-0.024321,-1.528139,0.088713,-1.084717,-0.048340,-0.187744,0.230979,0.008813,-0.002991,0.999971,-0.000122,-0.007641,0.000444,0.779089,0.017620,-0.599931,0.181088
38336,NaN,28.817900,0.782281,-2.488262,8.087793,8.746234,16.556785,-0.162562,-1.463199,-0.498583,-1.086670,-0.052490,-0.179443,0.288369,0.007085,-0.022779,0.999970,-0.000813,-0.007316,-0.002493,0.775142,0.019807,-0.605716,0.178523
38337,NaN,34.004265,2.408454,-3.439292,9.205741,11.487099,21.125982,-0.430728,-1.177244,-0.753005,-1.082275,-0.054688,-0.161133,0.340325,0.022732,-0.032440,0.999973,-0.002154,-0.005886,-0.003765,0.771994,0.021576,-0.611102,0.173532
38338,NaN,38.419020,1.800814,-4.769456,11.300715,11.922087,25.289308,-0.713063,-0.642930,-1.001216,-1.077637,-0.065430,-0.160889,0.384424,0.015917,-0.046518,0.999976,-0.003565,-0.003215,-0.005006,0.770957,0.022441,-0.614080,0.167414
38339,NaN,33.494668,-0.719371,-4.536656,10.810277,7.751880,21.268082,-0.713364,-0.019694,-1.490235,-1.077148,-0.084473,-0.162598,0.334884,-0.009851,-0.045302,0.999966,-0.003567,-0.000098,-0.007451,0.771357,0.024526,-0.616108,0.157536
38340,NaN,23.642533,-1.740242,-3.082588,7.992379,3.853546,12.385287,-0.625215,0.279216,-2.078251,-1.072266,-0.099365,-0.168457,0.236184,-0.019954,-0.031096,0.999940,-0.003126,0.001396,-0.010391,0.773885,0.028296,-0.615232,0.147619
38341,NaN,17.774080,-1.766124,-1.285661,5.209644,1.755986,7.229933,-0.606314,0.216142,-2.346088,-1.075684,-0.124756,-0.167969,0.177503,-0.019784,-0.012991,0.999926,-0.003031,0.001081,-0.011730,0.774980,0.033120,-0.616684,0.134201
38342,NaN,15.071698,-1.978940,-0.328829,3.891786,0.523002,4.875802,-0.902294,-0.065419,-2.155570,-1.066650,-0.141846,-0.173828,0.150493,-0.021427,-0.003145,0.999932,-0.004511,-0.000327,-0.010778,0.776321,0.036313,-0.617144,0.123046
38343,NaN,14.247957,-1.595498,-0.078236,3.344541,0.379523,4.123668,-1.275791,-0.125886,-1.506037,-1.064209,-0.150391,-0.173584,0.142354,-0.017031,-0.000586,0.999951,-0.006379,-0.000629,-0.007530,0.775564,0.035794,-0.620509,0.110396
38344,NaN,11.998479,-1.757677,0.929605,1.943738,-0.421228,2.185668,-1.371467,-0.197988,-0.925912,-1.068359,-0.156738,-0.179688,0.119893,-0.018067,0.009538,0.999965,-0.006857,-0.000990,-0.004630,0.775679,0.033458,-0.621847,0.102510
38345,NaN,9.603919,-1.446880,1.218781,1.024865,-0.565173,-0.094452,-1.341876,-0.215855,-0.595359,-1.062012,-0.154541,-0.177734,0.095982,-0.014672,0.012389,0.999972,-0.006709,-0.001079,-0.002977,0.774004,0.029564,-0.625611,0.093029
38346,NaN,7.817530,0.116971,1.558529,0.031394,0.694250,-1.870807,-1.163826,-0.271044,-0.299695,-1.062012,-0.154541,-0.181885,0.078156,0.001144,0.015685,0.999981,-0.005819,-0.001355,-0.001498,0.773453,0.026124,-0.627146,0.088186
38347,NaN,7.091013,1.680219,1.508465,-0.368102,2.143744,-2.695811,-0.882059,-0.346926,-0.075351,-1.068848,-0.143799,-0.173828,0.070890,0.016842,0.015133,0.999989,-0.004410,-0.001735,-0.000377,0.771106,0.022289,-0.630988,0.082175
38348,NaN,6.469127,2.628361,1.138569,-0.288607,3.074842,-3.447450,-0.595912,-0.458415,0.058668,-1.066650,-0.145996,-0.169678,0.064657,0.026337,0.011455,0.999993,-0.002980,-0.002292,0.000293,0.769696,0.019996,-0.633003,0.080469
38349,NaN,6.109013,2.296988,0.637361,0.149118,2.766048,-3.868858,-0.399805,-0.541855,0.103785,-1.062744,-0.135498,-0.171875,0.061061,0.023014,0.006493,0.999994,-0.001999,-0.002709,0.000519,0.766688,0.017350,-0.637248,0.076183
38350,NaN,5.999469,1.350544,0.311439,0.550682,1.864974,-3.970330,-0.327169,-0.576513,0.093002,-1.067139,-0.131104,-0.161865,0.059979,0.013539,0.003265,0.999994,-0.001636,-0.002883,0.000465,0.764839,0.016019,-0.639588,0.075446
38351,NaN,6.301237,0.348109,0.001584,0.983967,0.919439,-3.647213,-0.333323,-0.657373,0.117117,-1.069092,-0.135498,-0.155518,0.063010,0.003518,0.000217,0.999993,-0.001667,-0.003287,0.000586,0.761530,0.014083,-0.643966,0.071985
38352,NaN,7.009469,-1.041833,-0.155463,1.379385,-0.370126,-2.869903,-0.452107,-0.771886,0.142080,-1.069336,-0.124756,-0.151611,0.070107,-0.010372,-0.001261,0.999990,-0.002261,-0.003859,0.000710,0.759016,0.012182,-0.647072,0.071015
38353,NaN,7.797947,-2.548954,-0.145586,1.573050,-1.816401,-1.967177,-0.470001,-0.840860,0.131831,-1.065186,-0.122803,-0.145508,0.078001,-0.025441,-0.001068,0.999988,-0.002350,-0.004204,0.000659,0.755134,0.010183,-0.651981,0.067754
38354,NaN,8.434066,-3.653761,-0.099427,1.659683,-2.861660,-1.236621,-0.473204,-0.923759,0.034880,-1.076172,-0.114258,-0.137451,0.084350,-0.036525,-0.000518,0.999987,-0.002366,-0.004619,0.000174,0.752124,0.008596,-0.655622,0.066295
38355,NaN,9.163419,-3.823407,0.046969,1.485659,-3.019972,-0.471357,-0.472455,-1.004947,-0.101073,-1.067627,-0.114258,-0.129395,0.091611,-0.038278,0.001020,0.999984,-0.002362,-0.005025,-0.000505,0.747758,0.007190,-0.660996,0.062382
38356,NaN,9.735501,-3.372635,0.178146,1.263562,-2.564807,0.087325,-0.505688,-1.079451,-0.254177,-1.076172,-0.112305,-0.114990,0.097300,-0.033844,0.002392,0.999981,-0.002528,-0.005397,-0.001271,0.744273,0.006477,-0.665169,0.059720
38357,NaN,10.091782,-3.009101,0.432949,0.847585,-2.262502,0.446322,-0.565377,-1.140397,-0.416531,-1.072021,-0.112305,-0.106934,0.100828,-0.030288,0.004990,0.999978,-0.002827,-0.005702,-0.002083,0.739515,0.005625,-0.670903,0.054545
38358,NaN,10.810832,-2.944887,0.544163,0.660920,-2.217203,1.163993,-0.526631,-1.256872,-0.572049,-1.069580,-0.116455,-0.090332,0.107986,-0.029742,0.006199,0.999973,-0.002633,-0.006284,-0.002860,0.735449,0.005940,-0.675660,0.050626
38359,NaN,11.773334,-2.727464,0.590360,0.478078,-2.039670,2.103996,-0.378464,-1.303415,-0.685034,-1.073975,-0.116455,-0.080322,0.117597,-0.027665,0.006722,0.999971,-0.001892,-0.006517,-0.003425,0.730156,0.006605,-0.681745,0.045297
38360,NaN,12.689103,-2.425009,0.720060,0.224984,-1.796186,2.998725,-0.128884,-1.327648,-0.768910,-1.071289,-0.127197,-0.065674,0.126745,-0.024733,0.008058,0.999970,-0.000644,-0.006638,-0.003845,0.725786,0.009057,-0.686577,0.042005
38361,NaN,14.323825,-2.201253,0.728422,0.065293,-1.627743,4.605706,0.200600,-1.369312,-0.787198,-1.071045,-0.133545,-0.051270,0.143096,-0.022584,0.008242,0.999968,0.001003,-0.006846,-0.003936,0.720219,0.012104,-0.692574,0.038474
38362,NaN,16.762954,-1.947189,1.187089,-0.517919,-1.449158,7.034372,0.455743,-1.391994,-0.729124,-1.066650,-0.137939,-0.034912,0.167469,-0.020111,0.012992,0.999967,0.002279,-0.006960,-0.003646,0.715486,0.016538,-0.697433,0.037341
38363,NaN,19.797166,-1.680917,1.389837,-0.964781,-1.261529,10.040650,0.643538,-1.452526,-0.560230,-1.064453,-0.144287,-0.016357,0.197816,-0.017411,0.015280,0.999965,0.003218,-0.007263,-0.002801,0.709528,0.020359,-0.703445,0.036341
38364,NaN,23.619182,-1.185827,1.124345,-1.009931,-0.790841,13.827961,0.784406,-1.481814,-0.356573,-1.070801,-0.142334,-0.004150,0.236078,-0.012328,0.012945,0.999963,0.003922,-0.007409,-0.001783,0.704273,0.024665,-0.708499,0.037682
38365,NaN,28.211417,-0.854411,0.005618,-0.385527,-0.398485,18.405979,0.937220,-1.443877,-0.187959,-1.068604,-0.142334,0.014404,0.282096,-0.008816,0.002052,0.999963,0.004686,-0.007219,-0.000940,0.698246,0.028230,-0.714225,0.039221
38366,NaN,33.471510,-0.817261,-1.771932,0.849070,-0.170847,23.704242,1.039972,-1.289551,0.009099,-1.074951,-0.142334,0.024414,0.334821,-0.008073,-0.015603,0.999966,0.005200,-0.006448,0.000045,0.693467,0.032081,-0.718501,0.042783
38367,NaN,38.123465,-0.313976,-3.517779,1.886272,0.592464,28.422780,1.079642,-0.930045,0.255757,-1.079346,-0.140137,0.040771,0.381396,-0.002469,-0.033419,0.999974,0.005398,-0.004650,0.001279,0.689133,0.034440,-0.722318,0.046543
38368,NaN,39.611642,0.514481,-4.499464,2.433718,1.712470,29.945708,1.036589,-0.310887,0.505694,-1.079590,-0.135986,0.040771,0.396171,0.006377,-0.044348,0.999982,0.005183,-0.001554,0.002528,0.687700,0.036257,-0.723224,0.051974
38369,NaN,36.798483,1.013720,-4.423558,2.293879,2.391915,27.116061,0.875430,0.180470,0.737327,-1.083984,-0.125244,0.042480,0.367904,0.011688,-0.044519,0.999983,0.004377,0.000902,0.003687,0.687229,0.035881,-0.723328,0.056802
38370,NaN,32.244151,0.787584,-3.810099,2.011974,2.271696,22.523141,0.623770,0.417278,0.791782,-1.094971,-0.118896,0.034180,0.322326,0.009272,-0.038746,0.999985,0.003119,0.002086,0.003959,0.688389,0.035042,-0.721850,0.061853
38371,NaN,28.490055,0.317480,-3.014762,1.509810,1.806300,18.741212,0.416985,0.463139,0.723178,-1.099121,-0.116699,0.032227,0.284816,0.004269,-0.030799,0.999989,0.002085,0.002316,0.003616,0.688983,0.033108,-0.721102,0.064941
38372,NaN,25.822897,-0.287731,-2.143091,0.959223,1.183389,16.055700,0.276762,0.474675,0.629475,-1.107910,-0.108154,0.031982,0.258184,-0.002034,-0.022047,0.999991,0.001384,0.002373,0.003147,0.690437,0.031638,-0.719477,0.068185
38373,NaN,23.236240,-0.457432,-1.058407,0.080728,0.879992,13.435293,0.193079,0.563796,0.535391,-1.114014,-0.114502,0.027832,0.232342,-0.003942,-0.011243,0.999992,0.000965,0.002819,0.002677,0.691499,0.029630,-0.718385,0.069812
38374,NaN,19.955949,-0.030337,0.023974,-0.787823,1.097106,10.097476,0.113444,0.748291,0.433042,-1.118408,-0.110352,0.021729,0.199559,0.000129,-0.000507,0.999990,0.000567,0.003741,0.002165,0.694011,0.028206,-0.715817,0.071827
38375,NaN,15.909651,0.621596,1.348955,-1.932517,1.389479,5.987800,0.128787,1.028269,0.282282,-1.120361,-0.116699,0.015625,0.159154,0.006432,0.012675,0.999986,0.000644,0.005141,0.001411,0.696894,0.026826,-0.712999,0.072463
38376,NaN,11.268485,0.689633,2.648044,-2.951432,1.034410,1.353491,0.215199,1.342836,0.175371,-1.124512,-0.118652,-0.004639,0.112853,0.006967,0.025731,0.999976,0.001076,0.006714,0.000877,0.701571,0.026465,-0.708251,0.074019
38377,NaN,6.286543,0.279568,3.423720,-3.479323,0.215447,-3.554294,0.295373,1.572596,0.169319,-1.128418,-0.129150,-0.014893,0.063130,0.002799,0.033746,0.999968,0.001477,0.007863,0.000847,0.706488,0.026083,-0.703252,0.075044
38378,NaN,1.671368,0.216445,2.952401,-2.940127,-0.094222,-8.108716,0.419825,1.563805,-0.087368,-1.128418,-0.131348,-0.029053,0.016945,0.002095,0.029397,0.999967,0.002099,0.007819,-0.000437,0.711939,0.027286,-0.697538,0.076412
38379,NaN,-2.298840,0.364043,2.347411,-2.424493,-0.143968,-12.055103,0.400894,1.481864,-0.213500,-1.130371,-0.137695,-0.041260,-0.022810,0.003618,0.023651,0.999970,0.002004,0.007409,-0.001067,0.716731,0.028826,-0.692530,0.076604
38380,NaN,-4.905683,0.054963,1.813558,-1.975195,-0.555144,-14.623899,0.276159,1.305070,-0.297588,-1.130127,-0.145996,-0.053467,-0.048936,0.000597,0.018456,0.999977,0.001381,0.006525,-0.001488,0.721306,0.030347,-0.687690,0.076679
38381,NaN,-6.421029,-0.592325,1.865463,-2.055860,-1.292094,-16.070790,-0.048419,1.102937,-0.333675,-1.127441,-0.156738,-0.063477,-0.064116,-0.005812,0.019010,0.999983,-0.000242,0.005515,-0.001668,0.724935,0.030916,-0.684028,0.074957
38382,NaN,-7.352961,-0.831669,2.027188,-2.299391,-1.595337,-16.956527,-0.378035,0.845773,-0.351865,-1.127441,-0.163086,-0.071533,-0.073457,-0.008149,0.020598,0.999988,-0.001890,0.004229,-0.001759,0.728008,0.030433,-0.681043,0.072518
38383,NaN,-7.445642,-0.907835,2.260249,-2.580735,-1.674502,-17.017268,-0.694869,0.550595,-0.340973,-1.123047,-0.165283,-0.073486,-0.074409,-0.008872,0.022838,0.999989,-0.003474,0.002753,-0.001705,0.729903,0.028916,-0.679483,0.068615
38384,NaN,-6.741176,-1.124430,2.741747,-3.021605,-1.872469,-16.261602,-0.866254,0.268025,-0.335774,-1.116455,-0.171631,-0.077393,-0.067394,-0.011012,0.027556,0.999988,-0.004331,0.001340,-0.001679,0.731044,0.026804,-0.678748,0.064484
38385,NaN,-5.068508,-1.238674,3.209394,-3.377062,-1.902030,-14.556298,-0.925208,0.046644,-0.321770,-1.122559,-0.175781,-0.077393,-0.050697,-0.012157,0.032162,0.999988,-0.004626,0.000233,-0.001609,0.731314,0.024579,-0.678957,0.059945
38386,NaN,-3.321613,-1.109725,3.565597,-3.638660,-1.678439,-12.799478,-0.955436,-0.038633,-0.273728,-1.124756,-0.177979,-0.079346,-0.033238,-0.010881,0.035702,0.999988,-0.004777,-0.000193,-0.001369,0.731371,0.022027,-0.679345,0.055694
38387,NaN,-2.471912,-1.237186,3.680521,-3.693108,-1.733122,-11.944427,-0.937928,-0.024622,-0.242948,-1.120361,-0.184326,-0.079346,-0.024739,-0.012169,0.036860,0.999988,-0.004690,-0.000123,-0.001215,0.731447,0.019566,-0.679665,0.051557
38388,NaN,-1.718795,-1.627233,3.584327,-3.520652,-2.038813,-11.190249,-0.829289,-0.020300,-0.258559,-1.118164,-0.184326,-0.083252,-0.017212,-0.016101,0.035909,0.999991,-0.004146,-0.000102,-0.001293,0.731517,0.017417,-0.679924,0.047790
38389,NaN,-0.809817,-1.947112,3.385836,-3.244634,-2.270227,-10.291524,-0.676750,-0.014480,-0.268056,-1.120361,-0.184326,-0.083252,-0.008127,-0.019346,0.033923,0.999993,-0.003384,-0.000072,-0.001340,0.731680,0.016042,-0.679998,0.044606
38390,NaN,-0.174862,-1.963876,3.063660,-2.892184,-2.211982,-9.687132,-0.575096,0.026247,-0.260310,-1.115723,-0.190674,-0.087402,-0.001770,-0.019548,0.030693,0.999995,-0.002875,0.000131,-0.001302,0.731868,0.014818,-0.680008,0.041699
38391,NaN,0.086319,-2.150280,2.640700,-2.448108,-2.341496,-9.454096,-0.444836,0.060662,-0.232904,-1.111572,-0.192871,-0.081055,0.000846,-0.021445,0.026454,0.999997,-0.002224,0.000303,-0.001165,0.732322,0.014165,-0.679660,0.039572
38392,NaN,0.605583,-2.299678,2.216453,-1.985464,-2.431112,-8.966798,-0.283022,0.071479,-0.208418,-1.117676,-0.197021,-0.089355,0.006040,-0.022972,0.022195,0.999998,-0.001415,0.000357,-0.001042,0.732623,0.013824,-0.679441,0.037851
38393,NaN,1.132084,-2.206469,1.721635,-1.463143,-2.281683,-8.483295,-0.157921,0.157528,-0.177863,-1.113281,-0.203369,-0.091064,0.011315,-0.022061,0.017225,0.999999,-0.000790,0.000788,-0.000889,0.733416,0.013992,-0.678628,0.037004
38394,NaN,1.357932,-2.203112,1.415837,-1.141268,-2.249308,-8.282851,0.011427,0.228707,-0.130942,-1.113281,-0.203369,-0.091064,0.013581,-0.022041,0.014142,0.999999,0.000057,0.001144,-0.000655,0.734213,0.014437,-0.677779,0.036578
38395,NaN,1.775394,-2.058619,1.181690,-0.876986,-2.076372,-7.887617,0.177030,0.296151,-0.053663,-1.115479,-0.203369,-0.099365,0.017766,-0.020601,0.011772,0.999998,0.000885,0.001481,-0.000268,0.735444,0.015340,-0.676379,0.037389
38396,NaN,2.119532,-1.868018,0.987071,-0.657298,-1.862570,-7.564358,0.351563,0.402817,0.005649,-1.115479,-0.201172,-0.097412,0.021216,-0.018697,0.009795,0.999996,0.001758,0.002014,0.000028,0.736774,0.016539,-0.674832,0.038629
38397,NaN,2.342811,-1.639321,0.955516,-0.603984,-1.625253,-7.346340,0.466561,0.508162,0.078644,-1.113037,-0.207520,-0.103271,0.023459,-0.016406,0.009457,0.999994,0.002333,0.002541,0.000393,0.738664,0.017974,-0.672588,0.040956
38398,NaN,2.291079,-1.357431,0.823311,-0.480833,-1.335433,-7.413753,0.525728,0.583903,0.151831,-1.111084,-0.203369,-0.109619,0.022945,-0.013578,0.008130,0.999992,0.002629,0.002920,0.000759,0.740542,0.019286,-0.670334,0.043337
38399,NaN,2.093867,-0.906475,0.705424,-0.401869,-0.880736,-7.629485,0.492383,0.653181,0.231399,-1.111328,-0.199219,-0.117920,0.020972,-0.009058,0.006963,0.999991,0.002462,0.003266,0.001157,0.742855,0.020236,-0.667540,0.046341
38400,NaN,1.817907,-0.731604,0.591778,-0.317861,-0.703809,-7.916949,0.428448,0.680805,0.311170,-1.111572,-0.194824,-0.124023,0.018210,-0.007300,0.005840,0.999991,0.002142,0.003404,0.001556,0.745003,0.020632,-0.664940,0.048994
38401,NaN,1.644739,-0.724383,0.562673,-0.292497,-0.695370,-8.087178,0.331504,0.696388,0.397072,-1.107422,-0.190674,-0.130127,0.016481,-0.007220,0.005557,0.999991,0.001658,0.003482,0.001985,0.747397,0.020405,-0.662019,0.052080
38402,NaN,1.521583,-0.975157,0.647022,-0.350380,-0.952446,-8.183319,0.242963,0.697517,0.463944,-1.111816,-0.186279,-0.138428,0.015261,-0.009724,0.006405,0.999990,0.001215,0.003488,0.002320,0.749552,0.019596,-0.659392,0.054688
38403,NaN,1.364248,-1.231217,0.746233,-0.425553,-1.217538,-8.305899,0.167079,0.706242,0.530413,-1.105469,-0.182129,-0.146729,0.013701,-0.012282,0.007404,0.999990,0.000835,0.003531,0.002652,0.751918,0.018293,-0.656470,0.057727
38404,NaN,1.224952,-1.436638,0.903295,-0.563571,-1.438526,-8.400818,0.144570,0.723731,0.586074,-1.103760,-0.169434,-0.148926,0.012324,-0.014337,0.008978,0.999989,0.000723,0.003619,0.002930,0.754101,0.016704,-0.653756,0.060470
38405,NaN,1.126512,-1.539358,1.066540,-0.712013,-1.555828,-8.453071,0.146289,0.748360,0.651394,-1.108154,-0.165039,-0.159424,0.011355,-0.015364,0.010612,0.999987,0.000731,0.003742,0.003257,0.756527,0.014891,-0.650662,0.063909
38406,NaN,0.975212,-1.393258,1.130914,-0.801903,-1.421669,-8.585111,0.174226,0.791382,0.705451,-1.100098,-0.156494,-0.173828,0.009846,-0.013908,0.011258,0.999986,0.000871,0.003957,0.003527,0.758851,0.013002,-0.647658,0.067202
38407,NaN,0.892311,-1.171457,1.196009,-0.891074,-1.208443,-8.653127,0.219154,0.817873,0.783866,-1.104736,-0.143799,-0.180176,0.009018,-0.011692,0.011911,0.999983,0.001096,0.004089,0.003919,0.761405,0.010985,-0.644239,0.071392
38408,NaN,0.842139,-0.999823,1.190820,-0.903129,-1.035609,-8.699704,0.248596,0.837133,0.872879,-1.100830,-0.133057,-0.188477,0.008515,-0.009976,0.011860,0.999981,0.001243,0.004186,0.004364,0.763761,0.008821,-0.641001,0.075560
38409,NaN,0.753984,-0.828417,1.140141,-0.877352,-0.862513,-8.792403,0.266054,0.850730,0.958782,-1.099121,-0.124512,-0.194824,0.007628,-0.008263,0.011358,0.999979,0.001330,0.004254,0.004794,0.766289,0.006417,-0.637388,0.080600
38410,NaN,0.725780,-0.624641,1.010366,-0.772141,-0.642752,-8.849145,0.278329,0.852377,1.057569,-1.099609,-0.111816,-0.205078,0.007334,-0.006222,0.010064,0.999976,0.001392,0.004262,0.005288,0.768550,0.003769,-0.634031,0.085564
38411,NaN,0.899415,-0.475162,0.879943,-0.623119,-0.449358,-8.708694,0.298350,0.817737,1.139933,-1.095703,-0.096924,-0.213623,0.009057,-0.004713,0.008755,0.999974,0.001492,0.004089,0.005700,0.770813,0.000941,-0.630469,0.091409
38412,NaN,1.087561,-0.378046,0.677408,-0.394897,-0.292054,-8.570381,0.295451,0.793189,1.209846,-1.093994,-0.084229,-0.226074,0.010925,-0.003724,0.006725,0.999973,0.001477,0.003966,0.006049,0.772736,-0.002097,-0.627267,0.097004
38413,NaN,1.402498,-0.312649,0.491316,-0.152051,-0.140774,-8.308305,0.282499,0.718493,1.271000,-1.088135,-0.069336,-0.234375,0.014062,-0.003044,0.004858,0.999972,0.001412,0.003592,0.006355,0.774529,-0.005351,-0.624025,0.103287
38414,NaN,1.954314,0.161829,0.333295,0.047080,0.456629,-7.877273,0.159242,0.623823,1.283760,-1.086670,-0.054443,-0.238770,0.019543,0.001741,0.003273,0.999974,0.000796,0.003119,0.006419,0.775796,-0.009061,-0.621478,0.108736
38415,NaN,2.678643,0.872028,-0.045931,0.456438,1.356939,-7.386181,-0.025661,0.484757,1.251871,-1.080811,-0.037598,-0.247314,0.026730,0.008888,-0.000525,0.999977,-0.000128,0.002424,0.006259,0.776761,-0.013312,-0.619255,0.113966
38416,NaN,3.827953,1.082444,-0.427437,1.032123,1.867165,-6.428039,-0.208890,0.252572,1.179831,-1.081299,-0.022705,-0.247559,0.038209,0.011045,-0.004334,0.999981,-0.001044,0.001263,0.005899,0.776842,-0.017919,-0.618304,0.117883
38417,NaN,5.915928,0.695241,-0.566963,1.657573,1.988660,-4.418208,-0.334470,-0.108798,1.018535,-1.077393,-0.014160,-0.239502,0.059126,0.007244,-0.005649,0.999985,-0.001672,-0.000544,0.005093,0.775991,-0.022235,-0.618571,0.121299
38418,NaN,9.829007,-0.007621,-0.514175,2.480556,2.205010,-0.546738,-0.490005,-0.622428,0.768865,-1.077881,0.000732,-0.229492,0.098305,0.000290,-0.004836,0.999985,-0.002450,-0.003112,0.003844,0.773532,-0.026137,-0.621190,0.122834
38419,NaN,15.315202,-0.594949,-0.413300,3.437047,2.908450,4.843532,-0.771819,-1.153139,0.416592,-1.067627,0.009033,-0.217285,0.153184,-0.005644,-0.003228,0.999974,-0.003859,-0.005766,0.002083,0.769605,-0.029429,-0.625903,0.122833
38420,NaN,21.603957,-0.851856,-0.254421,4.251265,4.060634,10.994792,-0.972442,-1.407216,-0.050353,-1.073730,0.004883,-0.198975,0.216048,-0.008580,-0.000982,0.999963,-0.004862,-0.007036,-0.000252,0.765059,-0.032148,-0.631901,0.119798
38421,NaN,28.530346,-0.471916,-0.730214,5.562529,5.903301,17.553969,-0.904136,-1.102881,-0.697051,-1.071533,0.000488,-0.192627,0.285319,-0.005742,-0.005704,0.999969,-0.004521,-0.005514,-0.003485,0.761799,-0.032452,-0.636706,0.114956
38422,NaN,30.829494,-0.293368,-0.677381,5.684600,6.249437,19.845654,-0.700520,-0.404348,-1.310555,-1.064697,-0.014404,-0.194336,0.308280,-0.004976,-0.006135,0.999970,-0.003503,-0.002022,-0.006553,0.761128,-0.030715,-0.638844,0.107797
38423,NaN,26.352227,-1.431081,0.243430,4.220861,3.746734,15.968706,-0.953093,0.285783,-1.499598,-1.062012,-0.027100,-0.192139,0.263408,-0.016275,0.002132,0.999960,-0.004765,0.001429,-0.007498,0.762651,-0.029672,-0.638508,0.098945
38424,NaN,20.342436,-2.237192,0.192297,3.460200,1.456196,10.305760,-1.385129,0.376423,-1.796679,-1.055420,-0.039795,-0.197998,0.203216,-0.024186,0.001704,0.999934,-0.006925,0.001882,-0.008983,0.764485,-0.029403,-0.637984,0.087610
38425,NaN,19.810051,-1.845086,-0.835293,4.367932,1.431422,9.562520,-1.858849,-0.018994,-1.954406,-1.052246,-0.065430,-0.195557,0.197908,-0.020462,-0.008150,0.999909,-0.009294,-0.000095,-0.009772,0.764861,-0.030274,-0.639211,0.074032
38426,NaN,21.436562,-2.277260,-1.990887,5.755286,0.883993,11.038055,-2.060062,-0.406166,-1.849067,-1.050049,-0.069580,-0.197510,0.214181,-0.024954,-0.019224,0.999902,-0.010300,-0.002031,-0.009245,0.763860,-0.032090,-0.641745,0.060432
38427,NaN,21.858654,-2.772964,-2.688709,6.413029,0.029136,11.437619,-2.018666,-0.347332,-1.650813,-1.045166,-0.088867,-0.193115,0.218392,-0.029800,-0.026214,0.999913,-0.010093,-0.001737,-0.008254,0.762707,-0.034501,-0.644083,0.047381
38428,NaN,19.434351,-1.626702,-2.783073,5.994391,0.539523,8.945124,-1.801661,-0.041819,-1.146909,-1.041016,-0.088867,-0.188965,0.194251,-0.017631,-0.027635,0.999943,-0.009008,-0.000209,-0.005734,0.762488,-0.037666,-0.644832,0.037210
38429,NaN,16.036657,-0.402685,-2.325316,4.582653,2.202529,5.578550,-1.375967,0.060611,-0.655521,-1.038818,-0.090820,-0.197021,0.160345,-0.004712,-0.023271,0.999971,-0.006880,0.000303,-0.003278,0.754865,0.027427,-0.645967,0.110240
38430,NaN,13.587287,1.555778,-1.952404,3.511011,3.624423,3.047433,-1.000132,0.009337,-0.337555,-1.032471,-0.088867,-0.190918,0.135898,0.015231,-0.019607,0.999986,-0.005001,0.000047,-0.001688,0.755207,0.024737,-0.646429,0.105736
38431,NaN,12.594669,2.481946,-1.083735,1.507517,4.575733,2.135126,-0.649212,-0.190221,-0.099185,-1.034424,-0.093018,-0.188965,0.125969,0.024722,-0.010798,0.999994,-0.003246,-0.000951,-0.000496,0.741101,0.084770,-0.642665,0.174830
38432,NaN,13.948446,1.888585,-0.256598,1.083481,3.927945,3.662799,-0.345704,-0.491842,0.134588,-1.038818,-0.088867,-0.184814,0.139478,0.018976,-0.002256,0.999995,-0.001729,-0.002459,0.000673,0.739545,0.083486,-0.644845,0.174009
38433,NaN,16.362752,0.924976,0.243159,0.561003,3.357846,6.220503,-0.032838,-0.695922,0.329928,-1.034912,-0.078125,-0.178955,0.163602,0.009520,0.002999,0.999993,-0.000164,-0.003480,0.001650,0.719059,0.138377,-0.638425,0.237105
38434,NaN,18.693999,0.361665,0.452892,0.689761,3.154194,8.609421,0.230030,-0.806860,0.528512,-1.037354,-0.069824,-0.166748,0.186909,0.004105,0.005288,0.999988,0.001150,-0.004034,0.002643,0.715688,0.138472,-0.641413,0.239178
38435,NaN,20.501449,-0.160232,0.658029,0.248887,2.971883,10.481880,0.463559,-0.895623,0.735251,-1.037598,-0.065430,-0.158691,0.204986,-0.000865,0.007496,0.999981,0.002318,-0.004478,0.003676,0.691653,0.186028,-0.632974,0.293861
38436,NaN,22.397801,-1.064953,0.647636,0.644130,2.619763,12.456838,0.752499,-0.867999,0.769809,-1.040039,-0.052734,-0.150635,0.223986,-0.009814,0.007410,0.999976,0.003762,-0.004340,0.003849,0.687056,0.187465,-0.635573,0.298090
38437,NaN,24.247803,-2.125499,0.743834,0.767270,2.170281,14.430317,1.162611,-0.828933,0.715503,-1.040039,-0.050781,-0.142578,0.242519,-0.020434,0.008323,0.999968,0.005813,-0.004145,0.003577,0.662059,0.229594,-0.624739,0.344480
38438,NaN,25.610957,-2.628907,1.136396,0.634292,1.761631,15.889738,1.456663,-0.732011,0.585727,-1.046631,-0.046387,-0.130371,0.256142,-0.025625,0.012113,0.999962,0.007283,-0.003660,0.002929,0.657065,0.233839,-0.625304,0.350115
38439,NaN,25.887952,-1.845732,1.539463,-0.606900,1.898284,16.110063,1.609515,-0.599221,0.433249,-1.044434,-0.046387,-0.124268,0.258871,-0.018024,0.016024,0.999961,0.008047,-0.002996,0.002166,0.633219,0.270860,-0.612200,0.388431
38440,NaN,25.822625,-1.081699,1.334550,-1.238716,2.411310,15.924618,1.621777,-0.531677,0.239631,-1.051025,-0.037842,-0.124512,0.258203,-0.010619,0.013945,0.999963,0.008109,-0.002658,0.001198,0.628905,0.276285,-0.611038,0.393419
38441,NaN,26.002416,-0.731883,0.428186,-1.406345,3.149324,15.973877,1.444263,-0.580389,0.119998,-1.053223,-0.042236,-0.110107,0.260015,-0.007197,0.004984,0.999970,0.007221,-0.002902,0.000600,0.607802,0.306832,-0.598364,0.422364
38442,NaN,27.056138,-0.756527,-0.719851,-1.019693,4.180020,16.919512,1.223401,-0.637962,0.080179,-1.061523,-0.042236,-0.104004,0.270586,-0.007416,-0.006381,0.999976,0.006117,-0.003190,0.000401,0.603831,0.311651,-0.597830,0.425278
38443,NaN,28.275753,-1.234085,-1.417593,-0.813575,4.546198,18.146536,0.990734,-0.643115,0.167351,-1.063965,-0.035889,-0.102051,0.282811,-0.012037,-0.013327,0.999982,0.004954,-0.003216,0.000837,0.584194,0.337015,-0.586587,0.448391
38444,NaN,28.317115,-1.440088,-1.640885,-0.686422,4.572757,18.209469,0.725801,-0.534170,0.380601,-1.070312,-0.035889,-0.095947,0.283240,-0.013804,-0.015703,0.999988,0.003629,-0.002671,0.001903,0.580541,0.339214,-0.587157,0.450724
38445,NaN,26.897581,-1.802486,-1.490440,-0.444416,4.027715,16.880513,0.496757,-0.414602,0.606861,-1.074951,-0.025146,-0.092041,0.269059,-0.017172,-0.014390,0.999990,0.002484,-0.002073,0.003034,0.577235,0.339822,-0.588824,0.452334
38446,NaN,24.801617,-2.022942,-0.814443,-0.480633,3.050888,14.892237,0.316700,-0.342328,0.764750,-1.085693,-0.018799,-0.090088,0.248105,-0.019268,-0.007751,0.999990,0.001583,-0.001712,0.003824,0.573952,0.339258,-0.590392,0.454886
38447,NaN,22.242933,-1.582722,0.047539,-1.112992,2.069103,12.362353,0.158105,-0.276938,0.805123,-1.090332,-0.006104,-0.086426,0.222490,-0.014932,0.000771,0.999991,0.000791,-0.001385,0.004026,0.571169,0.337972,-0.592773,0.456247
38448,NaN,19.941986,-0.405151,0.819639,-2.369940,1.500911,9.952127,0.008280,-0.226782,0.632302,-1.099121,0.002441,-0.084473,0.199422,-0.003421,0.008422,0.999994,0.000041,-0.001134,0.003162,0.569034,0.336639,-0.594469,0.457690
38449,NaN,17.783136,0.479006,1.708319,-3.336014,0.709099,7.730274,-0.028253,-0.134451,0.361090,-1.105225,-0.003906,-0.082275,0.177811,0.005114,0.017202,0.999998,-0.000141,-0.000672,0.001805,0.568006,0.335822,-0.596084,0.457468
38450,NaN,14.887282,0.457073,3.098102,-3.490872,-0.923487,4.965650,-0.001047,0.104592,0.055206,-1.113525,-0.005859,-0.084473,0.148888,0.004612,0.030903,1.000000,-0.000005,0.000523,0.000276,0.568190,0.335417,-0.595885,0.457795
38451,NaN,11.473209,0.619595,3.879859,-3.463451,-1.999131,1.636307,0.047112,0.248272,-0.372658,-1.115723,-0.008057,-0.082275,0.114791,0.005973,0.038658,0.999997,0.000236,0.001241,-0.001863,0.569859,0.336182,-0.594926,0.456405
38452,NaN,7.915067,1.162071,4.110255,-3.547286,-2.438475,-1.915660,0.045058,0.338188,-0.786120,-1.119385,-0.025146,-0.086182,0.079265,0.011300,0.040971,0.999991,0.000225,0.001691,-0.003931,0.572575,0.337877,-0.592535,0.454861
38453,NaN,5.033443,0.656959,4.288222,-2.756658,-3.133349,-4.641742,-0.040966,0.317995,-1.051838,-1.123047,-0.041992,-0.089844,0.050436,0.006313,0.042801,0.999985,-0.000205,0.001590,-0.005259,0.576128,0.340294,-0.590308,0.451457
38454,NaN,2.938058,-0.240905,4.444857,-1.730346,-3.851671,-6.554245,-0.241652,0.256957,-1.213240,-1.124512,-0.059082,-0.091797,0.029423,-0.002534,0.044414,0.999980,-0.001208,0.001285,-0.006066,0.580022,0.342595,-0.588040,0.447674
38455,NaN,0.950274,-0.840165,4.558165,-1.039607,-4.404722,-8.433066,-0.792551,0.292193,-1.201049,-1.124023,-0.073730,-0.099609,0.009519,-0.008278,0.045601,0.999973,-0.003963,0.001461,-0.006005,0.585051,0.343357,-0.587157,0.441665
38456,NaN,-1.480937,-1.180599,4.105036,-0.408132,-4.383620,-10.839889,-1.331069,0.256374,-1.212494,-1.127686,-0.088623,-0.101318,-0.014827,-0.011443,0.041146,0.999959,-0.006655,0.001282,-0.006062,0.590739,0.342446,-0.587243,0.434630
38457,NaN,-3.561824,-2.029081,3.642107,0.594077,-4.512494,-12.870797,-1.678458,0.234981,-1.308987,-1.127441,-0.099365,-0.103271,-0.035706,-0.019750,0.036630,0.999943,-0.008392,0.001175,-0.006545,0.597237,0.340997,-0.588088,0.425655
38458,NaN,-4.729419,-2.798304,3.393578,1.331963,-4.725900,-14.008431,-1.962659,0.147097,-1.291670,-1.122559,-0.116211,-0.106934,-0.047447,-0.027342,0.034241,0.999931,-0.009813,0.000735,-0.006458,0.603721,0.338601,-0.589586,0.416245
38459,NaN,-5.261000,-3.183856,2.954612,1.744224,-4.553386,-14.584190,-2.061134,0.002867,-1.312856,-1.124023,-0.133301,-0.104736,-0.052816,-0.031186,0.029871,0.999925,-0.010305,0.000014,-0.006564,0.610010,0.336376,-0.591701,0.405745
38460,NaN,-5.015721,-3.050517,2.316230,1.772263,-3.903948,-14.443551,-1.913791,-0.171900,-1.329480,-1.119385,-0.145996,-0.106445,-0.050378,-0.029948,0.023407,0.999932,-0.009569,-0.000859,-0.006647,0.615373,0.334801,-0.593835,0.395708
38461,NaN,-4.060713,-2.599726,1.579479,1.596686,-2.954035,-13.616150,-1.576434,-0.300081,-1.255579,-1.121094,-0.156738,-0.104248,-0.040793,-0.025616,0.015937,0.999948,-0.007882,-0.001500,-0.006278,0.619649,0.334376,-0.595799,0.386330
38462,NaN,-2.961646,-2.100895,1.147337,1.292634,-2.242131,-12.606101,-1.257398,-0.350964,-1.119274,-1.120850,-0.169434,-0.102051,-0.029753,-0.020770,0.011552,0.999963,-0.006287,-0.001755,-0.005596,0.622842,0.334484,-0.597425,0.378512
38463,NaN,-2.091530,-1.730110,0.918406,1.040912,-1.792939,-11.790820,-1.006186,-0.347675,-0.957210,-1.122559,-0.179932,-0.101807,-0.021014,-0.017154,0.009234,0.999974,-0.005031,-0.001738,-0.004786,0.625336,0.334949,-0.598830,0.371707
38464,NaN,-1.373605,-1.665374,0.884475,0.981505,-1.682473,-11.096600,-0.725913,-0.346149,-0.844038,-1.117676,-0.194824,-0.097412,-0.013821,-0.016563,0.008881,0.999983,-0.003630,-0.001731,-0.004220,0.627071,0.335848,-0.599841,0.366304
38465,NaN,-0.591362,-1.889089,1.050694,1.083866,-1.894576,-10.320728,-0.444377,-0.358394,-0.765981,-1.117676,-0.199219,-0.095459,-0.006005,-0.018845,0.010538,0.999989,-0.002222,-0.001792,-0.003830,0.628177,0.337473,-0.600507,0.361796
38466,NaN,0.538558,-2.258326,1.217282,1.328696,-2.174679,-9.198555,-0.189703,-0.339557,-0.680130,-1.117188,-0.209717,-0.095215,0.005288,-0.022590,0.012203,0.999992,-0.000949,-0.001698,-0.003401,0.628700,0.339535,-0.600768,0.358511
38467,NaN,1.463492,-2.918706,1.416959,1.816175,-2.652188,-8.284362,0.116088,-0.277592,-0.650158,-1.114990,-0.216064,-0.082764,0.014520,-0.029243,0.014173,0.999994,0.000580,-0.001388,-0.003251,0.628856,0.342396,-0.600338,0.356229
38468,NaN,2.164204,-3.372455,1.765355,2.060968,-3.162601,-7.593681,0.403651,-0.179609,-0.609502,-1.112549,-0.224609,-0.084717,0.021523,-0.033826,0.017605,0.999993,0.002018,-0.000898,-0.003048,0.628704,0.345816,-0.599140,0.355210
38469,NaN,2.620080,-3.356573,1.903950,2.018270,-3.259427,-7.155808,0.678520,-0.088403,-0.575099,-1.112305,-0.229004,-0.076416,0.026096,-0.033705,0.018937,0.999990,0.003393,-0.000442,-0.002875,0.628292,0.349852,-0.597218,0.355222
38470,NaN,2.896492,-3.192242,2.049057,1.852036,-3.288665,-6.891531,0.928248,0.022278,-0.539814,-1.114258,-0.239502,-0.080322,0.028881,-0.032095,0.020339,0.999986,0.004641,0.000111,-0.002699,0.627682,0.354339,-0.594550,0.356328
38471,NaN,3.035201,-2.976728,2.111975,1.687161,-3.222333,-6.762508,1.123626,0.118929,-0.492797,-1.109619,-0.245850,-0.078125,0.030291,-0.029960,0.020934,0.999981,0.005618,0.000595,-0.002464,0.626911,0.359122,-0.591287,0.358321
38472,NaN,2.971911,-2.679254,2.040002,1.511105,-3.001767,-6.833097,1.256551,0.221426,-0.422682,-1.107422,-0.252441,-0.075928,0.029685,-0.026983,0.020198,0.999977,0.006283,0.001107,-0.002113,0.626049,0.363910,-0.587573,0.361096
38473,NaN,2.571011,-2.433041,1.983545,1.353179,-2.826838,-7.235501,1.340671,0.320993,-0.349378,-1.104980,-0.258789,-0.077881,0.025699,-0.024507,0.019630,0.999975,0.006703,0.001605,-0.001747,0.625161,0.368544,-0.583483,0.364549
38474,NaN,2.050772,-2.143122,1.899700,1.154623,-2.612725,-7.751665,1.351322,0.392035,-0.253570,-1.103027,-0.256592,-0.080078,0.020517,-0.021585,0.018811,0.999974,0.006757,0.001960,-0.001268,0.624258,0.372788,-0.579316,0.368408
38475,NaN,1.636753,-1.852559,1.921249,0.903726,-2.494899,-8.151139,1.299949,0.447140,-0.138250,-1.104980,-0.258789,-0.077881,0.016397,-0.018661,0.019055,0.999976,0.006500,0.002236,-0.000691,0.623360,0.376406,-0.575233,0.372623
38476,NaN,1.368051,-1.552206,1.943337,0.644043,-2.376702,-8.400649,1.219043,0.495858,-0.002961,-1.100830,-0.260742,-0.083984,0.013728,-0.015640,0.019304,0.999978,0.006095,0.002479,-0.000015,0.622481,0.379286,-0.571402,0.377041
38477,NaN,1.179305,-1.459702,2.056309,0.532810,-2.433016,-8.569168,1.163184,0.543294,0.135017,-1.109131,-0.260742,-0.083984,0.011859,-0.014708,0.020446,0.999979,0.005816,0.002716,0.000675,0.621547,0.381480,-0.567733,0.381880
38478,NaN,1.083665,-1.369777,2.014429,0.491518,-2.349045,-8.651289,1.103120,0.607646,0.285656,-1.098877,-0.256592,-0.088135,0.010917,-0.013793,0.020035,0.999979,0.005516,0.003038,0.001428,0.620606,0.382933,-0.564275,0.387046
38479,NaN,0.903292,-1.318147,1.988236,0.469653,-2.300161,-8.815126,1.043874,0.673441,0.444344,-1.103271,-0.252197,-0.096436,0.009129,-0.013265,0.019783,0.999978,0.005219,0.003367,0.002222,0.619621,0.383597,-0.560967,0.392733
38480,NaN,0.820441,-1.157669,1.900434,0.374476,-2.148556,-8.880827,0.986649,0.725683,0.607530,-1.107666,-0.243652,-0.098633,0.008308,-0.011645,0.018917,0.999977,0.004933,0.003628,0.003038,0.618553,0.383520,-0.557937,0.398761
38481,NaN,0.794189,-1.028611,1.751497,0.329986,-1.951181,-8.895926,0.920278,0.768362,0.783967,-1.105957,-0.235352,-0.106934,0.008049,-0.010335,0.017437,0.999974,0.004601,0.003842,0.003920,0.617339,0.382627,-0.555173,0.405305
38482,NaN,0.813996,-0.976612,1.574716,0.363534,-1.754243,-8.871143,0.852132,0.810147,0.919412,-1.108154,-0.228760,-0.115234,0.008249,-0.009795,0.015672,0.999972,0.004261,0.004051,0.004597,0.616074,0.381057,-0.552692,0.412043
38483,NaN,0.975010,-0.950505,1.313473,0.452685,-1.473914,-8.716370,0.776105,0.845671,1.051032,-1.102295,-0.216064,-0.125732,0.009855,-0.009504,0.013056,0.999970,0.003880,0.004228,0.005255,0.614734,0.378780,-0.550430,0.419113
38484,NaN,1.071806,-1.101039,1.122230,0.670688,-1.323274,-8.621256,0.723155,0.888570,1.161786,-1.109131,-0.203369,-0.138184,0.010832,-0.010988,0.011135,0.999967,0.003616,0.004443,0.005809,0.613352,0.375934,-0.548369,0.426339
38485,NaN,1.250221,-1.173931,0.972490,0.798951,-1.167864,-8.439884,0.668494,0.924834,1.251359,-1.107666,-0.182129,-0.144775,0.012620,-0.011693,0.009628,0.999964,0.003342,0.004624,0.006257,0.611927,0.372556,-0.546397,0.433817
38486,NaN,1.395408,-1.148810,0.837999,0.822751,-0.990725,-8.292615,0.635380,0.958389,1.328744,-1.112305,-0.167236,-0.155273,0.014070,-0.011421,0.008276,0.999961,0.003177,0.004792,0.006644,0.610454,0.368781,-0.544544,0.441383
38487,NaN,1.612693,-1.200936,0.782063,0.887901,-0.897147,-8.063034,0.615890,0.986880,1.392444,-1.102539,-0.147949,-0.167725,0.016248,-0.011920,0.007704,0.999959,0.003079,0.004934,0.006962,0.608885,0.364662,-0.542680,0.449198
38488,NaN,1.850440,-1.176639,0.720417,0.876766,-0.762608,-7.818402,0.593668,1.013503,1.443383,-1.104980,-0.135254,-0.174072,0.018625,-0.011653,0.007075,0.999957,0.002968,0.005067,0.007217,0.607282,0.360265,-0.540872,0.457028
38489,NaN,2.110274,-1.099210,0.641692,0.813522,-0.584100,-7.560993,0.548595,1.017181,1.486050,-1.103516,-0.120361,-0.188721,0.021216,-0.010852,0.006279,0.999956,0.002743,0.005086,0.007430,0.605600,0.355555,-0.539149,0.464916
38490,NaN,2.583767,-0.918062,0.386094,0.695930,-0.163436,-7.137522,0.457943,0.968689,1.522278,-1.100098,-0.096924,-0.197266,0.025925,-0.008992,0.003715,0.999957,0.002290,0.004843,0.007611,0.603830,0.350575,-0.537838,0.472459
38491,NaN,3.530820,-0.644056,0.000339,0.500600,0.508792,-6.295346,0.306350,0.817975,1.552235,-1.096436,-0.080078,-0.203613,0.035356,-0.006166,-0.000151,0.999960,0.001532,0.004090,0.007761,0.601781,0.345360,-0.537315,0.479456
38492,NaN,5.561839,-0.106103,-0.409627,-0.013460,1.519849,-4.445909,0.063391,0.476280,1.541579,-1.099365,-0.056641,-0.210205,0.055614,-0.000631,-0.004229,0.999967,0.000317,0.002381,0.007708,0.599234,0.340261,-0.538378,0.485068
38493,NaN,9.601555,0.916080,-0.557166,-1.242692,2.871287,-0.672155,-0.405601,-0.122076,1.459255,-1.091309,-0.041748,-0.210449,0.095949,0.009850,-0.005533,0.999971,-0.002028,-0.000610,0.007296,0.596003,0.335388,-0.542178,0.488200
38494,NaN,16.665609,2.130268,-0.621761,-3.006041,4.819392,6.011335,-1.180351,-0.912223,1.234464,-1.091797,-0.024902,-0.200439,0.166547,0.022297,-0.005587,0.999953,-0.005902,-0.004561,0.006172,0.592465,0.330739,-0.549826,0.487123
38495,NaN,25.650725,3.051347,-1.296282,-4.617102,7.464470,14.516317,-1.684069,-1.690370,0.718994,-1.094482,-0.012207,-0.178223,0.256494,0.031337,-0.011056,0.999922,-0.008420,-0.008452,0.003595,0.588794,0.327847,-0.560074,0.481825
38496,NaN,39.040788,2.909659,-4.073281,-4.930544,12.173476,27.291127,-1.381958,-1.879394,-0.365910,-1.092285,-0.012207,-0.161865,0.390821,0.028116,-0.037258,0.999930,-0.006910,-0.009397,-0.001830,0.586634,0.329312,-0.568300,0.473761
38497,NaN,50.021452,3.247361,-4.426506,-6.028748,14.099207,38.115721,-1.393504,-0.480467,-0.748012,-1.092041,-0.018555,-0.161865,0.500435,0.030298,-0.043279,0.999966,-0.006967,-0.002402,-0.003740,0.589308,0.328481,-0.571779,0.466781
38498,NaN,42.946629,-2.762086,-3.070668,0.169215,9.490037,32.274586,-1.888191,1.273922,-1.067082,-1.087646,-0.024902,-0.179932,0.429104,-0.030216,-0.033164,0.999921,-0.009441,0.006369,-0.005335,0.598493,0.322972,-0.570638,0.460291
38499,NaN,29.318268,-5.968417,-1.464684,4.114362,4.487264,19.517197,-2.048696,1.157497,-1.470136,-1.083008,-0.037598,-0.187988,0.292644,-0.061994,-0.015714,0.999904,-0.010243,0.005787,-0.007350,0.608468,0.318324,-0.569501,0.451779
38500,NaN,27.574114,-2.924174,-1.348156,1.949190,5.169305,17.392951,-2.561750,0.724566,-2.071435,-1.080322,-0.052490,-0.199951,0.275367,-0.032273,-0.014079,0.999858,-0.012808,0.003623,-0.010357,0.619198,0.314751,-0.569709,0.439269
38501,NaN,27.941421,-3.295640,-1.346397,2.859706,4.851805,17.785217,-3.085686,0.308746,-2.146920,-1.075684,-0.067383,-0.203857,0.279017,-0.036160,-0.013353,0.999822,-0.015428,0.001544,-0.010734,0.629553,0.310577,-0.572115,0.424135
38502,NaN,27.626264,-4.011044,-1.291227,3.964079,4.107168,17.543487,-3.542673,0.165479,-1.693566,-1.075439,-0.069580,-0.207764,0.275898,-0.042671,-0.012400,0.999807,-0.017712,0.000827,-0.008467,0.638994,0.303863,-0.576369,0.408843
38503,NaN,25.160284,-3.366748,-2.406613,4.266525,4.686859,14.885273,-3.653828,0.360428,-0.832403,-1.073486,-0.067383,-0.209961,0.251415,-0.035152,-0.023886,0.999823,-0.018268,0.001802,-0.004162,0.647175,0.293791,-0.581403,0.396008
38504,NaN,19.885235,-0.961247,-2.144703,2.187616,4.716507,9.524180,-3.412519,0.490663,0.015156,-1.075928,-0.056641,-0.212158,0.198800,-0.009967,-0.021767,0.999851,-0.017062,0.002453,0.000076,0.653485,0.281693,-0.586512,0.386796
38505,NaN,14.988734,2.091566,-1.072355,-0.951347,4.695516,4.582883,-2.910758,0.395533,0.475254,-1.074463,-0.041748,-0.220703,0.149815,0.021110,-0.011326,0.999889,-0.014553,0.001978,0.002376,0.657750,0.269990,-0.591545,0.380190
38506,NaN,12.818475,3.511820,0.133680,-2.814348,4.263939,2.457621,-2.321278,0.290429,0.658215,-1.081055,-0.033203,-0.224854,0.128070,0.035551,0.000740,0.999926,-0.011606,0.001452,0.003291,0.660440,0.259840,-0.595852,0.375850
38507,NaN,11.780995,3.861895,1.610799,-3.995616,3.242428,1.581196,-1.675951,0.260429,0.730638,-1.079590,-0.014160,-0.231201,0.117688,0.039181,0.015628,0.999957,-0.008380,0.001302,0.003653,0.661997,0.251634,-0.599150,0.373442
38508,NaN,10.730640,2.935540,2.737389,-3.988663,1.731352,0.786793,-0.973367,0.240620,0.808867,-1.081787,-0.007812,-0.235596,0.107219,0.029921,0.027100,0.999979,-0.004867,0.001203,0.004044,0.662415,0.245537,-0.601181,0.373496
38509,NaN,9.713733,1.357596,3.022874,-2.965754,0.443617,0.002831,-0.277851,0.215960,0.696360,-1.082275,0.002930,-0.233643,0.097122,0.013956,0.030105,0.999992,-0.001389,0.001080,0.003482,0.662115,0.242132,-0.601907,0.375077
38510,NaN,8.732394,0.692561,3.018524,-2.467173,-0.098581,-0.882462,0.199608,0.282622,0.615409,-1.086426,0.004883,-0.233643,0.087345,0.007164,0.030069,0.999994,0.000998,0.001413,0.003077,0.661563,0.240412,-0.601343,0.378052
38511,NaN,7.826315,0.483390,2.806949,-2.182209,-0.210732,-1.777934,0.502082,0.296242,0.601982,-1.090820,0.009277,-0.239990,0.078290,0.004999,0.027966,0.999991,0.002510,0.001481,0.003010,0.660726,0.239719,-0.600194,0.381763
38512,NaN,6.585825,-0.228556,2.348550,-1.344388,-0.506050,-2.965987,0.216481,0.270238,0.821568,-1.095459,0.017822,-0.242188,0.065899,-0.002040,0.023394,0.999990,0.001082,0.001351,0.004108,0.659700,0.237454,-0.599871,0.385444
38513,NaN,5.739711,-1.931753,1.577229,0.457040,-1.054323,-3.661041,-0.011681,0.272605,1.051752,-1.089600,0.030518,-0.248535,0.057519,-0.019014,0.015695,0.999985,-0.000058,0.001363,0.005259,0.658518,0.233752,-0.600286,0.389065
38514,NaN,5.234422,-4.916222,1.609467,2.774561,-2.889047,-3.639099,-0.094226,0.458469,1.267760,-1.088135,0.051758,-0.250977,0.052691,-0.048821,0.015997,0.999977,-0.000471,0.002292,0.006339,0.657519,0.228743,-0.600432,0.393480
38515,NaN,4.376370,-6.364762,1.905238,3.724662,-4.108025,-4.108056,-0.163708,0.502935,1.250709,-1.088379,0.060303,-0.259277,0.044208,-0.063357,0.018994,0.999977,-0.000819,0.002515,0.006253,0.656759,0.223471,-0.600565,0.397555
38516,NaN,4.101645,-4.693840,1.573831,2.588666,-2.889129,-4.685896,0.174649,0.374347,0.875508,-1.086426,0.066650,-0.263428,0.041251,-0.046772,0.015620,0.999988,0.000873,0.001872,0.004378,0.655936,0.220673,-0.599964,0.401365
38517,NaN,4.045115,-2.662943,1.893558,0.784321,-1.929071,-5.047903,0.369129,0.478662,0.537847,-1.088623,0.068848,-0.267578,0.040568,-0.026555,0.018790,0.999992,0.001846,0.002393,0.002689,0.655889,0.219318,-0.598287,0.404675
38518,NaN,3.770415,-0.625519,2.508730,-1.182500,-1.274973,-5.584555,0.497474,0.548752,0.217305,-1.082275,0.068848,-0.275635,0.037780,-0.006276,0.024968,0.999993,0.002487,0.002744,0.001087,0.656537,0.219191,-0.595719,0.407472
38519,NaN,3.420469,1.108364,3.206286,-2.949674,-0.904583,-6.112767,0.471363,0.627319,-0.055899,-1.082275,0.068848,-0.283936,0.034308,0.010999,0.031981,0.999992,0.002357,0.003137,-0.000279,0.658005,0.219635,-0.592672,0.409304
38520,NaN,2.925710,2.829160,3.434455,-4.422389,-0.230048,-6.854843,0.170156,0.684767,-0.250092,-1.080078,0.064453,-0.285889,0.029410,0.028226,0.034268,0.999993,0.000851,0.003424,-0.001250,0.660351,0.219537,-0.589797,0.409731
38521,NaN,2.378639,4.293836,3.144556,-5.386307,0.697016,-7.694938,-0.400360,0.651298,-0.357754,-1.084229,0.064697,-0.291992,0.023965,0.042958,0.031282,0.999991,-0.002002,0.003256,-0.001789,0.663452,0.217950,-0.588095,0.408011
38522,NaN,2.297310,5.115949,3.111697,-6.001359,1.230389,-7.914689,-1.198946,0.577418,-0.434202,-1.088623,0.066650,-0.298096,0.023173,0.051294,0.030743,0.999976,-0.005995,0.002887,-0.002171,0.667323,0.214071,-0.588142,0.403661
38523,NaN,2.673049,5.110296,2.740256,-5.744453,1.724664,-7.623034,-2.132967,0.478569,-0.532596,-1.082520,0.071045,-0.304443,0.026932,0.051319,0.026792,0.999937,-0.010665,0.002393,-0.002663,0.672072,0.207566,-0.590255,0.396024
38524,NaN,3.365974,3.974569,1.864646,-4.268944,2.024911,-6.935524,-3.031126,0.373990,-0.640270,-1.080322,0.073242,-0.312500,0.033821,0.039913,0.017979,0.999878,-0.015155,0.001870,-0.003201,0.677503,0.198508,-0.594269,0.385264
38525,NaN,4.235183,2.465065,0.929973,-2.453615,2.116556,-6.020965,-3.776900,0.307177,-0.773799,-1.084961,0.083740,-0.304688,0.042461,0.024655,0.008769,0.999813,-0.018883,0.001536,-0.003869,0.683565,0.187416,-0.599624,0.371570
38526,NaN,5.205475,1.020654,-0.111768,-0.607801,2.223628,-5.033908,-4.307335,0.267892,-0.924509,-1.087402,0.092285,-0.308838,0.052099,0.009938,-0.001403,0.999757,-0.021535,0.001339,-0.004622,0.689952,0.174928,-0.605703,0.355655
38527,NaN,6.126638,-0.405837,-1.458863,1.447832,2.360540,-4.141809,-4.648703,0.181110,-1.041833,-1.089844,0.098633,-0.298828,0.061230,-0.004716,-0.014540,0.999716,-0.023241,0.000905,-0.005209,0.696262,0.161707,-0.612258,0.337949
38528,NaN,6.669365,-2.092904,-3.574809,4.246705,2.474882,-3.691034,-4.689264,0.064958,-1.144582,-1.087646,0.098633,-0.298828,0.066558,-0.022141,-0.035260,0.999709,-0.023444,0.000325,-0.005722,0.701980,0.148734,-0.618856,0.319562
