// Start Time: Unknown
// Update Rate: 100.0Hz
// Filter Profile: human (46.1)
// Firmware Version: 4.4.0
PacketCounter,SampleTimeFine,Acc_X,Acc_Y,Acc_Z,FreeAcc_X,FreeAcc_Y,FreeAcc_Z,Gyr_X,Gyr_Y,Gyr_Z,Mag_X,Mag_Y,Mag_Z,VelInc_X,VelInc_Y,VelInc_Z,OriInc_q0,OriInc_q1,OriInc_q2,OriInc_q3,Quat_q0,Quat_q1,Quat_q2,Quat_q3
08556,NaN,7.524276,0.772540,2.660875,0.000000,-0.000000,-1.794573,0.324385,1.732051,-0.298708,-0.972168,-0.266357,0.112793,0.075481,0.007570,0.025968,0.999960,0.001622,0.008660,-0.001494,-0.198627,-0.575192,0.084973,-0.788975
08557,NaN,8.659485,1.380744,3.158450,0.000000,0.000000,-0.492493,0.616659,2.068047,-0.194571,-0.972412,-0.261963,0.102051,0.086929,0.013627,0.030729,0.999941,0.003083,0.010340,-0.000973,-0.171444,-0.578001,0.032602,-0.797156
08558,NaN,10.686254,2.550430,4.974662,0.656627,-1.441870,2.142719,0.754989,2.342770,-0.275071,-0.976562,-0.272705,0.076904,0.107471,0.025172,0.048586,0.999923,0.003775,0.011714,-0.001375,-0.189975,-0.571702,0.057737,-0.796073
08559,NaN,13.385270,5.347183,5.829635,-0.597298,-3.436604,5.338675,0.802006,2.572945,-0.597083,-0.974365,-0.274658,0.053711,0.134748,0.052841,0.056779,0.999905,0.004010,0.012864,-0.002985,-0.190784,-0.562341,0.050389,-0.803016
08560,NaN,16.264415,6.145384,5.575128,-2.287756,-3.000231,8.051239,0.672933,2.948846,-1.040745,-0.980469,-0.289795,0.028320,0.163761,0.060421,0.053547,0.999872,0.003365,0.014744,-0.005204,-0.194992,-0.551015,0.040672,-0.810374
08561,NaN,18.891342,5.367427,5.663957,-3.192099,-1.149990,10.342184,0.653083,3.255427,-1.438682,-0.969727,-0.296143,-0.001221,0.190182,0.052131,0.053723,0.999836,0.003265,0.016276,-0.007193,-0.199652,-0.538664,0.030882,-0.817940
08562,NaN,20.178170,4.294341,5.279815,-4.016327,0.898678,11.079573,0.329798,3.333825,-1.640047,-0.967285,-0.308838,-0.032715,0.202968,0.041199,0.049490,0.999826,0.001649,0.016668,-0.008200,-0.205082,-0.526650,0.019220,-0.824750
08563,NaN,20.004182,3.148026,4.919882,-4.385098,2.520275,10.402487,0.108061,3.329645,-1.533241,-0.960449,-0.334473,-0.060059,0.201057,0.029916,0.045874,0.999832,0.000540,0.016647,-0.007666,-0.211405,-0.513090,0.011320,-0.831817
08564,NaN,17.658346,3.901313,4.127516,-4.794747,1.647569,8.029328,-0.051777,3.099660,-1.313555,-0.960449,-0.336426,-0.093994,0.177446,0.037860,0.038520,0.999858,-0.000259,0.015498,-0.006567,-0.216847,-0.503316,0.005022,-0.836436
08565,NaN,14.515536,5.805602,2.749255,-5.810427,-0.553332,4.947984,-0.514780,2.846546,-1.042057,-0.947754,-0.342773,-0.119385,0.145826,0.057364,0.025272,0.999882,-0.002574,0.014232,-0.005210,-0.222546,-0.490820,0.001466,-0.842358
08566,NaN,10.921362,6.589353,1.260552,-6.052916,-2.086919,1.290455,-1.205329,2.593160,-0.767344,-0.943115,-0.353516,-0.142578,0.109613,0.065542,0.010790,0.999890,-0.006026,0.012965,-0.003837,-0.228279,-0.483524,0.002551,-0.845036
08567,NaN,7.167657,5.490811,0.168313,-5.162669,-2.158565,-2.725026,-1.715646,2.087483,-0.539319,-0.934814,-0.351318,-0.167969,0.071833,0.054722,0.000464,0.999905,-0.008578,0.010437,-0.002697,-0.234711,-0.472707,0.006113,-0.849365
08568,NaN,6.564592,2.653320,1.097621,-3.078969,-0.019359,-3.343030,-1.615297,1.590980,-0.263102,-0.935059,-0.351074,-0.191162,0.065764,0.026531,0.010239,0.999935,-0.008076,0.007955,-0.001315,-0.236537,-0.469390,0.004960,-0.850705
08569,NaN,7.101936,0.077645,2.177113,-1.522009,2.259721,-2.901846,-1.300169,1.241651,-0.069143,-0.937012,-0.353271,-0.206055,0.071153,0.000891,0.021324,0.999960,-0.006501,0.006208,-0.000346,-0.239904,-0.462554,0.008859,-0.853470
08570,NaN,7.632538,-0.880161,3.040471,-0.691806,3.118673,-2.192358,-0.877218,1.068505,0.089651,-0.937256,-0.348877,-0.212402,0.076490,-0.008635,0.030034,0.999976,-0.004386,0.005342,0.000448,-0.240418,-0.462186,0.009448,-0.853519
08571,NaN,7.309534,-0.417127,2.822802,-0.990611,2.631253,-2.486966,-0.652986,0.922264,0.176709,-0.928955,-0.346680,-0.220947,0.073228,-0.004015,0.027904,0.999984,-0.003265,0.004611,0.000884,-0.241213,-0.457449,0.011534,-0.855818
08572,NaN,6.662917,0.014554,2.236991,-1.300914,2.090811,-3.229780,-0.456607,0.722304,0.213827,-0.931152,-0.344482,-0.235596,0.066709,0.000268,0.022129,0.999990,-0.002283,0.003612,0.001069,-0.244981,-0.459008,0.018309,-0.853792
08573,NaN,5.936922,-0.257816,2.033689,-1.048706,2.088463,-3.982775,-0.063604,0.400599,0.201348,-0.931152,-0.344482,-0.235596,0.059412,-0.002512,0.020219,0.999997,-0.000318,0.002003,0.001007,-0.244303,-0.457200,0.018551,-0.854950
08574,NaN,5.470439,0.025716,2.320991,-0.665086,1.526395,-4.108203,0.388392,0.014433,0.189242,-0.933350,-0.342529,-0.231445,0.054706,0.000264,0.023206,0.999998,0.001942,0.000072,0.000946,-0.249043,-0.462605,0.025981,-0.850470
08575,NaN,4.899965,1.083649,2.575594,-0.671343,0.300842,-4.220161,0.694774,-0.400579,0.171738,-0.939453,-0.344727,-0.216553,0.048939,0.010789,0.025892,0.999992,0.003474,-0.002003,0.000859,-0.246651,-0.465148,0.023922,-0.849840
08576,NaN,4.751348,1.151107,2.497313,-0.608559,0.150285,-4.358902,0.834349,-0.757450,0.164168,-0.935303,-0.344727,-0.208252,0.047409,0.011445,0.025201,0.999984,0.004172,-0.003787,0.000821,-0.250227,-0.473801,0.030302,-0.843789
08577,NaN,4.437401,0.998377,2.436525,-0.398021,0.164434,-4.670883,0.956427,-1.035465,0.252650,-0.939697,-0.338379,-0.195557,0.044234,0.009922,0.024642,0.999974,0.004782,-0.005177,0.001263,-0.246732,-0.479316,0.028160,-0.841776
08578,NaN,4.088642,1.577248,2.471337,-0.388021,-0.545207,-4.826316,1.022114,-1.253243,0.392144,-0.941895,-0.333984,-0.185059,0.040699,0.015725,0.025049,0.999965,0.005111,-0.006266,0.001961,-0.247349,-0.489445,0.033107,-0.835563
08579,NaN,3.621475,2.804870,2.472661,-0.668349,-1.831140,-4.986104,0.960485,-1.463149,0.539833,-0.946045,-0.334229,-0.161621,0.035956,0.028026,0.025125,0.999958,0.004802,-0.007316,0.002699,-0.242491,-0.496636,0.032224,-0.832774
08580,NaN,3.018186,4.353725,2.368338,-1.100766,-3.443818,-5.273868,0.711865,-1.683563,0.637201,-0.947998,-0.334229,-0.146973,0.029841,0.043547,0.024091,0.999953,0.003559,-0.008418,0.003186,-0.239833,-0.507302,0.035622,-0.826956
08581,NaN,2.401098,4.558117,2.180466,-1.035015,-3.841887,-5.880250,0.316848,-1.782466,0.733399,-0.950439,-0.321289,-0.134277,0.023648,0.045633,0.022089,0.999952,0.001584,-0.008912,0.003667,-0.235668,-0.514897,0.038307,-0.823331
08582,NaN,1.788495,3.699485,1.911730,-0.556473,-3.251873,-6.705466,-0.164745,-1.920344,0.787635,-0.963379,-0.308594,-0.111084,0.017555,0.037080,0.019256,0.999946,-0.000824,-0.009602,0.003938,-0.228686,-0.524336,0.036789,-0.819403
08583,NaN,0.936121,2.080418,1.225249,-0.142631,-1.924737,-8.086256,-0.474563,-2.089812,0.818724,-0.961426,-0.302246,-0.090088,0.009148,0.020871,0.012299,0.999934,-0.002373,-0.010449,0.004094,-0.226176,-0.532170,0.043267,-0.814719
08584,NaN,0.694252,1.401831,1.137192,0.183964,-1.385500,-8.475998,-0.378646,-2.169099,0.882910,-0.969971,-0.302246,-0.079346,0.006757,0.014070,0.011419,0.999930,-0.001893,-0.010845,0.004414,-0.219879,-0.541953,0.043461,-0.809970
08585,NaN,0.865287,0.309356,0.845875,0.338108,-0.282043,-8.643932,-0.066290,-2.205132,0.925286,-0.966064,-0.287354,-0.058350,0.008544,0.003136,0.008552,0.999928,-0.000331,-0.011025,0.004626,-0.215817,-0.550570,0.048658,-0.804940
08586,NaN,2.026106,-0.677439,1.236517,0.743979,0.837193,-7.613053,0.208035,-2.201792,0.963520,-0.972412,-0.283203,-0.030762,0.020156,-0.006690,0.012580,0.999927,0.001040,-0.011009,0.004817,-0.204806,-0.560896,0.042034,-0.801051
08587,NaN,3.476460,1.655299,2.317167,0.463297,-1.257157,-5.523286,0.209948,-2.214411,0.994824,-0.970459,-0.272461,-0.018311,0.034422,0.016700,0.023572,0.999926,0.001050,-0.011072,0.004974,-0.199752,-0.569729,0.046247,-0.795845
08588,NaN,5.419051,4.186833,2.975598,-0.230323,-3.299809,-3.118971,-0.066730,-2.161540,0.953969,-0.977051,-0.263916,0.004883,0.053664,0.042135,0.030324,0.999930,-0.000334,-0.010807,0.004770,-0.190535,-0.579337,0.042201,-0.791381
08589,NaN,7.686799,5.595001,3.263520,-0.927144,-4.236921,-0.744770,-0.333000,-2.030932,0.911217,-0.972900,-0.255371,0.023926,0.076276,0.056354,0.033318,0.999937,-0.001665,-0.010154,0.004556,-0.187454,-0.586826,0.048090,-0.786246
08590,NaN,9.594474,6.524707,4.528405,-0.274506,-5.049213,1.569682,-0.531485,-1.743525,0.866355,-0.977539,-0.246826,0.034424,0.095262,0.065782,0.045942,0.999949,-0.002657,-0.008717,0.004332,-0.178999,-0.594111,0.041981,-0.783089
08591,NaN,10.614273,6.288310,6.578613,1.550802,-5.343900,3.013736,-0.765922,-1.511786,0.787250,-0.975342,-0.244873,0.047119,0.105393,0.063552,0.066342,0.999956,-0.003830,-0.007559,0.003936,-0.177866,-0.599154,0.048669,-0.779108
08592,NaN,10.836859,5.666720,7.919469,3.264565,-4.955841,3.493121,-1.069098,-1.496790,0.663519,-0.979736,-0.240479,0.055420,0.107584,0.057450,0.079696,0.999952,-0.005345,-0.007484,0.003318,-0.170241,-0.605006,0.038296,-0.776865
08593,NaN,10.914601,5.030431,7.198185,2.860175,-4.355671,3.190791,-1.212057,-1.588165,0.588344,-0.971191,-0.234131,0.070312,0.108422,0.051062,0.072537,0.999946,-0.006060,-0.007941,0.002942,-0.171309,-0.609997,0.046133,-0.772288
08594,NaN,10.947628,4.897057,6.013521,2.131284,-3.721482,2.899438,-1.037717,-1.740735,0.525033,-0.971191,-0.231934,0.083008,0.108819,0.049571,0.060828,0.999945,-0.005188,-0.008704,0.002625,-0.162502,-0.616752,0.031333,-0.769564
08595,NaN,11.677368,4.240156,4.902224,1.288070,-2.836657,3.174274,-0.915515,-1.954470,0.401038,-0.969238,-0.223389,0.099854,0.116203,0.042862,0.049964,0.999940,-0.004577,-0.009772,0.002005,-0.163466,-0.623428,0.037678,-0.763673
08596,NaN,12.016463,2.123961,3.459744,0.730923,-0.256744,2.847154,-0.829175,-1.951735,0.269347,-0.967285,-0.223633,0.110352,0.119791,0.021548,0.035679,0.999943,-0.004146,-0.009758,0.001347,-0.155602,-0.630025,0.022775,-0.760485
08597,NaN,11.905406,-0.491179,2.500375,0.723337,2.324472,2.116354,-0.526096,-1.627166,0.145444,-0.967041,-0.223633,0.123047,0.118849,-0.004758,0.025984,0.999963,-0.002630,-0.008136,0.000727,-0.156516,-0.635762,0.026498,-0.755386
08598,NaN,12.687096,-2.448157,3.437972,2.095885,4.360368,2.652001,-0.526520,-0.922888,0.024323,-0.962891,-0.225830,0.125000,0.126713,-0.024375,0.035029,0.999986,-0.002633,-0.004614,0.000122,-0.154309,-0.638207,0.012786,-0.754133
08599,NaN,13.336099,-4.141737,4.361154,3.408294,5.874816,3.144737,-0.587549,-0.321983,-0.163630,-0.962646,-0.232178,0.123047,0.133257,-0.041398,0.043948,0.999994,-0.002938,-0.001610,-0.000818,-0.156780,-0.638973,0.014727,-0.752939
08600,NaN,14.748730,-3.957583,5.022818,3.744979,6.261877,4.511417,-0.176538,0.117064,-0.430558,-0.960449,-0.229980,0.125244,0.147431,-0.039849,0.050177,0.999997,-0.000883,0.000585,-0.002153,-0.155596,-0.638533,-0.002292,-0.753698
08601,NaN,16.969016,-3.944333,1.060186,-0.410301,7.634632,5.877165,0.570551,0.463204,-0.597685,-0.958252,-0.234375,0.123047,0.169595,-0.039980,0.010095,0.999989,0.002853,0.002316,-0.002988,-0.156022,-0.637215,-0.006712,-0.754698
08602,NaN,15.581383,-2.513105,-1.917730,-3.548572,6.621577,4.199269,1.300595,-0.510020,-0.411682,-0.954102,-0.234375,0.131592,0.155810,-0.025328,-0.018944,0.999973,0.006503,-0.002550,-0.002058,-0.150228,-0.638635,-0.019920,-0.754440
08603,NaN,14.872466,0.031097,-0.052455,-2.044260,3.733191,4.437784,0.702874,-1.090094,-0.251512,-0.958008,-0.240723,0.146240,0.148725,0.000124,0.000287,0.999978,0.003514,-0.005450,-0.001258,-0.149040,-0.643233,-0.022556,-0.750686
08604,NaN,10.874165,2.973695,-0.360037,-2.270350,-0.050495,1.235476,0.673244,-0.812459,-0.062518,-0.951904,-0.234375,0.146240,0.108764,0.029714,-0.003059,0.999986,0.003366,-0.004062,-0.000313,-0.147100,-0.646824,-0.023956,-0.747935
08605,NaN,11.369542,4.677636,-3.156127,-5.308686,-1.135071,1.660640,0.574666,-0.066674,-0.069164,-0.951660,-0.240723,0.150635,0.113722,0.046827,-0.031389,0.999996,0.002873,-0.000333,-0.000346,-0.145509,-0.647482,-0.026281,-0.747598
08606,NaN,11.516864,3.393495,-1.779236,-3.738090,-0.039832,1.734803,-0.199370,0.272299,-0.249576,-0.955811,-0.242920,0.144287,0.115186,0.033773,-0.017983,0.999998,-0.000997,0.001361,-0.001248,-0.147829,-0.646452,-0.027158,-0.748004
08607,NaN,18.608012,2.636126,2.720037,-0.134728,1.874496,9.083678,-1.156278,0.466749,-0.397650,-0.953613,-0.245117,0.137939,0.186195,0.026146,0.026614,0.999979,-0.005781,0.002334,-0.001988,-0.152989,-0.643779,-0.024464,-0.749362
08608,NaN,26.177668,5.891346,11.383163,6.477047,-0.633437,18.598315,-2.418587,0.953939,-0.491712,-0.951416,-0.255615,0.116943,0.262459,0.059629,0.111863,0.999912,-0.012093,0.004770,-0.002458,-0.164303,-0.638801,-0.016735,-0.751437
08609,NaN,24.362163,5.246186,5.083535,0.274624,0.725210,15.608731,-2.157458,1.934067,-0.580538,-0.955322,-0.268555,0.095703,0.244246,0.052281,0.047911,0.999891,-0.010787,0.009670,-0.002903,-0.173197,-0.629639,-0.012072,-0.757239
08610,NaN,10.482706,2.822376,-1.061116,-3.343430,0.520572,0.556736,0.090598,2.175304,-0.494773,-0.955322,-0.268311,0.076904,0.104773,0.027970,-0.011738,0.999938,0.000453,0.010876,-0.002474,-0.175186,-0.621860,-0.015686,-0.763122
08611,NaN,3.645908,-4.888657,1.879735,2.362612,5.289430,-7.136071,0.595692,1.669558,-0.347504,-0.953125,-0.274902,0.064209,0.036528,-0.049005,0.018347,0.999959,0.002978,0.008348,-0.001737,-0.174524,-0.615953,-0.020503,-0.767934
08612,NaN,4.297573,-7.757615,1.484790,2.580459,8.238079,-7.296820,-0.484707,1.120891,-0.072141,-0.953369,-0.266113,0.053467,0.043031,-0.077556,0.014795,0.999981,-0.002424,0.005604,-0.000361,-0.177768,-0.611938,-0.016066,-0.770501
08613,NaN,3.276371,-5.535478,-2.726672,-1.804485,6.667893,-8.766799,0.065767,0.428309,0.234393,-0.955566,-0.268311,0.053467,0.032770,-0.055307,-0.027355,0.999997,0.000329,0.002142,0.001172,-0.176631,-0.610357,-0.015985,-0.772017
08614,NaN,8.189236,-1.084435,-3.132579,-4.227313,3.987878,-3.158445,1.024941,0.020589,0.389482,-0.957764,-0.261963,0.055664,0.081910,-0.010524,-0.031389,0.999985,0.005125,0.000103,0.001947,-0.175216,-0.612016,-0.011054,-0.771112
08615,NaN,11.942073,3.156136,-0.387850,-3.434730,0.472444,2.049176,1.294342,0.138721,0.435256,-0.957764,-0.257568,0.062012,0.119349,0.031846,-0.003756,0.999976,0.006472,0.000694,0.002176,-0.169568,-0.612618,-0.014835,-0.771833
08616,NaN,13.104555,5.806018,1.168000,-2.814823,-2.113383,4.130536,1.085174,0.135084,0.392019,-0.962402,-0.251221,0.063965,0.130939,0.058253,0.011907,0.999983,0.005426,0.000675,0.001960,-0.168552,-0.614382,-0.009681,-0.770734
08617,NaN,12.732930,7.259387,2.556283,-1.731655,-3.887111,4.443963,1.029879,0.016062,0.223148,-0.960205,-0.251221,0.066162,0.127250,0.072603,0.025926,0.999986,0.005149,0.000080,0.001116,-0.164528,-0.615183,-0.012980,-0.770916
08618,NaN,10.675087,8.394471,2.799560,-1.349228,-5.625580,2.788653,1.059940,-0.058203,0.008452,-0.958008,-0.251221,0.070312,0.106739,0.083799,0.028471,0.999986,0.005300,-0.000291,0.000042,-0.164503,-0.617557,-0.010564,-0.769058
08619,NaN,7.935756,8.325199,2.993041,-0.553360,-6.310623,0.242787,0.736420,-0.298157,-0.180282,-0.958252,-0.244873,0.070312,0.079387,0.083069,0.030355,0.999992,0.003682,-0.001491,-0.000901,-0.162940,-0.619288,-0.013708,-0.767948
08620,NaN,6.108134,7.487262,3.159516,0.179286,-6.042324,-1.639043,0.532972,-0.642237,-0.373282,-0.959961,-0.255615,0.080811,0.061119,0.074674,0.031991,0.999990,0.002665,-0.003211,-0.001866,-0.164770,-0.623038,-0.012713,-0.764534
08621,NaN,5.448116,5.594464,4.052615,1.670582,-4.569656,-2.482572,0.423450,-0.751248,-0.467492,-0.955566,-0.257812,0.091553,0.054459,0.055731,0.040849,0.999988,0.002117,-0.003756,-0.002337,-0.165287,-0.626216,-0.015170,-0.761777
08622,NaN,5.531006,3.828497,5.406123,3.421108,-3.126006,-2.532610,-0.053496,-0.684936,-0.476347,-0.951172,-0.261963,0.095703,0.055216,0.038168,0.054240,0.999991,-0.000267,-0.003425,-0.002382,-0.168144,-0.629167,-0.014650,-0.758724
08623,NaN,5.631847,3.380312,4.701096,2.871218,-2.535953,-2.701465,-0.290713,-0.624339,-0.449864,-0.948975,-0.266357,0.102051,0.056247,0.033745,0.047138,0.999992,-0.001454,-0.003122,-0.002249,-0.170812,-0.631247,-0.014439,-0.756401
08624,NaN,5.478643,3.706219,3.949887,2.121831,-2.733996,-2.929649,-0.135596,-0.581628,-0.413934,-0.944580,-0.268555,0.100098,0.054748,0.036976,0.039633,0.999993,-0.000678,-0.002908,-0.002070,-0.173024,-0.633221,-0.014639,-0.754241
08625,NaN,5.560370,3.829183,4.846852,2.971762,-2.991741,-2.650959,-0.004433,-0.425252,-0.397231,-0.942139,-0.277100,0.106445,0.055576,0.038183,0.048586,0.999996,-0.000022,-0.002126,-0.001986,-0.174569,-0.634783,-0.015514,-0.752553
08626,NaN,5.579065,2.921690,5.422333,3.761553,-2.216933,-2.741631,-0.022226,-0.143875,-0.305669,-0.944580,-0.270752,0.108398,0.055796,0.029138,0.054260,0.999999,-0.000111,-0.000719,-0.001528,-0.174983,-0.634771,-0.017480,-0.752424
08627,NaN,5.957996,1.213923,4.572763,3.309420,-0.328840,-2.970094,-0.139985,0.060888,-0.220019,-0.939941,-0.279297,0.108643,0.059607,0.012106,0.045701,0.999999,-0.000700,0.000304,-0.001100,-0.176253,-0.634393,-0.017707,-0.752440
08628,NaN,5.959364,-0.767490,4.541879,3.738468,1.560078,-3.462749,-0.127806,0.246869,-0.143054,-0.944336,-0.274902,0.102051,0.059644,-0.007689,0.045350,0.999999,-0.000639,0.001234,-0.000715,-0.176561,-0.632680,-0.019016,-0.753778
08629,NaN,5.636832,-1.233919,4.692582,4.022550,1.885621,-3.847772,0.030973,0.375823,-0.082494,-0.944336,-0.279297,0.104248,0.056451,-0.012370,0.046818,0.999998,0.000155,0.001879,-0.000412,-0.176741,-0.631275,-0.019726,-0.754894
08630,NaN,5.995085,0.133869,2.968385,1.955620,1.067280,-3.503432,0.387916,0.222818,-0.071327,-0.946533,-0.277100,0.100098,0.059984,0.001260,0.029620,0.999997,0.001940,0.001114,-0.000357,-0.175139,-0.629944,-0.022356,-0.756305
08631,NaN,6.675442,1.132063,3.203470,1.835417,0.308195,-2.557240,0.553772,0.331228,-0.012755,-0.944580,-0.270752,0.097900,0.066808,0.011228,0.031955,0.999995,0.002769,0.001656,-0.000064,-0.173407,-0.629166,-0.024781,-0.757276
08632,NaN,7.140228,0.945997,2.882799,1.463570,0.708156,-2.226868,0.720290,0.516769,0.056475,-0.944580,-0.272705,0.095703,0.071474,0.009377,0.028677,0.999990,0.003601,0.002584,0.000282,-0.170128,-0.626956,-0.028479,-0.759718
08633,NaN,7.891981,0.815907,2.479491,0.949378,1.146393,-1.634598,1.048937,0.745997,0.146769,-0.946777,-0.270508,0.085205,0.079006,0.008088,0.024543,0.999979,0.005245,0.003730,0.000734,-0.166174,-0.625016,-0.032638,-0.762021
08634,NaN,8.996468,1.411533,2.403278,0.490983,0.950728,-0.455376,1.199020,0.901697,0.195862,-0.944824,-0.264160,0.087402,0.090058,0.014061,0.023711,0.999971,0.005995,0.004508,0.000979,-0.160856,-0.621698,-0.037853,-0.765627
08635,NaN,9.732043,1.448206,2.256543,0.139753,1.178772,0.211895,1.243952,1.058423,0.194302,-0.953369,-0.264160,0.083008,0.097424,0.014438,0.022140,0.999966,0.006220,0.005292,0.000971,-0.156042,-0.618656,-0.042862,-0.768817
08636,NaN,10.293035,2.361456,4.475385,1.878622,0.247874,1.499243,1.078122,1.429984,0.094617,-0.947266,-0.253418,0.066162,0.103236,0.023424,0.044143,0.999960,0.005391,0.007150,0.000473,-0.151173,-0.613154,-0.048397,-0.773852
08637,NaN,10.122461,2.379446,4.518879,1.811789,0.258469,1.376325,1.019186,1.777133,-0.120694,-0.953613,-0.259766,0.053467,0.101636,0.023506,0.044407,0.999947,0.005096,0.008886,-0.000603,-0.148079,-0.606980,-0.054052,-0.778926
08638,NaN,9.827806,3.851235,4.263491,1.203963,-1.084650,1.455198,1.081167,2.092853,-0.462434,-0.951416,-0.266113,0.036621,0.098807,0.038057,0.041809,0.999928,0.005406,0.010464,-0.002312,-0.144941,-0.598505,-0.061940,-0.785460
08639,NaN,9.825083,5.539064,3.890408,0.422164,-2.504340,1.844658,1.413420,2.381809,-0.812039,-0.949219,-0.270264,0.015381,0.098931,0.054719,0.038117,0.999896,0.007067,0.011909,-0.004060,-0.143148,-0.589855,-0.071640,-0.791484
08640,NaN,11.334582,5.913389,5.380078,1.150936,-2.245495,3.825754,1.174984,2.825755,-1.108521,-0.951172,-0.281006,-0.003418,0.114418,0.058191,0.052533,0.999868,0.005875,0.014128,-0.005542,-0.142225,-0.578039,-0.082256,-0.799298
08641,NaN,12.327919,5.110178,5.445022,0.692120,-0.904988,4.554719,0.403969,3.188550,-1.342542,-0.938232,-0.289551,-0.035156,0.124466,0.050161,0.052574,0.999848,0.002020,0.015942,-0.006712,-0.145091,-0.564937,-0.090004,-0.807276
08642,NaN,12.764785,3.871200,3.835472,-1.261731,0.685205,3.991396,-0.326553,3.499392,-1.340684,-0.944336,-0.304443,-0.064697,0.128548,0.037912,0.036048,0.999823,-0.001633,0.017496,-0.006703,-0.148336,-0.548716,-0.096305,-0.817087
08643,NaN,13.421703,3.631835,2.661618,-3.029206,1.347700,3.949566,-0.662551,3.568040,-1.234021,-0.933594,-0.314941,-0.100586,0.134883,0.035570,0.024095,0.999816,-0.003313,0.017839,-0.006170,-0.153450,-0.532947,-0.099612,-0.826135
08644,NaN,13.422313,4.289805,1.173562,-4.990203,0.885635,3.386884,-1.031471,3.394428,-1.099109,-0.924805,-0.325684,-0.134277,0.134627,0.042211,0.009234,0.999828,-0.005157,0.016971,-0.005495,-0.157118,-0.516441,-0.102199,-0.835558
08645,NaN,12.405989,5.726314,0.249470,-6.077259,-0.697463,2.406970,-1.620380,3.270955,-0.875342,-0.922852,-0.323486,-0.168213,0.124323,0.056726,0.000002,0.999824,-0.008101,0.016354,-0.004376,-0.163259,-0.500958,-0.100241,-0.844002
08646,NaN,9.800777,6.224518,0.184537,-5.470111,-2.071312,0.217602,-2.006652,2.951113,-0.642783,-0.914307,-0.329590,-0.201904,0.098214,0.061934,-0.000225,0.999836,-0.010033,0.014755,-0.003214,-0.167382,-0.485838,-0.097114,-0.852358
08647,NaN,6.798641,5.833853,0.029987,-4.427304,-2.800568,-2.546016,-2.176797,2.534787,-0.349979,-0.908203,-0.329590,-0.233643,0.068080,0.058212,-0.001197,0.999859,-0.010883,0.012673,-0.001750,-0.172905,-0.472968,-0.090794,-0.859163
08648,NaN,7.198455,4.465687,0.965941,-3.781389,-1.392067,-2.299292,-2.177874,2.128289,-0.071810,-0.910400,-0.327393,-0.254883,0.072095,0.044727,0.008406,0.999884,-0.010889,0.010641,-0.000359,-0.175246,-0.461542,-0.084901,-0.865482
08649,NaN,10.193705,1.685118,1.642346,-4.338791,2.297438,-0.574640,-2.047400,1.672697,0.073043,-0.906738,-0.312256,-0.271973,0.102062,0.017050,0.015396,0.999913,-0.010237,0.008363,0.000365,-0.178927,-0.452493,-0.077330,-0.870204
08650,NaN,12.586658,-1.707124,2.520106,-4.276801,6.262481,0.683876,-1.592689,1.229675,0.049491,-0.902588,-0.314453,-0.297363,0.126023,-0.016843,0.024561,0.999949,-0.007963,0.006148,0.000247,-0.178051,-0.445537,-0.073575,-0.874289
08651,NaN,11.265723,-1.793502,3.951993,-2.502470,5.777242,0.488369,-1.009399,0.878294,-0.001370,-0.898438,-0.307861,-0.299561,0.112829,-0.017738,0.039115,0.999978,-0.005047,0.004391,-0.000007,-0.179976,-0.440783,-0.069944,-0.876600
08652,NaN,8.851587,0.396291,3.945242,-1.828999,2.809723,-0.711454,-0.707832,0.604501,-0.072867,-0.902832,-0.310059,-0.305908,0.088636,0.004070,0.039170,0.999989,-0.003539,0.003022,-0.000364,-0.179167,-0.437759,-0.068465,-0.878396
08653,NaN,6.742772,0.984838,3.529195,-1.194293,1.482546,-2.378597,-0.469887,0.406648,-0.057522,-0.896484,-0.305664,-0.318604,0.067502,0.009912,0.035132,0.999995,-0.002349,0.002033,-0.000288,-0.180304,-0.435525,-0.066890,-0.879394
08654,NaN,5.257331,0.456746,2.641078,-0.961952,1.430998,-4.169079,-0.169016,0.192466,0.115352,-0.900879,-0.303711,-0.314209,0.052596,0.004620,0.026356,0.999999,-0.000845,0.000962,0.000577,-0.177125,-0.434942,-0.067060,-0.880315
08655,NaN,4.180120,-1.138687,1.792256,-0.632890,2.537078,-5.921045,0.219438,-0.104621,0.245664,-0.900879,-0.301514,-0.307861,0.041806,-0.011355,0.017932,0.999999,0.001097,-0.000523,0.001228,-0.175597,-0.435674,-0.067397,-0.880234
08656,NaN,3.541500,-1.939690,1.536610,-0.299563,3.045716,-6.763152,0.643708,-0.462998,0.282213,-0.907227,-0.299316,-0.301514,0.035407,-0.019396,0.015386,0.999991,0.003219,-0.002315,0.001411,-0.168858,-0.438695,-0.070734,-0.879790
08657,NaN,3.082915,-1.379484,1.758947,0.011507,2.354640,-6.819904,0.983819,-0.786949,0.293951,-0.905029,-0.303711,-0.288818,0.030780,-0.013836,0.017643,0.999979,0.004919,-0.003935,0.001470,-0.165676,-0.443079,-0.073749,-0.877949
08658,NaN,2.968694,-0.539684,2.404205,0.396668,1.529429,-6.293032,1.191689,-1.082021,0.342337,-0.917969,-0.292969,-0.284668,0.029566,-0.005490,0.024170,0.999966,0.005958,-0.005410,0.001712,-0.150718,-0.448614,-0.082327,-0.877070
08659,NaN,2.699388,0.960941,3.107061,0.882961,0.043144,-5.679646,1.287682,-1.295091,0.455567,-0.921875,-0.301758,-0.261475,0.026770,0.009469,0.031306,0.999956,0.006438,-0.006475,0.002278,-0.146352,-0.455429,-0.085969,-0.873942
08660,NaN,2.946631,3.089143,3.783290,1.063884,-1.846414,-4.521517,1.189780,-1.580646,0.557532,-0.928467,-0.295166,-0.242432,0.029079,0.030746,0.038247,0.999947,0.005949,-0.007903,0.002788,-0.131588,-0.462826,-0.093289,-0.871650
08661,NaN,3.541556,4.397315,3.983170,0.855113,-2.894697,-3.597204,0.892937,-1.965630,0.586563,-0.928467,-0.291016,-0.225586,0.034892,0.043897,0.040372,0.999937,0.004465,-0.009828,0.002933,-0.127867,-0.472224,-0.094521,-0.867018
08662,NaN,4.779931,4.879930,3.734682,0.155743,-3.013439,-2.636231,0.450611,-2.351081,0.649634,-0.934814,-0.289062,-0.202148,0.047196,0.048868,0.038014,0.999923,0.002253,-0.011755,0.003248,-0.117076,-0.482481,-0.097317,-0.862575
08663,NaN,6.157657,5.110510,3.152027,-0.881484,-2.912539,-1.768690,0.049112,-2.600268,0.729122,-0.943359,-0.280518,-0.172607,0.060973,0.051320,0.032328,0.999909,0.000246,-0.013001,0.003646,-0.115060,-0.494035,-0.094235,-0.856628
08664,NaN,7.287694,3.806186,2.947881,-1.236581,-1.438683,-1.287215,-0.048092,-2.872688,0.757696,-0.947754,-0.269775,-0.143066,0.072299,0.038344,0.030511,0.999890,-0.000240,-0.014363,0.003788,-0.108398,-0.506485,-0.093128,-0.850323
08665,NaN,8.255158,1.794403,3.868061,-0.439024,0.726300,-0.560543,0.008578,-3.042944,0.728444,-0.954102,-0.265625,-0.122070,0.081884,0.018241,0.039931,0.999878,0.000043,-0.015214,0.003642,-0.106675,-0.519705,-0.089654,-0.842905
08666,NaN,8.680767,1.482255,5.211639,0.888680,1.118414,0.319720,0.346218,-2.862349,0.760546,-0.956543,-0.255127,-0.094482,0.085993,0.015059,0.053377,0.999889,0.001731,-0.014311,0.003803,-0.100291,-0.532228,-0.089631,-0.835848
08667,NaN,8.559780,1.327176,5.974927,1.924011,1.205203,0.462051,0.846720,-2.502908,0.805273,-0.958496,-0.255127,-0.067139,0.084787,0.013358,0.060870,0.999905,0.004233,-0.012514,0.004026,-0.095776,-0.543424,-0.089758,-0.829133
08668,NaN,8.172708,2.339855,6.075177,2.367750,0.086560,0.363606,1.112973,-2.128907,0.847916,-0.965088,-0.246582,-0.052246,0.080974,0.023401,0.061747,0.999919,0.005565,-0.010644,0.004239,-0.090219,-0.553451,-0.090721,-0.822996
08669,NaN,7.822823,4.273234,5.818665,2.412207,-1.905773,0.378373,1.339450,-1.943568,0.851860,-0.967285,-0.238037,-0.027100,0.077474,0.042669,0.059228,0.999921,0.006697,-0.009718,0.004259,-0.083873,-0.562397,-0.092986,-0.817330
08670,NaN,8.324991,5.989642,5.801719,2.412621,-3.482972,1.181988,1.222924,-1.874170,0.855447,-0.969727,-0.227539,-0.008057,0.082443,0.059891,0.059159,0.999928,0.006114,-0.009371,0.004277,-0.079381,-0.571312,-0.093386,-0.811530
08671,NaN,8.868770,7.399651,5.771705,2.429750,-4.769472,1.937420,0.629252,-1.781422,0.858850,-0.967773,-0.218994,0.015137,0.087849,0.074191,0.058735,0.999946,0.003146,-0.008907,0.004294,-0.074917,-0.579161,-0.092767,-0.806445
08672,NaN,9.413974,7.247879,4.996172,1.726493,-4.636292,2.088439,-0.392849,-1.609985,0.795988,-0.969971,-0.210449,0.023438,0.093445,0.072951,0.050573,0.999958,-0.001964,-0.008050,0.003980,-0.073661,-0.585901,-0.088236,-0.802190
08673,NaN,9.796279,5.116479,4.319080,1.125678,-2.638330,1.701198,-1.338883,-1.476338,0.618501,-0.970215,-0.204102,0.034180,0.097483,0.051758,0.043566,0.999946,-0.006694,-0.007382,0.003092,-0.075741,-0.591572,-0.080499,-0.798640
08674,NaN,9.716105,2.671857,2.818256,-0.123938,-0.438929,0.640752,-1.858770,-1.514485,0.366706,-0.972168,-0.206055,0.044678,0.096896,0.027161,0.028666,0.999926,-0.009294,-0.007572,0.001833,-0.080462,-0.596959,-0.071576,-0.795011
08675,NaN,9.882578,0.505611,1.503248,-1.214557,1.619958,-0.010682,-1.873399,-1.600799,0.126126,-0.974365,-0.206299,0.053223,0.098698,0.005264,0.015774,0.999924,-0.009367,-0.008004,0.000631,-0.086110,-0.602569,-0.063097,-0.790895
08676,NaN,9.504052,-1.366968,0.686661,-1.633569,3.352929,-0.938327,-1.355457,-1.493099,-0.079614,-0.963623,-0.206299,0.065674,0.094980,-0.013657,0.007668,0.999949,-0.006777,-0.007465,-0.000398,-0.091648,-0.607860,-0.057012,-0.786674
08677,NaN,9.355122,-1.880741,-1.127900,-3.176832,3.873822,-1.613441,-0.400185,-1.182651,-0.293603,-0.967773,-0.210449,0.078613,0.093588,-0.018967,-0.010688,0.999979,-0.002001,-0.005913,-0.001468,-0.094346,-0.612233,-0.055780,-0.783044
08678,NaN,11.717110,-2.077790,-1.758641,-4.207232,4.631019,0.461196,0.766869,-0.968297,-0.392583,-0.967773,-0.210693,0.089111,0.117214,-0.020942,-0.017099,0.999979,0.003834,-0.004841,-0.001963,-0.094382,-0.616403,-0.059071,-0.779519
08679,NaN,17.096369,-3.102089,6.212045,2.531056,6.690530,7.196906,0.645657,-0.720680,-0.525622,-0.965332,-0.214844,0.093262,0.170656,-0.031671,0.062634,0.999985,0.003228,-0.003603,-0.002628,-0.094644,-0.619352,-0.062859,-0.776849
08680,NaN,20.634034,-4.413186,10.780628,6.435423,8.726574,11.256069,-0.734500,-0.328188,-0.553712,-0.963135,-0.219238,0.089111,0.206040,-0.044305,0.108307,0.999988,-0.003672,-0.001641,-0.002769,-0.098933,-0.620239,-0.061376,-0.775724
08681,NaN,18.039311,-4.065038,9.499300,5.759280,7.777629,8.586111,-1.905257,0.391681,-0.308165,-0.965088,-0.227783,0.078613,0.180517,-0.040023,0.095023,0.999952,-0.009526,0.001958,-0.001541,-0.105903,-0.617653,-0.055126,-0.777336
08682,NaN,11.790287,-1.363186,2.406455,-0.113355,3.934337,1.640136,-0.750164,1.016255,0.132135,-0.973633,-0.225586,0.070068,0.118032,-0.013465,0.023516,0.999980,-0.003751,0.005081,0.000661,-0.107763,-0.613323,-0.051221,-0.780768
08683,NaN,8.078241,-0.849737,0.190723,-1.582805,2.675875,-2.306014,1.099187,0.974309,0.260807,-0.969482,-0.223389,0.061768,0.080801,-0.008401,0.001467,0.999972,0.005496,0.004872,0.001304,-0.103113,-0.610160,-0.055228,-0.783596
08684,NaN,5.676380,-0.657145,-2.312776,-3.532452,2.005691,-5.175821,1.106108,0.971248,0.331821,-0.971680,-0.218994,0.059570,0.056661,-0.006348,-0.023439,0.999972,0.005530,0.004856,0.001659,-0.098340,-0.607048,-0.057934,-0.786426
08685,NaN,4.208249,-0.515192,-2.410781,-3.327106,1.498647,-6.576819,0.876569,0.701175,0.322571,-0.967773,-0.210449,0.057373,0.042006,-0.004978,-0.024277,0.999983,0.004383,0.003506,0.001613,-0.094198,-0.604803,-0.060738,-0.788449
08686,NaN,10.859253,-0.675609,5.448113,2.567530,2.957198,1.707915,0.659350,0.394122,0.240449,-0.970215,-0.204102,0.052979,0.108708,-0.006805,0.054245,0.999992,0.003297,0.001971,0.001202,-0.091138,-0.603818,-0.061812,-0.789479
08687,NaN,25.400199,6.953016,11.788452,4.308068,-1.402149,18.682069,-0.297204,0.832860,0.130561,-0.976562,-0.206055,0.038330,0.254444,0.069870,0.116722,0.999990,-0.001486,0.004164,0.000653,-0.091253,-0.600427,-0.060616,-0.792140
08688,NaN,27.197853,17.214878,0.067517,-8.407105,-10.935903,19.269987,0.987583,1.468701,-0.062808,-0.980713,-0.206055,0.034180,0.272032,0.172064,-0.000473,0.999961,0.004938,0.007343,-0.000314,-0.087171,-0.595019,-0.065049,-0.796318
08689,NaN,14.350701,17.932675,-0.594492,-5.471899,-14.345793,7.278798,3.180093,1.267380,-0.749383,-0.971924,-0.216797,0.030029,0.144148,0.178861,-0.004011,0.999846,0.015900,0.006337,-0.003747,-0.080259,-0.591021,-0.080474,-0.798609
08690,NaN,5.801829,2.988722,7.663357,5.553509,-1.289691,-1.517256,0.999779,0.614987,-0.850375,-0.973633,-0.229736,0.027832,0.058379,0.029257,0.076602,0.999974,0.004999,0.003075,-0.004252,-0.080138,-0.588795,-0.087187,-0.799560
08691,NaN,3.080239,0.878937,-0.169218,-1.099283,-0.139194,-6.802512,-1.159779,0.332107,-0.704811,-0.969727,-0.223145,0.019287,0.030830,0.008671,-0.001794,0.999976,-0.005799,0.001661,-0.003524,-0.086213,-0.586678,-0.084748,-0.800746
08692,NaN,2.956841,3.407218,-1.094038,-2.064258,-2.632254,-6.594156,-0.520379,0.089389,-0.494504,-0.973633,-0.231689,0.015137,0.029648,0.033970,-0.011042,0.999993,-0.002602,0.000447,-0.002473,-0.089657,-0.586019,-0.083976,-0.800931
08693,NaN,6.273199,3.432194,0.077961,-1.933607,-1.800535,-3.167521,0.297726,-0.223018,-0.200674,-0.969482,-0.231934,0.025879,0.062765,0.034258,0.000901,0.999998,0.001489,-0.001115,-0.001003,-0.089672,-0.586957,-0.085648,-0.800065
08694,NaN,9.674146,3.350877,1.440530,-1.610206,-0.845039,0.365020,0.001365,-0.100805,-0.036833,-0.971436,-0.233887,0.023682,0.096740,0.033491,0.014454,1.000000,0.000007,-0.000504,-0.000184,-0.088827,-0.587427,-0.086354,-0.799739
08695,NaN,11.213243,4.017912,2.866251,-0.724843,-1.071701,2.370164,-0.417639,-0.126131,-0.027828,-0.965088,-0.233887,0.025879,0.112120,0.040223,0.028649,0.999998,-0.002088,-0.000631,-0.000139,-0.090208,-0.587730,-0.084700,-0.799538
08696,NaN,11.854409,5.022934,3.681521,-0.163419,-1.876450,3.444864,-0.369743,-0.278619,-0.041232,-0.969482,-0.231934,0.025879,0.118503,0.050273,0.036887,0.999997,-0.001849,-0.001393,-0.000206,-0.091096,-0.588814,-0.083533,-0.798763
08697,NaN,10.446211,6.144247,3.751017,0.287688,-3.305421,2.432168,-0.181323,-0.505319,-0.175642,-0.969238,-0.236084,0.028076,0.104421,0.061385,0.037718,0.999996,-0.000907,-0.002527,-0.000878,-0.092531,-0.590672,-0.083086,-0.797271
08698,NaN,8.916585,5.775628,4.878735,1.884068,-3.280525,1.248667,-0.141683,-0.711084,-0.289187,-0.967041,-0.236084,0.036377,0.089075,0.057662,0.049063,0.999992,-0.000708,-0.003555,-0.001446,-0.093541,-0.593392,-0.083732,-0.795063
08699,NaN,7.909255,4.576248,5.234827,2.617113,-2.354887,0.112373,-0.421048,-0.746499,-0.318271,-0.971191,-0.238281,0.049072,0.078969,0.045747,0.052547,0.999990,-0.002105,-0.003732,-0.001591,-0.096356,-0.596021,-0.082643,-0.792871
08700,NaN,7.031947,3.584356,4.199147,1.958970,-1.631364,-1.243573,-0.687574,-0.716467,-0.283431,-0.962646,-0.238281,0.049072,0.070220,0.035889,0.042120,0.999987,-0.003438,-0.003582,-0.001417,-0.098525,-0.598381,-0.081550,-0.790938
08701,NaN,6.953312,2.427735,3.328694,1.243307,-0.553135,-1.845834,-0.550732,-0.701713,-0.207409,-0.970947,-0.246826,0.055420,0.069441,0.024297,0.033464,0.999990,-0.002754,-0.003509,-0.001037,-0.101266,-0.600792,-0.079637,-0.788956
08702,NaN,7.140581,0.998606,3.981945,1.956498,0.877733,-1.860171,-0.440351,-0.627876,-0.162472,-0.968994,-0.244873,0.055420,0.071289,0.010016,0.040021,0.999992,-0.002202,-0.003139,-0.000812,-0.102277,-0.602895,-0.079172,-0.787267
08703,NaN,7.101350,-0.356686,4.279481,2.385107,2.163298,-2.164054,-0.425596,-0.504127,-0.085331,-0.962402,-0.251221,0.061768,0.070904,-0.003506,0.042981,0.999994,-0.002128,-0.002521,-0.000427,-0.104082,-0.604623,-0.077486,-0.785872
08704,NaN,6.938093,-0.558059,4.158353,2.355483,2.304994,-2.404648,-0.315348,-0.430191,-0.015235,-0.966553,-0.247070,0.066162,0.069291,-0.005520,0.041741,0.999996,-0.001577,-0.002151,-0.000076,-0.104648,-0.606042,-0.076668,-0.784782
08705,NaN,6.725953,-0.353987,3.459428,1.747506,2.045480,-2.735007,-0.045064,-0.383234,0.041178,-0.968750,-0.249023,0.074463,0.067194,-0.003518,0.034724,0.999998,-0.000225,-0.001916,0.000206,-0.104757,-0.607536,-0.076156,-0.783662
08706,NaN,6.469819,-0.136667,3.336137,1.694580,1.770632,-2.957013,0.271348,-0.309725,0.095256,-0.964355,-0.249023,0.068115,0.064647,-0.001381,0.033460,0.999998,0.001357,-0.001549,0.000476,-0.102899,-0.608809,-0.077403,-0.782798
08707,NaN,6.485886,0.359655,3.210313,1.553844,1.296739,-2.855231,0.474724,-0.180510,0.160222,-0.962402,-0.247070,0.072510,0.064827,0.003572,0.032170,0.999996,0.002374,-0.000903,0.000801,-0.100884,-0.609818,-0.078670,-0.782148
08708,NaN,6.823440,0.682329,1.839710,0.133694,1.072622,-2.795491,0.621628,-0.025198,0.136387,-0.964600,-0.242676,0.074463,0.068227,0.006813,0.018427,0.999995,0.003108,-0.000126,0.000682,-0.098578,-0.610172,-0.080578,-0.781972
08709,NaN,7.199802,1.018197,1.667744,-0.140058,0.844391,-2.401707,0.625393,0.155062,0.091178,-0.964600,-0.242676,0.078857,0.072006,0.010163,0.016653,0.999995,0.003127,0.000775,0.000456,-0.096238,-0.609905,-0.082811,-0.782238
08710,NaN,7.824679,1.643209,2.268729,0.250154,0.410287,-1.515584,0.543167,0.329978,0.054431,-0.968994,-0.240479,0.076660,0.078280,0.016392,0.022603,0.999995,0.002716,0.001650,0.000272,-0.093892,-0.608775,-0.085138,-0.783153
08711,NaN,8.613189,2.800612,4.287846,1.946247,-0.454614,0.006752,0.600651,0.445211,-0.005433,-0.968994,-0.240479,0.072510,0.086228,0.027875,0.042770,0.999993,0.003003,0.002226,-0.000027,-0.091882,-0.607306,-0.087704,-0.784248
08712,NaN,9.684977,4.030123,3.788249,1.129104,-1.352678,1.200337,0.772472,0.503851,-0.083420,-0.975342,-0.240479,0.072510,0.096962,0.040115,0.037793,0.999989,0.003862,0.002519,-0.000417,-0.089081,-0.605481,-0.091591,-0.785537
08713,NaN,10.468891,5.063256,2.565669,-0.301454,-2.159387,1.894700,0.925437,0.602901,-0.118398,-0.970947,-0.242676,0.068115,0.104796,0.050452,0.025575,0.999985,0.004627,0.003014,-0.000592,-0.086454,-0.603461,-0.095840,-0.786877
08714,NaN,10.907101,5.621714,2.024215,-0.980715,-2.578147,2.314021,0.647664,0.706790,-0.168153,-0.970947,-0.242676,0.063965,0.109189,0.056060,0.020038,0.999988,0.003238,0.003534,-0.000841,-0.084322,-0.600710,-0.099590,-0.788745
08715,NaN,10.737838,6.453795,3.511888,0.412974,-3.304885,2.764758,0.078652,0.926223,-0.288280,-0.977539,-0.244873,0.051270,0.107632,0.064369,0.034646,0.999988,0.000393,0.004631,-0.001441,-0.084747,-0.596939,-0.101144,-0.791361
08716,NaN,10.228838,7.055848,4.147987,1.024039,-3.929069,2.642473,-0.334280,1.236660,-0.509568,-0.972900,-0.253418,0.040771,0.102721,0.070366,0.040728,0.999976,-0.001671,0.006183,-0.002548,-0.086451,-0.591433,-0.102470,-0.795131
08717,NaN,10.070998,6.700670,4.549005,1.255987,-3.546841,2.550752,-0.675669,1.654019,-0.750284,-0.974854,-0.259766,0.023926,0.101331,0.066779,0.044428,0.999953,-0.003378,0.008270,-0.003751,-0.090566,-0.584152,-0.102702,-0.800010
08718,NaN,10.031789,5.037144,4.786480,1.272127,-1.867618,2.179242,-0.851756,2.090422,-0.925727,-0.974609,-0.274658,-0.003418,0.101042,0.050105,0.046597,0.999926,-0.004259,0.010452,-0.004629,-0.095561,-0.574721,-0.103252,-0.806166
08719,NaN,10.275823,2.982612,5.553784,1.686995,0.297467,2.119992,-0.864115,2.558349,-1.052501,-0.970459,-0.278809,-0.032959,0.103612,0.029518,0.054088,0.999895,-0.004320,0.012791,-0.005262,-0.100942,-0.563391,-0.103994,-0.813380
08720,NaN,10.635619,0.691970,5.191634,0.984693,2.670605,1.695365,-0.898013,2.972777,-1.099113,-0.965820,-0.291504,-0.060547,0.107149,0.006561,0.050298,0.999864,-0.004490,0.014863,-0.005495,-0.106480,-0.549989,-0.105099,-0.821662
08721,NaN,11.113419,-0.603480,3.950204,-0.632715,4.070428,1.255051,-1.006699,3.328025,-1.050515,-0.963623,-0.297852,-0.094238,0.111738,-0.006428,0.037678,0.999835,-0.005033,0.016639,-0.005252,-0.111783,-0.535137,-0.105596,-0.830652
08722,NaN,11.317493,-1.259109,3.064152,-1.866599,4.791425,0.798833,-0.980351,3.526877,-0.939737,-0.959473,-0.306396,-0.132324,0.113632,-0.012980,0.028703,0.999821,-0.004901,0.017633,-0.004698,-0.115992,-0.519122,-0.106363,-0.840086
08723,NaN,11.106352,-0.942115,3.021943,-2.222689,4.500950,0.587224,-0.647509,3.536825,-0.835535,-0.946533,-0.316895,-0.168213,0.111535,-0.009793,0.028281,0.999830,-0.003237,0.017683,-0.004177,-0.119267,-0.503357,-0.107836,-0.848987
08724,NaN,11.559301,0.419904,3.034843,-2.937656,3.428911,1.259914,-0.334204,3.380762,-0.777565,-0.944336,-0.321045,-0.195557,0.116099,0.003797,0.028382,0.999848,-0.001671,0.016903,-0.003888,-0.121367,-0.488179,-0.110458,-0.857176
08725,NaN,12.327640,2.992213,2.419052,-4.490920,1.272402,2.227824,-0.444706,3.130677,-0.716737,-0.944336,-0.325439,-0.225098,0.123740,0.029530,0.022190,0.999869,-0.002223,0.015653,-0.003584,-0.123764,-0.474031,-0.112178,-0.864519
08726,NaN,13.061592,4.563291,2.169124,-5.635376,0.057392,3.007539,-0.804944,2.843096,-0.650397,-0.936035,-0.327393,-0.248535,0.131053,0.045289,0.019648,0.999886,-0.004025,0.014215,-0.003252,-0.125829,-0.460761,-0.112417,-0.871337
08727,NaN,11.614925,5.011506,2.171575,-5.251148,-0.781604,1.872411,-1.000651,2.505192,-0.568888,-0.923096,-0.338135,-0.278076,0.116549,0.049887,0.020008,0.999905,-0.005003,0.012526,-0.002844,-0.129176,-0.448853,-0.110925,-0.877234
08728,NaN,9.783998,4.562863,2.402742,-4.245650,-0.911611,0.358719,-0.986542,2.032051,-0.480110,-0.925293,-0.331543,-0.299316,0.098185,0.045508,0.022806,0.999933,-0.004933,0.010160,-0.002400,-0.131708,-0.439144,-0.109230,-0.881972
08729,NaN,9.175545,2.541518,3.115438,-3.243072,0.872899,-0.374791,-0.628188,1.592029,-0.443494,-0.912598,-0.335693,-0.312012,0.092055,0.025307,0.030343,0.999961,-0.003141,0.007960,-0.002217,-0.134153,-0.431450,-0.108469,-0.885488
08730,NaN,8.489185,1.606537,4.700700,-1.584213,1.671083,-0.250247,-0.257562,1.185236,-0.436458,-0.912598,-0.337891,-0.318115,0.085203,0.015940,0.046482,0.999979,-0.001288,0.005926,-0.002182,-0.134561,-0.425862,-0.109667,-0.887980
08731,NaN,7.379868,2.097183,5.363352,-0.574206,0.921159,-0.514992,-0.280795,0.977924,-0.277860,-0.906006,-0.342285,-0.328857,0.074089,0.020944,0.053242,0.999986,-0.001404,0.004890,-0.001389,-0.135838,-0.421173,-0.109660,-0.890020
08732,NaN,6.436398,2.412420,4.483079,-0.822140,0.238437,-1.651098,-0.575645,0.960006,-0.027411,-0.902100,-0.335693,-0.339355,0.064581,0.024244,0.044451,0.999984,-0.002878,0.004800,-0.000137,-0.136028,-0.416655,-0.108024,-0.892315
08733,NaN,5.754892,1.834620,3.620184,-1.059856,0.462837,-2.866295,-0.684349,0.827831,0.228285,-0.902344,-0.333496,-0.352051,0.057677,0.018535,0.035900,0.999985,-0.003422,0.004139,0.001141,-0.135969,-0.412613,-0.105049,-0.894554
08734,NaN,5.290762,1.145393,3.504700,-0.805769,0.913309,-3.479966,-0.525191,0.546551,0.400235,-0.902344,-0.329102,-0.358398,0.052980,0.011652,0.034872,0.999991,-0.002626,0.002733,0.002001,-0.134025,-0.410119,-0.102602,-0.896277
08735,NaN,4.882786,0.827793,3.751187,-0.338328,1.068854,-3.701937,-0.097211,0.133738,0.446244,-0.902588,-0.322754,-0.354248,0.048834,0.008405,0.037475,0.999997,-0.000486,0.000669,0.002231,-0.132139,-0.409683,-0.101333,-0.896901
08736,NaN,4.614107,1.107078,3.741505,-0.210341,0.700414,-3.814389,0.361976,-0.342896,0.404931,-0.908936,-0.324951,-0.350098,0.046054,0.011096,0.037514,0.999995,0.001810,-0.001714,0.002025,-0.129229,-0.411815,-0.102050,-0.896267
08737,NaN,4.576371,2.272384,4.083615,-0.050579,-0.392396,-3.283837,0.641127,-0.824839,0.375396,-0.915283,-0.320801,-0.337402,0.045552,0.022678,0.041097,0.999985,0.003206,-0.004124,0.001877,-0.126628,-0.416111,-0.103608,-0.894473
08738,NaN,4.928553,3.071751,3.914408,-0.425879,-1.059001,-2.902896,0.585049,-1.225433,0.407084,-0.919434,-0.322998,-0.322510,0.048982,0.030702,0.039535,0.999975,0.002925,-0.006127,0.002035,-0.124070,-0.422350,-0.104579,-0.891791
08739,NaN,4.949379,3.383664,3.501457,-0.697550,-1.399108,-3.048031,0.385765,-1.520456,0.489110,-0.932129,-0.318604,-0.312012,0.049143,0.033889,0.035454,0.999966,0.001929,-0.007602,0.002446,-0.121849,-0.429611,-0.104311,-0.888654
08740,NaN,4.802882,3.115740,2.997150,-0.859454,-1.261145,-3.533509,0.208811,-1.787607,0.593392,-0.936768,-0.305908,-0.288818,0.047666,0.031268,0.030431,0.999955,0.001044,-0.008938,0.002967,-0.119817,-0.438182,-0.102746,-0.884920
08741,NaN,4.396109,2.341813,2.808150,-0.564101,-0.703027,-4.166283,0.108989,-2.019011,0.741701,-0.943115,-0.301514,-0.276123,0.043587,0.023565,0.028536,0.999942,0.000545,-0.010095,0.003708,-0.117310,-0.447536,-0.100379,-0.880837
08742,NaN,3.711529,1.808498,2.912381,0.088998,-0.436626,-4.779963,0.050305,-2.204642,0.890706,-0.953857,-0.295166,-0.252930,0.036710,0.018242,0.029535,0.999929,0.000252,-0.011023,0.004453,-0.112964,-0.457727,-0.098001,-0.876425
08743,NaN,2.842752,1.804413,2.494895,0.330700,-0.755391,-5.704069,0.122888,-2.347982,0.964786,-0.964600,-0.291016,-0.225342,0.028045,0.018165,0.025291,0.999919,0.000614,-0.011740,0.004824,-0.109580,-0.468521,-0.094988,-0.871468
08744,NaN,2.078595,1.056378,1.570474,0.128914,-0.343190,-7.025577,0.425855,-2.516274,0.997119,-0.971191,-0.280518,-0.199951,0.020533,0.010633,0.015987,0.999906,0.002129,-0.012581,0.004985,-0.105317,-0.480313,-0.093151,-0.865755
08745,NaN,2.021859,0.003776,1.294221,0.089000,0.615720,-7.494165,0.812481,-2.691643,1.038231,-0.977539,-0.274170,-0.176758,0.020042,0.000089,0.013213,0.999888,0.004062,-0.013458,0.005191,-0.100097,-0.492822,-0.092737,-0.859364
08746,NaN,2.170987,-1.215263,0.745788,-0.306095,1.780789,-7.946903,1.332665,-2.831328,1.139909,-0.988281,-0.265625,-0.151367,0.021671,-0.012080,0.007684,0.999861,0.006663,-0.014156,0.005699,-0.093577,-0.506318,-0.093973,-0.852088
08747,NaN,3.688998,-1.412083,0.635776,-1.047037,2.329093,-6.732871,1.617062,-2.837832,1.229624,-0.988525,-0.248535,-0.111328,0.036882,-0.013948,0.006768,0.999848,0.008085,-0.014188,0.006148,-0.085548,-0.519666,-0.096398,-0.844593
08748,NaN,5.638963,0.248124,1.402872,-1.185312,1.219419,-4.250935,1.441435,-2.765580,1.258352,-0.997314,-0.242188,-0.083984,0.056172,0.002730,0.014826,0.999859,0.007207,-0.013827,0.006291,-0.077720,-0.532654,-0.097990,-0.837041
08749,NaN,7.506414,3.827106,1.787805,-1.506693,-1.839542,-1.534444,0.974664,-2.658593,1.234241,-1.005859,-0.231445,-0.056396,0.074578,0.038641,0.019059,0.999881,0.004873,-0.013292,0.006171,-0.071236,-0.544701,-0.097727,-0.829865
08750,NaN,9.066663,6.470855,1.824685,-1.846164,-4.135996,0.525736,0.677102,-2.512272,1.146186,-1.006104,-0.218750,-0.029053,0.090054,0.065161,0.019601,0.999899,0.003385,-0.012561,0.005731,-0.066072,-0.556076,-0.096284,-0.822887
08751,NaN,9.836556,7.379215,3.475750,-0.307948,-4.810936,2.021307,0.279889,-2.356451,1.039104,-1.008545,-0.210205,-0.005859,0.097561,0.074251,0.036014,0.999916,0.001399,-0.011782,0.005195,-0.062132,-0.566318,-0.093749,-0.816477
08752,NaN,9.624407,6.857921,5.575638,1.994886,-4.289446,2.367738,-0.518503,-2.223247,0.827422,-1.008789,-0.195312,0.010986,0.095332,0.069121,0.056641,0.999926,-0.002592,-0.011116,0.004137,-0.061452,-0.575773,-0.088473,-0.810482
08753,NaN,9.132404,5.624897,6.696716,3.417448,-3.250042,1.919269,-1.356612,-2.248798,0.539511,-1.006348,-0.199707,0.038330,0.090413,0.056951,0.067602,0.999910,-0.006783,-0.011244,0.002697,-0.064145,-0.584657,-0.080713,-0.804703
08754,NaN,8.940190,4.560133,6.842736,3.802089,-2.412785,1.468331,-1.933739,-2.361058,0.341180,-1.004395,-0.197510,0.053223,0.088511,0.046418,0.069030,0.999882,-0.009668,-0.011805,0.001706,-0.069386,-0.593722,-0.071258,-0.798500
08755,NaN,8.869068,3.635688,5.848792,3.065194,-1.728116,0.850328,-1.991902,-2.436801,0.254127,-1.008545,-0.195557,0.070068,0.087926,0.037056,0.059196,0.999875,-0.009959,-0.012184,0.001271,-0.075129,-0.602777,-0.061685,-0.791967
08756,NaN,9.844543,2.752424,4.356343,1.598152,-0.826941,1.152072,-1.666853,-2.346067,0.294274,-1.006348,-0.193359,0.082764,0.097886,0.028037,0.044482,0.999895,-0.008334,-0.011730,0.001471,-0.080651,-0.611588,-0.052717,-0.785288
08757,NaN,11.097684,2.209902,4.092510,1.289573,-0.166381,2.149543,-1.196704,-2.173100,0.339601,-1.000000,-0.193604,0.105957,0.110486,0.022536,0.041993,0.999922,-0.005983,-0.010865,0.001698,-0.083529,-0.619680,-0.046088,-0.779035
08758,NaN,12.009830,0.783293,3.885492,1.225330,1.318816,2.705324,-0.694005,-1.970759,0.287127,-1.000000,-0.191406,0.125000,0.119696,0.008142,0.040008,0.999944,-0.003470,-0.009854,0.001436,-0.084970,-0.627126,-0.041851,-0.773138
08759,NaN,12.599176,-1.269156,2.824818,0.463410,3.421367,2.693503,-0.354972,-1.712497,0.152891,-1.001953,-0.193604,0.135498,0.125753,-0.012544,0.029348,0.999961,-0.001775,-0.008562,0.000764,-0.085833,-0.633603,-0.039258,-0.767880
08760,NaN,12.781993,-3.728456,2.311327,0.318825,5.869244,2.355764,0.050394,-1.229867,-0.034976,-0.995605,-0.189209,0.141846,0.127668,-0.037313,0.023889,0.999981,0.000252,-0.006149,-0.000175,-0.086023,-0.638351,-0.039148,-0.763921
08761,NaN,13.134820,-5.467762,2.803539,0.997815,7.626148,2.480622,0.383458,-0.643492,-0.191898,-0.997559,-0.191406,0.156738,0.131205,-0.054858,0.028353,0.999993,0.001917,-0.003217,-0.000959,-0.085643,-0.640932,-0.040936,-0.761706
08762,NaN,15.935679,-4.248088,6.228051,3.861099,6.815349,5.980454,0.190426,-0.165370,-0.276658,-0.999756,-0.195801,0.156738,0.159246,-0.042761,0.062372,0.999998,0.000952,-0.000827,-0.001383,-0.086115,-0.641612,-0.042421,-0.760999
08763,NaN,18.789815,-3.222960,2.904668,0.038866,6.547197,8.326051,0.293829,0.246649,-0.284810,-0.997559,-0.193604,0.152588,0.187888,-0.032540,0.028767,0.999997,0.001469,0.001233,-0.001424,-0.086189,-0.640738,-0.044547,-0.761605
08764,NaN,18.724672,-1.188794,2.002585,-1.031756,4.635396,8.448885,1.042323,0.168683,-0.223694,-1.001709,-0.197998,0.152588,0.187250,-0.012201,0.019805,0.999985,0.005212,0.000843,-0.001118,-0.083679,-0.640506,-0.049092,-0.761800
08765,NaN,13.603473,-0.764200,4.997940,2.679828,3.205091,4.085625,0.060522,0.536724,-0.335360,-0.997559,-0.195801,0.144043,0.136155,-0.007885,0.049612,0.999995,0.000303,0.002684,-0.001677,-0.084616,-0.638402,-0.050609,-0.763362
08766,NaN,7.914265,-1.005401,1.296986,-0.024795,2.485970,-2.121926,-0.629072,0.494675,-0.317969,-0.995361,-0.202148,0.131348,0.079158,-0.010139,0.012806,0.999991,-0.003145,0.002473,-0.001590,-0.087733,-0.636177,-0.049138,-0.764962
08767,NaN,8.491272,-0.632807,4.482680,2.916465,2.116018,-0.890103,-0.614008,0.959341,0.083946,-1.005859,-0.202148,0.129395,0.085129,-0.006156,0.044438,0.999984,-0.003070,0.004797,0.000420,-0.089114,-0.632249,-0.046931,-0.768191
08768,NaN,8.699188,-0.542329,2.559299,0.891265,2.123254,-1.025396,-0.270630,1.154496,0.206662,-1.006104,-0.199951,0.123047,0.087143,-0.005299,0.025097,0.999982,-0.001353,0.005772,0.001033,-0.088930,-0.627730,-0.045419,-0.772000
08769,NaN,14.507854,0.702040,0.732416,-2.269465,2.097568,4.398380,0.963673,1.213199,0.150440,-1.008301,-0.195557,0.104004,0.145114,0.007097,0.006478,0.999970,0.004818,0.006066,0.000752,-0.085032,-0.623491,-0.049193,-0.775634
08770,NaN,20.127039,5.611731,4.566498,-0.266568,-1.745136,11.502080,0.490411,1.464167,0.059945,-1.014648,-0.197754,0.093262,0.201581,0.056068,0.044328,0.999970,0.002452,0.007321,0.000300,-0.082930,-0.618041,-0.051174,-0.780082
08771,NaN,18.922720,12.480685,1.873624,-3.344318,-8.610990,10.972098,0.515544,1.756308,-0.183865,-1.017090,-0.195557,0.074463,0.189498,0.124587,0.017394,0.999958,0.002578,0.008781,-0.000919,-0.081586,-0.611332,-0.054467,-0.785271
08772,NaN,11.366612,12.317267,-0.987966,-4.462586,-9.833918,3.043051,1.384521,1.898737,-0.441853,-1.012695,-0.197754,0.065918,0.113843,0.122991,-0.010108,0.999929,0.006922,0.009493,-0.002209,-0.078571,-0.604305,-0.061798,-0.790458
08773,NaN,7.025111,4.196842,1.335477,-0.751006,-2.679840,-2.002243,1.116816,1.268016,-0.603248,-1.016846,-0.201904,0.055420,0.070461,0.041682,0.013142,0.999960,0.005584,0.006340,-0.003016,-0.077170,-0.599522,-0.068519,-0.793677
08774,NaN,4.555863,1.536524,3.785578,2.335369,-0.501297,-4.178687,-0.314185,0.592853,-0.560680,-1.016602,-0.214844,0.053467,0.045713,0.015297,0.037696,0.999990,-0.001571,0.002964,-0.002803,-0.080123,-0.596906,-0.069090,-0.795305
08775,NaN,6.018690,2.692561,-0.223774,-1.999595,-1.360570,-3.674693,-0.397539,0.179760,-0.346621,-1.018799,-0.210449,0.049072,0.060231,0.026817,-0.002345,0.999996,-0.001988,0.000899,-0.001733,-0.082609,-0.595911,-0.068604,-0.795839
08776,NaN,9.334017,4.693311,-1.456931,-4.189433,-2.605195,-0.488786,0.337145,-0.285607,-0.139843,-1.012207,-0.214844,0.053223,0.093394,0.046892,-0.014357,0.999997,0.001686,-0.001428,-0.000699,-0.082255,-0.597183,-0.070175,-0.794784
08777,NaN,12.868685,5.230099,-0.948694,-4.631027,-2.360208,3.103944,0.344107,-0.548828,0.007681,-1.016357,-0.214844,0.065918,0.128710,0.052322,-0.009044,0.999995,0.001721,-0.002744,0.000038,-0.081374,-0.599506,-0.071281,-0.793026
08778,NaN,13.745711,5.011540,0.904181,-2.990152,-1.927901,4.407696,-0.122800,-0.615426,-0.053826,-1.012207,-0.218994,0.063965,0.137442,0.050084,0.009434,0.999995,-0.000614,-0.003077,-0.000269,-0.082179,-0.601962,-0.070677,-0.791134
08779,NaN,12.636590,4.205812,2.710749,-0.855351,-1.350210,3.684181,-0.486543,-0.602795,-0.171622,-1.009766,-0.223389,0.070312,0.126320,0.042016,0.027386,0.999992,-0.002433,-0.003014,-0.000858,-0.084519,-0.604082,-0.069009,-0.789417
08780,NaN,10.245406,4.830062,2.393706,-0.535819,-2.472376,1.484562,-0.550954,-0.533911,-0.220172,-1.009766,-0.221191,0.076660,0.102443,0.048254,0.024078,0.999992,-0.002755,-0.002670,-0.001101,-0.087241,-0.605972,-0.067278,-0.787820
08781,NaN,8.632042,6.018183,1.805307,-0.738781,-3.973348,0.069439,-0.504238,-0.692853,-0.281186,-1.014160,-0.223389,0.078857,0.086342,0.060106,0.018201,0.999990,-0.002521,-0.003464,-0.001406,-0.090093,-0.608381,-0.065828,-0.785762
08782,NaN,8.193844,5.272665,1.946006,-0.408969,-3.322580,-0.457477,-0.302787,-0.803086,-0.394356,-1.007568,-0.229980,0.085205,0.081963,0.052595,0.019709,0.999989,-0.001514,-0.004015,-0.001972,-0.092823,-0.611358,-0.065537,-0.783154
08783,NaN,7.869891,3.344307,1.572243,-0.519974,-1.482971,-1.261569,-0.155122,-0.705008,-0.473332,-1.002930,-0.236328,0.093750,0.078722,0.033269,0.015974,0.999991,-0.000776,-0.003525,-0.002367,-0.095365,-0.613886,-0.066037,-0.780825
08784,NaN,7.734956,0.296030,1.727908,-0.081484,1.485062,-2.022275,-0.260294,-0.559848,-0.535425,-1.004883,-0.242676,0.104248,0.077308,0.002776,0.017492,0.999992,-0.001301,-0.002799,-0.002677,-0.098428,-0.615853,-0.066507,-0.778854
08785,NaN,7.558196,-2.257315,2.960421,1.390682,3.926314,-2.489053,-0.652594,-0.497187,-0.546062,-1.006836,-0.251221,0.100098,0.075446,-0.022682,0.029866,0.999988,-0.003263,-0.002486,-0.002730,-0.102713,-0.617280,-0.065390,-0.777264
08786,NaN,6.952100,-3.107801,3.749088,2.422104,4.593212,-3.098438,-0.652037,-0.603357,-0.508429,-1.000244,-0.253418,0.108643,0.069328,-0.031132,0.037802,0.999987,-0.003260,-0.003017,-0.002542,-0.106898,-0.619201,-0.064168,-0.775271
08787,NaN,6.869561,-1.827599,4.441815,3.074831,3.311719,-2.753077,-0.312156,-0.838887,-0.480757,-0.995850,-0.257812,0.114990,0.068464,-0.018371,0.044734,0.999987,-0.001561,-0.004194,-0.002404,-0.109980,-0.622125,-0.063985,-0.772509
08788,NaN,7.375120,-0.884793,3.068517,1.620263,2.591226,-2.379594,0.156064,-0.846552,-0.390309,-0.997803,-0.262207,0.119141,0.073603,-0.009016,0.030990,0.999989,0.000780,-0.004233,-0.001952,-0.111270,-0.625412,-0.065316,-0.769554
08789,NaN,7.701027,0.238282,2.355374,0.821792,1.640962,-1.967819,0.683212,-0.635820,-0.250270,-0.997803,-0.260010,0.127686,0.076938,0.002205,0.023806,0.999988,0.003416,-0.003179,-0.001251,-0.110288,-0.628150,-0.068361,-0.767197
08790,NaN,7.712525,1.097069,3.607935,2.023469,0.803625,-1.508274,0.865303,-0.353185,-0.142072,-0.995605,-0.266357,0.138184,0.077069,0.010759,0.036262,0.999989,0.004327,-0.001766,-0.000710,-0.108231,-0.629974,-0.071872,-0.765671
08791,NaN,7.633394,1.014597,3.800802,2.262584,0.894961,-1.577166,0.868862,-0.074647,-0.090848,-0.991455,-0.260010,0.142334,0.076324,0.009946,0.038080,0.999990,0.004344,-0.000373,-0.000454,-0.105853,-0.630693,-0.075432,-0.765070
08792,NaN,6.813658,1.316856,3.957422,2.559882,0.427687,-2.257215,1.032164,0.069938,-0.015256,-0.993652,-0.255859,0.146484,0.068151,0.012959,0.039618,0.999987,0.005161,0.000350,-0.000076,-0.102624,-0.630993,-0.079398,-0.764861
08793,NaN,7.087914,1.861072,4.369508,2.883742,0.010578,-1.782838,1.059428,0.407989,0.093027,-1.000244,-0.253662,0.140381,0.070960,0.018412,0.043648,0.999984,0.005297,0.002040,0.000465,-0.098747,-0.630005,-0.083351,-0.765765
08794,NaN,7.637379,1.799935,4.143000,2.542266,0.250448,-1.315175,1.200344,0.629865,0.168186,-1.002197,-0.257812,0.134033,0.076489,0.017816,0.041297,0.999977,0.006002,0.003149,0.000841,-0.094037,-0.628248,-0.087659,-0.767318
08795,NaN,8.242742,1.212075,4.302824,2.558198,1.014662,-0.848766,1.170196,0.836174,0.229829,-1.002441,-0.249268,0.129639,0.082593,0.011965,0.042753,0.999973,0.005851,0.004181,0.001149,-0.089096,-0.625676,-0.091805,-0.769522
08796,NaN,9.230918,1.702194,4.321248,2.298056,0.821711,0.228411,1.182329,0.979303,0.312255,-1.007080,-0.238525,0.127441,0.092493,0.016912,0.042860,0.999969,0.005912,0.004896,0.001561,-0.083732,-0.622534,-0.095741,-0.772188
08797,NaN,10.684955,3.153836,4.695106,2.264128,-0.177443,2.061679,1.321454,1.077694,0.364557,-1.002930,-0.236328,0.118896,0.107044,0.031425,0.046582,0.999962,0.006607,0.005388,0.001823,-0.077677,-0.619079,-0.100143,-0.775035
08798,NaN,11.416777,4.387224,4.227806,1.560323,-1.196316,2.977865,1.489193,1.366531,0.380771,-1.011475,-0.232178,0.108398,0.114371,0.043777,0.041823,0.999947,0.007446,0.006833,0.001904,-0.070873,-0.614481,-0.105194,-0.778668
08799,NaN,10.945286,5.430728,2.865450,0.276166,-2.404690,2.501674,1.711731,1.563790,0.293232,-1.018066,-0.227783,0.102051,0.109595,0.054225,0.028262,0.999932,0.008558,0.007819,0.001466,-0.063629,-0.609114,-0.111493,-0.782624
08800,NaN,10.392113,6.006905,4.910336,2.301532,-2.853475,2.627122,1.381720,1.921970,0.080621,-1.022461,-0.223389,0.083008,0.104365,0.059775,0.048515,0.999930,0.006908,0.009610,0.000403,-0.058005,-0.601984,-0.117225,-0.787724
08801,NaN,9.728298,5.713667,4.734810,2.114589,-2.683018,1.935903,0.703427,2.416853,-0.216829,-1.024658,-0.225586,0.059814,0.097909,0.056867,0.046368,0.999920,0.003517,0.012084,-0.001084,-0.055305,-0.592496,-0.121327,-0.794462
08802,NaN,9.596919,4.736861,5.018761,2.108304,-1.667105,1.697937,0.418186,2.812622,-0.562033,-1.028809,-0.231934,0.030273,0.096796,0.046994,0.048929,0.999895,0.002091,0.014063,-0.002810,-0.054551,-0.580956,-0.125434,-0.802359
08803,NaN,9.998225,3.576241,6.283900,2.774398,-0.188037,2.207930,0.309984,3.228841,-0.847232,-1.035156,-0.242432,0.002930,0.101130,0.035240,0.061267,0.999860,0.001550,0.016143,-0.004236,-0.055001,-0.567477,-0.129990,-0.811201
08804,NaN,9.567966,1.382509,4.729336,0.954056,1.689346,0.772487,0.351331,3.664950,-0.977109,-1.018066,-0.246582,-0.035156,0.096591,0.013274,0.045552,0.999819,0.001757,0.018324,-0.004885,-0.055538,-0.551865,-0.135203,-0.821024
08805,NaN,9.162282,-0.334396,3.805589,-0.240218,3.170636,-0.409654,0.438699,4.011453,-0.926474,-1.015625,-0.261475,-0.079590,0.092344,-0.003851,0.036200,0.999786,0.002193,0.020056,-0.004632,-0.055391,-0.534779,-0.140634,-0.831364
08806,NaN,9.367135,-0.805489,2.819048,-1.653203,3.550270,-0.813399,0.180286,4.167593,-0.830515,-1.011475,-0.267822,-0.113281,0.094197,-0.008470,0.026224,0.999774,0.000901,0.020836,-0.004152,-0.055388,-0.516697,-0.144718,-0.842029
08807,NaN,9.888129,0.720460,2.564375,-2.438535,2.208099,-0.115618,0.039632,4.043329,-0.824741,-1.011230,-0.276367,-0.145020,0.099401,0.006791,0.023639,0.999787,0.000198,0.020215,-0.004123,-0.055804,-0.498982,-0.148094,-0.852039
08808,NaN,10.815634,2.626707,2.885861,-2.938003,0.714892,1.279943,0.019250,3.827722,-0.806749,-1.002930,-0.282471,-0.191406,0.108787,0.025826,0.026783,0.999809,0.000096,0.019137,-0.004033,-0.056331,-0.481916,-0.151174,-0.861238
08809,NaN,12.070232,5.478000,3.201740,-3.621980,-1.580141,3.237911,-0.133007,3.296403,-0.851598,-1.002686,-0.291016,-0.218994,0.121440,0.054284,0.029984,0.999855,-0.000665,0.016481,-0.004258,-0.057801,-0.466973,-0.153550,-0.868918
08810,NaN,13.763382,8.171927,3.641890,-4.536589,-3.601403,5.546459,-0.760940,2.912204,-0.658883,-0.996338,-0.297363,-0.250488,0.138410,0.081397,0.034097,0.999881,-0.003805,0.014560,-0.003294,-0.060184,-0.453499,-0.152557,-0.876038
08811,NaN,11.135349,9.281100,2.843088,-4.053162,-5.478961,3.292904,-1.446534,2.351982,-0.563805,-0.985840,-0.295166,-0.273926,0.111934,0.092692,0.026446,0.999901,-0.007232,0.011760,-0.002819,-0.064116,-0.442289,-0.148183,-0.882219
08812,NaN,8.522716,7.660101,1.783156,-3.697057,-4.833720,0.059105,-1.859287,1.900032,-0.451358,-0.981689,-0.295166,-0.299316,0.085560,0.076564,0.016308,0.999909,-0.009296,0.009500,-0.002257,-0.068781,-0.432932,-0.141588,-0.887576
08813,NaN,6.179891,4.707672,1.599938,-2.629891,-2.676822,-2.824983,-1.913826,1.693686,-0.228091,-0.977539,-0.294922,-0.320312,0.061983,0.047153,0.015024,0.999918,-0.009569,0.008468,-0.001140,-0.072713,-0.424563,-0.134151,-0.892448
08814,NaN,4.655200,1.442887,1.770659,-1.621185,0.051614,-4.887634,-1.743874,1.588615,0.096141,-0.973633,-0.286377,-0.341553,0.046683,0.014603,0.017209,0.999930,-0.008719,0.007943,0.000481,-0.074881,-0.416894,-0.126795,-0.896948
08815,NaN,4.640609,0.391733,1.975366,-1.510195,1.039838,-5.098018,-1.614421,1.476569,0.332705,-0.965332,-0.280029,-0.356445,0.046543,0.004152,0.019377,0.999939,-0.008072,0.007383,0.001663,-0.075796,-0.409855,-0.119398,-0.901120
08816,NaN,5.391701,0.812812,1.886355,-2.161898,0.744381,-4.515453,-1.615706,1.311484,0.369266,-0.972168,-0.271240,-0.377686,0.054024,0.008378,0.018443,0.999944,-0.008078,0.006557,0.001846,-0.076484,-0.403549,-0.111962,-0.904855
08817,NaN,6.309024,1.054396,2.196633,-2.624754,0.709729,-3.620195,-1.488805,0.955632,0.282270,-0.972412,-0.264893,-0.388428,0.063179,0.010795,0.021585,0.999960,-0.007444,0.004778,0.001411,-0.077655,-0.398800,-0.105010,-0.907690
08818,NaN,6.593701,0.631333,2.308357,-2.766460,1.147360,-3.469668,-1.281809,0.602299,0.197151,-0.964355,-0.254150,-0.392578,0.066000,0.006525,0.022844,0.999974,-0.006409,0.003011,0.000986,-0.078976,-0.395722,-0.099071,-0.909589
08819,NaN,5.762580,0.476215,2.763665,-1.896259,1.124122,-3.795020,-1.033145,0.302251,0.206530,-0.966309,-0.256104,-0.398926,0.057662,0.004964,0.027524,0.999985,-0.005166,0.001511,0.001033,-0.079912,-0.394037,-0.094073,-0.910768
08820,NaN,4.742975,-0.680840,2.767604,-1.127473,1.988452,-4.773464,-0.679181,-0.161859,0.222860,-0.964355,-0.249756,-0.394775,0.047415,-0.006661,0.027737,0.999993,-0.003396,-0.000809,0.001114,-0.080300,-0.394688,-0.090499,-0.910814
08821,NaN,3.888440,-1.207443,2.934171,-0.368272,2.309109,-5.372020,-0.259483,-0.661498,0.166018,-0.973145,-0.243408,-0.386475,0.038797,-0.012004,0.029486,0.999993,-0.001297,-0.003307,0.000830,-0.080337,-0.397671,-0.088715,-0.909689
08822,NaN,3.285711,-0.776039,2.981960,0.080238,1.755798,-5.665309,0.148144,-1.143600,0.073670,-0.979248,-0.249756,-0.373535,0.032689,-0.007771,0.030001,0.999983,0.000741,-0.005718,0.000368,-0.080212,-0.403049,-0.088775,-0.907324
08823,NaN,2.876227,-0.283847,3.290305,0.602776,1.218879,-5.649758,0.350253,-1.537417,0.059015,-0.985596,-0.247803,-0.356689,0.028509,-0.002888,0.033118,0.999969,0.001751,-0.007687,0.000295,-0.079900,-0.410180,-0.089617,-0.904067
08824,NaN,2.560271,0.672795,3.585228,1.040049,0.251366,-5.486491,0.413659,-1.922994,0.099041,-0.993896,-0.250000,-0.343994,0.025253,0.006666,0.036110,0.999952,0.002068,-0.009615,0.000495,-0.079465,-0.419149,-0.090485,-0.899895
08825,NaN,2.386661,1.965572,3.766756,1.298231,-1.024538,-5.228802,0.458899,-2.235696,0.220564,-1.004395,-0.250000,-0.314209,0.023422,0.019595,0.037976,0.999934,0.002294,-0.011178,0.001103,-0.078499,-0.429465,-0.091185,-0.895033
08826,NaN,2.534162,3.232417,3.824504,1.294184,-2.219206,-4.823108,0.620284,-2.567079,0.383730,-1.006592,-0.243652,-0.284668,0.024785,0.032253,0.038666,0.999911,0.003101,-0.012835,0.001919,-0.076611,-0.441406,-0.092099,-0.889275
08827,NaN,3.092830,4.758573,3.721215,0.953489,-3.592993,-4.135066,0.769977,-3.006621,0.484962,-1.017334,-0.237305,-0.255127,0.030247,0.047515,0.037853,0.999877,0.003850,-0.015032,0.002425,-0.074113,-0.455239,-0.093280,-0.882362
08828,NaN,3.338819,4.738767,3.485526,0.814932,-3.552566,-4.114959,0.631276,-3.448427,0.571210,-1.027588,-0.237549,-0.217041,0.032644,0.047370,0.035572,0.999842,0.003156,-0.017241,0.002856,-0.071741,-0.470936,-0.093487,-0.874261
08829,NaN,3.722448,3.272050,3.259542,0.672199,-2.090362,-4.302464,0.286742,-3.681045,0.703379,-1.036133,-0.231201,-0.183350,0.036500,0.032802,0.033319,0.999823,0.001434,-0.018404,0.003517,-0.069681,-0.487376,-0.091738,-0.865560
08830,NaN,5.269399,0.913767,2.153131,-0.786914,0.398246,-4.115729,0.485041,-3.851286,0.790713,-1.040283,-0.231201,-0.136719,0.052230,0.009291,0.022562,0.999804,0.002425,-0.019255,0.003953,-0.066813,-0.504520,-0.090600,-0.856030
08831,NaN,7.316990,0.505727,1.526238,-2.052546,1.137787,-2.698765,1.407198,-4.049998,0.739583,-1.048828,-0.218506,-0.090332,0.072821,0.005213,0.016776,0.999763,0.007035,-0.020248,0.003698,-0.061900,-0.522541,-0.093373,-0.845222
08832,NaN,8.994855,1.970200,2.432990,-1.646908,0.129827,-0.433707,2.303168,-3.905978,0.718563,-1.055176,-0.212402,-0.048096,0.089377,0.019728,0.026306,0.999737,0.011515,-0.019528,0.003592,-0.054641,-0.540010,-0.100030,-0.833905
08833,NaN,9.777684,4.172215,4.746628,0.625296,-1.574747,1.704685,2.722753,-3.433826,0.823069,-1.057373,-0.206055,-0.010010,0.096765,0.041455,0.049699,0.999751,0.013613,-0.017168,0.004115,-0.045546,-0.555350,-0.108186,-0.823291
08834,NaN,10.948913,6.735122,7.141808,3.031650,-3.451621,4.155664,2.608465,-2.871142,0.916829,-1.061768,-0.197510,0.023682,0.108133,0.066896,0.073851,0.999801,0.013041,-0.014355,0.004584,-0.036062,-0.568202,-0.115741,-0.813910
08835,NaN,11.930733,9.515227,8.026287,4.253305,-5.742701,5.878359,2.032921,-2.347043,0.860286,-1.057861,-0.184814,0.049072,0.117939,0.094830,0.082617,0.999870,0.010164,-0.011735,0.004301,-0.028124,-0.578546,-0.121120,-0.806116
08836,NaN,11.691507,10.959797,6.979394,3.974896,-7.292366,5.566669,1.311076,-2.184188,0.635858,-1.055664,-0.178467,0.074463,0.115790,0.109501,0.071781,0.999914,0.006555,-0.010921,0.003179,-0.023073,-0.587887,-0.124345,-0.798996
08837,NaN,10.234184,10.138319,4.696286,2.559012,-7.123733,3.312637,0.521186,-2.369438,0.273312,-1.051514,-0.174072,0.099609,0.101635,0.101397,0.048434,0.999925,0.002606,-0.011847,0.001367,-0.021905,-0.597542,-0.125330,-0.791679
08838,NaN,8.898738,8.514424,3.317462,1.705730,-6.018777,1.302605,-0.413217,-2.537448,-0.028497,-1.046875,-0.182861,0.127197,0.088571,0.085201,0.034124,0.999917,-0.002066,-0.012687,-0.000142,-0.024826,-0.607456,-0.123676,-0.784273
08839,NaN,7.404833,6.426553,3.014725,1.734162,-4.333038,-0.678305,-1.363420,-2.598879,-0.315882,-1.046631,-0.187256,0.148438,0.073754,0.064357,0.030668,0.999891,-0.006817,-0.012994,-0.001579,-0.031795,-0.617219,-0.118941,-0.777099
08840,NaN,6.492084,5.501274,0.842591,-0.147156,-3.916309,-2.212591,-1.602530,-2.512436,-0.593079,-1.041992,-0.197998,0.169678,0.064975,0.054890,0.008802,0.999885,-0.008012,-0.012562,-0.002965,-0.040527,-0.626265,-0.114373,-0.770110
08841,NaN,5.666632,3.565384,-0.739470,-1.606334,-2.352919,-3.709235,-1.207464,-2.028962,-0.784219,-1.033203,-0.206543,0.186523,0.056878,0.035388,-0.007033,0.999923,-0.006037,-0.010145,-0.003921,-0.048470,-0.633338,-0.111748,-0.764229
08842,NaN,3.636944,0.976747,-3.455599,-4.007758,-0.497985,-6.680336,-1.228351,-1.368845,-0.844952,-1.032715,-0.219482,0.195068,0.036645,0.009402,-0.034364,0.999949,-0.006142,-0.006844,-0.004225,-0.056351,-0.637730,-0.109661,-0.760328
08843,NaN,5.211976,-4.256835,-9.926883,-10.863589,4.469816,-7.399056,-1.435757,-1.632735,-0.714221,-1.023926,-0.230225,0.212158,0.052772,-0.043465,-0.098530,0.999935,-0.007179,-0.008163,-0.003571,-0.064521,-0.643101,-0.106001,-0.755659
08844,NaN,7.738472,-4.843967,3.347132,1.935617,6.754210,-3.090939,-2.182068,-1.069215,-0.667341,-1.023438,-0.243164,0.209961,0.077041,-0.048325,0.034411,0.999921,-0.010910,-0.005346,-0.003337,-0.074632,-0.646052,-0.099778,-0.753054
08845,NaN,16.781264,-9.390640,16.431372,13.742794,13.749147,6.368574,-4.063958,-0.600666,-0.592799,-1.018799,-0.258057,0.208008,0.167042,-0.091031,0.166685,0.999785,-0.020318,-0.003003,-0.002964,-0.090260,-0.646365,-0.086135,-0.752759
08846,NaN,25.767178,-9.615300,14.258774,10.760195,15.654198,14.658537,-3.910415,-0.479247,-0.480630,-1.018555,-0.272949,0.187012,0.257099,-0.093951,0.145056,0.999803,-0.019551,-0.002396,-0.002403,-0.104889,-0.646045,-0.072851,-0.752540
08847,NaN,27.950240,-12.523401,-2.216949,-5.351731,19.252770,13.503722,-2.207857,0.714824,-0.139912,-1.022705,-0.272949,0.180664,0.279336,-0.125671,-0.021782,0.999932,-0.011039,0.003574,-0.000700,-0.112265,-0.642105,-0.065354,-0.755531
08848,NaN,26.235550,-12.938472,-1.585917,-4.643210,19.208586,11.813056,1.970243,0.946308,0.072891,-1.022705,-0.270752,0.176514,0.262320,-0.129116,-0.018373,0.999940,0.009851,0.004731,0.000364,-0.105323,-0.639604,-0.073008,-0.757947
08849,NaN,31.360769,-11.716243,21.825135,16.942092,19.046899,20.964246,2.461356,1.159108,-0.057942,-1.022949,-0.270752,0.172119,0.314825,-0.119913,0.214965,0.999907,0.012306,0.005795,-0.000290,-0.097224,-0.636429,-0.083113,-0.760656
08850,NaN,22.100933,0.391930,1.165525,-2.894248,5.241227,11.496838,3.857318,2.289553,0.014690,-1.033936,-0.251465,0.165771,0.221124,0.003742,0.009197,0.999748,0.019285,0.011447,0.000073,-0.083872,-0.629409,-0.098543,-0.766224
08851,NaN,9.592137,13.959170,-17.310749,-18.440260,-12.543068,-0.382482,7.612623,2.612968,0.380628,-1.032471,-0.234375,0.171875,0.093422,0.146253,-0.168856,0.999189,0.038053,0.013061,0.001903,-0.057093,-0.622271,-0.127507,-0.770235
08852,NaN,3.312835,12.708276,-3.172365,-2.606267,-11.837744,-3.847752,5.390008,2.205869,-0.098051,-1.041260,-0.228027,0.157227,0.032864,0.127866,-0.028648,0.999576,0.026946,0.011028,-0.000490,-0.039240,-0.615026,-0.148898,-0.773326
08853,NaN,-0.421116,8.516680,-0.283284,0.921225,-8.256182,-7.869187,1.205890,1.541324,-0.336937,-1.045410,-0.232178,0.142334,-0.004087,0.085189,-0.002287,0.999951,0.006029,0.007706,-0.001685,-0.035670,-0.609025,-0.154880,-0.777064
08854,NaN,2.799378,10.095166,-5.623280,-4.758986,-10.025152,-5.544423,0.088338,1.211414,0.030059,-1.051758,-0.232178,0.131836,0.027637,0.100981,-0.056356,0.999982,0.000442,0.006057,0.000150,-0.034323,-0.604375,-0.155213,-0.780680
08855,NaN,5.078615,14.436071,-1.208776,-0.563522,-12.731519,-1.254394,0.275966,0.487239,0.155778,-1.049561,-0.234375,0.131836,0.050644,0.144417,-0.012012,0.999996,0.001380,0.002436,0.000779,-0.032488,-0.602642,-0.155892,-0.781962
08856,NaN,11.614756,11.577927,0.814567,-0.793436,-8.052980,4.474875,-0.173776,-0.103035,-0.001459,-1.049805,-0.229980,0.131836,0.116144,0.115785,0.008105,0.999999,-0.000869,-0.000515,-0.000007,-0.033084,-0.603049,-0.155188,-0.781764
08857,NaN,15.882142,8.544756,-0.116039,-3.273866,-4.331430,7.385831,-1.139618,-0.340835,-0.186209,-1.047363,-0.236328,0.134033,0.158903,0.085292,-0.001376,0.999982,-0.005698,-0.001704,-0.000931,-0.037497,-0.604040,-0.151224,-0.781576
08858,NaN,15.765885,7.473833,-1.126853,-4.380019,-3.493063,6.749459,-1.423194,-0.551371,-0.244664,-1.041016,-0.236572,0.138184,0.157781,0.074465,-0.011364,0.999970,-0.007116,-0.002757,-0.001223,-0.043161,-0.605764,-0.146344,-0.780878
08859,NaN,13.773355,6.006002,-1.420069,-4.298592,-2.572998,4.424421,-0.772118,-0.686651,-0.309923,-1.044922,-0.247314,0.148926,0.137875,0.059792,-0.013959,0.999985,-0.003861,-0.003433,-0.001550,-0.047196,-0.608046,-0.144107,-0.779286
08860,NaN,10.544092,2.320173,-0.004218,-2.432332,0.436591,0.697004,-0.276088,-0.796358,-0.363030,-1.038574,-0.247314,0.150879,0.105482,0.023011,0.000346,0.999989,-0.001380,-0.003982,-0.001815,-0.050023,-0.610881,-0.144021,-0.776904
08861,NaN,9.172898,-0.607758,1.836278,-0.537609,3.222470,-1.025792,-0.180153,-0.732688,-0.349746,-1.038086,-0.258057,0.157471,0.091650,-0.006221,0.018704,0.999991,-0.000901,-0.003663,-0.001749,-0.052444,-0.613428,-0.144193,-0.774703
08862,NaN,8.530409,-1.705175,2.787951,0.501020,4.285081,-1.760684,-0.168749,-0.748041,-0.341016,-1.033691,-0.262207,0.163818,0.085170,-0.017173,0.028213,0.999991,-0.000844,-0.003740,-0.001705,-0.054820,-0.616105,-0.144442,-0.772364
08863,NaN,8.114703,-1.277515,2.211241,0.148298,3.706152,-2.156839,-0.039859,-0.810632,-0.319910,-1.035645,-0.264404,0.174316,0.081036,-0.012900,0.022444,0.999990,-0.000199,-0.004053,-0.001600,-0.056749,-0.618991,-0.145039,-0.769801
08864,NaN,7.308028,-0.891886,2.379417,0.598234,3.175205,-2.782459,0.002644,-0.886270,-0.273663,-1.033447,-0.268799,0.184814,0.072962,-0.009019,0.024118,0.999989,0.000013,-0.004431,-0.001368,-0.058430,-0.622274,-0.145656,-0.766906
08865,NaN,7.430505,-0.734002,3.778972,2.014370,3.288307,-2.385666,0.101946,-0.912505,-0.172855,-1.029297,-0.268799,0.189209,0.074125,-0.007424,0.038124,0.999989,0.000510,-0.004563,-0.000864,-0.059425,-0.625674,-0.146305,-0.763935
08866,NaN,7.887483,0.157782,3.743311,2.036146,2.576585,-1.721670,0.199435,-0.794822,-0.101902,-1.024902,-0.270996,0.201904,0.078726,0.001500,0.037748,0.999991,0.000997,-0.003974,-0.000510,-0.059760,-0.628759,-0.147130,-0.761212
08867,NaN,7.589110,1.080385,4.315386,2.799643,1.717977,-1.652132,0.268405,-0.605293,-0.038136,-1.022705,-0.270996,0.203857,0.075762,0.010731,0.043398,0.999995,0.001342,-0.003026,-0.000191,-0.059492,-0.631114,-0.148078,-0.759097
08868,NaN,6.907023,2.084368,4.808596,3.558647,0.661758,-1.934104,0.291824,-0.462432,0.021985,-1.022705,-0.268799,0.210205,0.068956,0.020781,0.048276,0.999996,0.001459,-0.002312,0.000110,-0.058815,-0.633025,-0.148942,-0.757388
08869,NaN,7.306083,2.588887,4.360609,3.133627,0.238483,-1.492864,0.390131,-0.355031,0.046161,-1.020508,-0.268799,0.212402,0.072977,0.025820,0.043786,0.999996,0.001951,-0.001775,0.000231,-0.057654,-0.634519,-0.150156,-0.755986
08870,NaN,7.331865,1.189015,4.539518,3.184992,1.616633,-1.874205,0.596069,-0.114533,0.095115,-1.024902,-0.264648,0.216553,0.073287,0.011790,0.045472,0.999995,0.002980,-0.000573,0.000476,-0.055472,-0.635224,-0.152036,-0.755181
08871,NaN,6.745263,0.851640,4.230775,2.964842,1.746145,-2.581922,0.828238,0.020870,0.161938,-1.022949,-0.256104,0.220703,0.067450,0.008396,0.042336,0.999991,0.004141,0.000104,0.000810,-0.052199,-0.635496,-0.154642,-0.754656
08872,NaN,6.396131,0.872878,3.347784,2.169349,1.500410,-3.036055,0.831070,0.188752,0.210749,-1.025146,-0.260254,0.222900,0.063984,0.008657,0.033454,0.999990,0.004155,0.000944,0.001054,-0.048595,-0.635170,-0.157106,-0.754663
08873,NaN,6.146719,0.881748,2.909756,1.777358,1.357739,-3.330109,0.825766,0.399906,0.248859,-1.025146,-0.256104,0.222900,0.061514,0.008774,0.029011,0.999989,0.004129,0.002000,0.001244,-0.044704,-0.634053,-0.159515,-0.755336
08874,NaN,6.028561,1.318740,2.695964,1.629969,0.879392,-3.338071,0.939762,0.535521,0.299312,-1.027588,-0.245361,0.214355,0.060338,0.013151,0.026860,0.999984,0.004699,0.002678,0.001497,-0.040143,-0.632471,-0.162172,-0.756353
08875,NaN,6.494673,2.153695,2.830930,1.766069,0.246983,-2.625665,0.994233,0.671172,0.315041,-1.031982,-0.245361,0.216553,0.065008,0.021499,0.028198,0.999981,0.004971,0.003356,0.001575,-0.035247,-0.630379,-0.165055,-0.757718
08876,NaN,6.927551,2.570235,2.280002,1.180280,-0.146681,-2.171954,0.974133,0.836904,0.338265,-1.036377,-0.236572,0.201660,0.069327,0.025709,0.022635,0.999978,0.004871,0.004184,0.001691,-0.030178,-0.627635,-0.167761,-0.759618
08877,NaN,7.310639,3.143258,2.176494,1.060507,-0.618270,-1.654525,1.113824,0.947886,0.386988,-1.045166,-0.232422,0.205811,0.073148,0.031454,0.021593,0.999971,0.005569,0.004739,0.001935,-0.024403,-0.624513,-0.170903,-0.761695
08878,NaN,7.953278,3.523636,1.935779,0.725742,-0.878807,-0.974202,1.406579,0.940778,0.355704,-1.043213,-0.223877,0.195068,0.079561,0.035242,0.019231,0.999963,0.007033,0.004704,0.001778,-0.017826,-0.621365,-0.175201,-0.763474
08879,NaN,8.299528,3.291689,2.687612,1.292048,-0.387778,-0.586596,1.631195,0.967804,0.303798,-1.045410,-0.219482,0.190918,0.083075,0.032825,0.026742,0.999954,0.008156,0.004839,0.001519,-0.010735,-0.618057,-0.180551,-0.765044
08880,NaN,8.657734,3.119623,2.703884,1.145512,-0.125560,-0.290544,1.449417,1.022471,0.240409,-1.045654,-0.213135,0.184570,0.086677,0.031105,0.026822,0.999960,0.007247,0.005112,0.001202,-0.004391,-0.614391,-0.185352,-0.766909
08881,NaN,8.929368,4.439538,2.353843,0.989658,-1.378884,0.291901,1.256113,1.123804,0.116049,-1.058594,-0.212891,0.180420,0.089399,0.044300,0.023315,0.999964,0.006280,0.005619,0.000580,0.000970,-0.610199,-0.189819,-0.769172
08882,NaN,9.281890,6.757963,2.542760,1.561162,-3.371746,1.344500,1.241789,1.343685,-0.110765,-1.056396,-0.210938,0.167725,0.093026,0.067371,0.025222,0.999958,0.006209,0.006718,-0.000554,0.005629,-0.604862,-0.194879,-0.772096
08883,NaN,9.450153,9.211877,3.758324,3.170544,-5.170224,2.496006,1.070448,1.620776,-0.409324,-1.054199,-0.219238,0.152832,0.094993,0.091725,0.037306,0.999951,0.005352,0.008104,-0.002047,0.008880,-0.598151,-0.200183,-0.775928
08884,NaN,10.190026,9.740482,4.391539,3.527734,-5.202489,3.547090,0.633291,1.974179,-0.776937,-1.056152,-0.227783,0.134033,0.102706,0.096869,0.043212,0.999939,0.003166,0.009871,-0.003885,0.009748,-0.589598,-0.204865,-0.781223
08885,NaN,11.154666,8.754378,5.141786,3.395954,-3.747988,4.396906,0.051782,2.393302,-1.127162,-1.060059,-0.240723,0.114990,0.112642,0.086898,0.050097,0.999912,0.000259,0.011966,-0.005636,0.007964,-0.579045,-0.208244,-0.788212
08886,NaN,12.551922,6.716621,4.480217,1.414049,-1.722954,4.943668,-0.483172,2.797508,-1.350856,-1.059814,-0.255615,0.072754,0.126578,0.066419,0.042875,0.999876,-0.002416,0.013987,-0.006754,0.004159,-0.566484,-0.210156,-0.796815
08887,NaN,13.559238,4.188862,5.040234,0.446696,1.050882,5.203180,-0.661001,3.154369,-1.401137,-1.059570,-0.270508,0.041260,0.136653,0.041095,0.048116,0.999846,-0.003305,0.015771,-0.007005,0.000034,-0.552375,-0.211383,-0.806349
08888,NaN,14.153102,2.472805,4.635292,-1.086814,2.634345,5.011782,-0.942404,3.349645,-1.290671,-1.061523,-0.278809,0.005371,0.142436,0.024021,0.043858,0.999828,-0.004712,0.016747,-0.006453,-0.004224,-0.537327,-0.211155,-0.816502
08889,NaN,14.538378,1.997482,3.438327,-2.948653,2.734076,4.712525,-1.107278,3.390456,-1.097479,-1.052979,-0.291748,-0.034668,0.146045,0.019355,0.031803,0.999826,-0.005536,0.016951,-0.005487,-0.008083,-0.522215,-0.209608,-0.826614
08890,NaN,14.765509,3.432665,2.689765,-3.943795,1.176962,5.022195,-1.417613,3.290333,-0.912203,-1.050537,-0.304443,-0.072754,0.148223,0.033829,0.024221,0.999829,-0.007088,0.016451,-0.004561,-0.012092,-0.507445,-0.206246,-0.836550
08891,NaN,15.101406,4.169215,2.732687,-4.455043,0.522585,5.443707,-1.734290,2.985940,-0.792645,-1.048340,-0.312744,-0.106445,0.151560,0.041314,0.024707,0.999843,-0.008671,0.014929,-0.003963,-0.016710,-0.493958,-0.201142,-0.845735
08892,NaN,13.193121,4.276024,2.720067,-3.939225,-0.096012,3.759281,-1.961208,2.648687,-0.641513,-1.048340,-0.319092,-0.134033,0.132409,0.042589,0.025031,0.999859,-0.009806,0.013243,-0.003207,-0.021585,-0.481841,-0.194633,-0.854097
08893,NaN,9.214688,2.357664,2.416473,-2.680430,0.618083,-0.392682,-1.750079,2.160045,-0.538668,-1.041992,-0.321289,-0.161377,0.092463,0.023532,0.022961,0.999900,-0.008750,0.010800,-0.002693,-0.025981,-0.471859,-0.188662,-0.860860
08894,NaN,7.069054,0.028616,2.318775,-2.062392,2.227506,-3.020601,-1.337389,1.723714,-0.332921,-1.039795,-0.323242,-0.182617,0.070887,0.000321,0.022575,0.999939,-0.006687,0.008618,-0.001665,-0.028926,-0.463909,-0.183906,-0.866101
08895,NaN,6.155824,-0.611217,2.293299,-1.744165,2.580069,-3.996552,-0.942651,1.436843,-0.065204,-1.040039,-0.318848,-0.205811,0.061719,-0.006025,0.022519,0.999963,-0.004713,0.007184,-0.000326,-0.030056,-0.457477,-0.180168,-0.870259
08896,NaN,6.515771,0.058432,2.479727,-1.810053,2.047438,-3.398742,-0.602750,1.278408,0.222704,-1.031982,-0.308105,-0.216553,0.065314,0.000731,0.024378,0.999974,-0.003014,0.006392,0.001114,-0.029295,-0.452013,-0.177205,-0.873742
08897,NaN,7.063014,-0.091307,2.871554,-1.916540,2.365337,-2.821864,-0.426029,1.146295,0.383130,-1.033936,-0.312500,-0.227051,0.070795,-0.000717,0.028312,0.999979,-0.002130,0.005731,0.001916,-0.027551,-0.447276,-0.174634,-0.876748
08898,NaN,7.420698,-0.004412,2.660807,-2.358621,2.247989,-2.634273,-0.221570,0.865571,0.383301,-1.038330,-0.308105,-0.231201,0.074321,0.000127,0.026287,0.999988,-0.001108,0.004328,0.001916,-0.025592,-0.443796,-0.172886,-0.878920
08899,NaN,7.169933,-0.226438,2.882724,-2.104384,2.434260,-2.783100,0.096662,0.504209,0.279526,-1.036377,-0.308105,-0.237549,0.071775,-0.002178,0.028645,0.999996,0.000483,0.002521,0.001398,-0.023696,-0.441836,-0.172746,-0.879988
08900,NaN,6.534744,-0.482504,3.140402,-1.568812,2.611144,-3.215828,0.532764,0.172878,0.231901,-1.029785,-0.308105,-0.233398,0.065380,-0.004833,0.031335,0.999995,0.002664,0.000864,0.001160,-0.021329,-0.441370,-0.174541,-0.879928
08901,NaN,5.552434,0.070401,3.736900,-0.439887,2.085497,-3.467921,0.897181,-0.193192,0.250572,-1.036377,-0.305908,-0.229248,0.055487,0.000606,0.037425,0.999989,0.004486,-0.000966,0.001253,-0.018398,-0.442532,-0.177905,-0.878736
08902,NaN,4.680641,1.346026,4.080115,0.547369,0.854428,-3.540719,1.067478,-0.578127,0.294193,-1.040283,-0.312500,-0.208008,0.046668,0.013310,0.041007,0.999980,0.005337,-0.002891,0.001471,-0.015235,-0.445465,-0.181813,-0.876512
08903,NaN,3.847061,2.004118,4.326067,1.390052,0.194673,-3.849423,1.070446,-0.950763,0.367333,-1.040283,-0.310303,-0.205811,0.038227,0.019879,0.043549,0.999973,0.005352,-0.004754,0.001837,-0.012088,-0.450038,-0.185600,-0.873425
08904,NaN,3.197044,2.314692,4.344213,1.915224,-0.177401,-4.267352,0.938796,-1.308076,0.497495,-1.046875,-0.303955,-0.180664,0.031628,0.023021,0.043758,0.999965,0.004694,-0.006540,0.002487,-0.008992,-0.456287,-0.188418,-0.869609
08905,NaN,3.051161,3.076313,4.055926,1.985930,-0.982458,-4.306906,0.689576,-1.627179,0.670787,-1.051270,-0.295410,-0.161621,0.030077,0.030724,0.040911,0.999955,0.003448,-0.008136,0.003354,-0.006018,-0.464008,-0.189796,-0.865239
08906,NaN,3.004526,4.004953,3.597331,1.908873,-1.998175,-4.301806,0.389011,-1.886950,0.853121,-1.055664,-0.287109,-0.142578,0.029533,0.040106,0.036332,0.999945,0.001945,-0.009435,0.004266,-0.003190,-0.472986,-0.189363,-0.860474
08907,NaN,3.237836,5.212001,3.157648,1.755474,-3.234158,-3.975215,0.089748,-2.115421,1.022677,-1.057861,-0.276367,-0.121582,0.031775,0.052269,0.031938,0.999931,0.000449,-0.010577,0.005113,-0.000563,-0.483027,-0.187274,-0.855343
08908,NaN,3.533091,5.988652,2.673436,1.471845,-4.091344,-3.764010,-0.112911,-2.307456,1.135364,-1.064697,-0.263672,-0.093994,0.034679,0.060100,0.027103,0.999917,-0.000565,-0.011537,0.005677,0.001882,-0.493922,-0.183980,-0.849817
08909,NaN,3.273634,4.776819,1.890588,0.855239,-3.290822,-4.758331,-0.079389,-2.445536,1.216788,-1.071289,-0.250732,-0.070801,0.032211,0.047973,0.019283,0.999907,-0.000397,-0.012227,0.006084,0.004623,-0.505391,-0.180634,-0.843759
08910,NaN,2.812872,2.133926,1.170394,0.077123,-1.148652,-6.275812,0.248906,-2.610745,1.249174,-1.071533,-0.240234,-0.045654,0.027839,0.021499,0.012095,0.999895,0.001244,-0.013053,0.006246,0.008182,-0.517468,-0.178552,-0.836827
08911,NaN,2.211401,-1.264084,0.179582,-1.099173,1.614107,-8.167504,0.830815,-2.901025,1.216239,-1.075684,-0.231689,-0.009766,0.022162,-0.012514,0.002065,0.999868,0.004154,-0.014504,0.006081,0.012846,-0.530593,-0.178966,-0.828419
08912,NaN,3.046367,-3.214871,-0.229165,-2.194110,3.442595,-8.080011,1.532610,-3.183659,1.242661,-1.080322,-0.216797,0.028320,0.030696,-0.031942,-0.002050,0.999825,0.007663,-0.015917,0.006213,0.019227,-0.544697,-0.182171,-0.818382
08913,NaN,4.223726,-2.194045,0.561437,-1.678089,2.928098,-6.409995,2.029743,-3.241206,1.227753,-1.074219,-0.197754,0.072510,0.042275,-0.021741,0.006078,0.999798,0.010148,-0.016205,0.006138,0.026838,-0.558776,-0.187396,-0.807423
08914,NaN,5.082270,0.513448,1.957514,0.066546,1.030318,-4.440896,2.039922,-3.134064,1.246883,-1.070312,-0.187012,0.106201,0.050475,0.005244,0.020421,0.999806,0.010199,-0.015669,0.006234,0.034655,-0.572225,-0.192487,-0.796434
08915,NaN,5.848168,2.943895,2.914117,1.548415,-0.724121,-2.853360,1.712680,-2.984632,1.197118,-1.070312,-0.178711,0.139893,0.057859,0.029531,0.030260,0.999834,0.008563,-0.014922,0.005985,0.041459,-0.584873,-0.196356,-0.785906
08916,NaN,7.639392,5.340138,3.392514,2.406021,-2.424150,-0.500726,1.322630,-2.700498,1.134046,-1.068604,-0.159424,0.169434,0.075620,0.053601,0.035304,0.999871,0.006613,-0.013502,0.005670,0.047154,-0.596254,-0.198726,-0.776380
08917,NaN,9.194343,6.953636,4.189767,3.502437,-3.330942,1.459914,0.935985,-2.331610,1.104775,-1.064697,-0.144531,0.198975,0.091059,0.069841,0.043289,0.999906,0.004680,-0.011658,0.005524,0.051927,-0.606130,-0.199585,-0.768164
08918,NaN,10.126984,6.001257,4.948003,3.946540,-2.024279,2.161169,0.520342,-2.059042,1.017739,-1.058350,-0.138184,0.219971,0.100446,0.060394,0.050674,0.999931,0.002602,-0.010295,0.005089,0.055373,-0.614864,-0.198999,-0.761101
08919,NaN,10.897577,4.994640,5.453458,4.171462,-0.809111,2.652514,0.082271,-2.017855,0.871386,-1.060547,-0.133789,0.239014,0.108199,0.050396,0.055650,0.999940,0.000411,-0.010089,0.004357,0.056946,-0.623354,-0.197168,-0.754527
08920,NaN,11.696733,4.119661,5.393175,3.929426,0.074248,3.126330,-0.159326,-2.133914,0.740593,-1.045898,-0.127441,0.255859,0.116230,0.041672,0.055141,0.999936,-0.000797,-0.010669,0.003703,0.057149,-0.632104,-0.194848,-0.747805
08921,NaN,11.420464,2.528705,4.807450,3.192423,1.263429,2.358533,-0.042148,-2.115727,0.664476,-1.041748,-0.116943,0.281006,0.113603,0.025675,0.049273,0.999939,-0.000211,-0.010578,0.003322,0.057450,-0.640639,-0.193170,-0.740922
08922,NaN,11.851938,1.128336,4.965193,3.053773,2.685477,2.428719,0.442357,-1.883514,0.586735,-1.041992,-0.110596,0.291504,0.118011,0.011519,0.050790,0.999949,0.002212,-0.009417,0.002934,0.059232,-0.647970,-0.193454,-0.734304
08923,NaN,12.199779,-1.070211,5.648446,3.099064,5.050274,2.302275,1.008983,-1.518732,0.339948,-1.031494,-0.102051,0.316895,0.121583,-0.010783,0.057355,0.999957,0.005045,-0.007594,0.001700,0.062293,-0.653552,-0.196485,-0.728274
08924,NaN,14.358560,-2.637475,6.854019,3.488272,7.370242,4.101760,1.497139,-0.932783,0.090369,-1.029297,-0.102051,0.316895,0.143277,-0.026825,0.069009,0.999961,0.007486,-0.004664,0.000452,0.066618,-0.656477,-0.201896,-0.723767
08925,NaN,17.545945,-2.932692,10.807454,6.615839,9.800988,7.317138,1.247153,-0.118721,-0.174657,-1.025146,-0.104248,0.318848,0.175369,-0.030154,0.107992,0.999980,0.006236,-0.000594,-0.000873,0.069973,-0.656305,-0.207005,-0.722161
08926,NaN,18.628157,-3.354371,10.113452,5.517003,10.183855,8.253531,0.961377,0.937355,-0.131336,-1.031738,-0.095459,0.310547,0.186730,-0.034149,0.100097,0.999977,0.004807,0.004687,-0.000657,0.073669,-0.652339,-0.210495,-0.724375
08927,NaN,14.953942,-0.245753,9.153802,6.067585,6.409424,5.338844,1.161253,1.624955,0.062835,-1.040283,-0.093262,0.291504,0.150277,-0.002937,0.090303,0.999950,0.005806,0.008125,0.000314,0.079405,-0.646063,-0.213874,-0.728392
08928,NaN,7.544180,4.961511,-2.120360,-1.102410,-4.129336,-1.581037,1.896973,0.705655,0.137103,-1.038330,-0.084717,0.295654,0.075333,0.049867,-0.020997,0.999949,0.009485,0.003528,0.000686,0.086849,-0.642726,-0.219925,-0.728693
08929,NaN,5.831717,7.242314,-5.932042,-3.175119,-8.123764,-3.062338,2.570742,0.174264,0.276424,-1.038818,-0.076172,0.297607,0.058165,0.073259,-0.058433,0.999916,0.012853,0.000871,0.001382,0.096316,-0.641229,-0.228295,-0.726244
08930,NaN,8.154637,8.218900,8.804625,10.084020,-1.947560,0.487274,0.431124,0.008778,0.331891,-1.040771,-0.076172,0.297607,0.081414,0.082134,0.088220,0.999996,0.002156,0.000044,0.001659,0.098960,-0.641252,-0.228709,-0.725737
08931,NaN,15.385642,9.448300,6.307358,7.238846,-3.150953,7.606821,-1.085029,0.269096,0.159415,-1.040771,-0.082520,0.284912,0.153865,0.094945,0.062352,0.999984,-0.005425,0.001345,0.000797,0.096381,-0.640989,-0.224111,-0.727749
08932,NaN,19.820843,12.502329,-5.362529,-2.700522,-10.523845,11.632198,-0.908800,0.385164,-0.150009,-1.036377,-0.084717,0.280762,0.198198,0.124628,-0.054574,0.999988,-0.004544,0.001926,-0.000750,0.093387,-0.639690,-0.221041,-0.730216
08933,NaN,16.347099,7.864277,-9.027025,-7.524253,-8.566751,6.937106,-0.323237,0.773400,-0.215059,-1.040771,-0.082520,0.276611,0.163204,0.078320,-0.091028,0.999991,-0.001616,0.003867,-0.001075,0.092437,-0.636777,-0.220172,-0.733140
08934,NaN,9.164473,-0.416353,-1.146283,-2.814105,1.173500,-1.084688,0.029594,0.938336,-0.061050,-1.042725,-0.088867,0.266113,0.091588,-0.004190,-0.011893,0.999989,0.000148,0.004692,-0.000305,0.093347,-0.633121,-0.220039,-0.736225
08935,NaN,5.226809,-2.590729,1.434174,-0.753367,3.662070,-5.110570,-0.164974,0.426708,0.005195,-1.049316,-0.084717,0.263916,0.052299,-0.025894,0.014252,0.999997,-0.000825,0.002134,0.000026,0.093328,-0.631635,-0.219201,-0.737752
08936,NaN,4.551198,-4.627192,-5.389937,-7.564387,2.346328,-6.905715,0.278969,-0.038836,0.057130,-1.044922,-0.088867,0.261719,0.045536,-0.046184,-0.053955,0.999999,0.001395,-0.000194,0.000286,0.094393,-0.631593,-0.220050,-0.737400
08937,NaN,7.632169,-5.167068,-7.590979,-10.312790,2.223321,-4.220377,0.979400,-0.370987,0.190813,-1.045166,-0.080322,0.268066,0.076512,-0.051226,-0.076020,0.999986,0.004897,-0.001855,0.000954,0.097795,-0.632703,-0.223217,-0.735050
08938,NaN,11.643098,-2.557832,-4.934703,-7.545034,1.605203,0.529010,0.898376,-0.283046,0.328370,-1.045166,-0.073975,0.274414,0.116542,-0.025166,-0.049296,0.999988,0.004492,-0.001415,0.001642,0.101556,-0.633596,-0.225572,-0.733048
08939,NaN,13.722055,-1.140322,-1.908960,-4.573649,1.989418,3.162782,0.362124,-0.337100,0.348998,-1.039062,-0.067627,0.276367,0.137272,-0.011129,-0.018879,0.999995,0.001811,-0.001685,0.001745,0.103617,-0.635041,-0.225950,-0.731391
08940,NaN,13.526140,0.310418,0.688203,-1.536723,1.880408,3.515037,0.217837,-0.649673,0.273948,-1.039062,-0.063232,0.282715,0.135234,0.003282,0.007325,0.999993,0.001089,-0.003248,0.001370,0.104614,-0.637576,-0.226152,-0.728977
08941,NaN,14.348498,1.920060,3.219623,1.381314,1.784158,4.844705,0.954294,-0.804334,0.271462,-1.030518,-0.063477,0.295410,0.143328,0.019239,0.032865,0.999980,0.004771,-0.004022,0.001357,0.107749,-0.640306,-0.229166,-0.725177
08942,NaN,15.036420,3.970300,3.302397,2.412732,0.197530,5.900357,1.542462,-0.823127,0.285489,-1.030762,-0.052734,0.305908,0.150169,0.039658,0.033948,0.999961,0.007712,-0.004116,0.001427,0.112820,-0.642729,-0.234209,-0.720637
08943,NaN,13.786442,6.049003,0.655492,1.433513,-2.976159,4.890030,1.473795,-0.842947,0.372697,-1.033203,-0.046143,0.310059,0.137721,0.060693,0.007582,0.999962,0.007369,-0.004215,0.001863,0.117922,-0.645351,-0.238774,-0.715964
08944,NaN,11.753063,5.974834,0.360184,1.610234,-3.296442,2.856210,1.076661,-0.848847,0.461568,-1.031250,-0.035645,0.320557,0.117375,0.059997,0.004423,0.999974,0.005383,-0.004244,0.002308,0.122070,-0.648247,-0.241575,-0.711699
08945,NaN,10.446479,5.189790,0.590703,1.753754,-2.667790,1.421957,0.642049,-0.939676,0.541300,-1.022949,-0.027100,0.326904,0.104294,0.052160,0.006564,0.999980,0.003210,-0.004698,0.002706,0.124955,-0.651843,-0.242660,-0.707533
08946,NaN,9.336315,4.103729,0.285163,1.228164,-2.044190,0.106985,0.476418,-1.109339,0.698354,-1.019043,-0.016357,0.343750,0.093201,0.041355,0.003467,0.999976,0.002382,-0.005547,0.003492,0.127656,-0.656253,-0.242720,-0.702938
08947,NaN,9.343281,2.869117,0.457140,0.906834,-0.908167,-0.112756,0.389744,-1.237176,0.852707,-1.014893,-0.010010,0.352051,0.093278,0.029079,0.005205,0.999970,0.001949,-0.006186,0.004263,0.130441,-0.661371,-0.242059,-0.697840
08948,NaN,9.991625,1.356674,0.462390,0.250444,0.459614,0.267523,0.276059,-1.357063,0.923420,-1.010986,0.004883,0.368896,0.099818,0.014021,0.005321,0.999965,0.001380,-0.006785,0.004617,0.132950,-0.666969,-0.240820,-0.692446
08949,NaN,10.986833,0.786427,1.003871,0.531151,1.348325,1.152424,0.347416,-1.416650,0.945545,-1.007080,0.013428,0.377197,0.109755,0.008365,0.010831,0.999962,0.001737,-0.007083,0.004728,0.135686,-0.672760,-0.239787,-0.686648
08950,NaN,10.843337,0.465764,1.281608,0.799447,1.735688,0.947557,0.572024,-1.409081,0.954588,-0.996826,0.032715,0.391846,0.108316,0.005137,0.013594,0.999960,0.002860,-0.007045,0.004773,0.139216,-0.678274,-0.239457,-0.680605
08951,NaN,9.471113,0.510792,0.834392,0.669376,1.276552,-0.401034,0.780437,-1.407748,0.984023,-0.986572,0.041260,0.408691,0.094623,0.005539,0.009031,0.999956,0.003902,-0.007039,0.004920,0.143534,-0.683673,-0.239729,-0.674181
08952,NaN,8.513237,0.691183,0.767978,0.887823,0.954538,-1.336755,0.896616,-1.423532,1.028493,-0.986816,0.049805,0.412842,0.085038,0.007313,0.008317,0.999951,0.004483,-0.007118,0.005142,0.147538,-0.689269,-0.239407,-0.667701
08953,NaN,8.379122,1.090905,0.507181,1.031651,0.459405,-1.423435,0.929452,-1.454373,1.062230,-0.983154,0.071289,0.429443,0.083692,0.011328,0.005733,0.999949,0.004647,-0.007272,0.005311,0.152553,-0.694678,-0.239894,-0.660758
08954,NaN,8.648571,1.709065,0.700681,1.688856,0.075647,-1.132290,0.986547,-1.450219,1.080533,-0.976807,0.081787,0.446289,0.086338,0.017520,0.007719,0.999947,0.004933,-0.007251,0.005403,0.157838,-0.699914,-0.240464,-0.653747
08955,NaN,8.697444,1.845140,0.943612,2.131940,0.097585,-1.130321,1.017074,-1.380123,1.093736,-0.962402,0.098877,0.456787,0.086804,0.018876,0.010131,0.999948,0.005085,-0.006900,0.005469,0.163318,-0.704904,-0.241021,-0.646797
08956,NaN,7.982972,1.491988,1.573074,2.575430,0.639381,-1.977824,1.048304,-1.289244,1.093739,-0.960693,0.114014,0.465088,0.079643,0.015271,0.016324,0.999951,0.005241,-0.006446,0.005469,0.169016,-0.709437,-0.241563,-0.640141
08957,NaN,7.427982,0.489526,1.832786,2.316858,1.539320,-2.668793,1.145558,-1.180606,1.106564,-0.948486,0.131104,0.468994,0.074142,0.005199,0.018795,0.999951,0.005728,-0.005903,0.005533,0.175200,-0.713552,-0.242273,-0.633603
08958,NaN,7.497773,-0.454540,1.466464,1.592728,2.106328,-2.629409,1.268860,-1.050744,1.149358,-0.944824,0.148193,0.483643,0.074924,-0.004209,0.015031,0.999950,0.006344,-0.005254,0.005747,0.181394,-0.717322,-0.242308,-0.627560
08959,NaN,7.711608,-0.611747,1.311374,1.491433,2.151367,-2.416113,1.464345,-0.906144,1.218709,-0.939209,0.173828,0.481445,0.077092,-0.005745,0.013420,0.999944,0.007322,-0.004531,0.006093,0.189375,-0.720277,-0.243323,-0.621395
08960,NaN,7.755689,-0.053622,0.999305,1.666442,1.491779,-2.319427,1.645880,-0.758788,1.242646,-0.935303,0.190918,0.491943,0.077520,-0.000138,0.010285,0.999940,0.008229,-0.003794,0.006213,0.197636,-0.722708,-0.243942,-0.615731
08961,NaN,7.684831,0.619723,1.260634,2.355365,1.068470,-2.441132,1.693629,-0.600176,1.189537,-0.927490,0.208252,0.485352,0.076772,0.006546,0.012891,0.999942,0.008468,-0.003001,0.005948,0.206687,-0.724294,-0.245420,-0.610285
08962,NaN,7.223119,0.516608,2.209469,3.044655,1.648933,-3.079717,1.659293,-0.472001,1.060297,-0.921875,0.231689,0.483154,0.072151,0.005364,0.022309,0.999949,0.008296,-0.002360,0.005301,0.214800,-0.725424,-0.246439,-0.605714
08963,NaN,7.251205,1.107291,2.047138,3.344049,1.085056,-3.057208,1.762294,-0.406645,0.968744,-0.922119,0.244629,0.489258,0.072416,0.011242,0.020717,0.999947,0.008811,-0.002033,0.004844,0.223625,-0.725921,-0.248669,-0.600994
08964,NaN,6.909487,2.748284,1.935154,4.296011,-0.284631,-3.448595,1.941479,-0.226707,0.843779,-0.922607,0.261719,0.484863,0.068956,0.027584,0.019697,0.999943,0.009707,-0.001134,0.004219,0.232463,-0.725533,-0.251093,-0.597089
08965,NaN,6.292819,4.181072,1.485900,4.843670,-1.687509,-4.069925,1.999481,-0.028283,0.656997,-0.918945,0.279053,0.476318,0.062789,0.041866,0.015286,0.999945,0.009997,-0.000141,0.003285,0.241641,-0.724081,-0.254680,-0.593678
08966,NaN,5.707921,5.257832,1.240417,5.334055,-2.663789,-4.692627,2.009715,0.121210,0.481478,-0.917236,0.291748,0.471924,0.056960,0.052588,0.012898,0.999946,0.010048,0.000606,0.002407,0.249995,-0.721957,-0.258153,-0.591302
08967,NaN,5.152551,6.142545,2.054432,6.484118,-2.747793,-5.464665,1.868213,0.288308,0.268279,-0.924316,0.311035,0.459229,0.051473,0.061300,0.021043,0.999954,0.009341,0.001442,0.001341,0.257904,-0.719086,-0.262318,-0.589568
08968,NaN,4.432198,7.189094,3.167533,7.913722,-2.711339,-6.439055,1.627603,0.494320,0.040829,-0.926270,0.311279,0.450684,0.044386,0.071640,0.032149,0.999964,0.008138,0.002472,0.000204,0.264624,-0.715361,-0.266437,-0.589274
08969,NaN,3.594651,8.286470,3.865933,9.056672,-2.972166,-7.430580,1.297229,0.763504,-0.235831,-0.935059,0.317627,0.440186,0.036193,0.082570,0.039058,0.999971,0.006486,0.003817,-0.001179,0.269590,-0.711063,-0.270067,-0.590570
08970,NaN,3.080912,9.005193,3.327535,9.126987,-3.800170,-7.834371,0.988945,1.041985,-0.567347,-0.941406,0.315430,0.429688,0.031238,0.089798,0.033558,0.999970,0.004945,0.005210,-0.002837,0.272872,-0.705633,-0.273730,-0.593881
08971,NaN,3.879348,8.927680,2.082268,8.328845,-4.518533,-6.763006,0.585617,1.299178,-0.972077,-0.947754,0.311279,0.410645,0.039362,0.089025,0.020829,0.999963,0.002928,0.006496,-0.004860,0.273832,-0.699623,-0.277098,-0.598966
08972,NaN,6.429943,7.328791,0.396295,6.286894,-4.433708,-3.810415,0.041650,1.456756,-1.387577,-0.960205,0.296387,0.398193,0.064832,0.072839,0.003507,0.999949,0.000208,0.007284,-0.006938,0.271841,-0.692983,-0.280228,-0.606093
08973,NaN,10.282085,4.985384,-1.584115,3.475838,-3.991375,0.437491,-0.374610,1.563256,-1.793497,-0.974609,0.281494,0.381348,0.103134,0.048899,-0.016739,0.999927,-0.001873,0.007816,-0.008967,0.267292,-0.686195,-0.283144,-0.614428
08974,NaN,13.903830,2.192569,-2.047987,1.118337,-2.136540,4.204753,-0.689618,1.750177,-2.181579,-0.984619,0.255615,0.368896,0.139079,0.020335,-0.021769,0.999896,-0.003448,0.008751,-0.010908,0.260728,-0.678253,-0.286385,-0.624481
08975,NaN,16.293011,-1.741238,-1.836086,-1.865582,0.976504,6.539961,-0.886218,1.898762,-2.465426,-0.998779,0.229980,0.354248,0.162515,-0.019503,-0.019822,0.999869,-0.004431,0.009493,-0.012327,0.252723,-0.669863,-0.289448,-0.635322
08976,NaN,21.561729,-6.690874,-1.268013,-5.455425,5.335054,11.471441,-0.855538,1.933401,-2.769541,-1.016846,0.195801,0.331543,0.214529,-0.069944,-0.014463,0.999848,-0.004277,0.009667,-0.013847,0.243844,-0.660401,-0.293699,-0.646646
08977,NaN,35.573270,-8.316399,0.884559,-6.115611,9.262631,25.002200,-0.878923,1.844938,-3.040429,-1.024658,0.165771,0.312744,0.354478,-0.088529,0.005953,0.999832,-0.004394,0.009224,-0.015201,0.233795,-0.650934,-0.298581,-0.657628
08978,NaN,40.479314,-12.593255,1.980735,-9.707881,13.812447,29.122236,-0.816812,1.629182,-2.737698,-1.036621,0.135986,0.300293,0.403166,-0.131385,0.017048,0.999865,-0.004084,0.008146,-0.013688,0.224638,-0.641997,-0.303056,-0.667484
08979,NaN,25.122917,-6.734827,0.841213,-6.345063,7.703573,14.219628,0.601409,1.980186,-2.832981,-1.048828,0.121094,0.272949,0.250307,-0.070918,0.005721,0.999846,0.003007,0.009900,-0.014164,0.220094,-0.630323,-0.311868,-0.676010
08980,NaN,21.827261,-4.266122,-0.270068,-5.923223,4.918559,11.052797,1.191893,2.277113,-2.786357,-1.052490,0.091064,0.247803,0.217599,-0.045669,-0.005447,0.999820,0.005959,0.011385,-0.013931,0.218426,-0.616410,-0.322391,-0.684393
08981,NaN,21.743159,-2.547768,0.726098,-4.807265,4.413821,11.095119,1.973360,2.471382,-2.520717,-1.060547,0.071777,0.222656,0.217152,-0.028268,0.004307,0.999796,0.009866,0.012356,-0.012603,0.219837,-0.601609,-0.334130,-0.691444
08982,NaN,21.801830,-0.177534,2.931537,-2.455717,4.372127,11.605584,2.580903,2.561036,-2.406422,-1.068604,0.056885,0.195312,0.218324,-0.004755,0.026472,0.999762,0.012903,0.012804,-0.012031,0.224057,-0.585318,-0.347619,-0.697397
08983,NaN,22.299149,1.924366,3.339710,-1.589253,3.366038,12.507690,2.577098,2.368506,-2.449334,-1.072266,0.033447,0.165771,0.223578,0.016098,0.030973,0.999772,0.012885,0.011842,-0.012246,0.227141,-0.569783,-0.361023,-0.702436
08984,NaN,21.822133,2.519496,3.897073,-1.456530,3.440701,12.181282,2.302242,1.982802,-2.455881,-1.078125,0.016357,0.146973,0.218879,0.022076,0.037069,0.999809,0.011510,0.009913,-0.012279,0.229201,-0.555246,-0.373956,-0.706630
08985,NaN,21.411432,2.688843,4.283272,-1.686523,3.708284,11.806513,1.633028,1.789239,-2.423106,-1.079834,-0.007080,0.128174,0.214789,0.023948,0.041117,0.999853,0.008165,0.008946,-0.012115,0.228505,-0.542442,-0.384330,-0.711219
08986,NaN,20.285233,4.459542,3.804003,-0.975653,2.211662,11.162822,0.683219,1.904206,-2.298953,-1.085449,-0.028564,0.107178,0.203697,0.042131,0.036250,0.999883,0.003416,0.009521,-0.011494,0.226296,-0.530073,-0.390848,-0.717670
08987,NaN,18.330391,3.286243,2.960080,-2.272919,2.028695,8.795278,-0.190442,2.107371,-2.125249,-1.078613,-0.052002,0.077637,0.183938,0.030937,0.027635,0.999888,-0.000952,0.010536,-0.010626,0.222279,-0.518516,-0.393352,-0.725953
08988,NaN,15.669951,-1.356872,2.179285,-5.636912,3.833178,4.527942,-0.595482,2.133821,-1.953099,-1.080566,-0.064697,0.058838,0.156778,-0.015038,0.020164,0.999891,-0.002977,0.010669,-0.009765,0.218028,-0.507318,-0.393765,-0.734875
08989,NaN,13.206458,-2.076269,1.322597,-6.036922,3.296917,1.726261,-0.772044,2.077569,-1.676220,-1.082520,-0.073242,0.037598,0.132013,-0.021822,0.011937,0.999903,-0.003860,0.010388,-0.008381,0.214001,-0.497178,-0.392861,-0.743423
08990,NaN,11.456084,-3.206613,-0.715053,-7.533822,2.134420,-0.828551,-0.850686,2.204752,-1.325161,-1.080078,-0.088135,0.010254,0.114258,-0.032857,-0.008273,0.999908,-0.004253,0.011023,-0.006626,0.211407,-0.487117,-0.390453,-0.752044
08991,NaN,9.800497,-5.641063,-2.013934,-9.425279,2.383106,-3.696538,-0.571734,2.308819,-0.953826,-1.083984,-0.096680,-0.010742,0.097494,-0.056936,-0.021105,0.999918,-0.002859,0.011544,-0.004769,0.210939,-0.477139,-0.388137,-0.759732
08992,NaN,8.210148,-6.840623,-1.569757,-9.395300,3.292702,-5.623625,-0.353635,2.224757,-0.700557,-1.079834,-0.103027,-0.033936,0.081681,-0.068722,-0.016486,0.999930,-0.001768,0.011124,-0.003503,0.211791,-0.467617,-0.385893,-0.766528
08993,NaN,6.585384,-5.672075,-1.035770,-7.609705,2.856999,-6.565999,-0.284179,2.063306,-0.477625,-1.079590,-0.109375,-0.048828,0.065607,-0.056893,-0.010955,0.999943,-0.001421,0.010316,-0.002388,0.213288,-0.459063,-0.383698,-0.772364
08994,NaN,4.463744,-5.036005,-0.444834,-5.871223,2.818101,-8.060330,-0.308359,2.074161,-0.144264,-1.077637,-0.107178,-0.067871,0.044552,-0.050399,-0.004833,0.999945,-0.001542,0.010371,-0.000721,0.216054,-0.451073,-0.380380,-0.777923
08995,NaN,3.231941,-4.618767,-0.520231,-5.045184,2.440675,-9.013909,-0.170362,2.008511,0.154756,-1.079834,-0.111328,-0.093018,0.032301,-0.046167,-0.005487,0.999949,-0.000852,0.010042,0.000774,0.220104,-0.443717,-0.377162,-0.782572
08996,NaN,2.053951,-2.844362,-1.833665,-3.948480,0.281436,-9.773312,-0.020488,1.967720,0.426618,-1.077881,-0.107178,-0.112061,0.020418,-0.028402,-0.018535,0.999949,-0.000102,0.009838,0.002133,0.225501,-0.436840,-0.373707,-0.786551
08997,NaN,1.032976,-1.038264,-2.419399,-2.487434,-1.296602,-10.173027,0.194240,1.876568,0.609575,-1.073730,-0.100586,-0.118652,0.010134,-0.010328,-0.024300,0.999951,0.000971,0.009383,0.003048,0.231841,-0.430359,-0.370989,-0.789562
08998,NaN,0.488617,1.007160,-2.398421,-0.770137,-2.531355,-9.879522,0.055141,1.726792,0.722068,-1.078369,-0.094238,-0.141846,0.004642,0.010095,-0.024022,0.999956,0.000276,0.008634,0.003610,0.238080,-0.424830,-0.367393,-0.792376
08999,NaN,-0.146932,1.047364,-2.743154,-0.556156,-2.785103,-10.572399,-0.096641,1.439923,0.750075,-1.076416,-0.089844,-0.150391,-0.001706,0.010454,-0.027425,0.999967,-0.000483,0.007200,0.003750,0.243508,-0.420604,-0.363674,-0.794694
09000,NaN,0.326932,0.563163,-2.849213,-1.176479,-2.602916,-10.431288,-0.259723,1.107356,0.682313,-1.074463,-0.083252,-0.167236,0.003092,0.005605,-0.028517,0.999978,-0.001299,0.005537,0.003412,0.247754,-0.417785,-0.359626,-0.796708
09001,NaN,0.718172,0.052736,-2.348840,-1.485170,-1.932910,-10.118782,-0.323181,0.825634,0.585404,-1.072754,-0.076904,-0.177979,0.007083,0.000510,-0.023519,0.999986,-0.001616,0.004128,0.002927,0.250916,-0.415943,-0.356071,-0.798277
09002,NaN,0.467920,0.471726,-1.812792,-0.797336,-1.750259,-9.981579,-0.301294,0.549952,0.508444,-1.074707,-0.076904,-0.186523,0.004617,0.004702,-0.018148,0.999992,-0.001506,0.002750,0.002542,0.253368,-0.415066,-0.352908,-0.799362
09003,NaN,0.094273,1.848546,-0.959668,0.777334,-1.904648,-9.473523,-0.094245,0.095714,0.461922,-1.070557,-0.074707,-0.182129,0.000895,0.018483,-0.009606,0.999997,-0.000471,0.000479,0.002310,0.255211,-0.415617,-0.351433,-0.799140
09004,NaN,-0.131696,4.120903,0.682355,3.290370,-2.020931,-8.214545,0.091663,-0.207233,0.460501,-1.072998,-0.066162,-0.180176,-0.001419,0.041203,0.006841,0.999997,0.000458,-0.001036,0.002303,0.256948,-0.417174,-0.350910,-0.798001
09005,NaN,0.604651,6.613148,2.595009,5.607372,-2.168230,-5.980014,0.043578,-0.478219,0.493104,-1.077393,-0.063965,-0.177979,0.005821,0.066140,0.025979,0.999994,0.000218,-0.002391,0.002466,0.258190,-0.419890,-0.350650,-0.796289
09006,NaN,2.107156,8.684245,4.735589,7.378686,-1.970685,-3.182984,-0.169429,-0.606529,0.487386,-1.073242,-0.055420,-0.171875,0.020716,0.086933,0.047345,0.999992,-0.000847,-0.003033,0.002437,0.258771,-0.423390,-0.349556,-0.794726
09007,NaN,3.818876,10.413389,6.431126,8.622272,-1.931427,-0.522516,-0.139613,-0.608737,0.389506,-1.073242,-0.053467,-0.159180,0.037790,0.104253,0.064354,0.999993,-0.000698,-0.003044,0.001948,0.258982,-0.426668,-0.348944,-0.793171
09008,NaN,5.834876,11.693743,8.069716,9.388398,-1.670331,2.227961,0.134594,-0.499815,0.188858,-1.079834,-0.049072,-0.161133,0.058036,0.116938,0.080921,0.999996,0.000673,-0.002499,0.000944,0.259190,-0.428781,-0.349569,-0.791687
09009,NaN,7.006874,11.867755,9.972539,9.910116,-0.391698,4.008581,0.112938,-0.300062,-0.083319,-1.082031,-0.046875,-0.161133,0.069968,0.118592,0.099897,0.999999,0.000565,-0.001500,-0.000417,0.258602,-0.429677,-0.350565,-0.790953
09010,NaN,7.001462,10.141704,11.142630,9.259262,1.607084,3.888263,0.002974,0.041503,-0.298518,-1.081787,-0.053223,-0.163330,0.070189,0.101311,0.111413,0.999999,0.000015,0.000208,-0.001493,0.257529,-0.428914,-0.351031,-0.791511
09011,NaN,7.030765,8.070927,11.604521,7.969020,3.249945,3.422448,-0.025763,0.165530,-0.316184,-1.075439,-0.055420,-0.173828,0.070531,0.080613,0.115977,0.999998,-0.000129,0.000828,-0.001581,0.256538,-0.427737,-0.351375,-0.792316
09012,NaN,6.766484,6.098717,11.688661,6.714938,4.555600,2.587332,-0.121299,0.102943,-0.229166,-1.083740,-0.059814,-0.173828,0.067795,0.060980,0.116815,0.999999,-0.000606,0.000515,-0.001146,0.255565,-0.426967,-0.351118,-0.793160
09013,NaN,7.330020,3.825076,10.951833,4.458844,5.339826,2.015582,-0.110161,-0.240438,-0.147800,-1.077393,-0.055420,-0.167480,0.073197,0.038257,0.109585,0.999999,-0.000551,-0.001202,-0.000739,0.254346,-0.427802,-0.351285,-0.793028
09014,NaN,10.258217,0.835164,9.941654,0.405409,6.139631,3.106491,-0.160558,-0.483849,-0.057433,-1.079590,-0.057617,-0.173828,0.102344,0.008402,0.099658,0.999997,-0.000803,-0.002419,-0.000287,0.252938,-0.429681,-0.351230,-0.792486
09015,NaN,12.821429,-0.661123,8.803134,-2.445898,5.957649,4.359288,-0.513851,-0.280689,0.049006,-1.079590,-0.053223,-0.169678,0.128092,-0.006353,0.088228,0.999996,-0.002569,-0.001403,0.000245,0.251559,-0.431528,-0.349423,-0.792720
09016,NaN,13.889564,-0.809109,8.278901,-3.285816,5.498215,5.056302,-1.128285,0.111028,0.119156,-1.075439,-0.051270,-0.173828,0.138946,-0.007541,0.082755,0.999984,-0.005641,0.000555,0.000596,0.249813,-0.432567,-0.344360,-0.794919
09017,NaN,13.774574,-1.591593,7.962016,-3.872110,5.657308,4.632555,-1.614622,0.547665,0.189029,-1.077881,-0.042480,-0.178223,0.137978,-0.015144,0.079367,0.999963,-0.008073,0.002738,0.000945,0.248031,-0.432717,-0.336817,-0.798618
09018,NaN,13.313172,-2.891693,8.727381,-4.092250,6.961819,4.207044,-1.572969,0.919475,0.190720,-1.078125,-0.038330,-0.201416,0.133559,-0.028105,0.086884,0.999958,-0.007865,0.004597,0.000954,0.246967,-0.431178,-0.328743,-0.803132
09019,NaN,13.670369,-3.657294,10.417870,-3.918829,8.495049,5.062103,-0.904895,1.286315,0.129359,-1.071777,-0.036133,-0.214111,0.137394,-0.036015,0.103460,0.999969,-0.004524,0.006432,0.000647,0.247668,-0.427329,-0.323211,-0.807208
09020,NaN,15.813441,-3.497621,11.506727,-4.480837,8.707618,7.472980,0.072142,1.586996,0.079502,-1.072021,-0.035889,-0.231201,0.159055,-0.034954,0.113795,0.999968,0.000361,0.007935,0.000398,0.250754,-0.420841,-0.321086,-0.810505
09021,NaN,22.349715,-4.319557,9.745689,-9.618077,6.856254,11.950099,0.965128,1.383396,0.097380,-1.063477,-0.033691,-0.243896,0.224184,-0.043551,0.095698,0.999964,0.004826,0.006917,0.000487,0.255418,-0.414166,-0.323026,-0.811716
09022,NaN,23.417501,-4.650267,8.179450,-11.520513,5.502510,11.956357,1.270187,1.532872,0.059740,-1.061279,-0.038086,-0.254395,0.234805,-0.046943,0.079699,0.999950,0.006351,0.007664,0.000299,0.260822,-0.406325,-0.325764,-0.812865
09023,NaN,14.868776,-7.219875,2.600957,-11.759714,4.113637,1.356205,1.840533,1.925391,0.132315,-1.059326,-0.040039,-0.275635,0.148973,-0.072327,0.023911,0.999911,0.009202,0.009627,0.000662,0.268239,-0.396278,-0.330415,-0.813534
09024,NaN,0.916879,-7.043047,-2.691979,-6.685787,2.222940,-12.649437,2.600349,1.063145,0.016792,-1.054932,-0.044434,-0.277588,0.009028,-0.070071,-0.027881,0.999901,0.013001,0.005316,0.000084,0.275278,-0.388437,-0.339148,-0.811368
09025,NaN,-3.424401,-7.216930,-9.639697,-7.487454,-2.458430,-19.539805,3.110959,-0.232555,0.259410,-1.059082,-0.044434,-0.267090,-0.034039,-0.070702,-0.097544,0.999878,0.015554,-0.001163,0.001297,0.281972,-0.385491,-0.351522,-0.805184
09026,NaN,-0.055763,-4.941687,-4.094757,-5.289595,-0.353188,-13.429709,2.765482,-0.641904,0.843858,-1.059326,-0.038086,-0.258545,-0.000218,-0.048846,-0.041627,0.999890,0.013827,-0.003209,0.004219,0.289650,-0.385633,-0.361543,-0.797920
09027,NaN,2.289951,-1.677603,0.815825,-2.140858,1.178098,-8.153607,1.954861,-0.542320,1.143932,-1.057373,-0.033691,-0.254395,0.022973,-0.016724,0.008057,0.999932,0.009774,-0.002712,0.005720,0.297011,-0.387009,-0.367876,-0.791629
09028,NaN,6.203703,4.662377,0.697340,0.620953,-3.107362,-2.694720,3.015949,-0.525625,1.383146,-1.061768,-0.022949,-0.250244,0.061693,0.046937,0.007842,0.999859,0.015079,-0.002628,0.006915,0.307428,-0.387128,-0.377512,-0.783010
09029,NaN,12.710146,8.879599,-5.711617,-1.483174,-11.711382,1.746952,4.421176,-0.723435,1.453399,-1.062012,-0.018799,-0.237549,0.126646,0.090944,-0.054663,0.999723,0.022104,-0.003617,0.007266,0.320253,-0.385804,-0.392992,-0.770812
09030,NaN,18.414600,6.890465,-4.947903,-5.112243,-11.012636,6.423595,3.597016,-0.767577,1.326003,-1.059814,-0.012451,-0.231445,0.183865,0.070991,-0.047509,0.999809,0.017984,-0.003838,0.006630,0.330843,-0.385563,-0.405147,-0.760092
09031,NaN,18.946540,4.778873,1.495216,-4.676421,-4.407917,8.700536,1.696518,-0.721911,1.019382,-1.070801,-0.003906,-0.222900,0.189162,0.048620,0.016045,0.999945,0.008482,-0.003609,0.005097,0.336535,-0.387549,-0.410778,-0.753532
09032,NaN,14.519397,5.433315,4.288177,-0.993782,-1.266308,6.191299,1.132995,-0.852262,0.686103,-1.072998,0.002441,-0.210205,0.144822,0.054584,0.043808,0.999969,0.005665,-0.004261,0.003430,0.339670,-0.390307,-0.414874,-0.748441
09033,NaN,10.336132,6.289526,2.651399,1.283488,-2.138624,2.319869,1.257806,-1.191866,0.432641,-1.068848,0.008789,-0.191406,0.103063,0.062947,0.027525,0.999960,0.006289,-0.005959,0.002163,0.341286,-0.393519,-0.420721,-0.742739
09034,NaN,8.968398,4.830057,-0.486507,-0.147103,-3.925384,-0.401825,1.497074,-1.496065,0.355851,-1.074951,0.000244,-0.180664,0.089629,0.048491,-0.003832,0.999942,0.007485,-0.007480,0.001779,0.342503,-0.397303,-0.427858,-0.736057
09035,NaN,8.411070,2.224306,-1.781113,-2.376508,-3.808221,-2.150275,1.658727,-1.710433,0.392817,-1.072998,0.006592,-0.157471,0.084214,0.022551,-0.016905,0.999927,0.008293,-0.008552,0.001964,0.343588,-0.401575,-0.436057,-0.728381
09036,NaN,8.727838,1.261641,-0.903217,-2.985455,-2.553321,-1.866154,1.732011,-1.767252,0.532824,-1.081543,0.012939,-0.144775,0.087319,0.012922,-0.008150,0.999920,0.008660,-0.008836,0.002664,0.345242,-0.406230,-0.444069,-0.720131
09037,NaN,9.049795,1.676579,-0.136274,-2.450475,-1.900074,-1.146090,1.898636,-1.719830,0.661094,-1.079346,0.010742,-0.127930,0.090448,0.017072,-0.000424,0.999913,0.009493,-0.008599,0.003305,0.347658,-0.410585,-0.452468,-0.711215
09038,NaN,9.465080,2.643389,-0.021894,-1.636281,-2.020706,-0.335833,2.115802,-1.668390,0.752181,-1.083740,0.023682,-0.108887,0.094546,0.026784,0.000852,0.999902,0.010579,-0.008342,0.003761,0.350991,-0.414577,-0.461087,-0.701662
09039,NaN,9.590473,3.298295,-0.996517,-1.228866,-2.982703,-0.146397,2.263887,-1.606447,0.776521,-1.077393,0.025635,-0.087891,0.095849,0.033459,-0.008818,0.999896,0.011319,-0.008032,0.003882,0.354696,-0.417996,-0.470167,-0.691674
09040,NaN,9.806237,3.916455,-1.584818,-0.753930,-3.553190,0.227842,2.462580,-1.677716,0.761613,-1.079834,0.034180,-0.075195,0.098037,0.039722,-0.014539,0.999882,0.012312,-0.008388,0.003808,0.358616,-0.421254,-0.479810,-0.680972
09041,NaN,9.608646,4.049115,-1.985929,-0.482629,-3.740192,0.108813,2.556385,-1.680502,0.783782,-1.082275,0.047119,-0.058350,0.096086,0.041110,-0.018529,0.999875,0.012781,-0.008402,0.003919,0.362620,-0.424230,-0.489792,-0.669806
09042,NaN,9.356625,3.700395,-1.677506,-0.468113,-3.122217,-0.113219,2.531199,-1.659633,0.807955,-1.080078,0.053467,-0.039307,0.093547,0.037584,-0.015525,0.999877,0.012655,-0.008298,0.004040,0.366711,-0.427209,-0.499322,-0.658554
09043,NaN,9.209219,4.060575,-1.157187,0.165381,-2.480301,0.008321,2.284526,-1.598819,0.775977,-1.080566,0.066162,-0.022461,0.092019,0.041086,-0.010369,0.999895,0.011422,-0.007994,0.003880,0.370142,-0.430189,-0.508041,-0.647940
09044,NaN,9.568024,3.757874,-0.895067,-0.064584,-1.969777,0.315542,1.751755,-1.651537,0.599233,-1.080566,0.070557,-0.001465,0.095635,0.037937,-0.007830,0.999923,0.008759,-0.008257,0.002996,0.371750,-0.433872,-0.515280,-0.638783
09045,NaN,9.239916,1.989036,-0.592055,-1.434714,-1.138287,-0.521516,1.584239,-1.586664,0.482433,-1.076416,0.079102,0.006836,0.092393,0.020155,-0.005029,0.999934,0.007921,-0.007933,0.002412,0.372642,-0.437222,-0.522184,-0.630317
09046,NaN,9.184812,2.233681,-0.641032,-1.113351,-1.075553,-0.465909,1.617273,-1.332811,0.540444,-1.078613,0.081055,0.023926,0.091826,0.022633,-0.005616,0.999941,0.008086,-0.006664,0.002702,0.374501,-0.439882,-0.528396,-0.622134
09047,NaN,9.693152,1.809438,-0.803148,-1.617259,-1.021558,-0.106262,1.683761,-1.328796,0.558060,-1.076660,0.089600,0.038574,0.096930,0.018428,-0.007233,0.999939,0.008419,-0.006644,0.002790,0.376432,-0.442324,-0.534836,-0.613676
09048,NaN,9.752096,1.674436,-1.047916,-1.707519,-1.098091,-0.071984,1.741159,-1.330045,0.536330,-1.072754,0.100342,0.046875,0.097542,0.017093,-0.009683,0.999936,0.008706,-0.006650,0.002682,0.378472,-0.444625,-0.541311,-0.605020
09049,NaN,9.001062,0.084979,-0.852369,-2.856306,-0.590855,-1.254431,1.760102,-1.292646,0.568054,-1.066406,0.102295,0.059570,0.090060,0.001177,-0.007932,0.999936,0.008800,-0.006463,0.002840,0.380606,-0.446729,-0.547759,-0.596265
09050,NaN,7.977581,-1.010798,-0.609446,-3.470653,-0.175511,-2.535477,2.049059,-1.247880,0.668774,-1.071045,0.117432,0.072266,0.079845,-0.009781,-0.005698,0.999922,0.010245,-0.006239,0.003344,0.383859,-0.448444,-0.554557,-0.586529
09051,NaN,8.073836,-0.688782,-0.403943,-3.104247,0.086948,-2.317403,2.467241,-1.431405,0.742666,-1.066895,0.121582,0.082764,0.080790,-0.006542,-0.003543,0.999891,0.012336,-0.007157,0.003713,0.387583,-0.449934,-0.562789,-0.574985
09052,NaN,8.270063,0.814806,-0.499885,-1.654489,0.008066,-1.653735,2.549348,-1.232933,0.853551,-1.062988,0.136475,0.097412,0.082693,0.008559,-0.004382,0.999891,0.012746,-0.006164,0.004268,0.392400,-0.450996,-0.570373,-0.563293
09053,NaN,8.569309,0.055905,-0.330360,-2.367710,0.340246,-1.577278,2.893694,-1.212783,0.885253,-1.065430,0.153809,0.105713,0.085707,0.000981,-0.002772,0.999867,0.014468,-0.006064,0.004426,0.397932,-0.451217,-0.578805,-0.550490
09054,NaN,8.668452,1.370358,-0.454527,-1.045337,0.324602,-1.093382,2.849099,-1.108804,0.865646,-1.061523,0.162354,0.109863,0.086647,0.014137,-0.003865,0.999874,0.014245,-0.005544,0.004328,0.403629,-0.451156,-0.586671,-0.537921
09055,NaN,7.983825,2.845710,-0.219762,0.646343,0.664100,-1.384983,2.720470,-1.126579,0.858001,-1.062012,0.177246,0.122314,0.079724,0.028822,-0.001358,0.999882,0.013602,-0.005633,0.004290,0.408744,-0.451178,-0.594232,-0.525599
09056,NaN,7.173712,3.698031,-0.355405,1.757514,0.642090,-1.953935,2.461298,-1.055707,0.825484,-1.049316,0.185791,0.128662,0.071599,0.037313,-0.002718,0.999902,0.012306,-0.005278,0.004127,0.413437,-0.451435,-0.600782,-0.514138
09057,NaN,6.746687,4.392170,-0.224948,2.594420,0.928804,-2.245435,2.091534,-1.042829,0.760078,-1.049805,0.200684,0.134766,0.067308,0.044196,-0.001437,0.999925,0.010457,-0.005214,0.003800,0.416971,-0.452061,-0.606528,-0.503885
09058,NaN,6.946430,4.886170,0.213951,3.051277,1.584643,-2.044180,1.774730,-0.992777,0.614917,-1.052246,0.209229,0.145508,0.069300,0.049051,0.002918,0.999944,0.008873,-0.004964,0.003075,0.419640,-0.452794,-0.611494,-0.494929
09059,NaN,7.416784,4.813610,0.287097,2.897732,1.856433,-1.663018,1.420577,-0.881016,0.504476,-1.050049,0.211426,0.149658,0.074032,0.048299,0.003540,0.999962,0.007103,-0.004405,0.002522,0.421417,-0.453540,-0.615667,-0.487508
09060,NaN,7.720971,5.098178,1.730362,3.014979,3.474846,-1.600935,1.256311,-0.792586,0.444265,-1.041992,0.224365,0.155762,0.077026,0.051042,0.017930,0.999970,0.006281,-0.003963,0.002221,0.423033,-0.454257,-0.619225,-0.480888
09061,NaN,8.047846,4.911082,2.426213,2.704031,4.294048,-1.504778,1.159372,-0.641783,0.380364,-1.037842,0.228516,0.155762,0.080306,0.049121,0.024805,0.999976,0.005797,-0.003209,0.001902,0.424606,-0.454537,-0.622466,-0.475018
09062,NaN,8.730903,5.406203,3.047591,2.969224,5.175226,-0.916438,1.121305,-0.495492,0.339526,-1.040039,0.230713,0.157959,0.087141,0.054037,0.030995,0.999980,0.005606,-0.002477,0.001698,0.426546,-0.454445,-0.625244,-0.469690
09063,NaN,9.387568,5.933296,3.380147,3.284527,5.782413,-0.297943,1.242762,-0.358206,0.276526,-1.033936,0.239258,0.153564,0.093733,0.059250,0.034338,0.999978,0.006214,-0.001791,0.001383,0.428911,-0.453513,-0.628259,-0.464383
09064,NaN,9.634856,5.331885,3.241433,2.641071,5.680368,-0.193760,1.388077,-0.151461,0.204865,-1.036133,0.241455,0.153564,0.096269,0.053190,0.032857,0.999975,0.006940,-0.000757,0.001024,0.432185,-0.451568,-0.631164,-0.459276
09065,NaN,10.129624,5.061351,3.283610,2.230149,5.829598,0.189831,1.442492,0.052329,0.132598,-1.038330,0.247803,0.151367,0.101271,0.050442,0.033174,0.999974,0.007212,0.000262,0.000663,0.435921,-0.448760,-0.634022,-0.454536
09066,NaN,11.308223,5.286154,3.674479,2.089611,6.498715,1.265261,1.535079,0.262343,0.061101,-1.034180,0.250000,0.142822,0.113115,0.052613,0.037001,0.999970,0.007675,0.001312,0.000306,0.440463,-0.445031,-0.636609,-0.450187
09067,NaN,12.141720,5.876729,3.911426,2.381893,7.018416,2.117301,1.491537,0.451648,0.023290,-1.038574,0.254395,0.134521,0.121499,0.058489,0.039277,0.999970,0.007458,0.002258,0.000116,0.445279,-0.440814,-0.638875,-0.446372
09068,NaN,12.179658,6.767082,3.783547,3.192741,7.102370,2.345236,1.482887,0.661075,-0.009966,-1.038574,0.252197,0.125977,0.121925,0.067384,0.037933,0.999967,0.007414,0.003305,-0.000050,0.450768,-0.436008,-0.640526,-0.443206
09069,NaN,11.942311,7.327820,3.940801,3.680033,7.345236,2.201883,1.558354,0.916917,-0.091682,-1.042969,0.252197,0.111328,0.119637,0.072916,0.039429,0.999959,0.007792,0.004585,-0.000458,0.456900,-0.430177,-0.642061,-0.440394
09070,NaN,11.739199,7.680987,4.909005,3.768003,8.298348,1.927957,1.594561,1.282803,-0.232107,-1.043213,0.256592,0.098389,0.117795,0.076283,0.048945,0.999947,0.007973,0.006414,-0.001161,0.464059,-0.422939,-0.642906,-0.438684
09071,NaN,11.749604,7.678463,5.923091,3.409880,9.192759,1.847367,1.341322,1.696230,-0.515242,-1.051514,0.252441,0.073242,0.118192,0.076086,0.058742,0.999938,0.006706,0.008481,-0.002576,0.471209,-0.414449,-0.642938,-0.439119
09072,NaN,11.920983,6.836343,5.308053,2.594301,8.230553,2.126365,0.868433,2.130146,-0.866856,-1.051514,0.243896,0.045654,0.120062,0.067617,0.052099,0.999924,0.004342,0.010650,-0.004334,0.478064,-0.404881,-0.641355,-0.442933
09073,NaN,12.241931,3.430285,4.422526,-0.582682,6.188020,2.126582,0.500595,2.742760,-1.240183,-1.057617,0.231201,0.022705,0.123220,0.033432,0.042623,0.999884,0.002503,0.013713,-0.006201,0.485092,-0.393612,-0.638319,-0.449782
09074,NaN,13.283978,-1.788382,4.619851,-5.874886,4.535548,2.266129,0.168596,3.352575,-1.600316,-1.059326,0.216309,-0.019531,0.133440,-0.018988,0.043949,0.999827,0.000843,0.016762,-0.008001,0.492588,-0.380447,-0.633366,-0.459853
09075,NaN,16.186021,-6.082639,3.431718,-10.332909,1.690285,4.368373,-0.373467,3.641414,-1.886902,-1.061035,0.192871,-0.053223,0.161868,-0.062293,0.031485,0.999788,-0.001867,0.018206,-0.009434,0.498988,-0.366965,-0.626970,-0.472501
09076,NaN,19.625183,-9.130004,0.355596,-13.241047,-2.847930,7.073558,-0.883741,3.700073,-2.011633,-1.064941,0.175781,-0.095215,0.195347,-0.093262,0.000345,0.999769,-0.004418,0.018499,-0.010057,0.504260,-0.354017,-0.618923,-0.487163
09077,NaN,20.403846,-9.336907,-3.434139,-12.686376,-7.317488,7.529133,-0.936781,3.780197,-1.795775,-1.060303,0.154541,-0.128906,0.202496,-0.095363,-0.037735,0.999770,-0.004684,0.018900,-0.008978,0.509833,-0.341559,-0.610123,-0.501155
09078,NaN,18.800830,-8.092227,-5.526748,-10.587000,-9.564402,5.868062,-0.287259,3.718933,-1.325242,-1.060059,0.143799,-0.164795,0.186397,-0.082244,-0.058626,0.999804,-0.001436,0.018593,-0.006626,0.517445,-0.328890,-0.601779,-0.511805
