// Start Time: Unknown
// Update Rate: 100.0Hz
// Filter Profile: human (46.1)
// Firmware Version: 4.4.0
PacketCounter,SampleTimeFine,Acc_X,Acc_Y,Acc_Z,FreeAcc_X,FreeAcc_Y,FreeAcc_Z,Gyr_X,Gyr_Y,Gyr_Z,Mag_X,Mag_Y,Mag_Z,VelInc_X,VelInc_Y,VelInc_Z,OriInc_q0,OriInc_q1,OriInc_q2,OriInc_q3,Quat_q0,Quat_q1,Quat_q2,Quat_q3
39343,NaN,7.268209,-5.235003,-1.456028,-0.000000,-0.000000,-0.737944,0.021172,-0.138762,1.302345,-0.927734,0.322510,-0.218018,0.073031,-0.051874,-0.014515,0.999979,0.000106,-0.000694,0.006512,0.527287,0.002194,-0.761558,0.376820
39344,NaN,5.381295,-6.412964,-1.108457,-0.000000,0.000000,-1.368033,0.050958,-0.199602,1.227934,-0.925781,0.333252,-0.220215,0.054216,-0.063795,-0.011047,0.999981,0.000255,-0.000998,0.006140,-0.403439,-0.034464,0.751146,-0.521373
39345,NaN,4.626417,-7.660053,-0.347995,1.185777,-2.450124,-1.280908,0.051409,-0.212306,1.097063,-0.921631,0.337646,-0.220459,0.046687,-0.076344,-0.003450,0.999984,0.000257,-0.001062,0.005485,0.469052,0.020019,-0.757289,0.453986
39346,NaN,4.987338,-7.694954,0.464710,0.367287,-2.848364,-1.091841,0.010017,-0.188864,0.910042,-0.924316,0.348389,-0.211914,0.050218,-0.076722,0.004691,0.999989,0.000050,-0.000944,0.004550,0.466265,0.017025,-0.757792,0.456135
39347,NaN,6.851009,-7.160234,1.105572,-1.426573,-2.214752,-0.195678,-0.051538,-0.165224,0.748914,-0.920166,0.352539,-0.214111,0.068768,-0.071342,0.011131,0.999993,-0.000258,-0.000826,0.003745,0.463513,0.015566,-0.758544,0.457738
39348,NaN,9.914405,-6.486781,1.212297,-3.611349,-0.636331,1.518517,-0.151804,-0.158783,0.584123,-0.916016,0.359131,-0.216309,0.099323,-0.064569,0.012251,0.999995,-0.000759,-0.000794,0.002921,0.461584,0.013362,-0.759301,0.458501
39349,NaN,12.911139,-5.882008,0.368552,-5.041892,1.573716,3.360530,-0.114463,-0.123958,0.485306,-0.914062,0.365479,-0.209961,0.129251,-0.058504,0.003799,0.999997,-0.000572,-0.000620,0.002427,0.460521,0.012807,-0.758436,0.461011
39350,NaN,15.834649,-4.800404,-0.050879,-6.976959,3.713217,4.724028,-0.005193,-0.124466,0.480960,-0.916260,0.367676,-0.214355,0.158462,-0.047623,-0.000409,0.999997,-0.000026,-0.000622,0.002405,0.458939,0.011258,-0.758763,0.462089
39351,NaN,19.829764,-4.144629,0.933510,-10.121210,5.042205,7.021954,0.271782,-0.109049,0.562660,-0.916504,0.369629,-0.214355,0.198408,-0.040901,0.009387,0.999995,0.001359,-0.000545,0.002813,0.462186,0.011520,-0.757111,0.461556
39352,NaN,23.176456,-2.613959,2.552394,-13.901694,6.211622,8.038163,0.690406,-0.100110,0.638320,-0.910156,0.378174,-0.216553,0.231834,-0.025488,0.025551,0.999989,0.003452,-0.000501,0.003192,0.460289,0.010930,-0.755778,0.465634
39353,NaN,25.348245,-1.236957,4.456703,-16.523074,6.674395,8.798204,1.250554,-0.096637,0.647628,-0.907959,0.376221,-0.222900,0.253500,-0.011828,0.044614,0.999975,0.006253,-0.000483,0.003238,0.473427,0.011446,-0.752720,0.457328
39354,NaN,25.319850,0.650357,6.608418,-18.913557,6.273022,7.161273,1.947222,-0.121806,0.593645,-0.903564,0.376221,-0.225098,0.253139,0.006610,0.066302,0.999948,0.009736,-0.000609,0.002968,0.471475,0.014099,-0.748550,0.466031
39355,NaN,22.668208,4.116176,8.564879,-19.584775,6.259931,3.655601,2.570108,-0.143194,0.464862,-0.905762,0.376221,-0.235840,0.226526,0.040582,0.086335,0.999914,0.012850,-0.000716,0.002324,0.496685,0.016164,-0.742580,0.449019
39356,NaN,19.043975,8.430633,10.959634,-21.552471,5.415435,-2.065663,2.862045,-0.074815,0.474895,-0.907715,0.369873,-0.250732,0.190200,0.083178,0.110863,0.999895,0.014310,-0.000374,0.002374,0.495057,0.021674,-0.736300,0.460771
39357,NaN,17.175071,10.225110,13.016274,-22.358757,5.242104,-3.366439,2.747038,0.139605,0.526701,-0.903320,0.369873,-0.257080,0.171575,0.100904,0.131435,0.999902,0.013735,0.000698,0.002633,0.527868,0.023637,-0.729523,0.434272
39359,NaN,20.759837,3.686246,7.699847,-33.478443,12.193006,17.498558,1.792299,0.614472,0.872894,-0.901123,0.369873,-0.284912,0.415489,0.074605,0.152776,0.999782,0.017922,0.006144,0.008728,0.528022,0.024056,-0.718545,0.452005
39360,NaN,24.236515,-4.173884,-0.806156,-5.366941,8.101110,12.793473,0.126169,0.810697,1.086380,-0.888428,0.376221,-0.293701,0.242552,-0.040416,-0.009070,0.999977,0.000631,0.004053,0.005432,0.577386,0.019177,-0.710204,0.402328
39361,NaN,21.922593,-8.219229,-2.076984,-1.628280,5.446028,12.994045,-0.601164,0.791852,1.612856,-0.884766,0.393311,-0.295898,0.219796,-0.080485,-0.021396,0.999955,-0.003006,0.003959,0.008064,0.576986,0.010120,-0.709250,0.404907
39362,NaN,20.148184,-9.065725,-2.245046,1.384236,2.963020,12.152301,-1.237625,0.812402,2.387189,-0.872803,0.423340,-0.296387,0.202454,-0.088385,-0.022720,0.999901,-0.006188,0.004062,0.011936,0.621972,-0.005661,-0.700226,0.350432
39363,NaN,18.950748,-3.622791,-2.967109,-0.224238,7.365553,8.263003,-1.694761,0.840669,3.183308,-0.858887,0.455566,-0.294678,0.189929,-0.033461,-0.030177,0.999829,-0.008473,0.004203,0.015916,0.619183,-0.023548,-0.700371,0.354314
39364,NaN,20.117827,0.987905,-1.109387,-2.016643,10.308686,7.407677,-2.229436,0.974575,4.074779,-0.830078,0.489746,-0.299316,0.200865,0.013842,-0.012213,0.999718,-0.011146,0.004872,0.020372,0.655118,-0.049244,-0.688445,0.307309
39365,NaN,20.463304,4.586370,-0.718051,-3.673757,13.957052,5.416104,-2.288917,0.849623,4.708174,-0.807861,0.536865,-0.289062,0.203445,0.050570,-0.008607,0.999648,-0.011443,0.004248,0.023538,0.650015,-0.074233,-0.687777,0.314534
39366,NaN,27.650581,-7.922320,6.014727,-5.174272,5.398253,18.600976,-2.315711,0.690491,5.446975,-0.770752,0.581787,-0.279053,0.278721,-0.070956,0.060041,0.999556,-0.011577,0.003452,0.027231,0.682774,-0.108892,-0.671842,0.265691
39367,NaN,28.894487,0.537607,5.834080,-7.170568,14.692691,14.716134,-2.005191,0.595823,5.695198,-0.731445,0.626709,-0.277344,0.288796,0.014181,0.057367,0.999540,-0.010024,0.002979,0.028472,0.675805,-0.135606,-0.669062,0.277949
39368,NaN,26.456322,6.288780,4.956597,-4.280522,18.867530,9.924203,-2.469293,0.576802,5.197584,-0.698486,0.667236,-0.264893,0.262940,0.070335,0.047968,0.999582,-0.012345,0.002884,0.025984,0.705218,-0.169545,-0.647936,0.232596
39369,NaN,26.645383,8.816173,3.725842,-3.220526,22.185902,7.473479,-2.427936,0.147999,4.940147,-0.669434,0.697266,-0.239502,0.264188,0.095148,0.035935,0.999621,-0.012138,0.000740,0.024698,0.697628,-0.194215,-0.645804,0.241935
39370,NaN,25.106853,11.726846,3.943044,0.516822,23.580680,5.252161,-2.048600,-0.325655,4.609300,-0.634521,0.737793,-0.227051,0.248208,0.123409,0.038593,0.999681,-0.010242,-0.001628,0.023044,0.729067,-0.229513,-0.618538,0.182197
39371,NaN,22.548743,14.758476,4.730109,-0.594693,25.371301,0.407168,-1.536601,-0.605078,4.344222,-0.601074,0.765625,-0.212158,0.222064,0.152794,0.046816,0.999730,-0.007682,-0.003025,0.021719,0.721279,-0.247935,-0.616991,0.193925
39372,NaN,18.757758,12.296168,3.955829,2.384427,20.796508,-0.844064,-0.698089,-0.743745,4.224307,-0.569336,0.782715,-0.208008,0.184775,0.127023,0.039810,0.999764,-0.003490,-0.003718,0.021120,0.744274,-0.273003,-0.591924,0.145435
39373,NaN,18.331225,9.009226,2.399695,3.284353,17.953720,-0.337851,-0.102343,-0.860063,4.136139,-0.540039,0.808350,-0.204102,0.181292,0.093868,0.024732,0.999777,-0.000512,-0.004300,0.020679,0.738416,-0.284938,-0.589421,0.161665
39374,NaN,19.889514,8.544191,1.392803,6.531858,17.505910,1.203505,0.485598,-0.897560,3.700378,-0.510498,0.818848,-0.204102,0.197204,0.089066,0.015029,0.999816,0.002428,-0.004488,0.018501,0.758389,-0.297770,-0.565420,0.128375
39375,NaN,20.305070,8.976071,1.528645,6.383181,18.550135,0.689947,0.854574,-0.790146,3.150132,-0.487305,0.836182,-0.208496,0.201541,0.092874,0.016477,0.999859,0.004273,-0.003951,0.015750,0.755299,-0.302886,-0.563097,0.143893
39376,NaN,18.270852,8.339903,1.189556,7.709665,15.817665,-0.059108,1.040503,-0.607141,2.480599,-0.465820,0.840332,-0.212646,0.181618,0.085591,0.012890,0.999905,0.005202,-0.003036,0.012403,0.775835,-0.308756,-0.540947,0.100633
39377,NaN,16.283506,7.133120,-0.251373,7.845849,13.628943,-1.519222,1.099826,-0.524904,1.720114,-0.455078,0.840332,-0.212646,0.162219,0.072739,-0.001690,0.999944,0.005499,-0.002624,0.008600,0.775205,-0.308860,-0.539743,0.111084
39378,NaN,13.218103,6.785508,-1.313157,8.585686,10.378975,-3.405959,0.966474,-0.467972,0.716652,-0.446533,0.842529,-0.225342,0.131966,0.068390,-0.012493,0.999979,0.004832,-0.002340,0.003583,0.792332,-0.307255,-0.523459,0.061603
39379,NaN,8.035227,5.579433,-1.829489,6.382286,7.091766,-6.981657,0.672135,-0.388742,-0.438019,-0.461182,0.827393,-0.220947,0.080509,0.055679,-0.017951,0.999990,0.003361,-0.001944,-0.002190,0.792475,-0.303323,-0.525459,0.062224
39380,NaN,3.989142,3.957200,-2.669310,5.227594,3.322948,-9.240500,0.189399,-0.223309,-1.672979,-0.469482,0.821045,-0.225342,0.040250,0.039262,-0.026611,0.999964,0.000947,-0.001117,-0.008365,0.802966,-0.294021,-0.518374,0.009273
39381,NaN,2.993186,0.716018,-2.881979,3.999101,0.186063,-8.489943,-0.117080,-0.044878,-2.552379,-0.488525,0.808350,-0.220947,0.030026,0.006761,-0.028817,0.999918,-0.000585,-0.000224,-0.012762,0.802731,-0.287850,-0.522269,-0.001213
39382,NaN,1.265577,0.510859,-2.302482,2.633540,-0.444819,-9.638083,-0.192577,0.093431,-3.356689,-0.522217,0.789062,-0.214355,0.012728,0.004873,-0.023036,0.999859,-0.000963,0.000467,-0.016783,0.807352,-0.273732,-0.519990,-0.053520
39383,NaN,-0.826839,-0.795335,-2.454331,1.315866,-2.044784,-11.007288,0.065593,0.271271,-4.217880,-0.551514,0.763428,-0.218262,-0.008467,-0.007768,-0.024534,0.999777,0.000328,0.001356,-0.021088,0.806838,-0.262367,-0.524569,-0.070735
39384,NaN,-1.872095,0.804770,-2.449082,1.483564,-0.727738,-12.536456,0.372211,0.485159,-4.882416,-0.586914,0.731201,-0.213867,-0.018576,0.008548,-0.024430,0.999697,0.001861,0.002426,-0.024410,0.807780,-0.240421,-0.524800,-0.119475
39385,NaN,-1.819572,1.019870,-2.421712,1.629906,-0.425779,-12.528671,0.577735,0.626206,-5.426800,-0.626709,0.699219,-0.226318,-0.017984,0.010758,-0.024130,0.999623,0.002888,0.003131,-0.027131,0.806572,-0.223384,-0.528940,-0.140582
39386,NaN,-1.066134,0.245435,-2.491532,1.658389,-1.007796,-11.720090,0.651615,0.692377,-5.840820,-0.663818,0.658691,-0.230225,-0.010668,0.002847,-0.024870,0.999562,0.003258,0.003461,-0.029200,0.803466,-0.196471,-0.530499,-0.185506
39387,NaN,0.053925,0.859724,-2.502208,2.414004,-0.547335,-10.748613,0.719540,0.679693,-6.172438,-0.698975,0.613770,-0.236084,0.000721,0.008667,-0.024993,0.999512,0.003597,0.003398,-0.030857,0.799859,-0.176484,-0.534239,-0.208967
39388,NaN,0.248046,1.014698,-2.347655,2.455522,-0.385246,-10.464148,0.725522,0.623286,-6.427153,-0.729736,0.568848,-0.239990,0.002733,0.010147,-0.023448,0.999472,0.003627,0.003116,-0.032130,0.792345,-0.146676,-0.537086,-0.249425
39389,NaN,0.545491,1.554647,-1.683364,2.335490,0.302669,-9.848502,0.744277,0.500610,-6.617310,-0.766602,0.519531,-0.245850,0.005924,0.015418,-0.016791,0.999443,0.003721,0.002503,-0.033080,0.785543,-0.125254,-0.540584,-0.273866
39390,NaN,0.890940,1.605418,-3.073824,3.539828,-0.521220,-9.941241,0.692281,0.347978,-6.853656,-0.801270,0.466064,-0.245117,0.009401,0.015844,-0.030699,0.999405,0.003461,0.001740,-0.034261,0.773633,-0.093720,-0.544461,-0.310276
39391,NaN,1.074904,0.194695,-3.306937,2.923976,-1.870351,-10.097463,0.781795,0.189905,-7.013851,-0.829590,0.412598,-0.246826,0.010780,0.001699,-0.033073,0.999377,0.003908,0.000949,-0.035062,0.763155,-0.071252,-0.547886,-0.335169
39392,NaN,1.131228,-2.057638,-1.014728,-0.239655,-2.545491,-9.876350,1.002242,0.046650,-7.054985,-0.851074,0.348145,-0.248047,0.010576,-0.020907,-0.010254,0.999365,0.005010,0.000233,-0.035267,0.747740,-0.037326,-0.553027,-0.365585
39393,NaN,2.075374,-2.347327,-1.228947,-0.186951,-3.337878,-9.428881,0.853821,-0.062007,-6.974637,-0.879395,0.294678,-0.238770,0.019924,-0.024125,-0.012385,0.999383,0.004268,-0.000310,-0.034866,0.734520,-0.014941,-0.555779,-0.389058
39394,NaN,3.453451,-3.753404,-1.460131,-0.816995,-5.217041,-9.311312,0.796415,-0.162358,-6.955852,-0.898682,0.234619,-0.235840,0.033215,-0.038646,-0.014726,0.999387,0.003981,-0.000812,-0.034772,0.717114,0.016529,-0.558974,-0.415961
39395,NaN,5.017607,-6.475647,-1.589942,-2.385819,-7.994682,-9.884744,0.776846,-0.240872,-6.937272,-0.913818,0.172607,-0.232910,0.047911,-0.066382,-0.016097,0.999390,0.003883,-0.001204,-0.034679,0.701514,0.038190,-0.560538,-0.438425
39396,NaN,6.257137,-9.318519,-1.679021,-4.072919,-10.482158,-11.326777,0.713641,-0.226476,-6.896657,-0.930908,0.110352,-0.227783,0.059330,-0.095208,-0.017059,0.999399,0.003567,-0.001132,-0.034476,0.683111,0.066784,-0.561545,-0.462133
39397,NaN,7.845639,-11.784570,-2.170372,-5.298302,-12.987742,-12.695973,0.639295,-0.143464,-6.706680,-0.941895,0.050537,-0.226807,0.074465,-0.120318,-0.022031,0.999432,0.003196,-0.000717,-0.033527,0.666613,0.087426,-0.560954,-0.483027
39398,NaN,10.038803,-14.354491,-2.865886,-6.472672,-15.914043,-14.260451,0.500925,-0.128529,-6.537850,-0.948730,-0.000977,-0.219727,0.095646,-0.146651,-0.028961,0.999462,0.002504,-0.000643,-0.032683,0.648977,0.110125,-0.559198,-0.503983
39399,NaN,13.270060,-18.674866,-2.868121,-9.394816,-19.996832,-16.503608,0.383090,-0.140495,-6.216484,-0.948486,-0.069580,-0.218750,0.126834,-0.190697,-0.028954,0.999515,0.001915,-0.000702,-0.031077,0.632396,0.128340,-0.556925,-0.522914
39400,NaN,15.255725,-23.202879,-2.477924,-12.700860,-22.691106,-19.854729,0.303474,-0.051086,-5.732979,-0.950928,-0.121094,-0.219971,0.145832,-0.236236,-0.025098,0.999588,0.001517,-0.000255,-0.028661,0.617057,0.142245,-0.553795,-0.540665
39401,NaN,18.132112,-28.945877,-3.599988,-15.349037,-26.920437,-24.613171,0.368635,0.151961,-4.960332,-0.942871,-0.166016,-0.217285,0.174043,-0.293769,-0.036673,0.999690,0.001843,0.000760,-0.024799,0.603616,0.157484,-0.550623,-0.554672
39402,NaN,21.161390,-35.662933,-6.343368,-17.657051,-32.020533,-30.369008,0.811610,0.180162,-4.046252,-0.930664,-0.208984,-0.216553,0.204287,-0.360550,-0.065078,0.999787,0.004058,0.000901,-0.020230,0.592768,0.161175,-0.549129,-0.566663
39403,NaN,22.310890,-40.300255,-9.685632,-17.124798,-35.094714,-36.092385,1.261000,-0.154616,-3.147177,-0.925293,-0.239014,-0.207520,0.216814,-0.405827,-0.099240,0.999856,0.006305,-0.000773,-0.015735,0.582325,0.173093,-0.550545,-0.572571
39404,NaN,20.725392,-40.506771,-10.875776,-16.616409,-33.856454,-37.492273,1.613689,-0.515079,-2.336064,-0.917969,-0.264648,-0.204834,0.202796,-0.406562,-0.111508,0.999896,0.008068,-0.002575,-0.011680,0.573500,0.166065,-0.555573,-0.578670
39405,NaN,17.857754,-38.912520,-9.503540,-15.609855,-30.082918,-37.646206,1.774562,-0.763101,-1.454741,-0.913086,-0.283936,-0.187500,0.176115,-0.389553,-0.097816,0.999927,0.008873,-0.003815,-0.007274,0.565656,0.172976,-0.561647,-0.578503
39406,NaN,13.232858,-37.822367,-7.102734,-16.450215,-24.908992,-37.471146,1.932296,-1.025641,-0.486981,-0.921631,-0.286133,-0.170410,0.131783,-0.377840,-0.074002,0.999937,0.009661,-0.005128,-0.002435,0.560069,0.157314,-0.571230,-0.579026
39407,NaN,9.438239,-35.545835,-4.044470,-16.124713,-19.977426,-36.454697,2.200102,-1.226920,0.565572,-0.917725,-0.277588,-0.151123,0.095648,-0.354720,-0.043765,0.999917,0.011000,-0.006134,0.002828,0.556425,0.158296,-0.581433,-0.572075
39408,NaN,13.504150,-30.412001,-1.892646,-17.552837,-21.106624,-28.712263,2.453065,-1.428872,1.442197,-0.920410,-0.267090,-0.121338,0.137377,-0.302880,-0.021671,0.999873,0.012265,-0.007144,0.007211,0.553863,0.136126,-0.594496,-0.566816
39409,NaN,14.052546,-52.353645,-24.537317,-9.089826,-41.290006,-51.678471,2.222528,-2.529453,1.182620,-0.927246,-0.254150,-0.102295,0.146744,-0.519925,-0.249335,0.999841,0.011112,-0.012647,0.005913,0.548095,0.131577,-0.608509,-0.558566
39410,NaN,28.162301,-74.292366,-8.894500,-40.001978,-51.912130,-55.594650,-1.022032,-2.056447,2.637872,-0.935059,-0.219971,-0.085693,0.292261,-0.739547,-0.082191,0.999847,-0.005110,-0.010282,0.013189,0.548852,0.094471,-0.613826,-0.559512
39411,NaN,32.283554,-9.616214,46.073791,-52.643280,0.045555,12.231191,-0.466192,-0.042087,4.477591,-0.934326,-0.174805,-0.092773,0.324767,-0.087831,0.461017,0.999747,-0.002331,-0.000210,0.022386,0.561330,0.079310,-0.614597,-0.548534
39412,NaN,33.521054,25.972969,51.493809,-35.626195,19.306486,43.176531,1.414127,1.585669,4.161054,-0.946289,-0.138428,-0.102051,0.333839,0.263048,0.514140,0.999727,0.007070,0.007928,0.020803,0.572660,0.044945,-0.612690,-0.542818
39413,NaN,11.135890,5.233558,8.891815,-7.323179,0.192097,3.483065,-0.223480,0.213977,3.853043,-0.949707,-0.104004,-0.106689,0.110417,0.054568,0.088740,0.999813,-0.001117,0.001070,0.019264,0.583716,0.033075,-0.612222,-0.532321
39414,NaN,4.071809,-17.300616,-13.170073,-3.116838,-18.337585,-21.783996,-2.468098,0.188786,3.646732,-0.948730,-0.067627,-0.113770,0.043760,-0.173835,-0.129599,0.999757,-0.012339,0.000944,0.018232,0.588368,-0.012277,-0.599998,-0.541918
39415,NaN,1.912816,-10.681703,-7.032331,-2.752137,-10.351847,-17.056041,-0.654057,0.338270,3.433101,-0.952148,-0.033447,-0.114258,0.020842,-0.106698,-0.070009,0.999846,-0.003270,0.001691,0.017165,0.598554,-0.023581,-0.596927,-0.533718
39416,NaN,7.597680,-5.348896,0.965199,-6.526358,-5.981238,-6.830834,-0.681566,0.366209,3.046456,-0.952881,-0.009766,-0.114502,0.076797,-0.052290,0.009691,0.999877,-0.003408,0.001831,0.015232,0.602465,-0.055628,-0.588658,-0.536119
39417,NaN,14.034816,-8.385657,7.016278,-14.171709,-6.720704,-1.416459,-0.702872,0.081104,2.821431,-0.952148,0.026611,-0.117188,0.141539,-0.081618,0.070395,0.999894,-0.003514,0.000406,0.014107,0.610008,-0.065826,-0.585682,-0.529654
39418,NaN,11.897286,-5.305766,1.081280,-7.568156,-7.900743,-2.660247,-0.192680,-0.070031,2.593399,-0.946045,0.039551,-0.111084,0.119644,-0.051499,0.010905,0.999915,-0.000963,-0.000350,0.012967,0.611388,-0.093579,-0.579246,-0.530964
39419,NaN,11.686968,-5.652529,1.872726,-8.089925,-7.273119,-2.485386,-0.361192,-0.327988,2.448238,-0.947021,0.065186,-0.109375,0.117519,-0.055055,0.019020,0.999922,-0.001806,-0.001640,0.012241,0.616722,-0.102636,-0.578098,-0.524330
39420,NaN,11.549263,-6.158916,5.717327,-10.626399,-4.057844,-1.174919,-0.337507,-0.246355,2.258666,-0.943359,0.086670,-0.107422,0.116107,-0.060183,0.057418,0.999934,-0.001687,-0.001232,0.011293,0.616735,-0.127963,-0.571588,-0.525880
39421,NaN,14.379807,-5.582774,1.036114,-7.903682,-8.698550,0.231121,-0.196175,-0.233855,2.067443,-0.941895,0.105957,-0.105469,0.144353,-0.054327,0.010583,0.999945,-0.000981,-0.001169,0.010337,0.621345,-0.135084,-0.570439,-0.519887
39422,NaN,18.918558,-4.069535,-3.117590,-5.196105,-13.066728,3.841633,0.273406,-0.083241,1.991490,-0.944824,0.127441,-0.110107,0.189591,-0.038766,-0.031151,0.999949,0.001367,-0.000416,0.009957,0.621540,-0.155831,-0.564746,-0.520065
39423,NaN,20.569967,-3.154474,0.222136,-6.219986,-10.725163,6.902284,0.431962,-0.060751,2.108205,-0.932617,0.144531,-0.110352,0.206016,-0.029379,0.002219,0.999942,0.002160,-0.000304,0.010541,0.627152,-0.160591,-0.564382,-0.512215
39424,NaN,26.484165,-2.171613,2.400285,-7.146275,-10.785285,13.521135,0.707972,0.201352,2.282149,-0.931152,0.170166,-0.108643,0.265091,-0.018776,0.023666,0.999928,0.003540,0.001007,0.011410,0.629463,-0.178598,-0.558737,-0.509600
39425,NaN,29.133953,1.125781,3.925843,-4.956774,-9.173513,17.695485,0.893641,0.385995,2.599325,-0.921143,0.191650,-0.121826,0.291237,0.014870,0.038757,0.999904,0.004468,0.001930,0.012996,0.637903,-0.182046,-0.557423,-0.499218
39426,NaN,32.165597,3.279076,7.246934,-4.317386,-6.305900,22.427411,0.946291,0.586940,2.971012,-0.913818,0.223877,-0.124268,0.321336,0.037225,0.071695,0.999874,0.004731,0.002935,0.014854,0.643357,-0.199063,-0.550283,-0.493613
39427,NaN,33.948319,6.740748,7.399754,-0.700189,-5.114704,25.200798,0.924179,0.762663,3.133782,-0.901611,0.247314,-0.133301,0.338655,0.072379,0.073032,0.999859,0.004621,0.003813,0.015668,0.654020,-0.202802,-0.546913,-0.481679
39428,NaN,31.273022,8.924840,5.677173,3.333487,-3.827917,22.807062,0.841966,0.276138,3.009794,-0.894043,0.275146,-0.137939,0.311421,0.093703,0.056729,0.999877,0.004210,0.001381,0.015048,0.658900,-0.219167,-0.540383,-0.475187
39429,NaN,28.731262,12.943377,8.851971,5.928770,2.073866,22.310067,1.129787,-0.187409,2.667179,-0.879883,0.302979,-0.151123,0.285473,0.132745,0.089531,0.999895,0.005649,-0.000937,0.013335,0.665900,-0.223074,-0.540704,-0.463091
39430,NaN,22.251476,14.988320,12.054802,6.805698,8.565112,17.489325,1.959820,0.369665,2.300885,-0.873779,0.318115,-0.166260,0.221004,0.151243,0.121616,0.999884,0.009799,0.001848,0.011504,0.671362,-0.230790,-0.537904,-0.454608
39431,NaN,15.583432,20.443727,10.901894,12.110797,13.046815,11.698630,1.862583,1.332981,2.282018,-0.861816,0.341553,-0.181641,0.154226,0.205182,0.109896,0.999869,0.009313,0.006665,0.011410,0.682196,-0.227616,-0.534959,-0.443416
39432,NaN,15.500479,7.563502,8.477353,2.662683,4.949148,8.565312,3.125436,1.407940,2.595316,-0.842773,0.352295,-0.207275,0.154615,0.076317,0.084873,0.999769,0.015626,0.007039,0.012976,0.693426,-0.225945,-0.531977,-0.430244
39433,NaN,25.693110,-4.047361,1.182935,-1.996907,-10.381966,13.979982,0.860368,1.479739,2.625414,-0.826172,0.375977,-0.222656,0.257511,-0.037141,0.009761,0.999877,0.004302,0.007398,0.013127,0.703897,-0.226735,-0.525666,-0.420471
39434,NaN,28.192375,-6.823154,-2.433198,-1.329802,-15.435326,14.828930,-0.753464,1.755982,2.555477,-0.812256,0.406006,-0.238037,0.282539,-0.064721,-0.026563,0.999873,-0.003767,0.008780,0.012777,0.711419,-0.236878,-0.513163,-0.417655
39435,NaN,26.450953,-8.946430,-8.508460,0.735011,-20.611570,10.842904,-1.271494,1.974050,3.031571,-0.787354,0.433838,-0.253174,0.264977,-0.086000,-0.087144,0.999816,-0.006357,0.009870,0.015157,0.721179,-0.245014,-0.499801,-0.412394
39436,NaN,24.445763,3.310409,-10.674788,12.501177,-14.967246,8.684523,-2.315190,1.783561,3.499347,-0.767090,0.470215,-0.251465,0.242876,0.036107,-0.109325,0.999740,-0.011575,0.008917,0.017495,0.727868,-0.263440,-0.482433,-0.409959
39437,NaN,17.446093,12.654389,-7.332738,18.096549,-5.054493,3.038249,-2.746245,1.670184,4.061868,-0.738281,0.510986,-0.254150,0.171227,0.129007,-0.076527,0.999665,-0.013730,0.008350,0.020307,0.736362,-0.279719,-0.465214,-0.403863
39438,NaN,21.195301,0.976456,-0.749570,6.811722,-6.990041,9.038967,-3.301042,1.773479,5.201879,-0.701416,0.566650,-0.256836,0.211527,0.015124,-0.009593,0.999486,-0.016502,0.008866,0.026005,0.744504,-0.303255,-0.444464,-0.395223
39439,NaN,27.424175,-12.730974,-0.016096,-2.011838,-14.880489,16.424279,-2.614946,1.412579,6.362940,-0.658203,0.617920,-0.248779,0.278103,-0.118507,-0.000528,0.999384,-0.013072,0.007061,0.031808,0.755792,-0.324148,-0.424119,-0.379248
39440,NaN,29.800792,-1.586105,0.756258,9.695152,-8.625045,17.066462,-2.288690,0.972270,6.229405,-0.612305,0.658447,-0.242920,0.298340,-0.006495,0.006223,0.999438,-0.011441,0.004860,0.031141,0.763853,-0.347083,-0.405694,-0.362595
39441,NaN,29.922544,2.281527,-0.685183,15.093856,-7.211083,15.106189,-2.356549,0.465814,5.891407,-0.574707,0.690430,-0.226074,0.298365,0.031525,-0.007885,0.999494,-0.011781,0.002329,0.029452,0.771002,-0.367012,-0.389215,-0.345500
39442,NaN,30.288664,11.526656,0.388449,23.741536,-1.022422,12.219712,-2.285828,0.107072,5.611605,-0.522461,0.737549,-0.215820,0.299495,0.123735,0.002341,0.999541,-0.011427,0.000535,0.028054,0.774967,-0.388346,-0.375588,-0.327944
39443,NaN,27.222682,16.864586,1.162114,27.192638,3.535201,6.760176,-2.119645,-0.112675,5.157280,-0.493408,0.763184,-0.205322,0.267750,0.175701,0.009935,0.999611,-0.010597,-0.000563,0.025783,0.778795,-0.406277,-0.362389,-0.311595
39444,NaN,24.435136,18.658939,2.103890,27.283084,6.597264,2.898766,-1.448154,-0.432394,4.741813,-0.453369,0.788818,-0.194580,0.239790,0.192459,0.020181,0.999690,-0.007240,-0.002162,0.023707,0.781741,-0.420303,-0.356490,-0.291789
39445,NaN,21.919431,17.735184,3.444245,25.073238,8.319943,0.619576,-0.488826,-0.628466,4.502034,-0.413330,0.808105,-0.197021,0.215019,0.182308,0.034681,0.999739,-0.002444,-0.003142,0.022508,0.785958,-0.431046,-0.348678,-0.273666
39446,NaN,19.445286,14.551580,4.622494,20.813813,9.190026,-0.145196,0.369263,-0.785418,4.467845,-0.373047,0.829346,-0.201416,0.190955,0.149721,0.047253,0.999741,0.001846,-0.003927,0.022337,0.791553,-0.435015,-0.350180,-0.248154
39447,NaN,18.496382,12.250697,5.481917,18.394016,9.523579,-0.162151,0.921597,-0.871373,4.179193,-0.345459,0.842285,-0.214111,0.182111,0.126076,0.056192,0.999762,0.004608,-0.004357,0.020894,0.797028,-0.439663,-0.345598,-0.228045
39448,NaN,17.452720,11.023571,5.058032,17.662729,7.737787,-0.879141,1.069355,-0.799063,3.505743,-0.315674,0.850830,-0.216309,0.172357,0.112995,0.051871,0.999824,0.005346,-0.003995,0.017528,0.790236,-0.455546,-0.327872,-0.245976
39449,NaN,16.161505,10.214389,3.368676,16.766386,6.458056,-2.462029,1.019574,-0.729344,2.730334,-0.294434,0.857178,-0.224854,0.160077,0.104161,0.034800,0.999887,0.005098,-0.003647,0.013651,0.794632,-0.456840,-0.325751,-0.231826
39450,NaN,12.696187,10.696657,1.718820,15.513732,4.830519,-5.998850,0.834072,-0.714075,1.894062,-0.279541,0.865723,-0.229248,0.125878,0.108088,0.018088,0.999940,0.004170,-0.003570,0.009470,0.787665,-0.466930,-0.314935,-0.249753
39451,NaN,7.843410,10.331493,1.118557,12.088634,4.833087,-9.696664,0.578144,-0.801750,0.998417,-0.275146,0.865723,-0.235596,0.077871,0.103671,0.011798,0.999975,0.002891,-0.004009,0.004992,0.788980,-0.467216,-0.316475,-0.243030
39452,NaN,3.823273,8.891308,-0.461718,8.950839,2.772929,-12.278251,0.355902,-0.734776,-0.005672,-0.275146,0.861328,-0.239746,0.038251,0.088920,-0.004318,0.999992,0.001780,-0.003674,-0.000028,0.779872,-0.473991,-0.312316,-0.263800
39453,NaN,0.791547,7.164706,-1.509500,5.980906,1.502183,-13.838784,0.441987,-0.571387,-1.241302,-0.296387,0.857178,-0.246338,0.008403,0.071629,-0.014913,0.999974,0.002210,-0.002857,-0.006206,0.778371,-0.471071,-0.318060,-0.266588
39454,NaN,-2.162440,4.600408,-1.483673,2.369502,0.722375,-14.492799,0.552641,-0.332021,-2.337215,-0.315674,0.854980,-0.242188,-0.021060,0.046293,-0.014744,0.999927,0.002763,-0.001660,-0.011686,0.767918,-0.471574,-0.319964,-0.292479
39455,NaN,-2.663539,5.121986,-0.712908,2.419448,1.719317,-14.815166,0.322170,-0.243906,-3.149550,-0.345703,0.850830,-0.248535,-0.025816,0.051642,-0.007078,0.999874,0.001611,-0.001219,-0.015747,0.763585,-0.465596,-0.328757,-0.303442
39456,NaN,-1.379582,5.806132,-1.436920,4.131525,0.944665,-14.252487,-0.159996,-0.188008,-4.241682,-0.394531,0.831787,-0.242188,-0.012547,0.058325,-0.014428,0.999774,-0.000800,-0.000940,-0.021207,0.748000,-0.465272,-0.333508,-0.335842
39457,NaN,-0.568327,3.884341,-2.565404,3.387761,-0.947170,-12.913444,-0.298270,-0.100170,-5.284534,-0.437256,0.818848,-0.237793,-0.004642,0.038937,-0.025715,0.999650,-0.001491,-0.000501,-0.026420,0.738005,-0.457582,-0.345557,-0.355749
39458,NaN,0.386433,2.846811,-2.786197,3.083968,-1.855373,-11.562177,-0.179793,-0.021996,-6.076748,-0.494141,0.786865,-0.239746,0.004729,0.028308,-0.027887,0.999538,-0.000899,-0.000110,-0.030379,0.717676,-0.453324,-0.353883,-0.392690
39459,NaN,1.367733,2.562034,-3.128149,3.339669,-2.551847,-10.555424,0.014759,0.069449,-6.672744,-0.559570,0.754883,-0.243896,0.014511,0.025148,-0.031285,0.999443,0.000074,0.000347,-0.033358,0.704334,-0.441078,-0.368588,-0.416541
39460,NaN,3.276111,2.486434,-3.059199,3.801742,-3.210431,-8.585062,0.278745,0.117011,-7.155237,-0.609863,0.714355,-0.245850,0.033605,0.023715,-0.030578,0.999359,0.001393,0.000585,-0.035769,0.681192,-0.431685,-0.380164,-0.452880
39461,NaN,5.176607,2.182344,-2.916725,3.832219,-3.802713,-6.510172,0.483501,0.132428,-7.565229,-0.677002,0.667236,-0.256104,0.052524,0.019916,-0.029152,0.999282,0.002417,0.000662,-0.037817,0.664872,-0.415052,-0.396860,-0.477681
39462,NaN,6.563219,2.276256,-2.446717,3.659738,-3.991544,-4.823314,0.652090,0.098954,-7.895522,-0.730713,0.603027,-0.264160,0.066452,0.020229,-0.024431,0.999215,0.003260,0.000495,-0.039467,0.638771,-0.401467,-0.411166,-0.511603
39463,NaN,7.799152,2.497260,-1.333719,3.390625,-3.456068,-3.077328,0.832563,0.094930,-8.166409,-0.786621,0.538818,-0.271973,0.078919,0.021818,-0.013279,0.999158,0.004162,0.000475,-0.040821,0.619216,-0.381444,-0.429035,-0.535725
39464,NaN,8.797489,3.370037,-0.161580,3.411367,-2.789458,-1.487415,0.926407,0.038075,-8.265457,-0.837646,0.464111,-0.270996,0.089267,0.030035,-0.001488,0.999135,0.004631,0.000190,-0.041315,0.590853,-0.364573,-0.444940,-0.565692
39465,NaN,9.755730,4.080015,-0.031153,3.282199,-3.078961,-0.247004,0.804153,-0.059051,-8.450546,-0.880127,0.382568,-0.274414,0.099164,0.036633,-0.000129,0.999099,0.004020,-0.000295,-0.042240,0.567761,-0.343243,-0.462388,-0.588242
39466,NaN,10.865828,1.202860,0.076744,-0.714077,-3.644030,0.466246,0.890243,-0.238797,-8.588130,-0.915771,0.294922,-0.277588,0.109040,0.007347,0.000937,0.999068,0.004450,-0.001194,-0.042927,0.535010,-0.325711,-0.478363,-0.615505
39467,NaN,11.013176,-2.328867,2.516185,-5.349013,-1.510182,0.290365,1.410674,-0.288071,-8.416335,-0.938477,0.207031,-0.276367,0.108981,-0.028069,0.025133,0.999089,0.007051,-0.001440,-0.042069,0.510237,-0.302404,-0.496741,-0.633608
39468,NaN,11.490257,-4.054722,2.862191,-8.025536,-0.592830,-0.230934,1.556135,-0.480861,-8.063891,-0.952393,0.110596,-0.277100,0.113069,-0.045354,0.028555,0.999154,0.007778,-0.002404,-0.040308,0.458931,-0.303620,-0.502754,-0.666660
39469,NaN,11.954865,-5.883879,2.195982,-10.573739,-1.046460,-1.484061,1.317811,-0.566354,-7.824601,-0.962402,0.027100,-0.271729,0.117060,-0.063596,0.021885,0.999209,0.006587,-0.002831,-0.039113,0.433070,-0.282581,-0.519924,-0.679910
39470,NaN,14.505688,-9.231164,2.660179,-15.401624,-0.461559,-1.742143,1.455180,-0.516909,-7.541954,-0.961670,-0.056641,-0.261719,0.141367,-0.097882,0.026272,0.999259,0.007274,-0.002584,-0.037700,0.399441,-0.268398,-0.533947,-0.695205
39471,NaN,16.077025,-12.292959,3.085901,-19.394645,0.111086,-3.274161,1.631252,-0.347405,-7.264288,-0.952393,-0.137939,-0.264893,0.156107,-0.128905,0.030098,0.999306,0.008154,-0.001737,-0.036313,0.375179,-0.246773,-0.549687,-0.704406
39472,NaN,19.198710,-17.005143,2.463999,-25.380007,-0.214523,-5.409941,1.827425,-0.185762,-6.682679,-0.930664,-0.206787,-0.259521,0.186137,-0.176553,0.023221,0.999400,0.009135,-0.000929,-0.033407,0.348671,-0.229669,-0.563423,-0.712906
39473,NaN,20.949194,-24.194066,1.118552,-31.979920,-0.982364,-11.014306,2.327471,-0.020231,-6.093390,-0.913086,-0.277344,-0.260498,0.201990,-0.248280,0.008341,0.999468,0.011635,-0.000101,-0.030462,0.329384,-0.208401,-0.578450,-0.716569
39474,NaN,24.175977,-31.499972,-2.062050,-38.938031,-4.035530,-16.746060,2.518141,-0.099469,-5.610403,-0.883301,-0.328857,-0.246582,0.232816,-0.321323,-0.024523,0.999527,0.012589,-0.000497,-0.028048,0.311310,-0.189451,-0.593108,-0.717926
39475,NaN,30.233585,-38.276822,-5.115944,-47.128959,-7.774761,-20.912993,2.026553,-0.408325,-5.283853,-0.860107,-0.382568,-0.237061,0.292203,-0.390037,-0.054484,0.999598,0.010131,-0.002041,-0.026416,0.292928,-0.172021,-0.605784,-0.719463
39476,NaN,24.285183,-46.585186,-4.255445,-47.103439,-4.898288,-32.938916,1.366942,-0.656475,-4.713045,-0.837158,-0.421387,-0.219238,0.231936,-0.471102,-0.044989,0.999694,0.006834,-0.003282,-0.023563,0.276123,-0.159137,-0.615324,-0.720977
39477,NaN,20.436170,-45.721237,-1.076866,-42.887221,-1.063157,-35.668843,1.172483,-0.749534,-3.351068,-0.823730,-0.440674,-0.206055,0.196709,-0.460480,-0.012715,0.999835,0.005862,-0.003747,-0.016754,0.262625,-0.149887,-0.623151,-0.721280
39478,NaN,16.670648,-46.522566,-1.558060,-39.608320,-0.852330,-39.393955,1.527423,-0.693879,-1.765388,-0.812500,-0.455566,-0.192871,0.162653,-0.466539,-0.018571,0.999926,0.007637,-0.003469,-0.008827,0.255585,-0.147387,-0.630190,-0.718202
39479,NaN,10.247767,-50.968794,-3.900152,-36.074416,-2.315942,-47.379137,2.062226,-0.827016,-0.414574,-0.805908,-0.457764,-0.175781,0.101596,-0.509464,-0.043834,0.999936,0.010311,-0.004135,-0.002073,0.252993,-0.146408,-0.638918,-0.711578
39480,NaN,5.231396,-49.278832,-1.871539,-31.366225,-0.553735,-48.218405,2.453388,-1.019757,0.843047,-0.817139,-0.447266,-0.154541,0.054505,-0.492285,-0.024482,0.999903,0.012267,-0.005099,0.004215,0.255413,-0.152034,-0.647484,-0.701722
39481,NaN,3.818274,-38.357425,2.840636,-25.006177,2.874023,-39.142937,2.463066,-0.988316,1.867915,-0.824219,-0.427979,-0.139893,0.041639,-0.383509,0.023883,0.999868,0.012315,-0.004941,0.009339,0.260605,-0.158386,-0.655883,-0.690519
39482,NaN,1.865526,-27.724140,8.014242,-18.606379,7.460906,-30.655216,2.011051,-0.838213,2.654707,-0.833740,-0.408691,-0.116699,0.022012,-0.277752,0.077439,0.999853,0.010055,-0.004191,0.013273,0.269699,-0.169625,-0.660814,-0.679569
39483,NaN,9.898964,-42.427895,-0.158216,-33.295028,-2.522934,-37.796612,0.727793,-1.429303,2.683166,-0.845459,-0.378662,-0.106445,0.104685,-0.422892,-0.002388,0.999878,0.003639,-0.007146,0.013415,0.274678,-0.182347,-0.662858,-0.672250
39484,NaN,30.972875,-90.531321,-39.551647,-76.944489,-42.922793,-64.158485,-5.497653,-2.107276,1.504061,-0.856934,-0.361572,-0.113037,0.320546,-0.913283,-0.367143,0.999538,-0.027484,-0.010535,0.007519,0.268214,-0.204636,-0.644423,-0.686225
39485,NaN,21.880958,-50.271783,-14.582990,-48.549465,-13.184627,-35.999802,-8.284058,-2.567647,1.659391,-0.855469,-0.342285,-0.111328,0.224670,-0.506254,-0.122045,0.999026,-0.041407,-0.012834,0.008294,0.256900,-0.229697,-0.617126,-0.707387
39486,NaN,69.195607,62.087790,53.408284,-9.691654,39.903053,89.220255,-2.710097,0.069669,3.170060,-0.872070,-0.290771,-0.127197,0.682108,0.638900,0.525268,0.999783,-0.013550,0.000348,0.015849,0.267237,-0.244687,-0.603334,-0.710423
39487,NaN,53.766910,-32.939964,70.509695,-59.948246,68.634799,15.500755,-0.664396,1.673245,6.452306,-0.884521,-0.243408,-0.134277,0.553747,-0.309371,0.701558,0.999439,-0.003321,0.008365,0.032256,0.294237,-0.258959,-0.590508,-0.705454
39488,NaN,12.309540,-16.687657,14.808221,-20.384024,15.284123,-9.471430,2.609404,0.010100,4.125491,-0.896240,-0.213379,-0.132812,0.126536,-0.166203,0.145904,0.999702,0.013046,0.000050,0.020625,0.312121,-0.271028,-0.591287,-0.692463
39489,NaN,-25.145046,7.515027,-2.548958,21.877488,-0.385482,-24.521812,-1.329495,0.706854,4.317249,-0.899902,-0.170654,-0.139893,-0.253081,0.069531,-0.025072,0.999739,-0.006647,0.003534,0.021584,0.327274,-0.283350,-0.579577,-0.690431
39490,NaN,11.610833,-7.489919,1.237365,-12.978606,0.718617,-4.968781,-3.385641,1.414875,2.914653,-0.903320,-0.136230,-0.155273,0.117271,-0.072982,0.012793,0.999726,-0.016927,0.007074,0.014572,0.336292,-0.295857,-0.558268,-0.698364
39491,NaN,18.295383,-10.398095,-1.933207,-19.198484,-2.929779,-1.483860,-2.100717,0.943249,3.655514,-0.899902,-0.106201,-0.166504,0.184725,-0.100817,-0.019130,0.999767,-0.010503,0.004716,0.018276,0.348504,-0.306233,-0.543810,-0.699312
39492,NaN,9.991197,-6.872378,-4.108985,-11.464700,-4.409478,-6.201170,-0.290604,0.690144,3.244008,-0.905518,-0.072021,-0.169189,0.100867,-0.067153,-0.041338,0.999861,-0.001453,0.003451,0.016219,0.361059,-0.316341,-0.533589,-0.696310
39493,NaN,8.177688,-6.935554,-1.584861,-10.280126,-1.774412,-6.871288,0.183756,0.551279,2.664179,-0.908447,-0.050537,-0.176025,0.082647,-0.068244,-0.016139,0.999907,0.000919,0.002756,0.013320,0.372064,-0.321171,-0.528970,-0.691815
39494,NaN,7.890971,-3.547320,13.571281,-6.205633,12.379367,-1.611146,-0.649951,-0.139728,2.348179,-0.902588,-0.029053,-0.174072,0.079221,-0.034103,0.135880,0.999926,-0.003250,-0.000699,0.011741,0.378727,-0.331999,-0.520433,-0.689560
39495,NaN,16.820560,-7.818988,6.174038,-14.570493,4.299285,2.491423,-0.313008,0.239331,1.942628,-0.909668,-0.011963,-0.176514,0.169028,-0.076454,0.061659,0.999951,-0.001565,0.001197,0.009713,0.385511,-0.336808,-0.515650,-0.687057
39496,NaN,18.146195,-0.044564,-5.038020,-8.827603,-8.211892,4.654421,0.118977,0.238064,1.768661,-0.905762,0.003174,-0.183105,0.181396,0.001189,-0.050596,0.999960,0.000595,0.001190,0.008843,0.392184,-0.343240,-0.509589,-0.684614
39497,NaN,22.791400,-2.082440,-1.769019,-12.192938,-5.666781,8.791537,0.187436,0.064385,1.934976,-0.908691,0.020264,-0.177002,0.228095,-0.018602,-0.017782,0.999953,0.000937,0.000322,0.009675,0.399277,-0.347569,-0.506759,-0.680418
39498,NaN,34.946701,1.353409,3.295750,-13.403472,-3.768948,22.437191,0.755612,-0.016936,2.348023,-0.905273,0.045898,-0.179443,0.349274,0.017511,0.033048,0.999924,0.003778,-0.000085,0.011740,0.408569,-0.354678,-0.502623,-0.674273
39499,NaN,37.259309,7.477561,5.883706,-7.704454,-2.822941,27.755264,0.421080,0.096873,3.082552,-0.901855,0.071777,-0.179932,0.371411,0.080382,0.058822,0.999879,0.002105,0.000484,0.015412,0.419904,-0.361198,-0.498317,-0.667006
39500,NaN,37.375098,9.446471,7.432418,-4.412488,-1.827815,29.154073,0.142469,0.088386,3.571374,-0.898682,0.108154,-0.178223,0.372018,0.101065,0.074230,0.999840,0.000712,0.000442,0.017856,0.432418,-0.371829,-0.489655,-0.659543
39501,NaN,32.618449,10.950448,6.681639,-0.155005,-1.860984,25.186260,0.638678,-0.061024,3.384628,-0.897705,0.140381,-0.180908,0.324251,0.114789,0.067276,0.999852,0.003193,-0.000305,0.016922,0.444555,-0.378883,-0.485526,-0.650448
39502,NaN,25.784368,13.874119,5.475738,5.795310,-1.850362,19.346110,1.504875,-0.587796,2.903546,-0.885498,0.159424,-0.181152,0.255633,0.142042,0.056571,0.999862,0.007524,-0.002939,0.014517,0.455621,-0.386474,-0.484023,-0.639350
39503,NaN,19.484982,13.276808,6.036895,7.677831,0.457835,13.278230,1.767935,-0.731696,2.370520,-0.877441,0.176758,-0.179199,0.193037,0.134518,0.062261,0.999884,0.008839,-0.003658,0.011852,0.464794,-0.390481,-0.486703,-0.628181
39504,NaN,12.648084,12.218744,6.146898,8.860536,2.468346,6.386916,3.086761,-0.579339,2.411468,-0.873779,0.196045,-0.185791,0.124821,0.122727,0.063724,0.999804,0.015433,-0.002897,0.012057,0.477177,-0.392530,-0.491177,-0.613978
39505,NaN,11.819732,9.149075,6.120839,6.268491,3.200915,4.724302,2.901503,-0.028010,2.634042,-0.874268,0.208740,-0.194580,0.116978,0.092136,0.062558,0.999808,0.014507,-0.000140,0.013169,0.490799,-0.392090,-0.494885,-0.600393
39506,NaN,20.427034,0.222989,3.820930,-3.853703,-0.431173,10.604392,1.775099,0.407095,2.628348,-0.858154,0.243164,-0.203613,0.204298,0.004578,0.037827,0.999872,0.008875,0.002035,0.013141,0.503318,-0.394247,-0.492444,-0.590541
39507,NaN,25.578514,-3.959247,0.037914,-8.256044,-5.334617,14.130549,-0.367344,1.004714,2.450754,-0.854492,0.262451,-0.216797,0.256242,-0.036455,-0.000838,0.999911,-0.001837,0.005023,0.012253,0.512261,-0.398207,-0.483955,-0.587203
39508,NaN,28.560135,-5.590609,-3.705312,-9.569861,-9.901171,16.091187,-1.815140,1.325881,2.418954,-0.840332,0.285889,-0.223389,0.286001,-0.052793,-0.038460,0.999864,-0.009075,0.006629,0.012094,0.519109,-0.405861,-0.469024,-0.588064
39509,NaN,23.194049,-6.374474,-3.293302,-9.045691,-8.486325,11.057560,-3.130894,1.387498,3.076860,-0.828613,0.320312,-0.223877,0.232658,-0.060691,-0.033579,0.999735,-0.015653,0.006937,0.015383,0.524921,-0.417018,-0.449848,-0.590076
39510,NaN,17.549515,-1.196533,-4.600121,-2.771462,-8.819643,5.842477,-3.294309,1.639305,3.777333,-0.808594,0.363037,-0.232910,0.175305,-0.009425,-0.047270,0.999652,-0.016470,0.008196,0.018884,0.533014,-0.430109,-0.426859,-0.590503
39511,NaN,17.883739,-0.564122,0.052295,-1.274525,-4.780348,7.380670,-3.191159,1.785598,4.483206,-0.788574,0.408203,-0.239990,0.178899,-0.001639,-0.001027,0.999582,-0.015954,0.008927,0.022413,0.542977,-0.442731,-0.402860,-0.588956
39512,NaN,27.664026,-7.570930,-1.598027,-7.376166,-8.948316,16.464213,-2.437967,1.631903,5.681575,-0.755859,0.455078,-0.238281,0.278508,-0.068021,-0.017387,0.999489,-0.012188,0.008158,0.028403,0.557638,-0.456517,-0.377862,-0.581251
39513,NaN,34.319802,5.333301,1.303973,7.758270,-10.046166,22.536396,-2.336301,1.669961,6.017128,-0.720947,0.504395,-0.251709,0.341473,0.063750,0.009479,0.999444,-0.011679,0.008348,0.030080,0.572638,-0.469293,-0.352473,-0.572375
39514,NaN,35.368122,8.002209,2.393806,12.709420,-10.310722,22.627415,-1.907654,1.460311,6.175522,-0.685791,0.549316,-0.248047,0.351140,0.091099,0.020534,0.999451,-0.009537,0.007300,0.030872,0.588434,-0.481816,-0.327949,-0.560400
39515,NaN,37.420758,11.134989,2.366959,18.226557,-11.906189,22.673139,-1.283109,1.045902,6.736751,-0.640137,0.596436,-0.252686,0.370286,0.124008,0.020957,0.999399,-0.006414,0.005228,0.033677,0.605580,-0.493418,-0.304852,-0.544865
39516,NaN,34.667052,15.354012,1.556609,23.709832,-12.213848,17.169627,-0.501677,0.721880,6.980754,-0.598633,0.637207,-0.259521,0.341083,0.165548,0.013923,0.999381,-0.002508,0.003609,0.034897,0.624421,-0.503731,-0.284292,-0.524911
39517,NaN,30.277526,20.408212,1.609985,28.951787,-10.730914,9.730260,-0.058470,0.398750,6.908423,-0.552734,0.677734,-0.262207,0.295519,0.214379,0.015444,0.999401,-0.000292,0.001993,0.034535,0.642597,-0.512387,-0.265324,-0.504115
39518,NaN,26.109104,20.844164,1.363816,29.144050,-8.888550,3.943212,0.225934,0.101367,6.711531,-0.499756,0.707764,-0.268799,0.253910,0.217028,0.013750,0.999436,0.001129,0.000507,0.033551,0.660159,-0.520287,-0.249303,-0.480978
39519,NaN,23.342096,17.265670,1.604295,25.793852,-7.063279,1.590148,0.702354,-0.162463,6.463711,-0.453369,0.731201,-0.283936,0.227668,0.180019,0.016853,0.999471,0.003511,-0.000812,0.032313,0.676979,-0.526143,-0.234582,-0.458089
39520,NaN,21.311043,14.271621,2.487557,23.170534,-4.854502,0.354942,1.310411,-0.367528,6.144934,-0.411133,0.754639,-0.292480,0.208549,0.149002,0.026224,0.999505,0.006551,-0.001837,0.030720,0.693936,-0.529673,-0.224100,-0.433219
39521,NaN,20.590673,14.401997,2.638279,23.527738,-3.781978,-1.426691,1.622244,-0.448448,5.664236,-0.374756,0.760986,-0.311768,0.201661,0.149549,0.028036,0.999564,0.008110,-0.002242,0.028317,0.709696,-0.531133,-0.214070,-0.410370
39522,NaN,20.345584,15.544689,1.770499,24.648155,-3.577264,-3.628711,1.601341,-0.487973,5.033824,-0.336670,0.780273,-0.326904,0.199415,0.160349,0.019466,0.999648,0.008006,-0.002440,0.025166,0.723603,-0.531788,-0.207431,-0.388036
39523,NaN,19.391306,16.519005,1.085430,25.033943,-3.084511,-6.102592,1.234296,-0.517620,4.181057,-0.311035,0.791016,-0.326904,0.190374,0.169121,0.012386,0.999759,0.006171,-0.002588,0.020904,0.734287,-0.532537,-0.200530,-0.370155
39524,NaN,17.300743,15.508414,1.607407,23.122103,-1.431033,-7.429195,0.750924,-0.520125,3.221165,-0.287354,0.791016,-0.333252,0.170437,0.157780,0.017109,0.999860,0.003754,-0.002601,0.016105,0.741635,-0.533984,-0.197223,-0.354882
39525,NaN,12.890724,12.353551,1.642376,17.899262,-0.232156,-8.798955,0.256475,-0.465131,2.160894,-0.272217,0.788818,-0.333008,0.127524,0.124897,0.016881,0.999938,0.001282,-0.002326,0.010804,0.745652,-0.535959,-0.193619,-0.345346
39526,NaN,6.761814,9.508813,-0.607652,11.462883,-0.801006,-11.926560,-0.078719,-0.312627,1.011991,-0.265869,0.791016,-0.330811,0.067145,0.095426,-0.006009,0.999986,-0.000394,-0.001563,0.005060,0.746833,-0.537783,-0.194002,-0.339695
39527,NaN,-0.478774,7.814737,-1.190528,5.183250,0.510093,-15.778451,-0.166056,-0.076966,-0.368685,-0.270264,0.788818,-0.333008,-0.004639,0.078146,-0.011972,0.999998,-0.000830,-0.000385,-0.001843,0.745686,-0.538177,-0.194996,-0.341019
39528,NaN,-6.574601,6.483158,-3.562037,-0.068173,-0.189830,-19.707245,-0.573524,0.065333,-1.756598,-0.287109,0.780273,-0.322266,-0.065185,0.065303,-0.035786,0.999957,-0.002868,0.000327,-0.008783,0.741138,-0.538428,-0.200447,-0.347320
39529,NaN,-9.081089,5.840603,-4.438504,-2.103629,-0.433910,-21.286979,-1.293555,0.197550,-2.957648,-0.312988,0.778076,-0.311768,-0.089981,0.059452,-0.044678,0.999869,-0.006467,0.000988,-0.014788,0.732622,-0.539846,-0.205402,-0.360057
39530,NaN,-5.981972,2.996458,-5.143730,-2.016515,-2.569640,-17.593949,-1.814774,0.258413,-4.211883,-0.342773,0.767334,-0.298828,-0.059244,0.030748,-0.051637,0.999736,-0.009073,0.001292,-0.021058,0.720208,-0.541468,-0.214246,-0.377108
39531,NaN,-3.016616,0.091099,-6.076463,-2.401138,-4.763785,-14.004628,-1.690853,0.231242,-4.998944,-0.376465,0.750244,-0.288086,-0.030210,0.001152,-0.060739,0.999651,-0.008453,0.001156,-0.024992,0.706205,-0.541579,-0.223682,-0.397407
39532,NaN,-3.248627,0.569693,-6.223744,-2.077784,-4.785242,-14.545150,-1.090812,0.263768,-5.743852,-0.423340,0.733154,-0.285889,-0.032393,0.006289,-0.062228,0.999572,-0.005453,0.001319,-0.028715,0.691884,-0.538117,-0.237689,-0.418605
39533,NaN,-3.225434,1.038484,-6.184143,-1.529354,-4.719603,-14.823597,-0.527643,0.300140,-6.394997,-0.467285,0.701172,-0.281250,-0.031997,0.011248,-0.061822,0.999484,-0.002638,0.001500,-0.031969,0.677084,-0.531441,-0.252626,-0.441938
39534,NaN,-1.908598,1.785380,-5.960652,-0.031331,-4.930786,-14.060489,-0.086414,0.343568,-6.963684,-0.515869,0.671387,-0.289795,-0.018552,0.018480,-0.059582,0.999392,-0.000432,0.001717,-0.034811,0.661618,-0.521667,-0.271219,-0.465366
39535,NaN,3.049147,2.118795,-5.374137,2.427310,-6.063302,-9.728068,0.083752,0.595721,-7.351378,-0.555420,0.635010,-0.291504,0.031083,0.020075,-0.053825,0.999320,0.000419,0.002978,-0.036749,0.645095,-0.509685,-0.288429,-0.490798
39536,NaN,2.362473,3.065587,-4.128416,3.118894,-4.714752,-10.058149,0.359683,0.345109,-7.622102,-0.601074,0.585693,-0.293213,0.024700,0.029802,-0.041272,0.999271,0.001798,0.001725,-0.038101,0.627557,-0.496038,-0.309023,-0.514415
39537,NaN,4.369804,4.364123,-3.706993,4.806334,-5.114177,-8.197531,0.233909,0.331727,-7.800341,-0.640381,0.542969,-0.299072,0.045295,0.041938,-0.037094,0.999237,0.001169,0.001658,-0.038992,0.608115,-0.482027,-0.327689,-0.538949
39538,NaN,5.647135,4.741862,-2.806005,5.243196,-4.803304,-6.398414,0.109110,0.289505,-8.096530,-0.681396,0.485107,-0.300537,0.058288,0.045098,-0.028119,0.999179,0.000545,0.001447,-0.040472,0.586853,-0.466851,-0.347981,-0.562639
39539,NaN,8.008396,4.471309,-1.853252,4.876763,-4.781895,-3.420145,-0.013463,0.274390,-8.263790,-0.722412,0.427490,-0.302002,0.081814,0.041355,-0.018647,0.999146,-0.000067,0.001372,-0.041307,0.563559,-0.451350,-0.366125,-0.587058
39540,NaN,9.478734,3.540827,-1.546182,3.348530,-4.921966,-1.489453,-0.006070,0.219306,-8.388127,-0.754639,0.365234,-0.299072,0.096143,0.031394,-0.015568,0.999120,-0.000030,0.001096,-0.041928,0.539246,-0.434418,-0.385753,-0.609663
39541,NaN,10.464946,2.218498,-1.286121,1.181310,-4.829424,-0.257375,0.111857,0.187899,-8.469057,-0.786621,0.299072,-0.304688,0.105451,0.017737,-0.012949,0.999103,0.000559,0.000939,-0.042333,0.513562,-0.416828,-0.403630,-0.632132
39542,NaN,11.461986,-1.408786,2.300912,-3.058263,-1.134254,1.498005,0.657727,0.296271,-8.602137,-0.805908,0.232666,-0.303955,0.113905,-0.019073,0.022783,0.999069,0.003288,0.001481,-0.042997,0.488391,-0.395768,-0.424132,-0.651885
39543,NaN,12.365385,-6.299472,2.297435,-8.940813,-0.412088,1.033454,0.693507,0.404693,-8.460021,-0.824951,0.161865,-0.311523,0.120887,-0.068227,0.022497,0.999097,0.003466,0.002023,-0.042287,0.462616,-0.374468,-0.441756,-0.671276
39544,NaN,12.984678,-8.204107,1.738387,-11.847180,-0.517304,0.095551,0.601004,0.413026,-8.219915,-0.839844,0.095459,-0.312744,0.126364,-0.087334,0.016863,0.999149,0.003004,0.002065,-0.041088,0.437252,-0.352528,-0.459228,-0.688218
39545,NaN,12.682607,-12.440374,1.278566,-16.374486,0.275570,-2.822010,0.806022,0.531531,-8.131657,-0.856689,0.022705,-0.318115,0.121662,-0.129471,0.011943,0.999162,0.004029,0.002657,-0.040647,0.411555,-0.329980,-0.474783,-0.704498
39546,NaN,13.659971,-15.767281,1.459947,-20.234711,1.152231,-4.679613,1.183562,0.450213,-7.555318,-0.858643,-0.048096,-0.314941,0.130545,-0.162763,0.013348,0.999267,0.005916,0.002251,-0.037767,0.388291,-0.307216,-0.491243,-0.716609
39547,NaN,15.043582,-17.679125,0.324104,-22.955553,0.387523,-6.404044,1.719135,0.464748,-7.112065,-0.857910,-0.129395,-0.320312,0.144029,-0.182007,0.001352,0.999328,0.008594,0.002323,-0.035552,0.366336,-0.284548,-0.507091,-0.726422
39548,NaN,18.771947,-18.425466,-2.082339,-26.031687,-2.544542,-6.374169,2.130120,0.551686,-6.707394,-0.851074,-0.202393,-0.312744,0.181345,-0.190169,-0.023334,0.999377,0.010648,0.002758,-0.033530,0.346838,-0.261146,-0.523814,-0.732888
39549,NaN,24.009413,-21.947762,-3.791884,-32.301068,-4.565921,-6.988506,2.054930,0.415634,-6.227638,-0.833740,-0.264648,-0.307373,0.233033,-0.226399,-0.040711,0.999460,0.010273,0.002078,-0.031133,0.327607,-0.239617,-0.538470,-0.738449
39550,NaN,29.964711,-28.826907,-4.530713,-41.508954,-5.085934,-9.573778,1.376404,0.127534,-5.803272,-0.816162,-0.337646,-0.297607,0.291093,-0.296477,-0.047516,0.999555,0.006881,0.000638,-0.029012,0.308831,-0.221147,-0.550622,-0.743325
39551,NaN,28.954662,-40.469567,-4.357374,-48.734083,-1.943095,-20.573932,0.813684,-0.260498,-5.217209,-0.790771,-0.386963,-0.288086,0.278922,-0.411884,-0.044872,0.999651,0.004068,-0.001302,-0.026083,0.289520,-0.206425,-0.559624,-0.748590
39552,NaN,23.224888,-46.181586,-3.959118,-47.608829,1.098205,-30.297480,0.776521,-0.509813,-4.141875,-0.774414,-0.425537,-0.272461,0.222725,-0.466337,-0.040820,0.999775,0.003882,-0.002549,-0.020708,0.274295,-0.196060,-0.567734,-0.751000
39553,NaN,20.949201,-45.791918,-5.815010,-44.816481,-0.248379,-33.494582,1.414348,-0.654365,-2.803679,-0.760742,-0.451416,-0.254883,0.203245,-0.460374,-0.060728,0.999871,0.007071,-0.003272,-0.014018,0.263264,-0.188600,-0.576617,-0.750090
39554,NaN,15.006275,-46.709676,-7.818451,-40.127355,-1.451631,-39.064877,2.233230,-0.916872,-1.620396,-0.749756,-0.464355,-0.226807,0.146649,-0.467387,-0.082725,0.999894,0.011166,-0.004584,-0.008102,0.257647,-0.185420,-0.587676,-0.744227
39555,NaN,9.246265,-45.276546,-7.069838,-34.348532,-1.011620,-41.506031,2.952732,-1.187412,-0.182796,-0.751465,-0.477295,-0.198730,0.092493,-0.451746,-0.076824,0.999873,0.014763,-0.005937,-0.000914,0.256185,-0.185480,-0.600288,-0.734589
39556,NaN,9.010749,-38.065462,-4.596808,-30.034586,-0.895005,-35.274145,3.368726,-1.182288,1.136341,-0.756104,-0.470947,-0.168945,0.092560,-0.379293,-0.051822,0.999825,0.016843,-0.005911,0.005681,0.260991,-0.190190,-0.612831,-0.721214
39557,NaN,9.790508,-31.790319,-1.862762,-27.208426,-0.195608,-29.034713,3.390639,-1.074811,2.126549,-0.765381,-0.453857,-0.143555,0.101393,-0.316467,-0.023462,0.999785,0.016952,-0.005374,0.010632,0.268536,-0.196123,-0.624306,-0.706871
39558,NaN,21.893918,-30.848962,0.421291,-36.504412,-0.581642,-19.719304,3.023642,-1.295370,2.823711,-0.772217,-0.440918,-0.107178,0.223252,-0.305389,0.001017,0.999765,0.015117,-0.006476,0.014117,0.278505,-0.206848,-0.633466,-0.691643
39559,NaN,21.626937,-91.413807,-33.783256,-74.240352,-32.537242,-68.074065,0.759814,-2.693710,2.345044,-0.781738,-0.421631,-0.083984,0.231511,-0.910198,-0.338246,0.999833,0.003799,-0.013468,0.011725,0.278825,-0.222505,-0.637313,-0.683067
39560,NaN,68.394443,-71.867216,-17.904302,-98.523271,-19.888763,-17.394071,-5.088070,-2.054295,4.159602,-0.800293,-0.383057,-0.097412,0.700416,-0.708344,-0.153794,0.999407,-0.025435,-0.010269,0.020794,0.282145,-0.251355,-0.617548,-0.689819
39561,NaN,20.089517,47.904051,51.770837,20.465851,45.386545,44.029555,-3.628438,-1.589554,1.834386,-0.804932,-0.372314,-0.091309,0.192357,0.490136,0.510434,0.999762,-0.018141,-0.007947,0.009171,0.278939,-0.267567,-0.604823,-0.696269
39562,NaN,12.731103,-7.100546,59.209648,-11.307376,58.613469,2.619594,-2.137664,0.417161,4.819346,-0.821777,-0.318604,-0.107178,0.130106,-0.061561,0.592519,0.999650,-0.010687,0.002086,0.024094,0.295186,-0.285660,-0.589355,-0.695647
39563,NaN,40.487758,-19.487415,23.531351,-39.676016,22.597848,12.261295,-0.794625,0.448952,5.654986,-0.838135,-0.280029,-0.109863,0.410681,-0.182381,0.235137,0.999590,-0.003973,0.002244,0.028271,0.314923,-0.301824,-0.577610,-0.689995
39564,NaN,-3.718480,-11.012396,7.884382,-6.094644,9.638129,-18.010618,-0.543038,0.240942,4.024125,-0.843750,-0.243652,-0.110596,-0.034867,-0.110626,0.079187,0.999793,-0.002715,0.001205,0.020119,0.329047,-0.316036,-0.567220,-0.685646
39565,NaN,2.722242,-0.705220,0.442228,-2.090984,0.270578,-7.900455,-1.604348,0.489723,4.414205,-0.855957,-0.200684,-0.126221,0.027379,-0.006414,0.004409,0.999721,-0.008021,0.002448,0.022069,0.342944,-0.329435,-0.553780,-0.683512
39566,NaN,16.116857,-12.020871,-7.738124,-19.272359,-7.470563,-3.741299,-1.268303,1.030134,3.991094,-0.852539,-0.172852,-0.128906,0.163132,-0.117457,-0.077467,0.999768,-0.006341,0.005150,0.019954,0.357556,-0.341407,-0.539012,-0.681954
39567,NaN,11.475021,-6.079732,-9.474128,-11.673290,-9.756930,-4.624778,0.614256,0.604426,3.497469,-0.866699,-0.140625,-0.131592,0.115499,-0.058490,-0.095272,0.999838,0.003071,0.003022,0.017486,0.372105,-0.347627,-0.533965,-0.674962
39568,NaN,8.642490,-4.100032,3.180283,-7.396484,2.588687,-3.472250,0.256557,0.050584,3.024696,-0.867432,-0.119141,-0.134033,0.087040,-0.039728,0.031729,0.999885,0.001283,0.000253,0.015123,0.383297,-0.357085,-0.527715,-0.668648
39569,NaN,9.685280,-6.920434,11.817351,-9.561600,11.281080,-1.897516,-0.380253,-0.190016,2.655117,-0.870117,-0.097900,-0.136475,0.097646,-0.067687,0.118396,0.999910,-0.001901,-0.000950,0.013275,0.390963,-0.365431,-0.522017,-0.664158
39570,NaN,15.028177,-6.714271,3.808322,-11.995852,2.645900,1.785501,-0.128725,0.070258,2.235668,-0.868896,-0.076416,-0.130371,0.151033,-0.065433,0.038073,0.999937,-0.000644,0.000351,0.011178,0.398644,-0.373210,-0.515548,-0.660308
39571,NaN,19.778034,-1.195286,-2.923772,-9.141608,-5.509824,7.134540,0.245029,-0.036939,1.885667,-0.873535,-0.065674,-0.126221,0.197886,-0.010052,-0.029214,0.999955,0.001225,-0.000185,0.009428,0.405219,-0.377697,-0.512885,-0.655814
39572,NaN,25.232531,-4.025578,-1.570600,-13.272108,-4.616317,11.585210,0.585085,-0.093531,2.039243,-0.876465,-0.044189,-0.128662,0.252725,-0.037634,-0.015701,0.999944,0.002925,-0.000468,0.010196,0.413112,-0.383813,-0.509445,-0.649993
39573,NaN,33.873862,1.747485,1.527829,-10.197094,-3.733038,22.356444,0.974016,-0.022381,2.484504,-0.879395,-0.020508,-0.126953,0.338486,0.021606,0.015415,0.999911,0.004870,-0.000112,0.012422,0.422967,-0.388178,-0.507840,-0.642274
39574,NaN,36.479321,4.795579,3.367376,-7.017212,-2.794985,26.352456,0.998596,0.045983,3.167647,-0.884766,0.007324,-0.123047,0.363982,0.053556,0.033848,0.999862,0.004993,0.000230,0.015838,0.435568,-0.395529,-0.503207,-0.632946
39575,NaN,37.593334,7.632027,5.300980,-3.375895,-1.483839,28.734439,0.911529,0.212430,3.354829,-0.874756,0.032959,-0.132080,0.374642,0.082370,0.052978,0.999848,0.004557,0.001062,0.016773,0.448461,-0.401262,-0.498913,-0.623664
39576,NaN,31.461950,12.559738,3.571180,4.158513,-2.665029,23.890119,1.511692,-0.198498,2.932433,-0.875488,0.054443,-0.127930,0.312699,0.129915,0.036994,0.999863,0.007558,-0.000992,0.014661,0.460528,-0.407187,-0.496715,-0.612688
39577,NaN,27.017747,12.684316,4.816936,6.158831,-0.433445,19.782875,1.931801,-0.486980,2.081206,-0.876221,0.071533,-0.126221,0.268721,0.129167,0.050065,0.999896,0.009659,-0.002435,0.010406,0.469585,-0.409368,-0.499461,-0.602036
39578,NaN,16.916893,13.878206,5.042595,10.020555,1.735088,10.206361,3.123624,-0.465334,1.739830,-0.874512,0.086426,-0.124268,0.167837,0.139432,0.052992,0.999837,0.015617,-0.002327,0.008699,0.480416,-0.408919,-0.505097,-0.588951
39579,NaN,12.436536,16.951515,5.264270,14.078674,3.169251,6.356319,3.812541,-0.054228,1.838089,-0.875244,0.105713,-0.126709,0.122792,0.169603,0.055909,0.999776,0.019061,-0.000271,0.009190,0.493384,-0.404482,-0.512577,-0.574658
39580,NaN,11.170671,11.439895,5.682041,8.965494,4.216075,3.963132,3.506849,0.527757,1.723871,-0.871094,0.112305,-0.139648,0.110874,0.114341,0.058532,0.999806,0.017533,0.002639,0.008619,0.507054,-0.399634,-0.516683,-0.562341
39581,NaN,22.371040,-8.679342,2.154857,-12.243167,-1.991158,10.840513,1.965469,0.833283,1.756775,-0.871582,0.125244,-0.144043,0.224547,-0.085024,0.019773,0.999904,0.009827,0.004166,0.008784,0.518031,-0.396819,-0.516531,-0.554413
39582,NaN,29.137017,-10.971132,-3.819517,-14.427281,-9.487244,16.373693,-0.095041,1.285657,1.935763,-0.870117,0.144531,-0.148682,0.292161,-0.106905,-0.040020,0.999932,-0.000475,0.006428,0.009679,0.526824,-0.399364,-0.508021,-0.552158
39583,NaN,25.310661,-11.966028,-4.110061,-14.358240,-9.448354,12.665001,-1.204028,1.408472,2.288088,-0.860107,0.172363,-0.161865,0.254161,-0.117008,-0.042178,0.999892,-0.006020,0.007042,0.011440,0.534263,-0.404427,-0.496358,-0.551933
39584,NaN,19.219747,-4.986856,-5.574742,-6.188531,-9.503251,7.412775,-2.476903,1.858737,2.870053,-0.848389,0.202393,-0.172852,0.192368,-0.047809,-0.056934,0.999777,-0.012384,0.009293,0.014349,0.542068,-0.413800,-0.477755,-0.553788
39585,NaN,13.725692,1.042612,-8.169940,0.718350,-10.871898,1.913299,-2.503520,1.925277,3.517621,-0.836426,0.234375,-0.177734,0.136262,0.011794,-0.083156,0.999721,-0.012516,0.009625,0.017586,0.551081,-0.423552,-0.458189,-0.554054
39586,NaN,14.160994,-7.282494,-4.075954,-7.327117,-7.367641,2.922551,-2.076252,1.474856,4.185532,-0.831299,0.272949,-0.184570,0.142796,-0.070270,-0.041071,0.999700,-0.010380,0.007374,0.020926,0.561907,-0.435394,-0.438732,-0.549733
39587,NaN,21.472389,-10.685827,-4.704815,-9.827509,-9.935428,10.236420,-0.805669,1.111504,5.329527,-0.802979,0.320068,-0.189453,0.217208,-0.101283,-0.047835,0.999621,-0.004028,0.005557,0.026644,0.577032,-0.446138,-0.421622,-0.538730
39588,NaN,23.661368,3.187650,-2.431800,5.388519,-8.175494,12.094302,-0.791945,1.015704,5.459813,-0.784912,0.360840,-0.189941,0.235500,0.038216,-0.025659,0.999607,-0.003959,0.005078,0.027295,0.592310,-0.457725,-0.403703,-0.526004
39589,NaN,26.142536,6.474767,-0.520184,10.245371,-7.043160,14.080216,-0.803608,1.038986,5.346248,-0.754150,0.407959,-0.199219,0.259538,0.071678,-0.006832,0.999621,-0.004018,0.005194,0.026728,0.606409,-0.467999,-0.386120,-0.513962
39590,NaN,32.083568,9.044404,0.907096,15.378243,-7.291185,18.858259,-0.817107,1.034527,5.590056,-0.720947,0.442139,-0.199463,0.318181,0.099394,0.007026,0.999588,-0.004085,0.005172,0.027946,0.620979,-0.478996,-0.367384,-0.499977
39591,NaN,34.168597,9.928010,1.753959,18.508535,-7.136816,19.771420,-0.304047,0.956742,6.192745,-0.696533,0.482910,-0.199951,0.338472,0.109820,0.015754,0.999508,-0.001520,0.004783,0.030959,0.637187,-0.488697,-0.348637,-0.483343
39592,NaN,32.884125,14.951086,1.539327,24.782842,-6.611663,15.660838,0.054106,0.759782,6.530463,-0.650635,0.521240,-0.202393,0.323783,0.160136,0.014199,0.999460,0.000270,0.003798,0.032646,0.654364,-0.498244,-0.330257,-0.463132
39593,NaN,29.618160,19.596437,1.377554,29.485251,-5.221524,9.319690,0.230080,0.545617,6.635507,-0.613281,0.564209,-0.200684,0.289502,0.205629,0.013212,0.999445,0.001150,0.002728,0.033171,0.670843,-0.506916,-0.312287,-0.442134
39594,NaN,26.445356,21.699804,2.454293,31.246472,-2.595524,4.071479,0.060936,0.374950,6.524241,-0.575928,0.598389,-0.200928,0.257235,0.225461,0.024124,0.999466,0.000305,0.001874,0.032615,0.685817,-0.516084,-0.294896,-0.419940
39595,NaN,24.428441,19.188458,3.455619,28.933818,-0.886129,1.960599,0.113156,0.178735,6.385881,-0.527344,0.625977,-0.192627,0.238025,0.199533,0.034453,0.999490,0.000566,0.000894,0.031924,0.699433,-0.524480,-0.277887,-0.398112
39596,NaN,23.283405,16.565195,4.073159,26.795702,0.214868,0.901978,0.269547,0.119176,6.143612,-0.489746,0.653809,-0.184326,0.227626,0.172643,0.040824,0.999527,0.001348,0.000596,0.030713,0.712253,-0.531748,-0.262509,-0.375538
39597,NaN,22.575437,14.307679,4.435193,25.128277,0.864970,0.269951,0.438051,0.101789,5.760997,-0.447266,0.670898,-0.186523,0.221534,0.149402,0.044561,0.999583,0.002190,0.000509,0.028801,0.724074,-0.537343,-0.247537,-0.354549
39598,NaN,21.815987,13.269695,3.972904,24.294227,0.922507,-1.060491,0.446427,0.090504,5.223489,-0.405029,0.692139,-0.184326,0.214615,0.138244,0.039936,0.999656,0.002232,0.000452,0.026114,0.734354,-0.541926,-0.234837,-0.334502
39599,NaN,20.159631,13.829996,2.754892,23.909197,0.628894,-4.057262,0.219159,0.090923,4.480194,-0.366699,0.702881,-0.177979,0.198444,0.142739,0.027613,0.999748,0.001096,0.000455,0.022399,0.742366,-0.546100,-0.222665,-0.317943
39600,NaN,17.462797,13.402677,2.483599,21.876096,1.220137,-6.550336,-0.176791,0.048158,3.643545,-0.341309,0.717773,-0.171631,0.172154,0.137200,0.024674,0.999834,-0.000884,0.000241,0.018217,0.747501,-0.550663,-0.213351,-0.304129
39601,NaN,15.334573,12.133665,3.911126,19.560326,2.939829,-7.283247,-0.478074,0.029306,2.701837,-0.322021,0.715576,-0.158691,0.151693,0.123486,0.038795,0.999906,-0.002390,0.000147,0.013509,0.750257,-0.555242,-0.205049,-0.294578
39602,NaN,11.709789,10.755939,-0.445396,15.884902,-0.668991,-10.285748,-0.996357,0.124185,1.568886,-0.309326,0.726318,-0.147949,0.116246,0.108449,-0.005065,0.999957,-0.004982,0.000621,0.007844,0.749760,-0.560334,-0.199974,-0.289648
39603,NaN,4.964722,8.403766,-2.552079,9.186042,-1.811734,-13.570096,-1.046741,0.255918,0.402464,-0.300781,0.726318,-0.137207,0.049445,0.084002,-0.026024,0.999983,-0.005234,0.001280,0.002012,0.747656,-0.564287,-0.196362,-0.289883
39604,NaN,-1.400029,5.829153,-3.388692,2.670226,-1.837480,-15.888509,-0.812667,0.384019,-0.879004,-0.311279,0.717529,-0.122070,-0.013810,0.058214,-0.034097,0.999980,-0.004063,0.001920,-0.004395,0.744310,-0.565814,-0.197499,-0.294705
39605,NaN,-9.342934,5.292967,-4.691929,-3.582490,-1.505912,-20.867785,-0.982132,0.403570,-2.196863,-0.328613,0.717529,-0.105225,-0.092937,0.053722,-0.046994,0.999926,-0.004911,0.002018,-0.010984,0.738641,-0.566669,-0.200744,-0.304956
39606,NaN,-10.185732,5.059711,-4.561976,-4.106236,-1.268063,-21.288099,-1.942738,0.593250,-3.365423,-0.355957,0.702637,-0.092285,-0.101127,0.051859,-0.045819,0.999807,-0.009713,0.002966,-0.016826,0.728343,-0.569358,-0.206266,-0.320628
39607,NaN,-6.257794,0.996471,-7.005425,-4.147743,-5.119217,-16.581543,-2.244302,0.693848,-4.523030,-0.381348,0.685547,-0.068359,-0.062586,0.010595,-0.069954,0.999675,-0.011220,0.003469,-0.022613,0.715187,-0.571576,-0.212943,-0.341269
39608,NaN,-5.213602,-0.390161,-8.984330,-4.538636,-7.396604,-15.534675,-1.699166,0.650021,-5.314321,-0.423584,0.661865,-0.053223,-0.052520,-0.003272,-0.089643,0.999606,-0.008495,0.003250,-0.026568,0.701599,-0.570556,-0.223903,-0.363446
39609,NaN,-6.444339,1.259695,-9.518627,-3.962346,-7.403128,-17.762932,-1.055834,0.577498,-6.249114,-0.467773,0.634277,-0.046631,-0.064293,0.014105,-0.095072,0.999494,-0.005278,0.002887,-0.031240,0.687528,-0.565933,-0.237665,-0.387995
39610,NaN,-0.955055,1.989290,-8.946107,0.058546,-8.256879,-13.902011,-0.886665,1.063465,-7.019479,-0.507568,0.597900,-0.044189,-0.009330,0.019826,-0.089499,0.999360,-0.004432,0.005316,-0.035090,0.672207,-0.558110,-0.253074,-0.415457
39611,NaN,-2.270428,2.443934,-8.468921,-0.095630,-7.439770,-15.055603,-0.365434,0.876403,-7.691117,-0.553223,0.554932,-0.039551,-0.022117,0.025143,-0.084637,0.999249,-0.001827,0.004381,-0.038446,0.655824,-0.547377,-0.270631,-0.443883
39612,NaN,2.995462,2.158645,-6.628572,2.330840,-7.219668,-9.901931,-0.108699,0.981675,-8.003102,-0.596680,0.503662,-0.034668,0.030459,0.020338,-0.066446,0.999187,-0.000543,0.004907,-0.040005,0.638610,-0.534135,-0.289969,-0.472012
39613,NaN,3.721587,2.463657,-5.914818,2.780677,-6.817757,-8.987272,0.078154,0.827220,-8.222558,-0.629639,0.458740,-0.034180,0.037942,0.023109,-0.059295,0.999146,0.000391,0.004135,-0.041101,0.620078,-0.519569,-0.309213,-0.499939
39614,NaN,5.032237,2.558374,-4.544405,3.184753,-5.958050,-7.193081,0.289246,0.653798,-8.417412,-0.661865,0.398682,-0.031250,0.051192,0.023507,-0.045575,0.999108,0.001446,0.003268,-0.042075,0.600370,-0.503342,-0.330646,-0.526190
39615,NaN,6.613449,2.883303,-3.361544,3.593243,-5.378066,-5.177387,0.469160,0.501167,-8.623962,-0.694092,0.336670,-0.032715,0.067213,0.026029,-0.033720,0.999065,0.002345,0.002505,-0.043106,0.579141,-0.485901,-0.351759,-0.552052
39616,NaN,8.778134,2.543646,-1.508201,3.196840,-4.243696,-2.228513,0.668637,0.367468,-8.766107,-0.720215,0.278809,-0.025635,0.088757,0.021610,-0.015168,0.999032,0.003342,0.001837,-0.043816,0.556848,-0.466753,-0.374638,-0.575941
39617,NaN,10.034804,1.295511,-1.218305,1.262041,-4.191264,-0.612965,0.868444,0.251586,-8.874533,-0.743652,0.212402,-0.022461,0.100777,0.008542,-0.012266,0.999005,0.004341,0.001258,-0.044358,0.533250,-0.446540,-0.396765,-0.599019
39618,NaN,10.139912,-1.327671,-0.277661,-2.126931,-2.925631,-0.246857,1.449730,0.011778,-8.958629,-0.754150,0.143799,-0.019531,0.100670,-0.017777,-0.002901,0.998971,0.007246,0.000059,-0.044778,0.509381,-0.424012,-0.421752,-0.618765
39619,NaN,11.421581,-4.301408,3.726954,-5.801023,1.059635,1.499055,2.274213,-0.099915,-8.920251,-0.765137,0.083984,-0.010010,0.112116,-0.048467,0.036795,0.998941,0.011367,-0.000499,-0.044586,0.485869,-0.399289,-0.447494,-0.635805
39620,NaN,12.550458,-4.974497,2.865288,-7.774762,0.204797,1.582784,1.901362,-0.278294,-8.622752,-0.767334,0.023926,-0.004883,0.123158,-0.055360,0.028317,0.999025,0.009504,-0.001391,-0.043100,0.461442,-0.375455,-0.471910,-0.650696
39621,NaN,13.978208,-6.941534,3.918700,-11.005231,1.315252,1.846051,1.984873,-0.180261,-8.387911,-0.769287,-0.040527,-0.001709,0.136663,-0.075577,0.038581,0.999071,0.009921,-0.000901,-0.041927,0.437038,-0.351341,-0.494081,-0.664410
39622,NaN,15.204022,-8.193590,3.669950,-13.595916,1.147042,1.386227,1.738267,-0.195199,-8.267806,-0.765381,-0.096191,0.009766,0.148438,-0.088439,0.036096,0.999107,0.008689,-0.000976,-0.041327,0.412067,-0.327086,-0.515081,-0.676688
39623,NaN,18.869350,-9.015529,4.153672,-16.932687,1.161651,3.081951,1.334209,-0.198927,-7.985954,-0.763428,-0.147705,0.014893,0.184847,-0.097864,0.041086,0.999180,0.006669,-0.000994,-0.039919,0.386392,-0.304194,-0.532636,-0.688815
39624,NaN,22.677867,-11.071180,4.540037,-21.674492,1.293586,3.814372,0.886149,0.043042,-7.551519,-0.757568,-0.199219,0.026367,0.222390,-0.119365,0.044836,0.999277,0.004430,0.000215,-0.037748,0.361918,-0.281758,-0.547225,-0.700124
39625,NaN,25.552873,-17.241320,4.919733,-29.237316,2.231316,0.874815,0.869774,0.331798,-6.927144,-0.745117,-0.244141,0.022705,0.249431,-0.181335,0.048004,0.999389,0.004348,0.001659,-0.034629,0.339592,-0.259915,-0.559089,-0.710311
39626,NaN,28.265992,-26.617518,2.006216,-38.661735,0.408592,-5.801754,1.062261,0.478144,-6.188460,-0.743896,-0.282715,0.031982,0.274289,-0.274849,0.017955,0.999504,0.005310,0.002390,-0.030937,0.320569,-0.238969,-0.570124,-0.717696
39627,NaN,35.123245,-38.077812,-4.329108,-51.632392,-5.231044,-12.702703,1.283308,0.137426,-5.493898,-0.736328,-0.314941,0.038818,0.340573,-0.389942,-0.046010,0.999602,0.006416,0.000687,-0.027466,0.302661,-0.220679,-0.580842,-0.722716
39628,NaN,31.584420,-46.200505,-7.201796,-54.248290,-5.962948,-24.126044,0.478006,-0.328083,-4.947685,-0.724121,-0.351318,0.041748,0.304410,-0.469457,-0.072628,0.999690,0.002390,-0.001640,-0.024736,0.284842,-0.207048,-0.588479,-0.727797
39629,NaN,25.322777,-43.095066,-4.593141,-46.938023,-2.323298,-27.437389,0.215537,-0.477739,-3.960961,-0.721436,-0.372803,0.050537,0.244738,-0.435804,-0.045808,0.999800,0.001078,-0.002389,-0.019803,0.269197,-0.196799,-0.593925,-0.732159
39630,NaN,17.812883,-41.160118,-5.818641,-39.259179,-2.377483,-32.134161,0.671590,-0.549160,-2.821864,-0.720703,-0.390137,0.063721,0.172461,-0.413864,-0.059095,0.999891,0.003358,-0.002746,-0.014109,0.258649,-0.190220,-0.599844,-0.732874
39631,NaN,10.095973,-43.333305,-8.301182,-33.872322,-3.520188,-39.626164,1.459726,-0.826547,-1.265967,-0.722900,-0.394287,0.070068,0.098567,-0.433343,-0.085764,0.999945,0.007298,-0.004133,-0.006330,0.252912,-0.187569,-0.607430,-0.729302
39632,NaN,9.569080,-45.360760,-8.839185,-34.545325,-4.465886,-41.654305,2.296402,-1.026948,0.386471,-0.731934,-0.385742,0.102051,0.097036,-0.452370,-0.093095,0.999919,0.011482,-0.005135,0.001932,0.254249,-0.190502,-0.616612,-0.720317
39633,NaN,10.237742,-40.177766,-5.723364,-32.257088,-3.162261,-36.291880,3.027564,-1.026051,1.609351,-0.750000,-0.362305,0.125244,0.105914,-0.400013,-0.062761,0.999840,0.015137,-0.005130,0.008046,0.259731,-0.195295,-0.627185,-0.707841
39634,NaN,11.170852,-30.705582,-3.105845,-27.691424,-2.586285,-27.237487,3.395620,-0.876361,2.502764,-0.761475,-0.338623,0.144043,0.115684,-0.305044,-0.035748,0.999768,0.016977,-0.004381,0.012513,0.270143,-0.202865,-0.637581,-0.692358
39635,NaN,10.837281,-23.616704,-0.054811,-23.456927,-0.733243,-20.963222,3.335849,-0.773981,3.195467,-0.777832,-0.304443,0.167236,0.112138,-0.234347,-0.004038,0.999726,0.016678,-0.003870,0.015976,0.282053,-0.211185,-0.646755,-0.676428
39636,NaN,17.152981,-18.359705,2.037790,-25.123142,0.002603,-11.862690,2.941580,-0.779637,3.790853,-0.798584,-0.270264,0.192139,0.174898,-0.180583,0.018384,0.999705,0.014706,-0.003898,0.018952,0.296491,-0.223018,-0.653327,-0.659939
39637,NaN,22.367641,-75.169322,-37.580257,-64.854410,-41.938668,-49.777200,0.762941,-2.714959,2.851858,-0.799316,-0.246582,0.213379,0.239449,-0.746921,-0.375479,0.999799,0.003814,-0.013574,0.014258,0.297831,-0.240133,-0.656554,-0.650053
39638,NaN,57.608078,-47.097308,-23.944781,-72.659919,-27.647237,-1.813405,-6.927312,-2.498593,3.950685,-0.808594,-0.229492,0.228027,0.588132,-0.467184,-0.215921,0.999127,-0.034626,-0.012489,0.019748,0.295295,-0.272553,-0.632329,-0.662327
39639,NaN,27.976543,60.864147,50.158203,26.666638,46.358410,54.544356,-3.318929,-1.143355,2.053948,-0.813721,-0.210205,0.231934,0.270604,0.619680,0.492924,0.999793,-0.016593,-0.005716,0.010269,0.293905,-0.287694,-0.620092,-0.668085
39640,NaN,21.305718,-15.565789,62.117406,-23.729495,62.132442,1.598751,-3.188497,0.860629,5.846942,-0.825928,-0.165283,0.220459,0.219968,-0.139375,0.622546,0.999436,-0.015939,0.004302,0.029229,0.312583,-0.308925,-0.599038,-0.669337
39641,NaN,34.218795,-39.551193,23.264210,-51.278007,24.576971,-3.315707,0.346589,0.856601,5.570656,-0.833740,-0.126465,0.213379,0.354022,-0.386161,0.230468,0.999601,0.001733,0.004282,0.027850,0.334208,-0.322095,-0.590011,-0.660642
39642,NaN,-2.326519,-6.821130,8.776129,-4.166098,9.431271,-14.571076,0.108574,0.870411,4.520251,-0.843750,-0.085693,0.204346,-0.021333,-0.068756,0.087820,0.999735,0.000543,0.004352,0.022599,0.352652,-0.334286,-0.580146,-0.653697
39643,NaN,-1.800243,3.183988,-1.845240,3.586800,-1.973617,-9.954804,-2.514296,0.839749,3.865249,-0.846680,-0.062256,0.190918,-0.018689,0.031248,-0.018770,0.999725,-0.012570,0.004198,0.019324,0.363430,-0.347113,-0.563823,-0.655390
39644,NaN,16.711648,-13.813294,-8.209596,-20.520065,-8.141592,-2.734758,-2.116333,1.260188,3.568105,-0.856201,-0.036377,0.184082,0.169040,-0.135994,-0.081710,0.999765,-0.010581,0.006300,0.017839,0.375629,-0.358675,-0.546891,-0.656632
39645,NaN,11.280954,-6.442957,-5.643508,-11.128499,-5.994531,-3.422815,-0.234950,0.542222,3.151500,-0.856934,-0.010742,0.181641,0.113653,-0.062710,-0.056668,0.999871,-0.001175,0.002711,0.015757,0.386998,-0.365926,-0.539372,-0.652234
39646,NaN,8.571135,-6.216446,5.157323,-8.884726,4.875931,-3.813824,-0.287462,0.089028,2.619525,-0.857666,0.006348,0.187744,0.086538,-0.060960,0.051623,0.999913,-0.001437,0.000445,0.013097,0.395999,-0.375017,-0.532108,-0.647617
39647,NaN,9.323256,-5.931566,8.441050,-8.539555,7.985767,-2.285813,-0.806529,-0.200733,2.184223,-0.856201,0.025635,0.183105,0.093785,-0.057952,0.084740,0.999932,-0.004033,-0.001004,0.010921,0.401008,-0.383069,-0.525754,-0.645007
39648,NaN,15.037321,-6.519997,3.174489,-11.401101,2.236591,2.175430,-0.355838,-0.117607,1.613792,-0.856445,0.036377,0.187256,0.150874,-0.063927,0.031948,0.999966,-0.001779,-0.000588,0.008069,0.405908,-0.390161,-0.520307,-0.642101
39649,NaN,17.562150,-2.946672,-3.995294,-9.372216,-5.591459,4.814914,0.329261,-0.113850,1.271249,-0.852539,0.047119,0.178711,0.175827,-0.028284,-0.039900,0.999978,0.001646,-0.000569,0.006356,0.410337,-0.393177,-0.519095,-0.638417
39650,NaN,23.506022,-2.561917,-3.188161,-10.722325,-5.541427,10.768263,0.723211,-0.235838,1.331661,-0.844482,0.062012,0.189209,0.235261,-0.023938,-0.031693,0.999971,0.003616,-0.001179,0.006658,0.416104,-0.397594,-0.517866,-0.632924
39651,NaN,36.033183,1.296092,0.268594,-10.601693,-3.984447,24.419326,1.008963,-0.415434,1.870204,-0.851562,0.077148,0.186768,0.360183,0.016313,0.003511,0.999941,0.005045,-0.002077,0.009351,0.422939,-0.401649,-0.518165,-0.625545
39652,NaN,40.375693,7.036964,4.244172,-5.261123,-1.118022,31.037004,0.650659,-0.080366,2.753784,-0.845947,0.104980,0.188477,0.402721,0.075781,0.042844,0.999900,0.003253,-0.000402,0.013768,0.433358,-0.409213,-0.513481,-0.617319
39653,NaN,37.237872,12.311218,4.628061,1.800778,-0.922224,29.626541,0.479590,0.153378,2.826961,-0.833496,0.119873,0.179688,0.370626,0.128248,0.046299,0.999897,0.002398,0.000767,0.014134,0.443425,-0.414937,-0.508782,-0.610199
39654,NaN,33.881243,11.987217,6.124906,3.536886,1.023822,26.457595,1.296748,-0.088405,2.407783,-0.833984,0.132812,0.173096,0.337312,0.123538,0.062191,0.999906,0.006484,-0.000442,0.012039,0.453903,-0.419855,-0.506652,-0.600831
39655,NaN,25.935887,12.962827,6.056899,6.973663,2.135316,18.895597,2.558683,-0.378429,2.044285,-0.826172,0.156494,0.166504,0.257904,0.131476,0.062732,0.999864,0.012793,-0.001892,0.010221,0.464406,-0.420328,-0.510825,-0.588820
39656,NaN,19.482118,15.638333,4.653436,11.398174,1.898448,12.819089,3.380045,-0.459452,1.964854,-0.826416,0.162842,0.153564,0.193166,0.157465,0.049635,0.999806,0.016899,-0.002297,0.009824,0.476687,-0.420014,-0.516449,-0.574142
39657,NaN,13.800100,17.331041,3.155351,14.433268,1.777680,7.193622,4.387819,-0.264543,2.340789,-0.818604,0.186523,0.144531,0.135921,0.174159,0.035549,0.999690,0.021937,-0.001323,0.011703,0.491800,-0.416251,-0.524588,-0.556485
39658,NaN,12.476329,7.915014,1.739234,5.756060,0.768495,3.883743,3.615832,-0.028285,2.587732,-0.814697,0.203613,0.129395,0.123726,0.080423,0.018856,0.999753,0.018078,-0.000141,0.012938,0.506906,-0.415135,-0.528151,-0.540153
39659,NaN,19.434409,-8.385780,-2.681897,-10.514103,-5.457226,7.931319,1.697901,0.159959,2.652810,-0.806641,0.214355,0.120605,0.195410,-0.081038,-0.027671,0.999876,0.008489,0.000800,0.013264,0.517964,-0.417376,-0.526748,-0.529194
39660,NaN,22.773345,-11.586203,-2.252460,-13.503160,-5.841483,11.197898,0.212280,0.771418,2.462260,-0.802734,0.227295,0.109863,0.229047,-0.113023,-0.023527,0.999916,0.001061,0.003857,0.012311,0.527457,-0.422135,-0.519164,-0.523508
39661,NaN,22.448202,-10.741238,-1.198016,-12.125408,-4.887380,11.394973,0.244099,1.096251,3.066083,-0.796631,0.242188,0.090332,0.226023,-0.103939,-0.013345,0.999867,0.001220,0.005481,0.015330,0.538782,-0.426547,-0.510359,-0.517015
39662,NaN,18.168049,-3.596551,-3.869427,-3.761613,-6.486970,7.557122,0.361651,1.282090,3.699079,-0.781982,0.257324,0.075195,0.182050,-0.032529,-0.039921,0.999807,0.001808,0.006410,0.018494,0.552833,-0.432466,-0.498934,-0.508344
39663,NaN,14.410505,3.483885,-3.854161,3.996727,-5.354547,3.970324,0.361792,1.551530,4.141464,-0.767822,0.285156,0.049072,0.143037,0.037879,-0.039587,0.999754,0.001809,0.007757,0.020706,0.567885,-0.437770,-0.486476,-0.499206
39664,NaN,16.600857,-5.162419,-3.229379,-3.835883,-6.208679,6.291542,0.416903,1.324539,4.672774,-0.749512,0.315186,0.042236,0.166934,-0.047662,-0.033499,0.999703,0.002084,0.006622,0.023362,0.584009,-0.445244,-0.472591,-0.487184
39665,NaN,23.998075,1.750527,-3.511747,4.692707,-6.840145,13.042116,0.339070,1.412538,5.394436,-0.728760,0.334473,0.022949,0.239135,0.024025,-0.036771,0.999610,0.001695,0.007062,0.026969,0.601022,-0.453407,-0.457088,-0.473567
39666,NaN,23.950847,8.480799,-1.527155,12.374617,-4.068747,12.051743,-0.267426,1.513962,5.223967,-0.714600,0.364502,0.005371,0.237060,0.091000,-0.017191,0.999629,-0.001337,0.007569,0.026117,0.616456,-0.463021,-0.439227,-0.461165
39667,NaN,25.714434,9.835568,-0.974659,15.179856,-3.773827,12.860199,-0.891184,1.544643,5.217786,-0.689453,0.385986,-0.009766,0.254375,0.104966,-0.012176,0.999620,-0.004455,0.007722,0.026086,0.629590,-0.473509,-0.420154,-0.450419
39668,NaN,30.053515,11.328598,0.271568,18.961559,-3.266802,15.899368,-1.134876,1.519917,5.637587,-0.662598,0.416016,-0.022949,0.297189,0.121700,-0.000226,0.999558,-0.005674,0.007598,0.028184,0.642836,-0.485776,-0.398797,-0.437886
39669,NaN,30.055776,11.540676,1.153244,20.625063,-2.563578,14.795244,-1.104539,1.450086,6.115477,-0.635742,0.447998,-0.029785,0.296911,0.124577,0.008699,0.999491,-0.005522,0.007249,0.030572,0.656113,-0.498116,-0.376651,-0.423710
39670,NaN,29.318822,13.822617,2.606799,23.906939,-0.763484,12.209124,-0.864889,1.194395,6.302355,-0.606445,0.475830,-0.042969,0.288784,0.147480,0.023710,0.999476,-0.004324,0.005971,0.031506,0.669423,-0.510376,-0.354728,-0.406887
39671,NaN,26.264593,18.347917,3.403667,27.904065,1.245308,6.235197,-0.868224,0.968787,6.130424,-0.566650,0.503662,-0.045166,0.257014,0.191557,0.031963,0.999509,-0.004340,0.004843,0.030647,0.681074,-0.521951,-0.333890,-0.390158
39672,NaN,23.146077,19.066925,3.273043,27.927981,1.871805,1.422525,-0.977169,0.773328,6.131084,-0.541504,0.522949,-0.047607,0.225591,0.197800,0.030896,0.999511,-0.004885,0.003866,0.030650,0.691540,-0.533959,-0.313108,-0.372322
39673,NaN,21.925313,14.991461,3.333850,24.489023,1.632658,0.863482,-0.739883,0.585551,6.006232,-0.503418,0.546387,-0.054199,0.214713,0.156529,0.032134,0.999538,-0.003699,0.002927,0.030027,0.701348,-0.544599,-0.293514,-0.354080
39674,NaN,21.503806,12.816361,3.329068,23.074973,1.533190,0.325119,-0.345703,0.486952,5.756512,-0.471924,0.565674,-0.058594,0.211310,0.134339,0.032544,0.999581,-0.001728,0.002434,0.028779,0.711036,-0.553268,-0.275493,-0.335299
39675,NaN,21.008850,12.551469,2.469754,23.082914,0.929706,-1.375917,-0.204150,0.397153,5.402188,-0.435791,0.580566,-0.067139,0.206645,0.131153,0.024153,0.999633,-0.001021,0.001986,0.027008,0.719819,-0.560580,-0.258681,-0.317325
39676,NaN,20.220662,13.530466,1.230676,23.668099,0.225612,-4.058040,-0.327334,0.286454,4.856473,-0.404297,0.602051,-0.062988,0.198859,0.140180,0.011794,0.999703,-0.001637,0.001432,0.024280,0.726729,-0.567444,-0.243690,-0.300812
39677,NaN,18.934354,13.160184,-0.750343,22.742886,-1.407217,-6.211560,-0.619703,0.126629,4.130318,-0.380859,0.610352,-0.062988,0.186568,0.135450,-0.008038,0.999782,-0.003098,0.000633,0.020650,0.731183,-0.574428,-0.230512,-0.286825
39678,NaN,16.796528,11.850816,0.023497,20.399245,-0.449332,-7.323609,-0.835149,-0.031001,3.301778,-0.359619,0.616943,-0.056641,0.165979,0.121259,-0.000242,0.999855,-0.004176,-0.000155,0.016508,0.733303,-0.581223,-0.220329,-0.275504
39679,NaN,13.560745,8.199998,-0.755328,15.630618,-1.320357,-7.439299,-0.981072,-0.069422,2.370675,-0.344482,0.616699,-0.056641,0.134626,0.083561,-0.007914,0.999918,-0.004905,-0.000347,0.011853,0.733584,-0.587492,-0.212310,-0.267640
39680,NaN,8.455080,5.650928,-3.543817,10.097689,-3.736275,-9.576814,-1.013915,-0.022055,1.378370,-0.336182,0.623291,-0.054443,0.084163,0.056910,-0.035717,0.999963,-0.005070,-0.000110,0.006892,0.732301,-0.592626,-0.207517,-0.263565
39681,NaN,1.821686,6.057019,-4.287598,5.191544,-3.506614,-14.187712,-0.678503,0.032777,0.103830,-0.331787,0.616699,-0.043701,0.018178,0.060434,-0.043084,0.999994,-0.003393,0.000164,0.000519,0.730461,-0.595184,-0.206179,-0.263956
39682,NaN,-4.260128,5.384096,-5.473150,0.065049,-3.960328,-17.648734,-0.664684,0.073486,-1.330608,-0.340088,0.610352,-0.045654,-0.042263,0.053941,-0.054895,0.999972,-0.003323,0.000367,-0.006653,0.726671,-0.596068,-0.209593,-0.269674
39683,NaN,-7.447650,5.291921,-5.704223,-2.322249,-3.785695,-19.625078,-1.029527,0.198853,-2.518849,-0.352539,0.599609,-0.043457,-0.073862,0.053558,-0.057243,0.999907,-0.005147,0.000994,-0.012594,0.720351,-0.596859,-0.214954,-0.280443
39684,NaN,-4.823294,2.858379,-6.344364,-1.818175,-5.151074,-16.281443,-1.338044,0.388602,-3.720756,-0.375732,0.584717,-0.028320,-0.047819,0.029051,-0.063544,0.999803,-0.006690,0.001943,-0.018603,0.711311,-0.596963,-0.223340,-0.296297
39685,NaN,-2.430806,0.315127,-6.837737,-1.781391,-6.294293,-12.970401,-1.061654,0.386913,-4.603095,-0.396729,0.567627,-0.032471,-0.024365,0.003349,-0.068348,0.999719,-0.005308,0.001934,-0.023013,0.701561,-0.594872,-0.234052,-0.314896
39686,NaN,-2.658073,1.409193,-7.551224,-1.111686,-6.850801,-14.043743,-0.578707,0.392525,-5.411306,-0.423828,0.543945,-0.028076,-0.026339,0.014588,-0.075502,0.999628,-0.002893,0.001962,-0.027053,0.691423,-0.589678,-0.248389,-0.335436
39687,NaN,-3.347661,2.995930,-7.495795,-0.180984,-6.555536,-15.588194,-0.248116,0.354326,-6.206333,-0.457520,0.518311,-0.025635,-0.032660,0.030888,-0.074938,0.999516,-0.001240,0.001771,-0.031027,0.680396,-0.581965,-0.264908,-0.358052
39688,NaN,-2.652881,3.866966,-6.739130,1.247400,-5.902653,-15.380669,-0.211116,0.390254,-6.964606,-0.492920,0.486328,-0.027588,-0.025294,0.039494,-0.067383,0.999391,-0.001055,0.001951,-0.034816,0.667339,-0.572343,-0.283961,-0.382686
39689,NaN,3.402307,4.244710,-5.034399,5.064856,-5.403349,-10.088619,-0.413340,0.599452,-7.488963,-0.523682,0.445557,-0.029297,0.035426,0.041034,-0.050535,0.999292,-0.002066,0.002997,-0.037436,0.652217,-0.561556,-0.302382,-0.409674
39690,NaN,3.153214,4.825670,-3.753175,5.456730,-4.184274,-9.936061,-0.525905,0.524025,-7.864858,-0.558838,0.405029,-0.024414,0.033295,0.046871,-0.037742,0.999220,-0.002629,0.002619,-0.039314,0.634862,-0.549763,-0.322145,-0.436960
39691,NaN,5.699493,4.090808,-2.687884,5.704274,-3.784780,-6.721977,-0.649187,0.638943,-8.125923,-0.591797,0.364258,-0.028320,0.058505,0.038463,-0.027192,0.999164,-0.003245,0.003194,-0.040618,0.615837,-0.536901,-0.340747,-0.465159
39692,NaN,7.265977,3.301546,-2.253862,5.098719,-3.785155,-4.482365,-0.595487,0.684627,-8.323903,-0.620361,0.317139,-0.030029,0.073869,0.029889,-0.022882,0.999124,-0.002977,0.003422,-0.041607,0.595480,-0.522316,-0.360040,-0.492910
39693,NaN,8.576293,2.304898,-3.229344,3.786950,-5.074631,-2.801756,-0.397497,0.704489,-8.431180,-0.646484,0.265869,-0.031494,0.086516,0.019347,-0.032638,0.999103,-0.001987,0.003521,-0.042143,0.574415,-0.506142,-0.378640,-0.520097
39694,NaN,9.525146,0.748500,-2.967188,1.703161,-4.976697,-1.305680,0.178408,0.677574,-8.579016,-0.668457,0.216553,-0.032959,0.095355,0.003422,-0.029991,0.999074,0.000892,0.003387,-0.042882,0.553315,-0.486913,-0.399282,-0.545281
39695,NaN,9.826941,-0.454286,-3.167378,-0.304149,-5.155117,-0.863910,0.729216,0.558373,-8.763959,-0.687988,0.158936,-0.042969,0.097859,-0.008722,-0.031974,0.999030,0.003645,0.002791,-0.043806,0.531793,-0.465433,-0.420655,-0.568874
39697,NaN,9.994208,-2.577351,-1.579557,-7.113571,-6.785918,8.582423,1.271140,0.217819,-8.790930,-0.715820,0.030273,-0.045410,0.194290,-0.068394,-0.032817,0.996055,0.012695,0.002175,-0.087794,0.486638,-0.418337,-0.466677,-0.608597
39698,NaN,11.826954,-4.011791,0.686461,-6.454085,-1.310457,0.816238,1.479602,0.139899,-8.497563,-0.722168,-0.029785,-0.042480,0.116427,-0.045141,0.006461,0.999070,0.007396,0.000699,-0.042475,0.463769,-0.394125,-0.488161,-0.625526
39699,NaN,14.295546,-5.568531,-0.170992,-9.592643,-2.386210,1.915574,1.429370,0.052869,-8.308170,-0.724365,-0.091797,-0.043701,0.140479,-0.061542,-0.002173,0.999112,0.007145,0.000264,-0.041529,0.440454,-0.369678,-0.509136,-0.640405
39700,NaN,16.853157,-8.025240,0.710942,-13.752699,-1.645191,2.713612,1.339204,-0.024153,-7.966306,-0.711670,-0.149658,-0.040527,0.165156,-0.086922,0.006562,0.999184,0.006694,-0.000121,-0.039821,0.417021,-0.346256,-0.527772,-0.653955
39701,NaN,18.774411,-10.103872,2.840206,-17.398559,0.418927,2.817778,1.421170,-0.035460,-7.415835,-0.692383,-0.205566,-0.039551,0.183817,-0.108103,0.027683,0.999287,0.007104,-0.000177,-0.037070,0.395050,-0.323297,-0.545543,-0.664678
39702,NaN,21.555657,-13.007236,3.230339,-22.171164,0.691564,2.515446,1.498593,0.096866,-6.639834,-0.673828,-0.250488,-0.032471,0.211092,-0.137367,0.031189,0.999421,0.007492,0.000484,-0.033193,0.375459,-0.301747,-0.560737,-0.673463
39703,NaN,23.671918,-21.997462,3.194635,-31.542608,1.056212,-2.191138,1.742064,0.253530,-5.737781,-0.655518,-0.282715,-0.033936,0.230314,-0.226909,0.029695,0.999550,0.008709,0.001267,-0.028685,0.359593,-0.281234,-0.574968,-0.678979
39704,NaN,26.669299,-34.123355,0.832295,-43.297247,-1.012451,-9.358087,2.013249,0.222425,-5.150068,-0.637207,-0.310791,-0.027100,0.257796,-0.348007,0.004552,0.999617,0.010065,0.001112,-0.025747,0.345458,-0.261976,-0.588415,-0.682492
39705,NaN,31.992946,-39.809260,-4.384212,-50.724278,-7.001883,-12.062707,1.886651,-0.091503,-4.718410,-0.621582,-0.330078,-0.018066,0.310449,-0.405055,-0.047498,0.999677,0.009432,-0.000457,-0.023590,0.331880,-0.245157,-0.601251,-0.684289
39706,NaN,28.308768,-42.768974,-5.977323,-50.123557,-7.992445,-19.280416,1.182052,-0.411947,-4.382465,-0.603760,-0.347168,-0.009277,0.273758,-0.433396,-0.061753,0.999740,0.005910,-0.002060,-0.021910,0.317026,-0.231396,-0.611186,-0.687315
39707,NaN,22.138455,-40.558478,-3.969437,-43.968626,-5.197067,-23.610629,0.770142,-0.710557,-3.625269,-0.594727,-0.362305,-0.000244,0.214130,-0.409355,-0.040497,0.999822,0.003850,-0.003553,-0.018125,0.303921,-0.221890,-0.619188,-0.689205
39708,NaN,15.344589,-40.411543,-3.261798,-38.591732,-3.523950,-29.238847,0.893378,-0.842703,-2.179049,-0.581543,-0.366699,0.012695,0.149173,-0.405607,-0.033793,0.999922,0.004467,-0.004213,-0.010895,0.294785,-0.216702,-0.625909,-0.688753
39709,NaN,10.833456,-42.152966,-5.960890,-36.026817,-5.844186,-34.259778,1.413704,-0.961106,-0.507216,-0.586182,-0.360107,0.020996,0.107560,-0.421370,-0.062070,0.999960,0.007068,-0.004805,-0.002536,0.292411,-0.216952,-0.632767,-0.683399
39710,NaN,11.915567,-41.372320,-6.500830,-36.220454,-7.113888,-32.906651,1.844982,-1.049396,0.784182,-0.593018,-0.349609,0.035889,0.121127,-0.412632,-0.068186,0.999936,0.009225,-0.005247,0.003921,0.293767,-0.220337,-0.639707,-0.675224
39711,NaN,12.046897,-34.778059,-2.024056,-32.400032,-3.426362,-27.051455,1.934260,-1.082147,1.698757,-0.595947,-0.330322,0.052734,0.123535,-0.346527,-0.022933,0.999903,0.009671,-0.005411,0.008494,0.299149,-0.227323,-0.645876,-0.664589
39712,NaN,9.461526,-23.756220,4.259746,-23.698772,2.764942,-19.947353,1.637702,-1.024785,2.545603,-0.611816,-0.304443,0.069336,0.097418,-0.236675,0.041151,0.999872,0.008188,-0.005124,0.012727,0.306136,-0.236501,-0.649867,-0.654233
39713,NaN,13.140873,-16.788431,9.092199,-21.943475,7.225616,-11.671841,1.286049,-1.163987,3.001597,-0.613037,-0.276611,0.083984,0.133386,-0.166476,0.090621,0.999850,0.006430,-0.005820,0.015007,0.314697,-0.248928,-0.652081,-0.643266
39714,NaN,12.128166,-67.948111,-43.929194,-54.656990,-47.896970,-47.385380,-0.030050,-3.030669,1.930475,-0.617432,-0.274658,0.098877,0.134469,-0.678291,-0.437219,0.999839,-0.000150,-0.015153,0.009652,0.310950,-0.265007,-0.654236,-0.636440
39715,NaN,60.514488,-85.348051,-51.937015,-102.703402,-54.557464,-20.272897,-8.617121,-3.317669,3.947738,-0.622314,-0.255371,0.103027,0.630205,-0.862226,-0.472017,0.998740,-0.043068,-0.016581,0.019730,0.302061,-0.302478,-0.625944,-0.652273
39716,NaN,47.614032,36.176568,75.899284,1.210588,73.494029,52.892513,-3.054753,-0.985938,3.650103,-0.625488,-0.229492,0.106689,0.465562,0.381886,0.755575,0.999705,-0.015272,-0.004929,0.018249,0.306184,-0.321671,-0.611755,-0.654625
39717,NaN,18.128237,-36.547151,64.747224,-37.726907,66.489501,-13.225183,0.929243,1.201587,5.636903,-0.639648,-0.188721,0.104004,0.195418,-0.363096,0.644636,0.999574,0.004646,0.006007,0.028181,0.330889,-0.334690,-0.603319,-0.643818
39718,NaN,26.141848,-9.560451,27.058084,-21.337115,26.798319,8.445799,1.282315,0.345487,5.649884,-0.649414,-0.154541,0.105469,0.264478,-0.089892,0.269537,0.999579,0.006411,0.001727,0.028245,0.352137,-0.348388,-0.597154,-0.630898
39719,NaN,-2.335995,-5.721154,1.426382,-3.829479,1.773433,-14.546046,-1.670129,0.944238,4.690659,-0.659180,-0.120117,0.092041,-0.021943,-0.057615,0.014850,0.999679,-0.008350,0.004721,0.023451,0.367690,-0.363807,-0.580853,-0.628537
39720,NaN,6.335697,2.845885,-17.813518,-0.943568,-18.248733,-4.187976,-2.200663,1.639311,3.823053,-0.662109,-0.096680,0.074707,0.061358,0.027678,-0.178951,0.999723,-0.011002,0.008196,0.019114,0.380374,-0.373734,-0.563796,-0.630692
39721,NaN,7.656564,-15.173133,0.186432,-16.948150,0.964586,-8.991421,-1.785769,0.713273,3.691383,-0.662842,-0.079346,0.074463,0.079357,-0.150261,0.002931,0.999783,-0.008928,0.003566,0.018456,0.391489,-0.386619,-0.548888,-0.629273
39722,NaN,11.194036,-8.781375,8.415907,-11.874602,8.360173,-1.917928,-0.671166,0.637260,2.945734,-0.665771,-0.057861,0.071777,0.113483,-0.085868,0.084089,0.999881,-0.003356,0.003186,0.014728,0.401177,-0.393997,-0.539754,-0.626489
39723,NaN,13.914458,-2.677219,-5.499150,-7.737464,-6.325510,1.638457,-0.182215,0.511756,2.642570,-0.668457,-0.042969,0.067383,0.139341,-0.024982,-0.055325,0.999909,-0.000911,0.002559,0.013212,0.411267,-0.401247,-0.531913,-0.622036
39724,NaN,8.487725,-4.989113,6.727635,-7.060272,6.437704,-2.678461,-0.559011,-0.189149,2.194957,-0.671143,-0.025879,0.071289,0.085353,-0.048768,0.067494,0.999935,-0.002795,-0.000946,0.010975,0.416459,-0.408828,-0.526109,-0.618571
39725,NaN,15.108872,-7.489434,4.502607,-11.425718,3.939896,2.779563,-0.348516,-0.210687,1.806932,-0.666992,-0.017334,0.071289,0.151709,-0.073447,0.045315,0.999957,-0.001743,-0.001053,0.009035,0.421544,-0.416258,-0.520781,-0.614668
39726,NaN,19.894349,-3.681444,-6.926386,-9.783810,-8.188851,7.348977,0.517172,-0.138796,1.532787,-0.669678,-0.006592,0.075439,0.199265,-0.035109,-0.069218,0.999967,0.002586,-0.000694,0.007664,0.426973,-0.419604,-0.519439,-0.609762
39727,NaN,26.032813,-0.186477,-4.139050,-7.506434,-6.245879,14.671861,0.978237,-0.550753,1.793176,-0.667969,0.008545,0.077393,0.260442,0.000670,-0.040674,0.999944,0.004891,-0.002754,0.008966,0.433815,-0.425083,-0.518857,-0.601578
39728,NaN,37.314373,1.275396,3.589755,-7.927046,0.502381,26.844170,1.358421,-0.457947,2.340298,-0.666748,0.031982,0.081299,0.372879,0.016870,0.036857,0.999906,0.006792,-0.002290,0.011701,0.442529,-0.429578,-0.518895,-0.591928
39729,NaN,37.074995,8.136147,3.872091,-0.089238,0.437537,28.337506,1.088027,-0.175270,3.084671,-0.660645,0.042725,0.074707,0.369404,0.086853,0.039508,0.999866,0.005440,-0.000876,0.015423,0.454245,-0.436802,-0.514885,-0.581170
39730,NaN,35.776290,11.215211,5.736914,4.393671,2.372529,27.785103,0.872020,-0.366986,3.096886,-0.655029,0.068359,0.072266,0.355865,0.117419,0.058528,0.999869,0.004360,-0.001835,0.015484,0.464160,-0.443836,-0.511403,-0.570992
39731,NaN,32.398202,9.424722,5.266759,4.226001,2.499097,23.981598,1.746564,-0.485110,2.305526,-0.651367,0.089844,0.073975,0.322740,0.097503,0.054293,0.999892,0.008733,-0.002425,0.011527,0.474031,-0.448062,-0.511443,-0.559430
39732,NaN,21.986191,13.347038,4.397611,10.153154,2.646727,14.077827,2.124960,-0.594420,1.728844,-0.649658,0.100586,0.067383,0.218565,0.134882,0.046055,0.999902,0.010624,-0.002972,0.008644,0.482077,-0.449099,-0.514853,-0.548488
39733,NaN,12.663854,11.928669,5.082426,10.191639,4.423822,4.506270,3.802453,-0.427052,1.573909,-0.643555,0.111328,0.056641,0.125588,0.119279,0.053361,0.999786,0.019011,-0.002135,0.007869,0.494378,-0.445973,-0.521800,-0.533314
39734,NaN,8.277092,16.279978,6.719008,14.873597,7.091825,0.537423,4.356579,-0.001037,1.716785,-0.640137,0.135010,0.054199,0.081378,0.161987,0.070725,0.999726,0.021781,-0.000005,0.008583,0.508546,-0.439599,-0.529429,-0.517532
39735,NaN,11.148907,9.812550,6.285776,8.132699,6.498948,2.504259,3.748328,0.332329,1.627310,-0.629639,0.143555,0.034668,0.110799,0.097830,0.064509,0.999790,0.018740,0.001662,0.008136,0.522341,-0.434194,-0.533755,-0.503727
39736,NaN,23.769212,-10.962104,2.206839,-12.770678,-0.762092,13.128889,1.989304,0.839471,1.554839,-0.630127,0.158447,0.023926,0.238623,-0.107974,0.019989,0.999912,0.009946,0.004197,0.007774,0.532784,-0.431031,-0.533131,-0.496109
39737,NaN,29.234944,-16.635056,-1.210674,-17.695778,-5.695833,18.245113,0.687790,1.314451,1.749656,-0.624023,0.169189,0.002197,0.293699,-0.163738,-0.014600,0.999934,0.003439,0.006572,0.008748,0.542613,-0.431297,-0.526679,-0.492100
39738,NaN,24.824504,-12.895867,-3.571278,-12.925830,-7.470364,14.112156,-0.306459,1.325513,2.061895,-0.620117,0.184326,-0.012939,0.249314,-0.126448,-0.037168,0.999924,-0.001532,0.006627,0.010309,0.550489,-0.434300,-0.517824,-0.490106
39739,NaN,17.602186,-5.995732,-5.250255,-5.204485,-7.695300,7.129184,-0.970127,1.624199,2.684775,-0.610107,0.205811,-0.028320,0.176375,-0.057850,-0.053650,0.999865,-0.004850,0.008121,0.013423,0.559644,-0.440614,-0.504240,-0.488262
39740,NaN,9.291359,0.203824,-7.683706,1.493982,-8.550279,-1.442341,-0.892380,1.698577,3.265828,-0.599854,0.220703,-0.039062,0.092211,0.003203,-0.077635,0.999821,-0.004462,0.008492,0.016328,0.569847,-0.447153,-0.490004,-0.484999
39741,NaN,11.956619,-8.486014,-6.021273,-6.829559,-8.431070,1.740837,-0.728781,1.282263,3.748352,-0.592041,0.248779,-0.054443,0.120743,-0.082825,-0.060680,0.999797,-0.003644,0.006411,0.018740,0.580843,-0.455888,-0.475360,-0.478351
39742,NaN,17.992592,-6.058019,-6.052452,-3.238402,-8.972942,7.680236,-0.246133,1.057771,4.614742,-0.575928,0.278564,-0.063477,0.180938,-0.056488,-0.061409,0.999719,-0.001231,0.005288,0.023072,0.593683,-0.464946,-0.461028,-0.467780
39743,NaN,19.435955,5.665127,-2.588632,9.009879,-4.310730,7.983673,-0.561897,1.096026,4.721960,-0.555176,0.302246,-0.072266,0.192805,0.061141,-0.027113,0.999702,-0.002809,0.005480,0.023607,0.606246,-0.475431,-0.444670,-0.456837
39744,NaN,20.177985,5.761168,-1.385859,9.983076,-3.302117,8.397575,-0.605705,1.098883,4.622932,-0.534668,0.334473,-0.085449,0.200296,0.062209,-0.015146,0.999713,-0.003028,0.005494,0.023112,0.617647,-0.484931,-0.428819,-0.446619
39745,NaN,25.555112,7.950429,0.250694,14.247919,-2.252911,12.728457,-0.768040,1.227021,4.878004,-0.520508,0.360107,-0.094238,0.253519,0.085709,0.000626,0.999676,-0.003840,0.006134,0.024387,0.629494,-0.495409,-0.410775,-0.435398
39746,NaN,28.678422,9.706814,2.752777,17.856291,-0.153155,14.786864,-0.566471,1.280426,5.457094,-0.491699,0.396484,-0.114014,0.284160,0.104920,0.025413,0.999603,-0.002832,0.006401,0.027282,0.642362,-0.505446,-0.391811,-0.422351
39747,NaN,30.485791,11.365227,2.660170,21.516008,-0.368675,14.727476,-0.210927,1.241339,6.048569,-0.466553,0.417969,-0.118408,0.301392,0.122830,0.024597,0.999523,-0.001054,0.006206,0.030238,0.657006,-0.515545,-0.371444,-0.405692
39748,NaN,30.009199,13.649815,2.573201,24.885969,-0.052035,11.954188,-0.111302,1.095876,6.418424,-0.435303,0.449951,-0.135986,0.295641,0.146048,0.024024,0.999470,-0.000556,0.005478,0.032086,0.671434,-0.525362,-0.350857,-0.387389
39749,NaN,26.498568,17.294583,2.025998,27.779119,0.602670,5.451498,-0.287334,0.882136,6.367429,-0.399902,0.482178,-0.146973,0.259387,0.181292,0.018851,0.999482,-0.001436,0.004410,0.031832,0.684382,-0.535829,-0.330119,-0.368144
39750,NaN,23.731920,18.528471,2.045932,28.241932,1.386847,0.716064,-0.404241,0.722349,6.356546,-0.366455,0.510010,-0.153564,0.231343,0.192741,0.019232,0.999486,-0.002021,0.003611,0.031777,0.695848,-0.546124,-0.309683,-0.348769
39751,NaN,21.849318,16.098408,1.874707,25.786879,1.308234,-1.260215,-0.204482,0.614026,6.322237,-0.334961,0.535645,-0.164551,0.213316,0.167801,0.017918,0.999495,-0.001022,0.003070,0.031606,0.706986,-0.555473,-0.289633,-0.328227
39752,NaN,20.194658,13.317961,1.870988,23.058030,1.294193,-2.385028,0.042437,0.487455,6.003624,-0.303467,0.556885,-0.173340,0.197874,0.139157,0.018253,0.999546,0.000212,0.002437,0.030014,0.717348,-0.562989,-0.271153,-0.308108
39753,NaN,18.177075,11.495384,2.134702,20.715266,1.740390,-3.910712,0.174173,0.377324,5.664144,-0.265625,0.580566,-0.179932,0.178459,0.120021,0.021111,0.999597,0.000871,0.001886,0.028317,0.726792,-0.569345,-0.254028,-0.288252
39754,NaN,17.595450,10.976683,1.203290,20.240668,1.032011,-5.264170,0.178753,0.296419,5.209157,-0.242432,0.595459,-0.188477,0.173034,0.114289,0.011876,0.999659,0.000894,0.001482,0.026043,0.734943,-0.574713,-0.238270,-0.269799
39755,NaN,16.843405,11.547684,0.369846,20.261833,0.633090,-7.328611,0.058619,0.187775,4.577083,-0.219482,0.616943,-0.199463,0.165736,0.119290,0.003577,0.999738,0.000293,0.000939,0.022883,0.741282,-0.579599,-0.224579,-0.253240
39756,NaN,16.108475,11.552759,-0.724581,19.812035,-0.175250,-8.876112,-0.110379,0.089603,3.890378,-0.189697,0.629639,-0.197266,0.158794,0.118627,-0.007382,0.999811,-0.000552,0.000448,0.019451,0.745853,-0.584174,-0.212767,-0.239112
39757,NaN,14.366129,10.937173,-0.488571,18.058424,0.250943,-10.036611,-0.225956,-0.008957,3.115527,-0.179443,0.640381,-0.195312,0.141935,0.111586,-0.005005,0.999878,-0.001130,-0.000045,0.015577,0.748751,-0.588285,-0.203664,-0.227628
39758,NaN,12.013227,8.889529,0.760258,14.901013,1.361622,-9.936859,-0.295392,0.049834,2.265502,-0.166748,0.648926,-0.195312,0.119117,0.090260,0.007440,0.999935,-0.001477,0.000249,0.011327,0.750466,-0.591622,-0.196441,-0.219533
39759,NaN,8.250522,6.728863,-2.139671,10.667016,-1.518714,-11.166819,-0.442845,0.133744,1.248730,-0.164795,0.657471,-0.201904,0.082069,0.067754,-0.021601,0.999978,-0.002214,0.000669,0.006244,0.750558,-0.594334,-0.192102,-0.215698
39760,NaN,3.336581,6.043584,-3.969509,6.234534,-2.992126,-13.761402,-0.346023,0.267473,0.083896,-0.167480,0.670410,-0.189209,0.033287,0.060381,-0.039844,0.999998,-0.001730,0.001337,0.000419,0.749880,-0.595443,-0.190451,-0.216465
39761,NaN,-2.933904,5.125139,-6.212126,0.584370,-4.772877,-16.907986,-0.477643,0.285542,-1.338116,-0.182617,0.670410,-0.195801,-0.029085,0.051298,-0.062202,0.999974,-0.002388,0.001428,-0.006691,0.747167,-0.595612,-0.193241,-0.222814
39762,NaN,-7.464777,4.629348,-6.781973,-3.324462,-4.977135,-19.157357,-1.155326,0.307573,-2.652342,-0.208496,0.672607,-0.185303,-0.074133,0.046887,-0.067975,0.999894,-0.005776,0.001538,-0.013261,0.740994,-0.596980,-0.198659,-0.234686
39763,NaN,-6.057198,2.371055,-6.022844,-3.369129,-4.807202,-16.455302,-1.826471,0.377014,-3.815676,-0.236572,0.674805,-0.170410,-0.060226,0.024311,-0.060335,0.999775,-0.009132,0.001885,-0.019077,0.731175,-0.599370,-0.206863,-0.251688
39764,NaN,-3.923956,-0.745151,-5.876413,-3.542482,-5.382100,-12.807310,-1.754042,0.427707,-4.766874,-0.270752,0.668457,-0.164062,-0.039536,-0.007026,-0.058617,0.999675,-0.008769,0.002138,-0.023832,0.720132,-0.600140,-0.217285,-0.272084
39765,NaN,-4.236780,-0.397515,-6.010696,-3.511035,-5.379141,-13.414318,-1.228740,0.516216,-5.604368,-0.315430,0.653320,-0.157715,-0.042619,-0.003152,-0.059976,0.999585,-0.006143,0.002581,-0.028018,0.708991,-0.597524,-0.230871,-0.294951
39766,NaN,-3.695523,0.765132,-5.928644,-2.201193,-5.200529,-13.995636,-0.596885,0.605679,-6.336439,-0.359863,0.629883,-0.151123,-0.036871,0.008644,-0.059199,0.999489,-0.002984,0.003028,-0.031677,0.698210,-0.591151,-0.246629,-0.319714
39767,NaN,-1.944905,1.802478,-5.737629,-0.092129,-5.164321,-13.455668,-0.188289,0.634233,-6.954252,-0.406250,0.604248,-0.157471,-0.018990,0.018636,-0.057333,0.999390,-0.000941,0.003171,-0.034764,0.686813,-0.581862,-0.264906,-0.345759
39768,NaN,0.633491,2.448517,-5.121012,2.141800,-4.947293,-11.698481,0.067825,0.597566,-7.436354,-0.447998,0.570068,-0.159180,0.007087,0.024248,-0.051222,0.999304,0.000339,0.002987,-0.037173,0.674482,-0.570369,-0.284393,-0.372657
39769,NaN,3.006973,2.813534,-4.433559,3.788907,-4.713786,-9.636071,0.167612,0.505945,-7.791616,-0.496094,0.531738,-0.165283,0.031024,0.026976,-0.044390,0.999238,0.000838,0.002529,-0.038948,0.660580,-0.557337,-0.305410,-0.399667
39770,NaN,4.600316,4.011312,-4.184797,5.489647,-4.775384,-8.468685,0.052238,0.399201,-8.064169,-0.540039,0.490967,-0.162842,0.047487,0.038229,-0.041932,0.999185,0.000261,0.001995,-0.040310,0.644700,-0.543630,-0.326391,-0.426963
39771,NaN,6.259390,4.227087,-4.032035,6.122937,-5.036907,-6.585957,-0.129491,0.292089,-8.348541,-0.577148,0.443848,-0.157959,0.064225,0.039586,-0.040440,0.999128,-0.000647,0.001460,-0.041731,0.626383,-0.529279,-0.348024,-0.454299
39772,NaN,8.320806,3.218438,-3.230356,5.445444,-4.792011,-3.700066,-0.033851,0.241179,-8.611596,-0.624756,0.390381,-0.157471,0.084451,0.028560,-0.032410,0.999072,-0.000169,0.001206,-0.043045,0.606593,-0.513397,-0.369630,-0.481501
39773,NaN,9.976010,2.371567,-1.734185,4.428965,-3.737045,-1.181081,0.281902,0.180546,-8.773941,-0.654785,0.330566,-0.163086,0.100657,0.019337,-0.017403,0.999036,0.001409,0.000902,-0.043856,0.585897,-0.495303,-0.392405,-0.507364
39774,NaN,11.303493,0.748344,-1.286577,2.196355,-3.592048,0.778554,0.682997,0.053856,-8.893619,-0.680664,0.268311,-0.157959,0.113216,0.002494,-0.012882,0.999006,0.003414,0.000269,-0.044453,0.564575,-0.475263,-0.415586,-0.531666
39775,NaN,12.736525,0.548316,2.136974,1.192821,-0.498415,3.044582,0.881100,-0.267252,-8.686445,-0.706543,0.206299,-0.159424,0.127412,-0.000146,0.021548,0.999046,0.004404,-0.001336,-0.043418,0.542453,-0.454847,-0.439408,-0.552973
39776,NaN,13.809580,-3.482169,3.995521,-3.957894,1.276481,4.377616,1.250058,-0.203042,-8.588250,-0.723633,0.144043,-0.147949,0.136384,-0.040953,0.039851,0.999058,0.006248,-0.001015,-0.042928,0.520620,-0.432763,-0.462506,-0.572502
39777,NaN,15.923910,-4.547876,2.362927,-6.460665,-0.606931,5.600817,0.965665,-0.239712,-8.036633,-0.736572,0.084229,-0.149170,0.157210,-0.051938,0.023578,0.999180,0.004827,-0.001198,-0.040172,0.498713,-0.411842,-0.483327,-0.589972
39778,NaN,18.457248,-6.303660,2.788784,-9.899692,-0.495265,7.208839,0.907874,-0.137808,-7.851005,-0.736816,0.026367,-0.144043,0.181887,-0.070339,0.027706,0.999219,0.004538,-0.000689,-0.039245,0.476727,-0.390733,-0.502116,-0.606580
39779,NaN,22.505471,-10.479017,2.219014,-16.327517,-1.505751,8.950754,1.121471,-0.149644,-7.643286,-0.739014,-0.035889,-0.136719,0.220813,-0.113407,0.021737,0.999254,0.005606,-0.000748,-0.038207,0.455037,-0.368905,-0.520781,-0.620997
39780,NaN,24.834327,-15.406340,2.320503,-23.139624,-1.485910,8.115793,1.359296,-0.140714,-7.406659,-0.737305,-0.083008,-0.125244,0.242394,-0.163268,0.022288,0.999291,0.006795,-0.000703,-0.037025,0.433885,-0.346746,-0.538594,-0.633583
39781,NaN,26.394922,-25.934459,4.016574,-34.688407,0.365986,3.654210,1.953395,-0.027639,-7.237135,-0.733398,-0.134521,-0.126709,0.254324,-0.269041,0.037605,0.999298,0.009765,-0.000138,-0.036177,0.414087,-0.322828,-0.557265,-0.643250
39782,NaN,27.350390,-35.537768,6.167415,-44.570831,2.321371,-2.316326,2.982780,0.045959,-6.546850,-0.721191,-0.181641,-0.117188,0.261674,-0.364939,0.056217,0.999353,0.014911,0.000230,-0.032727,0.397731,-0.298101,-0.576951,-0.648131
39783,NaN,27.271120,-37.762160,3.629697,-46.609093,-1.004167,-6.866449,3.945013,0.045461,-5.506505,-0.713623,-0.211670,-0.110352,0.262174,-0.385553,0.028683,0.999426,0.019721,0.000227,-0.027527,0.385948,-0.274228,-0.597604,-0.647080
39784,NaN,27.375579,-36.010583,-0.715683,-44.754895,-6.502438,-8.875147,4.434151,-0.042177,-4.415215,-0.710449,-0.241699,-0.099121,0.265725,-0.365755,-0.015168,0.999511,0.022167,-0.000211,-0.022072,0.377452,-0.252527,-0.617776,-0.641960
39785,NaN,25.277590,-37.978723,-1.032420,-44.799814,-7.795574,-13.590309,3.816076,-0.496447,-3.410442,-0.718506,-0.260986,-0.090332,0.246291,-0.383742,-0.017005,0.999670,0.019078,-0.002482,-0.017050,0.370155,-0.236692,-0.635022,-0.635382
39786,NaN,16.776157,-38.271296,0.791864,-39.737287,-5.513345,-21.524155,2.590268,-0.795436,-2.451020,-0.724365,-0.278320,-0.075195,0.163034,-0.384796,0.003599,0.999833,0.012951,-0.003977,-0.012254,0.362869,-0.226649,-0.647505,-0.630629
39787,NaN,8.737082,-39.424488,3.339492,-35.631805,-2.379536,-28.955356,1.302787,-0.760926,-1.468252,-0.728271,-0.289062,-0.070801,0.084351,-0.395079,0.031148,0.999945,0.006514,-0.003805,-0.007341,0.357924,-0.222485,-0.654506,-0.627704
39788,NaN,5.107700,-40.610043,3.412941,-33.946687,-2.170666,-32.830373,0.748074,-0.579237,-0.394781,-0.739014,-0.289062,-0.064453,0.050179,-0.406324,0.032756,0.999987,0.003740,-0.002896,-0.001974,0.355639,-0.221716,-0.658309,-0.625293
39789,NaN,5.340370,-37.269086,2.318023,-31.454984,-3.180128,-30.387836,0.793652,-0.374467,0.695322,-0.752197,-0.282471,-0.055908,0.054657,-0.372591,0.021803,0.999984,0.003968,-0.001872,0.003477,0.358281,-0.224472,-0.660474,-0.620501
39790,NaN,4.963963,-30.912122,1.293223,-26.456772,-3.598282,-26.212108,0.756013,-0.293050,1.549533,-0.769775,-0.269531,-0.052002,0.052015,-0.308770,0.011840,0.999962,0.003780,-0.001465,0.007748,0.362977,-0.229183,-0.661568,-0.614859
39791,NaN,4.042025,-23.783552,1.916447,-20.900908,-2.110644,-21.827031,0.608492,-0.335645,2.034228,-0.776855,-0.256836,-0.047852,0.042805,-0.237465,0.018512,0.999942,0.003042,-0.001678,0.010171,0.369724,-0.236634,-0.661406,-0.608154
39792,NaN,16.238017,-32.380861,-5.465311,-33.659231,-12.388305,-17.269079,0.417410,-0.915042,2.014013,-0.790039,-0.246094,-0.041748,0.165879,-0.322036,-0.054573,0.999937,0.002087,-0.004575,0.010070,0.373313,-0.245338,-0.661929,-0.601911
39793,NaN,21.060502,-90.980028,-26.807871,-78.749008,-42.266956,-47.903253,-1.757160,-1.475745,2.190218,-0.810547,-0.216064,-0.035889,0.222499,-0.909706,-0.258473,0.999874,-0.008785,-0.007378,0.010951,0.373835,-0.261160,-0.656330,-0.601061
39794,NaN,42.069441,-66.700887,-4.848075,-76.915712,-17.514363,-14.097762,-3.134292,-0.744735,3.804877,-0.815918,-0.181641,-0.036377,0.433440,-0.659478,-0.036507,0.999689,-0.015670,-0.003723,0.019022,0.378637,-0.281708,-0.643117,-0.603055
39795,NaN,15.236560,13.018980,20.096517,-0.193860,19.969924,10.351660,-1.784866,-0.965949,2.868857,-0.812500,-0.160400,-0.030273,0.149491,0.134139,0.200506,0.999846,-0.008924,-0.004829,0.014344,0.382977,-0.298349,-0.635111,-0.600791
39796,NaN,-2.804144,20.832261,20.283381,16.382225,22.514661,-0.983675,0.712652,0.514744,2.665321,-0.828369,-0.134521,-0.034912,-0.030284,0.207204,0.203649,0.999902,0.003563,0.002574,0.013326,0.393665,-0.303921,-0.632211,-0.594112
39797,NaN,35.040657,-2.797533,31.719084,-23.205467,28.075454,20.424522,-3.810120,1.660946,4.852340,-0.833984,-0.091553,-0.059082,0.353470,-0.013413,0.314612,0.999490,-0.019047,0.008303,0.024258,0.408485,-0.322811,-0.609449,-0.597917
39798,NaN,46.089914,-1.196378,33.849335,-24.797045,28.885294,32.866794,-2.251206,1.422842,4.362099,-0.835205,-0.059570,-0.061768,0.463351,0.001911,0.335233,0.999674,-0.011255,0.007113,0.021808,0.422115,-0.336390,-0.592556,-0.597945
39799,NaN,-3.332876,-8.660830,8.871115,-7.335646,8.757262,-15.669319,-2.607595,0.336102,3.036975,-0.842529,-0.033691,-0.075195,-0.031870,-0.085933,0.089889,0.999798,-0.013037,0.001680,0.015184,0.428780,-0.351104,-0.578006,-0.598984
39800,NaN,8.342078,-10.388788,-10.671959,-11.998308,-11.810909,-6.994565,-2.007581,0.606960,3.351276,-0.839111,-0.005859,-0.071289,0.084835,-0.103540,-0.105935,0.999805,-0.010037,0.003035,0.016755,0.436985,-0.363254,-0.564677,-0.598523
39801,NaN,4.793021,-9.123427,-8.885053,-9.707553,-9.523271,-9.344249,-0.949429,0.333697,2.936466,-0.846436,0.020020,-0.075928,0.049119,-0.090940,-0.088500,0.999880,-0.004747,0.001668,0.014682,0.445951,-0.373841,-0.554866,-0.594553
39802,NaN,13.021185,-7.440108,5.066371,-11.353426,3.417669,0.674443,-0.250592,0.168878,2.626283,-0.838623,0.041260,-0.076172,0.131216,-0.072619,0.050645,0.999913,-0.001253,0.000844,0.013131,0.453743,-0.381199,-0.548765,-0.589628
39803,NaN,11.522263,-4.078033,8.905740,-7.580014,7.449647,0.945714,-0.306212,-0.029540,2.332507,-0.847900,0.062744,-0.080811,0.115674,-0.039297,0.089135,0.999931,-0.001531,-0.000148,0.011662,0.460911,-0.389585,-0.542604,-0.584265
39804,NaN,12.724337,-6.088084,6.311933,-9.467115,4.725993,1.449823,-0.522418,-0.056436,2.057226,-0.843994,0.071289,-0.078857,0.127842,-0.059403,0.063312,0.999944,-0.002612,-0.000282,0.010286,0.465748,-0.396561,-0.537147,-0.580768
39805,NaN,15.446480,-4.798314,-0.416019,-8.347268,-2.241816,3.865111,-0.159701,0.057566,1.640140,-0.838379,0.092773,-0.076904,0.154850,-0.046718,-0.004167,0.999966,-0.000798,0.000288,0.008201,0.471271,-0.402356,-0.532377,-0.576705
39806,NaN,22.683029,-3.194025,1.245966,-8.255455,-1.414689,11.544055,0.272446,-0.000967,1.504840,-0.840576,0.096924,-0.074951,0.227062,-0.030249,0.012419,0.999971,0.001362,-0.000005,0.007524,0.476166,-0.405759,-0.530097,-0.572384
39807,NaN,31.373081,-0.363901,2.691340,-6.877558,-0.919201,20.903278,0.379926,-0.057600,1.934285,-0.839111,0.116455,-0.079590,0.313739,-0.000656,0.027001,0.999951,0.001900,-0.000288,0.009671,0.483207,-0.411275,-0.526479,-0.565847
39808,NaN,35.733518,3.724038,3.329349,-2.985440,-0.664134,26.137413,0.295813,0.036520,2.644486,-0.837646,0.137695,-0.077637,0.356808,0.041911,0.033288,0.999911,0.001479,0.000183,0.013222,0.491374,-0.417431,-0.521718,-0.558671
39809,NaN,36.865374,8.276047,4.098276,2.430055,0.150957,28.112416,0.309412,0.052608,2.979862,-0.827637,0.154785,-0.082031,0.367378,0.088177,0.041020,0.999888,0.001547,0.000263,0.014899,0.501284,-0.425327,-0.515288,-0.549809
39810,NaN,34.414835,10.793323,4.911511,6.178192,1.437506,26.030086,0.904844,-0.025248,2.425160,-0.836426,0.163574,-0.086670,0.342801,0.111872,0.049659,0.999916,0.004524,-0.000126,0.012125,0.509791,-0.429389,-0.512612,-0.541264
39811,NaN,27.481646,10.164044,4.488508,7.056886,1.991063,18.908556,1.863758,-0.183291,1.783514,-0.832520,0.172119,-0.091064,0.273856,0.103660,0.046096,0.999916,0.009319,-0.000916,0.008917,0.518896,-0.430633,-0.513400,-0.530776
39812,NaN,19.110114,13.003738,3.295694,11.015954,2.266850,10.648136,3.020265,-0.084283,1.501128,-0.838867,0.172119,-0.099609,0.190106,0.130948,0.035010,0.999858,0.015101,-0.000421,0.007505,0.529115,-0.426863,-0.518301,-0.518834
39813,NaN,11.752556,16.033415,3.467557,14.661885,4.118511,3.424846,4.704126,0.111631,1.669197,-0.843262,0.178467,-0.112549,0.116208,0.160434,0.038383,0.999688,0.023518,0.000558,0.008345,0.544335,-0.419149,-0.525672,-0.501681
39814,NaN,8.721387,18.077400,5.774188,16.352984,7.792272,0.579278,4.706275,0.387531,1.706080,-0.847656,0.180664,-0.119141,0.085793,0.180087,0.061818,0.999685,0.023529,0.001937,0.008530,0.559344,-0.409771,-0.532654,-0.485284
39815,NaN,16.218006,1.027724,2.609722,0.000065,1.006942,6.615145,2.821675,0.562689,1.553763,-0.843506,0.185059,-0.131836,0.162168,0.011172,0.025794,0.999866,0.014108,0.002813,0.007768,0.570950,-0.405281,-0.533906,-0.474035
39816,NaN,25.020620,-13.147848,-3.319102,-12.319374,-8.959308,14.225916,0.198133,1.076448,1.579098,-0.848145,0.193604,-0.140625,0.251050,-0.129465,-0.034670,0.999954,0.000991,0.005382,0.007895,0.577961,-0.406412,-0.528053,-0.471116
39817,NaN,23.448233,-16.008268,-3.366798,-14.604041,-9.606749,12.811043,-1.045233,1.264786,1.795210,-0.846191,0.204346,-0.153809,0.235692,-0.158149,-0.034326,0.999926,-0.005226,0.006324,0.008976,0.583961,-0.411824,-0.517514,-0.470712
39818,NaN,19.587616,-11.087895,-1.858284,-9.774444,-6.654414,9.428588,-1.732539,1.552399,2.397298,-0.842285,0.215088,-0.166748,0.197040,-0.108686,-0.019161,0.999861,-0.008662,0.007762,0.011986,0.589991,-0.419426,-0.503870,-0.471283
39819,NaN,13.888096,-3.262543,-5.400852,-1.255040,-7.816250,3.226229,-1.908897,1.811532,2.885353,-0.832275,0.236572,-0.181885,0.138842,-0.031144,-0.054964,0.999809,-0.009544,0.009057,0.014426,0.597812,-0.428648,-0.487174,-0.470684
39820,NaN,11.795601,-2.198856,-5.837688,0.016527,-7.846866,0.979286,-1.653345,1.685796,3.320685,-0.826660,0.262207,-0.190918,0.117808,-0.020519,-0.059197,0.999792,-0.008266,0.008428,0.016602,0.606086,-0.437671,-0.470999,-0.468256
39821,NaN,15.721929,-11.918208,-6.144499,-8.471959,-10.552733,5.801336,-1.060976,1.301748,4.235727,-0.810547,0.296631,-0.201904,0.159299,-0.116150,-0.061856,0.999740,-0.005304,0.006508,0.021177,0.617094,-0.448329,-0.454543,-0.459985
39822,NaN,17.415870,-0.793745,-4.426094,3.150474,-7.248459,6.343004,-0.415759,1.142682,4.881264,-0.801025,0.328857,-0.219482,0.174028,-0.003782,-0.045245,0.999684,-0.002079,0.005713,0.024404,0.629809,-0.457982,-0.438948,-0.448238
39823,NaN,18.970860,3.748135,-3.106129,8.574531,-5.428691,6.935982,-0.394682,1.119286,4.915964,-0.782471,0.358887,-0.230713,0.188534,0.042063,-0.032199,0.999680,-0.001973,0.005596,0.024577,0.642620,-0.467952,-0.422562,-0.435318
39824,NaN,23.579426,5.775681,-1.247398,12.460263,-4.018785,10.665513,-0.325818,1.125982,5.178664,-0.760254,0.395264,-0.239746,0.234119,0.063812,-0.013896,0.999648,-0.001629,0.005629,0.025890,0.655299,-0.477370,-0.405941,-0.421799
39825,NaN,26.973190,8.796963,0.940237,17.321865,-1.852347,12.595566,-0.200434,1.169561,5.551844,-0.739746,0.429443,-0.255127,0.267200,0.095419,0.007742,0.999597,-0.001002,0.005847,0.027755,0.668979,-0.487149,-0.387781,-0.405930
39826,NaN,29.137408,11.413844,2.001119,21.736088,-0.579026,12.774191,-0.011916,1.158603,6.083599,-0.702637,0.472412,-0.266357,0.287833,0.122932,0.018330,0.999521,-0.000060,0.005792,0.030413,0.683238,-0.496440,-0.368850,-0.388179
39827,NaN,29.353885,13.516989,2.031676,25.101266,0.053956,10.633360,0.155970,1.155225,6.484998,-0.673828,0.512939,-0.277344,0.289063,0.144577,0.018749,0.999457,0.000780,0.005775,0.032419,0.698196,-0.505763,-0.348530,-0.367768
39828,NaN,26.174416,14.898758,0.707883,26.059725,-0.159534,5.290721,0.092634,1.158990,6.517008,-0.644775,0.547363,-0.301270,0.256741,0.157406,0.005653,0.999452,0.000463,0.005794,0.032579,0.712063,-0.514427,-0.327955,-0.347531
39829,NaN,22.931957,13.550172,-0.185694,24.140603,-0.525109,1.422257,0.136075,0.925004,6.429973,-0.611572,0.581543,-0.303711,0.224795,0.142780,-0.002808,0.999472,0.000680,0.004624,0.032144,0.724843,-0.522909,-0.307947,-0.326094
39830,NaN,21.445555,12.427821,-1.004665,23.094679,-1.038462,-0.828177,0.255994,0.702866,6.331157,-0.578125,0.613525,-0.314941,0.210343,0.130994,-0.010626,0.999492,0.001280,0.003514,0.031650,0.736559,-0.530353,-0.289078,-0.304369
39831,NaN,19.839089,11.412735,-0.919193,21.783273,-0.642274,-2.769978,0.312861,0.615769,6.050616,-0.540527,0.643555,-0.327881,0.194789,0.120072,-0.009611,0.999536,0.001564,0.003078,0.030248,0.747180,-0.536988,-0.271003,-0.282708
39832,NaN,18.356036,10.504984,-0.164773,20.396374,0.341027,-4.238180,0.313902,0.581952,5.714746,-0.500488,0.671387,-0.343262,0.180454,0.110239,-0.002006,0.999586,0.001569,0.002909,0.028570,0.756588,-0.542547,-0.253787,-0.262317
39833,NaN,17.737279,10.477360,1.062532,20.060269,1.857055,-5.391059,0.217349,0.615341,5.360609,-0.468994,0.690674,-0.349609,0.174512,0.109466,0.010203,0.999635,0.001087,0.003076,0.026800,0.764690,-0.547693,-0.237122,-0.243012
39834,NaN,18.346348,10.936508,2.231715,20.887592,3.254243,-6.044047,0.029286,0.697409,4.924432,-0.439697,0.714111,-0.354248,0.180774,0.113835,0.021700,0.999691,0.000146,0.003487,0.024620,0.771350,-0.552433,-0.220902,-0.225920
39835,NaN,18.219549,11.000156,1.437633,21.017999,2.692672,-7.374991,-0.344992,0.735914,4.329847,-0.409912,0.724854,-0.360596,0.179808,0.113936,0.013517,0.999757,-0.001725,0.003679,0.021647,0.775856,-0.557701,-0.205772,-0.211364
39836,NaN,16.782575,10.764677,0.220965,19.856362,1.691856,-9.181279,-0.617305,0.595080,3.620008,-0.384521,0.737549,-0.356445,0.165846,0.110666,0.001376,0.999827,-0.003086,0.002975,0.018099,0.778443,-0.563123,-0.192650,-0.199512
39837,NaN,15.946772,9.901414,0.836281,18.661578,2.141197,-9.399053,-0.620923,0.677710,2.864727,-0.367676,0.752686,-0.356445,0.158054,0.101309,0.007513,0.999887,-0.003104,0.003388,0.014323,0.780038,-0.567639,-0.181516,-0.190734
39838,NaN,12.130189,7.960375,-2.224266,14.589946,-1.024270,-11.050389,-0.983717,0.746527,1.979152,-0.353027,0.761230,-0.348145,0.120422,0.080686,-0.023088,0.999932,-0.004918,0.003733,0.009896,0.779762,-0.572547,-0.172005,-0.185946
39839,NaN,7.191483,7.688928,-3.973728,10.198096,-2.415161,-13.910313,-1.234568,0.726339,1.037916,-0.338379,0.771729,-0.343750,0.071369,0.077012,-0.040472,0.999961,-0.006173,0.003632,0.005190,0.777694,-0.577608,-0.165342,-0.184996
39840,NaN,2.145228,7.266241,-5.142113,5.556216,-3.298178,-16.300351,-1.689086,0.663018,-0.227343,-0.342773,0.773926,-0.333252,0.021363,0.072200,-0.052103,0.999958,-0.008445,0.003315,-0.001137,0.773125,-0.583376,-0.161818,-0.189116
39841,NaN,-2.820105,3.971558,-7.704102,-0.345425,-6.189764,-16.494428,-1.989931,0.644389,-1.579146,-0.359863,0.771729,-0.320312,-0.028139,0.039169,-0.077342,0.999914,-0.009949,0.003222,-0.007896,0.766179,-0.589178,-0.162377,-0.198675
39842,NaN,-6.157920,2.250010,-6.880839,-4.123688,-5.454131,-16.413907,-2.220523,0.659153,-2.563932,-0.373047,0.778076,-0.303467,-0.061517,0.022525,-0.068856,0.999851,-0.011102,0.003296,-0.012819,0.757518,-0.594886,-0.165142,-0.212145
39843,NaN,-4.862895,-0.064802,-7.186874,-4.224049,-6.366887,-13.926430,-2.186823,0.726577,-3.505643,-0.400635,0.763184,-0.288330,-0.048900,-0.000577,-0.071685,0.999780,-0.010933,0.003633,-0.017527,0.747619,-0.599434,-0.170801,-0.229283
39844,NaN,-3.150206,-1.147823,-7.610892,-3.450872,-7.155364,-12.274003,-1.579202,0.750138,-4.426517,-0.432617,0.754639,-0.286133,-0.032040,-0.011373,-0.075899,0.999717,-0.007895,0.003750,-0.022130,0.738249,-0.600555,-0.179370,-0.249295
39845,NaN,-2.807653,-0.204903,-8.432867,-2.684888,-7.814190,-13.093961,-0.676231,0.726702,-5.341322,-0.466064,0.726807,-0.290283,-0.028429,-0.001578,-0.084220,0.999631,-0.003381,0.003633,-0.026703,0.729829,-0.597213,-0.192159,-0.271590
39846,NaN,-2.264857,1.181452,-8.923845,-1.362367,-8.151044,-14.039146,0.136488,0.657850,-6.073936,-0.508301,0.701172,-0.290039,-0.022568,0.012562,-0.089156,0.999533,0.000682,0.003289,-0.030365,0.722293,-0.589737,-0.207954,-0.295394
39847,NaN,-0.481198,2.828906,-8.581745,1.219721,-7.911632,-14.031297,0.556625,0.519447,-6.678924,-0.547852,0.666992,-0.300537,-0.004081,0.028672,-0.085727,0.999435,0.002783,0.002597,-0.033388,0.714091,-0.579776,-0.226841,-0.320119
39848,NaN,1.366427,3.819073,-7.344367,3.416583,-6.962802,-13.011574,0.627055,0.267056,-7.168171,-0.593750,0.624268,-0.300049,0.014928,0.037901,-0.073344,0.999352,0.003135,0.001335,-0.035833,0.704293,-0.568639,-0.247486,-0.345502
39849,NaN,4.465062,3.694678,-5.496828,5.413706,-5.871441,-9.891805,0.437493,0.043692,-7.473363,-0.639648,0.583740,-0.303955,0.045980,0.035365,-0.054900,0.999300,0.002187,0.000218,-0.037358,0.692078,-0.557463,-0.269572,-0.370935
39850,NaN,6.643491,3.499541,-4.652937,6.375815,-5.623797,-7.419679,0.112013,-0.079205,-7.756585,-0.678955,0.536621,-0.301270,0.067744,0.032411,-0.046484,0.999248,0.000560,-0.000396,-0.038773,0.677399,-0.546388,-0.291433,-0.397061
39851,NaN,7.892861,2.832128,-4.755083,6.084858,-6.144451,-5.557045,-0.098989,-0.175322,-8.044834,-0.717773,0.483154,-0.296387,0.080023,0.025093,-0.047494,0.999191,-0.000495,-0.000876,-0.040213,0.660247,-0.534958,-0.314031,-0.423413
39852,NaN,8.438828,1.945081,-3.661567,5.065923,-5.339842,-3.966079,-0.038620,-0.261482,-8.339391,-0.754639,0.429688,-0.298096,0.085149,0.015903,-0.036508,0.999130,-0.000193,-0.001307,-0.041685,0.641530,-0.522124,-0.336807,-0.449874
39853,NaN,10.905620,2.043538,-2.812470,5.401603,-5.107885,-1.113535,-0.019416,-0.315421,-8.555134,-0.798096,0.374023,-0.293213,0.109841,0.015744,-0.027954,0.999084,-0.000097,-0.001577,-0.042763,0.621015,-0.508019,-0.360300,-0.475859
39854,NaN,10.789371,0.421036,-1.809930,2.986977,-4.176305,-0.147053,0.105317,-0.318778,-8.831845,-0.827881,0.305420,-0.283691,0.107968,-0.000548,-0.017927,0.999024,0.000526,-0.001593,-0.044145,0.599120,-0.492094,-0.383584,-0.501759
39855,NaN,12.254285,-0.736328,-0.096664,1.212659,-2.808304,2.072784,0.384422,-0.405205,-8.807024,-0.859863,0.236816,-0.278564,0.122062,-0.012745,-0.000740,0.999027,0.001921,-0.002025,-0.044021,0.576520,-0.474551,-0.407574,-0.525652
39856,NaN,12.354037,-1.226461,2.492428,-0.278046,-0.224312,2.840674,0.639322,-0.589063,-8.821777,-0.883301,0.166260,-0.277588,0.122763,-0.017773,0.025236,0.999018,0.003196,-0.002944,-0.044094,0.553119,-0.455867,-0.431447,-0.547812
39857,NaN,14.626515,-5.340727,2.751454,-5.533578,-0.256420,4.992102,0.998121,-0.521054,-8.722566,-0.910889,0.089111,-0.268066,0.143676,-0.059850,0.027603,0.999033,0.004989,-0.002604,-0.043599,0.529774,-0.435203,-0.455572,-0.567795
39858,NaN,15.440517,-8.422481,1.202068,-9.935736,-1.699527,4.644197,0.757286,-0.444598,-8.388645,-0.927734,0.016113,-0.258545,0.150666,-0.090643,0.012023,0.999111,0.003785,-0.002222,-0.041931,0.506160,-0.415023,-0.476715,-0.586772
39859,NaN,16.471702,-12.582847,1.692531,-15.387756,-1.090813,4.126326,0.849460,-0.354963,-8.123894,-0.942139,-0.065186,-0.250977,0.159396,-0.132447,0.016658,0.999165,0.004246,-0.001774,-0.040608,0.482796,-0.394137,-0.496989,-0.603792
39860,NaN,18.312711,-14.715261,1.385149,-18.993823,-1.481316,3.991859,1.163989,-0.239665,-7.830774,-0.943604,-0.144531,-0.234619,0.177163,-0.154246,0.013182,0.999216,0.005818,-0.001198,-0.039144,0.460513,-0.372344,-0.516094,-0.618817
39861,NaN,20.527870,-18.087222,1.829231,-23.934962,-1.231183,3.496262,1.741822,-0.062224,-7.434685,-0.938965,-0.219482,-0.231445,0.198360,-0.188483,0.016735,0.999271,0.008707,-0.000311,-0.037164,0.440317,-0.349065,-0.535429,-0.630548
39862,NaN,22.632200,-23.122504,1.868005,-30.300819,-1.471710,1.571297,2.309097,0.088125,-6.930073,-0.922852,-0.307617,-0.219238,0.218135,-0.239073,0.015852,0.999333,0.011543,0.000441,-0.034643,0.422477,-0.324981,-0.554226,-0.639323
