// Start Time: Unknown
// Update Rate: 100.0Hz
// Filter Profile: human (46.1)
// Firmware Version: 4.4.0
PacketCounter,SampleTimeFine,Acc_X,Acc_Y,Acc_Z,FreeAcc_X,FreeAcc_Y,FreeAcc_Z,Gyr_X,Gyr_Y,Gyr_Z,Mag_X,Mag_Y,Mag_Z,VelInc_X,VelInc_Y,VelInc_Z,OriInc_q0,OriInc_q1,OriInc_q2,OriInc_q3,Quat_q0,Quat_q1,Quat_q2,Quat_q3
22601,NaN,-2.604502,1.083611,8.335733,-0.000000,0.000000,-1.012578,-0.653315,0.196934,0.467913,0.012207,-0.466553,-1.003662,-0.025989,0.011048,0.083347,0.999991,-0.003267,0.000985,0.002340,-0.417192,0.108719,-0.120926,-0.894152
22602,NaN,-2.368616,5.002349,10.754171,-0.000000,-0.000000,2.282158,-0.863165,0.070914,0.372362,0.001221,-0.462402,-1.003662,-0.023742,0.050443,0.107333,0.999989,-0.004316,0.000355,0.001862,-0.012156,0.098339,-0.215906,-0.971373
22603,NaN,-3.264165,5.743315,12.056641,-0.804310,-1.552212,3.823532,-0.476650,-0.024308,0.410975,0.003174,-0.455811,-1.010010,-0.032775,0.057653,0.120425,0.999995,-0.002383,-0.000122,0.002055,-0.245537,0.080331,-0.177375,-0.949630
22604,NaN,-4.463889,5.527155,8.679128,0.579380,-3.223685,0.914611,-0.492467,-0.123357,0.553996,-0.003418,-0.445312,-1.008057,-0.044846,0.055361,0.086627,0.999993,-0.002462,-0.000617,0.002770,-0.242816,0.079858,-0.175107,-0.950789
22605,NaN,-5.684647,7.030583,8.828710,0.945499,-4.967494,1.768324,-0.486933,-0.293381,0.651544,-0.007568,-0.445312,-1.008057,-0.057205,0.070334,0.088032,0.999991,-0.002435,-0.001467,0.003258,-0.239567,0.078502,-0.173280,-0.952060
22606,NaN,-6.765044,7.403029,11.486883,1.605427,-4.834099,4.559919,-0.570498,-0.496933,0.624166,-0.020752,-0.436523,-1.008057,-0.068166,0.074145,0.114488,0.999988,-0.002852,-0.002485,0.003121,-0.236799,0.076278,-0.170212,-0.953486
22607,NaN,-7.191803,5.930373,11.102689,2.738721,-3.773280,3.913972,-0.654954,-0.644602,0.611907,-0.029541,-0.427979,-1.014404,-0.072457,0.059445,0.110599,0.999985,-0.003275,-0.003223,0.003060,-0.233170,0.077802,-0.174724,-0.953441
22608,NaN,-7.329653,4.367246,9.116110,3.818333,-3.367020,1.588271,-0.743747,-0.878532,0.607112,-0.050781,-0.423828,-1.012207,-0.073828,0.043787,0.090675,0.999979,-0.003719,-0.004393,0.003036,-0.230749,0.073949,-0.170386,-0.955121
22609,NaN,-6.036919,3.767630,10.067641,2.744473,-1.650478,2.092715,-0.437718,-1.080322,0.587462,-0.065918,-0.419434,-1.016357,-0.061022,0.037717,0.100265,0.999979,-0.002189,-0.005402,0.002937,-0.227926,0.083630,-0.181694,-0.952913
22610,NaN,-5.321558,3.077769,10.396414,2.543838,-0.743029,1.970836,-0.090933,-1.292043,0.629120,-0.080811,-0.413086,-1.012207,-0.053982,0.030656,0.103603,0.999974,-0.000455,-0.006460,0.003146,-0.226059,0.077004,-0.180046,-0.954228
22611,NaN,-4.254071,2.470626,10.002942,1.681881,0.382764,1.200122,0.198944,-1.462651,0.746311,-0.106201,-0.421631,-1.007812,-0.043362,0.024446,0.099739,0.999966,0.000995,-0.007313,0.003732,-0.224401,0.089976,-0.192529,-0.951042
22612,NaN,-3.521232,2.185366,9.886220,1.363616,0.824126,0.787793,0.516539,-1.635339,0.853169,-0.127441,-0.419434,-1.003418,-0.036111,0.021446,0.098625,0.999954,0.002583,-0.008177,0.004266,-0.222140,0.080795,-0.193525,-0.952194
22613,NaN,-3.131273,2.512562,10.300068,0.676016,1.089590,1.167304,0.945885,-1.743153,0.916288,-0.152588,-0.427979,-0.997070,-0.032323,0.024492,0.102839,0.999940,0.004729,-0.008716,0.004581,-0.221803,0.089497,-0.202051,-0.949721
22614,NaN,-0.787061,4.696413,9.570615,-2.108335,-0.098322,0.666498,0.888485,-1.833817,0.707848,-0.169189,-0.438721,-0.984131,-0.008914,0.046508,0.095835,0.999942,0.004442,-0.009169,0.003539,-0.220679,0.079083,-0.204542,-0.950373
22615,NaN,-1.933508,3.847300,9.271494,-0.638346,0.123739,0.388964,0.920771,-1.945583,0.634093,-0.200684,-0.447510,-0.975586,-0.020358,0.037983,0.092696,0.999937,0.004604,-0.009728,0.003170,-0.221197,0.077530,-0.209499,-0.949300
22616,NaN,0.072390,3.794861,9.121448,-2.166656,0.887922,-0.214781,1.078196,-2.006323,0.555427,-0.215576,-0.449707,-0.967041,-0.000297,0.037456,0.091418,0.999931,0.005391,-0.010031,0.002777,-0.221065,0.066227,-0.212598,-0.949498
22617,NaN,0.204132,4.136006,8.933523,-2.228500,0.627182,-0.242308,1.131127,-1.964018,0.548016,-0.238525,-0.456055,-0.954102,0.001050,0.040858,0.089581,0.999932,0.005656,-0.009820,0.002740,-0.220971,0.056349,-0.216955,-0.949172
22618,NaN,1.001250,5.044058,8.503606,-3.120934,0.049023,-0.378221,1.169761,-2.030263,0.508960,-0.265869,-0.466797,-0.937012,0.009019,0.049965,0.085424,0.999928,0.005849,-0.010151,0.002545,-0.221072,0.044865,-0.220391,-0.948969
22619,NaN,1.539221,5.689653,8.218389,-3.555446,-0.356084,-0.351652,1.011691,-1.985109,0.439798,-0.288818,-0.477539,-0.932617,0.014449,0.056512,0.082617,0.999936,0.005058,-0.009925,0.002199,-0.219726,0.027650,-0.224414,-0.948997
22620,NaN,1.884892,5.777385,8.668361,-3.678715,-0.069836,0.113523,0.866897,-1.932532,0.385045,-0.310059,-0.473389,-0.919922,0.017898,0.057432,0.087109,0.999942,0.004334,-0.009662,0.001925,-0.220174,0.017095,-0.226445,-0.948659
22621,NaN,2.366748,5.601701,8.986112,-3.563083,0.420271,0.427173,0.687257,-1.910720,0.334575,-0.329102,-0.481934,-0.911377,0.022713,0.055746,0.090273,0.999947,0.003436,-0.009553,0.001673,-0.217404,-0.004574,-0.230760,-0.948401
22622,NaN,2.462168,5.276028,9.084760,-3.307211,0.754255,0.430437,0.472491,-1.893802,0.293827,-0.352295,-0.481934,-0.898682,0.023682,0.052580,0.091199,0.999951,0.002362,-0.009469,0.001469,-0.218174,-0.014407,-0.230924,-0.948086
22623,NaN,2.392779,4.887585,9.185290,-2.590360,1.026354,0.493466,0.254985,-1.893301,0.292516,-0.367188,-0.475586,-0.890137,0.022985,0.048793,0.092136,0.999953,0.001275,-0.009466,0.001463,-0.214969,-0.037691,-0.232335,-0.947833
22624,NaN,2.220846,4.324490,8.986197,-2.067169,1.269800,0.111851,0.116534,-1.915638,0.321459,-0.386230,-0.481934,-0.881592,0.021277,0.043227,0.090094,0.999953,0.000583,-0.009578,0.001607,-0.215639,-0.047266,-0.230757,-0.947638
22625,NaN,2.387892,3.779790,8.872397,-1.605598,1.616882,-0.142473,-0.006478,-1.899155,0.388716,-0.409668,-0.479736,-0.873047,0.022961,0.037846,0.088944,0.999953,-0.000032,-0.009496,0.001944,-0.212414,-0.069449,-0.228975,-0.947432
22626,NaN,3.315976,3.428986,8.855008,-2.141710,2.226035,-0.240883,-0.023527,-1.914150,0.463149,-0.432861,-0.477783,-0.862305,0.032231,0.034376,0.088857,0.999952,-0.000118,-0.009571,0.002316,-0.212409,-0.079019,-0.226659,-0.947240
22627,NaN,4.405007,3.242082,8.388883,-2.788681,2.516942,-0.529710,-0.000551,-1.875393,0.507032,-0.447754,-0.479980,-0.855957,0.043179,0.032531,0.084296,0.999953,-0.000003,-0.009377,0.002535,-0.208693,-0.099928,-0.222578,-0.947059
22628,NaN,4.719494,3.110713,8.304749,-2.880115,2.667058,-0.565647,-0.012813,-1.803805,0.547134,-0.471436,-0.464844,-0.847412,0.046358,0.031240,0.083466,0.999956,-0.000064,-0.009019,0.002736,-0.208107,-0.109061,-0.220352,-0.946701
22629,NaN,4.535905,3.218803,8.346549,-2.372063,2.327479,-0.349427,0.032079,-1.744456,0.607311,-0.486084,-0.471436,-0.841064,0.044531,0.032311,0.083861,0.999957,0.000160,-0.008722,0.003037,-0.203545,-0.129697,-0.214653,-0.946399
22630,NaN,4.634178,3.439814,8.108604,-2.447450,2.040188,-0.383891,0.074187,-1.717412,0.674099,-0.507568,-0.460693,-0.832520,0.045527,0.034522,0.081492,0.999957,0.000371,-0.008587,0.003370,-0.202142,-0.138617,-0.212810,-0.945852
22631,NaN,4.700403,3.545075,8.121101,-2.179231,1.789107,-0.186634,0.100913,-1.667084,0.724152,-0.529053,-0.456299,-0.822021,0.046196,0.035578,0.081616,0.999959,0.000505,-0.008335,0.003621,-0.196610,-0.158238,-0.206795,-0.945273
22632,NaN,4.571077,3.606034,8.377507,-1.823865,1.698464,0.080077,0.078267,-1.626158,0.758083,-0.539551,-0.456543,-0.815674,0.044891,0.036199,0.084156,0.999960,0.000391,-0.008131,0.003790,-0.194639,-0.166779,-0.204958,-0.944613
22633,NaN,4.730893,4.110496,8.375134,-1.766439,1.135499,0.434643,0.042822,-1.620342,0.777933,-0.558838,-0.452148,-0.800781,0.046468,0.041269,0.084139,0.999960,0.000214,-0.008102,0.003890,-0.188780,-0.184853,-0.198720,-0.943770
22634,NaN,5.274040,4.520044,8.631486,-2.071480,1.017318,1.023348,-0.038727,-1.588958,0.788283,-0.575684,-0.449951,-0.794434,0.051874,0.045423,0.086721,0.999961,-0.000194,-0.007945,0.003941,-0.186667,-0.193091,-0.196301,-0.943047
22635,NaN,5.818545,4.499764,8.634026,-2.187113,1.047897,1.267247,-0.145171,-1.549705,0.783949,-0.595215,-0.437256,-0.788086,0.057337,0.045286,0.086754,0.999962,-0.000726,-0.007748,0.003920,-0.180714,-0.209377,-0.189945,-0.942032
22636,NaN,5.999562,4.542106,8.126526,-2.424108,0.844406,0.961052,-0.243336,-1.559035,0.776104,-0.607666,-0.441650,-0.773193,0.059183,0.045751,0.081673,0.999961,-0.001217,-0.007795,0.003880,-0.178787,-0.217229,-0.186570,-0.941296
22637,NaN,5.958804,4.411507,8.227576,-1.989796,0.752818,1.056194,-0.360589,-1.537269,0.789438,-0.625000,-0.430908,-0.764648,0.058779,0.044497,0.082650,0.999961,-0.001803,-0.007686,0.003947,-0.173297,-0.232635,-0.179799,-0.939958
22638,NaN,6.297929,4.148963,7.938779,-2.202090,0.932205,0.872850,-0.413859,-1.523643,0.806098,-0.642334,-0.422363,-0.762695,0.062204,0.041906,0.079777,0.999961,-0.002069,-0.007618,0.004030,-0.171353,-0.240153,-0.175590,-0.939219
22639,NaN,6.758605,3.920382,7.820489,-2.295324,1.077684,0.947197,-0.500352,-1.492179,0.829049,-0.661621,-0.409424,-0.747803,0.066837,0.039678,0.078607,0.999960,-0.002502,-0.007461,0.004145,-0.166011,-0.254524,-0.168636,-0.937667
22640,NaN,6.540084,3.975837,8.063271,-1.859656,0.870153,1.113324,-0.553521,-1.437610,0.834260,-0.672607,-0.400879,-0.745850,0.064652,0.040253,0.080988,0.999962,-0.002768,-0.007188,0.004171,-0.164010,-0.261499,-0.163779,-0.936961
22641,NaN,6.118386,3.715587,8.255128,-1.081616,0.769080,1.032733,-0.529650,-1.382520,0.824356,-0.683350,-0.394531,-0.739502,0.060457,0.037625,0.082872,0.999964,-0.002648,-0.006913,0.004122,-0.158954,-0.274740,-0.157018,-0.935199
22642,NaN,5.955062,3.555785,8.171977,-0.834069,0.709416,0.849678,-0.510965,-1.364116,0.790982,-0.702637,-0.385986,-0.735107,0.058850,0.036001,0.082031,0.999966,-0.002555,-0.006821,0.003955,-0.157023,-0.281325,-0.152452,-0.934323
22643,NaN,6.007383,3.548852,8.546223,-0.406671,0.616456,1.195158,-0.504210,-1.436287,0.740790,-0.717773,-0.377441,-0.724609,0.059326,0.035925,0.085800,0.999964,-0.002521,-0.007181,0.003704,-0.152602,-0.293627,-0.146119,-0.932280
22644,NaN,6.060094,3.826825,8.436236,-0.428161,0.238332,1.246078,-0.570938,-1.480389,0.699922,-0.726562,-0.364502,-0.716309,0.059840,0.038720,0.084697,0.999962,-0.002855,-0.007402,0.003500,-0.151253,-0.300592,-0.141295,-0.931022
22645,NaN,5.869571,4.267674,8.022192,-0.381760,-0.489119,0.986972,-0.563135,-1.505354,0.700870,-0.745850,-0.360352,-0.709961,0.057940,0.043107,0.080539,0.999962,-0.002816,-0.007527,0.003504,-0.147524,-0.311997,-0.134974,-0.928804
22646,NaN,6.114030,4.371511,7.505190,-0.774635,-0.702627,0.757220,-0.630016,-1.462757,0.706773,-0.756836,-0.347412,-0.701416,0.060434,0.044167,0.075357,0.999962,-0.003150,-0.007314,0.003534,-0.146206,-0.318791,-0.129861,-0.927433
22647,NaN,6.620918,4.190009,7.070525,-1.198256,-0.584134,0.656581,-0.761817,-1.360441,0.708792,-0.769775,-0.336670,-0.688721,0.065577,0.042403,0.070992,0.999963,-0.003809,-0.006802,0.003544,-0.143565,-0.328599,-0.123260,-0.925321
22648,NaN,7.123527,4.100612,7.266204,-1.321041,-0.434229,1.069463,-0.867734,-1.270337,0.676660,-0.780762,-0.326172,-0.688721,0.070633,0.041562,0.072932,0.999965,-0.004339,-0.006352,0.003383,-0.142638,-0.334259,-0.117218,-0.924221
22649,NaN,8.456038,4.050653,7.474794,-1.976996,-0.071946,2.013927,-0.970970,-1.124306,0.570129,-0.791748,-0.311035,-0.680420,0.084023,0.041110,0.075023,0.999968,-0.004855,-0.005621,0.002851,-0.141737,-0.342444,-0.110369,-0.922205
22650,NaN,5.966483,3.818385,7.254730,-0.193632,-0.849029,0.289299,-0.993828,-1.086278,0.431376,-0.806885,-0.302490,-0.672119,0.059187,0.038673,0.072678,0.999971,-0.004969,-0.005431,0.002157,-0.142045,-0.346976,-0.104275,-0.921172
22651,NaN,4.547959,3.032748,6.864718,0.834733,-0.751454,-1.109644,-1.010447,-1.174900,0.417177,-0.802734,-0.302490,-0.672119,0.045012,0.030769,0.068758,0.999968,-0.005052,-0.005874,0.002086,-0.142705,-0.354964,-0.097634,-0.918751
22652,NaN,3.334991,2.145095,6.978303,2.006009,-0.420884,-2.052681,-0.981330,-1.232372,0.466875,-0.820068,-0.283203,-0.667969,0.032869,0.021871,0.069880,0.999966,-0.004907,-0.006162,0.002334,-0.142899,-0.360141,-0.091415,-0.917345
22653,NaN,3.421466,1.773982,6.834429,2.020186,-0.165398,-2.232914,-0.842397,-1.323779,0.539441,-0.833008,-0.276855,-0.655273,0.033713,0.018119,0.068493,0.999966,-0.004212,-0.006619,0.002697,-0.142880,-0.367797,-0.085390,-0.914887
22654,NaN,3.034070,1.986939,6.732454,2.252419,-0.593492,-2.528973,-0.615635,-1.405376,0.606789,-0.843750,-0.268311,-0.640381,0.029806,0.020168,0.067473,0.999966,-0.003078,-0.007027,0.003034,-0.141832,-0.374033,-0.080451,-0.912968
22655,NaN,2.865751,2.334666,6.955812,2.558670,-1.060979,-2.438924,-0.492879,-1.588855,0.673891,-0.854736,-0.259766,-0.632080,0.028025,0.023613,0.069724,0.999960,-0.002464,-0.007944,0.003369,-0.140556,-0.382076,-0.075659,-0.910240
22656,NaN,3.896603,2.733815,6.671104,1.693703,-1.215807,-1.887278,-0.417208,-1.692160,0.699518,-0.865479,-0.251221,-0.621338,0.038304,0.027612,0.066980,0.999956,-0.002086,-0.008461,0.003498,-0.138803,-0.389732,-0.071232,-0.907617
22657,NaN,5.003700,2.919850,6.505385,0.933717,-1.145758,-1.228067,-0.349730,-1.756540,0.693329,-0.876221,-0.249268,-0.600342,0.049362,0.029485,0.065438,0.999954,-0.001749,-0.008783,0.003467,-0.137518,-0.397780,-0.067100,-0.904631
22658,NaN,5.883545,3.058315,6.408683,0.407931,-1.109064,-0.667114,-0.323967,-1.820594,0.668639,-0.893311,-0.236328,-0.587646,0.058146,0.030883,0.064568,0.999952,-0.001620,-0.009103,0.003343,-0.135742,-0.405997,-0.063050,-0.901535
22659,NaN,6.317145,3.131548,6.136153,0.061290,-1.139516,-0.535820,-0.347640,-1.859003,0.645353,-0.908203,-0.234131,-0.574951,0.062496,0.031625,0.061890,0.999950,-0.001738,-0.009295,0.003227,-0.135298,-0.414228,-0.058968,-0.898127
22660,NaN,6.501489,2.901210,6.052135,0.082076,-0.963822,-0.518809,-0.367369,-1.902628,0.608713,-0.919189,-0.223633,-0.560059,0.064347,0.029320,0.061082,0.999948,-0.001837,-0.009513,0.003044,-0.133879,-0.422681,-0.054767,-0.894660
22661,NaN,6.681531,2.596065,6.155524,0.267087,-0.705865,-0.394604,-0.366448,-1.945854,0.560359,-0.929932,-0.217285,-0.536865,0.066139,0.026260,0.062153,0.999947,-0.001832,-0.009729,0.002802,-0.134469,-0.431182,-0.050630,-0.890751
22662,NaN,6.816694,2.290415,6.013723,0.300740,-0.466675,-0.454969,-0.336726,-1.993373,0.503583,-0.936279,-0.210938,-0.521973,0.067505,0.023177,0.060773,0.999946,-0.001684,-0.009967,0.002518,-0.133449,-0.439938,-0.046701,-0.886829
22663,NaN,6.940886,2.108606,5.772204,0.239196,-0.324081,-0.551201,-0.285827,-2.046149,0.435003,-0.957764,-0.204346,-0.505127,0.068768,0.021319,0.058397,0.999944,-0.001429,-0.010231,0.002175,-0.134543,-0.448755,-0.043027,-0.882420
22664,NaN,6.950734,1.806661,5.755345,0.453924,-0.113550,-0.621460,-0.207681,-2.075960,0.402528,-0.961914,-0.200195,-0.484131,0.068868,0.018266,0.058252,0.999944,-0.001038,-0.010380,0.002013,-0.133672,-0.457836,-0.039809,-0.878028
22665,NaN,6.909679,1.822288,5.220278,0.208659,-0.174272,-0.967415,-0.108105,-2.108556,0.380835,-0.974609,-0.198242,-0.464844,0.068506,0.018382,0.052917,0.999942,-0.000541,-0.010543,0.001904,-0.134434,-0.466874,-0.036912,-0.873266
22666,NaN,6.904992,1.830402,4.757228,0.001846,-0.221665,-1.233148,0.023329,-2.143017,0.375986,-0.983398,-0.191895,-0.441650,0.068500,0.018428,0.048310,0.999941,0.000117,-0.010715,0.001880,-0.133125,-0.476288,-0.034694,-0.868461
22667,NaN,7.020342,1.773510,4.600622,-0.002915,-0.175831,-1.235839,0.097636,-2.183159,0.380301,-0.996094,-0.185547,-0.416260,0.069662,0.017845,0.046777,0.999938,0.000488,-0.010916,0.001901,-0.133263,-0.485681,-0.032567,-0.863304
22668,NaN,7.060909,1.200783,4.580535,0.254279,0.327939,-1.321257,0.139743,-2.204765,0.371673,-1.002441,-0.185547,-0.397217,0.070076,0.012106,0.046588,0.999937,0.000699,-0.011024,0.001858,-0.131670,-0.495321,-0.030796,-0.858121
22669,NaN,7.288553,0.861090,4.349664,0.197963,0.682552,-1.311171,0.161227,-2.272400,0.351276,-1.008789,-0.179199,-0.376221,0.072370,0.008703,0.044328,0.999934,0.000806,-0.011362,0.001756,-0.131495,-0.505017,-0.028903,-0.852544
22670,NaN,7.401971,0.804491,4.335284,0.339179,0.710964,-1.233239,0.275568,-2.381971,0.340073,-1.023682,-0.179199,-0.348633,0.073483,0.008110,0.044241,0.999927,0.001378,-0.011910,0.001700,-0.129684,-0.515364,-0.027651,-0.846651
22671,NaN,7.734427,0.907662,3.811485,-0.081894,0.691846,-1.170740,0.404387,-2.490454,0.329410,-1.027832,-0.177246,-0.323242,0.076847,0.009125,0.039092,0.999919,0.002022,-0.012452,0.001647,-0.128220,-0.525970,-0.026822,-0.840355
22672,NaN,7.957320,0.744824,3.486541,-0.220751,0.881196,-1.140866,0.399100,-2.459778,0.334001,-1.031982,-0.177246,-0.297852,0.079124,0.007510,0.035855,0.999921,0.001995,-0.012299,0.001670,-0.126087,-0.536564,-0.026042,-0.833980
22673,NaN,8.086492,0.620196,3.037673,-0.442237,1.025207,-1.224748,0.502609,-2.530360,0.328879,-1.044434,-0.179443,-0.263916,0.080462,0.006256,0.031412,0.999915,0.002513,-0.012651,0.001644,-0.123798,-0.547282,-0.025677,-0.827344
22674,NaN,8.183048,0.575367,2.609090,-0.641614,1.082424,-1.297230,0.621491,-2.610227,0.348799,-1.046631,-0.175293,-0.244873,0.081470,0.005813,0.027174,0.999908,0.003107,-0.013051,0.001744,-0.120978,-0.558459,-0.025675,-0.820261
22675,NaN,8.315380,0.378371,1.804770,-1.181570,1.324923,-1.482603,0.604846,-2.552412,0.400061,-1.055176,-0.166748,-0.217529,0.082907,0.003893,0.019118,0.999912,0.003024,-0.012762,0.002000,-0.117534,-0.569246,-0.025643,-0.813319
22676,NaN,8.188697,0.124499,1.412222,-1.260365,1.525136,-1.741358,0.581287,-2.497927,0.481397,-1.065918,-0.164795,-0.187988,0.081699,0.001399,0.015147,0.999915,0.002906,-0.012489,0.002407,-0.114232,-0.579758,-0.025166,-0.806348
22677,NaN,7.946033,0.357750,0.926460,-1.484038,1.223518,-2.039482,0.632604,-2.548622,0.552731,-1.065918,-0.158447,-0.156250,0.079323,0.003765,0.010288,0.999910,0.003163,-0.012743,0.002764,-0.109479,-0.590523,-0.024963,-0.799171
22678,NaN,7.917818,0.942844,1.079033,-1.219990,0.569637,-1.879938,0.507843,-2.523045,0.620165,-1.070312,-0.152100,-0.137207,0.079004,0.009644,0.011812,0.999912,0.002539,-0.012615,0.003101,-0.105807,-0.600908,-0.023778,-0.791928
22679,NaN,8.007218,1.281801,0.327014,-1.812430,0.242648,-1.905845,0.322467,-2.435066,0.665655,-1.070312,-0.145752,-0.101318,0.079981,0.013078,0.004265,0.999919,0.001612,-0.012175,0.003328,-0.101354,-0.611009,-0.022102,-0.784797
22680,NaN,7.999645,1.613304,0.364608,-1.634854,-0.159239,-1.810894,0.072173,-2.330034,0.681664,-1.072266,-0.143555,-0.086426,0.079891,0.016404,0.004583,0.999926,0.000361,-0.011650,0.003408,-0.098708,-0.620219,-0.019120,-0.777959
22681,NaN,7.958522,1.388807,0.454300,-1.328608,-0.037234,-1.831224,-0.002962,-2.219905,0.713750,-1.079102,-0.130859,-0.056885,0.079478,0.014172,0.005425,0.999932,-0.000015,-0.011099,0.003569,-0.095449,-0.629298,-0.015929,-0.771116
22682,NaN,7.793610,0.970731,0.598575,-0.938813,0.256947,-1.996620,-0.081271,-2.178133,0.698895,-1.079102,-0.128662,-0.044434,0.077830,0.009982,0.006830,0.999935,-0.000406,-0.010890,0.003494,-0.093177,-0.637672,-0.012376,-0.764552
22683,NaN,7.328257,0.477755,0.319801,-0.905981,0.621480,-2.544636,-0.216654,-2.165127,0.629733,-1.079102,-0.120117,-0.016846,0.073227,0.005012,0.003986,0.999936,-0.001083,-0.010825,0.003149,-0.091194,-0.646323,-0.008484,-0.757547
22684,NaN,7.249161,-0.058922,0.133028,-0.864138,1.095359,-2.697706,-0.251371,-2.040696,0.601853,-1.083496,-0.111816,0.001953,0.072474,-0.000369,0.002070,0.999943,-0.001257,-0.010203,0.003009,-0.089808,-0.653927,-0.004656,-0.751194
22685,NaN,7.454729,-0.210138,0.305856,-0.556336,1.188449,-2.465105,-0.287244,-1.880824,0.558667,-1.085693,-0.107422,0.023193,0.074520,-0.001888,0.003762,0.999951,-0.001436,-0.009404,0.002793,-0.088035,-0.661343,-0.000994,-0.744899
22686,NaN,7.791818,-0.316416,0.772978,0.013841,1.225124,-2.072716,-0.353335,-1.764568,0.507579,-1.077393,-0.101074,0.042236,0.077854,-0.002952,0.008422,0.999956,-0.001767,-0.008823,0.002538,-0.087318,-0.667733,0.002777,-0.739257
22687,NaN,8.088303,-0.285894,0.807546,0.154171,1.161042,-1.764021,-0.354437,-1.671994,0.463447,-1.077393,-0.099121,0.063232,0.080818,-0.002657,0.008756,0.999961,-0.001772,-0.008360,0.002317,-0.085568,-0.674201,0.005937,-0.733550
22688,NaN,8.133918,-0.357672,0.364411,-0.151210,1.236235,-1.758577,-0.232517,-1.573091,0.454360,-1.073242,-0.094727,0.067383,0.081315,-0.003387,0.004288,0.999966,-0.001163,-0.007865,0.002272,-0.084636,-0.679835,0.008994,-0.728409
22689,NaN,8.311716,-0.831894,0.262302,-0.076548,1.673520,-1.625038,-0.018878,-1.465143,0.442884,-1.071289,-0.086182,0.086426,0.083113,-0.008135,0.003233,0.999971,-0.000094,-0.007326,0.002214,-0.081602,-0.685538,0.010610,-0.723372
22690,NaN,8.902632,-1.033564,0.855473,0.620466,1.804868,-1.014208,0.021459,-1.256179,0.456315,-1.071289,-0.084229,0.101074,0.088994,-0.010134,0.009113,0.999978,0.000107,-0.006281,0.002282,-0.079810,-0.690050,0.012609,-0.719237
22691,NaN,9.453403,-1.029045,1.332253,1.181004,1.725741,-0.441108,-0.034469,-1.180293,0.452012,-1.075684,-0.077881,0.111816,0.094476,-0.010075,0.013882,0.999980,-0.000172,-0.005901,0.002260,-0.076780,-0.694588,0.014347,-0.715155
22692,NaN,9.651521,-0.801679,1.093638,1.012047,1.492094,-0.234642,-0.015096,-1.076908,0.444666,-1.064941,-0.075684,0.124268,0.096472,-0.007801,0.011457,0.999983,-0.000075,-0.005385,0.002223,-0.075164,-0.698389,0.016358,-0.711572
22693,NaN,9.830792,-0.877883,0.599926,0.615818,1.577964,-0.070764,0.093533,-0.907685,0.421178,-1.065186,-0.069336,0.128418,0.098298,-0.008575,0.006441,0.999987,0.000468,-0.004538,0.002106,-0.070762,-0.701871,0.016561,-0.708587
22694,NaN,9.955864,-0.768578,0.662989,0.739654,1.421514,0.065629,0.129712,-0.748489,0.412811,-1.062988,-0.069336,0.134766,0.099549,-0.007485,0.006998,0.999991,0.000649,-0.003742,0.002064,-0.068782,-0.704528,0.017815,-0.706111
22695,NaN,10.026937,-0.442290,0.501136,0.605037,1.060404,0.162043,0.180471,-0.633104,0.406469,-1.065430,-0.058594,0.143311,0.100262,-0.004224,0.005325,0.999993,0.000902,-0.003166,0.002032,-0.066450,-0.706899,0.019634,-0.703913
22696,NaN,10.074713,0.023798,0.251589,0.354829,0.586191,0.241854,0.252954,-0.545098,0.389281,-1.065430,-0.054443,0.151611,0.100739,0.000431,0.002791,0.999994,0.001265,-0.002725,0.001946,-0.064132,-0.708858,0.020301,-0.702136
22697,NaN,10.067087,0.528486,0.205964,0.297169,0.029321,0.265927,0.361597,-0.468192,0.364652,-1.065430,-0.052246,0.156006,0.100656,0.005464,0.002305,0.999994,0.001808,-0.002341,0.001823,-0.058536,-0.710728,0.018880,-0.700773
22698,NaN,10.049134,0.992483,0.321075,0.403319,-0.484574,0.270738,0.439473,-0.397791,0.347268,-1.065674,-0.045654,0.155762,0.100467,0.010092,0.003433,0.999994,0.002197,-0.001989,0.001736,-0.055720,-0.712214,0.018690,-0.699498
22699,NaN,10.116838,1.382941,0.136436,0.222651,-0.902025,0.356781,0.559198,-0.342480,0.329728,-1.063721,-0.039307,0.164307,0.101143,0.013992,0.001577,0.999993,0.002796,-0.001712,0.001649,-0.050872,-0.713597,0.017401,-0.698490
22700,NaN,10.039237,1.652263,-0.142222,-0.044026,-1.182502,0.293548,0.583468,-0.311900,0.305508,-1.065918,-0.037109,0.162109,0.100369,0.016680,-0.001217,0.999993,0.002917,-0.001559,0.001528,-0.047695,-0.714804,0.016533,-0.697501
22701,NaN,10.074570,1.919716,-0.788760,-0.671152,-1.437988,0.350282,0.514673,-0.289286,0.275119,-1.068115,-0.035156,0.170654,0.100730,0.019356,-0.007692,0.999995,0.002573,-0.001446,0.001376,-0.043623,-0.715943,0.015430,-0.696624
22702,NaN,10.340411,2.112319,-1.088430,-0.943472,-1.625180,0.629495,0.322108,-0.271934,0.195958,-1.065918,-0.032959,0.178955,0.103398,0.021242,-0.010710,0.999997,0.001611,-0.001360,0.000980,-0.041767,-0.716943,0.015069,-0.695716
22703,NaN,10.665569,2.009317,-1.229325,-1.014792,-1.544762,0.952385,0.168734,-0.238416,0.109309,-1.066162,-0.026611,0.176758,0.106659,0.020162,-0.012149,0.999999,0.000844,-0.001192,0.000547,-0.036389,-0.717989,0.011231,-0.695012
22704,NaN,10.501704,1.709244,-0.987101,-0.735883,-1.277172,0.770741,0.074180,-0.159595,0.014351,-1.061768,-0.028809,0.178955,0.105024,0.017104,-0.009781,1.000000,0.000371,-0.000798,0.000072,-0.036064,-0.718556,0.011054,-0.694445
22705,NaN,10.173410,1.182212,-0.478351,-0.185607,-0.802987,0.407169,-0.063951,-0.104826,-0.077532,-1.061768,-0.030762,0.185303,0.101741,0.011781,-0.004734,1.000000,-0.000320,-0.000524,-0.000388,-0.035182,-0.719045,0.010107,-0.693999
22706,NaN,10.028435,0.579737,-0.038777,0.294272,-0.223996,0.225755,-0.237596,-0.070660,-0.156984,-1.061768,-0.035156,0.178955,0.100289,0.005718,-0.000359,0.999999,-0.001188,-0.000353,-0.000785,-0.036577,-0.719256,0.010379,-0.693704
22707,NaN,9.885313,-0.068541,0.502247,0.879559,0.398494,0.038399,-0.352431,-0.052124,-0.192595,-1.067871,-0.039307,0.178955,0.098851,-0.000772,0.005050,0.999998,-0.001762,-0.000261,-0.000963,-0.036162,-0.719577,0.008781,-0.693415
22708,NaN,9.598681,-0.536489,0.655923,1.057652,0.860090,-0.273593,-0.362458,-0.036787,-0.178147,-1.059570,-0.032959,0.183105,0.095981,-0.005438,0.006587,0.999998,-0.001812,-0.000184,-0.000891,-0.038082,-0.719645,0.009404,-0.693233
22709,NaN,9.432180,-0.831856,0.175816,0.598943,1.189072,-0.436320,-0.220864,-0.043852,-0.118793,-1.057373,-0.039307,0.181152,0.094316,-0.008373,0.001788,0.999999,-0.001104,-0.000219,-0.000594,-0.038985,-0.719801,0.009748,-0.693016
22710,NaN,9.486307,-0.870291,-0.119783,0.314368,1.256671,-0.374270,-0.044611,-0.036972,-0.031641,-1.059326,-0.041504,0.185303,0.094862,-0.008718,-0.001178,1.000000,-0.000223,-0.000185,-0.000158,-0.039253,-0.719922,0.009796,-0.692874
22711,NaN,9.546628,-0.212232,-0.572600,-0.178209,0.626816,-0.268770,0.111260,-0.012446,0.063656,-1.067871,-0.041504,0.181152,0.095467,-0.002089,-0.005721,1.000000,0.000556,-0.000062,0.000318,-0.037033,-0.720076,0.008385,-0.692855
22712,NaN,9.744682,0.711682,-0.673845,-0.329224,-0.290272,-0.028684,0.200720,-0.001974,0.124757,-1.061523,-0.039307,0.181152,0.097442,0.007184,-0.006730,0.999999,0.001004,-0.000010,0.000624,-0.035878,-0.720115,0.008140,-0.692879
22713,NaN,9.935435,1.159242,-0.416287,-0.092676,-0.762656,0.169284,0.192608,0.015353,0.138360,-1.061768,-0.032959,0.185303,0.099346,0.011665,-0.004159,0.999999,0.000963,0.000077,0.000692,-0.034719,-0.720081,0.008198,-0.692972
22714,NaN,9.898174,1.285616,-0.169541,0.144081,-0.918821,0.126649,0.103167,0.009124,0.125081,-1.061768,-0.032959,0.178955,0.098974,0.012919,-0.001693,1.000000,0.000516,0.000046,0.000625,-0.033915,-0.720062,0.008290,-0.693031
22715,NaN,9.840910,1.090048,-0.202933,0.122065,-0.740016,0.062046,0.016867,-0.024086,0.082561,-1.061768,-0.032959,0.185303,0.098405,0.010941,-0.002017,1.000000,0.000084,-0.000120,0.000413,-0.032976,-0.720173,0.008353,-0.692960
22716,NaN,9.823912,0.826601,-0.475938,-0.132248,-0.468134,0.045425,-0.075252,-0.059135,0.048259,-1.061768,-0.032959,0.181152,0.098239,0.008288,-0.004733,1.000000,-0.000376,-0.000296,0.000241,-0.033077,-0.720364,0.008797,-0.692751
22717,NaN,9.858523,0.703590,-0.744488,-0.382861,-0.334532,0.085862,-0.108624,-0.101090,0.014701,-1.057373,-0.032959,0.187500,0.098588,0.007039,-0.007399,1.000000,-0.000543,-0.000505,0.000074,-0.032773,-0.720746,0.008780,-0.692368
22718,NaN,9.855112,0.635593,-0.764091,-0.388967,-0.265916,0.081201,-0.120726,-0.109460,-0.002792,-1.061768,-0.032959,0.183105,0.098555,0.006350,-0.007591,1.000000,-0.000604,-0.000547,-0.000014,-0.033213,-0.721105,0.009206,-0.691968
22719,NaN,9.762628,0.556574,-0.439782,-0.052093,-0.210592,-0.026727,-0.113062,-0.116695,-0.017401,-1.061768,-0.032959,0.187500,0.097629,0.005555,-0.004344,1.000000,-0.000565,-0.000583,-0.000087,-0.033299,-0.721568,0.009294,-0.691480
22720,NaN,9.795771,0.316264,-0.119236,0.294333,0.012430,-0.015516,-0.145945,-0.116969,-0.024638,-1.061523,-0.035156,0.191650,0.097959,0.003150,-0.001137,1.000000,-0.000730,-0.000585,-0.000123,-0.033905,-0.721949,0.009730,-0.691047
22721,NaN,9.877646,-0.122542,-0.005971,0.450520,0.446384,0.045340,-0.183204,-0.120249,-0.022319,-1.061523,-0.039551,0.189697,0.098776,-0.001236,0.000001,0.999999,-0.000916,-0.000601,-0.000112,-0.033483,-0.722444,0.009268,-0.690557
22722,NaN,9.892353,-0.397577,-0.156806,0.329317,0.731242,0.056362,-0.200692,-0.113305,-0.005225,-1.057617,-0.031006,0.191650,0.098924,-0.003980,-0.001508,0.999999,-0.001003,-0.000567,-0.000026,-0.034220,-0.722801,0.009961,-0.690136
22723,NaN,9.987353,-0.447877,-0.092689,0.412023,0.778319,0.146271,-0.194688,-0.099212,0.010011,-1.061768,-0.032959,0.189453,0.099874,-0.004475,-0.000873,0.999999,-0.000973,-0.000496,0.000050,-0.034340,-0.723151,0.010260,-0.689759
22724,NaN,9.969147,-0.350584,-0.171396,0.336011,0.683472,0.134983,-0.129373,-0.077777,0.026765,-1.057617,-0.031006,0.191650,0.099693,-0.003494,-0.001673,1.000000,-0.000647,-0.000389,0.000134,-0.034712,-0.723396,0.010817,-0.689476
22725,NaN,9.802459,-0.030685,-0.622995,-0.137626,0.381112,0.001236,0.059556,-0.051173,0.002060,-1.059326,-0.039551,0.193848,0.098026,-0.000304,-0.006205,1.000000,0.000298,-0.000256,0.000010,-0.034648,-0.723519,0.011214,-0.689343
22726,NaN,9.135830,-0.353487,-1.350333,-0.858896,0.722801,-0.639273,0.349577,-0.314231,0.072806,-1.059570,-0.035156,0.195801,0.091381,-0.003478,-0.013366,0.999997,0.001748,-0.001571,0.000364,-0.033115,-0.724657,0.010328,-0.688236
22727,NaN,9.438104,0.707167,-0.801379,-0.325493,-0.371321,-0.327112,0.540451,-0.377519,0.020486,-1.053223,-0.032959,0.202148,0.094395,0.007103,-0.007816,0.999995,0.002702,-0.001888,0.000102,-0.030423,-0.726079,0.007905,-0.686892
22728,NaN,10.282633,0.296726,-0.316137,0.264683,0.033953,0.475618,0.696842,-0.317870,-0.057621,-1.051025,-0.032959,0.200195,0.102832,0.002948,-0.002988,0.999993,0.003484,-0.001589,-0.000288,-0.028079,-0.727274,0.005351,-0.685752
22729,NaN,10.487719,0.027407,0.788620,1.419635,0.255051,0.605301,0.271346,-0.196788,0.010653,-1.055420,-0.031006,0.204346,0.104869,0.000269,0.007990,0.999999,0.001357,-0.000984,0.000053,-0.027167,-0.728013,0.004694,-0.685009
22730,NaN,10.357848,0.124421,0.491738,1.114795,0.166715,0.496130,0.034074,0.132373,0.030445,-1.057373,-0.032959,0.200195,0.103582,0.001259,0.004849,1.000000,0.000170,0.000662,0.000152,-0.026942,-0.727563,0.004670,-0.685495
22731,NaN,9.702102,0.450037,-0.422160,0.129882,-0.140754,-0.092871,0.033327,0.187782,0.041890,-1.059570,-0.031006,0.202148,0.097016,0.004521,-0.004312,1.000000,0.000167,0.000939,0.000209,-0.026740,-0.726789,0.004852,-0.686323
22732,NaN,9.769442,0.586012,-0.823138,-0.283763,-0.260485,0.001312,0.135170,0.057625,0.041899,-1.061768,-0.028809,0.202148,0.097691,0.005886,-0.008256,1.000000,0.000676,0.000288,0.000209,-0.026106,-0.726608,0.004533,-0.686541
22733,NaN,9.895204,0.712150,-0.548605,-0.008689,-0.404196,0.115038,0.119507,-0.040698,0.057358,-1.064209,-0.022217,0.197998,0.098951,0.007153,-0.005462,1.000000,0.000598,-0.000203,0.000287,-0.024586,-0.726727,0.003655,-0.686476
22734,NaN,9.896460,0.789917,-0.271036,0.270149,-0.499718,0.102687,0.086054,-0.048465,0.062132,-1.057617,-0.026611,0.202148,0.098963,0.007931,-0.002683,1.000000,0.000430,-0.000242,0.000311,-0.024059,-0.726903,0.003592,-0.686309
22735,NaN,9.796127,0.781131,-0.085496,0.449236,-0.512872,-0.008773,0.089221,-0.009001,0.046168,-1.055420,-0.028809,0.204346,0.097960,0.007834,-0.000847,1.000000,0.000446,-0.000045,0.000231,-0.023212,-0.726812,0.003541,-0.686435
22736,NaN,9.750551,0.602034,-0.062124,0.476203,-0.339869,-0.060904,0.114236,0.027380,0.029437,-1.055420,-0.024414,0.204346,0.097505,0.006035,-0.000631,1.000000,0.000571,0.000137,0.000147,-0.022696,-0.726730,0.003253,-0.686540
22737,NaN,9.721002,0.463502,-0.070971,0.470215,-0.204024,-0.093890,0.137334,0.041879,0.008823,-1.059814,-0.024414,0.199951,0.097210,0.004640,-0.000727,1.000000,0.000687,0.000209,0.000044,-0.021187,-0.726670,0.001882,-0.686657
22738,NaN,9.794608,0.402316,-0.167967,0.376175,-0.138823,-0.016585,0.159712,0.040157,0.012144,-1.061768,-0.026611,0.202148,0.097945,0.004030,-0.001696,1.000000,0.000799,0.000201,0.000061,-0.020565,-0.726549,0.001374,-0.686806
22739,NaN,9.791879,0.460448,-0.084013,0.452513,-0.201748,-0.022156,0.182787,0.031135,0.009802,-1.057617,-0.028809,0.202148,0.097918,0.004610,-0.000851,1.000000,0.000914,0.000156,0.000049,-0.019638,-0.726362,0.000624,-0.687032
22740,NaN,9.782411,0.469306,-0.024033,0.509663,-0.214226,-0.034613,0.191617,0.025306,0.022083,-1.059814,-0.024414,0.208496,0.097824,0.004704,-0.000248,1.000000,0.000958,0.000127,0.000110,-0.018866,-0.726293,0.000044,-0.687126
22741,NaN,9.798071,0.511649,0.033047,0.569041,-0.257045,-0.021099,0.207209,0.016986,0.023969,-1.057617,-0.022461,0.202148,0.097980,0.005128,0.000327,0.999999,0.001036,0.000085,0.000120,-0.016482,-0.726342,-0.002244,-0.687132
22742,NaN,9.816049,0.582079,0.002593,0.537644,-0.328525,0.000398,0.220677,0.018988,0.021474,-1.059814,-0.020264,0.195801,0.098160,0.005831,0.000023,0.999999,0.001103,0.000095,0.000107,-0.015606,-0.726295,-0.002925,-0.687199
22743,NaN,9.830919,0.584491,-0.035772,0.493542,-0.334680,0.017586,0.213286,0.028151,0.011262,-1.059814,-0.026611,0.202148,0.098309,0.005851,-0.000365,0.999999,0.001066,0.000141,0.000056,-0.015363,-0.726050,-0.002846,-0.687465
22744,NaN,9.828905,0.637304,-0.044307,0.482038,-0.388057,0.017498,0.185289,0.036604,0.001738,-1.059814,-0.022461,0.204346,0.098289,0.006374,-0.000455,1.000000,0.000926,0.000183,0.000009,-0.014683,-0.725938,-0.003479,-0.687595
22745,NaN,9.854380,0.632120,0.148655,0.675063,-0.380944,0.032599,0.132678,0.035059,-0.013721,-1.057861,-0.022217,0.195801,0.098544,0.006313,0.001473,1.000000,0.000663,0.000175,-0.000069,-0.013400,-0.725833,-0.005029,-0.687722
22746,NaN,9.843395,0.691473,0.107280,0.630106,-0.438349,0.025650,0.094480,0.029412,-0.017031,-1.059814,-0.022217,0.197998,0.098435,0.006906,0.001062,1.000000,0.000472,0.000147,-0.000085,-0.013114,-0.725738,-0.005417,-0.687825
22747,NaN,9.857853,0.735812,-0.122647,0.391021,-0.478231,0.054031,0.118563,0.033980,-0.008011,-1.059814,-0.020264,0.197998,0.098579,0.007355,-0.001239,1.000000,0.000593,0.000170,-0.000040,-0.013581,-0.725413,-0.005018,-0.688162
22748,NaN,9.832022,0.829070,-0.317118,0.191459,-0.569262,0.041036,0.166700,0.048978,-0.005813,-1.059814,-0.024414,0.202148,0.098320,0.008290,-0.003188,1.000000,0.000833,0.000245,-0.000029,-0.012995,-0.725255,-0.005616,-0.688334
22749,NaN,9.838822,0.748776,-0.378904,0.125963,-0.487468,0.049014,0.207448,0.056155,-0.001069,-1.062012,-0.020264,0.199951,0.098387,0.007491,-0.003809,0.999999,0.001037,0.000281,-0.000005,-0.011927,-0.725011,-0.006732,-0.688601
22750,NaN,9.826736,0.732387,-0.229457,0.270408,-0.473741,0.028869,0.215891,0.062714,0.011645,-1.062012,-0.020264,0.195801,0.098266,0.007332,-0.002317,0.999999,0.001079,0.000314,0.000058,-0.011102,-0.724808,-0.007436,-0.688821
22751,NaN,9.792976,0.662765,-0.062485,0.427955,-0.407759,-0.014926,0.201832,0.057397,0.016517,-1.059814,-0.022461,0.204346,0.097929,0.006636,-0.000646,0.999999,0.001009,0.000287,0.000083,-0.009942,-0.724485,-0.008424,-0.689167
22752,NaN,9.697667,0.540208,-0.030049,0.452265,-0.289996,-0.114810,0.192399,0.038793,0.026600,-1.062012,-0.018066,0.202148,0.096976,0.005415,-0.000314,1.000000,0.000962,0.000194,0.000133,-0.009151,-0.724362,-0.008992,-0.689300
22753,NaN,9.709329,0.435204,0.118683,0.604191,-0.184729,-0.113441,0.167969,0.018619,0.027710,-1.057861,-0.020264,0.195801,0.097093,0.004364,0.001181,1.000000,0.000840,0.000093,0.000139,-0.007289,-0.724435,-0.010735,-0.689221
22754,NaN,9.715350,0.396934,-0.047726,0.437446,-0.149789,-0.100114,0.141052,0.008155,0.030352,-1.062012,-0.018066,0.197998,0.097153,0.003984,-0.000478,1.000000,0.000705,0.000041,0.000152,-0.006673,-0.724414,-0.011111,-0.689243
22755,NaN,9.787065,0.471900,-0.165725,0.320244,-0.224677,-0.020662,0.127228,-0.003562,0.027096,-1.060059,-0.015869,0.193604,0.097870,0.004733,-0.001652,1.000000,0.000636,-0.000018,0.000135,-0.006264,-0.724300,-0.011442,-0.689361
