// Start Time: Unknown
// Update Rate: 100.0Hz
// Filter Profile: human (46.1)
// Firmware Version: 4.4.0
PacketCounter,SampleTimeFine,Acc_X,Acc_Y,Acc_Z,FreeAcc_X,FreeAcc_Y,FreeAcc_Z,Gyr_X,Gyr_Y,Gyr_Z,Mag_X,Mag_Y,Mag_Z,VelInc_X,VelInc_Y,VelInc_Z,OriInc_q0,OriInc_q1,OriInc_q2,OriInc_q3,Quat_q0,Quat_q1,Quat_q2,Quat_q3
38254,NaN,10.587800,1.386823,0.530169,0.000000,0.000000,0.878693,-1.471058,0.048207,0.386238,-0.883545,0.288086,-0.159424,0.105852,0.014111,0.005173,0.999971,-0.007355,0.000241,0.001931,0.545241,-0.381207,-0.574882,-0.476345
38255,NaN,10.286570,0.443061,0.418861,0.000000,0.000000,0.491927,-1.631556,-0.005229,0.386944,-0.877441,0.298828,-0.146729,0.102857,0.004664,0.004154,0.999965,-0.008158,-0.000026,0.001935,0.570518,-0.398513,-0.566597,-0.441208
38256,NaN,10.366162,0.490313,0.045470,-0.314123,-0.515403,0.547589,-1.785368,-0.046518,0.408872,-0.877686,0.305176,-0.144531,0.103651,0.005119,0.000434,0.999958,-0.008927,-0.000233,0.002044,0.552234,-0.398309,-0.564663,-0.466416
38257,NaN,10.023015,0.647129,-0.151160,-0.047252,-0.638573,0.211898,-1.919717,-0.066907,0.417502,-0.875732,0.305176,-0.138184,0.100217,0.006666,-0.001541,0.999952,-0.009598,-0.000335,0.002087,0.549169,-0.404925,-0.559512,-0.470527
38258,NaN,9.697147,0.699725,-0.272722,0.093854,-0.717853,-0.113491,-2.006717,-0.088012,0.436419,-0.876221,0.318115,-0.127686,0.096957,0.007181,-0.002756,0.999947,-0.010033,-0.000440,0.002182,0.545860,-0.411899,-0.554184,-0.474611
38259,NaN,9.561685,-0.166848,-0.017445,-0.757680,-0.630471,-0.300473,-2.026915,-0.097122,0.468069,-0.876465,0.324463,-0.119141,0.095620,-0.001446,-0.000113,0.999946,-0.010134,-0.000486,0.002340,0.542498,-0.418936,-0.548645,-0.478724
38260,NaN,9.072833,-0.592034,0.250819,-1.148438,-0.369310,-0.797469,-2.006598,-0.089889,0.505853,-0.870117,0.333008,-0.110840,0.090742,-0.005665,0.002607,0.999946,-0.010033,-0.000449,0.002529,0.538828,-0.426776,-0.543594,-0.481698
38261,NaN,8.543305,-1.052632,0.597013,-1.583598,-0.045350,-1.330805,-2.040863,-0.090544,0.533843,-0.872314,0.330811,-0.106445,0.085458,-0.010236,0.006114,0.999944,-0.010204,-0.000453,0.002669,0.535482,-0.433919,-0.537753,-0.485587
38262,NaN,7.821331,-1.630859,1.108624,-2.123961,0.463959,-2.045128,-1.989777,-0.102262,0.583278,-0.868652,0.345703,-0.102295,0.078254,-0.015969,0.011286,0.999946,-0.009949,-0.000511,0.002916,0.532861,-0.441660,-0.532034,-0.487787
38263,NaN,7.004191,-2.404199,1.734241,-2.874965,1.074965,-2.853899,-1.896785,-0.084354,0.640942,-0.868652,0.350098,-0.091797,0.070111,-0.023651,0.017598,0.999950,-0.009484,-0.000422,0.003205,0.529984,-0.448602,-0.526190,-0.490914
38264,NaN,6.027440,-2.836671,2.724740,-3.275757,2.109156,-3.761168,-1.797484,-0.004908,0.691221,-0.864746,0.360840,-0.085449,0.060371,-0.027912,0.027501,0.999954,-0.008987,-0.000025,0.003456,0.529038,-0.456294,-0.518317,-0.493215
38265,NaN,5.367700,-2.830085,3.063285,-3.200079,2.535059,-4.377864,-1.746782,0.055923,0.760733,-0.860596,0.362793,-0.081055,0.053792,-0.027828,0.030862,0.999955,-0.008734,0.000280,0.003804,0.527050,-0.462727,-0.512103,-0.495835
38266,NaN,5.441155,-3.142646,2.787717,-3.330588,2.280124,-4.248427,-1.683988,0.112482,0.851343,-0.858887,0.377930,-0.077148,0.054560,-0.030958,0.028108,0.999955,-0.008420,0.000562,0.004257,0.526587,-0.471881,-0.498986,-0.501047
38267,NaN,5.625900,-2.938564,2.027062,-3.001303,1.567027,-4.074156,-1.555785,0.144651,0.904011,-0.852783,0.382080,-0.066406,0.056405,-0.028972,0.020456,0.999959,-0.007779,0.000723,0.004520,0.525520,-0.477851,-0.492554,-0.502869
38268,NaN,6.129013,-3.139098,1.421846,-3.012064,0.949667,-3.530548,-1.328215,0.154765,0.994927,-0.848633,0.386475,-0.064209,0.061456,-0.030990,0.014378,0.999965,-0.006641,0.000774,0.004975,0.525640,-0.487578,-0.476241,-0.509082
38269,NaN,6.921539,-2.655214,0.889395,-2.421685,0.387428,-2.760484,-0.997141,0.162641,1.072847,-0.842773,0.403564,-0.060303,0.069364,-0.026136,0.008969,0.999973,-0.004986,0.000813,0.005364,0.526313,-0.492326,-0.470647,-0.509020
38270,NaN,8.415012,-1.194190,-1.251315,-0.772617,-1.924509,-1.475842,-0.861720,0.138044,1.159198,-0.838623,0.412109,-0.064697,0.084209,-0.011508,-0.012521,0.999974,-0.004309,0.000690,0.005796,0.527730,-0.501517,-0.454921,-0.512863
38271,NaN,10.943227,0.916474,-3.046496,1.517390,-4.000763,0.749783,-0.900791,0.082906,1.190305,-0.834473,0.416260,-0.060303,0.109363,0.009678,-0.030553,0.999972,-0.004504,0.000415,0.005951,0.528697,-0.506375,-0.449395,-0.511965
38272,NaN,13.684313,1.962112,-5.011765,2.893585,-6.257158,3.175835,-0.922553,0.050033,1.283470,-0.833008,0.433350,-0.052002,0.136702,0.020267,-0.050244,0.999969,-0.004613,0.000250,0.006417,0.531528,-0.513853,-0.441239,-0.508666
38273,NaN,16.829718,1.610954,-7.087986,2.877815,-8.606529,6.115812,-0.750200,0.016751,1.404152,-0.818359,0.444092,-0.054199,0.168174,0.017024,-0.070957,0.999968,-0.003751,0.000084,0.007021,0.533191,-0.518886,-0.435665,-0.506617
38274,NaN,17.483483,1.926186,-6.071168,3.877777,-7.199569,6.901554,-0.560613,-0.001933,1.529412,-0.823242,0.461182,-0.052490,0.174682,0.020428,-0.060766,0.999967,-0.002803,-0.000010,0.007647,0.540580,-0.521776,-0.444539,-0.487758
38275,NaN,15.226895,1.011791,-2.968331,3.003738,-3.951880,4.919865,-0.322964,-0.002293,1.689871,-0.808594,0.476318,-0.050293,0.152177,0.011356,-0.029699,0.999963,-0.001615,-0.000011,0.008449,0.543833,-0.526391,-0.439333,-0.483885
38276,NaN,12.496899,-0.864624,-0.511878,1.106894,-0.896016,2.643234,-0.201161,-0.053097,1.765249,-0.798584,0.493408,-0.052734,0.125040,-0.007548,-0.005078,0.999961,-0.001006,-0.000265,0.008826,0.552428,-0.526518,-0.454665,-0.459217
38277,NaN,9.277490,-3.912707,1.919854,-2.282926,1.571160,0.055657,-0.131210,-0.160454,1.670624,-0.788086,0.499756,-0.052734,0.093082,-0.038338,0.019298,0.999965,-0.000656,-0.000802,0.008353,0.555535,-0.531028,-0.450393,-0.454463
38278,NaN,4.034863,-8.525549,4.597662,-7.880810,4.077540,-4.211903,-0.049396,-0.250009,1.415521,-0.788330,0.508301,-0.042236,0.040893,-0.084956,0.046049,0.999974,-0.000247,-0.001250,0.007078,0.561856,-0.529454,-0.462225,-0.436285
38279,NaN,1.005913,-10.058279,6.682381,-10.025823,6.089344,-6.773439,-0.161541,-0.133338,1.021185,-0.780029,0.514648,-0.040039,0.010528,-0.100476,0.066912,0.999986,-0.000808,-0.000667,0.005106,0.563340,-0.532552,-0.459538,-0.433430
38280,NaN,1.503945,-9.159843,5.659620,-8.917384,5.161568,-6.343696,-0.401609,0.101492,0.567427,-0.780273,0.523438,-0.040283,0.015328,-0.091441,0.056772,0.999994,-0.002008,0.000507,0.002837,0.564654,-0.539010,-0.455566,-0.427895
38281,NaN,3.044133,-8.603985,1.126457,-7.771787,0.712411,-4.948956,-0.479771,0.230676,0.140437,-0.782227,0.521240,-0.035889,0.030515,-0.085991,0.011436,0.999996,-0.002399,0.001153,0.000702,0.564185,-0.540189,-0.453508,-0.429211
38282,NaN,5.276990,-8.007321,-1.882492,-6.451166,-2.233139,-2.819615,-0.284310,0.271399,-0.250935,-0.784668,0.523438,-0.040283,0.052644,-0.080166,-0.018782,0.999997,-0.001422,0.001357,-0.001255,0.566796,-0.543028,-0.450065,-0.425799
38283,NaN,11.441748,-5.650404,-2.093463,-2.767422,-2.311657,2.605857,0.058503,0.316501,-0.588222,-0.782227,0.521240,-0.044434,0.114217,-0.056834,-0.021132,0.999994,0.000293,0.001583,-0.002941,0.566411,-0.540862,-0.450887,-0.428191
38284,NaN,15.606282,-3.194544,0.585452,0.577146,0.458918,6.110838,0.264983,0.280264,-0.788552,-0.790527,0.510498,-0.046631,0.155943,-0.032568,0.005593,0.999990,0.001325,0.001401,-0.003943,0.569521,-0.540820,-0.449197,-0.425889
38285,NaN,19.121812,-2.497387,4.718395,1.720468,4.559416,9.432904,0.321966,0.293729,-0.817565,-0.792236,0.499756,-0.057129,0.191183,-0.025831,0.046862,0.999989,0.001610,0.001469,-0.004088,0.569304,-0.537436,-0.451253,-0.428284
38286,NaN,22.950382,-1.408186,7.615000,3.667267,7.240110,13.008791,0.258681,0.268104,-0.735962,-0.794189,0.493408,-0.052734,0.229551,-0.015025,0.075823,0.999991,0.001293,0.001341,-0.003680,0.567774,-0.539571,-0.443892,-0.435266
38287,NaN,25.766604,-0.562039,9.280403,4.892980,8.826344,15.653186,0.164024,0.210296,-0.683464,-0.800537,0.491211,-0.063477,0.257742,-0.006577,0.092528,0.999993,0.000820,0.001051,-0.003417,0.567192,-0.537127,-0.445493,-0.437407
38288,NaN,28.331594,-0.604086,9.593573,5.545561,8.560132,18.312844,0.340562,0.157390,-0.830017,-0.809082,0.484863,-0.061279,0.283363,-0.007380,0.095701,0.999990,0.001703,0.000787,-0.004150,0.565154,-0.537335,-0.437160,-0.448066
38289,NaN,27.216880,-1.091856,7.995825,4.499516,6.958126,17.338853,1.237605,-0.014199,-1.276671,-0.808105,0.461426,-0.067383,0.272084,-0.013150,0.079901,0.999960,0.006188,-0.000071,-0.006383,0.565565,-0.531058,-0.443385,-0.448913
38290,NaN,23.288959,1.157287,6.442729,5.582209,5.169377,13.150612,2.309121,-0.292317,-1.773475,-0.820801,0.452881,-0.073730,0.232881,0.008760,0.064880,0.999893,0.011545,-0.001462,-0.008867,0.566552,-0.521734,-0.444602,-0.457319
38291,NaN,18.326775,5.371507,5.943568,8.251125,5.257628,7.631263,3.331925,-0.522477,-2.072625,-0.823975,0.427002,-0.092529,0.183647,0.050808,0.060778,0.999804,0.016659,-0.002612,-0.010362,0.569232,-0.508781,-0.459020,-0.454331
38292,NaN,15.170486,7.090463,6.827580,8.912039,6.114792,4.684533,4.064138,-0.604087,-2.506880,-0.835938,0.399414,-0.100830,0.152356,0.067585,0.070131,0.999710,0.020319,-0.003020,-0.012533,0.568972,-0.493788,-0.464606,-0.465388
38293,NaN,11.698777,7.201894,6.658818,7.943394,6.522750,1.473693,4.304954,-0.638067,-2.539412,-0.847900,0.373535,-0.119873,0.117661,0.069067,0.068471,0.999683,0.021522,-0.003190,-0.012696,0.572028,-0.476971,-0.482560,-0.460890
38294,NaN,11.386517,4.218817,4.769701,4.784497,4.034924,1.633349,3.429915,-0.495960,-2.126414,-0.858154,0.358643,-0.125977,0.114179,0.040146,0.048680,0.999793,0.017148,-0.002480,-0.010631,0.568363,-0.464837,-0.482347,-0.477735
38295,NaN,16.684037,-2.644737,3.009753,-1.835913,1.065987,7.213433,2.450158,-0.190615,-2.037178,-0.861572,0.333008,-0.129883,0.166528,-0.028512,0.029915,0.999873,0.012250,-0.000953,-0.010185,0.568659,-0.453356,-0.493415,-0.477112
38296,NaN,13.715693,-11.402872,2.138768,-11.018955,-0.786695,4.352774,2.219085,0.244411,-2.311210,-0.869385,0.311523,-0.140381,0.135850,-0.115830,0.019943,0.999871,0.011095,0.001222,-0.011556,0.563964,-0.442570,-0.491909,-0.494066
38297,NaN,13.841673,-14.614216,-1.441185,-14.049057,-5.040788,3.768025,2.303974,0.243589,-1.940300,-0.875000,0.290283,-0.150879,0.136972,-0.147295,-0.016272,0.999886,0.011519,0.001218,-0.009701,0.564803,-0.430648,-0.501152,-0.494355
38298,NaN,10.225145,-7.771221,-6.230993,-6.913308,-8.543465,-0.703231,1.924624,0.097214,-1.683225,-0.880859,0.273193,-0.159180,0.101565,-0.077964,-0.063109,0.999918,0.009623,0.000486,-0.008416,0.562858,-0.423637,-0.499872,-0.503836
38299,NaN,9.735581,-18.120337,-8.084685,-16.912207,-11.860507,-1.952397,1.614140,-0.175860,-1.485052,-0.884521,0.253906,-0.158936,0.096082,-0.181260,-0.082225,0.999939,0.008071,-0.000879,-0.007425,0.562062,-0.415798,-0.507549,-0.503579
38300,NaN,4.942344,-13.598197,-5.515712,-12.733520,-8.084274,-6.311360,1.142225,-0.277554,-1.208175,-0.890869,0.247314,-0.152344,0.048679,-0.135960,-0.055866,0.999964,0.005711,-0.001388,-0.006041,0.562090,-0.412685,-0.507980,-0.505670
38301,NaN,3.005591,-10.260542,-2.199421,-9.879316,-4.144891,-7.722834,0.750493,-0.233859,-1.023596,-0.890137,0.232422,-0.160645,0.029557,-0.102674,-0.022345,0.999979,0.003752,-0.001169,-0.005118,0.560444,-0.408557,-0.512638,-0.506149
38302,NaN,0.685304,-6.794618,0.773035,-6.847326,-0.441534,-9.421702,0.340891,-0.166127,-0.877929,-0.892090,0.219482,-0.156250,0.006548,-0.067988,0.007620,0.999989,0.001704,-0.000831,-0.004390,0.561833,-0.406263,-0.515175,-0.503874
38303,NaN,-0.477675,-3.340737,1.120666,-3.459516,0.621451,-10.351275,0.168950,-0.052929,-0.750685,-0.893799,0.210938,-0.162598,-0.004905,-0.033399,0.011177,0.999993,0.000845,-0.000265,-0.003753,0.560143,-0.403983,-0.517271,-0.505438
38304,NaN,-0.524015,0.109755,0.088374,0.114544,0.183521,-10.310328,0.012725,0.033948,-0.605252,-0.900146,0.206787,-0.158203,-0.005237,0.001113,0.000885,0.999995,0.000064,0.000170,-0.003026,0.560995,-0.404555,-0.514113,-0.507255
38305,NaN,-0.132617,1.752164,-1.563218,1.991348,-1.229172,-10.047168,-0.112899,0.046373,-0.415890,-0.893799,0.206543,-0.156006,-0.001293,0.017516,-0.015642,0.999998,-0.000564,0.000232,-0.002079,0.559828,-0.403682,-0.514538,-0.508807
38306,NaN,-0.254631,3.541164,-2.706868,3.951220,-2.037339,-10.223668,-0.288301,-0.011607,-0.221171,-0.895508,0.197998,-0.156006,-0.002506,0.035375,-0.027120,0.999998,-0.001442,-0.000058,-0.001106,0.561387,-0.404201,-0.513289,-0.507938
38307,NaN,0.417936,5.039653,-2.501591,5.357713,-1.724727,-9.424233,-0.449753,0.013651,-0.140292,-0.895508,0.196045,-0.158203,0.004213,0.050337,-0.025129,0.999997,-0.002249,0.000068,-0.000701,0.560153,-0.405065,-0.512392,-0.509515
38308,NaN,0.340226,3.704953,-1.053601,3.804938,-0.547392,-9.394081,-0.821128,0.130922,0.003489,-0.895752,0.206543,-0.156006,0.003395,0.037006,-0.010690,0.999991,-0.004106,0.000655,0.000017,0.558966,-0.408260,-0.507766,-0.512888
38309,NaN,0.325023,0.637132,0.594387,0.531424,0.615544,-9.361513,-1.044094,0.299782,0.244789,-0.893555,0.204590,-0.156006,0.003251,0.006406,0.005906,0.999985,-0.005220,0.001499,0.001224,0.558213,-0.411021,-0.503746,-0.515462
38310,NaN,0.268514,-2.081077,2.229874,-2.369641,1.873890,-9.314138,-0.968037,0.405278,0.494085,-0.893799,0.208740,-0.154053,0.002782,-0.020696,0.022394,0.999983,-0.004840,0.002026,0.002470,0.559026,-0.414698,-0.498942,-0.516307
38311,NaN,-0.075508,-3.769288,1.093046,-3.872937,0.634041,-9.891132,-0.907121,0.366141,0.673924,-0.889893,0.219482,-0.156250,-0.000608,-0.037645,0.011102,0.999982,-0.004536,0.001831,0.003370,0.559786,-0.417958,-0.494173,-0.517439
38312,NaN,0.606703,-3.733126,0.242389,-3.744803,-0.300963,-9.313884,-0.819491,0.290473,0.742103,-0.892090,0.225830,-0.160645,0.006209,-0.037298,0.002568,0.999984,-0.004097,0.001452,0.003710,0.562404,-0.420681,-0.490465,-0.515920
38313,NaN,1.077718,-3.139385,-0.239602,-3.101318,-0.765383,-8.879650,-0.628977,0.211779,0.786341,-0.883789,0.232422,-0.158691,0.010898,-0.031359,-0.002309,0.999987,-0.003145,0.001059,0.003932,0.563618,-0.423822,-0.486590,-0.515693
38314,NaN,1.112340,-1.926647,-0.373106,-1.870976,-0.763208,-8.809986,-0.510180,0.148250,0.790827,-0.877686,0.243164,-0.154541,0.011197,-0.019232,-0.003690,0.999989,-0.002551,0.000741,0.003954,0.566209,-0.427387,-0.482730,-0.513537
38315,NaN,1.097125,-0.906189,-0.339050,-0.854097,-0.613174,-8.795661,-0.539753,0.125239,0.773481,-0.880127,0.247314,-0.158691,0.011004,-0.009028,-0.003373,0.999989,-0.002699,0.000626,0.003867,0.567334,-0.430452,-0.479335,-0.512915
38316,NaN,1.129849,-0.201738,-0.277306,-0.148855,-0.481906,-8.745091,-0.704491,0.113759,0.733812,-0.875977,0.255859,-0.154541,0.011304,-0.001986,-0.002772,0.999987,-0.003522,0.000569,0.003669,0.568897,-0.434355,-0.476171,-0.510836
38317,NaN,1.255922,0.095812,-0.320436,0.160982,-0.515463,-8.630495,-0.840040,0.067397,0.738101,-0.869873,0.266602,-0.154785,0.012555,0.000991,-0.003213,0.999984,-0.004200,0.000337,0.003690,0.569105,-0.438319,-0.472227,-0.510879
38318,NaN,0.643446,0.756352,-0.232421,0.797779,-0.264899,-9.235212,-1.111267,0.022268,0.715908,-0.874512,0.275146,-0.150635,0.006407,0.007573,-0.002367,0.999978,-0.005556,0.000111,0.003580,0.569335,-0.443652,-0.468338,-0.509598
38319,NaN,1.059851,1.687115,-0.993843,1.803147,-1.013583,-8.988899,-1.249083,-0.072329,0.693239,-0.872559,0.281494,-0.146484,0.010544,0.016845,-0.010040,0.999974,-0.006245,-0.000362,0.003466,0.568143,-0.449001,-0.463816,-0.510380
38320,NaN,1.122839,2.748636,-1.542312,2.905293,-1.489255,-9.080744,-1.343194,-0.104738,0.695062,-0.873047,0.294434,-0.142334,0.011141,0.027421,-0.015602,0.999971,-0.006716,-0.000524,0.003475,0.568411,-0.454576,-0.460241,-0.508378
38321,NaN,0.931171,3.046615,-0.946883,3.146034,-0.887460,-9.212504,-1.413738,-0.088165,0.758887,-0.862793,0.305176,-0.135986,0.009200,0.030433,-0.009680,0.999968,-0.007069,-0.000441,0.003794,0.566900,-0.460546,-0.455164,-0.509261
38322,NaN,0.732548,2.828056,0.519503,2.848684,0.556682,-9.196808,-1.476559,-0.014595,0.865521,-0.867432,0.313721,-0.129639,0.007203,0.028349,0.004986,0.999963,-0.007383,-0.000073,0.004328,0.566963,-0.466819,-0.450707,-0.507442
38323,NaN,-0.008358,1.973486,0.745302,1.942776,0.820822,-9.856898,-1.497650,0.036223,0.936415,-0.854980,0.330811,-0.129883,-0.000175,0.019789,0.007305,0.999961,-0.007488,0.000181,0.004682,0.565898,-0.473061,-0.444606,-0.508231
38324,NaN,-0.169207,0.457781,0.143161,0.436620,0.182657,-9.998922,-1.365384,0.037964,1.042092,-0.859863,0.343750,-0.125732,-0.001716,0.004579,0.001401,0.999963,-0.006827,0.000190,0.005210,0.566334,-0.479265,-0.439577,-0.506303
38325,NaN,0.010271,0.162263,0.382649,0.159281,0.380485,-9.760591,-0.874113,0.042353,1.160043,-0.853760,0.356445,-0.121826,0.000094,0.001640,0.003819,0.999974,-0.004371,0.000212,0.005800,0.567250,-0.484167,-0.434457,-0.505031
38326,NaN,2.938129,-18.357021,-0.679195,-17.861189,-1.582432,-4.858460,0.046127,-0.116765,1.113009,-0.852051,0.364990,-0.121826,0.030406,-0.183401,-0.006817,0.999984,0.000231,-0.000584,0.005565,0.571005,-0.487010,-0.432819,-0.499442
38327,NaN,4.336314,-37.616835,-1.052138,-36.663346,-2.963235,-0.762926,1.185890,0.054898,1.832496,-0.843994,0.386475,-0.128418,0.046804,-0.375679,-0.012762,0.999940,0.005929,0.000274,0.009162,0.578550,-0.487422,-0.431140,-0.491751
38328,NaN,21.691687,-85.551349,1.218003,-80.731571,-6.575310,25.254868,0.618399,0.517473,2.648633,-0.825439,0.410156,-0.130859,0.228247,-0.852572,0.008960,0.999904,0.003092,0.002587,0.013243,0.590667,-0.490982,-0.424756,-0.479199
38329,NaN,39.666627,-35.739047,-2.488949,-27.423542,-10.791634,34.777310,1.718740,0.001105,2.054755,-0.821289,0.410156,-0.139404,0.400308,-0.353059,-0.027938,0.999910,0.008593,0.000006,0.010273,0.599755,-0.490222,-0.423792,-0.469442
38330,NaN,2.792187,57.848127,4.688686,56.497863,10.609051,-18.260428,3.075030,0.592643,0.202741,-0.817139,0.416504,-0.158936,0.027492,0.577698,0.055691,0.999877,0.015375,0.002963,0.001014,0.615588,-0.481515,-0.428883,-0.453050
38331,NaN,-0.830452,31.031178,11.321875,28.753127,15.416147,-15.044782,1.841008,1.041513,0.869416,-0.810791,0.423096,-0.167480,-0.009051,0.309214,0.116114,0.999935,0.009205,0.005207,0.004347,0.624180,-0.475323,-0.427729,-0.448905
38332,NaN,14.107411,16.664002,3.356846,19.089891,3.585574,0.707925,-1.974142,0.413025,-0.276012,-0.821533,0.420898,-0.167480,0.141371,0.166764,0.031631,0.999948,-0.009871,0.002065,-0.001380,0.624084,-0.479110,-0.423452,-0.449066
38333,NaN,16.306660,6.012008,-9.934379,10.497423,-11.467177,2.798329,-1.905270,-0.481530,-1.186490,-0.825439,0.412354,-0.152344,0.163655,0.058203,-0.099511,0.999934,-0.009526,-0.002408,-0.005932,0.615794,-0.483594,-0.423493,-0.455619
38334,NaN,20.394242,1.967729,-15.906095,7.990893,-18.355234,6.680385,-0.985086,-0.229189,-0.947486,-0.827881,0.414307,-0.139648,0.204212,0.017927,-0.158918,0.999976,-0.004925,-0.001146,-0.004737,0.614837,-0.483753,-0.426190,-0.454226
38335,NaN,56.166999,6.162312,13.656768,17.658172,5.912077,45.254794,-0.951394,0.090746,0.661782,-0.819824,0.429443,-0.141846,0.561522,0.064129,0.136012,0.999983,-0.004757,0.000454,0.003309,0.614220,-0.487875,-0.422144,-0.454430
38336,NaN,99.421182,49.337950,33.073969,68.917281,25.870348,79.592238,-0.046964,0.189620,2.391265,-0.813721,0.440186,-0.148438,0.988531,0.505299,0.329683,0.999928,-0.000235,0.000948,0.011956,0.627286,-0.487406,-0.422415,-0.436478
38337,NaN,7.460906,0.343063,8.432142,1.404084,7.328919,-1.374744,0.776608,-0.576900,1.149970,-0.807617,0.450684,-0.142090,0.074345,0.003531,0.084550,0.999972,0.003883,-0.002884,0.005750,0.630451,-0.488648,-0.423105,-0.429810
38338,NaN,10.392654,-19.409424,-4.276918,-14.991301,-8.789991,4.365031,0.457872,-0.545660,1.737996,-0.803711,0.465820,-0.138184,0.105724,-0.193083,-0.042925,0.999956,0.002289,-0.002728,0.008690,0.637430,-0.487207,-0.425590,-0.418552
38339,NaN,7.504374,4.761505,1.152742,6.562041,1.064874,-3.802651,-0.588294,0.059849,1.398473,-0.793457,0.474365,-0.133789,0.074712,0.048172,0.011364,0.999971,-0.002941,0.000299,0.006992,0.639033,-0.491922,-0.420748,-0.415477
38340,NaN,9.210827,1.960053,5.528773,3.856558,4.767918,-0.777226,-1.429819,-0.308425,1.095137,-0.793701,0.487061,-0.121094,0.091912,0.020499,0.055285,0.999958,-0.007149,-0.001542,0.005476,0.642445,-0.493334,-0.422421,-0.406752
38341,NaN,3.440326,-9.429059,3.585651,-8.252279,1.488718,-3.233849,-1.283409,-0.295015,0.891229,-0.787354,0.487061,-0.116943,0.034769,-0.093903,0.036511,0.999968,-0.006417,-0.001475,0.004456,0.640449,-0.499928,-0.418544,-0.405855
38342,NaN,3.585285,-7.386800,0.823278,-5.864736,-0.888009,-4.075768,-1.177076,-0.152514,0.603209,-0.787842,0.497803,-0.114990,0.036069,-0.073709,0.008694,0.999978,-0.005885,-0.000763,0.003016,0.642272,-0.500789,-0.419798,-0.400584
38343,NaN,2.452744,-6.777433,-0.858993,-5.418401,-2.240964,-5.534143,-1.012226,-0.148414,0.344363,-0.781494,0.502197,-0.108398,0.024650,-0.067774,-0.008229,0.999985,-0.005061,-0.000742,0.001722,0.640107,-0.505057,-0.417376,-0.401221
38344,NaN,2.493217,-5.034513,-1.176228,-3.713553,-2.263144,-6.066546,-0.550357,-0.121986,0.263042,-0.785889,0.501953,-0.099854,0.025005,-0.050344,-0.011609,0.999995,-0.002752,-0.000610,0.001315,0.641443,-0.504476,-0.418830,-0.398292
38345,NaN,-0.554900,-4.194935,-1.393700,-3.915073,-2.038048,-9.207447,-0.492283,-0.159691,0.141753,-0.779297,0.500000,-0.099854,-0.005508,-0.041987,-0.013838,0.999996,-0.002461,-0.000798,0.000709,0.640148,-0.506673,-0.417999,-0.398460
38346,NaN,-0.453365,-6.752169,-2.323230,-6.146774,-3.388015,-8.422381,-0.836364,-0.201954,-0.010682,-0.785889,0.501953,-0.099854,-0.004514,-0.067618,-0.022954,0.999991,-0.004182,-0.001010,-0.000053,0.638492,-0.508487,-0.418400,-0.398385
38347,NaN,1.045545,-7.067686,-3.379581,-5.843248,-4.541373,-7.038044,-1.091789,-0.213865,-0.203612,-0.785889,0.501953,-0.089355,0.010419,-0.070871,-0.033398,0.999984,-0.005459,-0.001069,-0.001018,0.634854,-0.511969,-0.417415,-0.400764
38348,NaN,1.831569,-5.875613,-3.385667,-4.523846,-4.355925,-6.666218,-1.223803,-0.165241,-0.373534,-0.787842,0.500000,-0.080566,0.018233,-0.058996,-0.033481,0.999979,-0.006119,-0.000826,-0.001868,0.630487,-0.515311,-0.416468,-0.404346
38349,NaN,3.747101,-6.290191,-2.304436,-4.467737,-3.428479,-4.597166,-1.283641,-0.122163,-0.526006,-0.785645,0.495605,-0.074219,0.037319,-0.063146,-0.022617,0.999976,-0.006418,-0.000611,-0.002630,0.625848,-0.518501,-0.415600,-0.408348
38350,NaN,5.370648,-5.652517,-1.776570,-3.453750,-2.890649,-3.204648,-0.991565,-0.020255,-0.616925,-0.796387,0.491211,-0.067627,0.053533,-0.056778,-0.017479,0.999983,-0.004958,-0.000101,-0.003085,0.622253,-0.520176,-0.415909,-0.411385
38351,NaN,6.741222,-4.646998,-1.375319,-2.170655,-2.444234,-2.180927,-0.645536,0.074356,-0.661546,-0.800537,0.487061,-0.059082,0.067253,-0.046737,-0.013628,0.999989,-0.003228,0.000372,-0.003308,0.619364,-0.520655,-0.416062,-0.414970
38352,NaN,9.192626,-3.490781,-0.859348,-0.410965,-1.979136,-0.151316,-0.365453,0.141706,-0.698753,-0.797852,0.476318,-0.063232,0.091797,-0.035244,-0.008594,0.999992,-0.001827,0.000709,-0.003494,0.617552,-0.520334,-0.417120,-0.417005
38353,NaN,12.174992,-2.400088,-0.313776,1.413396,-1.578447,2.418402,-0.029393,0.214327,-0.635305,-0.802246,0.476318,-0.067627,0.121669,-0.024388,-0.003265,0.999994,-0.000147,0.001072,-0.003177,0.616596,-0.518655,-0.418044,-0.419579
38354,NaN,16.928979,0.375220,1.793269,5.232295,0.390981,6.386585,0.221515,0.270867,-0.460697,-0.797852,0.474121,-0.071777,0.169322,0.003342,0.017707,0.999996,0.001108,0.001354,-0.002303,0.616201,-0.517186,-0.418835,-0.421180
38355,NaN,23.700048,4.140356,9.341500,10.169787,7.619198,12.651076,-0.080389,0.413469,-0.100783,-0.804199,0.469971,-0.071777,0.237214,0.041321,0.092908,0.999998,-0.000402,0.002067,-0.000504,0.616646,-0.516355,-0.417648,-0.422723
38356,NaN,22.684676,8.366940,7.707783,14.320212,5.840892,10.307552,-0.599260,0.311418,0.083448,-0.804443,0.476318,-0.065430,0.226931,0.083994,0.076473,0.999994,-0.002996,0.001557,0.000417,0.606305,-0.526618,-0.404198,-0.437826
38357,NaN,14.423278,3.955430,2.108530,7.928719,0.802319,3.017495,-0.816634,0.060098,0.256697,-0.804199,0.474121,-0.067383,0.144188,0.039825,0.020880,0.999991,-0.004083,0.000300,0.001283,0.604834,-0.529481,-0.401545,-0.438848
38358,NaN,10.257649,-2.545476,-0.715468,0.512697,-1.933496,0.589680,-0.793758,-0.128225,0.377513,-0.802734,0.489258,-0.063477,0.102629,-0.025289,-0.006988,0.999990,-0.003969,-0.000641,0.001888,0.594533,-0.540285,-0.389316,-0.450618
38359,NaN,8.301452,-3.867714,-0.809120,-1.286954,-1.778276,-0.884686,-0.687808,-0.190647,0.443845,-0.793945,0.487061,-0.054688,0.083108,-0.038520,-0.007879,0.999991,-0.003439,-0.000953,0.002219,0.593300,-0.543624,-0.387126,-0.450113
38360,NaN,6.257044,-3.157499,-0.212704,-1.189147,-0.888552,-2.959813,-0.458349,-0.236882,0.451122,-0.798340,0.487061,-0.054688,0.062644,-0.031438,-0.001981,0.999994,-0.002292,-0.001184,0.002256,0.586722,-0.550997,-0.378870,-0.456747
38361,NaN,3.467524,-2.189918,1.754884,-0.948170,1.394354,-5.682825,-0.466515,-0.290991,0.391458,-0.794434,0.495605,-0.048584,0.034692,-0.021790,0.017650,0.999994,-0.002333,-0.001455,0.001957,0.585778,-0.553774,-0.377573,-0.455673
38362,NaN,1.740383,-4.977236,2.568991,-3.987537,2.603523,-6.388854,-0.506088,-0.269605,0.318201,-0.792236,0.495605,-0.041992,0.017448,-0.049679,0.025839,0.999995,-0.002530,-0.001348,0.001591,0.578809,-0.560806,-0.369913,-0.462214
38363,NaN,4.506041,-6.294181,3.582405,-4.293518,3.374661,-3.260437,-0.350732,-0.078309,0.271120,-0.790283,0.499756,-0.041992,0.045132,-0.062818,0.035952,0.999997,-0.001754,-0.000392,0.001356,0.578307,-0.562507,-0.368563,-0.461853
38364,NaN,7.182097,-4.897849,3.344486,-2.100629,2.788106,-1.177251,-0.267504,0.169133,0.261709,-0.790039,0.493408,-0.041992,0.071913,-0.048840,0.033449,0.999998,-0.001338,0.000846,0.001309,0.573732,-0.566917,-0.361172,-0.467965
38365,NaN,8.715082,-4.144233,3.166162,-0.916430,2.344658,0.026750,-0.185668,0.250106,0.226054,-0.790527,0.506104,-0.040039,0.087237,-0.041314,0.031591,0.999998,-0.000928,0.001251,0.001130,0.574187,-0.567277,-0.359374,-0.468355
38366,NaN,12.912123,-4.727107,3.279128,-0.122634,1.934306,4.189613,-0.194514,0.294263,0.148538,-0.788086,0.504150,-0.046387,0.129204,-0.047143,0.032647,0.999998,-0.000973,0.001471,0.000743,0.569953,-0.570732,-0.352254,-0.474695
38367,NaN,15.973681,-2.881039,1.764374,2.344243,-0.215229,6.343731,-0.204348,0.361502,0.054962,-0.785889,0.501953,-0.044189,0.159776,-0.028749,0.017384,0.999998,-0.001022,0.001808,0.000275,0.570137,-0.570558,-0.350577,-0.475923
38368,NaN,14.318905,-3.502024,-2.241397,0.623230,-3.926286,4.557930,0.131241,0.386015,0.008245,-0.794678,0.504150,-0.054932,0.143147,-0.035000,-0.022713,0.999998,0.000656,0.001930,0.000041,0.567794,-0.571554,-0.345792,-0.481002
38369,NaN,13.191661,-4.850537,-0.960577,-0.795611,-2.410738,4.044625,0.613389,0.401026,-0.093302,-0.790283,0.501953,-0.059326,0.131874,-0.048537,-0.010019,0.999993,0.003067,0.002005,-0.000467,0.570014,-0.568689,-0.346388,-0.481344
38370,NaN,11.500672,-5.850236,5.155992,-1.331482,3.898418,3.457702,0.849282,0.350852,-0.326672,-0.794434,0.499756,-0.065674,0.115001,-0.058908,0.051109,0.999988,0.004246,0.001754,-0.001633,0.569724,-0.566407,-0.345630,-0.484910
38371,NaN,11.533937,-5.687549,8.471754,-0.773057,7.060893,3.850935,0.714343,0.270093,-0.704866,-0.791748,0.487061,-0.073975,0.115251,-0.057584,0.084357,0.999986,0.003572,0.001350,-0.003524,0.570499,-0.562497,-0.348579,-0.486437
38372,NaN,15.576379,-5.458720,7.710575,0.343761,5.572667,7.527945,0.582412,0.257521,-0.994063,-0.798096,0.478516,-0.067627,0.155588,-0.055585,0.076744,0.999983,0.002912,0.001288,-0.004970,0.567639,-0.560001,-0.349239,-0.492155
38373,NaN,23.186490,-3.020609,6.795233,4.337332,3.083379,13.948323,0.800686,0.254713,-0.989818,-0.797852,0.474121,-0.082520,0.231797,-0.031624,0.067532,0.999979,0.004003,0.001274,-0.004949,0.567880,-0.555367,-0.353246,-0.494264
38374,NaN,29.316171,-0.287867,7.010105,8.259297,1.804505,19.121330,1.282695,0.273255,-0.995893,-0.810059,0.459229,-0.093018,0.293236,-0.004786,0.069674,0.999966,0.006413,0.001366,-0.004979,0.566314,-0.551278,-0.354937,-0.499399
38375,NaN,30.855520,2.093913,7.046393,10.498325,1.321753,20.089070,2.051508,0.124504,-1.204729,-0.809570,0.446289,-0.105713,0.308715,0.018357,0.070469,0.999929,0.010257,0.000623,-0.006024,0.569143,-0.542987,-0.362998,-0.499473
38376,NaN,27.199293,5.743833,6.497444,12.516156,1.122587,15.820493,2.798425,-0.153692,-1.596822,-0.819824,0.431396,-0.120605,0.272385,0.054346,0.065959,0.999870,0.013992,-0.000768,-0.007984,0.570363,-0.533186,-0.373005,-0.501264
38377,NaN,20.954389,9.486538,5.128418,14.092961,0.941715,9.050842,3.746100,-0.461034,-1.996911,-0.829590,0.405762,-0.128662,0.210349,0.091779,0.053507,0.999772,0.018729,-0.002305,-0.009984,0.574357,-0.519818,-0.388943,-0.498625
38378,NaN,11.369759,13.427835,3.987963,15.505597,1.711789,-0.753059,3.979993,-0.651328,-2.240525,-0.839600,0.384277,-0.135010,0.115050,0.132161,0.042897,0.999734,0.019898,-0.003256,-0.011202,0.576253,-0.505406,-0.405925,-0.497716
38379,NaN,7.812908,10.905724,2.055052,12.077630,0.885233,-3.687168,3.560732,-0.735604,-2.064424,-0.849609,0.360840,-0.149658,0.079166,0.107851,0.022768,0.999781,0.017802,-0.003678,-0.010321,0.578497,-0.492682,-0.422029,-0.494467
38380,NaN,11.858065,1.436572,1.180171,3.075859,-0.632850,1.771864,2.392564,-0.620562,-2.023218,-0.855225,0.339355,-0.149414,0.118679,0.013020,0.012331,0.999872,0.011962,-0.003103,-0.010116,0.576085,-0.482956,-0.434131,-0.496397
38381,NaN,15.279848,-8.604839,0.569221,-6.720851,-2.147193,6.251219,1.281728,-0.271756,-2.053802,-0.863281,0.322266,-0.155518,0.151896,-0.087646,0.005341,0.999926,0.006408,-0.001359,-0.010269,0.573451,-0.475447,-0.443020,-0.498836
38382,NaN,12.985979,-17.391999,-0.904828,-16.014813,-3.769347,4.373093,0.686075,0.337548,-1.972688,-0.866943,0.305176,-0.159668,0.128120,-0.175157,-0.009865,0.999944,0.003430,0.001688,-0.009863,0.569865,-0.467551,-0.448695,-0.505295
38383,NaN,10.531222,-17.274989,-4.599979,-16.180939,-7.126220,1.044423,0.580753,0.203835,-1.537584,-0.868408,0.283691,-0.163574,0.103933,-0.173418,-0.046609,0.999966,0.002904,0.001019,-0.007688,0.567777,-0.461917,-0.453159,-0.508831
38384,NaN,7.719957,-13.874169,-8.037352,-12.971896,-9.937739,-2.765936,0.314935,0.034782,-1.385470,-0.876709,0.275146,-0.159180,0.076223,-0.139145,-0.080606,0.999975,0.001575,0.000174,-0.006927,0.564776,-0.457068,-0.457601,-0.512561
38385,NaN,7.869822,-18.356304,-8.325320,-17.487431,-10.535777,-2.644505,0.565676,-0.305041,-1.103724,-0.875977,0.258057,-0.161133,0.077812,-0.183758,-0.083654,0.999980,0.002828,-0.001525,-0.005519,0.562532,-0.453717,-0.462424,-0.513676
38386,NaN,1.564927,-9.339105,-2.078184,-9.148060,-2.845928,-8.329619,0.426633,-0.235184,-1.114229,-0.882080,0.247314,-0.158691,0.015153,-0.093432,-0.020963,0.999982,0.002133,-0.001176,-0.005571,0.559062,-0.451131,-0.466468,-0.516080
38387,NaN,0.135746,-5.305247,0.677519,-5.330200,0.320147,-9.482207,0.442208,-0.185233,-1.137171,-0.875244,0.234375,-0.160645,0.001050,-0.053074,0.006659,0.999981,0.002211,-0.000926,-0.005686,0.556684,-0.447710,-0.470683,-0.517800
38388,NaN,0.786648,-1.972618,1.134537,-2.028329,0.868868,-8.849309,0.601311,-0.109586,-0.973302,-0.883545,0.225830,-0.160645,0.007764,-0.019798,0.011290,0.999983,0.003007,-0.000548,-0.004866,0.554995,-0.444106,-0.475026,-0.518749
38389,NaN,-1.240599,-1.257482,0.908895,-1.327079,0.998274,-10.902979,0.791815,0.044239,-0.699461,-0.883301,0.215088,-0.158203,-0.012448,-0.012567,0.009042,0.999986,0.003959,0.000221,-0.003497,0.555038,-0.440122,-0.478504,-0.518902
38390,NaN,0.532563,-1.035528,-0.399023,-1.000192,-0.556103,-9.359349,0.931751,0.118262,-0.352197,-0.885254,0.210938,-0.162598,0.005305,-0.010346,-0.004042,0.999987,0.004659,0.000591,-0.001761,0.556095,-0.436600,-0.481510,-0.517964
38391,NaN,0.789560,-0.532867,-0.998215,-0.442871,-1.152283,-9.196341,1.088726,0.194072,-0.117420,-0.883057,0.208740,-0.168945,0.007883,-0.005279,-0.010019,0.999985,0.005444,0.000970,-0.000587,0.558626,-0.432775,-0.484041,-0.516088
38392,NaN,1.067008,0.981277,-0.903141,1.066948,-0.957478,-8.884297,1.272771,0.183625,0.099745,-0.882812,0.202393,-0.170898,0.010657,0.009875,-0.008978,0.999979,0.006364,0.000918,0.000499,0.562117,-0.428831,-0.487051,-0.512747
38393,NaN,1.036443,2.522910,-0.842938,2.603741,-0.707793,-8.880323,1.233940,0.189374,0.271670,-0.880615,0.206787,-0.177490,0.010322,0.025295,-0.008283,0.999980,0.006170,0.000947,0.001358,0.565909,-0.425523,-0.489092,-0.509378
38394,NaN,0.848334,3.080518,-0.513191,3.124707,-0.249287,-9.008572,1.006229,0.223730,0.411870,-0.880859,0.208740,-0.181885,0.008414,0.030848,-0.004986,0.999985,0.005031,0.001119,0.002059,0.569930,-0.422621,-0.490903,-0.505555
38395,NaN,0.656417,2.461383,-0.202579,2.472520,0.029014,-9.167637,0.698648,0.273932,0.591938,-0.874268,0.208740,-0.186035,0.006489,0.024640,-0.001949,0.999989,0.003493,0.001370,0.002960,0.573568,-0.421376,-0.490635,-0.502732
38396,NaN,0.546523,1.646845,0.320895,1.591921,0.464410,-9.209482,0.341177,0.300830,0.775562,-0.870361,0.219482,-0.186279,0.005406,0.016484,0.003229,0.999990,0.001706,0.001504,0.003878,0.577840,-0.420420,-0.490245,-0.499008
38397,NaN,0.609482,1.175387,0.481501,1.107580,0.543842,-9.132734,-0.053885,0.299022,0.937250,-0.864258,0.228027,-0.190674,0.006047,0.011784,0.004803,0.999988,-0.000269,0.001495,0.004686,0.580790,-0.422110,-0.487274,-0.497061
38399,NaN,0.850112,1.291169,0.289945,2.542739,0.663872,-8.083896,-0.610337,0.263087,1.101145,-0.858398,0.247314,-0.192871,0.016731,0.026043,0.005596,0.999917,-0.006103,0.002631,0.011011,0.585297,-0.429161,-0.478764,-0.493997
38400,NaN,1.303397,1.162818,0.037695,1.223236,-0.019742,-8.565428,-1.103357,0.208356,1.167529,-0.865234,0.258057,-0.188965,0.012966,0.011706,0.000299,0.999967,-0.005517,0.001042,0.005838,0.586292,-0.434643,-0.472912,-0.493661
38401,NaN,1.414950,0.983371,0.271631,1.041822,0.155923,-8.422323,-1.364177,0.169924,1.206399,-0.857178,0.275146,-0.191162,0.014092,0.009937,0.002637,0.999958,-0.006821,0.000850,0.006032,0.586536,-0.440944,-0.466755,-0.493644
38402,NaN,1.386533,0.970416,0.196569,1.056605,0.073499,-8.478172,-1.656395,0.150765,1.239845,-0.855713,0.290283,-0.180664,0.013806,0.009806,0.001874,0.999946,-0.008282,0.000754,0.006199,0.586263,-0.448285,-0.459471,-0.494188
38403,NaN,1.265072,0.704713,0.237796,0.798768,0.093423,-8.585187,-1.896713,0.131850,1.255865,-0.847900,0.311523,-0.174561,0.012608,0.007148,0.002302,0.999935,-0.009483,0.000659,0.006279,0.585275,-0.456302,-0.451833,-0.495065
38404,NaN,1.320332,0.718316,0.108365,0.847766,-0.054033,-8.567974,-2.164858,0.113808,1.274841,-0.848389,0.326660,-0.170410,0.013158,0.007278,0.000998,0.999921,-0.010824,0.000569,0.006374,0.583701,-0.465185,-0.443203,-0.496456
38405,NaN,1.659542,1.758256,-0.490822,1.964351,-0.650336,-8.469327,-2.451251,0.111498,1.270529,-0.844482,0.341553,-0.164307,0.016481,0.017626,-0.005133,0.999905,-0.012256,0.000557,0.006352,0.581028,-0.475084,-0.433747,-0.498563
38406,NaN,1.452457,2.547642,-0.903726,2.733113,-1.032861,-8.874800,-2.643211,0.112599,1.271914,-0.836914,0.365234,-0.158203,0.014357,0.025446,-0.009382,0.999892,-0.013216,0.000563,0.006359,0.578100,-0.485175,-0.423770,-0.500824
38407,NaN,1.615268,3.936502,-1.026466,4.119288,-1.223780,-8.981208,-2.779393,0.051290,1.304369,-0.834961,0.373779,-0.145508,0.015893,0.039321,-0.010815,0.999882,-0.013896,0.000256,0.006522,0.574563,-0.495820,-0.413584,-0.502980
38408,NaN,0.610955,4.702434,-0.560923,4.714510,-0.709893,-10.073894,-3.030769,0.082052,1.266046,-0.829102,0.390869,-0.130615,0.005810,0.046970,-0.006324,0.999865,-0.015153,0.000410,0.006330,0.570324,-0.506858,-0.402538,-0.505755
38409,NaN,0.279448,4.834509,-0.440171,4.769241,-0.673580,-10.478126,-3.038801,0.121841,1.282233,-0.825439,0.407959,-0.120117,0.002482,0.048287,-0.005137,0.999864,-0.015193,0.000609,0.006411,0.565698,-0.517843,-0.391295,-0.508638
38410,NaN,0.478537,-6.838253,-3.446961,-6.933782,-3.031927,-8.548087,-2.324281,-0.037187,1.170160,-0.821777,0.425049,-0.114014,0.005193,-0.068747,-0.033671,0.999915,-0.011621,-0.000186,0.005851,0.562533,-0.526745,-0.382433,-0.509746
38411,NaN,3.737100,-50.532795,-3.869369,-48.925739,-1.046568,3.882348,1.295741,-0.334765,2.012619,-0.809570,0.444336,-0.120605,0.042520,-0.504653,-0.041896,0.999927,0.006479,-0.001674,0.010063,0.570105,-0.527929,-0.381405,-0.500801
38412,NaN,19.192758,-59.371142,-0.998137,-53.440078,-1.550306,22.366954,2.062597,0.556399,3.367385,-0.787109,0.478516,-0.131836,0.201845,-0.590220,-0.016633,0.999801,0.010312,0.002782,0.016836,0.584927,-0.526962,-0.376025,-0.488648
38413,NaN,37.944675,-55.536621,2.512944,-43.191182,-2.498412,41.742579,-0.580697,0.668117,4.467326,-0.774902,0.497803,-0.136230,0.391807,-0.546633,0.025430,0.999741,-0.002903,0.003340,0.022335,0.595535,-0.536263,-0.359775,-0.477830
38414,NaN,24.510293,48.216626,-0.866365,52.949295,-6.761385,-1.037855,0.490069,-0.058553,-0.202186,-0.768311,0.497803,-0.138428,0.245593,0.481937,-0.007411,0.999996,0.002450,-0.000293,-0.001011,0.596259,-0.534568,-0.361666,-0.477400
38415,NaN,-0.493305,21.527694,6.678908,20.894964,6.186864,-15.592476,0.989187,0.482601,1.364554,-0.766602,0.510742,-0.138672,-0.006237,0.214903,0.067867,0.999962,0.004946,0.002413,0.006823,0.603134,-0.533627,-0.358409,-0.472245
38416,NaN,15.972261,11.159530,3.911209,15.741141,0.590015,2.303606,-1.663974,0.087705,1.127534,-0.764893,0.521484,-0.125977,0.159106,0.112813,0.038107,0.999949,-0.008320,0.000439,0.005638,0.601484,-0.540422,-0.351192,-0.472044
38417,NaN,21.548510,7.208694,3.361996,13.822439,-1.017568,8.504233,-0.936698,0.051862,0.404457,-0.756348,0.525635,-0.127930,0.215347,0.072679,0.033225,0.999987,-0.004683,0.000259,0.002022,0.599614,-0.544579,-0.347129,-0.472651
38418,NaN,15.952283,-8.188908,-1.821658,-2.887620,-4.510566,7.396819,0.263469,0.292181,0.578260,-0.756592,0.531982,-0.132324,0.159732,-0.081403,-0.018557,0.999994,0.001317,0.001461,0.002891,0.602202,-0.544090,-0.345302,-0.471259
38419,NaN,12.383788,-9.769412,-3.436480,-5.578361,-5.443792,4.324286,0.606289,0.586656,0.468174,-0.752197,0.527832,-0.143066,0.123964,-0.097299,-0.035024,0.999988,0.003031,0.002933,0.002341,0.605632,-0.542303,-0.343252,-0.470421
38420,NaN,10.509368,-3.940601,-1.267301,-0.439849,-3.229807,1.001916,0.748076,0.360221,0.181152,-0.756592,0.534180,-0.145264,0.105106,-0.039263,-0.013009,0.999991,0.003740,0.001801,0.000906,0.608700,-0.539489,-0.343429,-0.469567
38421,NaN,12.969348,-3.832521,5.493331,1.071455,2.825219,4.468008,0.949986,0.402202,0.250632,-0.748047,0.534180,-0.156006,0.129851,-0.038422,0.054490,0.999986,0.004750,0.002011,0.001253,0.612319,-0.536614,-0.343563,-0.468055
38422,NaN,14.031162,0.595665,9.017674,5.836391,5.932138,4.654257,1.460409,0.276051,0.424407,-0.748047,0.534180,-0.164551,0.140424,0.005597,0.090025,0.999970,0.007302,0.001380,0.002122,0.617688,-0.532203,-0.344988,-0.464979
38423,NaN,23.233762,2.530205,14.810637,11.077833,9.661234,13.628870,1.171896,0.259874,0.650797,-0.741699,0.538574,-0.173096,0.232448,0.025191,0.147952,0.999977,0.005859,0.001299,0.003254,0.622449,-0.529640,-0.344773,-0.461704
38424,NaN,31.650585,4.889010,20.798446,16.578530,13.670659,21.754638,0.327000,0.605523,0.865942,-0.737793,0.551514,-0.175537,0.316919,0.049923,0.207106,0.999985,0.001635,0.003028,0.004330,0.626349,-0.528703,-0.341346,-0.460046
38425,NaN,24.408625,8.146697,8.419689,16.634434,3.019348,11.334742,-0.533165,0.314589,0.807062,-0.733643,0.553467,-0.173340,0.243886,0.082675,0.083594,0.999987,-0.002666,0.001573,0.004035,0.626798,-0.531497,-0.336333,-0.459908
38426,NaN,19.268475,2.705814,-1.437487,9.254836,-5.608923,6.421465,-1.209396,0.065751,0.893088,-0.729492,0.562012,-0.162598,0.192557,0.027830,-0.014605,0.999972,-0.006047,0.000329,0.004465,0.625732,-0.536618,-0.330963,-0.459308
38427,NaN,12.212998,-3.331531,0.901499,1.421237,-1.793527,2.670525,-1.427271,0.075703,1.042838,-0.723633,0.574951,-0.160645,0.122305,-0.032613,0.009203,0.999961,-0.007136,0.000379,0.005214,0.623767,-0.542953,-0.324301,-0.459287
38428,NaN,10.378068,-4.740085,-1.347619,-0.633774,-3.530271,1.101654,-1.004307,-0.095335,1.143523,-0.721680,0.579102,-0.152100,0.104056,-0.046873,-0.013190,0.999971,-0.005021,-0.000477,0.005718,0.623495,-0.548139,-0.319179,-0.457080
38429,NaN,8.211302,-5.463477,0.872263,-1.780331,-0.826668,-0.107957,-0.739329,-0.118338,1.043791,-0.708984,0.587891,-0.154541,0.082391,-0.054172,0.008972,0.999979,-0.003697,-0.000592,0.005219,0.622724,-0.552899,-0.314336,-0.455753
38430,NaN,4.922282,-4.728638,1.815309,-2.182616,0.822437,-3.146091,-0.437882,-0.166786,0.991928,-0.707031,0.594238,-0.148193,0.049441,-0.047002,0.018297,0.999985,-0.002189,-0.000834,0.004960,0.623503,-0.556190,-0.311111,-0.452887
38431,NaN,3.208851,-5.175375,2.044598,-3.185945,1.445659,-4.425560,-0.446560,-0.201205,0.815665,-0.696777,0.604980,-0.143799,0.032278,-0.051576,0.020594,0.999989,-0.002233,-0.001006,0.004078,0.624182,-0.558910,-0.309276,-0.449850
38432,NaN,2.824282,-6.751090,2.071335,-4.720223,1.622736,-4.074208,-0.400978,-0.231030,0.658162,-0.694580,0.606934,-0.137451,0.028441,-0.067376,0.020881,0.999992,-0.002005,-0.001155,0.003291,0.624180,-0.561692,-0.307253,-0.447769
38433,NaN,3.900333,-5.803919,2.697062,-3.306030,2.001908,-3.391274,-0.449167,-0.222368,0.439083,-0.694580,0.606934,-0.133301,0.039100,-0.057893,0.027144,0.999994,-0.002246,-0.001112,0.002195,0.623403,-0.564359,-0.305676,-0.446575
38434,NaN,4.231146,-5.514587,2.933054,-2.842988,2.183736,-3.174570,-0.566378,-0.176067,0.259448,-0.690674,0.615479,-0.128906,0.042357,-0.055008,0.029524,0.999995,-0.002832,-0.000880,0.001297,0.622113,-0.566910,-0.304226,-0.446134
38435,NaN,4.782865,-6.274207,2.255023,-3.354838,1.476608,-2.471631,-0.549225,-0.128061,0.100132,-0.697266,0.615479,-0.122559,0.047846,-0.062656,0.022753,0.999996,-0.002746,-0.000640,0.000501,0.620358,-0.569193,-0.302968,-0.446526
38436,NaN,5.361909,-5.671690,1.232978,-2.693066,0.367464,-2.393077,-0.607932,-0.074487,-0.088232,-0.703613,0.615479,-0.124756,0.053589,-0.056703,0.012522,0.999995,-0.003040,-0.000372,-0.000441,0.618315,-0.571108,-0.302091,-0.447508
38437,NaN,5.928421,-4.911662,-0.236307,-1.981417,-1.184847,-2.464462,-0.647961,-0.096466,-0.226654,-0.688477,0.613281,-0.114014,0.059230,-0.049191,-0.002175,0.999994,-0.003240,-0.000482,-0.001133,0.615685,-0.573027,-0.301607,-0.449005
38438,NaN,6.739250,-5.486083,-1.063047,-2.299978,-2.082552,-1.626266,-0.589550,-0.143876,-0.350884,-0.703613,0.611328,-0.109619,0.067304,-0.055010,-0.010420,0.999994,-0.002948,-0.000719,-0.001754,0.612988,-0.574632,-0.301729,-0.450560
38439,NaN,8.168279,-5.271579,-0.492803,-1.469065,-1.784433,-0.356972,-0.431168,-0.170487,-0.438374,-0.697021,0.606934,-0.107422,0.081571,-0.052905,-0.004745,0.999995,-0.002156,-0.000852,-0.002192,0.610085,-0.576008,-0.302110,-0.452482
38440,NaN,8.656310,-5.597389,0.537527,-1.449829,-0.812021,0.375034,-0.279534,-0.194073,-0.555477,-0.711914,0.602783,-0.107422,0.086402,-0.056206,0.005538,0.999995,-0.001398,-0.000970,-0.002777,0.607727,-0.576458,-0.303667,-0.454038
38441,NaN,9.715989,-5.941345,2.011515,-1.167053,0.479026,1.683146,-0.087775,-0.187263,-0.672000,-0.718262,0.598389,-0.103271,0.096941,-0.059731,0.020232,0.999994,-0.000439,-0.000936,-0.003360,0.605998,-0.575907,-0.306523,-0.455128
38442,NaN,9.742645,-4.987645,3.703003,-0.114206,2.086507,1.551322,0.022526,-0.186236,-0.792322,-0.716064,0.598389,-0.101074,0.097193,-0.050266,0.037115,0.999992,0.000113,-0.000931,-0.003962,0.603969,-0.575044,-0.309417,-0.456954
38443,NaN,10.821721,-4.889583,5.222577,0.530552,3.388221,2.698524,0.091266,-0.195802,-0.865538,-0.719971,0.592041,-0.107422,0.107953,-0.049387,0.052309,0.999990,0.000456,-0.000979,-0.004328,0.601849,-0.573953,-0.312724,-0.458868
38444,NaN,12.140387,-4.158002,5.694537,1.655387,3.573162,3.663084,0.090497,-0.195411,-0.973156,-0.730469,0.581299,-0.098633,0.121144,-0.042196,0.057045,0.999988,0.000452,-0.000977,-0.004866,0.599562,-0.572601,-0.316308,-0.461089
38445,NaN,13.036712,-4.703059,5.160771,1.268912,2.970361,4.618977,0.082385,-0.233127,-1.050420,-0.734131,0.566162,-0.100586,0.130057,-0.047736,0.051740,0.999985,0.000412,-0.001166,-0.005252,0.597506,-0.570886,-0.320768,-0.462800
38446,NaN,14.619329,-4.205935,3.657265,1.924020,1.216004,5.666551,0.163342,-0.275968,-1.153111,-0.742676,0.562012,-0.102783,0.145897,-0.042931,0.036739,0.999982,0.000817,-0.001380,-0.005766,0.594850,-0.569178,-0.325256,-0.465187
38447,NaN,16.601927,-3.984513,2.805032,2.515204,0.076648,7.305496,0.265857,-0.413390,-1.208790,-0.742188,0.546875,-0.093994,0.165716,-0.040885,0.028339,0.999979,0.001329,-0.002067,-0.006044,0.592883,-0.566698,-0.331537,-0.466291
38448,NaN,18.711291,-3.748911,3.644572,3.351204,0.608295,9.314331,0.342249,-0.530681,-1.268890,-0.750732,0.542725,-0.098145,0.186772,-0.038738,0.036876,0.999975,0.001711,-0.002653,-0.006344,0.589999,-0.564804,-0.337495,-0.467970
38449,NaN,21.528973,-3.287704,5.319380,4.659663,1.867870,12.036576,0.465106,-0.574845,-1.351357,-0.763184,0.531982,-0.100342,0.214907,-0.034455,0.053733,0.999970,0.002326,-0.002874,-0.006757,0.587388,-0.562218,-0.344402,-0.469334
38450,NaN,23.668903,-3.338957,6.670505,5.113539,2.971827,14.288484,0.884909,-0.386250,-1.478905,-0.769287,0.519287,-0.097900,0.236303,-0.035434,0.067008,0.999961,0.004424,-0.001931,-0.007394,0.585715,-0.557958,-0.351757,-0.471050
38451,NaN,23.131139,-1.558654,6.940369,6.176327,3.320305,13.348745,1.849134,-0.356185,-1.758017,-0.781494,0.500000,-0.108398,0.231035,-0.018261,0.069655,0.999917,0.009245,-0.001781,-0.008790,0.587099,-0.549256,-0.363243,-0.470837
38452,NaN,20.591885,2.573901,6.774463,8.802099,3.489074,9.856023,2.863690,-0.433626,-2.115654,-0.782715,0.478516,-0.121094,0.206021,0.022582,0.068530,0.999839,0.014318,-0.002168,-0.010578,0.589099,-0.537941,-0.377009,-0.470580
38453,NaN,18.123590,5.897704,6.749678,10.671308,4.064191,6.871433,3.707214,-0.613857,-2.499344,-0.805420,0.452881,-0.137939,0.181733,0.055437,0.069104,0.999745,0.018534,-0.003069,-0.012496,0.593371,-0.522004,-0.395898,-0.467640
38454,NaN,11.956531,7.732450,6.531531,10.328242,5.085937,0.809391,4.015009,-0.741268,-2.587576,-0.812988,0.420898,-0.145996,0.120294,0.074434,0.067274,0.999708,0.020073,-0.003706,-0.012937,0.596159,-0.506552,-0.414122,-0.465299
38455,NaN,10.795254,6.878065,4.926603,8.744283,3.990518,-0.030024,3.868889,-0.661569,-2.569370,-0.822754,0.393066,-0.158447,0.108649,0.066413,0.050925,0.999725,0.019343,-0.003308,-0.012846,0.600305,-0.488701,-0.433731,-0.461175
38456,NaN,13.554752,1.552886,4.046407,3.706939,2.421139,3.711207,3.194558,-0.540410,-2.265561,-0.834961,0.373779,-0.166992,0.135597,0.013340,0.041055,0.999805,0.015972,-0.002702,-0.011327,0.601597,-0.475349,-0.448170,-0.459639
38457,NaN,16.411181,-4.300446,1.817389,-1.749129,-0.884091,7.136260,2.147580,-0.490024,-2.321675,-0.844971,0.352295,-0.177246,0.163552,-0.045100,0.018098,0.999872,0.010737,-0.002450,-0.011608,0.600710,-0.463477,-0.460875,-0.460359
38458,NaN,15.263076,-14.011520,0.828973,-11.740245,-3.291596,6.958522,1.993497,-0.190692,-2.566637,-0.858887,0.322266,-0.177002,0.150808,-0.142133,0.007024,0.999868,0.009967,-0.000953,-0.012833,0.598902,-0.451949,-0.471924,-0.462975
38459,NaN,14.210492,-14.607407,-1.569473,-12.458476,-5.912493,5.273221,1.839434,-0.096428,-2.279374,-0.855957,0.298828,-0.183105,0.140437,-0.147529,-0.016979,0.999893,0.009197,-0.000482,-0.011396,0.598110,-0.439929,-0.482331,-0.464848
38460,NaN,8.957291,-8.575412,-5.487945,-6.618359,-8.124084,-1.205651,1.377042,-0.255086,-2.019322,-0.863770,0.273193,-0.180420,0.088774,-0.086273,-0.055359,0.999925,0.006885,-0.001275,-0.010096,0.595786,-0.431495,-0.490701,-0.466974
38461,NaN,7.639663,-18.384513,-5.874493,-16.308713,-10.389074,-2.266326,1.378125,-0.440594,-1.566438,-0.867676,0.262451,-0.182617,0.075087,-0.184027,-0.059846,0.999943,0.006890,-0.002203,-0.007832,0.594479,-0.423458,-0.499261,-0.466923
38462,NaN,5.980770,-15.737221,-2.792939,-14.452094,-6.793744,-3.795336,1.101726,-0.508235,-1.059143,-0.873779,0.251709,-0.178223,0.059046,-0.157530,-0.028646,0.999968,0.005509,-0.002541,-0.005296,0.593051,-0.418704,-0.505572,-0.466234
38463,NaN,0.760418,-13.457216,0.845569,-13.270807,-2.232636,-8.677408,0.742518,-0.273017,-0.895049,-0.879639,0.240967,-0.180176,0.006991,-0.134635,0.007966,0.999982,0.003713,-0.001365,-0.004475,0.592188,-0.414224,-0.510389,-0.466085
38464,NaN,-0.107079,-9.494092,2.369109,-9.778893,0.182702,-9.494439,0.293317,-0.046425,-0.763010,-0.875000,0.230225,-0.179932,-0.001439,-0.094971,0.023552,0.999992,0.001467,-0.000232,-0.003815,0.590895,-0.411504,-0.512788,-0.467501
38465,NaN,-1.097766,-6.901323,1.530606,-7.102177,0.057225,-10.668115,0.228512,0.085288,-0.600274,-0.876953,0.223877,-0.184082,-0.011178,-0.068997,0.015232,0.999995,0.001143,0.000426,-0.003001,0.590614,-0.408466,-0.514665,-0.468456
38466,NaN,-1.052003,-3.455490,0.483125,-3.505039,-0.186282,-10.792743,0.472802,0.187269,-0.254984,-0.872314,0.215332,-0.181885,-0.010560,-0.034553,0.004759,0.999996,0.002364,0.000936,-0.001275,0.591463,-0.405962,-0.515740,-0.468378
38467,NaN,-0.404361,-0.301561,0.091706,-0.326544,0.072437,-10.201247,0.562257,0.296453,0.017777,-0.865967,0.215332,-0.190430,-0.004042,-0.003019,0.000915,0.999995,0.002811,0.001482,0.000089,0.593847,-0.403023,-0.516478,-0.467084
38468,NaN,0.537627,2.420770,-0.996336,2.605081,-0.446375,-9.417555,0.559738,0.270112,0.392785,-0.868164,0.215332,-0.194580,0.005315,0.024246,-0.009903,0.999993,0.002799,0.001351,0.001964,0.596587,-0.401729,-0.516191,-0.465020
38469,NaN,-0.395603,3.970507,-0.904763,4.053485,0.176966,-10.339855,0.373203,0.264994,0.457486,-0.863770,0.215332,-0.192627,-0.004059,0.039713,-0.008968,0.999995,0.001866,0.001325,0.002287,0.599602,-0.400441,-0.515714,-0.462779
38470,NaN,0.209992,4.389847,-0.938012,4.490073,0.178878,-9.769171,0.147587,0.240138,0.580162,-0.861816,0.219482,-0.196777,0.001961,0.043911,-0.009350,0.999995,0.000738,0.001201,0.002901,0.601857,-0.400921,-0.514175,-0.461145
38471,NaN,0.311426,4.264126,-0.299798,4.214065,0.752051,-9.599076,-0.115558,0.243300,0.705863,-0.857910,0.230225,-0.203369,0.002960,0.042650,-0.003026,0.999993,-0.000578,0.001216,0.003529,0.604040,-0.402078,-0.512015,-0.459684
38472,NaN,0.166648,3.563274,0.809963,3.257088,1.650291,-9.592310,-0.470665,0.280945,0.793259,-0.855713,0.234619,-0.201416,0.001536,0.035658,0.008014,0.999988,-0.002353,0.001405,0.003966,0.605631,-0.404863,-0.508488,-0.459061
38473,NaN,0.324060,2.450424,1.104301,2.128306,1.618511,-9.388752,-0.917537,0.338736,0.860952,-0.849854,0.247314,-0.201416,0.003153,0.024568,0.010925,0.999979,-0.004588,0.001694,0.004305,0.606882,-0.408595,-0.503824,-0.459245
38474,NaN,0.620435,1.350192,0.641196,1.209881,0.846575,-9.150474,-1.356858,0.421239,0.933281,-0.843750,0.255859,-0.197266,0.006154,0.013574,0.006307,0.999964,-0.006784,0.002106,0.004666,0.607294,-0.414062,-0.497509,-0.460685
38475,NaN,0.619719,0.256658,0.491439,0.197774,0.438621,-9.134520,-1.754672,0.512695,0.992110,-0.843994,0.266602,-0.197510,0.006197,0.002640,0.004876,0.999946,-0.008773,0.002563,0.004960,0.607218,-0.420599,-0.489817,-0.463101
38476,NaN,0.824817,-0.742037,0.799323,-0.801105,0.491678,-8.819570,-1.827687,0.522123,1.007645,-0.844482,0.283936,-0.201904,0.008306,-0.007305,0.008039,0.999942,-0.009138,0.002611,0.005038,0.606953,-0.427363,-0.481857,-0.465600
38477,NaN,0.964322,-0.655523,-0.260599,-0.492133,-0.527735,-8.860410,-2.010997,0.461937,0.895504,-0.832031,0.294434,-0.202148,0.009667,-0.006538,-0.002562,0.999937,-0.010055,0.002310,0.004477,0.605855,-0.434492,-0.473802,-0.468688
38478,NaN,0.650468,-1.148168,-0.682065,-0.944232,-0.964881,-9.193014,-2.056075,0.392025,0.736923,-0.834717,0.305176,-0.191650,0.006534,-0.011527,-0.006715,0.999938,-0.010280,0.001960,0.003685,0.604009,-0.441501,-0.466171,-0.472159
38479,NaN,0.299296,-1.652375,-0.401979,-1.532344,-0.696910,-9.428417,-1.869695,0.316823,0.630125,-0.832764,0.311523,-0.196045,0.003039,-0.016551,-0.003870,0.999950,-0.009348,0.001584,0.003151,0.602124,-0.447859,-0.459331,-0.475272
38480,NaN,0.080465,-2.034871,-0.169790,-1.972439,-0.463036,-9.546261,-1.620156,0.258511,0.589487,-0.828613,0.320068,-0.185303,0.000863,-0.020359,-0.001534,0.999962,-0.008101,0.001293,0.002947,0.600470,-0.453440,-0.453371,-0.477790
38481,NaN,0.348285,-2.015618,-0.139145,-1.923743,-0.448490,-9.263698,-1.206064,0.155457,0.655406,-0.820312,0.326660,-0.185303,0.003548,-0.020153,-0.001273,0.999976,-0.006030,0.000777,0.003277,0.599670,-0.458203,-0.448462,-0.478882
38482,NaN,0.411634,-0.430970,0.219886,-0.386614,0.097340,-9.318139,-0.824621,0.054982,0.769348,-0.818848,0.345947,-0.181396,0.004133,-0.004285,0.002215,0.999984,-0.004123,0.000275,0.003847,0.599739,-0.462243,-0.444558,-0.478553
38483,NaN,0.252251,3.103939,-0.062300,3.100055,0.242974,-9.992877,-0.812573,-0.045955,0.784873,-0.823486,0.354492,-0.181641,0.002401,0.031046,-0.000749,0.999984,-0.004063,-0.000230,0.003924,0.599647,-0.466602,-0.440832,-0.477883
38484,NaN,0.892839,6.350961,-1.687376,6.524716,-1.139593,-10.141478,-0.908163,-0.172138,0.686794,-0.819336,0.360840,-0.175293,0.008725,0.063462,-0.017154,0.999983,-0.004541,-0.000861,0.003434,0.598782,-0.471224,-0.437574,-0.477427
38485,NaN,1.116417,7.260218,-1.354689,7.420957,-0.814876,-10.051653,-1.023676,-0.215060,0.657010,-0.813477,0.375977,-0.177490,0.010941,0.072568,-0.013907,0.999981,-0.005118,-0.001075,0.003285,0.597463,-0.476264,-0.434174,-0.477183
38486,NaN,1.137580,5.415372,-2.405758,5.665373,-2.070125,-9.973432,-0.835983,-0.200875,0.843322,-0.820312,0.386475,-0.166992,0.011172,0.054100,-0.024273,0.999982,-0.004180,-0.001004,0.004217,0.597039,-0.481044,-0.430769,-0.476003
38487,NaN,1.479265,-21.545650,1.616901,-20.969792,-0.487562,-4.423812,0.192809,-0.190000,1.417228,-0.805908,0.403564,-0.169434,0.016304,-0.215360,0.015976,0.999974,0.000964,-0.000950,0.007086,0.600439,-0.483952,-0.428393,-0.470896
38488,NaN,9.890973,-46.275279,-1.188637,-43.234864,-6.594565,8.292819,-0.975743,0.284247,2.077052,-0.804688,0.429443,-0.167480,0.103694,-0.461744,-0.009777,0.999933,-0.004879,0.001421,0.010385,0.603539,-0.490611,-0.420193,-0.467418
38489,NaN,31.582500,-105.940480,-1.786695,-95.761016,-14.142922,43.590218,-2.902651,1.478702,3.744439,-0.783936,0.455078,-0.172119,0.335517,-1.053380,-0.004981,0.999692,-0.014512,0.007393,0.018720,0.608121,-0.503910,-0.399340,-0.465608
38490,NaN,43.372260,57.044896,-12.691842,66.256359,-15.807959,15.809217,1.794249,0.178505,-0.325118,-0.790283,0.450684,-0.169922,0.434540,0.570853,-0.122186,0.999958,0.008971,0.000893,-0.001626,0.612218,-0.497351,-0.403782,-0.463456
38491,NaN,4.019656,40.055774,7.999811,39.460711,10.481254,-14.006770,1.301891,0.199373,0.453334,-0.781738,0.457275,-0.180664,0.039371,0.400116,0.082564,0.999976,0.006509,0.000997,0.002267,0.616915,-0.494223,-0.404793,-0.459677
38492,NaN,19.916333,4.607977,0.220699,9.538443,-2.705139,8.065701,0.202158,0.262568,1.302117,-0.780029,0.465820,-0.178711,0.198860,0.047373,0.001993,0.999977,0.001011,0.001313,0.006511,0.620927,-0.495602,-0.401226,-0.455901
38493,NaN,29.820499,17.852873,-1.595799,25.166506,-4.864076,13.714291,-0.077295,-0.374315,0.459244,-0.775879,0.469971,-0.167969,0.297823,0.179207,-0.015470,0.999996,-0.000386,-0.001872,0.002296,0.620962,-0.497860,-0.400981,-0.453603
38494,NaN,18.957209,5.230738,-4.410820,10.284848,-6.933659,6.072451,-1.245852,-0.629362,0.109950,-0.780518,0.478516,-0.163818,0.189682,0.052138,-0.043837,0.999975,-0.006229,-0.003147,0.000550,0.616836,-0.503347,-0.399831,-0.454193
38495,NaN,17.919046,-3.832115,1.686129,1.060283,-1.414742,8.503799,-0.341617,-0.510937,0.148738,-0.780273,0.474365,-0.157471,0.179175,-0.038159,0.017384,0.999995,-0.001708,-0.002555,0.000744,0.615142,-0.506034,-0.400351,-0.453045
38496,NaN,10.685610,-6.724426,10.279432,-3.933114,8.050099,3.781111,-0.542887,-0.794725,0.028280,-0.787109,0.485107,-0.144775,0.106456,-0.066949,0.103400,0.999988,-0.002714,-0.003974,0.000141,0.612237,-0.509538,-0.401494,-0.452039
38497,NaN,8.336342,-8.248999,6.505071,-5.906696,4.641931,1.296761,-0.212109,-0.078260,-0.265250,-0.782715,0.478516,-0.151123,0.083228,-0.082531,0.065171,0.999998,-0.001061,-0.000391,-0.001326,0.610787,-0.510016,-0.401960,-0.453047
38498,NaN,16.272248,-5.365034,4.646177,-1.010509,1.867858,7.812464,0.139678,0.106676,-0.460572,-0.793213,0.474365,-0.146729,0.162623,-0.054057,0.046337,0.999997,0.000698,0.000533,-0.002303,0.610314,-0.508404,-0.403129,-0.454454
38499,NaN,23.906791,1.831083,10.966739,7.669402,7.442156,14.290214,-0.284640,0.381242,-0.500918,-0.788818,0.472168,-0.150879,0.239321,0.017867,0.109186,0.999994,-0.001423,0.001906,-0.002505,0.609092,-0.507568,-0.402569,-0.457515
38500,NaN,30.033673,8.119190,7.256093,15.373756,3.158208,18.012934,-0.424463,0.348844,-0.197268,-0.793213,0.472168,-0.155273,0.300542,0.081049,0.071865,0.999996,-0.002122,0.001744,-0.000986,0.608265,-0.507647,-0.401040,-0.459864
38501,NaN,17.364000,2.621262,3.131691,6.904470,0.590431,6.624057,-0.308817,0.159453,-0.033081,-0.791016,0.472168,-0.144531,0.173669,0.026232,0.031138,0.999998,-0.001544,0.000797,-0.000165,0.607587,-0.508245,-0.399933,-0.461062
38502,NaN,11.845676,-4.167536,1.620691,-1.035422,-0.463973,2.797930,-0.302829,0.086457,-0.012466,-0.792969,0.468018,-0.150879,0.118461,-0.041658,0.016219,0.999999,-0.001514,0.000432,-0.000062,0.606963,-0.508924,-0.399008,-0.461935
38503,NaN,6.766245,-5.800947,1.398748,-3.910052,0.016381,-1.682449,-0.193067,0.170300,-0.148887,-0.791016,0.468018,-0.150879,0.067631,-0.058046,0.013986,0.999999,-0.000965,0.000852,-0.000744,0.606316,-0.508899,-0.398465,-0.463279
38504,NaN,5.416041,-5.432794,1.284310,-3.911987,0.136053,-3.091380,-0.194816,0.153879,-0.435275,-0.795166,0.468018,-0.153076,0.054052,-0.054433,0.012854,0.999997,-0.000974,0.000769,-0.002176,0.605119,-0.508249,-0.398659,-0.465387
38505,NaN,6.486457,-4.737565,1.943043,-3.017565,0.657710,-2.147472,-0.165903,0.107813,-0.738525,-0.796875,0.455078,-0.146484,0.064700,-0.047599,0.019435,0.999993,-0.000830,0.000539,-0.003693,0.603075,-0.507099,-0.399839,-0.468274
38506,NaN,7.677507,-3.656149,3.297626,-1.751498,1.859790,-1.057182,-0.214794,0.044677,-0.933487,-0.801270,0.455078,-0.150879,0.076611,-0.036884,0.032999,0.999989,-0.001074,0.000223,-0.004667,0.600429,-0.505755,-0.401569,-0.471636
38507,NaN,8.784358,-3.399092,3.704809,-1.325960,2.106438,-0.002058,-0.224280,-0.020846,-1.035350,-0.802979,0.446533,-0.146484,0.087662,-0.034403,0.037096,0.999986,-0.001121,-0.000104,-0.005177,0.597258,-0.504472,-0.403724,-0.475182
38508,NaN,9.758028,-2.395959,2.957354,-0.226310,1.264912,0.582192,-0.168209,-0.087682,-1.085321,-0.807129,0.442139,-0.144287,0.097435,-0.024464,0.029637,0.999985,-0.000841,-0.000438,-0.005427,0.594070,-0.502969,-0.406323,-0.478544
38509,NaN,9.903957,-1.242569,2.076249,0.827195,0.430455,0.339781,-0.218351,-0.163613,-1.122000,-0.815186,0.425049,-0.144043,0.098951,-0.012958,0.020857,0.999983,-0.001092,-0.000818,-0.005610,0.590306,-0.501902,-0.408973,-0.482052
38510,NaN,9.527406,-0.884352,1.507208,0.995928,-0.040346,-0.177815,-0.313279,-0.215726,-1.130657,-0.823730,0.418701,-0.139648,0.095206,-0.009358,0.015189,0.999982,-0.001566,-0.001079,-0.005653,0.586345,-0.501010,-0.411690,-0.485490
38511,NaN,8.920974,-1.320802,1.331432,0.351346,-0.106861,-0.704156,-0.314606,-0.204827,-1.103651,-0.825439,0.410156,-0.137451,0.089121,-0.013679,0.013427,0.999983,-0.001573,-0.001024,-0.005518,0.582345,-0.500213,-0.414290,-0.488902
38512,NaN,8.954911,-1.763894,1.500657,-0.173498,0.067085,-0.565075,-0.259960,-0.168551,-1.089725,-0.831787,0.401611,-0.133057,0.089439,-0.018107,0.015105,0.999984,-0.001300,-0.000843,-0.005449,0.578673,-0.499102,-0.416870,-0.492194
38513,NaN,9.018685,-1.828801,2.037939,-0.318338,0.610083,-0.412686,-0.237836,-0.175960,-1.094111,-0.833496,0.390869,-0.137207,0.090067,-0.018757,0.020481,0.999984,-0.001189,-0.000880,-0.005471,0.574875,-0.498038,-0.419481,-0.495492
38514,NaN,9.140034,-1.809496,1.972854,-0.379754,0.551028,-0.312271,-0.203022,-0.208709,-1.122219,-0.843994,0.384277,-0.132812,0.091276,-0.018587,0.019843,0.999983,-0.001015,-0.001044,-0.005611,0.571143,-0.496762,-0.422371,-0.498624
38515,NaN,9.115194,-1.953838,1.511003,-0.634123,0.124304,-0.390964,-0.135933,-0.252550,-1.116928,-0.845703,0.369385,-0.128174,0.091022,-0.020037,0.015239,0.999983,-0.000680,-0.001263,-0.005585,0.567426,-0.495436,-0.425535,-0.501488
38516,NaN,8.993997,-1.438796,1.271011,-0.246436,-0.061422,-0.619641,-0.125715,-0.324126,-1.150462,-0.851807,0.360840,-0.124023,0.089834,-0.014897,0.012865,0.999982,-0.000629,-0.001621,-0.005752,0.563531,-0.494134,-0.428988,-0.504216
38517,NaN,8.803922,-1.909029,1.526579,-0.837309,0.253486,-0.717770,-0.111851,-0.356517,-1.174753,-0.849365,0.354248,-0.117432,0.087898,-0.019598,0.015433,0.999981,-0.000559,-0.001783,-0.005874,0.559475,-0.492811,-0.432679,-0.506867
38518,NaN,8.724055,-1.996902,1.595275,-1.036113,0.368912,-0.788773,-0.063311,-0.352581,-1.168671,-0.857666,0.341553,-0.119385,0.087094,-0.020473,0.016113,0.999981,-0.000317,-0.001763,-0.005843,0.555585,-0.491329,-0.436382,-0.509404
38519,NaN,8.795291,-1.592666,1.493097,-0.731393,0.292970,-0.784879,-0.002784,-0.341401,-1.152755,-0.859375,0.330811,-0.119141,0.087834,-0.016433,0.015081,0.999982,-0.000014,-0.001707,-0.005764,0.551785,-0.489765,-0.440122,-0.511817
38520,NaN,8.947995,-0.815029,0.902857,-0.054607,-0.283343,-0.787066,0.020548,-0.326602,-1.122989,-0.869873,0.324463,-0.116943,0.089417,-0.008653,0.009174,0.999983,0.000103,-0.001633,-0.005615,0.548233,-0.488049,-0.443824,-0.514070
38521,NaN,9.574655,-0.270145,-0.052914,0.420499,-1.284114,-0.329910,0.015836,-0.318242,-1.080157,-0.867676,0.322266,-0.112793,0.095731,-0.003218,-0.000377,0.999984,0.000079,-0.001591,-0.005401,0.544797,-0.486384,-0.447417,-0.516183
38522,NaN,10.063396,0.140264,-0.284191,0.756676,-1.546397,0.107368,0.004384,-0.323971,-1.018048,-0.875732,0.302979,-0.103760,0.100644,0.000890,-0.002679,0.999986,0.000022,-0.001620,-0.005090,0.541448,-0.484909,-0.450787,-0.518159
38523,NaN,10.162134,0.673018,0.260664,1.202863,-0.987247,0.255452,-0.033904,-0.346451,-0.956365,-0.877686,0.298584,-0.103760,0.101647,0.006245,0.002782,0.999987,-0.000170,-0.001732,-0.004782,0.537957,-0.483881,-0.453871,-0.520060
38524,NaN,10.088952,0.677335,0.991229,1.121832,-0.217757,0.282934,-0.076104,-0.362742,-0.896458,-0.884033,0.292236,-0.099365,0.100900,0.006325,0.010093,0.999988,-0.000381,-0.001814,-0.004482,0.534613,-0.482974,-0.456819,-0.521768
38525,NaN,10.062824,-0.014863,1.582786,0.351960,0.421275,0.359027,-0.104724,-0.405069,-0.856086,-0.883545,0.281494,-0.099365,0.100594,-0.000571,0.016032,0.999989,-0.000524,-0.002025,-0.004280,0.531045,-0.482483,-0.459639,-0.523387
38526,NaN,9.797902,-0.262547,1.974995,0.021530,0.888255,0.146141,-0.102904,-0.449419,-0.829801,-0.883301,0.277100,-0.094971,0.097922,-0.003022,0.019972,0.999989,-0.000515,-0.002247,-0.004149,0.527586,-0.482006,-0.462566,-0.524744
38527,NaN,9.646469,-0.595207,1.787315,-0.395299,0.771604,-0.022345,-0.082146,-0.480087,-0.814124,-0.887451,0.270752,-0.088379,0.096396,-0.006337,0.018107,0.999989,-0.000411,-0.002400,-0.004071,0.524091,-0.481627,-0.465574,-0.525933
38528,NaN,9.651768,-0.403269,1.159715,-0.291462,0.193062,-0.089453,-0.052404,-0.495491,-0.801388,-0.893799,0.264404,-0.084229,0.096471,-0.004416,0.011837,0.999989,-0.000262,-0.002477,-0.004007,0.520698,-0.481182,-0.468666,-0.526963
38529,NaN,9.389750,0.101389,0.369039,0.122427,-0.526562,-0.430738,-0.062205,-0.515502,-0.786311,-0.895752,0.260010,-0.079834,0.093891,0.000646,0.003932,0.999989,-0.000311,-0.002578,-0.003932,0.517116,-0.481008,-0.471634,-0.527999
38530,NaN,9.403812,0.423433,-0.225749,0.359702,-1.077675,-0.465466,-0.131630,-0.509483,-0.775077,-0.891113,0.247070,-0.073242,0.094059,0.003868,-0.002021,0.999989,-0.000658,-0.002547,-0.003875,0.513546,-0.480846,-0.474469,-0.529090
