// Start Time: Unknown
// Update Rate: 100.0Hz
// Filter Profile: human (46.1)
// Firmware Version: 4.4.0
PacketCounter,SampleTimeFine,Acc_X,Acc_Y,Acc_Z,FreeAcc_X,FreeAcc_Y,FreeAcc_Z,Gyr_X,Gyr_Y,Gyr_Z,Mag_X,Mag_Y,Mag_Z,VelInc_X,VelInc_Y,VelInc_Z,OriInc_q0,OriInc_q1,OriInc_q2,OriInc_q3,Quat_q0,Quat_q1,Quat_q2,Quat_q3
20287,NaN,9.058862,-1.132688,0.130530,-0.000000,-0.000000,-0.682448,0.510142,0.787949,1.342389,-0.950684,0.122559,0.069580,0.090666,-0.010721,0.000920,0.999966,0.002551,0.003940,0.006712,0.079573,-0.703523,0.003867,-0.706193
20288,NaN,9.583627,-1.224818,0.008246,0.000000,-0.000000,-0.151225,0.703683,0.862728,1.436235,-0.953125,0.133057,0.057129,0.095920,-0.011559,-0.000373,0.999959,0.003518,0.004314,0.007181,0.149332,-0.705389,-0.065991,-0.689762
20289,NaN,10.007599,-1.287858,0.003194,-0.068692,0.062487,0.276866,0.895068,0.962631,1.515222,-0.947266,0.150146,0.046631,0.100168,-0.012118,-0.000505,0.999950,0.004475,0.004813,0.007576,0.198119,-0.695337,-0.109076,-0.682171
20290,NaN,10.180238,-1.401536,0.076414,-0.081313,-0.016187,0.463356,1.075952,1.078478,1.569480,-0.945801,0.165039,0.034180,0.101910,-0.013218,0.000142,0.999940,0.005380,0.005392,0.007847,0.207789,-0.691407,-0.106214,-0.683738
20291,NaN,10.337543,-1.313568,0.074679,-0.088547,-0.332239,0.602383,1.226559,1.176539,1.612329,-0.941895,0.177734,0.021484,0.103479,-0.012304,0.000061,0.999931,0.006133,0.005883,0.008061,0.218515,-0.686707,-0.103304,-0.685575
20292,NaN,10.574128,-1.228345,-0.015443,-0.176416,-0.701942,0.807714,1.353811,1.277642,1.644016,-0.938477,0.198975,0.000732,0.105833,-0.011409,-0.000910,0.999923,0.006769,0.006388,0.008220,0.229441,-0.681644,-0.100896,-0.687414
20293,NaN,10.712600,-1.153242,-0.112011,-0.281176,-1.069119,0.905300,1.445335,1.368745,1.677212,-0.932373,0.207520,-0.009521,0.107206,-0.010622,-0.001933,0.999915,0.007226,0.006844,0.008386,0.240976,-0.676068,-0.098502,-0.689318
20294,NaN,10.839125,-0.959906,-0.211886,-0.337669,-1.547242,0.954836,1.503210,1.452321,1.697951,-0.926514,0.224609,-0.021973,0.108448,-0.008658,-0.002974,0.999909,0.007516,0.007261,0.008489,0.252603,-0.670027,-0.096185,-0.691378
20295,NaN,10.863406,-0.738736,-0.321040,-0.382721,-2.013887,0.885655,1.520670,1.518841,1.714044,-0.918701,0.239502,-0.044922,0.108663,-0.006427,-0.004087,0.999906,0.007603,0.007594,0.008570,0.263809,-0.664059,-0.094752,-0.693147
20296,NaN,10.894123,-0.574665,-0.408198,-0.437253,-2.451244,0.816195,1.507883,1.570269,1.732359,-0.916992,0.254395,-0.065430,0.108949,-0.004768,-0.004976,0.999903,0.007539,0.007851,0.008662,0.275537,-0.657384,-0.092146,-0.695294
20297,NaN,10.867172,-0.437022,-0.444369,-0.442476,-2.799841,0.696501,1.470608,1.603830,1.748424,-0.915283,0.267090,-0.080078,0.108664,-0.003383,-0.005342,0.999903,0.007353,0.008019,0.008742,0.287084,-0.651068,-0.090893,-0.696729
20298,NaN,10.797314,-0.292606,-0.445574,-0.421665,-3.149389,0.519970,1.413031,1.620182,1.755708,-0.907471,0.284180,-0.096680,0.107952,-0.001943,-0.005346,0.999904,0.007065,0.008101,0.008778,0.298509,-0.644131,-0.087766,-0.698774
20299,NaN,10.689599,-0.178876,-0.301698,-0.261656,-3.327343,0.348278,1.337328,1.621292,1.761879,-0.899414,0.294678,-0.119385,0.106877,-0.000823,-0.003891,0.999906,0.006686,0.008106,0.008809,0.309613,-0.638178,-0.087585,-0.699426
20300,NaN,10.544788,-0.084903,-0.190396,-0.159837,-3.537853,0.121529,1.240192,1.613582,1.762692,-0.889404,0.309570,-0.135986,0.105430,0.000096,-0.002756,0.999909,0.006201,0.008068,0.008813,0.320413,-0.631330,-0.083792,-0.701240
20301,NaN,10.385102,-0.017692,-0.043926,0.001131,-3.603761,-0.073059,1.110437,1.593262,1.773248,-0.883545,0.324463,-0.150391,0.103839,0.000749,-0.001264,0.999914,0.005552,0.007966,0.008866,0.330694,-0.626222,-0.084966,-0.700905
20302,NaN,10.177783,-0.039886,0.053743,0.038893,-3.687629,-0.326551,0.977894,1.558618,1.784747,-0.877441,0.337402,-0.171143,0.101776,0.000509,-0.000255,0.999918,0.004889,0.007793,0.008923,0.340646,-0.619850,-0.080221,-0.702361
20303,NaN,9.990123,-0.068387,0.244002,0.203102,-3.590578,-0.489130,0.842922,1.519890,1.790676,-0.869629,0.352051,-0.183594,0.099917,0.000203,0.001680,0.999922,0.004215,0.007599,0.008953,0.350029,-0.615931,-0.082765,-0.700898
20304,NaN,9.794386,-0.130150,0.328426,0.217622,-3.636450,-0.714370,0.706964,1.477894,1.799972,-0.853027,0.362793,-0.197998,0.097971,-0.000430,0.002558,0.999926,0.003535,0.007389,0.009000,0.359100,-0.610214,-0.077107,-0.701955
20305,NaN,9.596282,-0.191404,0.436198,0.311334,-3.508584,-0.873761,0.576368,1.430503,1.805869,-0.838623,0.377686,-0.208496,0.096003,-0.001059,0.003672,0.999930,0.002882,0.007152,0.009029,0.367600,-0.607537,-0.080839,-0.699452
20306,NaN,9.392481,-0.287651,0.438869,0.249703,-3.554543,-1.106763,0.464437,1.387895,1.806207,-0.828369,0.385986,-0.222900,0.093973,-0.002037,0.003731,0.999932,0.002322,0.006939,0.009031,0.375864,-0.602519,-0.074420,-0.700114
20307,NaN,9.242783,-0.367109,0.404713,0.232801,-3.481176,-1.236487,0.360820,1.336570,1.810341,-0.818359,0.403076,-0.235352,0.092480,-0.002841,0.003424,0.999935,0.001804,0.006683,0.009052,0.383602,-0.600948,-0.079021,-0.696754
20308,NaN,9.067061,-0.506025,0.278244,0.053156,-3.568357,-1.457706,0.276357,1.288180,1.794848,-0.810303,0.415771,-0.247803,0.090727,-0.004250,0.002192,0.999938,0.001382,0.006441,0.008974,0.391170,-0.596602,-0.072115,-0.697030
20309,NaN,8.994950,-0.644664,0.140464,-0.063096,-3.523472,-1.510734,0.229099,1.229016,1.778904,-0.798096,0.428467,-0.254150,0.090008,-0.005647,0.000845,0.999941,0.001145,0.006145,0.008894,0.398399,-0.596165,-0.078072,-0.692654
20310,NaN,8.877397,-0.711057,-0.038961,-0.227488,-3.704689,-1.717265,0.196858,1.178017,1.751621,-0.785889,0.439209,-0.264404,0.088827,-0.006332,-0.000919,0.999944,0.000984,0.005890,0.008758,0.405490,-0.592344,-0.071181,-0.692560
20311,NaN,8.799217,-0.796345,-0.133789,-0.273461,-3.659771,-1.774851,0.188951,1.128259,1.714107,-0.775635,0.453857,-0.279053,0.088047,-0.007207,-0.001842,0.999947,0.000945,0.005641,0.008570,0.411228,-0.592854,-0.076664,-0.688141
20312,NaN,8.731121,-0.925834,-0.256479,-0.429628,-3.777224,-1.894301,0.198903,1.083932,1.674602,-0.763428,0.464600,-0.285156,0.087369,-0.008524,-0.003047,0.999950,0.000994,0.005420,0.008373,0.417974,-0.589328,-0.070151,-0.687800
20313,NaN,8.671169,-0.988639,-0.304649,-0.376533,-3.710694,-1.916741,0.242147,1.038262,1.629203,-0.755371,0.479492,-0.295654,0.086771,-0.009176,-0.003508,0.999953,0.001211,0.005191,0.008146,0.426603,-0.590356,-0.079941,-0.680514
20314,NaN,8.645425,-1.042270,-0.384989,-0.445271,-3.863015,-2.011757,0.294035,1.002595,1.575787,-0.745117,0.487793,-0.299805,0.086512,-0.009735,-0.004298,0.999955,0.001470,0.005013,0.007879,0.433214,-0.586920,-0.074148,-0.679965
20315,NaN,8.570848,-1.086088,-0.355472,-0.423336,-3.741491,-2.029029,0.371830,0.964772,1.522972,-0.730713,0.498535,-0.306152,0.085769,-0.010201,-0.003988,0.999958,0.001859,0.004824,0.007615,0.433140,-0.588731,-0.076859,-0.678143
20316,NaN,8.544841,-1.055480,-0.311240,-0.346365,-3.858400,-2.117490,0.455280,0.937521,1.462701,-0.724365,0.502686,-0.318359,0.085507,-0.009922,-0.003536,0.999960,0.002276,0.004688,0.007313,0.439783,-0.585105,-0.072064,-0.677533
20317,NaN,8.505126,-0.956784,-0.197646,-0.156617,-3.804378,-2.145090,0.533988,0.901606,1.416836,-0.703613,0.511230,-0.328613,0.085106,-0.008959,-0.002385,0.999961,0.002670,0.004508,0.007084,0.441296,-0.586235,-0.075050,-0.675244
20318,NaN,8.516968,-0.819956,-0.073124,0.052242,-3.942020,-2.218445,0.610089,0.866433,1.362538,-0.699707,0.519531,-0.337158,0.085219,-0.007616,-0.001124,0.999963,0.003050,0.004332,0.006813,0.447993,-0.582453,-0.071201,-0.674523
20319,NaN,8.601204,-0.750987,0.061552,0.356971,-3.912227,-2.124125,0.686350,0.828270,1.313106,-0.689209,0.523926,-0.345215,0.086060,-0.006946,0.000235,0.999964,0.003432,0.004141,0.006565,0.458923,-0.582463,-0.081963,-0.665889
20320,NaN,8.709488,-0.726026,0.107048,0.443916,-4.069297,-2.090249,0.761214,0.788280,1.263276,-0.682861,0.528076,-0.353516,0.087142,-0.006713,0.000701,0.999965,0.003806,0.003941,0.006316,0.465653,-0.578589,-0.079006,-0.664951
20321,NaN,8.890058,-0.704913,0.171060,0.630836,-4.069135,-1.900540,0.843499,0.745720,1.216830,-0.668213,0.532227,-0.363770,0.088947,-0.006514,0.001351,0.999966,0.004217,0.003729,0.006084,0.471406,-0.579793,-0.087569,-0.658748
20322,NaN,9.069439,-0.581331,0.271513,0.838476,-4.270982,-1.830159,0.932723,0.701525,1.169902,-0.662109,0.540771,-0.369873,0.090735,-0.005294,0.002371,0.999966,0.004664,0.003508,0.005849,0.478254,-0.575776,-0.085594,-0.657593
20323,NaN,9.301622,-0.426015,0.383479,1.058991,-4.355084,-1.642049,1.017489,0.648113,1.114580,-0.655762,0.534424,-0.377930,0.093050,-0.003760,0.003513,0.999966,0.005087,0.003241,0.005573,0.478480,-0.575954,-0.089614,-0.656737
20324,NaN,9.500282,-0.248959,0.532298,1.342306,-4.548978,-1.560132,1.083451,0.601490,1.047204,-0.640869,0.534424,-0.388184,0.095030,-0.002020,0.005025,0.999967,0.005417,0.003007,0.005236,0.485292,-0.571838,-0.088714,-0.655456
20325,NaN,9.777755,-0.055877,0.607678,1.737974,-4.631766,-1.356791,1.149241,0.544345,0.980748,-0.636719,0.534424,-0.400391,0.097795,-0.000113,0.005809,0.999968,0.005746,0.002722,0.004904,0.495793,-0.571212,-0.102027,-0.646140
20326,NaN,10.212552,0.158101,0.688934,2.048091,-4.985682,-1.109619,1.203980,0.472541,0.895351,-0.632324,0.534424,-0.408691,0.102133,0.001998,0.006659,0.999969,0.006020,0.002363,0.004477,0.502350,-0.567140,-0.102185,-0.644636
20327,NaN,10.770550,0.499788,0.685459,2.503724,-5.269468,-0.719402,1.242197,0.382913,0.799887,-0.621826,0.536377,-0.410645,0.107697,0.005387,0.006681,0.999971,0.006211,0.001915,0.003999,0.507887,-0.567284,-0.115520,-0.637884
20328,NaN,11.394837,0.766479,0.691323,2.854200,-5.762909,-0.349616,1.263982,0.277472,0.685233,-0.617432,0.530029,-0.426758,0.113931,0.008012,0.006805,0.999973,0.006320,0.001387,0.003426,0.513804,-0.563570,-0.116900,-0.636183
20329,NaN,12.168129,1.037295,0.712273,3.165652,-6.099163,0.307849,1.270270,0.158662,0.554066,-0.615479,0.536621,-0.433105,0.121658,0.010665,0.007093,0.999976,0.006351,0.000793,0.002770,0.511663,-0.564032,-0.126547,-0.635652
20330,NaN,12.910497,1.201708,0.766713,3.487170,-6.527393,0.861840,1.239838,0.033880,0.401198,-0.617432,0.530273,-0.439209,0.129082,0.012228,0.007721,0.999979,0.006199,0.000169,0.002006,0.516445,-0.560995,-0.129267,-0.633924
20331,NaN,13.685999,1.575576,0.922918,3.906155,-6.716115,1.601183,1.200488,-0.071706,0.232436,-0.617188,0.521729,-0.445068,0.136838,0.015859,0.009373,0.999981,0.006002,-0.000359,0.001162,0.511472,-0.562164,-0.140812,-0.634460
20332,NaN,14.044821,1.704779,1.108086,4.196352,-6.784688,1.923991,1.136380,-0.146958,0.043610,-0.614746,0.515381,-0.448975,0.140436,0.017015,0.011281,0.999984,0.005682,-0.000735,0.000218,0.514692,-0.559746,-0.144668,-0.633125
20333,NaN,13.987237,1.767172,1.313148,4.253780,-6.301422,2.132487,1.026131,-0.229686,-0.130515,-0.618896,0.510986,-0.451172,0.139869,0.017512,0.013382,0.999986,0.005131,-0.001148,-0.000653,0.509644,-0.560916,-0.158810,-0.632784
20334,NaN,13.820657,1.958112,1.474125,4.468798,-6.118038,2.003262,0.868704,-0.340738,-0.327342,-0.618652,0.504639,-0.450928,0.138213,0.019290,0.015061,0.999988,0.004344,-0.001704,-0.001637,0.510767,-0.559514,-0.163344,-0.631965
20335,NaN,13.799004,2.104610,1.624668,4.445086,-5.731612,2.223515,0.672361,-0.474023,-0.537320,-0.631104,0.498291,-0.448975,0.138007,0.020620,0.016644,0.999988,0.003362,-0.002370,-0.002687,0.499622,-0.561935,-0.175828,-0.635367
20336,NaN,14.015754,2.212631,1.572676,4.501494,-5.803549,2.429205,0.454043,-0.629750,-0.755072,-0.635254,0.489990,-0.448730,0.140189,0.021561,0.016218,0.999985,0.002270,-0.003149,-0.003775,0.497937,-0.562130,-0.180963,-0.635076
20337,NaN,14.362316,2.118107,1.431498,4.103668,-5.638541,3.000416,0.179988,-0.782499,-0.979302,-0.643311,0.479248,-0.442383,0.143667,0.020464,0.014896,0.999980,0.000900,-0.003912,-0.004896,0.482901,-0.565884,-0.193524,-0.639633
20338,NaN,14.346766,1.812666,1.061895,3.583570,-5.621320,3.063573,-0.093163,-0.900722,-1.191321,-0.651611,0.475098,-0.436279,0.143523,0.017277,0.011257,0.999972,-0.000466,-0.004504,-0.005957,0.477942,-0.567821,-0.198767,-0.640033
20339,NaN,13.737356,1.405223,0.749454,2.696538,-5.016489,2.789312,-0.348533,-0.998277,-1.390395,-0.668213,0.466553,-0.432129,0.137427,0.013111,0.008157,0.999962,-0.001743,-0.004991,-0.006952,0.459471,-0.572660,-0.210759,-0.645389
20340,NaN,12.995488,1.038209,0.643020,2.186900,-4.461958,2.257008,-0.571208,-1.107532,-1.566078,-0.676514,0.458252,-0.417725,0.129993,0.009384,0.007122,0.999950,-0.002856,-0.005538,-0.007830,0.451591,-0.575867,-0.215935,-0.646386
20341,NaN,12.223383,0.589725,0.586025,1.435078,-3.582699,1.814945,-0.717442,-1.213846,-1.724505,-0.692871,0.447510,-0.407227,0.122240,0.004866,0.006583,0.999938,-0.003587,-0.006069,-0.008622,0.430527,-0.581477,-0.227332,-0.651806
20342,NaN,11.412327,0.203942,0.740325,1.076570,-2.792343,1.226763,-0.816368,-1.282096,-1.848205,-0.705566,0.443359,-0.393066,0.114085,0.001017,0.008129,0.999928,-0.004082,-0.006410,-0.009241,0.420641,-0.585271,-0.232789,-0.652938
20343,NaN,10.748478,0.183617,1.008407,0.948083,-1.963631,0.761841,-0.895321,-1.335578,-1.943453,-0.719971,0.432861,-0.378662,0.107426,0.000839,0.010796,0.999920,-0.004476,-0.006678,-0.009717,0.398391,-0.590934,-0.243284,-0.657947
20344,NaN,10.462745,0.385338,1.326174,1.213292,-1.531422,0.558135,-0.959345,-1.385160,-2.026543,-0.736328,0.415771,-0.365967,0.104565,0.002860,0.013971,0.999913,-0.004797,-0.006926,-0.010132,0.387170,-0.594886,-0.248855,-0.659001
20345,NaN,10.380927,0.454992,1.579733,1.216514,-0.957109,0.582752,-1.001232,-1.401708,-2.109944,-0.746582,0.405273,-0.349609,0.103736,0.003537,0.016505,0.999907,-0.005006,-0.007008,-0.010549,0.364676,-0.600111,-0.258587,-0.663333
20346,NaN,10.394954,0.431826,1.697896,1.192504,-0.617905,0.642707,-1.029085,-1.396064,-2.161170,-0.758789,0.394531,-0.335205,0.103867,0.003285,0.017686,0.999904,-0.005145,-0.006980,-0.010806,0.352579,-0.603766,-0.264180,-0.664352
20347,NaN,10.476755,0.492927,1.631114,1.010896,-0.332031,0.748012,-1.041119,-1.368021,-2.193212,-0.773438,0.384033,-0.324707,0.104699,0.003868,0.017005,0.999903,-0.005205,-0.006840,-0.010966,0.330255,-0.608176,-0.272748,-0.668328
20348,NaN,10.572721,0.522067,1.391022,0.797604,-0.301800,0.829544,-1.031613,-1.342082,-2.212559,-0.787842,0.371338,-0.308350,0.105680,0.004125,0.014596,0.999903,-0.005158,-0.006710,-0.011062,0.317862,-0.611288,-0.278219,-0.669242
20349,NaN,10.674068,0.768206,1.119002,0.622987,-0.297918,0.924892,-1.067351,-1.285572,-2.206762,-0.804199,0.354248,-0.297852,0.106743,0.006566,0.011839,0.999904,-0.005337,-0.006428,-0.011033,0.296072,-0.614879,-0.285519,-0.672863
20350,NaN,10.512478,0.813870,0.875474,0.423544,-0.261998,0.755553,-1.103441,-1.243491,-2.193950,-0.805908,0.345703,-0.281250,0.105149,0.007036,0.009368,0.999905,-0.005517,-0.006217,-0.010969,0.283494,-0.617506,-0.290366,-0.673799
20351,NaN,10.246245,0.822188,0.533647,0.055867,-0.163800,0.478636,-1.205573,-1.216964,-2.177760,-0.822266,0.328857,-0.270996,0.102509,0.007140,0.005915,0.999904,-0.006028,-0.006085,-0.010888,0.262310,-0.620585,-0.296292,-0.676962
20352,NaN,10.141956,0.761273,0.341523,-0.189439,-0.032239,0.361477,-1.327126,-1.203151,-2.160069,-0.830322,0.313965,-0.254395,0.101471,0.006542,0.003980,0.999902,-0.006635,-0.006016,-0.010800,0.249072,-0.623137,-0.300052,-0.677961
20353,NaN,9.986406,0.419211,0.209735,-0.644243,0.438978,0.154034,-1.453294,-1.198680,-2.134921,-0.842529,0.301270,-0.237793,0.099886,0.003144,0.002671,0.999899,-0.007266,-0.005993,-0.010674,0.228283,-0.626062,-0.304504,-0.680596
20354,NaN,9.851092,-0.005877,0.168860,-1.014585,0.930443,-0.057030,-1.560498,-1.169510,-2.105830,-0.852783,0.290527,-0.225342,0.098491,-0.001080,0.002270,0.999897,-0.007802,-0.005847,-0.010529,0.214427,-0.628552,-0.307090,-0.681644
20355,NaN,9.600778,-0.338578,0.218357,-1.264988,1.492067,-0.404898,-1.650720,-1.137112,-2.077485,-0.856445,0.275635,-0.206787,0.095951,-0.004361,0.002763,0.999896,-0.008253,-0.005685,-0.010387,0.194071,-0.631229,-0.309918,-0.683986
20356,NaN,9.155866,-0.595231,0.376363,-1.297212,1.941314,-0.931773,-1.729444,-1.098086,-2.036588,-0.864502,0.265137,-0.196289,0.091469,-0.006848,0.004323,0.999896,-0.008647,-0.005490,-0.010183,0.179925,-0.633441,-0.311466,-0.685104
20357,NaN,8.646678,-0.671196,0.541243,-1.198913,2.287281,-1.515921,-1.820167,-1.054129,-1.990658,-0.876709,0.250244,-0.181885,0.086364,-0.007520,0.005934,0.999895,-0.009101,-0.005270,-0.009953,0.160803,-0.635685,-0.313080,-0.687043
20358,NaN,8.075711,-0.715446,0.736974,-1.009180,2.517632,-2.137225,-1.909927,-1.021017,-1.924958,-0.876221,0.237549,-0.169434,0.080644,-0.007858,0.007854,0.999895,-0.009549,-0.005105,-0.009624,0.146503,-0.637648,-0.313427,-0.688263
20359,NaN,7.509835,-0.778244,0.926967,-0.827949,2.763078,-2.774185,-2.006949,-0.992842,-1.853994,-0.884277,0.226807,-0.152832,0.074975,-0.008382,0.009724,0.999894,-0.010034,-0.004964,-0.009270,0.128782,-0.639526,-0.313901,-0.689846
20360,NaN,7.055228,-0.775040,1.060848,-0.642220,2.872025,-3.267474,-2.098063,-0.973635,-1.776469,-0.885986,0.209717,-0.142334,0.070427,-0.008262,0.011036,0.999894,-0.010490,-0.004868,-0.008882,0.114403,-0.641379,-0.312940,-0.691096
20361,NaN,6.681777,-0.854563,1.138367,-0.551553,3.028852,-3.714091,-2.176102,-0.958897,-1.689791,-0.894287,0.209961,-0.134277,0.066687,-0.008983,0.011800,0.999894,-0.010880,-0.004794,-0.008449,0.097319,-0.643182,-0.311563,-0.692658
20362,NaN,6.457730,-0.921077,1.211553,-0.464336,3.165812,-4.000678,-2.223482,-0.932562,-1.602540,-0.900146,0.190674,-0.121582,0.064444,-0.009590,0.012521,0.999895,-0.011117,-0.004663,-0.008012,0.083154,-0.644930,-0.309438,-0.693829
20363,NaN,6.302342,-1.013263,1.193749,-0.467232,3.293010,-4.235227,-2.274018,-0.907211,-1.500631,-0.906250,0.186523,-0.101074,0.062890,-0.010466,0.012341,0.999897,-0.011370,-0.004536,-0.007503,0.067009,-0.646590,-0.306530,-0.695320
20364,NaN,6.184688,-0.990459,1.122275,-0.459154,3.286629,-4.383389,-2.300922,-0.879726,-1.397021,-0.906006,0.175781,-0.092773,0.061726,-0.010204,0.011611,0.999900,-0.011504,-0.004398,-0.006985,0.053357,-0.648214,-0.303312,-0.696400
20365,NaN,6.128503,-1.068462,1.058077,-0.488531,3.386536,-4.510651,-2.314718,-0.859099,-1.308532,-0.909668,0.160889,-0.082275,0.061167,-0.010960,0.010969,0.999902,-0.011573,-0.004295,-0.006542,0.037118,-0.650028,-0.298006,-0.698054
20366,NaN,6.172487,-1.182225,0.921596,-0.617228,3.504743,-4.551357,-2.310276,-0.842145,-1.211758,-0.911621,0.158691,-0.070068,0.061612,-0.012086,0.009614,0.999906,-0.011551,-0.004211,-0.006059,0.024120,-0.651529,-0.294011,-0.698917
20367,NaN,6.242854,-1.311219,0.845951,-0.690381,3.676084,-4.576551,-2.283478,-0.831599,-1.121539,-0.915527,0.150391,-0.061768,0.062318,-0.013362,0.008870,0.999910,-0.011417,-0.004158,-0.005608,0.010192,-0.653024,-0.288735,-0.700063
20368,NaN,6.397879,-1.454899,0.789676,-0.760923,3.897243,-4.530187,-2.231254,-0.827557,-1.046650,-0.915283,0.143799,-0.047119,0.063868,-0.014792,0.008325,0.999916,-0.011156,-0.004138,-0.005233,-0.001954,-0.654468,-0.284362,-0.700575
20369,NaN,6.649777,-1.566746,0.711848,-0.826384,4.122678,-4.381236,-2.157051,-0.824419,-0.986292,-0.917236,0.133301,-0.038818,0.066389,-0.015915,0.007563,0.999921,-0.010785,-0.004122,-0.004931,-0.015793,-0.656280,-0.277502,-0.701455
20370,NaN,7.086536,-1.683420,0.699817,-0.867658,4.453924,-4.072357,-2.061929,-0.827587,-0.929447,-0.918945,0.126953,-0.030518,0.070756,-0.017088,0.007466,0.999927,-0.010309,-0.004138,-0.004647,-0.026968,-0.657683,-0.273236,-0.701475
20371,NaN,7.563084,-1.710259,0.713605,-0.832716,4.732796,-3.685645,-1.946500,-0.828327,-0.888941,-0.918945,0.122559,-0.020264,0.075523,-0.017366,0.007617,0.999934,-0.009732,-0.004142,-0.004445,-0.039067,-0.659467,-0.266699,-0.701747
20372,NaN,8.017234,-1.752303,0.771633,-0.770192,5.041077,-3.336940,-1.811384,-0.813358,-0.864553,-0.920654,0.114014,-0.010010,0.080063,-0.017796,0.008202,0.999941,-0.009057,-0.004067,-0.004323,-0.049157,-0.660776,-0.263020,-0.701270
20374,NaN,8.736117,-1.824005,0.972864,-1.038059,11.099745,4.261137,-1.596162,-0.812324,-0.827809,-0.922363,0.101318,0.006592,0.174245,-0.037592,0.021468,0.999805,-0.015961,-0.008123,-0.008278,-0.070245,-0.664232,-0.252499,-0.700076
20375,NaN,9.331060,-1.779556,1.360382,-0.071011,5.968302,-2.298745,-1.384893,-0.796704,-0.807865,-0.917969,0.094727,0.020996,0.093182,-0.018076,0.014100,0.999960,-0.006924,-0.003983,-0.004039,-0.078677,-0.665488,-0.250046,-0.698866
20376,NaN,9.588956,-1.782252,1.651236,0.346808,6.176012,-2.093454,-1.250300,-0.786866,-0.792687,-0.926025,0.084229,0.027344,0.095752,-0.018097,0.017002,0.999965,-0.006251,-0.003934,-0.003963,-0.090481,-0.668068,-0.241282,-0.698055
20377,NaN,9.855625,-1.694165,1.975838,0.742668,6.345672,-1.869937,-1.119543,-0.774354,-0.783525,-0.925781,0.077881,0.029541,0.098411,-0.017215,0.020235,0.999969,-0.005598,-0.003872,-0.003918,-0.097888,-0.669299,-0.239635,-0.696443
20378,NaN,9.954482,-1.522682,2.204643,1.162925,6.276439,-1.718020,-1.010684,-0.757643,-0.767406,-0.927734,0.069336,0.037842,0.099401,-0.015495,0.022501,0.999973,-0.005053,-0.003788,-0.003837,-0.109157,-0.672017,-0.230433,-0.695254
20379,NaN,9.987853,-1.429109,2.386497,1.435828,6.290435,-1.697096,-0.917000,-0.744088,-0.735210,-0.923096,0.060791,0.044189,0.099735,-0.014547,0.024303,0.999976,-0.004585,-0.003720,-0.003676,-0.115649,-0.673240,-0.229305,-0.693392
20380,NaN,9.957839,-1.213066,2.542714,1.770898,6.081559,-1.628971,-0.825090,-0.737107,-0.689007,-0.929443,0.058594,0.050293,0.099441,-0.012367,0.025844,0.999979,-0.004125,-0.003686,-0.003445,-0.124661,-0.675713,-0.221212,-0.692053
20381,NaN,9.944693,-0.989038,2.730842,2.062577,5.944362,-1.582122,-0.758833,-0.721634,-0.641899,-0.920654,0.048096,0.060791,0.099315,-0.010105,0.027705,0.999981,-0.003794,-0.003608,-0.003209,-0.130243,-0.677014,-0.220302,-0.690041
20382,NaN,10.022090,-0.702728,2.755273,2.281741,5.663966,-1.372303,-0.693668,-0.734816,-0.589082,-0.926758,0.045898,0.068848,0.100098,-0.007226,0.027945,0.999983,-0.003468,-0.003674,-0.002945,-0.140483,-0.680005,-0.209742,-0.688379
20383,NaN,10.472648,-0.442986,2.791291,2.403321,5.686713,-0.893692,-0.658596,-0.770525,-0.534358,-0.928711,0.039551,0.071045,0.104606,-0.004617,0.028331,0.999984,-0.003293,-0.003853,-0.002672,-0.145368,-0.681623,-0.208748,-0.686063
20384,NaN,11.158709,-0.281727,2.666477,2.480875,5.753010,-0.197411,-0.633364,-0.806905,-0.477045,-0.920166,0.035156,0.079346,0.111471,-0.002998,0.027124,0.999984,-0.003167,-0.004035,-0.002385,-0.157348,-0.685398,-0.195003,-0.683700
20385,NaN,11.894569,-0.324062,2.630627,2.529475,6.169571,0.387466,-0.572688,-0.834765,-0.447500,-0.922119,0.028809,0.085693,0.118827,-0.003430,0.026812,0.999985,-0.002863,-0.004174,-0.002237,-0.161652,-0.687354,-0.193919,-0.681035
20386,NaN,12.601480,-0.644075,2.501867,2.519421,6.715580,0.865503,-0.494601,-0.857977,-0.428723,-0.921875,0.022461,0.095947,0.125892,-0.006648,0.025575,0.999985,-0.002473,-0.004290,-0.002144,-0.166621,-0.689912,-0.187119,-0.679151
20387,NaN,13.106912,-0.820209,2.519006,2.645567,7.143524,1.177263,-0.402873,-0.841844,-0.417445,-0.919678,0.020264,0.102051,0.130944,-0.008424,0.025758,0.999987,-0.002014,-0.004209,-0.002087,-0.170214,-0.692035,-0.186488,-0.676267
20388,NaN,13.212090,-0.985850,2.583108,2.811385,7.282565,1.199252,-0.309976,-0.795696,-0.410159,-0.923584,0.011719,0.108398,0.131996,-0.010089,0.026372,0.999989,-0.001550,-0.003978,-0.002051,-0.172309,-0.694107,-0.182407,-0.674724
20389,NaN,12.911807,-1.090829,2.726781,3.047542,7.257738,0.835163,-0.249445,-0.739244,-0.393701,-0.917236,0.011719,0.114502,0.128994,-0.011128,0.027759,0.999990,-0.001247,-0.003696,-0.001968,-0.175175,-0.696020,-0.182294,-0.672040
20390,NaN,12.290969,-1.212668,2.702390,3.096541,6.992809,0.254717,-0.204249,-0.694440,-0.365989,-0.921387,0.007568,0.126953,0.122792,-0.012324,0.027463,0.999992,-0.001021,-0.003472,-0.001830,-0.176994,-0.697903,-0.177704,-0.670840
20391,NaN,11.731793,-1.487489,2.608858,3.062849,6.982606,-0.404434,-0.139467,-0.675199,-0.318255,-0.914795,0.003174,0.126953,0.117205,-0.015043,0.026495,0.999993,-0.000697,-0.003376,-0.001591,-0.179147,-0.699756,-0.177748,-0.668322
20392,NaN,11.437581,-1.500286,2.529776,3.059111,6.777406,-0.637889,-0.072093,-0.647538,-0.247352,-0.914551,-0.005371,0.133301,0.114274,-0.015135,0.025673,0.999994,-0.000360,-0.003238,-0.001237,-0.180449,-0.701746,-0.172793,-0.667183
20393,NaN,11.366103,-1.227319,2.381794,2.980639,6.515541,-0.591484,-0.005678,-0.631613,-0.145730,-0.910156,-0.005371,0.141357,0.113576,-0.012355,0.024177,0.999995,-0.000028,-0.003158,-0.000729,-0.181500,-0.703718,-0.172715,-0.664837
20394,NaN,11.956436,-1.070800,2.096931,2.724543,6.626365,0.044684,0.086959,-0.642136,-0.029944,-0.914795,0.003174,0.143311,0.119495,-0.010735,0.021348,0.999995,0.000435,-0.003211,-0.000150,-0.177164,-0.704928,-0.172701,-0.664728
20395,NaN,13.156363,-1.089711,1.662679,2.436678,7.219024,1.095547,0.240576,-0.639858,0.076396,-0.914551,-0.000977,0.143311,0.131514,-0.010867,0.017035,0.999994,0.001203,-0.003199,0.000382,-0.176614,-0.707329,-0.172665,-0.662329
20396,NaN,14.570696,-1.122695,1.577354,2.612424,7.750655,2.400245,0.487208,-0.575287,0.183513,-0.906006,-0.005371,0.153809,0.145671,-0.011132,0.016165,0.999992,0.002436,-0.002876,0.000918,-0.178463,-0.710615,-0.162807,-0.660811
20397,NaN,15.029682,-0.769245,1.952188,3.081558,7.613562,2.947859,0.789727,-0.368764,0.272483,-0.910400,-0.001221,0.157715,0.150271,-0.007565,0.019769,0.999990,0.003949,-0.001844,0.001362,-0.175055,-0.712751,-0.164118,-0.659095
20398,NaN,14.321126,-0.554102,2.448879,3.482671,6.977130,2.458794,1.075755,-0.145472,0.370541,-0.908447,0.003174,0.153564,0.143204,-0.005408,0.024564,0.999984,0.005379,-0.000727,0.001853,-0.166459,-0.713577,-0.164987,-0.660211
20399,NaN,13.653946,-0.457231,2.692791,3.681622,6.557520,1.906311,1.288202,0.021475,0.470471,-0.906494,0.011475,0.159668,0.136553,-0.004424,0.026884,0.999976,0.006441,0.000107,0.002352,-0.160288,-0.714948,-0.167576,-0.659603
20400,NaN,13.378435,-0.416703,2.541310,3.487722,6.254591,1.777400,1.470702,0.169612,0.564480,-0.904785,0.018066,0.151367,0.133817,-0.003976,0.025270,0.999969,0.007353,0.000848,0.002822,-0.152811,-0.715782,-0.165131,-0.661088
20401,NaN,13.515810,-0.480029,2.295024,3.212810,6.334899,1.922778,1.613282,0.310843,0.660846,-0.904785,0.020020,0.153320,0.135209,-0.004537,0.022703,0.999961,0.008066,0.001554,0.003304,-0.144591,-0.716503,-0.168331,-0.661349
20402,NaN,13.901982,-0.478436,1.774087,2.649935,6.328025,2.417375,1.718083,0.432399,0.777553,-0.903076,0.030762,0.145020,0.139075,-0.004394,0.017401,0.999953,0.008590,0.002162,0.003888,-0.135017,-0.716517,-0.166603,-0.663790
20403,NaN,14.374038,-0.415710,1.264557,2.101344,6.373377,2.968065,1.793795,0.600778,0.894673,-0.903320,0.041260,0.142822,0.143794,-0.003625,0.012180,0.999945,0.008969,0.003004,0.004473,-0.125115,-0.716438,-0.169749,-0.665017
20404,NaN,14.832497,-0.304465,0.863640,1.621463,6.217089,3.587217,1.860420,0.783299,1.016845,-0.901611,0.054199,0.130371,0.148370,-0.002367,0.008031,0.999936,0.009302,0.003916,0.005084,-0.113881,-0.715385,-0.167872,-0.668637
20405,NaN,15.031666,0.011853,0.470688,1.147222,5.838655,3.998997,1.887141,0.988220,1.142499,-0.899902,0.060547,0.124023,0.150334,0.000938,0.003970,0.999927,0.009435,0.004941,0.005712,-0.102475,-0.714060,-0.170647,-0.671191
20406,NaN,14.902346,0.325568,0.161711,0.712373,5.183478,4.145493,1.859931,1.196683,1.269802,-0.900391,0.077637,0.109375,0.149005,0.004192,0.000762,0.999919,0.009299,0.005983,0.006349,-0.090511,-0.711705,-0.167409,-0.676209
20407,NaN,14.609497,0.591440,-0.173836,0.244169,4.595597,4.066494,1.782729,1.373189,1.403202,-0.900635,0.085938,0.103027,0.146032,0.006960,-0.002682,0.999912,0.008913,0.006866,0.007016,-0.078266,-0.708979,-0.169051,-0.680181
20408,NaN,14.379951,0.686730,-0.487626,-0.247066,4.046961,4.009231,1.670063,1.520689,1.540827,-0.894775,0.098877,0.080322,0.143698,0.008021,-0.005905,0.999907,0.008350,0.007603,0.007704,-0.065524,-0.705319,-0.164587,-0.686399
20409,NaN,14.120641,0.749119,-0.746946,-0.674022,3.610071,3.862669,1.534564,1.650196,1.688407,-0.903809,0.113770,0.067871,0.141068,0.008745,-0.008570,0.999901,0.007673,0.008251,0.008442,-0.052954,-0.701475,-0.164425,-0.691443
20410,NaN,13.651654,0.893772,-0.910139,-1.009512,2.922352,3.544911,1.394497,1.755091,1.828726,-0.897949,0.130859,0.061523,0.136340,0.010254,-0.010230,0.999895,0.006972,0.008775,0.009143,-0.040313,-0.696839,-0.157827,-0.698485
20411,NaN,13.121200,0.973592,-0.999201,-1.250877,2.386190,3.104084,1.241011,1.831708,1.969285,-0.894531,0.152100,0.040771,0.131009,0.011093,-0.011126,0.999890,0.006205,0.009158,0.009846,-0.027662,-0.692167,-0.155653,-0.704210
20412,NaN,12.447147,1.057414,-0.946373,-1.352061,1.753332,2.517463,1.083918,1.889373,2.084757,-0.890625,0.164795,0.026123,0.124255,0.011925,-0.010576,0.999886,0.005419,0.009447,0.010423,-0.014944,-0.686774,-0.147678,-0.711554
20413,NaN,11.747808,1.112812,-0.855867,-1.378268,1.254276,1.870597,0.924396,1.914687,2.195915,-0.889160,0.186035,0.007324,0.117257,0.012459,-0.009626,0.999883,0.004622,0.009573,0.010979,-0.002543,-0.681570,-0.143553,-0.717530
20414,NaN,10.998327,1.189482,-0.618042,-1.249072,0.714384,1.172779,0.744032,1.932609,2.285289,-0.877197,0.200928,-0.007080,0.109771,0.013175,-0.007194,0.999881,0.003720,0.009663,0.011426,0.009589,-0.675776,-0.134172,-0.724729
20415,NaN,10.225699,1.197715,-0.299002,-1.009002,0.355126,0.431168,0.553415,1.914371,2.378050,-0.877930,0.226562,-0.021973,0.102070,0.013202,-0.003932,0.999880,0.002767,0.009571,0.011890,0.021359,-0.670324,-0.128035,-0.730627
20416,NaN,9.521489,1.086177,-0.018834,-0.828343,0.101297,-0.266208,0.339729,1.865208,2.472581,-0.865967,0.245605,-0.034424,0.095064,0.012039,-0.001056,0.999879,0.001699,0.009326,0.012362,0.032699,-0.664556,-0.117265,-0.737255
20417,NaN,8.985396,0.872931,0.347689,-0.566948,0.065428,-0.796704,0.131511,1.801330,2.565433,-0.856201,0.270996,-0.045166,0.089759,0.009879,0.002674,0.999877,0.000658,0.009006,0.012827,0.043644,-0.659314,-0.108917,-0.742656
20418,NaN,8.616901,0.578351,0.637491,-0.412527,0.092697,-1.163592,-0.055987,1.735915,2.651929,-0.850586,0.292236,-0.067871,0.086133,0.006927,0.005625,0.999874,-0.000280,0.008679,0.013259,0.054185,-0.653844,-0.096766,-0.748457
20419,NaN,8.278406,0.292670,0.947937,-0.216973,0.169476,-1.479948,-0.220408,1.668186,2.718298,-0.842773,0.309326,-0.066162,0.082809,0.004062,0.008785,0.999872,-0.001102,0.008341,0.013591,0.064437,-0.648890,-0.086591,-0.753188
20420,NaN,8.020545,-0.016687,1.141901,-0.145697,0.232294,-1.716237,-0.350950,1.587695,2.776971,-0.830566,0.328369,-0.082764,0.080285,0.000967,0.010781,0.999871,-0.001755,0.007938,0.013884,0.074336,-0.643773,-0.073509,-0.758042
20421,NaN,7.913189,-0.277807,1.205049,-0.196581,0.254608,-1.810258,-0.447087,1.505789,2.810531,-0.821045,0.355957,-0.089355,0.079248,-0.001639,0.011459,0.999870,-0.002235,0.007529,0.014052,0.084093,-0.639179,-0.062199,-0.761912
20422,NaN,7.750140,-0.519099,1.238870,-0.258591,0.239610,-1.955246,-0.485159,1.431883,2.822048,-0.807129,0.383545,-0.097900,0.077650,-0.004067,0.011844,0.999872,-0.002426,0.007159,0.014110,0.093609,-0.634388,-0.048965,-0.765762
20423,NaN,7.612945,-0.787003,1.120821,-0.463918,0.249405,-2.095813,-0.472229,1.365896,2.817995,-0.797363,0.406738,-0.106445,0.076304,-0.006770,0.010704,0.999875,-0.002361,0.006829,0.014089,0.103223,-0.629987,-0.037573,-0.768798
20424,NaN,7.483108,-1.064351,0.949959,-0.720533,0.254285,-2.233527,-0.399107,1.305559,2.798046,-0.783203,0.425781,-0.110840,0.075030,-0.009576,0.009030,0.999879,-0.001995,0.006528,0.013990,0.112836,-0.625329,-0.025168,-0.771750
20425,NaN,7.475229,-1.331445,0.665385,-1.100114,0.236550,-2.274525,-0.267050,1.251121,2.755746,-0.771240,0.449219,-0.117432,0.074966,-0.012274,0.006202,0.999885,-0.001335,0.006255,0.013778,0.122779,-0.620923,-0.014812,-0.774054
20426,NaN,7.457685,-1.387530,0.420797,-1.396513,0.019456,-2.345121,-0.094560,1.201149,2.700617,-0.757080,0.468262,-0.125732,0.074779,-0.012865,0.003766,0.999891,-0.000473,0.006006,0.013503,0.132915,-0.616220,-0.004250,-0.776266
20427,NaN,7.525679,-1.380567,0.084462,-1.780426,-0.274711,-2.376324,0.118977,1.148857,2.647619,-0.742920,0.485352,-0.132080,0.075434,-0.012808,0.000404,0.999896,0.000595,0.005744,0.013238,0.143568,-0.611671,0.004211,-0.777965
20428,NaN,7.544687,-1.309259,-0.185715,-2.077116,-0.611421,-2.465660,0.351667,1.115150,2.567561,-0.730957,0.508545,-0.136475,0.075595,-0.012119,-0.002300,0.999901,0.001758,0.005576,0.012837,0.154530,-0.606778,0.012314,-0.779609
20429,NaN,7.667453,-1.168093,-0.383866,-2.307326,-1.016387,-2.468230,0.581681,1.086003,2.466111,-0.716553,0.523438,-0.151123,0.076788,-0.010722,-0.004288,0.999905,0.002908,0.005430,0.012330,0.165826,-0.601883,0.018367,-0.780962
20430,NaN,7.713084,-1.099558,-0.541628,-2.497677,-1.325873,-2.532981,0.804044,1.058614,2.357556,-0.704346,0.536133,-0.161377,0.077223,-0.010063,-0.005867,0.999908,0.004020,0.005293,0.011787,0.177314,-0.596683,0.023803,-0.782280
20431,NaN,7.653562,-1.085958,-0.588020,-2.568464,-1.520314,-2.657940,1.012928,1.026461,2.241331,-0.685791,0.551025,-0.173828,0.076619,-0.009970,-0.006325,0.999911,0.005064,0.005132,0.011206,0.188965,-0.591448,0.027437,-0.783409
20432,NaN,7.799586,-1.014788,-0.588413,-2.625484,-1.822382,-2.602129,1.206170,0.981593,2.127865,-0.675293,0.555176,-0.182129,0.078067,-0.009280,-0.006325,0.999913,0.006031,0.004908,0.010639,0.200727,-0.586049,0.030360,-0.784432
20433,NaN,8.023827,-0.944262,-0.487933,-2.602681,-2.125370,-2.449445,1.382329,0.937814,2.012590,-0.661133,0.572266,-0.200684,0.080303,-0.008599,-0.005317,0.999914,0.006911,0.004689,0.010063,0.212512,-0.580625,0.031776,-0.785305
20434,NaN,8.251319,-0.827527,-0.358263,-2.536819,-2.464759,-2.303750,1.549666,0.896836,1.879159,-0.656982,0.576416,-0.217285,0.082569,-0.007470,-0.004013,0.999916,0.007748,0.004484,0.009396,0.224270,-0.575088,0.032386,-0.786084
20435,NaN,8.543585,-0.681248,-0.087537,-2.344124,-2.815438,-2.064106,1.691932,0.853265,1.734226,-0.638184,0.584961,-0.229492,0.085486,-0.006062,-0.001293,0.999918,0.008459,0.004266,0.008671,0.235795,-0.569506,0.031678,-0.786804
20436,NaN,8.987971,-0.526321,0.067055,-2.286921,-3.253604,-1.735128,1.811947,0.812864,1.578684,-0.632080,0.593262,-0.243896,0.089919,-0.004557,0.000262,0.999920,0.009059,0.004064,0.007893,0.247082,-0.563895,0.030176,-0.787441
20437,NaN,9.260643,-0.392099,0.250870,-2.167255,-3.582956,-1.539854,1.921005,0.777405,1.407730,-0.619629,0.595459,-0.258301,0.092640,-0.003291,0.002115,0.999922,0.009605,0.003887,0.007038,0.257904,-0.558201,0.027542,-0.788124
20438,NaN,9.514387,-0.192655,0.447432,-2.003342,-3.943785,-1.375118,1.980276,0.754612,1.242434,-0.611084,0.595459,-0.274658,0.095170,-0.001377,0.004100,0.999925,0.009901,0.003773,0.006212,0.268289,-0.552512,0.024254,-0.788773
20439,NaN,9.805123,0.065774,0.579157,-1.880094,-4.369121,-1.218789,2.017077,0.704981,1.078919,-0.606934,0.595459,-0.284668,0.098066,0.001131,0.005456,0.999928,0.010085,0.003525,0.005394,0.278012,-0.546852,0.020225,-0.789464
20440,NaN,10.258913,0.359407,0.657091,-1.817938,-4.898198,-0.952205,2.001867,0.637774,0.918876,-0.596191,0.595459,-0.307129,0.102592,0.004002,0.006282,0.999934,0.010009,0.003189,0.004594,0.287135,-0.541501,0.015711,-0.789990
20441,NaN,10.808206,0.621510,0.680087,-1.833296,-5.446372,-0.612601,1.937873,0.548273,0.753766,-0.589844,0.593506,-0.319336,0.108076,0.006558,0.006567,0.999942,0.009689,0.002741,0.003769,0.295299,-0.536460,0.010885,-0.790500
20442,NaN,11.509917,0.892948,0.662034,-1.903334,-6.073709,-0.158628,1.842447,0.450811,0.574743,-0.587891,0.593506,-0.327637,0.115088,0.009200,0.006445,0.999951,0.009212,0.002254,0.002874,0.302601,-0.532002,0.005716,-0.790806
20443,NaN,12.041335,1.023497,0.517705,-2.101185,-6.529278,0.150379,1.717575,0.369407,0.386537,-0.587646,0.589111,-0.341797,0.120403,0.010424,0.005044,0.999960,0.008588,0.001847,0.001933,0.308676,-0.527907,0.000513,-0.791223
20444,NaN,12.395845,1.214338,0.471816,-2.133159,-6.900067,0.345701,1.561110,0.276742,0.212156,-0.583008,0.580811,-0.349854,0.123952,0.012238,0.004642,0.999968,0.007805,0.001384,0.001061,0.313783,-0.524511,-0.004857,-0.791457
20445,NaN,12.533487,1.276365,0.455692,-2.154996,-7.032679,0.425598,1.375542,0.185535,0.023923,-0.585205,0.576416,-0.357910,0.125338,0.012747,0.004528,0.999976,0.006878,0.000928,0.000120,0.317483,-0.521604,-0.009944,-0.791856
20446,NaN,12.547464,1.341140,0.445425,-2.133369,-7.082980,0.420396,1.153722,0.076063,-0.146175,-0.584961,0.574463,-0.366211,0.125486,0.013294,0.004483,0.999983,0.005769,0.000380,-0.000731,0.320102,-0.519604,-0.015038,-0.792035
20447,NaN,12.485725,1.383416,0.445386,-2.106039,-7.057026,0.373988,0.949972,-0.012578,-0.327253,-0.588867,0.565918,-0.367920,0.124879,0.013608,0.004527,0.999987,0.004750,-0.000063,-0.001636,0.321270,-0.518099,-0.019668,-0.792447
20448,NaN,12.037959,1.266907,0.536023,-1.985728,-6.662762,0.110465,0.721623,-0.120615,-0.492924,-0.595215,0.563965,-0.367920,0.120407,0.012353,0.005478,0.999990,0.003608,-0.000603,-0.002465,0.321394,-0.517531,-0.024337,-0.792638
20449,NaN,11.612781,1.323321,0.572614,-1.832303,-6.423930,-0.204831,0.465485,-0.252978,-0.653468,-0.590820,0.557373,-0.361816,0.116163,0.012840,0.005903,0.999991,0.002327,-0.001265,-0.003267,0.319975,-0.517698,-0.028277,-0.792972
20450,NaN,11.421878,1.376277,0.614891,-1.726334,-6.275204,-0.306259,0.183547,-0.403906,-0.810410,-0.601074,0.549072,-0.365723,0.114261,0.013294,0.006392,0.999989,0.000918,-0.002020,-0.004052,0.317424,-0.519061,-0.032147,-0.792959
20451,NaN,11.784972,1.327678,0.292792,-2.116771,-6.429404,-0.070277,-0.087253,-0.587403,-0.971020,-0.611572,0.546875,-0.357666,0.117903,0.012706,0.003269,0.999984,-0.000436,-0.002937,-0.004855,0.313248,-0.521361,-0.035252,-0.792979
20452,NaN,12.320234,1.020313,0.006512,-2.648535,-6.408565,0.421689,-0.301810,-0.749995,-1.147221,-0.626221,0.540527,-0.353516,0.123257,0.009497,0.000513,0.999975,-0.001509,-0.003750,-0.005736,0.308040,-0.524773,-0.038671,-0.792609
20453,NaN,12.426704,0.599767,-0.048721,-2.948330,-5.982420,0.689690,-0.451756,-0.856384,-1.311861,-0.630127,0.534180,-0.347168,0.124303,0.005182,0.000033,0.999967,-0.002259,-0.004282,-0.006559,0.301481,-0.528588,-0.041639,-0.792446
20454,NaN,12.013821,0.257510,0.005631,-2.969273,-5.323743,0.542785,-0.556337,-0.932707,-1.463319,-0.648926,0.525879,-0.334961,0.120151,0.001697,0.000611,0.999958,-0.002782,-0.004663,-0.007316,0.294297,-0.532984,-0.045210,-0.792006
20455,NaN,11.377774,0.090253,0.092534,-2.820346,-4.697926,0.159363,-0.642235,-1.002628,-1.592985,-0.655029,0.519287,-0.330811,0.113774,0.000001,0.001495,0.999951,-0.003211,-0.005013,-0.007965,0.286036,-0.537510,-0.048384,-0.791786
20456,NaN,10.732995,0.070460,0.200360,-2.563485,-4.183562,-0.264662,-0.723082,-1.086772,-1.705277,-0.674072,0.515137,-0.310303,0.107318,-0.000202,0.002586,0.999942,-0.003615,-0.005434,-0.008526,0.277369,-0.542592,-0.052192,-0.791161
20457,NaN,10.321095,0.138031,0.428066,-2.226689,-3.796578,-0.466503,-0.801266,-1.178052,-1.800035,-0.686523,0.510986,-0.308105,0.103190,0.000470,0.004885,0.999934,-0.004006,-0.005890,-0.009000,0.267750,-0.547855,-0.055535,-0.790620
20458,NaN,10.202304,0.084716,0.644595,-2.017766,-3.416123,-0.391215,-0.867009,-1.259329,-1.882041,-0.698975,0.498291,-0.291748,0.101982,-0.000083,0.007087,0.999927,-0.004335,-0.006296,-0.009410,0.257876,-0.553615,-0.059501,-0.789601
20459,NaN,10.361282,0.029051,0.841056,-1.895148,-3.130977,-0.083091,-0.901159,-1.323751,-1.952976,-0.706787,0.481201,-0.275146,0.103551,-0.000681,0.009098,0.999920,-0.004506,-0.006619,-0.009765,0.247258,-0.559375,-0.063050,-0.788662
20460,NaN,10.815052,-0.016166,0.885146,-1.954440,-2.982644,0.435611,-0.909164,-1.367467,-2.010696,-0.727539,0.468506,-0.258545,0.108078,-0.001206,0.009595,0.999916,-0.004546,-0.006837,-0.010053,0.236642,-0.565383,-0.067339,-0.787279
20461,NaN,11.302431,0.057502,0.840618,-2.044559,-2.957129,0.935511,-0.878929,-1.394015,-2.057980,-0.735596,0.458008,-0.244141,0.112960,-0.000548,0.009194,0.999913,-0.004395,-0.006970,-0.010290,0.225567,-0.571165,-0.071340,-0.786003
20462,NaN,11.690714,0.121040,0.614817,-2.260939,-2.931178,1.293835,-0.841368,-1.400970,-2.085794,-0.754150,0.447266,-0.227539,0.116865,0.000020,0.006965,0.999912,-0.004207,-0.007005,-0.010429,0.214752,-0.576987,-0.076136,-0.784329
20463,NaN,11.921457,0.323600,0.459972,-2.325758,-2.948267,1.515536,-0.814662,-1.401540,-2.109831,-0.768555,0.434570,-0.215332,0.119204,0.001999,0.005425,0.999912,-0.004073,-0.007007,-0.010549,0.203575,-0.582501,-0.080526,-0.782793
20464,NaN,11.972917,0.473417,0.293093,-2.374322,-2.865698,1.580448,-0.813687,-1.414513,-2.134173,-0.781006,0.421875,-0.204834,0.119746,0.003471,0.003762,0.999910,-0.004068,-0.007072,-0.010671,0.192568,-0.588105,-0.085572,-0.780851
20465,NaN,11.901235,0.607573,0.287019,-2.266058,-2.685827,1.577417,-0.842339,-1.440148,-2.167252,-0.792969,0.402832,-0.184082,0.119044,0.004800,0.003705,0.999906,-0.004212,-0.007201,-0.010836,0.180996,-0.593554,-0.090034,-0.778992
20466,NaN,11.803207,0.529874,0.354851,-2.157420,-2.274952,1.584006,-0.888730,-1.481021,-2.200805,-0.798828,0.387939,-0.175781,0.118050,0.004018,0.004403,0.999902,-0.004444,-0.007405,-0.011004,0.169404,-0.599219,-0.095029,-0.776665
20467,NaN,11.690703,0.324414,0.583473,-1.947499,-1.692107,1.608975,-0.945831,-1.497403,-2.226636,-0.815186,0.373047,-0.153076,0.116886,0.001973,0.006699,0.999899,-0.004729,-0.007487,-0.011133,0.157196,-0.604714,-0.099286,-0.774437
20468,NaN,11.453440,0.065922,0.821714,-1.703582,-1.040767,1.495179,-0.991890,-1.492218,-2.250906,-0.819092,0.360352,-0.142578,0.114467,-0.000586,0.009072,0.999897,-0.004959,-0.007461,-0.011254,0.145019,-0.610222,-0.104007,-0.771868
20469,NaN,10.940981,-0.168576,1.034658,-1.413397,-0.415008,1.078926,-1.043879,-1.457499,-2.255274,-0.833008,0.339111,-0.121826,0.109303,-0.002862,0.011156,0.999896,-0.005219,-0.007287,-0.011276,0.132358,-0.615365,-0.107905,-0.769521
20470,NaN,10.278828,-0.363160,1.195317,-1.119621,0.139724,0.479835,-1.098392,-1.410759,-2.257755,-0.847412,0.322021,-0.109375,0.102651,-0.004723,0.012702,0.999896,-0.005492,-0.007054,-0.011288,0.119798,-0.620356,-0.112124,-0.766965
20471,NaN,9.525856,-0.432222,1.275162,-0.846548,0.508174,-0.243203,-1.166796,-1.375703,-2.230495,-0.855713,0.315674,-0.094971,0.095112,-0.005306,0.013435,0.999897,-0.005834,-0.006878,-0.011152,0.106842,-0.625014,-0.115380,-0.764611
20472,NaN,8.760441,-0.678835,1.240387,-0.732332,0.969343,-1.022649,-1.227915,-1.344524,-2.182238,-0.858887,0.290283,-0.076172,0.087438,-0.007664,0.013037,0.999899,-0.006139,-0.006722,-0.010911,0.094137,-0.629591,-0.118754,-0.762004
20473,NaN,8.074758,-0.693748,1.238551,-0.538018,1.173348,-1.716542,-1.287965,-1.321759,-2.132880,-0.866943,0.277588,-0.061523,0.080584,-0.007715,0.012966,0.999901,-0.006440,-0.006609,-0.010664,0.081162,-0.633902,-0.121171,-0.759538
20474,NaN,7.537119,-0.637772,1.155144,-0.431763,1.255083,-2.277104,-1.345735,-1.303662,-2.044018,-0.874756,0.258301,-0.051025,0.075224,-0.007067,0.012088,0.999904,-0.006728,-0.006518,-0.010220,0.068574,-0.638191,-0.123556,-0.756798
20475,NaN,7.116281,-0.580651,1.103973,-0.322956,1.316654,-2.716399,-1.393593,-1.289604,-1.964430,-0.885010,0.245605,-0.030518,0.071028,-0.006425,0.011541,0.999907,-0.006968,-0.006448,-0.009822,0.055891,-0.642274,-0.124982,-0.754149
20476,NaN,6.899445,-0.524814,1.025867,-0.278004,1.367707,-2.958466,-1.439852,-1.278092,-1.879706,-0.886475,0.230713,-0.013916,0.068874,-0.005820,0.010740,0.999910,-0.007199,-0.006390,-0.009398,0.043589,-0.646344,-0.126390,-0.751242
20477,NaN,6.634396,-0.509095,0.980111,-0.207591,1.441867,-3.246768,-1.470904,-1.261772,-1.789008,-0.892334,0.213623,-0.005371,0.066232,-0.005609,0.010259,0.999913,-0.007354,-0.006309,-0.008945,0.031315,-0.650216,-0.126911,-0.748420
20478,NaN,6.479611,-0.520035,0.918055,-0.176252,1.537748,-3.432922,-1.500418,-1.262157,-1.706937,-0.896240,0.203125,0.007080,0.064689,-0.005682,0.009630,0.999916,-0.007502,-0.006311,-0.008534,0.019437,-0.654110,-0.127446,-0.745332
20479,NaN,6.322745,-0.585972,1.007722,-0.008049,1.704675,-3.613603,-1.514522,-1.268276,-1.628029,-0.902100,0.188232,0.021484,0.063112,-0.006295,0.010524,0.999918,-0.007572,-0.006341,-0.008140,0.007607,-0.657890,-0.127240,-0.742248
20480,NaN,6.387485,-0.765946,1.103235,0.121867,2.006626,-3.602935,-1.527238,-1.285719,-1.547037,-0.893066,0.173340,0.036133,0.063741,-0.008066,0.011503,0.999920,-0.007636,-0.006428,-0.007735,-0.003807,-0.661751,-0.127068,-0.738867
20481,NaN,6.642875,-0.961825,1.232896,0.270752,2.354842,-3.413242,-1.533754,-1.291595,-1.469058,-0.903320,0.160400,0.052734,0.066274,-0.010008,0.012833,0.999923,-0.007669,-0.006458,-0.007345,-0.015130,-0.665507,-0.126229,-0.735484
20482,NaN,6.896396,-1.014136,1.456488,0.547790,2.577630,-3.197220,-1.548579,-1.293696,-1.393692,-0.906982,0.149902,0.061035,0.068795,-0.010506,0.015091,0.999925,-0.007743,-0.006468,-0.006968,-0.026078,-0.669281,-0.125381,-0.731889
20483,NaN,7.216605,-1.083808,1.660001,0.806680,2.819954,-2.927542,-1.550378,-1.291754,-1.339241,-0.906494,0.135010,0.081787,0.071982,-0.011189,0.017151,0.999927,-0.007752,-0.006459,-0.006696,-0.036975,-0.672916,-0.124012,-0.728312
20484,NaN,7.568600,-1.231482,1.929066,1.131719,3.151068,-2.649595,-1.544714,-1.281822,-1.287785,-0.901855,0.124268,0.092285,0.075479,-0.012649,0.019872,0.999929,-0.007723,-0.006409,-0.006439,-0.047534,-0.676510,-0.122730,-0.724577
20485,NaN,7.956787,-1.305614,2.144503,1.420818,3.406565,-2.330117,-1.506390,-1.256473,-1.240736,-0.907959,0.111572,0.104736,0.079348,-0.013384,0.022044,0.999933,-0.007532,-0.006282,-0.006204,-0.057892,-0.679896,-0.121164,-0.720909
20486,NaN,8.326780,-1.384591,2.372358,1.733437,3.662825,-2.037240,-1.438681,-1.219755,-1.208715,-0.905273,0.096680,0.121338,0.083036,-0.014175,0.024332,0.999937,-0.007193,-0.006099,-0.006043,-0.067784,-0.683154,-0.119911,-0.717166
20487,NaN,8.714498,-1.427114,2.611819,2.066048,3.886098,-1.723892,-1.345366,-1.173790,-1.181607,-0.911133,0.085938,0.131592,0.086904,-0.014607,0.026726,0.999943,-0.006727,-0.005869,-0.005908,-0.077317,-0.686158,-0.118719,-0.713523
20488,NaN,9.114270,-1.407733,2.759120,2.314945,4.048572,-1.391721,-1.229061,-1.124289,-1.153282,-0.906738,0.079590,0.137939,0.090903,-0.014430,0.028191,0.999949,-0.006145,-0.005621,-0.005766,-0.086250,-0.689021,-0.117955,-0.709857
20489,NaN,9.460312,-1.436169,2.906160,2.564871,4.243677,-1.128407,-1.107267,-1.060926,-1.128104,-0.906250,0.064697,0.150391,0.094365,-0.014731,0.029643,0.999955,-0.005536,-0.005305,-0.005640,-0.094691,-0.691611,-0.117449,-0.706338
20490,NaN,9.781023,-1.453640,3.022791,2.786329,4.422465,-0.891073,-0.969249,-0.994525,-1.097563,-0.908203,0.056152,0.156738,0.097577,-0.014924,0.030785,0.999961,-0.004846,-0.004973,-0.005488,-0.102469,-0.694033,-0.117363,-0.702883
20491,NaN,10.060318,-1.424725,3.053131,2.920717,4.545964,-0.682330,-0.837864,-0.936521,-1.062776,-0.903564,0.045410,0.165283,0.100381,-0.014652,0.031063,0.999966,-0.004189,-0.004683,-0.005314,-0.109659,-0.696246,-0.117623,-0.699558
20492,NaN,10.339801,-1.385791,2.985807,2.955843,4.661352,-0.470301,-0.714895,-0.876382,-1.008195,-0.905029,0.028564,0.173584,0.103194,-0.014271,0.030361,0.999971,-0.003574,-0.004382,-0.005041,-0.116188,-0.698339,-0.118070,-0.696334
20493,NaN,10.600646,-1.253090,2.856475,2.925051,4.688165,-0.243618,-0.604660,-0.827467,-0.966176,-0.906982,0.022217,0.186035,0.105825,-0.012955,0.029042,0.999975,-0.003023,-0.004137,-0.004831,-0.122149,-0.700280,-0.118856,-0.693225
20494,NaN,10.834838,-1.128860,2.729505,2.894692,4.715387,-0.040136,-0.513026,-0.788879,-0.901463,-0.908691,0.011475,0.192383,0.108187,-0.011706,0.027752,0.999979,-0.002565,-0.003944,-0.004507,-0.127568,-0.702178,-0.119576,-0.690198
20495,NaN,11.186942,-0.925842,2.679671,2.940498,4.712945,0.302935,-0.436810,-0.768978,-0.840034,-0.906494,0.009277,0.194336,0.111725,-0.009669,0.027247,0.999981,-0.002184,-0.003845,-0.004200,-0.132458,-0.704037,-0.120526,-0.687212
20496,NaN,11.758275,-0.774984,2.606902,2.973042,4.834500,0.838178,-0.378752,-0.744643,-0.767117,-0.906006,-0.003418,0.200684,0.117454,-0.008151,0.026522,0.999984,-0.001894,-0.003723,-0.003836,-0.136933,-0.705896,-0.121160,-0.684310
20497,NaN,12.142953,-0.647114,2.642269,3.108604,4.914275,1.188993,-0.319724,-0.701255,-0.700998,-0.901855,-0.005615,0.213135,0.121312,-0.006854,0.026859,0.999986,-0.001599,-0.003506,-0.003505,-0.140883,-0.707641,-0.122059,-0.681541
20498,NaN,12.422941,-0.487620,2.715450,3.277682,4.917373,1.457455,-0.282889,-0.662311,-0.640495,-0.897217,-0.011963,0.217285,0.124122,-0.005235,0.027573,0.999988,-0.001414,-0.003312,-0.003202,-0.144555,-0.709321,-0.122526,-0.678936
20499,NaN,12.613701,-0.327522,2.784896,3.433346,4.889013,1.644939,-0.263944,-0.603810,-0.560264,-0.899170,-0.016357,0.225586,0.126042,-0.003591,0.028234,0.999991,-0.001320,-0.003019,-0.002801,-0.147762,-0.710829,-0.123181,-0.676546
20500,NaN,12.676436,-0.298406,2.717678,3.444884,4.924995,1.678325,-0.292384,-0.551361,-0.493666,-0.899170,-0.020508,0.223633,0.126681,-0.003257,0.027531,0.999992,-0.001462,-0.002757,-0.002468,-0.150922,-0.712187,-0.123072,-0.674437
20501,NaN,12.666527,-0.351776,2.635484,3.431594,5.010648,1.616551,-0.336901,-0.498614,-0.411341,-0.896729,-0.026855,0.223633,0.126592,-0.003733,0.026677,0.999993,-0.001685,-0.002493,-0.002057,-0.153815,-0.713355,-0.123024,-0.672555
20502,NaN,12.464821,-0.479195,2.506551,3.356090,5.074002,1.362061,-0.392620,-0.433663,-0.326234,-0.894287,-0.037598,0.234131,0.124585,-0.004946,0.025345,0.999994,-0.001963,-0.002168,-0.001631,-0.156716,-0.714321,-0.121968,-0.671051
20503,NaN,12.073072,-0.636674,2.450811,3.330811,5.086125,0.920797,-0.433118,-0.376063,-0.226651,-0.896729,-0.029053,0.233887,0.120677,-0.006450,0.024749,0.999995,-0.002166,-0.001880,-0.001133,-0.159252,-0.715100,-0.121030,-0.669792
20504,NaN,11.762966,-0.806467,2.258952,3.171344,5.127535,0.568614,-0.442673,-0.337385,-0.124159,-0.896484,-0.035400,0.244385,0.117586,-0.008087,0.022806,0.999996,-0.002213,-0.001687,-0.000621,-0.161617,-0.715810,-0.119057,-0.668821
20505,NaN,11.809836,-0.876694,1.930594,2.892705,5.227685,0.592669,-0.411225,-0.321229,-0.023121,-0.896729,-0.031250,0.246338,0.118066,-0.008741,0.019514,0.999997,-0.002056,-0.001606,-0.000116,-0.163357,-0.716534,-0.117505,-0.667897
20506,NaN,12.563317,-0.906102,1.580221,2.651182,5.547022,1.293916,-0.350376,-0.337657,0.059831,-0.894531,-0.031250,0.246338,0.125609,-0.008995,0.016030,0.999997,-0.001752,-0.001688,0.000299,-0.164795,-0.717416,-0.115081,-0.667018
20507,NaN,13.731122,-1.118469,1.257673,2.484992,6.198020,2.302822,-0.247425,-0.331042,0.122904,-0.890137,-0.037598,0.252441,0.137297,-0.011085,0.012818,0.999998,-0.001237,-0.001655,0.000615,-0.165462,-0.718384,-0.113542,-0.666075
20508,NaN,14.613424,-1.235597,1.305381,2.662932,6.599596,3.076720,-0.086405,-0.273736,0.157044,-0.894775,-0.024902,0.254395,0.146126,-0.012236,0.013259,0.999999,-0.000432,-0.001369,0.000785,-0.165609,-0.719320,-0.111591,-0.665356
20509,NaN,14.820069,-1.163892,1.838688,3.235481,6.538275,3.269835,0.101657,-0.134928,0.189616,-0.894531,-0.029053,0.254395,0.148199,-0.011508,0.018481,0.999999,0.000508,-0.000675,0.000948,-0.164687,-0.719957,-0.111135,-0.664973
20510,NaN,14.243815,-1.207481,2.427731,3.779432,6.264920,2.705490,0.289327,0.034532,0.221594,-0.894531,-0.026855,0.254395,0.142456,-0.011952,0.024235,0.999998,0.001447,0.000173,0.001108,-0.163119,-0.720211,-0.110332,-0.665218
20511,NaN,13.096893,-1.250301,2.924216,4.150465,5.811352,1.617300,0.436586,0.204582,0.279699,-0.892578,-0.022705,0.250244,0.131016,-0.012383,0.029081,0.999996,0.002183,0.001023,0.001398,-0.160502,-0.720036,-0.110943,-0.665942
20512,NaN,12.240569,-1.131444,3.065699,4.173286,5.333527,0.894652,0.541672,0.332157,0.363732,-0.895020,-0.018555,0.252197,0.122477,-0.011174,0.030423,0.999993,0.002708,0.001661,0.001819,-0.157416,-0.719561,-0.110590,-0.667250
20513,NaN,12.167607,-1.125819,2.793842,3.842344,5.300854,0.876585,0.613526,0.441737,0.481422,-0.890869,-0.010010,0.245850,0.121764,-0.011050,0.027635,0.999990,0.003068,0.002209,0.002407,-0.153356,-0.718827,-0.111252,-0.668874
20514,NaN,12.689370,-1.208328,2.226770,3.257602,5.550932,1.412863,0.666423,0.551316,0.617217,-0.895752,0.002686,0.243652,0.126991,-0.011765,0.021878,0.999986,0.003332,0.002757,0.003086,-0.148879,-0.717810,-0.110469,-0.671104
20515,NaN,13.370401,-0.959545,1.450236,2.435672,5.552833,2.229885,0.711947,0.671708,0.784855,-0.895752,0.007080,0.235352,0.133788,-0.009121,0.014020,0.999980,0.003560,0.003359,0.003924,-0.143316,-0.716503,-0.110538,-0.673695
20516,NaN,14.161954,-0.680148,0.840021,1.764413,5.488522,3.167664,0.756456,0.796141,0.975576,-0.900391,0.017822,0.231201,0.141682,-0.006141,0.007812,0.999973,0.003782,0.003981,0.004878,-0.137197,-0.714853,-0.108847,-0.676989
20517,NaN,14.950643,-0.369740,0.316890,1.147488,5.357367,4.106240,0.803269,0.915905,1.190875,-0.894531,0.034668,0.224609,0.149537,-0.002818,0.002472,0.999964,0.004016,0.004579,0.005954,-0.129790,-0.712924,-0.107933,-0.680621
20518,NaN,15.598716,0.031622,-0.284367,0.414508,5.014787,4.954698,0.824609,1.065860,1.378392,-0.897217,0.051758,0.209961,0.155962,0.001405,-0.003671,0.999954,0.004123,0.005329,0.006892,-0.121923,-0.710501,-0.105119,-0.685035
20519,NaN,16.140695,0.367050,-0.693180,-0.162120,4.656278,5.660558,0.826791,1.210081,1.574105,-0.897949,0.068848,0.205811,0.161325,0.004972,-0.007889,0.999942,0.004134,0.006050,0.007870,-0.112950,-0.707643,-0.103089,-0.689823
20520,NaN,16.396684,0.508949,-1.029102,-0.702082,4.315293,6.031661,0.795610,1.360737,1.746435,-0.900635,0.083740,0.193115,0.163839,0.006564,-0.011382,0.999931,0.003978,0.006804,0.008732,-0.103768,-0.704197,-0.098959,-0.695374
20521,NaN,16.298149,0.546373,-1.218326,-1.124341,3.951768,6.015084,0.742823,1.498160,1.922835,-0.899170,0.102783,0.178467,0.162821,0.007078,-0.013379,0.999919,0.003714,0.007491,0.009614,-0.093716,-0.700265,-0.095539,-0.701227
20522,NaN,15.890512,0.510609,-1.347451,-1.500595,3.528395,5.674995,0.672602,1.615553,2.084179,-0.893555,0.124023,0.163818,0.158724,0.006809,-0.014736,0.999907,0.003363,0.008078,0.010421,-0.083654,-0.695779,-0.089853,-0.707686
20523,NaN,15.151355,0.462383,-1.369293,-1.761310,3.051088,4.993575,0.590632,1.704948,2.233986,-0.892090,0.149658,0.146973,0.151325,0.006358,-0.014966,0.999897,0.002953,0.008524,0.011170,-0.072918,-0.690922,-0.084873,-0.714217
20524,NaN,14.318899,0.422609,-1.371380,-1.984398,2.536896,4.212333,0.519177,1.757814,2.369161,-0.895020,0.173096,0.132324,0.142997,0.005959,-0.014957,0.999888,0.002596,0.008789,0.011845,-0.062306,-0.685678,-0.077659,-0.721064
20525,NaN,13.366613,0.438121,-1.198966,-1.998492,1.989895,3.314679,0.439228,1.792254,2.503855,-0.889648,0.196289,0.117676,0.133483,0.006081,-0.013174,0.999879,0.002196,0.008961,0.012519,-0.051067,-0.680239,-0.071205,-0.727734
20526,NaN,12.389851,0.413617,-0.998211,-1.954377,1.495983,2.377685,0.343691,1.807118,2.623667,-0.884033,0.221924,0.106934,0.123733,0.005779,-0.011092,0.999872,0.001718,0.009035,0.013118,-0.040107,-0.674493,-0.062472,-0.734539
20527,NaN,11.403010,0.350378,-0.717212,-1.792502,1.097494,1.422811,0.241387,1.795629,2.753322,-0.872314,0.249512,0.090088,0.113897,0.005082,-0.008190,0.999864,0.001207,0.008978,0.013766,-0.028612,-0.668711,-0.054422,-0.740976
20528,NaN,10.527882,0.199278,-0.473751,-1.649418,0.826251,0.564532,0.154193,1.755517,2.871962,-0.868896,0.274902,0.081543,0.105189,0.003508,-0.005659,0.999858,0.000771,0.008777,0.014359,-0.017385,-0.662783,-0.044144,-0.747307
20529,NaN,9.699781,0.023386,-0.163548,-1.409764,0.641350,-0.236412,0.079121,1.692440,2.984700,-0.861328,0.298340,0.062744,0.096961,0.001682,-0.002456,0.999853,0.000396,0.008462,0.014923,-0.005592,-0.657023,-0.034686,-0.753051
20530,NaN,9.075017,-0.138291,0.086782,-1.229652,0.476737,-0.832994,0.032484,1.622292,3.092475,-0.847656,0.334473,0.050049,0.090760,0.000020,0.000132,0.999848,0.000162,0.008111,0.015462,0.006026,-0.651187,-0.023231,-0.758537
20531,NaN,8.605642,-0.275660,0.399103,-0.984219,0.335215,-1.256776,0.024721,1.537282,3.170469,-0.835693,0.357666,0.039307,0.086113,-0.001392,0.003329,0.999845,0.000124,0.007686,0.015852,0.018312,-0.645619,-0.012948,-0.763330
20532,NaN,8.259229,-0.385150,0.666636,-0.786792,0.173125,-1.557299,0.036951,1.449159,3.232292,-0.822021,0.389648,0.030762,0.082686,-0.002517,0.006067,0.999843,0.000185,0.007245,0.016161,0.030442,-0.639991,-0.001096,-0.767778
20533,NaN,7.963838,-0.575941,0.828289,-0.689184,0.115112,-1.816089,0.087657,1.371877,3.262968,-0.803955,0.415039,0.020264,0.079773,-0.004462,0.007734,0.999843,0.000438,0.006859,0.016314,0.043255,-0.634624,0.009221,-0.771555
20534,NaN,7.816214,-0.728289,0.955733,-0.644361,0.009468,-1.931358,0.168315,1.302259,3.276598,-0.789795,0.440430,0.017822,0.078328,-0.006008,0.009042,0.999844,0.000842,0.006511,0.016382,0.055946,-0.629074,0.020634,-0.775055
20535,NaN,7.669659,-0.929438,0.963077,-0.710785,-0.031650,-2.060090,0.287088,1.243404,3.262915,-0.769775,0.470215,0.005127,0.076893,-0.008054,0.009141,0.999847,0.001435,0.006217,0.016314,0.069361,-0.623737,0.030134,-0.777968
20536,NaN,7.509526,-1.216512,0.808627,-0.937487,0.008163,-2.220449,0.446540,1.199759,3.233809,-0.755615,0.491211,-0.003418,0.075326,-0.010966,0.007609,0.999849,0.002233,0.005998,0.016168,0.082727,-0.618059,0.040237,-0.780731
20537,NaN,7.436950,-1.385670,0.692672,-1.132660,-0.061454,-2.301631,0.638302,1.159731,3.172490,-0.733154,0.516846,-0.018066,0.074615,-0.012695,0.006453,0.999852,0.003191,0.005798,0.015862,0.096842,-0.612532,0.048028,-0.783019
20538,NaN,7.305026,-1.396589,0.455577,-1.418372,-0.277988,-2.503289,0.844277,1.127747,3.096893,-0.717041,0.542236,-0.022461,0.073279,-0.012850,0.004087,0.999855,0.004221,0.005638,0.015484,0.110857,-0.606575,0.056046,-0.785262
20539,NaN,7.097547,-1.368810,0.180543,-1.708655,-0.493036,-2.804530,1.053534,1.083471,3.002130,-0.696533,0.561279,-0.037109,0.071178,-0.012629,0.001352,0.999859,0.005267,0.005417,0.015010,0.125524,-0.600804,0.061614,-0.787072
20540,NaN,7.126751,-1.337436,-0.068848,-2.027400,-0.767995,-2.893188,1.257226,1.041739,2.903295,-0.678223,0.578125,-0.053711,0.071446,-0.012332,-0.001140,0.999861,0.006286,0.005208,0.014516,0.139984,-0.594625,0.067283,-0.788859
20541,NaN,7.153582,-1.283462,-0.334905,-2.348772,-1.055504,-3.008416,1.452595,1.024753,2.779217,-0.662109,0.603516,-0.062256,0.071686,-0.011813,-0.003804,0.999864,0.007263,0.005124,0.013895,0.154905,-0.588544,0.070531,-0.790345
20542,NaN,7.105094,-1.212950,-0.471443,-2.521966,-1.324401,-3.175098,1.633426,1.003931,2.636997,-0.639404,0.618408,-0.082764,0.071177,-0.011151,-0.005165,0.999867,0.008167,0.005019,0.013184,0.169365,-0.581992,0.073794,-0.791931
20543,NaN,7.046386,-1.161234,-0.553591,-2.632607,-1.551941,-3.334742,1.803843,0.979516,2.486990,-0.626953,0.631104,-0.099365,0.070572,-0.010683,-0.005981,0.999870,0.009019,0.004897,0.012434,0.184083,-0.575586,0.074716,-0.793241
20544,NaN,7.013961,-1.191373,-0.510058,-2.647466,-1.694037,-3.410100,1.938447,0.945541,2.328704,-0.606201,0.643799,-0.115967,0.070246,-0.011044,-0.005542,0.999874,0.009692,0.004728,0.011643,0.198143,-0.568815,0.075713,-0.794642
20546,NaN,7.240863,-0.971167,-0.385749,-5.226357,-4.440288,3.110705,2.091288,0.882098,2.074257,-0.572998,0.660889,-0.148682,0.145098,-0.016231,-0.009356,0.999527,0.020910,0.008820,0.020739,0.225762,-0.555817,0.072614,-0.796760
20547,NaN,7.697746,-0.848991,-0.190053,-2.592311,-2.738743,-3.045918,2.195329,0.808809,1.795549,-0.556396,0.669189,-0.167236,0.077041,-0.007775,-0.002300,0.999891,0.010976,0.004044,0.008977,0.238344,-0.549148,0.070783,-0.797884
20548,NaN,8.030834,-0.742137,-0.020599,-2.535213,-3.096576,-2.810725,2.234152,0.768574,1.602220,-0.550293,0.675781,-0.181641,0.080363,-0.006773,-0.000593,0.999898,0.011170,0.003843,0.008011,0.250580,-0.542789,0.067187,-0.798796
20549,NaN,8.404505,-0.653875,0.233199,-2.423697,-3.435569,-2.502513,2.266825,0.738206,1.396608,-0.529053,0.675537,-0.204102,0.084096,-0.005975,0.001952,0.999905,0.011334,0.003691,0.006983,0.261712,-0.536261,0.063775,-0.799915
20550,NaN,8.955707,-0.519544,0.478481,-2.350632,-3.883284,-2.060466,2.276281,0.701373,1.207615,-0.518555,0.677734,-0.222412,0.089602,-0.004706,0.004415,0.999911,0.011381,0.003507,0.006038,0.272405,-0.530038,0.058830,-0.800871
20551,NaN,9.573882,-0.439819,0.663908,-2.377450,-4.322877,-1.569333,2.271768,0.671398,1.001674,-0.503662,0.675537,-0.238770,0.095781,-0.003991,0.006271,0.999917,0.011359,0.003357,0.005008,0.281922,-0.523742,0.054134,-0.802050
20552,NaN,9.978311,-0.067728,0.696287,-2.355287,-4.912896,-1.423920,2.228507,0.665356,0.823156,-0.497314,0.671387,-0.265137,0.099807,-0.000342,0.006626,0.999924,0.011142,0.003327,0.004116,0.290865,-0.517663,0.048296,-0.803175
20553,NaN,10.368312,0.233318,0.773350,-2.315624,-5.418626,-1.243545,2.162845,0.642545,0.695979,-0.490967,0.671387,-0.273193,0.103699,0.002613,0.007428,0.999930,0.010814,0.003213,0.003480,0.298830,-0.511609,0.043067,-0.804426
20554,NaN,10.993290,0.593138,0.630873,-2.492270,-6.131385,-0.992454,2.035227,0.588367,0.549555,-0.486816,0.673584,-0.293701,0.109934,0.006171,0.006047,0.999940,0.010176,0.002942,0.002748,0.306109,-0.506046,0.037173,-0.805501
20555,NaN,11.617924,0.870194,0.446602,-2.733653,-6.785008,-0.733956,1.888386,0.519705,0.413597,-0.479980,0.663086,-0.309814,0.116172,0.008901,0.004248,0.999950,0.009442,0.002598,0.002068,0.312242,-0.500896,0.032003,-0.806588
20556,NaN,12.292415,1.082885,0.292316,-2.981636,-7.394574,-0.389763,1.691412,0.429818,0.273672,-0.471436,0.660889,-0.320068,0.122915,0.010973,0.002751,0.999961,0.008457,0.002149,0.001368,0.317508,-0.496452,0.026546,-0.807477
20557,NaN,12.948493,1.296458,0.057778,-3.286543,-8.011217,-0.098442,1.473585,0.351158,0.133462,-0.471436,0.658691,-0.332275,0.129477,0.013047,0.000446,0.999971,0.007368,0.001756,0.000667,0.321516,-0.492667,0.021931,-0.808347
20558,NaN,13.222727,1.418332,-0.101671,-3.453823,-8.314350,-0.024676,1.232983,0.285031,-0.002114,-0.471191,0.650391,-0.340332,0.132226,0.014189,-0.001118,0.999980,0.006165,0.001425,-0.000011,0.324516,-0.489517,0.017410,-0.809172
20559,NaN,13.241736,1.617912,-0.093628,-3.369544,-8.480625,-0.081547,0.954987,0.218878,-0.143480,-0.466797,0.650391,-0.346436,0.132428,0.016089,-0.001004,0.999988,0.004775,0.001094,-0.000717,0.326194,-0.487172,0.013832,-0.809981
20560,NaN,12.995643,1.691818,-0.140681,-3.315170,-8.403084,-0.317083,0.674074,0.138189,-0.284596,-0.464600,0.645996,-0.348389,0.129979,0.016738,-0.001440,0.999993,0.003370,0.000691,-0.001423,0.326680,-0.485522,0.010643,-0.810823
20561,NaN,12.488434,1.719460,0.034842,-3.023566,-8.067790,-0.610116,0.363661,0.017842,-0.423470,-0.470947,0.644043,-0.348389,0.124920,0.016929,0.000368,0.999996,0.001818,0.000089,-0.002117,0.325868,-0.485037,0.008287,-0.811468
20562,NaN,11.991831,1.713143,0.108321,-2.837206,-7.728560,-0.926190,0.015930,-0.127036,-0.556552,-0.473145,0.644043,-0.350586,0.119965,0.016798,0.001161,0.999996,0.000080,-0.000635,-0.002783,0.323661,-0.485542,0.006675,-0.812064
20563,NaN,11.985034,1.643938,0.127699,-2.871813,-7.603170,-0.851454,-0.345323,-0.317426,-0.696311,-0.481445,0.641846,-0.346436,0.119904,0.016024,0.001439,0.999991,-0.001727,-0.001587,-0.003482,0.320096,-0.487635,0.005835,-0.812229
20564,NaN,12.340282,1.359482,-0.045494,-3.286859,-7.534545,-0.508987,-0.668904,-0.513705,-0.848881,-0.491943,0.637695,-0.336182,0.123460,0.013070,-0.000182,0.999982,-0.003345,-0.002569,-0.004244,0.315036,-0.490802,0.005669,-0.812301
20565,NaN,12.368214,0.837659,-0.091733,-3.597883,-7.037497,-0.262300,-0.907432,-0.651765,-1.009175,-0.491943,0.637695,-0.325928,0.123724,0.007749,-0.000550,0.999972,-0.004537,-0.003259,-0.005046,0.308877,-0.495184,0.005666,-0.812008
20566,NaN,11.715251,0.392213,-0.001047,-3.541019,-6.193869,-0.512364,-1.085333,-0.749397,-1.155111,-0.504639,0.641846,-0.315918,0.117172,0.003247,0.000410,0.999962,-0.005427,-0.003747,-0.005775,0.301518,-0.499910,0.006064,-0.811874
20567,NaN,10.836507,0.193710,0.138431,-3.228667,-5.418274,-0.997794,-1.240772,-0.859628,-1.277401,-0.514893,0.633301,-0.297363,0.108367,0.001255,0.001841,0.999951,-0.006204,-0.004298,-0.006387,0.293449,-0.505634,0.006298,-0.811284
20568,NaN,10.309349,0.180862,0.208120,-2.996869,-4.990910,-1.300007,-1.391529,-1.011426,-1.408713,-0.531982,0.631348,-0.285156,0.103091,0.001099,0.002593,0.999938,-0.006958,-0.005057,-0.007043,0.284239,-0.511787,0.006906,-0.810700
20569,NaN,10.127880,0.086298,0.220022,-2.936810,-4.666077,-1.313890,-1.524334,-1.181222,-1.545730,-0.540283,0.633301,-0.274902,0.101266,0.000100,0.002796,0.999924,-0.007621,-0.005906,-0.007728,0.274331,-0.519148,0.007033,-0.809431
20570,NaN,10.070824,-0.108371,0.279042,-2.915294,-4.287756,-1.174197,-1.608137,-1.331548,-1.680373,-0.554932,0.625000,-0.250244,0.100673,-0.001904,0.003474,0.999910,-0.008040,-0.006658,-0.008402,0.263387,-0.526750,0.007361,-0.808151
20571,NaN,10.067775,-0.270807,0.473677,-2.749859,-3.903248,-0.932582,-1.641872,-1.452139,-1.816222,-0.571777,0.620605,-0.238037,0.100610,-0.003579,0.005494,0.999899,-0.008209,-0.007260,-0.009081,0.252010,-0.535219,0.006790,-0.806216
20572,NaN,10.298520,-0.415176,0.708987,-2.602669,-3.606499,-0.488067,-1.630359,-1.558426,-1.927369,-0.584473,0.620605,-0.223877,0.102880,-0.005081,0.007931,0.999890,-0.008151,-0.007792,-0.009636,0.239911,-0.543557,0.006249,-0.804331
20573,NaN,10.686946,-0.487217,0.856738,-2.516168,-3.427184,0.041203,-1.553112,-1.637837,-2.047135,-0.598877,0.607910,-0.198975,0.106737,-0.005894,0.009485,0.999884,-0.007765,-0.008189,-0.010235,0.227752,-0.552455,0.004379,-0.801813
20574,NaN,11.204394,-0.402206,0.920916,-2.480090,-3.429168,0.609914,-1.436266,-1.693019,-2.168196,-0.625977,0.597412,-0.180664,0.111909,-0.005165,0.010191,0.999880,-0.007181,-0.008465,-0.010841,0.215110,-0.560854,0.002228,-0.799478
20575,NaN,11.597658,-0.388530,0.870979,-2.511088,-3.307229,1.057590,-1.291537,-1.730467,-2.291950,-0.635986,0.582520,-0.164062,0.115841,-0.005153,0.009743,0.999876,-0.006457,-0.008652,-0.011459,0.202595,-0.569575,-0.001558,-0.796578
20576,NaN,11.924016,-0.394769,0.782602,-2.570708,-3.127131,1.436881,-1.150736,-1.753603,-2.389672,-0.650391,0.572021,-0.145508,0.119107,-0.005322,0.008899,0.999874,-0.005753,-0.008768,-0.011948,0.189769,-0.577631,-0.005548,-0.793914
20577,NaN,12.035708,-0.414487,0.726414,-2.526324,-2.828538,1.639992,-1.033273,-1.763589,-2.468631,-0.665039,0.563477,-0.131104,0.120224,-0.005588,0.008351,0.999872,-0.005166,-0.008818,-0.012343,0.177193,-0.585933,-0.010976,-0.790673
20578,NaN,11.920714,-0.337188,0.690002,-2.389983,-2.551269,1.609274,-0.963692,-1.765612,-2.517269,-0.679199,0.546387,-0.106445,0.119085,-0.004835,0.007973,0.999870,-0.004818,-0.008828,-0.012586,0.164306,-0.593549,-0.016096,-0.787683
20579,NaN,11.588310,-0.405435,0.645676,-2.235125,-2.082261,1.391244,-0.914067,-1.761282,-2.531952,-0.695557,0.529541,-0.091797,0.115757,-0.005488,0.007499,0.999871,-0.004570,-0.008806,-0.012659,0.151738,-0.601419,-0.022238,-0.784077
20580,NaN,11.088791,-0.440597,0.618386,-2.034729,-1.632974,0.991086,-0.876645,-1.742995,-2.525854,-0.714111,0.512451,-0.073242,0.110761,-0.005775,0.007173,0.999873,-0.004383,-0.008715,-0.012629,0.138994,-0.608557,-0.027709,-0.780751
20581,NaN,10.427910,-0.621536,0.623966,-1.798845,-1.029213,0.444676,-0.832926,-1.703802,-2.504822,-0.726318,0.501953,-0.058838,0.104132,-0.007492,0.007157,0.999877,-0.004164,-0.008519,-0.012524,0.126701,-0.615818,-0.034079,-0.776887
20582,NaN,9.645151,-0.642839,0.652632,-1.500227,-0.605034,-0.260490,-0.780192,-1.672681,-2.466931,-0.736084,0.476562,-0.048096,0.096303,-0.007589,0.007360,0.999881,-0.003901,-0.008363,-0.012334,0.114423,-0.622314,-0.039693,-0.773341
20583,NaN,8.784618,-0.663854,0.634698,-1.234966,-0.221922,-1.070080,-0.732024,-1.643392,-2.408748,-0.754639,0.459473,-0.033691,0.087702,-0.007670,0.007095,0.999887,-0.003660,-0.008217,-0.012043,0.102753,-0.628976,-0.046125,-0.769222
20584,NaN,8.125642,-0.609663,0.607729,-1.026276,0.008584,-1.706563,-0.693345,-1.631213,-2.348434,-0.762695,0.446777,-0.017090,0.081124,-0.007027,0.006763,0.999892,-0.003467,-0.008156,-0.011742,0.091159,-0.634995,-0.051670,-0.765377
20585,NaN,7.724544,-0.510476,0.517331,-0.919048,0.133120,-2.110053,-0.633329,-1.619983,-2.264047,-0.768555,0.434082,-0.000488,0.077136,-0.005961,0.005816,0.999898,-0.003167,-0.008100,-0.011320,0.080300,-0.641249,-0.057995,-0.760913
20586,NaN,7.438762,-0.635958,0.394626,-0.922791,0.434505,-2.406505,-0.570133,-1.617108,-2.199389,-0.778320,0.410645,0.012207,0.074277,-0.007164,0.004567,0.999903,-0.002851,-0.008085,-0.010997,0.069633,-0.646929,-0.063515,-0.756704
20587,NaN,7.321821,-0.603231,0.322874,-0.869164,0.577045,-2.533573,-0.500341,-1.612334,-2.149711,-0.788330,0.393555,0.028809,0.073119,-0.006810,0.003835,0.999907,-0.002502,-0.008061,-0.010748,0.059588,-0.652854,-0.069943,-0.751890
20588,NaN,7.333052,-0.585874,0.258697,-0.837367,0.721971,-2.535449,-0.442813,-1.625640,-2.098066,-0.796387,0.378906,0.041260,0.073239,-0.006621,0.003197,0.999909,-0.002214,-0.008128,-0.010490,0.049687,-0.658303,-0.075599,-0.747297
20589,NaN,7.456117,-0.774912,0.300356,-0.742183,1.096586,-2.428396,-0.391233,-1.641455,-2.063813,-0.806396,0.361816,0.053711,0.074448,-0.008511,0.003631,0.999911,-0.001956,-0.008207,-0.010319,0.040270,-0.664067,-0.082120,-0.742057
20590,NaN,7.623260,-0.798596,0.383278,-0.583360,1.314657,-2.274338,-0.352820,-1.648188,-2.042067,-0.814209,0.346924,0.070312,0.076111,-0.008756,0.004475,0.999912,-0.001764,-0.008241,-0.010210,0.030847,-0.669357,-0.087909,-0.737077
20591,NaN,7.931748,-0.851644,0.498824,-0.397584,1.590540,-1.989953,-0.331627,-1.662197,-2.030750,-0.820068,0.332031,0.078857,0.079180,-0.009312,0.005662,0.999913,-0.001658,-0.008311,-0.010153,0.021708,-0.674933,-0.094484,-0.731482
20592,NaN,8.274062,-0.981306,0.640466,-0.196855,1.954062,-1.690365,-0.316192,-1.669763,-2.027225,-0.817383,0.317139,0.101562,0.082578,-0.010640,0.007111,0.999913,-0.001581,-0.008349,-0.010136,0.012441,-0.680058,-0.100336,-0.726154
20593,NaN,8.746726,-0.985724,0.826477,0.076350,2.239087,-1.260725,-0.315885,-1.674569,-2.036823,-0.831787,0.300293,0.107910,0.087288,-0.010733,0.009013,0.999912,-0.001579,-0.008373,-0.010184,0.003299,-0.685404,-0.106912,-0.720264
20594,NaN,9.253212,-0.883181,0.993549,0.352579,2.433540,-0.793954,-0.345817,-1.675381,-2.054901,-0.835449,0.285400,0.128662,0.092347,-0.009763,0.010726,0.999911,-0.001729,-0.008377,-0.010274,-0.006177,-0.690285,-0.112722,-0.714677
20595,NaN,9.632248,-0.891122,1.143480,0.621780,2.739196,-0.486033,-0.378781,-1.672690,-2.071884,-0.834717,0.261963,0.141357,0.096123,-0.009885,0.012257,0.999910,-0.001894,-0.008363,-0.010359,-0.015681,-0.695325,-0.119099,-0.708585
20596,NaN,10.010233,-0.849476,1.240259,0.849562,2.995281,-0.181222,-0.443410,-1.667003,-2.095556,-0.833984,0.247070,0.149658,0.099898,-0.009513,0.013256,0.999908,-0.002217,-0.008335,-0.010477,-0.025633,-0.699885,-0.124666,-0.702824
20597,NaN,10.345648,-0.798010,1.293205,1.053390,3.248604,0.070234,-0.507313,-1.662527,-2.111338,-0.841797,0.225830,0.170410,0.103252,-0.009037,0.013813,0.999907,-0.002536,-0.008312,-0.010556,-0.035731,-0.704562,-0.130618,-0.696603
20598,NaN,10.638891,-0.805135,1.352556,1.258012,3.553094,0.259541,-0.567814,-1.655263,-2.120963,-0.841064,0.204590,0.185303,0.106179,-0.009138,0.014430,0.999905,-0.002839,-0.008276,-0.010604,-0.046192,-0.708775,-0.135799,-0.690697
20599,NaN,10.887373,-0.801488,1.395366,1.462249,3.848911,0.393436,-0.624796,-1.645662,-2.126573,-0.840576,0.185303,0.199951,0.108661,-0.009126,0.014876,0.999905,-0.003124,-0.008228,-0.010633,-0.056750,-0.713060,-0.141275,-0.684372
20600,NaN,11.046147,-0.812279,1.426696,1.650349,4.129640,0.430742,-0.673364,-1.626820,-2.117961,-0.842041,0.172607,0.212402,0.110246,-0.009241,0.015194,0.999905,-0.003367,-0.008134,-0.010589,-0.067538,-0.716874,-0.146042,-0.678382
20601,NaN,11.133109,-0.820080,1.496155,1.884301,4.394082,0.384933,-0.710946,-1.615023,-2.088947,-0.845703,0.151367,0.224854,0.111112,-0.009307,0.015891,0.999907,-0.003555,-0.008075,-0.010444,-0.078246,-0.720757,-0.150958,-0.672010
20602,NaN,11.155848,-0.853279,1.537616,2.079481,4.645762,0.268538,-0.741023,-1.590656,-2.036959,-0.844971,0.134277,0.233398,0.111337,-0.009608,0.016297,0.999910,-0.003705,-0.007953,-0.010184,-0.088951,-0.724212,-0.155168,-0.665979
20603,NaN,11.145292,-0.919778,1.583705,2.278671,4.909410,0.100467,-0.762667,-1.549126,-1.960044,-0.842285,0.117188,0.250000,0.111229,-0.010226,0.016737,0.999915,-0.003813,-0.007745,-0.009800,-0.099350,-0.727670,-0.159322,-0.659730
20604,NaN,10.929934,-0.896484,1.819714,2.648031,5.004715,-0.246408,-0.753654,-1.489746,-1.857858,-0.839844,0.102295,0.260498,0.109070,-0.009908,0.019046,0.999922,-0.003768,-0.007449,-0.009289,-0.109396,-0.730675,-0.162838,-0.653935
20605,NaN,10.634815,-0.856963,2.002187,2.952003,5.026030,-0.655041,-0.732512,-1.419375,-1.740380,-0.834961,0.085205,0.273193,0.106123,-0.009419,0.020809,0.999930,-0.003662,-0.007097,-0.008702,-0.118838,-0.733655,-0.166203,-0.648078
20606,NaN,10.530869,-0.726724,2.178003,3.259616,5.010411,-0.843978,-0.709345,-1.365067,-1.605956,-0.834473,0.074707,0.281494,0.105094,-0.008033,0.022525,0.999938,-0.003547,-0.006825,-0.008030,-0.127767,-0.736279,-0.168969,-0.642665
20607,NaN,10.681618,-0.441689,2.253447,3.509405,4.937379,-0.720217,-0.707737,-1.318132,-1.447434,-0.838135,0.057617,0.296143,0.106629,-0.005108,0.023255,0.999946,-0.003539,-0.006591,-0.007237,-0.136068,-0.738993,-0.171254,-0.637218
20608,NaN,11.232260,-0.067603,2.318971,3.802610,4.943845,-0.187655,-0.725830,-1.277831,-1.289837,-0.835693,0.046875,0.300293,0.112164,-0.001314,0.023911,0.999952,-0.003629,-0.006389,-0.006449,-0.143944,-0.741434,-0.172824,-0.632208
20609,NaN,11.925224,0.480801,2.416935,4.171951,4.852276,0.547385,-0.794673,-1.225418,-1.134589,-0.831055,0.036377,0.314941,0.119126,0.004230,0.024882,0.999957,-0.003973,-0.006127,-0.005673,-0.151475,-0.743902,-0.173605,-0.627316
20610,NaN,12.645542,0.989957,2.395928,4.423247,4.806895,1.320884,-0.929010,-1.158267,-0.978878,-0.824463,0.025635,0.327393,0.126361,0.009394,0.024647,0.999960,-0.004645,-0.005791,-0.004894,-0.158997,-0.745956,-0.173443,-0.623047
20611,NaN,13.124439,1.275291,2.223639,4.476856,4.844474,1.819541,-1.112286,-1.075919,-0.828643,-0.821777,0.010742,0.331787,0.131174,0.012335,0.022873,0.999961,-0.005561,-0.005380,-0.004143,-0.166607,-0.747837,-0.172081,-0.619168
20612,NaN,13.187602,1.469059,2.030654,4.418836,4.764554,1.933210,-1.340665,-0.983671,-0.685689,-0.821533,0.004395,0.335938,0.131824,0.014377,0.020858,0.999960,-0.006703,-0.004918,-0.003428,-0.174580,-0.749149,-0.169663,-0.616046
20613,NaN,13.066993,1.450902,1.943632,4.411928,4.758270,1.785674,-1.582000,-0.897398,-0.539652,-0.815186,0.002197,0.346191,0.130620,0.014313,0.019909,0.999955,-0.007910,-0.004487,-0.002698,-0.182880,-0.750186,-0.165797,-0.613423
20614,NaN,12.971221,1.312383,1.934190,4.466877,4.849397,1.599837,-1.826399,-0.851367,-0.415132,-0.814697,-0.008545,0.352539,0.129656,0.013034,0.019775,0.999947,-0.009132,-0.004257,-0.002076,-0.191697,-0.750746,-0.160959,-0.611330
20615,NaN,13.191058,1.191958,1.715945,4.380358,5.068929,1.740975,-2.059025,-0.801015,-0.301118,-0.812500,-0.010742,0.358887,0.131859,0.011900,0.017565,0.999938,-0.010295,-0.004005,-0.001506,-0.200942,-0.751062,-0.154699,-0.609587
20616,NaN,13.264107,0.662760,1.553611,4.321467,5.565872,1.551066,-2.235014,-0.734632,-0.174975,-0.812256,-0.023438,0.363037,0.132589,0.006688,0.015949,0.999930,-0.011175,-0.003673,-0.000875,-0.210420,-0.750871,-0.147789,-0.608338
20617,NaN,12.949362,0.403056,1.367408,4.159791,5.625255,1.176868,-2.347152,-0.671539,-0.050389,-0.805664,-0.027588,0.363281,0.129448,0.004161,0.014060,0.999925,-0.011735,-0.003358,-0.000252,-0.219829,-0.750469,-0.139700,-0.607416
20618,NaN,12.645395,0.180177,1.349145,4.156726,5.630947,0.806735,-2.390773,-0.616451,0.064951,-0.805176,-0.038330,0.363281,0.126411,0.002007,0.013858,0.999924,-0.011954,-0.003082,0.000325,-0.229013,-0.749705,-0.131501,-0.606797
20619,NaN,12.510359,-0.109206,1.347979,4.217268,5.746590,0.556918,-2.372761,-0.567946,0.185435,-0.801025,-0.040527,0.369629,0.125065,-0.000813,0.013846,0.999925,-0.011864,-0.002840,0.000927,-0.237662,-0.748886,-0.122420,-0.606383
20620,NaN,12.823942,-0.111662,1.351027,4.356517,5.824400,0.835671,-2.277929,-0.545381,0.290483,-0.800781,-0.044678,0.369629,0.128203,-0.000774,0.013870,0.999930,-0.011389,-0.002727,0.001452,-0.245624,-0.747961,-0.113763,-0.606037
20621,NaN,13.411664,-0.170650,1.607327,4.811033,5.993052,1.296844,-2.095206,-0.481286,0.365272,-0.802734,-0.048828,0.375732,0.134080,-0.001291,0.016411,0.999941,-0.010476,-0.002406,0.001826,-0.252567,-0.747107,-0.104819,-0.605849
20622,NaN,13.486241,-0.249480,2.203967,5.454509,5.850056,1.269846,-1.848250,-0.341710,0.427809,-0.804932,-0.051025,0.373779,0.134829,-0.002001,0.022290,0.999954,-0.009241,-0.001709,0.002139,-0.258339,-0.746001,-0.097179,-0.606053
20623,NaN,12.998368,-0.428361,2.861350,6.014160,5.486120,0.725802,-1.551802,-0.179304,0.466528,-0.798584,-0.044678,0.371582,0.129967,-0.003758,0.028761,0.999967,-0.007759,-0.000897,0.002333,-0.262740,-0.744820,-0.089764,-0.606756
20624,NaN,12.309718,-0.766906,3.474185,6.489562,5.193804,-0.060952,-1.216369,-0.014668,0.492814,-0.792236,-0.044678,0.371826,0.123113,-0.007154,0.034795,0.999978,-0.006082,-0.000073,0.002464,-0.265772,-0.743474,-0.084209,-0.607882
20625,NaN,11.715005,-1.088594,3.851031,6.748718,4.990211,-0.712761,-0.880686,0.156116,0.515597,-0.798828,-0.042480,0.371582,0.117207,-0.010414,0.038465,0.999987,-0.004403,0.000781,0.002578,-0.267353,-0.742084,-0.078989,-0.609586
20626,NaN,11.188502,-1.477313,3.840705,6.659878,5.025099,-1.297421,-0.549828,0.313682,0.564301,-0.803223,-0.038330,0.365479,0.111986,-0.014352,0.038271,0.999991,-0.002749,0.001568,0.002821,-0.267543,-0.740611,-0.075630,-0.611716
20627,NaN,10.999818,-1.756807,3.459450,6.267820,5.229152,-1.480834,-0.242853,0.469784,0.640168,-0.803223,-0.033936,0.363281,0.110134,-0.017174,0.034357,0.999991,-0.001214,0.002349,0.003201,-0.266245,-0.739093,-0.072224,-0.614523
20628,NaN,11.188701,-1.978185,2.756896,5.629492,5.675146,-1.280324,0.075168,0.608722,0.752168,-0.810059,-0.025391,0.350830,0.112044,-0.019371,0.027221,0.999988,0.000376,0.003044,0.003761,-0.263428,-0.737587,-0.070477,-0.617741
20630,NaN,12.263072,-2.146013,1.551574,9.199752,13.115661,9.497643,0.577154,0.863366,1.009938,-0.808594,0.000000,0.333984,0.245934,-0.040609,0.028671,0.999895,0.005771,0.008633,0.010099,-0.252237,-0.734375,-0.067853,-0.626471
20631,NaN,13.417762,-1.598741,0.341502,3.334740,6.813217,1.374954,1.090918,1.161419,1.356588,-0.819580,0.010742,0.327637,0.134299,-0.015092,0.002551,0.999945,0.005454,0.005807,0.006783,-0.243569,-0.732534,-0.067742,-0.632043
20632,NaN,14.161562,-1.058577,-0.408546,2.421742,6.703754,2.476492,1.425081,1.362368,1.622953,-0.818359,0.031982,0.317139,0.141663,-0.009402,-0.005120,0.999918,0.007125,0.006812,0.008115,-0.232676,-0.730388,-0.066790,-0.638697
20633,NaN,14.831230,-0.474819,-1.167197,1.421924,6.466944,3.517642,1.738329,1.567032,1.877289,-0.821289,0.055420,0.296143,0.148250,-0.003248,-0.012866,0.999887,0.008691,0.007835,0.009386,-0.219778,-0.727952,-0.067292,-0.645953
20634,NaN,15.429543,0.166495,-1.872487,0.396609,6.016172,4.513377,2.026251,1.758453,2.095238,-0.828125,0.074707,0.279541,0.154093,0.003479,-0.020051,0.999855,0.010131,0.008792,0.010476,-0.204950,-0.725010,-0.066890,-0.654126
20635,NaN,15.975827,0.761905,-2.417815,-0.508620,5.476752,5.398430,2.248422,1.919997,2.266920,-0.827148,0.104492,0.258545,0.159415,0.009710,-0.025608,0.999826,0.011241,0.009599,0.011334,-0.188702,-0.721668,-0.067973,-0.662546
20636,NaN,16.289722,1.145245,-2.742747,-1.224486,4.893280,5.958169,2.397296,2.053102,2.398794,-0.827881,0.127930,0.237793,0.162450,0.013744,-0.028941,0.999804,0.011986,0.010265,0.011993,-0.171315,-0.717696,-0.067887,-0.671532
20637,NaN,16.327959,1.439146,-2.715776,-1.612091,4.212124,6.177308,2.464132,2.171567,2.501242,-0.828857,0.155518,0.216797,0.162773,0.016777,-0.028730,0.999787,0.012320,0.010857,0.012505,-0.153294,-0.713212,-0.069021,-0.680490
20638,NaN,15.965924,1.633564,-2.456324,-1.784364,3.422693,5.957096,2.471985,2.275788,2.566311,-0.831787,0.176758,0.193848,0.159138,0.018697,-0.026155,0.999777,0.012359,0.011378,0.012831,-0.134883,-0.707968,-0.068686,-0.689834
20639,NaN,15.121324,1.746481,-2.040861,-1.775965,2.602355,5.217880,2.410755,2.365063,2.615247,-0.828369,0.200195,0.168945,0.150712,0.019696,-0.021964,0.999772,0.012053,0.011824,0.013075,-0.116479,-0.702173,-0.069312,-0.698986
20640,NaN,13.963971,1.752075,-1.368118,-1.462760,1.817317,4.132580,2.284066,2.402098,2.649033,-0.824951,0.227783,0.141846,0.139214,0.019534,-0.015140,0.999775,0.011419,0.012010,0.013244,-0.098312,-0.695727,-0.068055,-0.708284
20641,NaN,12.966872,1.655577,-0.576729,-0.957273,1.271228,3.174363,2.101957,2.397425,2.684893,-0.821533,0.247070,0.119141,0.129350,0.018364,-0.007132,0.999783,0.010509,0.011986,0.013423,-0.080647,-0.689033,-0.067312,-0.717077
20642,NaN,12.068642,1.633939,0.283756,-0.343832,0.730010,2.342024,1.865796,2.373135,2.716628,-0.820068,0.272461,0.098145,0.120473,0.017958,0.001570,0.999794,0.009328,0.011865,0.013582,-0.063648,-0.681880,-0.064287,-0.725848
20643,NaN,11.448827,1.646658,1.082853,0.243966,0.297759,1.797615,1.573318,2.333597,2.770791,-0.810547,0.298096,0.073242,0.114363,0.017973,0.009631,0.999805,0.007866,0.011667,0.013853,-0.047456,-0.674669,-0.061269,-0.734041
20644,NaN,11.096829,1.514931,1.721337,0.667587,0.068717,1.498176,1.267305,2.283680,2.813949,-0.804688,0.317139,0.048340,0.110929,0.016606,0.016049,0.999816,0.006336,0.011418,0.014069,-0.032142,-0.667119,-0.055700,-0.742170
20645,NaN,10.816178,1.300972,2.105482,0.850901,-0.035464,1.249797,0.937550,2.230133,2.872734,-0.794922,0.336426,0.033936,0.108187,0.014468,0.019914,0.999824,0.004687,0.011150,0.014363,-0.017718,-0.659675,-0.049933,-0.749681
20647,NaN,10.342618,0.939217,2.166446,1.274270,-0.381420,11.358834,0.484417,2.139450,2.951339,-0.773193,0.385254,-0.001709,0.207047,0.024698,0.039010,0.999324,0.004843,0.021390,0.029507,0.008662,-0.644479,-0.033237,-0.763850
20648,NaN,9.657004,0.583428,1.853478,0.133700,-0.332106,0.030842,0.089699,2.030466,3.024209,-0.756836,0.402100,-0.020264,0.096649,0.007287,0.017557,0.999834,0.000448,0.010152,0.015120,0.020848,-0.637114,-0.023729,-0.770122
20649,NaN,9.155547,0.421959,1.446288,-0.357730,-0.508926,-0.555386,-0.135825,1.929845,3.054293,-0.740967,0.429688,-0.031006,0.091611,0.005628,0.013576,0.999837,-0.000679,0.009649,0.015271,0.032383,-0.629640,-0.012117,-0.776118
20650,NaN,8.718683,0.088910,0.954901,-0.919168,-0.476922,-1.103231,-0.308009,1.821193,3.070096,-0.730957,0.448730,-0.043457,0.087241,0.002242,0.008752,0.999840,-0.001540,0.009105,0.015350,0.043444,-0.622704,-0.000947,-0.781250
20651,NaN,8.421120,-0.208315,0.526195,-1.429585,-0.471479,-1.508343,-0.401095,1.703379,3.075981,-0.714844,0.472168,-0.056152,0.084271,-0.000778,0.004547,0.999843,-0.002005,0.008516,0.015379,0.054193,-0.615712,0.011670,-0.786019
20652,NaN,8.326428,-0.429313,0.091560,-1.962538,-0.529505,-1.726701,-0.431381,1.609286,3.085171,-0.698486,0.493408,-0.064697,0.083321,-0.003007,0.000253,0.999846,-0.002157,0.008046,0.015425,0.064901,-0.609226,0.023311,-0.789992
20653,NaN,8.305040,-0.698219,-0.206804,-2.380509,-0.544378,-1.841862,-0.391970,1.536604,3.078728,-0.686768,0.516602,-0.073242,0.083126,-0.005708,-0.002695,0.999850,-0.001960,0.007683,0.015393,0.075661,-0.602481,0.035779,-0.793733
20654,NaN,8.203837,-0.825806,-0.504500,-2.752695,-0.668538,-2.053258,-0.283777,1.478728,3.061569,-0.668213,0.533691,-0.079590,0.082112,-0.007009,-0.005641,0.999854,-0.001419,0.007393,0.015307,0.086694,-0.596080,0.046696,-0.796864
20655,NaN,8.074294,-0.719708,-0.684185,-2.981843,-1.008790,-2.311673,-0.141028,1.434300,3.023630,-0.647705,0.550537,-0.087891,0.080788,-0.005981,-0.007417,0.999860,-0.000705,0.007171,0.015117,0.097956,-0.589291,0.057864,-0.799870
20656,NaN,8.078898,-0.738772,-0.836391,-3.220278,-1.235520,-2.422738,0.023794,1.390159,2.968552,-0.631348,0.571777,-0.096436,0.080826,-0.006187,-0.008926,0.999866,0.000119,0.006950,0.014842,0.109497,-0.582777,0.067203,-0.802412
20657,NaN,8.051102,-0.922576,-0.968046,-3.446850,-1.295357,-2.529549,0.230535,1.363276,2.897890,-0.614746,0.582275,-0.104736,0.080565,-0.008047,-0.010239,0.999871,0.001153,0.006816,0.014489,0.121303,-0.575807,0.076359,-0.804923
20658,NaN,8.173162,-1.038635,-1.130440,-3.736162,-1.453193,-2.527027,0.441840,1.339401,2.815652,-0.598633,0.601318,-0.121338,0.081789,-0.009209,-0.011873,0.999876,0.002209,0.006697,0.014078,0.133395,-0.568996,0.083505,-0.807141
20659,NaN,8.411557,-0.991884,-1.182513,-3.943665,-1.807764,-2.443141,0.681870,1.301801,2.698744,-0.586182,0.614014,-0.133789,0.084159,-0.008742,-0.012404,0.999882,0.003409,0.006509,0.013493,0.145642,-0.561800,0.090106,-0.809352
20660,NaN,8.737968,-1.003311,-1.238272,-4.186509,-2.135986,-2.276318,0.895452,1.278454,2.578100,-0.559082,0.622559,-0.141846,0.087417,-0.008849,-0.012983,0.999886,0.004477,0.006392,0.012890,0.158013,-0.554742,0.094660,-0.811377
20661,NaN,9.184387,-1.043951,-1.240777,-4.430303,-2.492496,-1.993725,1.110160,1.235679,2.444494,-0.548828,0.637451,-0.158447,0.091883,-0.009245,-0.013029,0.999891,0.005551,0.006178,0.012222,0.170375,-0.547383,0.098630,-0.813398
20662,NaN,9.872369,-1.025679,-1.187470,-4.694213,-3.002565,-1.513988,1.304931,1.181377,2.305987,-0.530029,0.643799,-0.170654,0.098760,-0.009038,-0.012520,0.999895,0.006524,0.005907,0.011530,0.182740,-0.540265,0.100646,-0.815224
20663,NaN,10.631115,-0.859839,-1.129246,-4.955860,-3.696601,-1.048943,1.483812,1.133146,2.152852,-0.515381,0.645752,-0.189209,0.106328,-0.007367,-0.011953,0.999898,0.007419,0.005666,0.010764,0.194897,-0.532953,0.102077,-0.817042
20664,NaN,11.381767,-0.646630,-0.991538,-5.125295,-4.432246,-0.591731,1.649563,1.092318,1.984931,-0.502930,0.654297,-0.207520,0.113817,-0.005251,-0.010584,0.999902,0.008248,0.005461,0.009924,0.206841,-0.525810,0.101697,-0.818778
20665,NaN,11.990478,-0.350895,-0.724034,-5.105637,-5.176380,-0.244476,1.774736,1.057930,1.791742,-0.486084,0.658447,-0.219971,0.119889,-0.002367,-0.007899,0.999907,0.008873,0.005289,0.008958,0.218242,-0.518543,0.100769,-0.820566
20666,NaN,12.449700,0.108665,-0.674467,-5.172928,-5.992244,-0.179905,1.849483,1.048829,1.591085,-0.484375,0.664795,-0.230225,0.124445,0.002143,-0.007381,0.999912,0.009247,0.005244,0.007955,0.229034,-0.511368,0.098458,-0.822407
20667,NaN,12.850564,0.381088,-0.426511,-5.080649,-6.593277,-0.005791,1.904874,1.005482,1.500192,-0.471436,0.662842,-0.250488,0.128449,0.004819,-0.004868,0.999914,0.009524,0.005027,0.007501,0.239514,-0.504192,0.096044,-0.824135
20668,NaN,13.449545,0.844886,-0.299208,-5.097220,-7.449171,0.198210,1.903865,0.942387,1.304737,-0.460938,0.660645,-0.272949,0.134421,0.009358,-0.003539,0.999922,0.009519,0.004712,0.006524,0.249236,-0.497356,0.092625,-0.825796
20669,NaN,13.991155,1.225936,-0.213535,-5.139938,-8.193829,0.372603,1.881540,0.874629,1.122361,-0.450195,0.658447,-0.289307,0.139829,0.013067,-0.002627,0.999930,0.009407,0.004373,0.005612,0.258084,-0.490832,0.089067,-0.827372
20670,NaN,14.272782,1.413169,-0.128439,-5.137427,-8.617873,0.437325,1.809828,0.815574,0.927427,-0.446289,0.665039,-0.301514,0.142654,0.014808,-0.001734,0.999940,0.009049,0.004078,0.004637,0.266001,-0.484673,0.084919,-0.828929
20671,NaN,14.203578,1.528947,-0.095354,-5.064677,-8.782838,0.251989,1.707774,0.745385,0.744747,-0.435303,0.658691,-0.319824,0.141973,0.015829,-0.001349,0.999950,0.008539,0.003727,0.003724,0.272859,-0.479021,0.080865,-0.830390
20672,NaN,13.992933,1.746409,0.131440,-4.732214,-8.906314,0.043896,1.588749,0.670169,0.571086,-0.435303,0.654297,-0.325928,0.139882,0.017855,0.000986,0.999959,0.007944,0.003351,0.002855,0.278771,-0.473814,0.076563,-0.831820
20673,NaN,13.341268,1.577023,0.302539,-4.421489,-8.450200,-0.346323,1.463284,0.612220,0.386836,-0.428711,0.650146,-0.336182,0.133391,0.016008,0.002734,0.999967,0.007316,0.003061,0.001934,0.283571,-0.469169,0.072383,-0.833204
20674,NaN,12.357554,1.524588,0.584035,-3.845725,-7.869116,-0.943538,1.302604,0.511361,0.233257,-0.424561,0.647949,-0.344238,0.123572,0.015353,0.005624,0.999975,0.006513,0.002557,0.001166,0.287425,-0.465089,0.068242,-0.834519
20675,NaN,11.504118,1.539030,0.837092,-3.312540,-7.393684,-1.459572,1.123947,0.400503,0.091535,-0.424316,0.643799,-0.358398,0.115051,0.015396,0.008227,0.999982,0.005620,0.002003,0.000458,0.290253,-0.461909,0.064401,-0.835611
20676,NaN,10.802781,1.684747,1.147416,-2.737250,-7.080924,-1.861401,0.924085,0.273200,-0.058318,-0.422119,0.637451,-0.364502,0.108048,0.016763,0.011404,0.999988,0.004620,0.001366,-0.000292,0.292071,-0.459434,0.060817,-0.836610
20677,NaN,10.599668,1.831815,1.090325,-2.651417,-7.083560,-2.086732,0.678934,0.107566,-0.231882,-0.426025,0.631104,-0.370605,0.106024,0.018158,0.010908,0.999993,0.003395,0.000538,-0.001159,0.292606,-0.458232,0.057602,-0.837309
20678,NaN,10.857619,1.782917,0.794182,-3.028522,-7.203358,-2.025719,0.430944,-0.078216,-0.415275,-0.427979,0.628906,-0.370361,0.108610,0.017586,0.008022,0.999995,0.002155,-0.000391,-0.002076,0.291895,-0.458041,0.054748,-0.837853
20679,NaN,10.745475,1.369699,0.599835,-3.327851,-6.788570,-2.031851,0.248736,-0.185537,-0.599487,-0.436523,0.626953,-0.370361,0.107490,0.013367,0.006115,0.999994,0.001244,-0.000928,-0.002997,0.289986,-0.458808,0.052010,-0.838271
20680,NaN,10.084629,0.905252,0.624451,-3.253378,-5.987697,-2.297927,0.114270,-0.267801,-0.752904,-0.440674,0.626953,-0.368408,0.100871,0.008669,0.006385,0.999992,0.000571,-0.001339,-0.003765,0.287178,-0.459952,0.049431,-0.838767
20681,NaN,9.566342,0.865855,0.566233,-3.112128,-5.620300,-2.649492,-0.012044,-0.376952,-0.899328,-0.442383,0.616211,-0.362061,0.095690,0.008229,0.005842,0.999988,-0.000060,-0.001885,-0.004497,0.283452,-0.461974,0.046783,-0.839075
20682,NaN,9.352438,0.928026,0.381812,-3.154105,-5.515036,-2.876539,-0.145811,-0.507066,-1.041310,-0.463623,0.618408,-0.368408,0.093561,0.008796,0.004049,0.999983,-0.000729,-0.002535,-0.005207,0.278879,-0.464539,0.044285,-0.839327
20683,NaN,9.276279,0.933526,0.316619,-3.175125,-5.399276,-2.899931,-0.283562,-0.642433,-1.187957,-0.472168,0.616455,-0.356201,0.092805,0.008789,0.003452,0.999976,-0.001418,-0.003212,-0.005940,0.273351,-0.468098,0.041703,-0.839300
20684,NaN,9.246349,1.115189,0.394732,-3.025688,-5.420508,-2.858829,-0.458263,-0.775478,-1.320707,-0.480225,0.605713,-0.349854,0.092518,0.010551,0.004281,0.999968,-0.002291,-0.003877,-0.006603,0.266908,-0.472235,0.039488,-0.839163
20685,NaN,9.378792,1.253769,0.417097,-2.999371,-5.480731,-2.694334,-0.636978,-0.934887,-1.463865,-0.494629,0.597412,-0.343506,0.093856,0.011865,0.004571,0.999957,-0.003185,-0.004674,-0.007319,0.259410,-0.477498,0.037317,-0.838635
20686,NaN,9.897308,1.039178,0.551326,-3.176160,-5.379529,-2.046712,-0.780539,-1.096177,-1.609395,-0.511963,0.603760,-0.335693,0.099020,0.009618,0.006017,0.999945,-0.003903,-0.005481,-0.008047,0.251007,-0.483377,0.035338,-0.837910
20687,NaN,10.352770,0.806953,0.726637,-3.278051,-5.188967,-1.405293,-0.879018,-1.211724,-1.754992,-0.526367,0.593262,-0.323242,0.103547,0.007195,0.007861,0.999933,-0.004395,-0.006058,-0.008775,0.241696,-0.490059,0.033096,-0.836857
20688,NaN,10.615569,0.616264,0.897865,-3.276369,-4.921509,-0.929228,-0.921331,-1.296563,-1.893176,-0.538818,0.584717,-0.308838,0.106147,0.005201,0.009641,0.999924,-0.004607,-0.006483,-0.009466,0.231731,-0.496870,0.030758,-0.835748
20689,NaN,10.676176,0.575020,1.011401,-3.170299,-4.682902,-0.683139,-0.940047,-1.374111,-2.041359,-0.559814,0.582520,-0.296631,0.106741,0.004710,0.010824,0.999913,-0.004700,-0.006870,-0.010206,0.221017,-0.504197,0.027845,-0.834363
20690,NaN,10.647776,0.738182,1.119828,-2.959715,-4.579806,-0.569660,-0.962793,-1.467133,-2.188988,-0.570068,0.574219,-0.284180,0.106465,0.006273,0.011947,0.999902,-0.004814,-0.007335,-0.010945,0.209659,-0.511633,0.024734,-0.832865
20691,NaN,10.565413,0.810700,1.265257,-2.715249,-4.351585,-0.454772,-1.022391,-1.571266,-2.334807,-0.593018,0.563477,-0.269775,0.105636,0.006941,0.013445,0.999888,-0.005112,-0.007856,-0.011674,0.197443,-0.519701,0.021183,-0.830951
20692,NaN,10.307390,0.762469,1.435536,-2.414177,-3.942062,-0.458046,-1.107256,-1.665286,-2.477500,-0.611572,0.546631,-0.251221,0.103034,0.006431,0.015176,0.999873,-0.005536,-0.008326,-0.012387,0.184442,-0.527906,0.017714,-0.828844
20693,NaN,9.911834,0.451154,1.574183,-2.147824,-3.244359,-0.550938,-1.210322,-1.736234,-2.587925,-0.630127,0.535889,-0.232666,0.099025,0.003328,0.016579,0.999860,-0.006051,-0.008681,-0.012939,0.170593,-0.536586,0.014099,-0.826302
20694,NaN,9.337474,0.136103,1.640719,-1.869071,-2.514293,-0.864109,-1.295994,-1.790647,-2.692086,-0.653076,0.523193,-0.214111,0.093231,0.000215,0.017238,0.999848,-0.006480,-0.008953,-0.013460,0.156112,-0.545195,0.010716,-0.823576
20695,NaN,8.715776,-0.032452,1.698830,-1.530185,-1.928543,-1.281282,-1.373583,-1.839408,-2.773425,-0.669678,0.512695,-0.195801,0.086982,-0.001411,0.017796,0.999838,-0.006868,-0.009197,-0.013866,0.140952,-0.554103,0.007180,-0.820397
20696,NaN,8.103578,-0.169901,1.727785,-1.214058,-1.412005,-1.737492,-1.462526,-1.879221,-2.842674,-0.686035,0.493652,-0.181152,0.080835,-0.002719,0.018055,0.999828,-0.007312,-0.009396,-0.014213,0.125301,-0.562846,0.003994,-0.816999
20697,NaN,7.478726,-0.311532,1.711134,-0.932029,-0.923321,-2.247624,-1.532532,-1.922407,-2.889937,-0.708740,0.478760,-0.154297,0.074564,-0.004059,0.017857,0.999820,-0.007662,-0.009611,-0.014449,0.109129,-0.571798,0.000726,-0.813103
20698,NaN,6.994758,-0.422186,1.639250,-0.745211,-0.532854,-2.674885,-1.588304,-1.958146,-2.920225,-0.720703,0.455322,-0.135498,0.069712,-0.005107,0.017114,0.999814,-0.007941,-0.009790,-0.014600,0.092721,-0.580528,-0.002219,-0.808941
20699,NaN,6.694013,-0.530903,1.601473,-0.580062,-0.189655,-2.936665,-1.623632,-1.993046,-2.920087,-0.737061,0.442627,-0.114990,0.066690,-0.006150,0.016728,0.999811,-0.008118,-0.009965,-0.014600,0.076074,-0.589366,-0.005228,-0.804259
20700,NaN,6.390607,-0.575106,1.583665,-0.388328,0.069132,-3.215784,-1.648546,-2.000451,-2.907069,-0.753174,0.417236,-0.092041,0.063652,-0.006543,0.016526,0.999810,-0.008242,-0.010002,-0.014534,0.059477,-0.597848,-0.007910,-0.799361
20701,NaN,6.220678,-0.631351,1.586712,-0.214142,0.312920,-3.373306,-1.656059,-2.014088,-2.879979,-0.771729,0.402344,-0.069580,0.061944,-0.007072,0.016548,0.999811,-0.008280,-0.010070,-0.014399,0.042853,-0.606309,-0.010667,-0.794002
20702,NaN,6.178047,-0.597647,1.569555,-0.085950,0.443311,-3.426653,-1.654015,-2.025537,-2.854148,-0.783691,0.383301,-0.050781,0.061525,-0.006722,0.016373,0.999813,-0.008270,-0.010127,-0.014270,0.026409,-0.614437,-0.013169,-0.788414
20703,NaN,6.311983,-0.567816,1.581643,0.032218,0.572459,-3.306330,-1.643358,-2.038443,-2.822505,-0.793701,0.366211,-0.021973,0.062867,-0.006433,0.016509,0.999815,-0.008216,-0.010192,-0.014112,0.009998,-0.622519,-0.015764,-0.782382
20704,NaN,6.661530,-0.702375,1.619946,0.130810,0.869821,-2.977799,-1.651253,-2.032998,-2.784300,-0.801270,0.338623,-0.005127,0.066341,-0.007811,0.016937,0.999817,-0.008256,-0.010164,-0.013921,-0.006180,-0.630219,-0.018054,-0.776182
20705,NaN,7.056717,-0.927363,1.620401,0.208311,1.274042,-2.628564,-1.624159,-2.040465,-2.755912,-0.811035,0.317383,0.011475,0.070261,-0.010107,0.017002,0.999820,-0.008120,-0.010202,-0.013779,-0.022259,-0.637842,-0.020484,-0.769573
20706,NaN,7.556904,-1.042501,1.677015,0.346636,1.588940,-2.173597,-1.592748,-2.034912,-2.717715,-0.821045,0.293945,0.036377,0.075243,-0.011311,0.017625,0.999824,-0.007963,-0.010174,-0.013588,-0.037985,-0.645103,-0.022777,-0.762811
20707,NaN,8.278271,-1.192240,1.800384,0.546750,1.979702,-1.507990,-1.521270,-2.016608,-2.693761,-0.830811,0.270508,0.057373,0.082426,-0.012893,0.018932,0.999830,-0.007606,-0.010082,-0.013468,-0.053426,-0.652169,-0.025422,-0.755761
20708,NaN,8.961289,-1.275480,1.998810,0.856666,2.320742,-0.879615,-1.419595,-1.980994,-2.656019,-0.840576,0.251465,0.071777,0.089230,-0.013795,0.020969,0.999838,-0.007098,-0.009904,-0.013279,-0.068319,-0.658831,-0.028170,-0.748652
20709,NaN,9.785674,-1.238981,2.185150,1.161467,2.589882,-0.117093,-1.320304,-1.926622,-2.634437,-0.840088,0.232422,0.096680,0.097466,-0.013527,0.022878,0.999845,-0.006601,-0.009633,-0.013172,-0.082865,-0.665184,-0.031336,-0.741405
20710,NaN,10.517313,-1.233288,2.332463,1.466310,2.903062,0.530820,-1.214060,-1.870631,-2.610665,-0.843262,0.206787,0.115723,0.104777,-0.013556,0.024386,0.999853,-0.006070,-0.009353,-0.013053,-0.096847,-0.671107,-0.034722,-0.734187
20711,NaN,11.205204,-1.420177,2.373750,1.715986,3.431606,1.072044,-1.100558,-1.808337,-2.583921,-0.851318,0.189697,0.130127,0.111636,-0.015511,0.024831,0.999861,-0.005503,-0.009041,-0.012919,-0.110360,-0.676741,-0.038524,-0.726882
20712,NaN,11.849101,-1.551188,2.379917,1.949756,3.921288,1.557547,-0.972910,-1.735965,-2.552673,-0.852539,0.166504,0.146973,0.118068,-0.016901,0.024905,0.999869,-0.004864,-0.008679,-0.012763,-0.123235,-0.681933,-0.042646,-0.719696
20713,NaN,12.345891,-1.649821,2.344067,2.162158,4.369762,1.885878,-0.855716,-1.647680,-2.501319,-0.855957,0.138672,0.159668,0.123041,-0.017935,0.024530,0.999879,-0.004278,-0.008238,-0.012506,-0.135479,-0.686764,-0.047101,-0.712588
20714,NaN,12.514270,-1.796048,2.205771,2.290294,4.801020,1.866003,-0.735055,-1.561737,-2.445009,-0.850830,0.117432,0.168213,0.124734,-0.019403,0.023102,0.999888,-0.003675,-0.007808,-0.012225,-0.147054,-0.691178,-0.051798,-0.705667
20715,NaN,12.458211,-1.700659,2.071580,2.384070,4.938243,1.689934,-0.654381,-1.495903,-2.382294,-0.852295,0.098389,0.184814,0.124208,-0.018418,0.021704,0.999896,-0.003272,-0.007479,-0.011911,-0.158054,-0.695282,-0.056685,-0.698848
20716,NaN,13.070210,-1.552518,1.853629,2.393147,5.230676,2.169769,-0.601000,-1.458180,-2.239208,-0.849609,0.083496,0.197510,0.130378,-0.016928,0.019537,0.999906,-0.003005,-0.007291,-0.011196,-0.168353,-0.699203,-0.061196,-0.692119
20717,NaN,13.520247,-1.416821,1.952995,2.721867,5.442700,2.498983,-0.562494,-1.419119,-2.114054,-0.855469,0.064209,0.208008,0.134900,-0.015538,0.020530,0.999915,-0.002812,-0.007095,-0.010570,-0.177915,-0.702936,-0.065502,-0.685520
20718,NaN,14.000285,-1.146115,2.115898,3.102248,5.526018,2.900626,-0.526462,-1.394270,-1.970884,-0.848389,0.042969,0.224854,0.139729,-0.012782,0.022166,0.999924,-0.002632,-0.006971,-0.009854,-0.186951,-0.706547,-0.069363,-0.678991
20719,NaN,14.760913,-0.699142,2.387860,3.587192,5.520460,3.630636,-0.525158,-1.354784,-1.781439,-0.849854,0.026123,0.229248,0.147373,-0.008240,0.024898,0.999934,-0.002626,-0.006774,-0.008907,-0.195177,-0.709988,-0.072628,-0.672717
20720,NaN,15.152542,-0.338196,2.800330,4.197855,5.424471,3.989540,-0.590970,-1.265744,-1.581666,-0.847412,0.015381,0.237549,0.151311,-0.004495,0.028974,0.999944,-0.002955,-0.006329,-0.007908,-0.203031,-0.713054,-0.074999,-0.666863
20721,NaN,14.827218,-0.021972,3.105284,4.617536,5.089056,3.687843,-0.721006,-1.156420,-1.358321,-0.844727,0.000488,0.250000,0.148084,-0.001112,0.031912,0.999954,-0.003605,-0.005782,-0.006791,-0.210405,-0.715582,-0.076275,-0.661706
20722,NaN,14.129218,0.099361,3.345571,4.933207,4.753217,2.989834,-0.889227,-1.071309,-1.121812,-0.835938,-0.008057,0.258301,0.141113,0.000353,0.034209,0.999960,-0.004446,-0.005356,-0.005609,-0.217685,-0.717734,-0.076200,-0.657012
20723,NaN,13.538886,0.106121,3.420323,5.082267,4.545852,2.373981,-1.077118,-1.014747,-0.866424,-0.842041,-0.016602,0.262695,0.135216,0.000662,0.034885,0.999963,-0.005386,-0.005074,-0.004332,-0.224607,-0.719507,-0.074666,-0.652906
20725,NaN,12.839562,0.013435,3.327975,10.205203,8.718072,13.068472,-1.359762,-0.944381,-0.511217,-0.833252,-0.029297,0.273193,0.256147,-0.000115,0.068980,0.999850,-0.013597,-0.009443,-0.005112,-0.238386,-0.722129,-0.067318,-0.645887
20726,NaN,12.013025,-0.497874,3.001277,4.924796,4.498414,0.631347,-1.511993,-0.844171,-0.138464,-0.835205,-0.033691,0.285400,0.119999,-0.004832,0.030556,0.999962,-0.007560,-0.004221,-0.000692,-0.244338,-0.722912,-0.061920,-0.643322
20727,NaN,11.609900,-0.682122,2.617039,4.619971,4.528486,0.199880,-1.523991,-0.801276,0.084426,-0.832764,-0.037842,0.289551,0.115996,-0.006570,0.026686,0.999963,-0.007620,-0.004006,0.000422,-0.249801,-0.723626,-0.055715,-0.640984
20728,NaN,11.971858,-0.518919,2.036672,4.168668,4.612145,0.632013,-1.484318,-0.811292,0.270257,-0.828613,-0.038086,0.293701,0.119641,-0.004874,0.020889,0.999963,-0.007421,-0.004056,0.001351,-0.254356,-0.724392,-0.048937,-0.638877
20729,NaN,13.382855,-0.756482,1.552251,4.108916,5.425452,1.839014,-1.389560,-0.831934,0.391401,-0.833008,-0.035889,0.299805,0.133777,-0.007192,0.016130,0.999965,-0.006948,-0.004160,0.001957,-0.258320,-0.725352,-0.042005,-0.636687
20730,NaN,14.560043,-1.394171,1.500803,4.542944,6.337273,2.652852,-1.190488,-0.765883,0.454105,-0.828613,-0.035889,0.310059,0.145572,-0.013519,0.015647,0.999972,-0.005952,-0.003829,0.002271,-0.261240,-0.726305,-0.035499,-0.634803
20731,NaN,14.291102,-2.117961,2.088665,5.329208,6.547726,2.095682,-0.860468,-0.564165,0.479745,-0.831055,-0.029541,0.309814,0.142901,-0.020746,0.021380,0.999984,-0.004302,-0.002821,0.002399,-0.262925,-0.727044,-0.030271,-0.633531
20732,NaN,12.921169,-2.859407,2.937519,6.118729,6.279222,0.526251,-0.434745,-0.333156,0.468568,-0.828857,-0.029541,0.312012,0.129229,-0.028227,0.029652,0.999994,-0.002174,-0.001666,0.002343,-0.262965,-0.727571,-0.026656,-0.633071
20733,NaN,11.649334,-3.442030,3.350156,6.441892,6.098848,-0.863726,0.019891,-0.150045,0.464515,-0.831299,-0.018799,0.305664,0.116548,-0.034153,0.033586,0.999997,0.000099,-0.000750,0.002323,-0.261428,-0.728130,-0.024815,-0.633140
20734,NaN,11.338954,-3.915340,3.260734,6.424070,6.388141,-1.300522,0.492311,-0.020639,0.466999,-0.821045,-0.014648,0.311768,0.113477,-0.038969,0.032523,0.999994,0.002462,-0.000103,0.002335,-0.258044,-0.728860,-0.024537,-0.633699
20735,NaN,11.591137,-4.153479,2.893777,6.161179,6.803272,-1.110112,0.953381,0.108138,0.477142,-0.821045,-0.010498,0.305664,0.116026,-0.041395,0.028678,0.999986,0.004767,0.000541,0.002386,-0.253028,-0.729793,-0.025941,-0.634591
20736,NaN,12.128844,-4.200834,2.354895,5.699833,7.224501,-0.559629,1.399063,0.256666,0.504117,-0.819336,0.002197,0.303223,0.121424,-0.041865,0.023100,0.999972,0.006995,0.001283,0.002521,-0.246153,-0.730753,-0.028746,-0.636068
20737,NaN,12.943423,-4.149298,1.663314,5.078698,7.706518,0.303153,1.819091,0.429433,0.560492,-0.823975,0.012939,0.296875,0.129585,-0.041277,0.015979,0.999952,0.009095,0.002147,0.002802,-0.237637,-0.731670,-0.032993,-0.638044
20738,NaN,14.083958,-3.693672,1.035751,4.423097,7.899770,1.637246,2.216119,0.599427,0.636037,-0.824463,0.027832,0.288574,0.140986,-0.036597,0.009528,0.999929,0.011080,0.002997,0.003180,-0.227239,-0.732395,-0.038318,-0.640697
20739,NaN,15.315912,-2.919228,0.429373,3.690100,7.793584,3.184334,2.577260,0.792216,0.718488,-0.829102,0.036377,0.280273,0.153277,-0.028689,0.003315,0.999903,0.012886,0.003961,0.003592,-0.215313,-0.732849,-0.044822,-0.643866
20740,NaN,16.344933,-2.177474,-0.056423,3.006268,7.553071,4.533357,2.872148,1.021644,0.804852,-0.835938,0.051270,0.267578,0.163528,-0.021098,-0.001706,0.999876,0.014360,0.005108,0.004024,-0.201783,-0.732686,-0.052075,-0.647876
20741,NaN,16.773271,-1.513187,-0.573211,2.184978,7.130019,5.298291,3.031411,1.270516,0.902103,-0.832275,0.068359,0.257080,0.167757,-0.014275,-0.007018,0.999855,0.015156,0.006352,0.004510,-0.187382,-0.731755,-0.059846,-0.652565
20742,NaN,16.724661,-0.877759,-1.114664,1.251012,6.507997,5.608017,3.060823,1.521197,1.012504,-0.834961,0.083252,0.236328,0.167196,-0.007746,-0.012542,0.999841,0.015303,0.007606,0.005062,-0.172226,-0.729785,-0.067397,-0.658186
20743,NaN,16.244971,-0.464782,-1.395199,0.548973,5.854492,5.401571,2.982388,1.735832,1.137627,-0.835693,0.104492,0.215576,0.162342,-0.003502,-0.015419,0.999835,0.014911,0.008679,0.005688,-0.156972,-0.726903,-0.074526,-0.664393
20744,NaN,15.620503,-0.074968,-1.504467,0.009655,5.108163,5.025209,2.847792,1.916486,1.282210,-0.833740,0.115234,0.198975,0.156051,0.000480,-0.016540,0.999832,0.014238,0.009582,0.006411,-0.141449,-0.723062,-0.080663,-0.671317
20745,NaN,14.790453,0.308204,-1.460465,-0.365613,4.267779,4.421942,2.661411,2.080609,1.485027,-0.838867,0.136475,0.176025,0.147713,0.004387,-0.016089,0.999830,0.013306,0.010402,0.007425,-0.125965,-0.718435,-0.085667,-0.678708
20746,NaN,13.812504,0.639410,-1.364878,-0.660985,3.409080,3.640387,2.435748,2.205855,1.694645,-0.833008,0.153564,0.153320,0.137902,0.007741,-0.015082,0.999829,0.012178,0.011029,0.008473,-0.110325,-0.713020,-0.089061,-0.686658
20747,NaN,12.691433,1.028526,-1.221899,-0.861592,2.458984,2.710181,2.187679,2.304107,1.893271,-0.829590,0.174805,0.124512,0.126657,0.011629,-0.013557,0.999829,0.010938,0.011520,0.009466,-0.094966,-0.707036,-0.091060,-0.694831
20748,NaN,11.510972,1.430712,-0.924704,-0.848225,1.490596,1.696108,1.900468,2.351900,2.095895,-0.826172,0.196045,0.103516,0.114832,0.015607,-0.010454,0.999831,0.009502,0.011759,0.010479,-0.079708,-0.700533,-0.091195,-0.703267
20749,NaN,10.526548,1.821971,-0.558491,-0.697060,0.615796,0.844005,1.590253,2.349494,2.310674,-0.822510,0.219482,0.074463,0.104971,0.019484,-0.006668,0.999833,0.007951,0.011747,0.011553,-0.064913,-0.693840,-0.089596,-0.711579
20750,NaN,9.730765,2.012681,-0.086057,-0.397768,0.007977,0.116018,1.244069,2.308249,2.519409,-0.812744,0.236572,0.051758,0.097026,0.021360,-0.001851,0.999835,0.006220,0.011541,0.012596,-0.050424,-0.686974,-0.085861,-0.719828
20751,NaN,9.147505,1.927246,0.260341,-0.206289,-0.262090,-0.467127,0.895776,2.246686,2.712596,-0.804932,0.257812,0.033203,0.091225,0.020502,0.001668,0.999835,0.004479,0.011233,0.013562,-0.036595,-0.680163,-0.080302,-0.727730
20752,NaN,8.828668,1.755254,0.638573,0.013732,-0.387093,-0.797374,0.575544,2.187224,2.890057,-0.791016,0.283203,0.012207,0.088084,0.018810,0.005475,0.999832,0.002878,0.010936,0.014449,-0.023079,-0.673281,-0.072807,-0.735431
20753,NaN,8.577184,1.494340,1.048308,0.266734,-0.401766,-1.057162,0.279139,2.128613,3.056402,-0.781250,0.308838,-0.006592,0.085636,0.016239,0.009593,0.999826,0.001396,0.010642,0.015281,-0.010105,-0.666479,-0.063760,-0.742724
20754,NaN,8.493271,1.197687,1.292269,0.339001,-0.379869,-1.154052,-0.003176,2.099998,3.214046,-0.767090,0.330078,-0.025146,0.084855,0.013341,0.012031,0.999816,-0.000016,0.010499,0.016069,0.002644,-0.659505,-0.052993,-0.749826
20755,NaN,8.375977,0.739458,1.419425,0.292395,-0.213303,-1.293396,-0.215381,2.066362,3.345373,-0.750977,0.353271,-0.043945,0.083761,0.008810,0.013320,0.999806,-0.001077,0.010331,0.016726,0.015040,-0.652516,-0.041099,-0.756510
20756,NaN,8.308439,0.272980,1.425383,0.121381,-0.054214,-1.380063,-0.375227,2.029165,3.459712,-0.732910,0.380859,-0.060791,0.083159,0.004194,0.013403,0.999797,-0.001876,0.010145,0.017297,0.027463,-0.645368,-0.028102,-0.762861
20757,NaN,8.351609,-0.301106,1.385091,-0.116190,0.204128,-1.345496,-0.495718,1.988894,3.542324,-0.708252,0.402100,-0.069092,0.083684,-0.001497,0.013024,0.999791,-0.002478,0.009944,0.017710,0.039666,-0.638209,-0.014484,-0.768704
20758,NaN,8.485422,-0.766120,1.063841,-0.637195,0.315731,-1.256697,-0.492691,1.946044,3.600353,-0.687744,0.425293,-0.081787,0.085072,-0.006106,0.009828,0.999788,-0.002463,0.009730,0.018000,0.052207,-0.630871,-0.000591,-0.774129
20759,NaN,8.692047,-1.309228,0.761479,-1.160473,0.490967,-1.080736,-0.426750,1.913288,3.617391,-0.669434,0.446533,-0.094238,0.087206,-0.011502,0.006807,0.999788,-0.002134,0.009566,0.018086,0.064875,-0.623450,0.012988,-0.779059
20760,NaN,8.898790,-1.627825,0.329265,-1.797589,0.418908,-0.951044,-0.307005,1.883792,3.603183,-0.640625,0.471924,-0.111084,0.089288,-0.014667,0.002476,0.999792,-0.001535,0.009418,0.018015,0.077953,-0.615769,0.026142,-0.783625
20761,NaN,9.032306,-1.752629,-0.112881,-2.411692,0.161191,-0.934983,-0.142008,1.844188,3.551767,-0.615967,0.489014,-0.121338,0.090600,-0.015920,-0.001952,0.999800,-0.000710,0.009220,0.017758,0.091193,-0.608006,0.038365,-0.787744
20762,NaN,9.094091,-1.807565,-0.578712,-3.023900,-0.155217,-1.030560,0.059376,1.793807,3.487819,-0.593262,0.510010,-0.131836,0.091181,-0.016485,-0.006609,0.999808,0.000297,0.008968,0.017438,0.104875,-0.600054,0.049659,-0.791499
20763,NaN,9.339631,-1.804883,-0.963560,-3.594358,-0.560770,-0.971316,0.299811,1.736799,3.393513,-0.568359,0.522705,-0.148438,0.093596,-0.016447,-0.010473,0.999817,0.001499,0.008683,0.016967,0.118772,-0.592066,0.059573,-0.794860
20764,NaN,9.541192,-1.723457,-1.263566,-4.060563,-1.033888,-0.979044,0.550422,1.671181,3.256035,-0.547852,0.541748,-0.162842,0.095565,-0.015643,-0.013478,0.999829,0.002752,0.008355,0.016279,0.132936,-0.583961,0.068119,-0.797921
20765,NaN,9.735219,-1.425702,-1.474419,-4.402162,-1.701936,-1.055124,0.790542,1.607022,3.085488,-0.522461,0.545898,-0.171143,0.097433,-0.012694,-0.015579,0.999841,0.003953,0.008035,0.015427,0.147004,-0.575874,0.075049,-0.800704
20766,NaN,10.131248,-1.306023,-1.612985,-4.750570,-2.260416,-0.909784,1.026716,1.561087,2.908171,-0.499756,0.560791,-0.189697,0.101357,-0.011501,-0.016983,0.999851,0.005133,0.007805,0.014540,0.161090,-0.567638,0.080557,-0.803335
20767,NaN,10.330486,-1.464375,-1.606499,-4.948200,-2.483874,-0.824943,1.271027,1.541853,2.736327,-0.478760,0.567139,-0.201904,0.103363,-0.013124,-0.016948,0.999856,0.006355,0.007709,0.013681,0.175063,-0.559231,0.084466,-0.805903
20768,NaN,10.543034,-1.279458,-1.418634,-4.920345,-3.014361,-0.784986,1.487058,1.517638,2.520241,-0.453613,0.569092,-0.216064,0.105467,-0.011356,-0.015075,0.999864,0.007435,0.007588,0.012601,0.188787,-0.550633,0.086942,-0.808457
20769,NaN,10.884504,-0.968192,-1.199038,-4.871500,-3.690056,-0.675354,1.652532,1.486802,2.282449,-0.436523,0.569092,-0.234375,0.108852,-0.008336,-0.012872,0.999873,0.008262,0.007434,0.011412,0.201912,-0.541995,0.087956,-0.811010
20770,NaN,11.099787,-0.775278,-0.961211,-4.784209,-4.185005,-0.630106,1.759482,1.466384,2.039338,-0.415527,0.569092,-0.250732,0.110994,-0.006531,-0.010487,0.999882,0.008797,0.007332,0.010196,0.214336,-0.533286,0.087916,-0.813595
20771,NaN,10.936383,-0.786125,-0.702330,-4.598963,-4.300013,-0.808857,1.829681,1.457575,1.801789,-0.398438,0.566895,-0.267090,0.109373,-0.006806,-0.007886,0.999891,0.009148,0.007288,0.009009,0.225900,-0.524539,0.086847,-0.816263
20772,NaN,10.688181,-0.741593,-0.496406,-4.416415,-4.396425,-1.083693,1.837818,1.439946,1.575846,-0.381348,0.562744,-0.275146,0.106896,-0.006523,-0.005796,0.999901,0.009189,0.007199,0.007879,0.236540,-0.515839,0.085187,-0.818964
20773,NaN,10.471315,-0.680692,-0.315270,-4.256952,-4.491019,-1.332339,1.804343,1.383803,1.389091,-0.368652,0.562744,-0.291260,0.104731,-0.006046,-0.003934,0.999911,0.009021,0.006919,0.006945,0.246292,-0.507394,0.083028,-0.821582
20774,NaN,10.497343,-0.571719,-0.168835,-4.192111,-4.724643,-1.407314,1.728355,1.293816,1.231205,-0.351562,0.556152,-0.301270,0.104992,-0.005052,-0.002413,0.999923,0.008642,0.006469,0.006156,0.255197,-0.499405,0.080719,-0.823986
20775,NaN,10.620536,-0.357925,-0.066839,-4.155642,-5.083668,-1.457286,1.630490,1.180316,1.100708,-0.340820,0.554199,-0.311523,0.106216,-0.002986,-0.001321,0.999934,0.008152,0.005901,0.005503,0.263331,-0.491978,0.078267,-0.826129
20776,NaN,11.096027,-0.150513,0.107388,-4.179828,-5.593268,-1.187241,1.512180,1.052382,0.949972,-0.330078,0.547607,-0.323730,0.110969,-0.000983,0.000481,0.999946,0.007561,0.005262,0.004750,0.270552,-0.485260,0.075810,-0.827996
20777,NaN,11.705559,0.476692,0.027548,-4.301690,-6.553460,-1.106720,1.361488,0.966393,0.892913,-0.317139,0.545654,-0.329590,0.117032,0.005290,-0.000255,0.999955,0.006807,0.004832,0.004464,0.277194,-0.479051,0.073661,-0.829607
20778,NaN,12.701168,0.645823,0.194569,-4.525928,-7.297427,-0.429910,1.245803,0.840690,0.808677,-0.308594,0.537109,-0.335693,0.126991,0.006962,0.001454,0.999964,0.006229,0.004203,0.004043,0.283200,-0.473556,0.071651,-0.830908
20779,NaN,13.576959,0.992745,0.154533,-4.799068,-8.155222,-0.024780,1.135036,0.747652,0.701692,-0.297607,0.528564,-0.349854,0.135738,0.010397,0.001096,0.999971,0.005675,0.003738,0.003508,0.288548,-0.468571,0.069670,-0.832062
20780,NaN,14.117005,1.093663,0.037595,-5.097355,-8.633492,0.185611,1.051034,0.667705,0.589456,-0.293457,0.530762,-0.351807,0.141137,0.011352,-0.000036,0.999976,0.005255,0.003338,0.002947,0.293192,-0.464113,0.067682,-0.833100
20781,NaN,14.362999,1.137522,-0.021250,-5.254013,-8.886770,0.237682,0.984019,0.608855,0.481214,-0.284912,0.524170,-0.359863,0.143601,0.011723,-0.000593,0.999980,0.004920,0.003044,0.002406,0.297290,-0.459957,0.065608,-0.834119
20782,NaN,14.115303,1.249411,-0.047421,-5.155204,-8.901693,-0.066498,0.892410,0.543959,0.364326,-0.286865,0.520020,-0.361816,0.141128,0.012754,-0.000802,0.999985,0.004462,0.002720,0.001822,0.300628,-0.456308,0.063558,-0.835085
20783,NaN,13.502975,1.342068,-0.009959,-4.863092,-8.670498,-0.576667,0.774403,0.452548,0.251168,-0.280029,0.511475,-0.369873,0.135012,0.013591,-0.000353,0.999989,0.003872,0.002263,0.001256,0.303318,-0.453163,0.061593,-0.835971
20784,NaN,12.884976,1.412710,0.043323,-4.557810,-8.395841,-1.051617,0.613417,0.317341,0.139725,-0.275635,0.507324,-0.371826,0.128840,0.014216,0.000272,0.999994,0.003067,0.001587,0.000699,0.305124,-0.450953,0.059838,-0.836636
20785,NaN,12.719854,1.673561,0.046317,-4.379888,-8.524166,-1.283162,0.382698,0.115384,0.021244,-0.275879,0.509277,-0.371826,0.127197,0.016748,0.000422,0.999998,0.001913,0.000577,0.000106,0.306062,-0.449873,0.058477,-0.836971
20786,NaN,13.009417,1.682149,-0.111595,-4.617307,-8.715763,-1.163820,0.137678,-0.115143,-0.112978,-0.267090,0.502930,-0.373779,0.130104,0.016749,-0.001030,0.999999,0.000688,-0.000576,-0.000565,0.305847,-0.450285,0.057466,-0.836898
20787,NaN,13.070669,1.436936,-0.279765,-4.876756,-8.560374,-1.099339,-0.077517,-0.326243,-0.256480,-0.269287,0.500977,-0.371582,0.130729,0.014201,-0.002590,0.999998,-0.000388,-0.001631,-0.001282,0.304714,-0.451836,0.056730,-0.836526
20788,NaN,12.517106,0.997968,-0.048836,-4.650695,-7.809836,-1.149360,-0.200655,-0.501733,-0.415704,-0.281982,0.505127,-0.365723,0.125192,0.009719,-0.000184,0.999994,-0.001003,-0.002509,-0.002079,0.302560,-0.454479,0.055848,-0.835935
20789,NaN,11.878815,0.606062,0.484118,-4.120613,-6.981356,-1.095562,-0.257379,-0.672962,-0.564978,-0.285889,0.494629,-0.357178,0.118787,0.005732,0.005233,0.999990,-0.001287,-0.003365,-0.002825,0.299820,-0.457829,0.054637,-0.835174
20790,NaN,11.566471,0.486347,1.111141,-3.510318,-6.516569,-0.842455,-0.236473,-0.844046,-0.731245,-0.288086,0.498779,-0.357422,0.115633,0.004454,0.011594,0.999984,-0.001182,-0.004220,-0.003656,0.296334,-0.462036,0.052657,-0.834228
20791,NaN,11.372224,0.559916,1.850268,-2.761316,-6.235220,-0.508937,-0.153261,-0.977353,-0.910362,-0.294434,0.498779,-0.353271,0.113654,0.005096,0.019054,0.999977,-0.000766,-0.004887,-0.004552,0.292454,-0.466564,0.049759,-0.833254
20792,NaN,10.877464,0.675482,2.623649,-1.840683,-5.796160,-0.396046,-0.033051,-1.064383,-1.092976,-0.306885,0.492432,-0.349121,0.108668,0.006165,0.026814,0.999971,-0.000165,-0.005322,-0.005465,0.287952,-0.471449,0.045753,-0.832302
20793,NaN,10.442030,0.921559,3.272726,-0.988103,-5.507603,-0.363705,0.083382,-1.123507,-1.247661,-0.313232,0.486084,-0.346924,0.104289,0.008551,0.033317,0.999965,0.000417,-0.005617,-0.006238,0.283224,-0.476269,0.040861,-0.831434
20794,NaN,10.206395,0.946758,3.835595,-0.377964,-5.136323,-0.156038,0.193026,-1.163947,-1.369788,-0.327637,0.473389,-0.340820,0.101900,0.008732,0.038958,0.999959,0.000965,-0.005820,-0.006849,0.278082,-0.481240,0.035100,-0.830570
20795,NaN,10.152595,0.844004,4.080686,-0.154059,-4.799479,0.055302,0.304374,-1.187270,-1.475866,-0.338135,0.471436,-0.336670,0.101340,0.007629,0.041421,0.999954,0.001522,-0.005936,-0.007379,0.272901,-0.485980,0.028648,-0.829776
20796,NaN,10.184817,0.834354,4.114988,-0.095761,-4.606868,0.193473,0.445003,-1.216083,-1.568111,-0.346191,0.465088,-0.340576,0.101656,0.007453,0.041786,0.999948,0.002225,-0.006080,-0.007840,0.267501,-0.490762,0.021273,-0.828941
20797,NaN,9.959920,1.052521,3.803309,-0.135063,-4.561388,-0.120204,0.531537,-1.221501,-1.640230,-0.358643,0.456543,-0.336426,0.099446,0.009607,0.038667,0.999944,0.002658,-0.006107,-0.008201,0.262142,-0.495257,0.013426,-0.828143
20798,NaN,9.588655,1.394047,3.355301,-0.184990,-4.595236,-0.648125,0.532679,-1.246193,-1.700246,-0.368896,0.446045,-0.334229,0.095788,0.013035,0.034186,0.999941,0.002663,-0.006231,-0.008501,0.256352,-0.499946,0.005310,-0.827230
20799,NaN,9.304630,1.762723,2.715995,-0.420114,-4.761222,-1.198147,0.427313,-1.308233,-1.749968,-0.383301,0.435303,-0.334229,0.093015,0.016754,0.027805,0.999938,0.002137,-0.006541,-0.008750,0.250221,-0.504822,-0.002493,-0.826159
20800,NaN,9.058494,2.005697,1.998753,-0.789414,-4.871514,-1.706175,0.245118,-1.377759,-1.806260,-0.395996,0.428955,-0.321777,0.090620,0.019214,0.020636,0.999935,0.001226,-0.006889,-0.009031,0.243205,-0.510291,-0.009864,-0.824838
20801,NaN,8.853633,1.952906,1.356130,-1.239442,-4.738170,-2.063525,0.018692,-1.468207,-1.876436,-0.404053,0.418457,-0.315674,0.088612,0.018697,0.014213,0.999929,0.000093,-0.007341,-0.009382,0.235444,-0.516192,-0.016498,-0.823310
20802,NaN,8.642345,1.589628,0.810351,-1.733872,-4.304013,-2.306753,-0.176541,-1.543367,-1.970909,-0.412354,0.416260,-0.311523,0.086509,0.015052,0.008757,0.999921,-0.000883,-0.007717,-0.009854,0.226583,-0.522690,-0.022756,-0.821546
20803,NaN,8.361754,1.126172,0.486020,-2.056722,-3.697284,-2.496988,-0.325427,-1.609273,-2.083278,-0.433105,0.403809,-0.305176,0.083686,0.010399,0.005516,0.999912,-0.001627,-0.008046,-0.010416,0.216992,-0.529384,-0.028669,-0.819662
20804,NaN,7.983179,0.723477,0.295443,-2.202424,-3.070832,-2.737578,-0.411152,-1.687891,-2.202977,-0.441406,0.395264,-0.296875,0.079876,0.006362,0.003615,0.999902,-0.002056,-0.008439,-0.011015,0.206459,-0.536519,-0.034730,-0.817506
20805,NaN,7.599650,0.421325,0.343266,-2.098389,-2.472688,-2.918591,-0.486823,-1.770142,-2.334272,-0.453613,0.384521,-0.284668,0.076005,0.003336,0.004097,0.999890,-0.002434,-0.008850,-0.011671,0.195301,-0.543790,-0.040810,-0.815159
20806,NaN,7.360523,0.318323,0.517057,-1.851738,-2.061369,-2.966984,-0.599826,-1.855301,-2.459378,-0.470215,0.374023,-0.274170,0.073585,0.002295,0.005845,0.999877,-0.002999,-0.009276,-0.012296,0.183085,-0.551508,-0.046945,-0.812475
20807,NaN,7.215334,0.478083,0.847355,-1.400761,-1.878735,-2.919818,-0.767452,-1.932328,-2.563145,-0.489014,0.367676,-0.266113,0.072121,0.003891,0.009154,0.999864,-0.003837,-0.009661,-0.012815,0.170097,-0.559382,-0.052642,-0.809560
20808,NaN,7.136939,0.410278,1.167911,-1.047829,-1.501002,-2.804617,-0.955121,-1.988734,-2.644887,-0.503418,0.352783,-0.249512,0.071295,0.003218,0.012372,0.999852,-0.004775,-0.009943,-0.013224,0.156010,-0.567600,-0.057942,-0.806309
20809,NaN,7.130470,0.245805,1.534484,-0.694496,-1.037421,-2.622708,-1.136988,-2.013448,-2.717958,-0.517578,0.338135,-0.243164,0.071171,0.001580,0.016051,0.999841,-0.005685,-0.010067,-0.013589,0.141236,-0.575725,-0.062617,-0.802914
20810,NaN,7.101628,0.016692,1.846467,-0.383230,-0.521591,-2.503818,-1.293408,-2.042709,-2.765809,-0.534424,0.329590,-0.230713,0.070817,-0.000691,0.019191,0.999831,-0.006467,-0.010213,-0.013828,0.125584,-0.584004,-0.066903,-0.799182
20811,NaN,7.090356,-0.158492,2.164304,-0.038152,-0.066743,-2.398362,-1.420044,-2.057384,-2.785821,-0.542480,0.323242,-0.212402,0.070646,-0.002413,0.022386,0.999825,-0.007100,-0.010286,-0.013928,0.109614,-0.592082,-0.070627,-0.795258
20812,NaN,7.291304,-0.264108,2.408932,0.219491,0.281435,-2.137802,-1.517934,-2.061859,-2.788596,-0.552734,0.310547,-0.191650,0.072615,-0.003468,0.024863,0.999821,-0.007589,-0.010309,-0.013942,0.093124,-0.600139,-0.074046,-0.790998
20813,NaN,7.458129,-0.328353,2.625270,0.485503,0.584065,-1.936013,-1.583787,-2.046948,-2.781898,-0.567139,0.299805,-0.185303,0.074254,-0.004106,0.027044,0.999820,-0.007918,-0.010234,-0.013909,0.076613,-0.607833,-0.077054,-0.786595
