// Start Time: Unknown
// Update Rate: 100.0Hz
// Filter Profile: human (46.1)
// Firmware Version: 4.4.0
PacketCounter,SampleTimeFine,Acc_X,Acc_Y,Acc_Z,FreeAcc_X,FreeAcc_Y,FreeAcc_Z,Gyr_X,Gyr_Y,Gyr_Z,Mag_X,Mag_Y,Mag_Z,VelInc_X,VelInc_Y,VelInc_Z,OriInc_q0,OriInc_q1,OriInc_q2,OriInc_q3,Quat_q0,Quat_q1,Quat_q2,Quat_q3
39343,NaN,10.912690,1.999520,1.573533,0.000000,0.000000,1.392543,1.323679,-1.571117,0.752432,-0.909180,-0.123047,-0.480469,0.108922,0.020297,0.016725,0.999940,0.006618,-0.007855,0.003762,0.747253,0.009971,-0.652127,-0.127455
39344,NaN,10.469563,-0.550790,2.289118,-0.000000,0.000000,0.918203,2.050192,-1.888983,0.849801,-0.919434,-0.125244,-0.461426,0.104496,-0.005305,0.023824,0.999894,0.010251,-0.009445,0.004249,0.742283,0.165202,-0.601418,0.244993
39345,NaN,9.569685,-0.649873,-0.343884,2.308980,-0.864267,-0.537007,2.261181,-1.696074,1.084612,-0.926025,-0.121094,-0.438232,0.095755,-0.005946,-0.002696,0.999885,0.011305,-0.008480,0.005423,0.764518,0.088885,-0.635971,0.056145
39346,NaN,9.588786,1.531013,-2.174088,3.443724,1.751213,-0.642993,2.216076,-1.798927,1.346616,-0.936523,-0.121094,-0.416992,0.095970,0.016189,-0.020702,0.999875,0.011080,-0.008994,0.006733,0.757340,0.093568,-0.642744,0.067532
39347,NaN,10.375689,4.041367,-1.330865,1.904695,4.118822,0.441929,1.561098,-1.994347,1.588217,-0.947266,-0.110596,-0.400146,0.103555,0.041333,-0.011955,0.999888,0.007805,-0.009971,0.007941,0.748668,0.094460,-0.651538,0.077922
39348,NaN,11.942861,4.587857,0.908553,-0.501908,4.211938,2.291047,1.457255,-2.149725,1.821710,-0.960205,-0.102051,-0.374756,0.118895,0.046889,0.010705,0.999874,0.007286,-0.010748,0.009108,0.740173,0.094806,-0.659796,0.088463
39349,NaN,14.971041,4.521600,1.316855,-0.973583,4.138498,5.293998,1.757316,-2.425246,2.015375,-0.971191,-0.089111,-0.347412,0.149068,0.046592,0.015384,0.999837,0.008786,-0.012126,0.010076,0.729980,0.095622,-0.669664,0.097649
39350,NaN,17.778654,3.274479,1.325146,-0.963815,3.154860,8.009844,1.856028,-2.550029,2.191947,-0.982178,-0.067871,-0.324219,0.177224,0.034550,0.015829,0.999816,0.009280,-0.012749,0.010959,0.719351,0.096284,-0.678989,0.110626
39351,NaN,20.976756,6.250004,2.194716,-3.102691,5.944214,11.136897,1.994900,-2.655382,2.298823,-0.988770,-0.059326,-0.294678,0.208711,0.064662,0.025361,0.999796,0.009974,-0.013276,0.011493,0.708492,0.095493,-0.689219,0.117885
39352,NaN,21.445970,6.714102,4.013324,-5.746772,6.067180,11.429266,2.071977,-2.486216,2.403459,-0.997803,-0.040039,-0.271484,0.213109,0.069269,0.043498,0.999797,0.010359,-0.012430,0.012016,0.697376,0.095997,-0.697812,0.132328
39353,NaN,21.514659,8.554745,4.162901,-6.929634,7.845290,11.252967,1.946964,-2.375815,2.497914,-1.009033,-0.016602,-0.250488,0.213538,0.087794,0.045020,0.999804,0.009734,-0.011878,0.012489,0.689396,0.091277,-0.706419,0.131812
39354,NaN,20.248089,7.450662,4.975049,-8.040375,6.672390,9.707326,1.570937,-2.319235,2.371098,-1.013672,0.002686,-0.227295,0.200982,0.076489,0.052683,0.999832,0.007854,-0.011596,0.011855,0.678809,0.089830,-0.714341,0.144453
39355,NaN,19.573193,6.050313,5.486588,-8.189604,5.322962,9.012129,1.999860,-2.240813,2.308512,-1.018066,0.013184,-0.197998,0.194385,0.062185,0.057665,0.999821,0.009999,-0.011203,0.011542,0.674983,0.079212,-0.721426,0.132916
39356,NaN,17.559994,7.993047,6.280299,-9.963269,6.893191,6.461887,2.537058,-2.081103,2.266456,-1.018555,0.034668,-0.174805,0.174012,0.081088,0.065643,0.999801,0.012684,-0.010405,0.011332,0.664832,0.080967,-0.727518,0.148865
39357,NaN,15.383674,10.127794,6.984361,-10.809175,8.904243,4.038089,2.759067,-2.060940,2.247235,-1.021484,0.064453,-0.162354,0.151953,0.102002,0.072820,0.999789,0.013794,-0.010304,0.011235,0.664641,0.067417,-0.732433,0.131339
39358,NaN,13.034034,14.096052,5.096577,-10.439036,12.979711,1.006798,2.664178,-2.266029,2.018316,-1.023926,0.072998,-0.136963,0.128311,0.141554,0.054310,0.999796,0.013320,-0.011329,0.010091,0.653984,0.070353,-0.738744,0.147011
39359,NaN,8.225406,15.510053,4.529272,-8.550537,14.678577,-3.478098,1.941249,-2.636600,1.622847,-1.021973,0.083740,-0.111816,0.080375,0.155302,0.047867,0.999833,0.009706,-0.013182,0.008114,0.655489,0.048404,-0.746124,0.106256
39360,NaN,8.334741,14.333784,4.107828,-8.313081,13.562206,-3.588582,1.351453,-2.308590,1.305395,-1.022217,0.096436,-0.092773,0.081922,0.143589,0.042999,0.999889,0.006757,-0.011543,0.006527,0.645784,0.049185,-0.753205,0.115006
39361,NaN,7.963365,11.092902,5.052709,-6.915119,10.926501,-3.120664,1.178764,-1.355739,0.881527,-1.024414,0.100586,-0.080078,0.078797,0.110975,0.051717,0.999950,0.005894,-0.006779,0.004408,0.655490,0.013667,-0.753583,0.047535
39362,NaN,5.449347,10.919738,8.691293,-10.267925,10.303707,-6.224177,0.364469,-0.298868,0.294588,-1.020264,0.102783,-0.082275,0.054203,0.109119,0.087193,0.999996,0.001822,-0.001494,0.001473,0.654266,0.013822,-0.754493,0.049853
39363,NaN,1.627059,13.298282,12.251764,-11.234660,14.253636,-9.352794,-0.759146,0.203282,-0.464183,-1.024170,0.094238,-0.086426,0.016704,0.133408,0.121995,0.999990,-0.003796,0.001016,-0.002321,0.668029,-0.026989,-0.742895,-0.033406
39364,NaN,0.206848,13.027224,10.348165,-9.106208,13.911201,-10.434662,-1.044493,0.335689,-0.915133,-1.019775,0.090088,-0.092773,0.002839,0.130798,0.102795,0.999974,-0.005222,0.001678,-0.004576,0.668965,-0.027022,-0.741704,-0.040387
39365,NaN,-0.196790,10.836280,7.279755,-4.111985,12.387221,-9.493136,-1.271626,0.544033,-1.210971,-1.021484,0.072998,-0.098877,-0.001113,0.108831,0.072110,0.999958,-0.006358,0.002720,-0.006055,0.678252,-0.069062,-0.720590,-0.126314
39366,NaN,-0.767619,8.084193,8.147400,-5.515593,10.088759,-10.149325,-1.404310,0.771080,-1.605675,-1.016846,0.057861,-0.101074,-0.006711,0.081468,0.080931,0.999936,-0.007021,0.003855,-0.008028,0.679488,-0.067548,-0.717596,-0.137077
39367,NaN,-0.196279,0.357910,9.599916,-8.331985,4.784954,-9.755462,-1.825708,1.235943,-1.820111,-1.016602,0.042969,-0.117676,-0.001332,0.004469,0.095971,0.999898,-0.009128,0.006180,-0.009100,0.679378,-0.113999,-0.687740,-0.229049
39368,NaN,2.942783,-5.540490,5.999845,-8.047434,-2.384798,-7.597981,-2.703635,2.235578,-1.710079,-1.009766,0.030273,-0.143066,0.029631,-0.054843,0.060412,0.999810,-0.013517,0.011177,-0.008550,0.683437,-0.114720,-0.677894,-0.245385
39369,NaN,2.677748,-7.020397,3.713004,-7.357564,-3.628232,-8.097089,-2.916522,3.063351,-1.582788,-1.007568,0.019531,-0.172607,0.026799,-0.069869,0.037740,0.999745,-0.014581,0.015315,-0.007913,0.680795,-0.157505,-0.641011,-0.317516
39370,NaN,2.148780,-6.638112,1.847481,-5.712133,-4.286595,-8.768129,-2.271924,3.599532,-1.353385,-1.000977,0.010986,-0.208496,0.021376,-0.066313,0.018843,0.999751,-0.011359,0.017996,-0.006766,0.688223,-0.155148,-0.626058,-0.332159
39371,NaN,3.500981,-4.541517,0.834167,-4.071556,-3.196211,-7.208010,-1.655692,3.744226,-1.268537,-0.992188,-0.003906,-0.244385,0.034874,-0.045569,0.008065,0.999770,-0.008278,0.018720,-0.006342,0.677481,-0.194973,-0.583172,-0.403627
39372,NaN,4.970606,-0.357638,0.411748,-0.531353,-1.587113,-5.101010,-1.031129,3.829758,-1.268205,-0.983643,-0.010254,-0.276123,0.049749,-0.003874,0.003185,0.999783,-0.005155,0.019147,-0.006341,0.684937,-0.186997,-0.569229,-0.414575
39373,NaN,8.940644,2.348064,2.437104,0.564145,-0.522741,-0.284645,0.151937,3.995969,-1.251427,-0.974854,-0.027100,-0.316162,0.090014,0.022901,0.022594,0.999781,0.000760,0.019978,-0.006257,0.675115,-0.200393,-0.534573,-0.467220
39374,NaN,13.992444,4.957202,4.606773,1.645741,-0.195365,5.640661,1.116017,4.036365,-1.392148,-0.961914,-0.041992,-0.343506,0.141159,0.048345,0.043499,0.999757,0.005580,0.020180,-0.006960,0.683605,-0.183428,-0.524820,-0.472866
39375,NaN,21.659935,7.335615,2.612430,4.384993,-5.640524,12.066085,1.443674,3.836604,-1.851052,-0.944336,-0.065430,-0.379395,0.217719,0.071173,0.022474,0.999747,0.007218,0.019181,-0.009254,0.671093,-0.180007,-0.502788,-0.514233
39376,NaN,29.201816,11.239850,-1.420365,9.486086,-12.024120,17.507050,0.248496,4.270182,-2.302990,-0.922607,-0.086914,-0.417480,0.292897,0.109052,-0.020315,0.999705,0.001242,0.021349,-0.011514,0.675933,-0.162353,-0.491023,-0.525026
39377,NaN,33.241279,13.327638,-2.292284,10.007972,-17.048367,20.133753,-0.793597,4.282728,-2.646402,-0.907227,-0.108154,-0.455322,0.333536,0.128756,-0.030574,0.999675,-0.003968,0.021411,-0.013231,0.651373,-0.168910,-0.462769,-0.577085
39379,NaN,30.328621,6.219653,-0.222103,4.525198,-35.390099,40.765590,0.286707,3.438157,-3.692874,-0.860840,-0.172363,-0.499512,0.609989,0.101955,-0.025067,0.998723,0.002866,0.034367,-0.036913,0.645628,-0.129914,-0.447681,-0.604871
39380,NaN,27.869512,3.843357,-0.724180,-2.191915,-18.603604,11.185719,0.438823,3.188820,-4.116786,-0.836426,-0.212891,-0.526611,0.279246,0.032711,-0.011616,0.999659,0.002194,0.015942,-0.020582,0.608070,-0.130273,-0.433495,-0.652198
39381,NaN,27.335977,11.578927,2.994105,2.850235,-15.689631,15.402429,-0.166530,3.473521,-3.961758,-0.806396,-0.232178,-0.554199,0.276046,0.110361,0.025069,0.999653,-0.000833,0.017366,-0.019806,0.602361,-0.110823,-0.424822,-0.666638
39382,NaN,27.503706,15.814105,4.794797,3.724965,-16.071370,17.702915,-1.607866,3.539195,-3.861879,-0.780273,-0.251465,-0.579346,0.278802,0.153134,0.041791,0.999625,-0.008038,0.017694,-0.019307,0.558997,-0.120109,-0.401822,-0.715287
39384,NaN,23.666128,16.182958,2.389429,10.205806,-34.529328,35.017790,-3.552767,3.992917,-3.667076,-0.708496,-0.253174,-0.664307,0.485889,0.306966,0.017437,0.997900,-0.035503,0.039901,-0.036645,0.543381,-0.096438,-0.357681,-0.753327
39385,NaN,18.084497,12.004352,1.411092,1.977383,-15.124535,5.689370,-4.741074,3.870392,-3.084222,-0.679443,-0.238281,-0.698242,0.182861,0.117468,0.007779,0.999413,-0.023701,0.019348,-0.015418,0.504041,-0.109762,-0.325889,-0.792270
39386,NaN,14.912733,10.545711,2.273519,1.725765,-12.762037,3.333474,-4.427403,3.649255,-2.478992,-0.645996,-0.225342,-0.734619,0.150776,0.104024,0.017680,0.999512,-0.022133,0.018243,-0.012393,0.497492,-0.102374,-0.300360,-0.807345
39387,NaN,12.608705,9.743719,3.293478,1.716270,-10.817019,2.218330,-4.364597,3.317828,-1.949570,-0.627441,-0.205811,-0.755859,0.127533,0.096856,0.028709,0.999577,-0.021820,0.016587,-0.009746,0.485974,-0.103956,-0.277673,-0.822144
39388,NaN,10.159520,6.405851,2.016111,0.118129,-9.019588,-1.632630,-5.173457,2.941391,-1.462596,-0.599121,-0.167236,-0.788086,0.102328,0.063779,0.017007,0.999531,-0.025863,0.014705,-0.007312,0.481129,-0.102358,-0.249894,-0.834021
39389,NaN,7.317501,3.186375,-0.888295,-0.792996,-7.329118,-6.629995,-6.038331,2.606506,-0.971730,-0.572754,-0.124268,-0.807373,0.073195,0.031202,-0.010786,0.999448,-0.030186,0.013030,-0.004858,0.490436,-0.103507,-0.226932,-0.835022
39390,NaN,3.946652,2.500588,-3.355672,0.282661,-5.682690,-10.652883,-6.705136,2.221176,-0.504299,-0.553223,-0.068604,-0.824951,0.039146,0.023754,-0.034803,0.999373,-0.033519,0.011104,-0.002521,0.487073,-0.110039,-0.193617,-0.844490
39391,NaN,-0.751651,-1.075877,-4.782412,-0.586320,-0.985533,-14.636471,-6.762559,1.913943,-0.097257,-0.542236,-0.014893,-0.837891,-0.007977,-0.012362,-0.047349,0.999383,-0.033806,0.009568,-0.000486,0.506875,-0.115835,-0.171022,-0.836906
39392,NaN,-3.326572,-5.930114,-4.066602,-3.919767,3.733480,-15.596037,-6.055715,1.284626,0.287819,-0.535156,0.034424,-0.844727,-0.033432,-0.060540,-0.038631,0.999520,-0.030274,0.006422,0.001439,0.505427,-0.125998,-0.142184,-0.841696
39393,NaN,-4.816681,-8.185854,-3.676821,-5.664738,6.021249,-15.759436,-4.962967,0.529178,0.500517,-0.540527,0.072998,-0.847168,-0.048054,-0.082855,-0.034593,0.999685,-0.024812,0.002646,0.002502,0.523422,-0.136164,-0.129270,-0.831130
39394,NaN,-4.880178,-7.047574,-3.939216,-4.790188,5.681131,-15.624069,-3.820624,-0.148265,0.574454,-0.541504,0.107178,-0.834717,-0.048569,-0.071351,-0.038071,0.999813,-0.019102,-0.000741,0.002872,0.523014,-0.147127,-0.113369,-0.831840
39395,NaN,-5.598189,-6.980051,-3.742532,-4.749321,6.188141,-15.575963,-2.237814,-0.733984,0.727307,-0.544189,0.122314,-0.836914,-0.055591,-0.070418,-0.036844,0.999924,-0.011189,-0.003670,0.003636,0.536164,-0.157603,-0.112436,-0.821613
39396,NaN,-3.620478,-6.737334,-3.918111,-5.403803,4.318164,-14.911896,-0.233018,-1.511979,0.960150,-0.559082,0.124268,-0.822021,-0.035583,-0.067591,-0.039373,0.999959,-0.001165,-0.007560,0.004801,0.539052,-0.164975,-0.114774,-0.817944
39397,NaN,-1.037933,-7.520661,-4.189093,-7.214103,2.017112,-14.179574,1.604813,-2.068226,1.142665,-0.573486,0.113525,-0.804932,-0.009513,-0.074923,-0.042594,0.999898,0.008024,-0.010341,0.005713,0.550644,-0.171736,-0.130397,-0.806409
39398,NaN,1.045248,-9.487010,-4.912905,-9.836233,0.399508,-14.091783,2.805754,-2.110343,1.199850,-0.598389,0.098633,-0.794189,0.011545,-0.094102,-0.050335,0.999828,0.014028,-0.010551,0.005999,0.556419,-0.173275,-0.146469,-0.799325
39400,NaN,1.232553,-12.040787,-6.352884,-24.666418,-0.563852,-21.570201,3.976140,-1.847442,1.001947,-0.620361,0.049316,-0.781006,0.029485,-0.235247,-0.135972,0.998989,0.039748,-0.018468,0.010016,0.570325,-0.170346,-0.188541,-0.781130
39401,NaN,-2.072053,-12.540604,-6.717008,-11.609587,1.623846,-18.131957,4.980666,-1.742521,0.793144,-0.634033,0.014893,-0.761719,-0.019623,-0.123758,-0.070440,0.999644,0.024900,-0.008712,0.003965,0.575817,-0.163639,-0.212220,-0.772411
39402,NaN,-2.175027,-8.714853,-7.276682,-7.739632,-0.025738,-18.397006,5.190863,-2.295034,0.758600,-0.649902,-0.019531,-0.742432,-0.020570,-0.085297,-0.075237,0.999590,0.025951,-0.011474,0.003792,0.575743,-0.164759,-0.236180,-0.765241
39403,NaN,2.357414,-4.295940,-6.047884,-4.558617,-4.400346,-14.333146,4.306867,-2.682868,0.741947,-0.674805,-0.041016,-0.725342,0.024547,-0.041559,-0.061059,0.999671,0.021532,-0.013413,0.003709,0.578770,-0.163451,-0.259694,-0.755558
39404,NaN,4.638036,-2.276947,-2.808089,-3.359089,-4.825792,-9.898085,2.775063,-2.639586,0.868386,-0.691406,-0.049561,-0.701904,0.046845,-0.022180,-0.027775,0.999807,0.013874,-0.013197,0.004342,0.575368,-0.173851,-0.274410,-0.750617
39405,NaN,7.468403,-1.036959,0.590972,-3.078156,-5.126243,-5.181814,1.896546,-2.773875,0.859443,-0.716309,-0.062500,-0.688965,0.074637,-0.010111,0.006848,0.999850,0.009482,-0.013869,0.004297,0.576348,-0.179962,-0.288722,-0.743018
39406,NaN,8.854227,3.379976,2.371716,0.704219,-5.576205,-1.822095,1.696430,-2.467357,0.836072,-0.731201,-0.064697,-0.665527,0.088097,0.033960,0.025093,0.999879,0.008482,-0.012336,0.004180,0.572746,-0.192762,-0.298999,-0.738515
39407,NaN,9.849203,9.330284,3.997562,6.079868,-5.906857,1.508597,1.916432,-2.132813,0.587760,-0.745605,-0.077637,-0.648682,0.097778,0.093195,0.041914,0.999893,0.009582,-0.010664,0.002939,0.573511,-0.196011,-0.311589,-0.731831
39408,NaN,9.883387,12.438110,9.500904,8.702524,-2.227230,6.372016,2.053950,-1.220779,0.194240,-0.747314,-0.083984,-0.635742,0.098126,0.123488,0.096881,0.999928,0.010270,-0.006104,0.000971,0.572454,-0.200716,-0.321692,-0.726996
39409,NaN,8.677225,9.503608,14.520872,5.560967,2.760476,8.569706,2.179356,0.604480,-0.094145,-0.744629,-0.103271,-0.642090,0.087257,0.093407,0.145969,0.999936,0.010897,0.003022,-0.000471,0.575232,-0.192120,-0.327962,-0.724320
39410,NaN,3.006721,8.827247,7.047906,6.869478,1.808340,-0.530447,3.679270,1.772085,-0.238335,-0.735352,-0.133301,-0.644043,0.030804,0.086923,0.071816,0.999791,0.018395,0.008860,-0.001192,0.581001,-0.178772,-0.336913,-0.719005
39411,NaN,-4.873519,6.014655,-14.061451,9.421112,-6.670824,-20.960091,7.818410,0.958362,-0.672363,-0.733643,-0.184814,-0.626709,-0.049186,0.065738,-0.137882,0.999219,0.039082,0.004791,-0.003361,0.586729,-0.151353,-0.362572,-0.708084
39412,NaN,-8.536272,-7.038598,-18.122750,0.144286,-6.507878,-30.018262,7.298693,-1.717312,-0.940116,-0.740723,-0.229980,-0.594482,-0.084097,-0.063298,-0.184350,0.999286,0.036485,-0.008585,-0.004699,0.588345,-0.136077,-0.395723,-0.691908
39413,NaN,3.932739,-11.386216,27.583119,-19.216071,16.901367,6.030033,0.719895,-2.318520,0.145583,-0.756104,-0.212891,-0.583984,0.036213,-0.114828,0.275851,0.999926,0.003599,-0.011592,0.000728,0.584704,-0.142262,-0.404911,-0.688425
39414,NaN,19.589532,2.878845,-20.362450,2.671334,-28.203450,-7.810152,-0.823502,-3.736169,1.577623,-0.781738,-0.204346,-0.545898,0.199424,0.029524,-0.200041,0.999786,-0.004117,-0.018680,0.007888,0.581264,-0.165008,-0.411609,-0.682263
39415,NaN,47.874145,22.952657,-26.691746,15.491159,-50.323033,17.713853,5.311634,-3.841874,0.844130,-0.802002,-0.228027,-0.511963,0.482677,0.238374,-0.251416,0.999454,0.026553,-0.019206,0.004220,0.580298,-0.164328,-0.439974,-0.665337
39416,NaN,30.734000,8.014859,30.884173,-10.130471,5.573408,32.953535,0.398084,-0.667948,-0.054951,-0.800293,-0.215088,-0.509766,0.306328,0.079448,0.310025,0.999992,0.001990,-0.003340,-0.000275,0.586405,-0.164234,-0.448250,-0.654391
39417,NaN,-1.982093,-8.693431,-6.326557,-5.540617,-4.482917,-18.103200,-1.481521,-2.192363,-0.359775,-0.819092,-0.221680,-0.488525,-0.019287,-0.087366,-0.062833,0.999911,-0.007407,-0.010961,-0.001799,0.579042,-0.174934,-0.450092,-0.656906
39418,NaN,2.863127,-1.680007,-3.994352,-1.051592,-5.062641,-10.297993,1.959510,-3.172771,1.131030,-0.833984,-0.215332,-0.452637,0.029355,-0.016246,-0.039643,0.999810,0.009797,-0.015863,0.005655,0.581960,-0.183099,-0.468133,-0.639256
39419,NaN,11.755101,-7.020088,-0.045300,-9.338210,-7.556133,-3.243069,2.715781,-2.684459,2.189177,-0.853271,-0.208984,-0.431396,0.118310,-0.068908,0.000190,0.999758,0.013578,-0.013421,0.010945,0.585015,-0.188861,-0.482512,-0.623916
39420,NaN,14.455964,-7.100705,-2.332952,-8.933370,-10.858992,-1.622099,0.895027,-2.201370,3.042745,-0.866943,-0.177002,-0.414795,0.145864,-0.068694,-0.022040,0.999814,0.004475,-0.011006,0.015213,0.593719,-0.202003,-0.491783,-0.604022
39421,NaN,18.362245,-0.088187,-1.907668,-3.120586,-10.903986,4.752104,1.986953,-2.229166,3.418182,-0.892822,-0.159912,-0.389404,0.183797,0.002434,-0.017015,0.999742,0.009934,-0.011145,0.017089,0.600409,-0.211193,-0.500828,-0.586582
39422,NaN,23.752884,8.456519,-1.658529,4.359444,-10.429384,12.783027,3.080172,-2.086369,3.541811,-0.899414,-0.142822,-0.366211,0.236126,0.088972,-0.012769,0.999670,0.015399,-0.010431,0.017707,0.611948,-0.218922,-0.514964,-0.558932
39423,NaN,21.316855,8.951796,-0.104771,5.133964,-6.899958,11.646343,2.458352,-2.000902,3.727592,-0.906494,-0.114990,-0.338867,0.211440,0.093456,0.002206,0.999701,0.012291,-0.010004,0.018636,0.619715,-0.226528,-0.523729,-0.538839
39424,NaN,21.634472,13.316047,-0.652267,9.974962,-4.632220,13.093536,2.600735,-1.978248,4.072643,-0.924561,-0.080811,-0.322266,0.213612,0.137580,-0.002631,0.999659,0.013002,-0.009890,0.020361,0.632156,-0.234881,-0.535657,-0.508214
39425,NaN,26.674499,21.468256,2.411705,16.070136,0.270558,20.514097,0.818696,-1.951605,3.933330,-0.935791,-0.052979,-0.301270,0.262198,0.219761,0.027583,0.999751,0.004093,-0.009757,0.019665,0.637721,-0.247731,-0.539160,-0.491169
39426,NaN,28.775728,20.430099,4.084387,14.822617,2.523987,22.372399,-0.032737,-2.929297,2.815908,-0.949219,-0.025146,-0.273926,0.284204,0.208326,0.044990,0.999794,-0.000164,-0.014645,0.014079,0.641018,-0.260567,-0.549828,-0.467857
39427,NaN,26.292568,16.544993,5.462494,11.120812,4.029848,19.425050,0.015235,-3.201893,2.344274,-0.951904,-0.005859,-0.250732,0.260043,0.168505,0.058816,0.999803,0.000076,-0.016008,0.011721,0.637587,-0.274405,-0.556971,-0.456035
39428,NaN,21.991221,7.909371,6.013497,3.498515,3.274084,13.837090,-0.549637,-2.799477,2.348218,-0.954590,0.017578,-0.223633,0.218094,0.081832,0.062974,0.999829,-0.002748,-0.013997,0.011740,0.638604,-0.285120,-0.567262,-0.434862
39429,NaN,19.546270,2.686606,6.428138,-1.078079,2.566530,10.749487,0.663164,-2.700955,2.291879,-0.961426,0.038818,-0.204590,0.194247,0.028878,0.067004,0.999838,0.003316,-0.013504,0.011459,0.636762,-0.295332,-0.573978,-0.421738
39430,NaN,18.142392,4.089776,5.351677,0.738341,3.446544,9.215005,1.063647,-2.303872,2.578869,-0.966309,0.060303,-0.179443,0.180245,0.042934,0.055822,0.999836,0.005318,-0.011519,0.012894,0.640272,-0.300638,-0.584884,-0.396963
39431,NaN,14.744762,7.259559,3.020112,4.725769,4.201365,5.653932,1.704230,-2.222075,2.415525,-0.967041,0.083740,-0.164795,0.146206,0.074096,0.032457,0.999829,0.008521,-0.011110,0.012077,0.641013,-0.306607,-0.591658,-0.380834
39432,NaN,11.527913,3.721349,2.217148,2.048828,2.711318,2.023428,1.762110,-2.464034,1.946572,-0.975830,0.100830,-0.137451,0.114623,0.038126,0.023920,0.999838,0.008810,-0.012320,0.009732,0.642404,-0.307959,-0.604459,-0.356521
39433,NaN,6.532144,1.755290,1.458368,0.725164,1.719989,-3.150178,1.701802,-2.291732,1.588166,-0.978516,0.120117,-0.122803,0.065006,0.017941,0.015481,0.999867,0.008509,-0.011458,0.007940,0.640835,-0.311340,-0.612338,-0.342696
39434,NaN,3.348525,3.479484,3.960914,0.513963,5.120578,-6.274128,1.264895,-2.070318,1.256842,-0.978516,0.126465,-0.105957,0.032853,0.034750,0.040171,0.999907,0.006324,-0.010351,0.006284,0.640311,-0.311480,-0.623187,-0.323450
39435,NaN,-0.750361,9.300616,10.944188,0.958383,14.340481,-10.328612,-0.457972,-1.971358,0.364822,-0.976318,0.128662,-0.091064,-0.008750,0.093241,0.109146,0.999947,-0.002290,-0.009857,0.001824,0.634003,-0.317257,-0.628167,-0.320616
39436,NaN,-2.349602,16.159500,8.859873,7.740404,16.719434,-12.194505,-2.528161,-1.400775,-0.452017,-0.976318,0.128418,-0.076172,-0.023739,0.162750,0.086381,0.999893,-0.012640,-0.007004,-0.002260,0.626044,-0.323610,-0.632394,-0.321596
39437,NaN,1.458204,15.599368,7.804872,8.345152,15.318275,-8.375529,-3.307809,-1.058703,-0.829600,-0.978027,0.115723,-0.063477,0.014828,0.157196,0.075533,0.999841,-0.016538,-0.005293,-0.004148,0.615902,-0.332993,-0.631641,-0.332882
39438,NaN,-0.182786,10.181950,13.743660,0.848073,17.080023,-10.172601,-2.633830,-0.107181,-1.047091,-0.978027,0.113525,-0.069824,-0.001362,0.103625,0.136079,0.999899,-0.013169,-0.000536,-0.005235,0.610403,-0.335388,-0.632060,-0.339740
39439,NaN,-2.584355,7.306729,8.069543,1.918223,10.720308,-12.376924,-1.695674,0.376306,-1.298071,-0.975586,0.104980,-0.071777,-0.025215,0.073913,0.080119,0.999941,-0.008478,0.001881,-0.006490,0.606499,-0.335804,-0.630182,-0.349665
39441,NaN,-0.272624,2.130092,5.038668,-1.619235,10.824121,-10.254575,-1.554160,1.143817,-1.402010,-0.975098,0.083496,-0.094971,-0.003692,0.044222,0.100143,0.999716,-0.015540,0.011437,-0.014019,0.604144,-0.330487,-0.624163,-0.369064
39442,NaN,1.370784,-4.157744,4.585701,-5.963973,1.819828,-8.666806,-1.879959,1.983028,-1.250149,-0.977051,0.075195,-0.120361,0.013906,-0.041231,0.046108,0.999887,-0.009399,0.009915,-0.006251,0.604842,-0.328571,-0.616711,-0.381936
39443,NaN,2.479281,0.213515,6.305563,-3.050503,5.413723,-7.104210,-1.381071,2.485862,-1.199753,-0.976807,0.064453,-0.139160,0.025588,0.002417,0.062725,0.999881,-0.006905,0.012429,-0.005999,0.608283,-0.323418,-0.609399,-0.392460
39444,NaN,3.668930,4.593487,4.126944,1.844331,5.430042,-5.488233,-1.328742,2.888489,-1.317958,-0.974365,0.047363,-0.177246,0.037580,0.045960,0.040426,0.999852,-0.006643,0.014442,-0.006589,0.612250,-0.317731,-0.600060,-0.405123
39445,NaN,5.853638,6.145775,1.132332,4.606422,3.052590,-3.272830,-2.087635,3.387474,-1.499382,-0.968018,0.038818,-0.204590,0.059169,0.061123,0.009685,0.999774,-0.010437,0.016936,-0.007496,0.616154,-0.312220,-0.588212,-0.420569
39446,NaN,9.438016,4.049782,1.543661,2.492493,1.525598,0.152268,-2.552724,3.719566,-1.592679,-0.969971,0.030518,-0.242676,0.094959,0.039921,0.013162,0.999714,-0.012762,0.018596,-0.007963,0.619575,-0.307493,-0.573716,-0.438663
39447,NaN,15.348892,2.333377,2.443063,0.400201,-0.120368,5.896695,-2.151619,4.061096,-1.583613,-0.955078,0.021973,-0.276367,0.154119,0.022354,0.021061,0.999705,-0.010757,0.020303,-0.007917,0.624574,-0.299901,-0.559286,-0.455156
39448,NaN,20.976891,2.054995,1.219786,0.562381,-3.467928,11.003522,-1.119106,4.417418,-1.514493,-0.939941,0.011475,-0.324951,0.210116,0.019010,0.007450,0.999712,-0.005595,0.022085,-0.007572,0.631613,-0.289026,-0.545067,-0.469501
39449,NaN,25.909546,-0.538584,0.576802,-1.503830,-7.493000,14.954282,-1.607838,4.327460,-1.667105,-0.931396,0.000732,-0.358887,0.259083,-0.007529,0.000216,0.999699,-0.008038,0.021635,-0.008335,0.640388,-0.275290,-0.532263,-0.480431
39450,NaN,29.743359,-4.183415,0.851760,-4.990555,-11.101468,17.657131,-1.664947,4.416287,-1.911888,-0.916260,-0.016113,-0.405273,0.297113,-0.044639,0.002318,0.999676,-0.008324,0.022079,-0.009558,0.645041,-0.264841,-0.516596,-0.496900
39451,NaN,29.327633,-3.134903,1.719276,-4.238362,-11.145810,17.215566,-0.699259,4.564963,-2.079012,-0.892578,-0.028809,-0.445312,0.293222,-0.034353,0.010616,0.999679,-0.003496,0.022822,-0.010394,0.653678,-0.247293,-0.504806,-0.506677
39452,NaN,25.942606,-0.562379,2.904190,-2.326894,-9.143069,14.530616,0.408117,4.803899,-2.330010,-0.872803,-0.056641,-0.487549,0.259934,-0.008701,0.022786,0.999642,0.002040,0.024017,-0.011649,0.660162,-0.227827,-0.492853,-0.519015
39453,NaN,25.892030,1.203646,4.405003,-1.293598,-8.578382,15.002814,1.403953,4.904329,-2.536283,-0.846680,-0.082275,-0.531982,0.260020,0.008464,0.037750,0.999594,0.007019,0.024518,-0.012680,0.671016,-0.200949,-0.485208,-0.523383
39454,NaN,29.780807,4.367324,1.939036,2.351211,-12.687023,17.445985,2.403980,4.468955,-3.063137,-0.816162,-0.118652,-0.559082,0.298770,0.038918,0.013208,0.999561,0.012018,0.022342,-0.015313,0.675955,-0.173678,-0.479383,-0.532084
39455,NaN,28.383659,7.757655,-1.039009,6.577431,-13.973122,15.251691,2.238811,3.639668,-3.785328,-0.795898,-0.159180,-0.575928,0.284997,0.072338,-0.014741,0.999593,0.011193,0.018196,-0.018924,0.680344,-0.144480,-0.478142,-0.536319
39456,NaN,26.919094,15.907638,-3.041874,14.067814,-12.533755,15.322945,0.818911,2.162799,-4.138944,-0.771973,-0.182861,-0.599121,0.272062,0.153596,-0.032714,0.999719,0.004094,0.010813,-0.020693,0.674808,-0.125966,-0.475850,-0.549848
39457,NaN,24.985534,18.904641,2.098043,13.625199,-7.715652,17.403164,-0.175896,3.320404,-3.736034,-0.741699,-0.201904,-0.622314,0.253629,0.184348,0.016627,0.999687,-0.000879,0.016600,-0.018678,0.673756,-0.107845,-0.468233,-0.561409
39458,NaN,22.464077,20.782696,2.065189,15.186188,-6.917930,15.919194,-2.026506,3.450943,-3.387644,-0.707764,-0.206055,-0.660400,0.228407,0.204148,0.014651,0.999656,-0.010131,0.017253,-0.016936,0.670994,-0.097024,-0.452600,-0.579229
39459,NaN,19.074278,16.330250,1.372396,12.069749,-7.629138,10.882804,-4.238038,3.570275,-2.979346,-0.674316,-0.188965,-0.692383,0.193313,0.160629,0.006865,0.999505,-0.021187,0.017848,-0.014894,0.671871,-0.091697,-0.432256,-0.594420
39460,NaN,15.806294,11.586345,0.355919,8.838950,-8.478046,5.486488,-5.716090,3.465496,-2.410759,-0.641602,-0.156738,-0.726562,0.159436,0.113934,-0.002471,0.999369,-0.028574,0.017324,-0.012051,0.669144,-0.095337,-0.404478,-0.616080
39461,NaN,12.297307,7.090904,-1.317673,6.091496,-8.594835,-0.211048,-6.645325,3.287163,-1.736287,-0.617432,-0.115967,-0.760742,0.123315,0.069305,-0.017523,0.999275,-0.033219,0.016432,-0.008679,0.672974,-0.100433,-0.377003,-0.628401
39462,NaN,9.289782,3.856473,-2.143556,3.669082,-7.903012,-4.352130,-6.855270,3.028879,-1.044786,-0.595947,-0.060059,-0.786621,0.092743,0.037283,-0.024134,0.999284,-0.034268,0.015141,-0.005223,0.671470,-0.111947,-0.345548,-0.645905
39463,NaN,7.353108,-0.726072,-2.282356,-0.424257,-7.299807,-7.296383,-6.525295,2.464324,-0.859090,-0.571777,-0.017090,-0.803955,0.073210,-0.008334,-0.023467,0.999383,-0.032620,0.012319,-0.004295,0.675171,-0.121674,-0.320354,-0.653233
39464,NaN,5.038871,-3.870507,-2.627754,-3.398050,-5.976991,-9.821884,-5.874383,1.938713,-0.691418,-0.553955,0.027832,-0.814941,0.050002,-0.039637,-0.025608,0.999516,-0.029367,0.009692,-0.003457,0.672111,-0.134012,-0.294907,-0.665835
39465,NaN,2.551239,-5.446125,-3.356071,-4.722989,-4.465680,-12.087662,-5.020256,1.353123,-0.463600,-0.538330,0.068604,-0.817383,0.025163,-0.055342,-0.032350,0.999659,-0.025098,0.006765,-0.002318,0.676645,-0.143123,-0.278165,-0.666552
39466,NaN,0.298746,-7.179280,-4.420827,-6.350109,-3.153253,-14.384194,-3.979923,0.827349,-0.152260,-0.532959,0.100830,-0.822021,0.002753,-0.072656,-0.042780,0.999793,-0.019898,0.004136,-0.000761,0.674294,-0.153597,-0.262170,-0.673054
39467,NaN,-3.827220,-8.202414,-4.462867,-7.356361,0.111336,-16.719949,-2.671052,0.247909,0.180607,-0.527344,0.130859,-0.818115,-0.038252,-0.082645,-0.043480,0.999910,-0.013355,0.001240,0.000903,0.681430,-0.159713,-0.256616,-0.666553
39468,NaN,-6.993170,-6.234233,-5.957368,-5.286797,2.065198,-19.354331,-1.559532,-0.299044,0.516975,-0.531738,0.139404,-0.813721,-0.069681,-0.062985,-0.059189,0.999965,-0.007798,-0.001495,0.002585,0.681494,-0.166689,-0.252032,-0.666528
39469,NaN,-8.341380,-3.813707,-7.472385,-2.846193,2.287998,-21.065328,-0.677238,-0.752530,0.789410,-0.532227,0.149902,-0.807617,-0.082980,-0.038719,-0.074906,0.999979,-0.003386,-0.003763,0.003947,0.689761,-0.170726,-0.255651,-0.655534
39470,NaN,-9.658412,-2.909479,-6.890724,-2.113035,3.641912,-21.280090,0.384574,-1.099642,0.880924,-0.536377,0.152100,-0.805420,-0.096074,-0.029385,-0.069493,0.999973,0.001923,-0.005498,0.004405,0.691547,-0.174134,-0.259962,-0.651045
39471,NaN,-10.438123,-7.380035,-6.346607,-6.710810,3.744482,-21.839092,1.532549,-1.495526,0.909863,-0.546875,0.145752,-0.799072,-0.103564,-0.073780,-0.064808,0.999932,0.007663,-0.007477,0.004549,0.701192,-0.172693,-0.273109,-0.635546
39472,NaN,-7.955178,-11.705610,-7.578561,-10.525191,0.087675,-21.934035,2.801524,-1.926169,0.944915,-0.561279,0.130615,-0.792480,-0.078256,-0.116344,-0.078177,0.999844,0.014007,-0.009630,0.004724,0.703868,-0.170264,-0.287922,-0.626642
39473,NaN,-4.463555,-12.392240,-8.611918,-10.396069,-4.158725,-20.868770,4.090929,-2.165783,0.893211,-0.571045,0.102783,-0.788086,-0.043133,-0.122315,-0.089105,0.999722,0.020453,-0.010828,0.004466,0.713249,-0.161686,-0.310635,-0.607156
39474,NaN,-2.497096,-10.049763,-7.505466,-7.803843,-4.973307,-18.638579,4.568984,-2.132361,0.707011,-0.582764,0.068604,-0.777100,-0.023801,-0.098830,-0.077583,0.999676,0.022842,-0.010661,0.003535,0.715539,-0.152920,-0.331453,-0.595616
39475,NaN,-0.857393,-6.152936,-4.059421,-4.524753,-3.593145,-14.468790,4.116699,-1.957643,0.473480,-0.598877,0.042725,-0.764160,-0.008023,-0.060695,-0.041930,0.999737,0.020582,-0.009787,0.002367,0.724374,-0.141391,-0.353291,-0.574871
39476,NaN,3.746810,-0.383226,-1.674297,0.580572,-3.867149,-8.510376,2.717996,-2.056361,0.425979,-0.604980,0.034180,-0.749268,0.037646,-0.003528,-0.016406,0.999853,0.013589,-0.010281,0.002130,0.723773,-0.138196,-0.368215,-0.566986
39477,NaN,6.546283,-0.468860,-0.767062,0.531545,-5.262467,-5.852346,1.202525,-2.107208,0.494405,-0.615234,0.027588,-0.740723,0.065550,-0.004483,-0.007008,0.999923,0.006012,-0.010536,0.002472,0.728034,-0.137992,-0.381460,-0.552642
39478,NaN,10.003477,2.178820,2.590056,1.908130,-4.518662,-0.460596,-0.313791,-2.119396,0.618075,-0.630371,0.038330,-0.736572,0.099685,0.022138,0.026924,0.999938,-0.001569,-0.010597,0.003090,0.725429,-0.146167,-0.387876,-0.549490
39479,NaN,14.001012,8.026896,9.265641,4.993917,-0.465827,8.107898,-1.448181,-1.730181,0.471481,-0.637451,0.057617,-0.730225,0.139014,0.081271,0.093276,0.999934,-0.007241,-0.008651,0.002357,0.729740,-0.153021,-0.393050,-0.538122
39480,NaN,16.675525,10.905796,13.900859,6.060940,2.047134,13.624800,-0.337468,-0.724730,0.068772,-0.638916,0.042725,-0.728027,0.166213,0.109350,0.139427,0.999992,-0.001687,-0.003624,0.000344,0.728228,-0.156343,-0.394750,-0.537971
39481,NaN,12.723525,7.331292,14.683046,1.769284,3.996020,10.487836,2.683933,0.015422,-0.214293,-0.634033,0.016846,-0.728027,0.127324,0.071198,0.147786,0.999909,0.013419,0.000077,-0.001071,0.734221,-0.143805,-0.404366,-0.526049
39482,NaN,7.133745,1.462055,10.617885,-2.761794,2.597478,2.490783,4.005288,-0.072272,-0.420239,-0.637451,-0.006592,-0.727783,0.071327,0.012340,0.106467,0.999797,0.020025,-0.000361,-0.002101,0.735691,-0.128421,-0.415405,-0.519331
39483,NaN,0.855668,-2.470514,4.126806,-4.085757,0.817860,-7.262979,3.715547,0.146618,-0.611952,-0.623779,-0.041016,-0.725342,0.008510,-0.025492,0.040793,0.999822,0.018577,0.000733,-0.003060,0.740973,-0.110551,-0.426654,-0.506660
39484,NaN,-9.663056,-7.688787,-19.263002,2.986639,-8.487570,-30.847008,6.425278,0.415875,-0.395733,-0.620117,-0.094482,-0.718750,-0.097178,-0.070461,-0.194761,0.999480,0.032121,0.002079,-0.001978,0.744014,-0.084802,-0.441404,-0.494383
39485,NaN,-14.149738,-21.792770,-28.553306,-1.240420,-17.783439,-44.046052,8.006742,-1.068246,0.613045,-0.631348,-0.137451,-0.695068,-0.139294,-0.206679,-0.294707,0.999180,0.040023,-0.005340,0.003064,0.750140,-0.055998,-0.465821,-0.466009
39486,NaN,-1.094704,-22.540728,20.446439,-30.305750,-1.004975,-7.009267,-1.895987,-2.120512,0.692168,-0.643311,-0.092529,-0.691162,-0.012353,-0.223497,0.206463,0.999893,-0.009480,-0.010602,0.003461,0.746192,-0.069662,-0.469133,-0.467182
39487,NaN,11.861808,1.424286,23.504874,-12.020447,6.491957,12.735172,-5.007029,-1.857441,1.330288,-0.668457,-0.098877,-0.682617,0.116307,0.020917,0.235668,0.999621,-0.025032,-0.009286,0.006651,0.746542,-0.093811,-0.465108,-0.466422
39488,NaN,58.893304,65.216980,-38.419738,80.702221,-18.750808,38.383669,12.061107,-3.900760,-0.620853,-0.687012,-0.184814,-0.624756,0.597822,0.671421,-0.332469,0.997987,0.060265,-0.019491,-0.003102,0.740169,-0.056286,-0.507142,-0.437937
39489,NaN,66.668676,32.884459,-23.963611,45.784674,-29.948432,45.909270,8.007391,-3.503917,-2.036868,-0.696533,-0.221436,-0.605469,0.673958,0.330933,-0.214644,0.998993,0.040024,-0.017514,-0.010181,0.731859,-0.025487,-0.539016,-0.416167
39490,NaN,18.951125,-8.412574,21.732991,-20.711748,-5.548281,11.221183,-3.859419,-1.036782,-1.731694,-0.695068,-0.199951,-0.609863,0.187662,-0.081529,0.219896,0.999763,-0.019296,-0.005184,-0.008658,0.724783,-0.037098,-0.534892,-0.432670
39491,NaN,-13.823985,-10.522517,7.040268,-12.984076,5.060181,-22.350074,-3.715632,-2.635424,-0.472407,-0.714111,-0.195557,-0.592773,-0.139414,-0.103587,0.070505,0.999738,-0.018577,-0.013176,-0.002362,0.719851,-0.050959,-0.538347,-0.435201
39492,NaN,-6.852855,-7.710242,-2.112262,-3.864520,-2.184801,-19.359575,2.486684,-3.405000,2.068551,-0.733398,-0.187256,-0.563232,-0.067345,-0.077523,-0.023238,0.999724,0.012432,-0.017023,0.010342,0.715609,-0.054978,-0.555357,-0.420072
39493,NaN,5.911221,-13.904131,-10.366432,-0.883299,-17.884297,-13.692371,0.321708,-2.580810,3.340153,-0.757324,-0.161377,-0.550537,0.062754,-0.137847,-0.103093,0.999776,0.001608,-0.012903,0.016700,0.718797,-0.064629,-0.566011,-0.398478
39494,NaN,11.210931,-10.406750,-4.973861,-2.440804,-15.215885,-5.209130,-0.420507,-2.644757,4.079221,-0.779297,-0.135742,-0.525391,0.114844,-0.101846,-0.048016,0.999702,-0.002102,-0.013222,0.020394,0.719075,-0.082938,-0.573212,-0.384031
39495,NaN,20.877027,-4.381428,-1.145467,-0.647673,-12.698107,7.350974,1.903579,-3.341336,4.312641,-0.805176,-0.116699,-0.500000,0.209806,-0.039208,-0.008343,0.999583,0.009517,-0.016704,0.021560,0.721507,-0.090550,-0.588942,-0.352670
39496,NaN,25.658981,1.648236,0.827295,1.785561,-8.029956,14.558762,2.515447,-3.315151,3.932284,-0.820557,-0.101807,-0.472656,0.256015,0.021378,0.012769,0.999590,0.012576,-0.016573,0.019659,0.719507,-0.098866,-0.603335,-0.329428
39497,NaN,25.283161,9.649300,-3.262007,9.640806,-2.275530,15.577698,2.527586,-3.286534,3.810745,-0.835938,-0.073975,-0.441162,0.251404,0.101659,-0.027218,0.999604,0.012636,-0.016430,0.019051,0.719750,-0.101604,-0.619370,-0.296677
39498,NaN,24.647299,13.876576,-1.692645,10.356375,3.537809,16.321233,1.494874,-2.763662,3.785158,-0.851318,-0.056885,-0.419922,0.243980,0.143504,-0.012482,0.999698,0.007474,-0.013817,0.018924,0.717332,-0.112017,-0.629443,-0.276927
39499,NaN,26.358131,17.494221,1.554086,9.065377,9.434240,19.029019,1.764551,-2.931419,3.211852,-0.873047,-0.039795,-0.392578,0.260448,0.178973,0.020941,0.999725,0.008822,-0.014656,0.016058,0.715446,-0.114732,-0.642626,-0.249009
39500,NaN,29.157356,12.191323,5.959237,2.146311,7.760467,21.320898,1.526306,-3.121182,2.654901,-0.875244,-0.029053,-0.365234,0.288938,0.125278,0.065063,0.999761,0.007631,-0.015605,0.013273,0.709410,-0.121663,-0.654035,-0.232751
39501,NaN,29.538982,14.500559,10.361349,-1.560903,13.008115,22.099204,1.650188,-3.109341,2.038254,-0.890381,-0.016357,-0.341797,0.292227,0.147108,0.109381,0.999793,0.008250,-0.015546,0.010191,0.703960,-0.120930,-0.667641,-0.209933
39502,NaN,22.948812,12.237635,10.103767,-3.140305,12.650835,14.855322,0.511009,-2.744776,2.056926,-0.901611,0.004883,-0.314453,0.226797,0.124454,0.104479,0.999850,0.002555,-0.013723,0.010284,0.697142,-0.128862,-0.676515,-0.199288
39503,NaN,17.193196,8.888677,9.796143,-5.241190,10.631009,8.354468,0.706671,-2.517969,2.217730,-0.904053,0.021973,-0.297852,0.169681,0.090425,0.100425,0.999853,0.003533,-0.012589,0.011088,0.694400,-0.123157,-0.687793,-0.171992
39504,NaN,11.040892,4.633318,6.371463,-4.091601,6.203034,1.533186,1.439244,-2.290631,2.453834,-0.910645,0.032715,-0.282959,0.109091,0.047211,0.065307,0.999833,0.007196,-0.011453,0.012268,0.689384,-0.128548,-0.695379,-0.157075
39505,NaN,10.651278,4.537437,3.345007,-1.753987,5.200895,0.915212,1.765816,-2.173152,2.287097,-0.915283,0.047607,-0.259766,0.105612,0.046281,0.035007,0.999837,0.008829,-0.010865,0.011435,0.686643,-0.120284,-0.705376,-0.128445
39506,NaN,8.999810,3.926057,0.574450,0.491061,3.948161,-0.818064,1.875436,-1.761253,2.179868,-0.916016,0.071289,-0.249512,0.089506,0.040177,0.006908,0.999858,0.009377,-0.008806,0.010899,0.682842,-0.122646,-0.711236,-0.113261
39507,NaN,4.521155,4.752516,-0.083815,1.281440,4.662068,-5.379403,1.664155,-1.684292,1.898616,-0.924561,0.077637,-0.236816,0.044760,0.047954,-0.000062,0.999885,0.008320,-0.008421,0.009493,0.679847,-0.115043,-0.718733,-0.089417
39508,NaN,-2.665567,8.494457,3.210229,-0.507668,8.894666,-13.004822,0.650011,-1.985864,1.730758,-0.922852,0.090332,-0.215820,-0.027708,0.084603,0.032106,0.999908,0.003250,-0.009929,0.008654,0.673775,-0.119928,-0.724733,-0.080038
39509,NaN,-0.186944,15.568028,8.194953,-3.861805,17.071876,-11.595422,0.068277,-2.723442,1.298227,-0.929199,0.098877,-0.190430,-0.003996,0.155631,0.081958,0.999886,0.000341,-0.013617,0.006491,0.664933,-0.116798,-0.734841,-0.065039
39510,NaN,1.866955,22.376724,8.924830,-2.815062,23.990393,-10.424336,-1.380335,-2.661285,0.573800,-0.931396,0.103027,-0.169189,0.016850,0.224427,0.087933,0.999884,-0.006901,-0.013306,0.002869,0.654437,-0.124344,-0.742840,-0.066631
39511,NaN,0.848956,18.491048,4.875791,0.226466,19.113180,-10.817337,-3.608520,-1.751846,0.007153,-0.933594,0.105225,-0.148193,0.008075,0.185751,0.045483,0.999799,-0.018041,-0.008759,0.000036,0.646103,-0.129247,-0.748751,-0.072239
39512,NaN,-4.208973,6.737191,6.099552,-3.104646,7.786210,-15.292693,-4.272913,-0.829081,-0.538539,-0.933594,0.107422,-0.145996,-0.042154,0.068765,0.059362,0.999760,-0.021363,-0.004145,-0.002692,0.639867,-0.141300,-0.750074,-0.089410
39513,NaN,-6.717836,4.756366,9.021586,-5.934383,6.704522,-18.117102,-2.955545,0.048833,-0.865661,-0.935303,0.096680,-0.137451,-0.066946,0.049180,0.089513,0.999881,-0.014777,0.000244,-0.004328,0.638253,-0.140635,-0.750552,-0.097609
39514,NaN,-5.297684,4.242107,9.955103,-6.975386,6.918678,-16.786286,-2.574778,0.275209,-1.204820,-0.935059,0.087891,-0.139648,-0.052578,0.044016,0.099064,0.999898,-0.012873,0.001376,-0.006024,0.636800,-0.144180,-0.749208,-0.111289
39515,NaN,3.595364,-5.147166,8.946158,-10.600459,-1.552674,-7.651080,-1.445117,0.927066,-1.462723,-0.932617,0.072998,-0.152100,0.035994,-0.051087,0.089665,0.999936,-0.007225,0.004635,-0.007313,0.639387,-0.135925,-0.747772,-0.116386
39516,NaN,4.933295,-12.823292,4.062006,-8.991160,-10.332367,-5.608538,-0.928008,2.265345,-1.267357,-0.926025,0.064453,-0.175293,0.048980,-0.128355,0.040659,0.999905,-0.004640,0.011326,-0.006337,0.646406,-0.132821,-0.740801,-0.125426
39517,NaN,2.797474,-5.981363,6.532655,-8.515041,-3.192963,-7.921919,0.128090,2.911648,-0.982052,-0.923828,0.056152,-0.202881,0.028627,-0.059995,0.064875,0.999882,0.000640,0.014558,-0.004910,0.656684,-0.126372,-0.732126,-0.129571
39518,NaN,4.136408,1.417890,3.408983,-3.045240,2.566718,-5.955592,-0.753700,3.028658,-1.059339,-0.917236,0.043213,-0.226074,0.041948,0.014084,0.033404,0.999864,-0.003768,0.015143,-0.005296,0.666498,-0.122989,-0.722285,-0.137694
39519,NaN,6.313530,2.607495,2.298418,-1.603431,3.159114,-3.536947,-1.649367,3.363329,-1.165851,-0.910889,0.041260,-0.251465,0.063659,0.025887,0.021703,0.999808,-0.008246,0.016816,-0.005829,0.676878,-0.121271,-0.710597,-0.148935
39520,NaN,7.897513,-0.326785,3.260867,-3.442681,0.615830,-2.010712,-1.621514,3.816550,-1.143270,-0.900146,0.034912,-0.285156,0.079559,-0.003465,0.031122,0.999769,-0.008107,0.019081,-0.005716,0.688426,-0.119826,-0.697025,-0.160835
39521,NaN,8.574491,-0.163282,3.870598,-3.685638,0.785819,-1.191967,-0.856429,3.975675,-1.077162,-0.891357,0.021973,-0.308350,0.086482,-0.001936,0.037000,0.999779,-0.004282,0.019877,-0.005385,0.700907,-0.115320,-0.683179,-0.169402
39522,NaN,10.689824,3.071786,-0.374898,1.842349,1.664714,1.034631,-0.400907,4.185764,-1.137544,-0.878662,0.017822,-0.352783,0.106960,0.030099,-0.006048,0.999763,-0.002004,0.020927,-0.005687,0.713824,-0.109267,-0.668689,-0.177121
39523,NaN,17.233840,3.545418,-1.605847,3.934171,0.569591,7.400550,-0.262486,4.522454,-1.311582,-0.870117,0.007324,-0.384521,0.172143,0.034300,-0.019998,0.999722,-0.001312,0.022610,-0.006557,0.728897,-0.096668,-0.653580,-0.179438
39524,NaN,23.620637,10.596158,-3.980075,10.141337,4.655786,13.881421,-0.339963,4.711642,-1.415049,-0.850830,-0.001221,-0.418213,0.235920,0.104217,-0.045539,0.999696,-0.001700,0.023556,-0.007075,0.742619,-0.089027,-0.636614,-0.187920
39525,NaN,33.081135,15.589345,-2.843660,13.276774,7.216650,23.606532,-0.432900,5.055384,-1.631512,-0.827148,-0.016113,-0.460449,0.331203,0.153118,-0.037139,0.999645,-0.002164,0.025274,-0.008157,0.757471,-0.078215,-0.618252,-0.194640
39526,NaN,43.627088,21.803439,0.861559,15.799141,10.568792,35.103161,-1.531664,5.427518,-2.237485,-0.803711,-0.026611,-0.500732,0.438663,0.213132,-0.004913,0.999540,-0.007657,0.027133,-0.011186,0.771104,-0.071782,-0.596824,-0.209872
39527,NaN,41.516047,11.379082,3.022406,11.146436,0.466395,31.865627,-2.578460,5.303330,-3.053605,-0.776123,-0.035156,-0.547363,0.417417,0.107711,0.017759,0.999449,-0.012890,0.026512,-0.015265,0.782941,-0.065311,-0.574678,-0.229092
39528,NaN,35.237549,-0.798615,5.111888,4.116705,-9.674366,24.209486,-2.825314,5.584946,-3.263015,-0.742188,-0.041260,-0.585449,0.353436,-0.013117,0.041419,0.999377,-0.014124,0.027919,-0.016312,0.793823,-0.060559,-0.550317,-0.251654
39529,NaN,35.597009,-0.221163,4.409389,6.299516,-11.228081,23.661053,-2.180918,5.349018,-3.169652,-0.714111,-0.054199,-0.617188,0.356890,-0.007452,0.034618,0.999457,-0.010903,0.026740,-0.015845,0.803651,-0.053118,-0.527151,-0.270990
39530,NaN,34.556574,-1.239654,1.523853,8.699610,-14.383405,20.438835,-1.456004,4.202994,-3.594610,-0.694824,-0.069092,-0.642578,0.345490,-0.018531,0.008097,0.999591,-0.007279,0.021012,-0.017971,0.809128,-0.043780,-0.509058,-0.290269
39531,NaN,30.949486,2.047150,-1.147603,11.522247,-12.638499,16.084797,-0.621811,2.117550,-4.556661,-0.668457,-0.096924,-0.657227,0.309708,0.013374,-0.014804,0.999680,-0.003109,0.010587,-0.022781,0.806923,-0.032402,-0.500520,-0.311938
39532,NaN,25.009355,11.440795,1.906745,12.267230,-2.585365,14.736537,-1.039777,2.026277,-4.532615,-0.651123,-0.109619,-0.669922,0.252774,0.108787,0.015940,0.999678,-0.005198,0.010130,-0.022661,0.804482,-0.022087,-0.491324,-0.333048
39533,NaN,20.660098,18.152807,-3.471941,19.183250,1.428229,10.141744,-3.036963,2.787747,-3.818811,-0.627930,-0.107422,-0.699463,0.209473,0.176962,-0.040337,0.999605,-0.015183,0.013937,-0.019092,0.803335,-0.021455,-0.475435,-0.357986
39534,NaN,14.269915,10.733217,-2.891388,12.957207,-1.448224,2.721286,-3.986397,3.957222,-2.699609,-0.592529,-0.094482,-0.725098,0.143488,0.104757,-0.033853,0.999515,-0.019929,0.019783,-0.013496,0.807078,-0.023960,-0.452495,-0.378549
39535,NaN,10.357081,12.981408,0.957815,10.983576,3.126130,2.279684,-3.677777,3.467093,-1.831456,-0.569580,-0.077393,-0.748535,0.104872,0.128982,0.005390,0.999639,-0.018387,0.017333,-0.009156,0.809031,-0.029772,-0.431734,-0.397729
39536,NaN,9.148630,11.291314,1.855754,9.404887,2.550311,1.124930,-4.163682,2.796174,-1.352605,-0.549561,-0.042969,-0.765869,0.092474,0.112626,0.014922,0.999663,-0.020816,0.013979,-0.006762,0.811472,-0.038129,-0.412229,-0.412464
39537,NaN,7.182295,6.696517,-0.155656,7.228145,-0.478415,-3.182904,-5.300273,2.399268,-0.943524,-0.527344,-0.008545,-0.781006,0.072098,0.066538,-0.004188,0.999566,-0.026498,0.011995,-0.004717,0.810570,-0.054862,-0.391523,-0.432060
39538,NaN,5.440843,0.132670,-2.281327,3.140481,-4.533056,-7.712732,-5.929260,1.997156,-0.698780,-0.520020,0.034180,-0.793945,0.054179,0.000450,-0.023377,0.999505,-0.029641,0.009984,-0.003493,0.810931,-0.073186,-0.370649,-0.446826
39539,NaN,2.620907,-3.767267,-4.578113,0.141511,-6.053213,-12.125635,-5.680171,1.314594,-0.505169,-0.508545,0.072754,-0.802734,0.025815,-0.039021,-0.044856,0.999572,-0.028397,0.006572,-0.002525,0.807245,-0.094133,-0.352415,-0.464002
39540,NaN,0.797069,-6.481144,-5.487075,-2.584663,-6.729363,-14.369918,-5.043948,0.474097,-0.316118,-0.509521,0.109375,-0.796875,0.007739,-0.066180,-0.053232,0.999678,-0.025217,0.002370,-0.001580,0.804703,-0.112809,-0.338865,-0.474233
39541,NaN,-0.012353,-8.232000,-6.122818,-4.459220,-7.336361,-15.428158,-4.068725,-0.120414,-0.231236,-0.504150,0.139160,-0.801270,-0.000183,-0.083543,-0.059537,0.999792,-0.020342,-0.000602,-0.001156,0.799738,-0.130172,-0.329553,-0.484632
39542,NaN,-1.130787,-7.118002,-8.357347,-3.270967,-7.184288,-17.524238,-2.943157,-0.531523,-0.013606,-0.513184,0.160645,-0.792969,-0.011092,-0.072399,-0.082544,0.999888,-0.014715,-0.002658,-0.000068,0.796816,-0.143200,-0.324548,-0.489129
39543,NaN,-3.707589,-5.390097,-8.732845,-2.626298,-4.859068,-19.222847,-1.693761,-0.767948,0.206784,-0.513672,0.171387,-0.788818,-0.036685,-0.054677,-0.087009,0.999956,-0.008469,-0.003840,0.001034,0.794764,-0.152181,-0.323510,-0.490440
39544,NaN,-6.383169,-4.469172,-8.691738,-2.721614,-2.685485,-20.841937,-0.207158,-0.982623,0.396984,-0.519775,0.165039,-0.782227,-0.063315,-0.044908,-0.087183,0.999985,-0.001036,-0.004913,0.001985,0.793970,-0.156063,-0.326629,-0.488435
39545,NaN,-8.591738,-8.055665,-7.383843,-6.943800,-2.349713,-21.623327,0.975901,-1.161040,0.546383,-0.530273,0.162842,-0.773926,-0.085265,-0.080427,-0.074727,0.999968,0.004879,-0.005805,0.002732,0.795514,-0.154969,-0.333816,-0.481362
39546,NaN,-9.117589,-11.772436,-7.431078,-10.120801,-4.058774,-22.383458,2.027567,-1.215629,0.566577,-0.536133,0.145752,-0.775879,-0.090385,-0.117216,-0.076052,0.999926,0.010138,-0.006078,0.002833,0.796352,-0.150773,-0.343096,-0.474739
39547,NaN,-10.254475,-11.691322,-10.053915,-8.903678,-5.096110,-25.228226,3.367232,-1.671867,0.407092,-0.547852,0.117676,-0.764893,-0.101453,-0.115396,-0.103342,0.999821,0.016835,-0.008359,0.002035,0.798153,-0.141040,-0.357928,-0.463624
39548,NaN,-8.720601,-10.263426,-11.750374,-5.774707,-6.583157,-25.391606,4.410183,-2.724476,0.271154,-0.566162,0.085449,-0.751953,-0.085437,-0.100110,-0.120902,0.999663,0.022048,-0.013621,0.001356,0.796736,-0.130203,-0.378739,-0.452565
39549,NaN,-2.222409,-8.373321,-8.838190,-2.946168,-8.245562,-18.557130,4.043133,-3.008254,0.204673,-0.586426,0.057617,-0.736816,-0.020790,-0.081941,-0.090371,0.999682,0.020214,-0.015040,0.001023,0.794183,-0.121054,-0.399825,-0.441316
39550,NaN,-0.686106,-5.574792,-4.770668,-2.003537,-5.480862,-14.312488,2.843633,-3.048252,0.103265,-0.602783,0.042725,-0.719727,-0.006096,-0.055064,-0.048590,0.999783,0.014217,-0.015240,0.000516,0.789854,-0.116676,-0.418081,-0.433273
39551,NaN,1.229678,-2.637065,-3.799201,0.454821,-4.392157,-11.656708,1.734687,-3.266167,0.264817,-0.630127,0.033936,-0.704834,0.012952,-0.026024,-0.038011,0.999828,0.008673,-0.016330,0.001324,0.784809,-0.117197,-0.434726,-0.425856
39552,NaN,4.422423,-0.152406,-2.837409,2.671135,-4.140874,-7.983113,1.106943,-3.366528,0.461794,-0.640381,0.023193,-0.683594,0.044697,-0.001267,-0.027632,0.999840,0.005534,-0.016832,0.002309,0.778985,-0.121013,-0.449981,-0.419589
39553,NaN,7.904831,2.384273,-0.121435,3.748513,-2.789570,-3.004918,1.127075,-3.286552,0.631438,-0.661377,0.018799,-0.660156,0.078977,0.024094,0.000219,0.999844,0.005635,-0.016432,0.003157,0.773866,-0.124574,-0.464933,-0.411643
39554,NaN,13.575645,8.194161,6.282541,5.244447,1.890145,6.306117,1.184508,-2.529709,0.676078,-0.671631,0.012451,-0.647461,0.134666,0.082017,0.065019,0.999897,0.005922,-0.012648,0.003380,0.770021,-0.126762,-0.476717,-0.404647
39555,NaN,18.193224,11.300337,12.007858,4.595612,5.220252,13.734982,1.582154,-1.132310,0.494231,-0.675537,-0.000488,-0.643066,0.180967,0.112491,0.121996,0.999950,0.007911,-0.005661,0.002471,0.769754,-0.123621,-0.484198,-0.397176
39556,NaN,19.727321,6.071131,16.754776,-2.409454,3.809518,16.386653,3.452476,-0.069379,0.401261,-0.670654,-0.026123,-0.640869,0.197096,0.058202,0.168635,0.999849,0.017262,-0.000347,0.002006,0.772386,-0.111431,-0.491028,-0.387163
39557,NaN,20.133093,-0.250456,15.606173,-6.462996,-1.623763,14.774317,3.957172,0.169057,0.143679,-0.667725,-0.049805,-0.638428,0.201466,-0.005444,0.155803,0.999804,0.019785,0.000845,0.000718,0.775698,-0.095412,-0.498079,-0.375643
39558,NaN,13.813034,-4.968557,7.645071,-5.678351,-6.341872,4.381130,2.079026,0.447194,-0.401357,-0.658691,-0.064697,-0.644775,0.138199,-0.050752,0.075618,0.999941,0.010395,0.002236,-0.002007,0.776989,-0.085509,-0.500439,-0.372206
39559,NaN,3.603469,-8.186713,4.996265,-8.169439,-5.135081,-6.369147,1.486834,1.277413,-0.651910,-0.643555,-0.081787,-0.651123,0.036082,-0.082352,0.049121,0.999947,0.007434,0.006387,-0.003259,0.779707,-0.075617,-0.498631,-0.371088
39560,NaN,-3.635666,-15.203175,-22.593071,6.071828,-19.631464,-28.043517,5.057011,2.632299,-0.037891,-0.629395,-0.122559,-0.648682,-0.039387,-0.146257,-0.229173,0.999594,0.025282,0.013160,-0.000189,0.787779,-0.050901,-0.497592,-0.359467
39561,NaN,-1.073580,-25.132337,-4.268573,-12.109855,-20.002959,-20.018037,4.155462,1.011888,0.239999,-0.620850,-0.129150,-0.650635,-0.010668,-0.250378,-0.047841,0.999771,0.020776,0.005059,0.001200,0.791807,-0.033162,-0.501032,-0.347719
39562,NaN,2.369245,-7.799173,15.040488,-15.467199,-0.760644,-2.546689,-4.469836,-0.248956,0.382916,-0.627930,-0.105469,-0.655029,0.023649,-0.074559,0.152126,0.999748,-0.022347,-0.001245,0.001914,0.790893,-0.052245,-0.494085,-0.357265
39563,NaN,8.960233,27.580332,-9.661496,25.975272,12.338740,0.532586,5.926810,-2.008786,1.548697,-0.649658,-0.154785,-0.614502,0.088358,0.279174,-0.087483,0.999481,0.029629,-0.010042,0.007742,0.790111,-0.036024,-0.512068,-0.334983
39564,NaN,44.907375,46.409640,-54.749589,79.662824,-4.967088,18.293586,11.071496,-3.687487,-0.002140,-0.660400,-0.215088,-0.563232,0.458745,0.493112,-0.512322,0.998298,0.055326,-0.018427,-0.000011,0.781303,0.001580,-0.544317,-0.305420
39565,NaN,34.741445,6.224771,-15.024108,22.803799,-16.341480,16.342501,5.258859,-3.985516,-1.901521,-0.669922,-0.247314,-0.541748,0.350889,0.062722,-0.141626,0.999411,0.026289,-0.019924,-0.009506,0.767130,0.021395,-0.567763,-0.297826
39566,NaN,13.398078,1.380563,32.753958,-25.651138,5.059889,14.073493,-3.530810,0.622959,-0.536417,-0.664307,-0.223633,-0.563232,0.135046,0.019218,0.326813,0.999836,-0.017653,0.003115,-0.002682,0.768332,0.010296,-0.559993,-0.309786
39567,NaN,-4.158428,-4.338955,10.223535,-11.613149,1.933582,-11.237959,-0.400697,-2.407890,0.765311,-0.676758,-0.230225,-0.527100,-0.042646,-0.043347,0.101813,0.999918,-0.002003,-0.012039,0.003826,0.762840,0.003088,-0.568810,-0.307444
39568,NaN,2.398402,-2.780443,-11.698825,9.414882,-7.346913,-12.587005,3.282346,-3.123412,2.375114,-0.697998,-0.228027,-0.514404,0.026124,-0.025582,-0.117023,0.999673,0.016410,-0.015615,0.011874,0.757289,0.004047,-0.585645,-0.288993
39569,NaN,11.563163,-11.434746,-11.913308,7.295857,-18.557187,-6.857373,-0.872264,-2.530691,3.120521,-0.713379,-0.202393,-0.491211,0.118893,-0.113023,-0.117147,0.999789,-0.004361,-0.012653,0.015602,0.754336,-0.011830,-0.594094,-0.279088
39570,NaN,17.420935,-5.810028,-3.541697,2.968486,-12.945020,3.353360,0.678529,-3.019478,3.383162,-0.737061,-0.189697,-0.461670,0.175668,-0.055022,-0.032962,0.999737,0.003392,-0.015096,0.016914,0.749910,-0.023532,-0.606099,-0.264055
39571,NaN,24.898330,1.032852,0.978181,2.511717,-7.333677,13.888126,2.797270,-3.248186,3.829708,-0.758545,-0.174805,-0.434326,0.248522,0.014914,0.014008,0.999587,0.013984,-0.016239,0.019146,0.745248,-0.028614,-0.621487,-0.239876
39572,NaN,30.008361,5.067631,-1.547611,6.531172,-4.942476,19.534592,3.045234,-2.991231,4.104208,-0.775879,-0.159912,-0.404785,0.299135,0.057004,-0.010161,0.999562,0.015224,-0.014954,0.020518,0.740964,-0.033597,-0.635451,-0.214583
39573,NaN,35.191394,12.381767,-3.316325,10.880026,1.396366,25.994258,1.850285,-1.950460,4.135872,-0.782959,-0.138428,-0.385742,0.349543,0.131341,-0.028554,0.999696,0.009250,-0.009751,0.020677,0.739348,-0.041615,-0.643999,-0.192086
39574,NaN,33.687927,13.844493,4.619753,3.142218,7.178749,26.051259,2.986105,-2.603888,3.476708,-0.795898,-0.121338,-0.356201,0.333756,0.143511,0.052674,0.999653,0.014929,-0.013018,0.017382,0.734646,-0.044258,-0.655571,-0.169004
39575,NaN,30.230628,14.073173,5.403995,1.163757,9.561219,22.563054,3.028346,-2.718099,2.700431,-0.802246,-0.119385,-0.335205,0.299586,0.143908,0.060287,0.999702,0.015140,-0.013589,0.013501,0.728449,-0.043957,-0.667534,-0.147740
39576,NaN,27.038757,15.055687,9.357120,-3.661052,12.955406,19.579430,3.272532,-2.808123,2.657304,-0.815430,-0.104492,-0.307617,0.266997,0.152520,0.099821,0.999679,0.016361,-0.014039,0.013285,0.721503,-0.042966,-0.679406,-0.126468
39577,NaN,22.456269,10.851687,7.237504,-3.777235,9.776369,13.945819,2.552703,-2.597124,3.325774,-0.822266,-0.085205,-0.284668,0.221751,0.111260,0.076675,0.999696,0.012762,-0.012984,0.016627,0.715037,-0.046454,-0.689645,-0.104662
39578,NaN,18.727621,8.820492,4.236893,-2.031732,8.192219,9.556567,2.196670,-2.544533,3.021314,-0.829102,-0.068115,-0.259277,0.185353,0.090525,0.045721,0.999745,0.010982,-0.012722,0.015105,0.708149,-0.050336,-0.699038,-0.085661
39579,NaN,15.523673,6.119930,2.334960,-1.234632,5.877783,5.928347,2.220165,-2.574460,2.508141,-0.827393,-0.051025,-0.236084,0.154132,0.062858,0.026030,0.999777,0.011100,-0.012871,0.012540,0.700525,-0.052172,-0.708464,-0.067984
39580,NaN,9.442018,6.279730,0.576754,0.177971,6.228308,-0.321958,3.972461,-1.892095,2.600719,-0.835938,-0.040283,-0.215088,0.093526,0.063874,0.007917,0.999673,0.019860,-0.009459,0.013002,0.695490,-0.048093,-0.715556,-0.044280
39581,NaN,1.596465,7.760429,-0.952812,1.784806,7.627402,-8.292665,2.942209,-1.968901,2.036487,-0.836182,-0.029785,-0.196045,0.015258,0.077890,-0.008231,0.999792,0.014710,-0.009844,0.010182,0.689342,-0.045467,-0.722542,-0.025938
39582,NaN,-1.721001,4.596617,2.706266,-2.170533,4.750162,-11.846647,1.906965,-2.124023,1.753751,-0.838623,-0.019043,-0.177246,-0.017900,0.045552,0.027311,0.999860,0.009534,-0.010620,0.008768,0.682208,-0.045495,-0.729634,-0.012509
39583,NaN,-2.460336,11.213885,4.720482,-3.589829,11.386192,-13.211120,0.481049,-2.437784,1.282377,-0.832275,-0.012695,-0.156006,-0.025896,0.111862,0.047164,0.999902,0.002405,-0.012189,0.006412,0.673315,-0.048628,-0.737733,-0.005689
39584,NaN,1.108786,20.219824,4.958457,-3.237490,20.584852,-10.462733,-1.748694,-2.869203,0.783755,-0.832520,-0.001953,-0.132812,0.009598,0.202662,0.047959,0.999851,-0.008743,-0.014345,0.003919,0.662203,-0.057475,-0.747065,-0.008792
39585,NaN,5.587477,18.754357,5.612001,-4.200992,19.597497,-6.246555,-2.225656,-2.401643,0.486348,-0.826172,0.000000,-0.118164,0.054755,0.188292,0.054689,0.999863,-0.011128,-0.012008,0.002432,0.652409,-0.066846,-0.754766,-0.014939
39586,NaN,4.292281,8.447394,7.053436,-6.401358,9.586540,-7.234859,-3.024187,-1.744116,0.284358,-0.819824,0.002197,-0.111816,0.042192,0.085592,0.069616,0.999847,-0.015120,-0.008720,0.001422,0.644711,-0.077899,-0.760041,-0.024828
39587,NaN,2.032749,4.091876,9.165736,-8.558596,5.621612,-9.655618,-3.285060,-1.154586,-0.018029,-0.822021,0.004150,-0.099121,0.019804,0.042416,0.091084,0.999848,-0.016424,-0.005773,-0.000090,0.638838,-0.088765,-0.763293,-0.037281
39588,NaN,-0.248339,1.478708,8.111185,-7.520127,2.872910,-11.610515,-1.611268,-0.023071,0.001709,-0.817871,0.004395,-0.105469,-0.002493,0.015440,0.080989,0.999968,-0.008056,-0.000115,0.000009,0.637989,-0.093916,-0.763064,-0.043402
39589,NaN,-1.356400,0.761860,6.809728,-6.189185,1.945034,-12.401626,-1.266647,0.789342,-0.100449,-0.813477,0.002197,-0.107666,-0.013291,0.008057,0.068100,0.999972,-0.006333,0.003947,-0.000502,0.640282,-0.097629,-0.760312,-0.049328
39590,NaN,-3.736852,0.341906,9.641733,-8.626850,2.028268,-15.151656,-1.453529,1.001462,-0.487342,-0.809082,-0.004150,-0.114014,-0.036876,0.004211,0.096574,0.999958,-0.007268,0.005007,-0.002437,0.643207,-0.100175,-0.756976,-0.056889
39591,NaN,-3.019801,-3.141214,10.600814,-10.470002,-0.870174,-14.392988,-2.138353,0.897237,-0.774186,-0.804688,-0.008545,-0.122314,-0.029839,-0.030159,0.106469,0.999925,-0.010691,0.004486,-0.003871,0.645198,-0.104083,-0.753803,-0.068322
39592,NaN,3.505625,-5.191248,3.666489,-5.300551,-3.910737,-6.764432,-1.306725,1.703644,-0.951423,-0.798096,-0.019287,-0.135010,0.035122,-0.051840,0.036705,0.999931,-0.006533,0.008518,-0.004757,0.650544,-0.104120,-0.748327,-0.077187
39593,NaN,1.638752,-1.825010,1.573321,-2.173861,-1.289262,-8.362373,0.049366,2.617546,-0.904352,-0.787354,-0.027832,-0.151855,0.016509,-0.018328,0.015513,0.999904,0.000247,0.013087,-0.004522,0.659910,-0.099728,-0.740209,-0.081629
39594,NaN,0.118863,3.875624,0.653604,0.353256,3.916069,-9.780200,-0.308266,2.956277,-1.111007,-0.780762,-0.038330,-0.170898,0.001500,0.038758,0.006456,0.999874,-0.001541,0.014781,-0.005555,0.670136,-0.095412,-0.730814,-0.087888
39595,NaN,1.428874,4.613651,-0.446729,1.544922,4.348952,-8.320779,-1.242931,3.103969,-1.258546,-0.774170,-0.046875,-0.191895,0.014504,0.046016,-0.004978,0.999840,-0.006214,0.015519,-0.006292,0.680179,-0.093766,-0.720326,-0.098461
39596,NaN,4.068247,3.551954,0.045480,0.759397,3.384926,-5.673685,-1.284368,3.425981,-1.401328,-0.767822,-0.051025,-0.213135,0.040927,0.035232,-0.000472,0.999808,-0.006421,0.017129,-0.007006,0.691072,-0.091380,-0.708587,-0.109429
39597,NaN,6.120954,2.187798,1.231428,-0.626497,2.233512,-3.617427,-1.072072,3.821647,-1.557392,-0.752441,-0.070312,-0.242676,0.061597,0.021461,0.011024,0.999773,-0.005360,0.019107,-0.007786,0.703047,-0.087640,-0.695316,-0.120750
39598,NaN,7.972000,1.971683,1.880410,-1.043791,1.938996,-1.681581,-0.962836,4.100218,-1.712744,-0.739502,-0.081055,-0.268066,0.080247,0.019116,0.017069,0.999742,-0.004814,0.020499,-0.008563,0.715640,-0.082570,-0.680919,-0.131873
39599,NaN,10.949380,2.875516,0.555524,0.958604,1.888040,1.320975,-1.095488,4.203282,-1.903336,-0.728760,-0.091553,-0.295410,0.109843,0.027732,0.003095,0.999719,-0.005477,0.021014,-0.009516,0.727964,-0.077393,-0.665717,-0.144565
39600,NaN,16.473271,3.361579,-1.948942,4.389955,0.526875,6.523070,-0.800716,4.534237,-2.116863,-0.713379,-0.108643,-0.322754,0.164575,0.031785,-0.023352,0.999679,-0.004003,0.022669,-0.010583,0.740960,-0.069958,-0.649269,-0.156633
39601,NaN,25.725852,9.268401,-4.465585,10.470481,3.216622,15.633711,-0.134218,4.928397,-2.338917,-0.685303,-0.127930,-0.352295,0.257113,0.089644,-0.051054,0.999628,-0.000671,0.024639,-0.011693,0.754702,-0.059141,-0.631461,-0.167884
39602,NaN,36.862323,18.377101,2.963695,9.466030,10.699924,28.927383,-0.915556,4.948801,-2.721396,-0.666016,-0.142822,-0.384033,0.371648,0.178832,0.019639,0.999591,-0.004577,0.024741,-0.013605,0.767440,-0.049826,-0.612595,-0.182428
39603,NaN,42.938169,20.743313,6.556664,9.985326,10.634076,36.049342,-1.982016,5.283357,-3.455281,-0.633789,-0.155518,-0.413574,0.434382,0.200517,0.052124,0.999453,-0.009908,0.026412,-0.017273,0.779376,-0.042184,-0.591042,-0.203625
39604,NaN,38.575383,3.140745,4.688288,6.046690,-7.028647,28.047626,-2.941077,5.149019,-4.011904,-0.608398,-0.161865,-0.445557,0.387317,0.024235,0.036532,0.999359,-0.014702,0.025740,-0.020055,0.789367,-0.036520,-0.568484,-0.228893
39605,NaN,34.387815,-1.683475,5.879796,3.236638,-11.545750,22.985731,-1.770486,5.335237,-4.004515,-0.571777,-0.178955,-0.479248,0.344864,-0.023267,0.049793,0.999405,-0.008851,0.026671,-0.020019,0.798909,-0.026151,-0.545823,-0.251271
39606,NaN,35.303491,-1.486774,3.246896,6.842778,-14.317966,21.918270,-1.548875,5.008365,-3.984148,-0.541992,-0.187500,-0.498291,0.353316,-0.021698,0.023773,0.999458,-0.007743,0.025037,-0.019917,0.806917,-0.015161,-0.524130,-0.271923
39607,NaN,34.537294,-0.190606,-1.593541,11.776111,-16.053941,18.448954,-1.075455,3.085056,-4.202697,-0.518066,-0.202393,-0.509033,0.344930,-0.009263,-0.021222,0.999646,-0.005377,0.015423,-0.021011,0.808713,-0.004356,-0.510432,-0.292273
39608,NaN,30.328659,10.061490,2.107957,12.281811,-6.050649,19.132258,0.185111,1.389935,-5.136202,-0.496338,-0.221680,-0.519531,0.305873,0.092763,0.019048,0.999646,0.000925,0.006949,-0.025678,0.804455,0.011530,-0.505044,-0.312489
39609,NaN,26.068850,22.336916,-2.256360,20.708648,2.927175,17.498160,-2.189765,1.855713,-4.871378,-0.464844,-0.215088,-0.540771,0.265781,0.216654,-0.027411,0.999600,-0.010947,0.009277,-0.024354,0.801146,0.017904,-0.493823,-0.337614
39610,NaN,21.472540,15.007894,-1.417799,15.521517,-1.539954,11.276850,-4.556922,3.651954,-3.635980,-0.437744,-0.200195,-0.560059,0.217053,0.145712,-0.021481,0.999409,-0.022780,0.018256,-0.018176,0.803942,0.014779,-0.470920,-0.362895
39611,NaN,15.479454,12.246238,-0.070214,11.899756,-0.682478,5.916188,-4.359374,3.613786,-2.581116,-0.412842,-0.180664,-0.581299,0.156279,0.120357,-0.006156,0.999516,-0.021793,0.018066,-0.012904,0.807440,0.009901,-0.448275,-0.383394
39612,NaN,12.001547,9.596137,2.260410,8.112469,-0.279040,3.427005,-4.132565,2.861409,-2.008879,-0.392334,-0.159180,-0.602783,0.121262,0.095164,0.018903,0.999634,-0.020660,0.014305,-0.010043,0.809896,0.003197,-0.428572,-0.400480
39613,NaN,9.077947,6.089783,1.351687,5.984252,-1.481031,-0.686149,-4.568540,2.510969,-1.534425,-0.376465,-0.126953,-0.615723,0.091393,0.060468,0.010987,0.999631,-0.022840,0.012553,-0.007671,0.811691,-0.006938,-0.409314,-0.416619
39614,NaN,6.839949,2.163995,0.883421,3.135797,-2.931505,-3.997490,-4.872512,1.846523,-1.189260,-0.358154,-0.099121,-0.628662,0.068602,0.021429,0.007678,0.999643,-0.024360,0.009232,-0.005946,0.812520,-0.020434,-0.391600,-0.431327
39615,NaN,4.122188,-1.215681,-0.861757,0.947259,-3.921932,-8.099936,-4.770728,1.216361,-0.935048,-0.354980,-0.064941,-0.637451,0.041112,-0.012554,-0.008572,0.999686,-0.023851,0.006081,-0.004675,0.811868,-0.035277,-0.376595,-0.444750
39616,NaN,2.887930,-4.529882,-2.065402,-1.362645,-5.527965,-10.653582,-4.098573,0.441078,-0.700208,-0.353760,-0.036865,-0.644043,0.028675,-0.045811,-0.019782,0.999781,-0.020491,0.002205,-0.003501,0.810228,-0.049613,-0.365766,-0.455286
39617,NaN,1.816683,-7.123293,-2.842793,-3.487173,-6.554656,-12.457244,-3.243998,-0.298483,-0.420745,-0.352295,-0.019775,-0.639893,0.018058,-0.071719,-0.027240,0.999865,-0.016219,-0.001492,-0.002104,0.807587,-0.062570,-0.359908,-0.462985
39618,NaN,0.170105,-9.307877,-4.143782,-5.245556,-7.153832,-14.826539,-2.262963,-0.839688,-0.056692,-0.353027,0.005859,-0.637939,0.001846,-0.093540,-0.040374,0.999927,-0.011315,-0.004198,-0.000283,0.805165,-0.073552,-0.358085,-0.466985
39619,NaN,-3.270145,-11.000635,-4.686201,-7.504628,-5.960077,-17.675523,-1.176117,-1.389134,0.475000,-0.363770,0.012207,-0.640137,-0.032116,-0.110357,-0.046438,0.999956,-0.005880,-0.006946,0.002375,0.803178,-0.082293,-0.361018,-0.466689
39620,NaN,-6.940647,-10.702203,-6.068315,-7.684300,-4.064087,-20.946611,-0.117787,-1.731019,0.877451,-0.370117,0.014404,-0.633789,-0.068408,-0.107360,-0.061215,0.999953,-0.000589,-0.008655,0.004387,0.802001,-0.088392,-0.367350,-0.462638
39621,NaN,-8.334600,-8.894044,-6.346134,-6.391134,-2.508044,-21.716350,0.790085,-1.983996,1.099515,-0.386963,0.010010,-0.627197,-0.082219,-0.089141,-0.064633,0.999928,0.003950,-0.009920,0.005497,0.801123,-0.091753,-0.376896,-0.455777
39622,NaN,-10.879502,-7.985135,-6.218633,-6.294887,-0.564106,-23.260280,1.801471,-2.072534,1.252926,-0.395508,0.010010,-0.618896,-0.107637,-0.079957,-0.064026,0.999886,0.009007,-0.010362,0.006264,0.800794,-0.091618,-0.388719,-0.446355
39623,NaN,-11.881813,-8.958207,-6.617303,-6.802715,-1.074816,-24.569086,3.175257,-2.276355,1.406497,-0.411865,-0.004883,-0.605957,-0.117415,-0.089331,-0.068934,0.999784,0.015875,-0.011381,0.007032,0.800750,-0.086635,-0.404446,-0.433264
39624,NaN,-10.538026,-10.964278,-8.680555,-6.177800,-4.579694,-25.542157,4.401236,-2.498244,1.411663,-0.424072,-0.026367,-0.599365,-0.103497,-0.108413,-0.090501,0.999655,0.022004,-0.012490,0.007058,0.800371,-0.077257,-0.423264,-0.417475
39625,NaN,-9.181873,-9.874624,-9.983669,-3.383049,-5.721741,-25.215110,4.922984,-2.757581,1.303221,-0.437744,-0.058594,-0.582275,-0.089773,-0.096818,-0.103483,0.999581,0.024611,-0.013786,0.006515,0.798818,-0.065975,-0.444126,-0.400362
39626,NaN,-5.868536,-7.826620,-10.151493,-0.119721,-6.613542,-22.260608,4.352403,-2.794451,1.114017,-0.460449,-0.077881,-0.564941,-0.056815,-0.076341,-0.103993,0.999650,0.021759,-0.013971,0.005569,0.795982,-0.056642,-0.463509,-0.385181
39627,NaN,1.499760,-3.715402,-7.697108,3.438743,-6.867005,-13.850746,3.299641,-2.924680,1.024287,-0.477051,-0.095215,-0.552246,0.016312,-0.035799,-0.077337,0.999744,0.016497,-0.014622,0.005121,0.791947,-0.051415,-0.481337,-0.372145
39628,NaN,6.197789,-1.493441,-6.899708,5.680486,-7.407395,-8.763267,1.899748,-3.205387,1.016568,-0.498047,-0.095215,-0.537354,0.063147,-0.013966,-0.068127,0.999814,0.009498,-0.016026,0.005083,0.786446,-0.052297,-0.497245,-0.362649
39629,NaN,8.270515,-0.010721,-5.155994,5.800504,-6.511008,-5.460913,0.652300,-3.102582,1.023771,-0.506592,-0.097412,-0.520264,0.083490,0.000484,-0.050268,0.999861,0.003261,-0.015512,0.005119,0.780711,-0.057768,-0.510578,-0.355617
39630,NaN,10.733913,2.429514,-0.132813,3.921993,-3.470947,-0.132921,-0.065512,-3.036160,0.964448,-0.525635,-0.097412,-0.509766,0.107224,0.024812,0.000292,0.999873,-0.000328,-0.015180,0.004822,0.774537,-0.065880,-0.522003,-0.351091
39631,NaN,14.382849,10.939549,8.685070,2.966019,5.601921,9.207672,-0.805041,-2.743476,0.610506,-0.538330,-0.095215,-0.499023,0.142288,0.110185,0.088367,0.999893,-0.004025,-0.013717,0.003052,0.768162,-0.075237,-0.531290,-0.349281
39632,NaN,20.933621,19.785180,12.985307,6.281978,11.638441,18.881624,-0.982258,-1.438015,0.228884,-0.549072,-0.093018,-0.492676,0.208173,0.198730,0.130378,0.999961,-0.004911,-0.007190,0.001144,0.764323,-0.082130,-0.535024,-0.350449
39633,NaN,25.302685,15.140938,14.987188,2.617075,7.365240,22.327526,0.595194,0.404025,0.094014,-0.542236,-0.103760,-0.496826,0.253258,0.151083,0.149810,0.999993,0.002976,0.002020,0.000470,0.765780,-0.079274,-0.534790,-0.348276
39634,NaN,17.151995,4.562370,13.389399,-4.264150,2.123095,11.903174,1.738817,1.172261,-0.560683,-0.529053,-0.118896,-0.499023,0.172427,0.043981,0.133272,0.999941,0.008694,0.005861,-0.002803,0.768562,-0.069075,-0.533554,-0.346210
39635,NaN,4.512019,-4.274575,5.769778,-6.209330,-2.679421,-4.696542,4.408391,-0.140559,-1.066571,-0.530273,-0.151123,-0.490234,0.044847,-0.044244,0.056765,0.999743,0.022040,-0.000703,-0.005332,0.767604,-0.049417,-0.542228,-0.338127
39636,NaN,-1.591888,-7.206797,1.056549,-5.113107,-4.402206,-12.982813,5.712078,-0.450435,-1.079811,-0.535889,-0.178955,-0.485840,-0.016329,-0.072242,0.008467,0.999575,0.028556,-0.002252,-0.005398,0.765622,-0.025313,-0.553683,-0.326525
39637,NaN,-0.636120,-9.109511,1.372611,-5.916460,-6.400588,-12.860350,4.183808,1.869677,-0.439888,-0.520264,-0.200195,-0.485596,-0.006445,-0.091342,0.011877,0.999735,0.020917,0.009348,-0.002199,0.770394,-0.004909,-0.553507,-0.316385
39638,NaN,-10.148918,-20.316504,-28.961592,13.475673,-20.886846,-36.946123,6.447703,3.160898,-0.241458,-0.514893,-0.236816,-0.474854,-0.106354,-0.193600,-0.294305,0.999355,0.032232,0.015801,-0.001207,0.778397,0.025590,-0.551214,-0.299343
39639,NaN,-5.020778,-25.540685,3.819967,-15.290177,-17.501194,-22.141835,2.556256,-0.253715,0.010201,-0.510742,-0.236816,-0.474854,-0.050240,-0.255869,0.034868,0.999918,0.012781,-0.001269,0.000051,0.777389,0.035305,-0.556246,-0.291565
39640,NaN,8.160269,-14.866474,30.268904,-31.223818,-6.755176,3.692057,-9.480401,-0.315225,0.344438,-0.526611,-0.200195,-0.489990,0.081358,-0.133961,0.309401,0.998874,-0.047384,-0.001576,0.001722,0.777789,-0.002990,-0.543125,-0.316307
39641,NaN,22.714475,39.619946,-27.733987,46.791876,12.561170,12.682733,7.609804,-2.534372,1.244207,-0.535156,-0.262695,-0.427979,0.227993,0.407708,-0.259084,0.999177,0.038039,-0.012668,0.006219,0.772601,0.019456,-0.564731,-0.289462
39642,NaN,60.851669,50.112670,-54.218063,78.065052,1.030620,45.356049,15.647715,-4.360168,-1.032244,-0.548340,-0.312012,-0.368408,0.622265,0.537536,-0.487568,0.996690,0.078152,-0.021777,-0.005156,0.754708,0.076378,-0.602242,-0.248770
39643,NaN,31.195169,4.983413,3.555308,2.265069,-9.721265,20.368443,0.047027,-2.700606,-1.546478,-0.542236,-0.305664,-0.391846,0.311806,0.047414,0.039776,0.999879,0.000235,-0.013502,-0.007732,0.744422,0.078073,-0.612234,-0.254776
39644,NaN,2.332054,-9.335759,27.867842,-28.830057,-3.047740,-4.476350,-5.842521,1.905738,0.584402,-0.546875,-0.288574,-0.391846,0.026248,-0.085097,0.281004,0.999524,-0.029208,0.009527,0.002922,0.752899,0.056930,-0.597671,-0.269615
39645,NaN,-4.070604,-9.434296,-1.641088,-2.019711,-6.566434,-17.626488,2.654042,-3.599318,1.394816,-0.567871,-0.294922,-0.366455,-0.039729,-0.094387,-0.018384,0.999726,0.013269,-0.017995,0.006973,0.743041,0.058160,-0.615389,-0.256522
39646,NaN,4.317288,-5.590146,-16.092155,14.026874,-10.421402,-11.667179,1.677523,-2.853691,3.235400,-0.582764,-0.288574,-0.351562,0.046349,-0.053820,-0.160733,0.999732,0.008387,-0.014267,0.016176,0.737697,0.050761,-0.628951,-0.240098
39647,NaN,13.706670,-8.447427,-9.969123,8.266415,-15.255835,-2.231052,-0.418815,-2.464074,3.926614,-0.604736,-0.267090,-0.334717,0.139905,-0.081952,-0.097806,0.999729,-0.002094,-0.012319,0.019631,0.734523,0.034239,-0.638761,-0.226467
39648,NaN,22.948531,-1.271147,-5.505105,6.542201,-10.596547,10.270529,1.643295,-3.363535,3.945465,-0.628418,-0.250244,-0.309326,0.230554,-0.007738,-0.051257,0.999630,0.008215,-0.016816,0.019725,0.727668,0.023853,-0.653446,-0.207217
39649,NaN,28.245796,6.071438,-4.631964,7.489674,-4.189659,18.156713,2.084840,-2.860761,4.125559,-0.641602,-0.230957,-0.286133,0.281737,0.066982,-0.041609,0.999631,0.010423,-0.014302,0.020625,0.721994,0.015437,-0.666703,-0.184371
39650,NaN,28.672693,9.248910,-8.998201,12.044474,-0.934376,19.213521,0.980677,-2.003286,4.049954,-0.663574,-0.207275,-0.277832,0.285649,0.098711,-0.086643,0.999733,0.004903,-0.010016,0.020248,0.718752,0.003628,-0.675006,-0.166581
39651,NaN,28.563770,11.533042,-0.757106,4.098073,4.440366,20.399906,1.350981,-2.119948,3.770078,-0.678711,-0.192383,-0.258789,0.283449,0.120722,-0.003755,0.999743,0.006754,-0.010599,0.018849,0.714336,-0.005545,-0.684129,-0.147176
39652,NaN,27.881233,4.659233,1.987344,-0.675396,-0.283917,18.513407,2.362511,-2.612718,3.081867,-0.685303,-0.183838,-0.231445,0.277757,0.050610,0.024089,0.999726,0.011811,-0.013062,0.015408,0.707506,-0.009567,-0.694959,-0.127967
39653,NaN,32.295082,3.251510,5.423973,-5.141638,-0.785007,22.680056,4.664791,-2.820662,2.764093,-0.694336,-0.164795,-0.206299,0.321657,0.035619,0.059589,0.999533,0.023320,-0.014101,0.013818,0.699091,-0.004024,-0.707913,-0.100571
39654,NaN,29.028810,17.070025,9.842796,-8.539679,14.637651,20.904135,3.462174,-2.781777,2.787123,-0.709229,-0.158447,-0.187256,0.286455,0.172926,0.105411,0.999656,0.017309,-0.013907,0.013934,0.690443,-0.003181,-0.719110,-0.078476
39655,NaN,22.977183,13.494191,10.573340,-10.478621,12.443588,13.790085,1.882497,-2.654800,2.449526,-0.711670,-0.147705,-0.166016,0.226663,0.136709,0.110037,0.999793,0.009412,-0.013273,0.012247,0.681436,-0.006130,-0.729209,-0.062144
39656,NaN,21.440777,7.785639,8.771181,-9.802493,7.152030,11.399657,2.329027,-2.167970,2.277088,-0.720459,-0.128418,-0.155518,0.212537,0.079237,0.090940,0.999809,0.011644,-0.010839,0.011385,0.674146,-0.007164,-0.737142,-0.045806
39657,NaN,12.110223,6.427522,7.881346,-8.648425,6.433928,1.757888,2.641029,-1.586170,2.237690,-0.720947,-0.117676,-0.145020,0.119746,0.064563,0.080618,0.999819,0.013204,-0.007930,0.011188,0.668477,-0.006553,-0.743191,-0.027635
39658,NaN,8.513520,6.441502,3.308917,-3.989432,6.422112,-1.581311,2.109803,-1.019028,2.026033,-0.725830,-0.096436,-0.138916,0.084307,0.064915,0.034203,0.999880,0.010549,-0.005095,0.010130,0.664923,-0.007162,-0.746765,-0.012977
39659,NaN,6.467904,2.933861,1.293070,-1.993866,2.977843,-3.546214,1.557618,-0.552293,1.783188,-0.730225,-0.087891,-0.136963,0.064378,0.029811,0.013340,0.999926,0.007788,-0.002761,0.008916,0.662682,-0.008421,-0.748853,-0.000529
39660,NaN,-1.487262,4.614409,2.693236,-2.442384,4.602366,-11.712734,0.950452,-0.629472,1.667143,-0.730469,-0.074951,-0.132812,-0.015341,0.045889,0.027103,0.999949,0.004752,-0.003147,0.008336,0.660299,-0.011506,-0.750865,0.008592
39661,NaN,-2.017921,10.704203,4.883146,-4.523438,10.622983,-12.843295,0.225184,-0.731933,1.469363,-0.737305,-0.062012,-0.130615,-0.021143,0.106834,0.048876,0.999966,0.001126,-0.003660,0.007347,0.657177,-0.016031,-0.753418,0.014916
39662,NaN,3.881761,16.856188,5.967707,-6.380103,17.007680,-7.612111,0.215668,-0.647510,0.878633,-0.730957,-0.062012,-0.122314,0.037883,0.168665,0.059983,0.999985,0.001078,-0.003238,0.004393,0.654642,-0.018574,-0.755480,0.018679
39663,NaN,0.136895,18.779009,5.522291,-5.403901,18.735236,-11.530961,-0.118386,-0.736388,0.583061,-0.727051,-0.053467,-0.126465,0.000618,0.187825,0.055115,0.999989,-0.000592,-0.003682,0.002915,0.651515,-0.021018,-0.758068,0.020475
39664,NaN,-1.037345,16.720418,2.483128,-2.089553,16.635130,-12.203382,-1.373651,-0.769614,0.300598,-0.729004,-0.051514,-0.122314,-0.010717,0.167353,0.023641,0.999968,-0.006868,-0.003848,0.001503,0.648364,-0.026542,-0.760692,0.016340
39665,NaN,-1.593175,11.581406,2.745259,-2.110377,11.513246,-12.494107,-2.003381,-0.535078,-0.011791,-0.727051,-0.047119,-0.124512,-0.015996,0.116082,0.026248,0.999946,-0.010017,-0.002675,-0.000059,0.645781,-0.033054,-0.762758,0.008605
39666,NaN,-0.875591,6.390200,4.685046,-4.157954,6.507480,-11.790767,-2.059538,-0.001536,-0.291351,-0.727295,-0.040771,-0.130859,-0.008663,0.064393,0.046189,0.999946,-0.010298,-0.000008,-0.001457,0.645375,-0.038581,-0.762891,-0.000178
39667,NaN,-1.822395,2.587001,7.752377,-7.154390,2.955937,-13.004411,-2.137102,0.527310,-0.669419,-0.722900,-0.049316,-0.139404,-0.017931,0.026757,0.077289,0.999934,-0.010685,0.002636,-0.003347,0.646698,-0.043112,-0.761448,-0.010941
39668,NaN,-3.914029,1.929429,9.446454,-8.525050,2.491417,-15.233996,-1.388918,1.088694,-0.934953,-0.716309,-0.055664,-0.145508,-0.038533,0.020132,0.094538,0.999950,-0.006944,0.005443,-0.004675,0.650423,-0.043973,-0.758049,-0.019473
39669,NaN,-2.482852,0.877863,6.675780,-6.120781,1.428388,-13.276032,-1.653416,1.063110,-1.228386,-0.716309,-0.059814,-0.160400,-0.024417,0.009482,0.066812,0.999933,-0.008267,0.005315,-0.006142,0.653731,-0.044779,-0.754791,-0.030350
39670,NaN,1.298675,-3.309453,2.470115,-2.987412,-2.980348,-8.846668,-1.841108,1.550818,-1.404482,-0.709717,-0.066162,-0.166748,0.012948,-0.032957,0.024904,0.999903,-0.009205,0.007754,-0.007022,0.658857,-0.045249,-0.749718,-0.042219
39671,NaN,-0.174286,-1.310683,2.171649,-2.287591,-1.017591,-10.254908,-1.288468,2.268765,-1.277438,-0.701172,-0.070557,-0.183594,-0.001579,-0.012956,0.021819,0.999895,-0.006442,0.011343,-0.006387,0.666558,-0.044380,-0.742304,-0.052111
39672,NaN,-1.149578,1.620426,2.500626,-2.121501,1.979020,-11.147701,-1.725010,2.632559,-1.252822,-0.696777,-0.079102,-0.202637,-0.011064,0.016490,0.025012,0.999857,-0.008625,0.013162,-0.006264,0.675487,-0.044779,-0.733288,-0.063252
39673,NaN,0.844627,2.445401,0.963841,-0.614961,2.544650,-8.936203,-1.980014,2.762932,-1.323542,-0.690186,-0.085449,-0.217285,0.008738,0.024490,0.009277,0.999834,-0.009900,0.013814,-0.006617,0.684478,-0.045876,-0.723615,-0.075935
39674,NaN,2.910329,2.840367,1.030564,-0.637329,2.837930,-6.789834,-1.672215,3.094316,-1.468925,-0.679688,-0.091797,-0.244873,0.029464,0.028270,0.009615,0.999818,-0.008361,0.015471,-0.007344,0.694572,-0.045095,-0.712633,-0.087695
39675,NaN,5.972284,-0.060213,2.574970,-2.632120,0.031646,-3.865521,-1.536775,3.465418,-1.560625,-0.672852,-0.104492,-0.261719,0.060151,-0.000878,0.024716,0.999790,-0.007683,0.017326,-0.007803,0.705573,-0.043491,-0.700230,-0.099761
39676,NaN,9.588195,-0.112002,1.447076,-1.283101,-0.689552,-0.225942,-1.295150,3.763696,-1.615279,-0.660156,-0.108643,-0.287109,0.096119,-0.001810,0.012674,0.999769,-0.006475,0.018817,-0.008076,0.717465,-0.040511,-0.686536,-0.110777
39677,NaN,14.125618,1.039976,0.172497,0.775269,-0.597071,4.317182,-1.267936,4.072988,-1.699827,-0.649414,-0.117188,-0.306152,0.141333,0.009197,-0.001214,0.999736,-0.006339,0.020363,-0.008498,0.729897,-0.037081,-0.671484,-0.122412
39678,NaN,20.757200,4.722639,-2.847845,5.692260,0.972929,10.871408,-0.940835,4.545599,-1.786158,-0.627930,-0.125732,-0.333496,0.207260,0.045225,-0.033408,0.999691,-0.004704,0.022726,-0.008930,0.743630,-0.031719,-0.654485,-0.132882
39679,NaN,30.432109,10.866852,-1.874921,8.380857,4.801482,21.077193,-0.759420,4.909178,-1.958375,-0.608887,-0.127930,-0.363281,0.304776,0.105594,-0.026632,0.999644,-0.003797,0.024543,-0.009791,0.757826,-0.024964,-0.635927,-0.143782
39680,NaN,42.598118,13.947040,2.740858,8.265864,5.194944,34.013541,-1.975060,4.879911,-2.678627,-0.585449,-0.140625,-0.401367,0.428277,0.133937,0.015635,0.999564,-0.009874,0.024396,-0.013391,0.770806,-0.020407,-0.616118,-0.160746
39681,NaN,46.180650,7.001281,4.734897,7.280857,-3.611484,36.417680,-2.915681,5.433747,-3.261159,-0.555664,-0.144775,-0.435303,0.463914,0.063018,0.033810,0.999392,-0.014575,0.027163,-0.016302,0.783903,-0.017322,-0.592955,-0.183304
39682,NaN,36.935464,-0.472914,5.959697,3.549122,-9.693868,26.145072,-2.222030,5.218435,-3.726927,-0.532227,-0.155273,-0.460693,0.370577,-0.011037,0.050036,0.999424,-0.011108,0.026087,-0.018631,0.795284,-0.010186,-0.570494,-0.204834
39683,NaN,32.177610,1.818941,4.197762,5.795606,-8.138630,21.110257,-0.609060,4.282671,-3.613010,-0.514893,-0.168213,-0.481689,0.322836,0.012477,0.035028,0.999603,-0.003045,0.021411,-0.018063,0.803197,0.002046,-0.553012,-0.221467
39684,NaN,30.929314,-1.885730,1.255652,7.465487,-13.148398,17.259652,1.142107,3.528342,-3.936217,-0.488770,-0.187500,-0.492188,0.308997,-0.024992,0.006972,0.999634,0.005710,0.017640,-0.019679,0.808260,0.021423,-0.539912,-0.233991
39685,NaN,29.710184,6.046202,0.146058,11.069430,-7.241035,17.465968,2.854330,1.639191,-4.761267,-0.466553,-0.219482,-0.491943,0.298432,0.053362,-0.000187,0.999581,0.014270,0.008195,-0.023803,0.806243,0.047730,-0.536174,-0.245381
39686,NaN,26.550298,28.683626,-3.022282,20.768035,11.724784,21.295020,0.505194,1.687808,-5.166852,-0.438721,-0.234619,-0.504639,0.272531,0.279935,-0.031790,0.999628,0.002526,0.008438,-0.025831,0.803979,0.065670,-0.528604,-0.264354
39687,NaN,23.059122,19.361011,-0.440188,14.728487,4.295886,16.093255,-2.027706,3.992532,-4.018277,-0.413330,-0.234375,-0.534424,0.234242,0.188839,-0.010985,0.999548,-0.010137,0.019960,-0.020088,0.809200,0.073420,-0.508701,-0.284655
39688,NaN,19.581312,15.047270,0.355344,12.267826,1.506950,11.565219,-3.440982,3.770519,-3.372753,-0.386230,-0.217285,-0.553711,0.198301,0.147131,-0.002721,0.999532,-0.017202,0.018850,-0.016861,0.814846,0.073408,-0.487122,-0.305531
39689,NaN,15.469305,13.535641,1.167091,10.446106,1.892908,7.823979,-4.321038,3.111650,-2.668800,-0.361572,-0.197998,-0.581543,0.156609,0.133450,0.006347,0.999557,-0.021602,0.015556,-0.013342,0.819171,0.067100,-0.467112,-0.325979
39690,NaN,12.104565,9.794997,1.786840,7.742422,0.532452,3.802267,-4.780532,2.682134,-2.039953,-0.345459,-0.169922,-0.600830,0.122243,0.097071,0.013907,0.999572,-0.023899,0.013409,-0.010198,0.823338,0.056626,-0.447502,-0.344457
39691,NaN,7.846059,7.226536,2.511024,4.870630,1.038891,-0.052753,-5.114061,2.625266,-1.449255,-0.316895,-0.135742,-0.620117,0.079289,0.072286,0.022225,0.999561,-0.025567,0.013124,-0.007245,0.827363,0.043435,-0.427788,-0.361361
39692,NaN,6.437998,3.183489,1.030865,3.543320,-1.563231,-3.677701,-5.422243,2.127962,-1.020558,-0.307129,-0.105469,-0.635254,0.064641,0.031757,0.008760,0.999563,-0.027107,0.010638,-0.005102,0.830862,0.027012,-0.408833,-0.376557
39693,NaN,4.328208,-1.470040,-0.592327,1.148152,-4.026449,-7.885426,-5.152693,1.494703,-0.742883,-0.299561,-0.073486,-0.652344,0.043183,-0.015013,-0.005862,0.999633,-0.025760,0.007473,-0.003714,0.832473,0.010091,-0.393189,-0.390242
39694,NaN,2.695559,-3.333102,-1.969704,0.122048,-4.667033,-10.488489,-4.685094,0.786746,-0.509532,-0.296387,-0.045410,-0.656738,0.026794,-0.033850,-0.019014,0.999715,-0.023423,0.003933,-0.002547,0.833002,-0.006880,-0.380688,-0.401419
39695,NaN,1.952012,-5.344020,-3.155889,-0.981058,-5.919294,-12.327117,-4.153705,0.109587,-0.354830,-0.294922,-0.019775,-0.656982,0.019408,-0.054115,-0.030450,0.999783,-0.020767,0.000548,-0.001774,0.831791,-0.023106,-0.372347,-0.411033
39696,NaN,-0.423527,-6.683057,-3.961629,-2.579332,-5.509727,-14.662579,-3.366214,-0.507197,-0.075033,-0.300049,0.008057,-0.659424,-0.004162,-0.067483,-0.038495,0.999855,-0.016830,-0.002536,-0.000375,0.830161,-0.038011,-0.367546,-0.417489
39697,NaN,-4.945499,-8.510795,-4.557939,-5.453530,-3.951562,-18.316023,-2.473712,-1.120310,0.306969,-0.306641,0.020996,-0.657227,-0.049071,-0.085741,-0.044797,0.999907,-0.012368,-0.005601,0.001535,0.827880,-0.051007,-0.367470,-0.420688
39698,NaN,-7.660405,-8.183047,-5.080374,-6.031596,-2.284151,-20.293801,-1.490522,-1.707201,0.674785,-0.317871,0.038086,-0.653076,-0.075893,-0.082466,-0.050841,0.999930,-0.007452,-0.008536,0.003374,0.825703,-0.062011,-0.371257,-0.420163
39699,NaN,-8.108742,-5.276250,-6.538252,-3.195389,-0.952223,-21.002704,-0.466509,-2.143945,0.851807,-0.334961,0.040283,-0.644775,-0.080155,-0.053259,-0.066121,0.999931,-0.002332,-0.010719,0.004259,0.823047,-0.069869,-0.379344,-0.416906
39700,NaN,-9.422606,-5.525239,-6.314281,-3.837913,-0.443282,-21.822997,1.011477,-2.403845,1.002305,-0.349609,0.035889,-0.631836,-0.093178,-0.055397,-0.064547,0.999902,0.005057,-0.012019,0.005011,0.820827,-0.072618,-0.391011,-0.409976
39701,NaN,-9.012750,-8.573020,-5.434321,-6.109480,-2.603078,-21.650450,2.683861,-2.687354,1.174537,-0.364014,0.020752,-0.625488,-0.088874,-0.085504,-0.056692,0.999802,0.013418,-0.013436,0.005872,0.818539,-0.069266,-0.407519,-0.398904
39702,NaN,-7.494848,-12.543272,-7.036472,-6.868591,-7.227585,-22.601332,3.976501,-2.720009,1.090184,-0.384277,-0.004883,-0.618652,-0.073280,-0.124390,-0.073849,0.999695,0.019880,-0.013599,0.005450,0.816274,-0.060623,-0.426133,-0.385270
39703,NaN,-7.450748,-12.368478,-7.275044,-5.838167,-7.570077,-22.849971,4.381452,-2.623305,0.892609,-0.398438,-0.028564,-0.607910,-0.072973,-0.122366,-0.076405,0.999664,0.021905,-0.013115,0.004463,0.813259,-0.049571,-0.445325,-0.371265
39704,NaN,-5.383617,-11.122119,-7.132354,-3.757949,-8.023336,-20.994072,3.800363,-2.480351,0.754545,-0.416748,-0.052246,-0.590820,-0.052512,-0.110031,-0.074079,0.999735,0.019000,-0.012401,0.003772,0.809837,-0.040394,-0.462213,-0.359016
39705,NaN,0.745053,-8.335824,-4.112680,-1.831419,-8.238111,-13.778655,2.536740,-2.507199,0.460769,-0.431396,-0.058594,-0.573730,0.008165,-0.082810,-0.042080,0.999838,0.012683,-0.012535,0.002304,0.805122,-0.035576,-0.477206,-0.350409
39706,NaN,2.654355,-6.434504,-3.271161,-0.600157,-7.540234,-11.202711,0.876325,-2.851047,0.479997,-0.452637,-0.060791,-0.561035,0.027163,-0.064137,-0.032609,0.999886,0.004381,-0.014255,0.002400,0.799195,-0.038187,-0.490132,-0.345831
39707,NaN,5.445353,-4.530510,-1.593790,0.016833,-6.847822,-7.399930,-0.278837,-3.016492,0.679101,-0.471680,-0.056641,-0.552490,0.054838,-0.045141,-0.015050,0.999880,-0.001394,-0.015082,0.003395,0.792748,-0.046049,-0.501994,-0.342683
39708,NaN,8.807378,1.237661,3.062494,0.609973,-2.041546,-0.651160,-0.889855,-2.981557,0.858877,-0.482422,-0.054443,-0.537598,0.087550,0.012893,0.031876,0.999870,-0.004449,-0.014907,0.004294,0.786397,-0.056837,-0.512078,-0.340772
39709,NaN,14.635445,12.162752,8.259888,4.346809,6.099880,9.532485,-0.997792,-2.661938,0.600490,-0.497070,-0.054443,-0.522705,0.144876,0.122480,0.083924,0.999894,-0.004989,-0.013309,0.003002,0.780172,-0.066678,-0.521123,-0.339583
39710,NaN,20.969401,16.625925,12.653908,4.675513,8.900775,18.028582,1.673212,-1.587159,0.095436,-0.505371,-0.065186,-0.514160,0.208595,0.165283,0.129583,0.999933,0.008366,-0.007936,0.000477,0.776672,-0.063093,-0.530142,-0.334289
39711,NaN,21.667320,9.742836,19.873460,-5.688736,6.373400,19.957352,4.997627,0.043835,-0.309735,-0.502197,-0.093018,-0.505615,0.216862,0.092088,0.201033,0.999687,0.024986,0.000219,-0.001549,0.777449,-0.042643,-0.538727,-0.321757
39712,NaN,15.868864,4.463431,19.882513,-10.474089,4.048685,13.443998,4.212536,1.736506,-0.632650,-0.495361,-0.112305,-0.507568,0.160543,0.039948,0.198311,0.999735,0.021061,0.008682,-0.003163,0.781767,-0.021763,-0.538800,-0.313146
39713,NaN,5.188059,-4.367808,-0.908225,-0.265720,-6.299008,-7.154384,0.935960,3.047801,-1.015253,-0.486572,-0.120850,-0.520264,0.051510,-0.043895,-0.010074,0.999860,0.004680,0.015238,-0.005076,0.788242,-0.010498,-0.528777,-0.314578
39714,NaN,-10.869180,-10.305417,-26.715811,14.333289,-11.758449,-34.189831,2.899360,2.886953,-0.906532,-0.473145,-0.146729,-0.515869,-0.113001,-0.098677,-0.266999,0.999780,0.014496,0.014434,-0.004532,0.794394,0.007867,-0.521947,-0.310561
39715,NaN,-14.780195,-20.093924,-36.170565,17.704476,-19.139501,-45.168759,7.011462,0.676596,-0.349715,-0.474365,-0.176758,-0.500732,-0.149376,-0.187851,-0.367941,0.999378,0.035050,0.003382,-0.001748,0.794737,0.037786,-0.530246,-0.292924
39716,NaN,-5.551300,-18.575222,5.882292,-14.372683,-11.113930,-18.776907,1.113602,-1.075385,0.232012,-0.489746,-0.157471,-0.500977,-0.055609,-0.186139,0.057488,0.999969,0.005568,-0.005377,0.001160,0.791955,0.040020,-0.536233,-0.289240
39717,NaN,7.232210,7.313050,49.683700,-36.902528,17.243298,20.386090,-12.147057,-1.514851,0.367277,-0.499023,-0.129639,-0.507324,0.068412,0.103239,0.491702,0.998126,-0.060697,-0.007570,0.001835,0.789358,-0.011131,-0.524270,-0.319265
39718,NaN,49.901990,65.495374,-32.354460,69.243567,19.806552,41.447587,15.583205,-1.437918,0.016907,-0.513428,-0.206787,-0.447510,0.501023,0.677320,-0.267716,0.996940,0.077837,-0.007182,0.000084,0.784035,0.048005,-0.553240,-0.277326
39719,NaN,54.128216,5.421046,-23.759134,35.053573,-26.654014,29.981920,7.746306,-4.453343,-0.681447,-0.525635,-0.219727,-0.417725,0.546560,0.061186,-0.223177,0.998996,0.038719,-0.022259,-0.003406,0.767863,0.074150,-0.581218,-0.258988
39720,NaN,25.176032,-3.487432,1.549075,1.801842,-14.890924,10.762483,-2.176485,-3.140789,-1.300975,-0.536621,-0.211182,-0.415771,0.251239,-0.036310,0.019829,0.999796,-0.010882,-0.015703,-0.006504,0.757661,0.065495,-0.589911,-0.271415
39721,NaN,0.095581,-7.936738,14.309860,-15.985157,-3.360824,-8.847276,-2.636050,-1.903792,0.337697,-0.549316,-0.207031,-0.398926,-0.000281,-0.077472,0.144129,0.999866,-0.013180,-0.009519,0.001688,0.753025,0.052163,-0.594237,-0.277696
39722,NaN,-1.635934,-4.461722,-9.010395,6.677189,-5.238943,-15.444319,3.213317,-3.973021,1.202022,-0.570557,-0.202881,-0.375488,-0.014293,-0.043249,-0.091104,0.999656,0.016065,-0.019863,0.006009,0.741751,0.055156,-0.613818,-0.264559
39723,NaN,6.884908,-6.864966,-15.015989,12.585389,-12.711331,-9.782775,-0.216138,-3.001777,2.591005,-0.590088,-0.187744,-0.358643,0.071974,-0.067892,-0.149022,0.999803,-0.001081,-0.015008,0.012954,0.735651,0.042693,-0.625874,-0.255493
39724,NaN,14.422008,-9.835693,-8.391813,5.859223,-16.720375,-1.990322,-0.682677,-2.789738,3.690368,-0.609863,-0.166504,-0.339600,0.147154,-0.095941,-0.081549,0.999727,-0.003413,-0.013947,0.018450,0.731535,0.025062,-0.635933,-0.244575
39725,NaN,20.840229,-5.804155,-5.340093,4.578476,-14.223488,6.714028,1.961956,-2.918672,4.300325,-0.627441,-0.143066,-0.318604,0.210333,-0.053025,-0.050877,0.999614,0.009809,-0.014591,0.021499,0.726721,0.015340,-0.649995,-0.221693
39726,NaN,27.328242,1.498740,-2.075591,3.757495,-7.878355,16.206782,2.739549,-2.930365,4.327649,-0.646973,-0.123779,-0.295410,0.273132,0.021145,-0.016491,0.999565,0.013696,-0.014650,0.021635,0.721422,0.007979,-0.663780,-0.197187
39727,NaN,30.752893,6.939945,-6.846195,9.492592,-3.546347,20.811888,1.256846,-2.414467,4.286775,-0.660400,-0.098145,-0.280762,0.306734,0.076393,-0.064290,0.999678,0.006284,-0.012071,0.021432,0.717028,-0.003681,-0.674402,-0.176182
39728,NaN,31.257491,11.826188,0.359901,3.388704,4.141405,23.175266,0.496291,-2.076685,3.842119,-0.671631,-0.081055,-0.268311,0.310165,0.124221,0.007131,0.999758,0.002481,-0.010383,0.019209,0.713198,-0.016679,-0.682103,-0.160642
39729,NaN,30.964812,14.073233,7.379148,-3.610353,9.360459,23.510984,1.499795,-3.234808,2.870538,-0.684814,-0.061768,-0.238770,0.306333,0.144562,0.079839,0.999738,0.007498,-0.016173,0.014351,0.703973,-0.023302,-0.695159,-0.143642
39730,NaN,32.227310,3.087591,3.875460,-3.766103,-1.197306,22.550894,1.647999,-3.291256,1.981441,-0.693359,-0.051025,-0.215576,0.321250,0.033712,0.044317,0.999782,0.008239,-0.016455,0.009906,0.693944,-0.026739,-0.707597,-0.130511
39731,NaN,27.346661,6.100570,7.673033,-7.610938,3.935724,17.943781,3.632743,-2.774731,1.931241,-0.702148,-0.042480,-0.205078,0.271760,0.062182,0.081631,0.999692,0.018162,-0.013872,0.009655,0.685179,-0.022378,-0.719775,-0.109323
39732,NaN,24.734776,6.626622,7.491746,-7.984828,5.216809,15.103228,3.349273,-2.334870,2.387023,-0.715088,-0.027588,-0.179688,0.245638,0.067906,0.078920,0.999720,0.016745,-0.011673,0.011934,0.678212,-0.020754,-0.729188,-0.088786
39733,NaN,23.101638,8.310987,4.375887,-5.306219,7.095214,13.496608,3.509685,-2.402890,2.612235,-0.719727,-0.016846,-0.169189,0.229352,0.085295,0.048005,0.999689,0.017547,-0.012013,0.013060,0.670271,-0.019079,-0.738952,-0.065741
39734,NaN,16.675613,10.999936,2.702021,-3.425963,10.435853,7.088855,4.021267,-2.075117,2.524642,-0.730957,0.002197,-0.158691,0.165047,0.111494,0.030971,0.999664,0.020104,-0.010374,0.012622,0.663538,-0.015593,-0.746789,-0.042189
39735,NaN,7.739838,12.896397,2.508489,-2.727447,12.880118,-2.123390,4.447521,-1.553587,2.657134,-0.737549,0.015137,-0.150391,0.075468,0.129366,0.028550,0.999634,0.022235,-0.007767,0.013284,0.657885,-0.010807,-0.752877,-0.015725
39736,NaN,-0.315092,10.583073,1.499652,-1.209352,10.608794,-10.381890,3.393082,-1.487332,2.302164,-0.738037,0.030029,-0.137695,-0.004487,0.105510,0.016758,0.999762,0.016964,-0.007436,0.011510,0.652437,-0.008410,-0.757782,0.004720
39737,NaN,-3.065585,5.924068,1.090734,-0.608333,5.824623,-13.186633,1.769301,-1.314121,1.962450,-0.744629,0.042969,-0.129395,-0.031308,0.058837,0.011225,0.999891,0.008846,-0.006570,0.009812,0.646887,-0.009875,-0.762297,0.018508
39738,NaN,-0.339628,7.520627,3.642546,-3.590009,7.436774,-11.134396,0.065365,-1.643325,1.562114,-0.753418,0.055664,-0.118896,-0.004283,0.075163,0.036417,0.999936,0.000327,-0.008216,0.007810,0.640382,-0.015445,-0.767529,0.023906
39739,NaN,2.834894,15.730359,5.815586,-6.274936,15.793503,-9.117851,-1.027668,-2.317271,1.117826,-0.755859,0.068604,-0.106201,0.026798,0.157753,0.057663,0.999904,-0.005138,-0.011586,0.005589,0.630695,-0.022629,-0.775324,0.024182
39740,NaN,4.238115,18.880545,5.447568,-6.020333,19.106661,-8.140473,-1.136925,-2.085511,0.743053,-0.766846,0.077148,-0.093506,0.041115,0.189267,0.053834,0.999923,-0.005684,-0.010427,0.003715,0.622283,-0.028821,-0.781941,0.022371
39741,NaN,-0.259715,14.944798,5.243173,-4.641610,14.927627,-12.365650,-1.750592,-1.533674,0.626010,-0.769043,0.079102,-0.083008,-0.003461,0.149889,0.051097,0.999927,-0.008753,-0.007668,0.003130,0.615449,-0.036562,-0.787127,0.017776
39742,NaN,1.649819,8.111992,3.916835,-3.785504,8.338478,-9.771570,-2.997331,-1.222288,0.404938,-0.766846,0.085693,-0.074707,0.016098,0.081729,0.038046,0.999867,-0.014986,-0.006111,0.002025,0.609912,-0.047246,-0.791024,0.007468
39743,NaN,1.416756,5.366072,7.097107,-6.775599,5.879389,-10.643395,-2.693317,-0.285565,0.149027,-0.775635,0.092041,-0.078857,0.014026,0.054621,0.070260,0.999908,-0.013466,-0.001428,0.000745,0.607651,-0.056143,-0.792212,-0.002828
39744,NaN,0.379462,2.142152,7.699216,-7.288110,2.790149,-11.575456,-1.803584,0.569364,0.036193,-0.773438,0.089844,-0.081055,0.004009,0.022115,0.076784,0.999955,-0.009018,0.002847,0.000181,0.609312,-0.061738,-0.790460,-0.010000
39745,NaN,-0.830086,-3.290957,5.793983,-5.761257,-2.741478,-11.905568,-1.992857,0.891177,-0.266642,-0.777588,0.087891,-0.087402,-0.008085,-0.032319,0.058300,0.999940,-0.009964,0.004456,-0.001333,0.611787,-0.066832,-0.787960,-0.019201
39746,NaN,-3.678430,-5.209210,8.053197,-7.574283,-4.487555,-15.105153,-1.361799,1.027921,-0.378999,-0.786133,0.085693,-0.097900,-0.036466,-0.051472,0.081072,0.999962,-0.006809,0.005140,-0.001895,0.615262,-0.069386,-0.784831,-0.026045
39747,NaN,-2.831551,-4.023634,6.727092,-6.425469,-3.260452,-14.000849,-1.998671,1.114476,-0.648327,-0.788086,0.079346,-0.106201,-0.028067,-0.039469,0.067825,0.999929,-0.009993,0.005572,-0.003242,0.618480,-0.072910,-0.781563,-0.036405
39748,NaN,1.669728,-2.658691,3.593595,-4.260802,-1.952774,-8.916915,-1.761005,1.855877,-0.843656,-0.788086,0.074951,-0.116699,0.016920,-0.026341,0.036012,0.999909,-0.008805,0.009279,-0.004218,0.624821,-0.074698,-0.775792,-0.046546
39749,NaN,-0.290587,1.490210,0.845281,-0.498747,1.593418,-10.294186,-0.121622,2.447850,-0.831010,-0.790039,0.066406,-0.129395,-0.002740,0.014919,0.008478,0.999916,-0.000608,0.012239,-0.004155,0.633734,-0.071310,-0.768594,-0.050587
39750,NaN,-1.738324,5.675239,2.002988,-0.648302,5.864372,-11.917341,-0.402465,2.913979,-1.102242,-0.787842,0.060059,-0.152588,-0.016777,0.056886,0.020163,0.999877,-0.002012,0.014569,-0.005511,0.644372,-0.067588,-0.759611,-0.056637
39751,NaN,-0.409851,4.529333,2.572529,-1.616841,4.909905,-10.572676,-1.387725,2.904802,-1.268640,-0.787598,0.051758,-0.171631,-0.003439,0.045494,0.025463,0.999850,-0.006938,0.014523,-0.006343,0.654198,-0.066459,-0.750403,-0.067108
39752,NaN,1.578846,2.282947,-0.598630,0.838213,2.123075,-8.123878,-1.989326,3.019215,-1.394774,-0.785156,0.041016,-0.190430,0.015852,0.022656,-0.006451,0.999812,-0.009946,0.015095,-0.006973,0.664216,-0.066692,-0.740239,-0.080103
39753,NaN,4.444465,-1.386766,-0.501723,-0.224717,-1.543113,-5.397433,-1.385551,3.378733,-1.415427,-0.785156,0.032471,-0.218018,0.044253,-0.014219,-0.005668,0.999808,-0.006927,0.016893,-0.007077,0.675289,-0.064751,-0.729016,-0.091256
39754,NaN,7.079693,-2.557473,2.973195,-3.908332,-2.103615,-3.045346,-0.977746,3.670277,-1.398941,-0.780762,0.023926,-0.243164,0.071148,-0.025930,0.028555,0.999795,-0.004888,0.018350,-0.006994,0.687516,-0.061252,-0.716541,-0.100692
39755,NaN,9.740376,-1.409473,2.310626,-2.872438,-1.432634,-0.227008,-0.935130,3.785742,-1.351973,-0.774170,0.013428,-0.258057,0.097721,-0.014652,0.021326,0.999787,-0.004675,0.018927,-0.006759,0.699713,-0.057740,-0.703541,-0.109992
39756,NaN,14.280986,-0.202186,-0.108142,0.109657,-1.420483,4.397840,-0.607425,4.001730,-1.354257,-0.759033,0.000488,-0.291748,0.142732,-0.002998,-0.003930,0.999772,-0.003037,0.020007,-0.006771,0.712654,-0.052875,-0.689500,-0.117977
39757,NaN,20.479711,6.476917,-2.838313,5.154996,3.392347,10.954268,0.141104,4.528223,-1.355303,-0.752441,-0.014404,-0.325439,0.204518,0.063405,-0.032971,0.999720,0.000705,0.022639,-0.006776,0.727070,-0.045031,-0.673841,-0.123611
39758,NaN,28.378567,15.356210,-5.301461,11.183047,9.875965,19.281943,0.438176,5.065433,-1.440634,-0.739502,-0.020752,-0.363525,0.283424,0.151646,-0.059863,0.999651,0.002191,0.025324,-0.007202,0.743036,-0.035426,-0.655853,-0.128451
39759,NaN,39.718119,18.775529,-0.799079,10.441270,11.478636,31.289810,-1.088990,5.120225,-2.195501,-0.718018,-0.033447,-0.397461,0.398814,0.183299,-0.019194,0.999597,-0.005444,0.025598,-0.010976,0.757638,-0.029002,-0.636531,-0.141322
39760,NaN,45.475187,17.257784,4.284547,8.239213,8.397124,37.568174,-2.780117,5.005710,-3.264423,-0.700928,-0.048340,-0.439697,0.458335,0.165583,0.029068,0.999457,-0.013898,0.025024,-0.016319,0.770395,-0.025580,-0.615803,-0.163168
39761,NaN,41.428144,-5.458025,7.545043,-0.258992,-13.369762,30.483326,-2.844904,4.597858,-3.925461,-0.681641,-0.061035,-0.477783,0.414718,-0.061727,0.066763,0.999442,-0.014222,0.022985,-0.019624,0.780189,-0.020716,-0.596246,-0.188062
39762,NaN,36.762410,-1.607703,8.498680,0.306327,-10.053741,26.583950,-1.724181,4.837720,-3.857733,-0.653564,-0.075928,-0.505127,0.369146,-0.022506,0.076244,0.999484,-0.008619,0.024184,-0.019285,0.790353,-0.011374,-0.575919,-0.208639
39763,NaN,38.023594,-3.062058,2.855598,6.382075,-14.968677,24.801025,-1.647298,4.819056,-3.751179,-0.629883,-0.090820,-0.539062,0.380120,-0.037565,0.019685,0.999500,-0.008235,0.024091,-0.018753,0.799510,-0.002020,-0.555436,-0.228627
39764,NaN,32.390474,-3.360145,-0.490422,8.302494,-15.603933,17.537558,-0.333905,2.605469,-4.325897,-0.616211,-0.123047,-0.549316,0.322977,-0.040607,-0.009052,0.999680,-0.001669,0.013026,-0.021627,0.801494,0.011643,-0.544579,-0.246789
39765,NaN,25.512960,9.691665,2.198684,8.762337,-2.028027,16.044740,1.940984,0.041958,-5.133487,-0.606934,-0.155029,-0.544922,0.257506,0.090108,0.022830,0.999624,0.009704,0.000210,-0.025664,0.794581,0.033519,-0.546738,-0.261908
39766,NaN,25.292970,22.794411,-4.682810,19.765426,6.162877,17.615362,-2.045613,1.587941,-4.851264,-0.587646,-0.159180,-0.576660,0.257956,0.221219,-0.051149,0.999622,-0.010227,0.007939,-0.024253,0.792564,0.040723,-0.536805,-0.286399
39767,NaN,17.277158,13.658328,1.193348,9.483857,2.598187,9.926353,-3.332964,4.061811,-3.090204,-0.558105,-0.159180,-0.612793,0.175020,0.134025,0.006146,0.999536,-0.016662,0.020306,-0.015449,0.799002,0.041716,-0.515590,-0.306631
39768,NaN,13.900778,10.765984,3.044569,6.428623,1.747598,6.739085,-2.874616,3.166965,-2.608176,-0.545654,-0.152588,-0.634033,0.140842,0.106233,0.026691,0.999686,-0.014372,0.015833,-0.013040,0.803470,0.041797,-0.497904,-0.323698
39769,NaN,11.649504,12.832336,3.934844,6.601318,4.328988,6.108886,-3.201389,2.258176,-2.002061,-0.524902,-0.137695,-0.659424,0.118195,0.127740,0.035972,0.999758,-0.016006,0.011290,-0.010009,0.805946,0.037705,-0.483690,-0.339226
39770,NaN,9.408294,10.286242,-0.159791,8.480698,2.164098,1.036204,-4.812483,2.168492,-1.470105,-0.513184,-0.109619,-0.687256,0.094793,0.102073,-0.005086,0.999625,-0.024059,0.010841,-0.007350,0.809257,0.025530,-0.466411,-0.356247
39771,NaN,6.902974,5.102580,0.244917,4.918026,-0.366931,-2.783341,-5.578143,1.744321,-0.850423,-0.499512,-0.075439,-0.706543,0.069256,0.050762,0.000427,0.999564,-0.027887,0.008720,-0.004251,0.811754,0.008218,-0.449718,-0.372481
39772,NaN,6.078250,0.150778,-1.436829,3.072796,-4.119750,-6.260717,-5.630985,1.078804,-0.421533,-0.494629,-0.030273,-0.726074,0.060706,0.000968,-0.014728,0.999587,-0.028151,0.005393,-0.002107,0.813249,-0.011686,-0.434732,-0.386648
39773,NaN,4.023189,-2.140315,-2.736080,1.751245,-4.992673,-9.306151,-5.440112,0.362489,-0.189862,-0.495605,0.006104,-0.732666,0.040162,-0.022176,-0.026837,0.999628,-0.027197,0.001812,-0.000949,0.812653,-0.032484,-0.423227,-0.399272
39774,NaN,2.612464,-4.933893,-3.648310,-0.221940,-6.412249,-11.630444,-4.917091,-0.311403,-0.095150,-0.500977,0.040527,-0.741211,0.026156,-0.050228,-0.035215,0.999696,-0.024583,-0.001557,-0.000476,0.810721,-0.052880,-0.414647,-0.409882
39775,NaN,-0.121337,-8.409515,-4.416196,-3.372297,-7.340998,-14.808955,-3.992734,-0.866789,0.117648,-0.503906,0.070557,-0.741455,-0.000977,-0.084955,-0.042476,0.999791,-0.019962,-0.004334,0.000588,0.807592,-0.070867,-0.410519,-0.417430
39776,NaN,-3.634199,-9.691835,-5.546402,-4.986146,-6.557623,-18.181157,-2.512661,-1.489653,0.436977,-0.517334,0.089844,-0.739502,-0.035721,-0.097686,-0.054508,0.999891,-0.012563,-0.007448,0.002185,0.804430,-0.085021,-0.411174,-0.420238
39777,NaN,-6.805647,-9.534146,-6.455717,-5.378577,-5.122441,-20.935661,-0.764065,-1.925751,0.677565,-0.532227,0.093994,-0.739502,-0.067109,-0.095817,-0.064841,0.999941,-0.003820,-0.009629,0.003388,0.801237,-0.093346,-0.417662,-0.418167
39778,NaN,-10.385254,-8.342990,-7.047412,-5.096626,-2.792268,-23.717421,0.829458,-2.114392,0.842525,-0.551270,0.092041,-0.733154,-0.102745,-0.083568,-0.071911,0.999927,0.004147,-0.010572,0.004213,0.798872,-0.096207,-0.427527,-0.412028
39779,NaN,-14.657432,-9.664866,-6.875596,-7.108337,-1.461132,-27.214718,2.228884,-2.206695,1.103406,-0.561523,0.081299,-0.724365,-0.145263,-0.096666,-0.071441,0.999862,0.011144,-0.011033,0.005517,0.797139,-0.094041,-0.440981,-0.401573
39780,NaN,-15.600605,-9.638652,-7.734188,-6.304311,-1.813241,-28.601303,3.749315,-2.485441,1.340711,-0.583984,0.053223,-0.719971,-0.154370,-0.095929,-0.081068,0.999725,0.018745,-0.012426,0.006703,0.795853,-0.087027,-0.457746,-0.386669
39781,NaN,-11.473331,-6.184216,-10.749199,-0.001627,-3.530500,-26.332425,5.003224,-2.982458,1.425779,-0.606689,0.027588,-0.702637,-0.112667,-0.059908,-0.110697,0.999551,0.025012,-0.014910,0.007128,0.793370,-0.075984,-0.479041,-0.367846
39782,NaN,-4.695722,-5.837741,-9.950250,2.212520,-6.552746,-20.169671,4.341969,-2.937804,1.476518,-0.625000,0.006104,-0.687744,-0.045055,-0.056527,-0.101414,0.999629,0.021707,-0.014687,0.007382,0.790358,-0.067678,-0.498023,-0.350324
39783,NaN,1.186858,-6.248314,-6.591245,1.444207,-8.258664,-13.499764,2.502630,-2.311561,1.347281,-0.635498,-0.000488,-0.681396,0.013052,-0.061568,-0.066540,0.999832,0.012512,-0.011557,0.006736,0.787441,-0.065057,-0.511596,-0.337600
39784,NaN,4.973860,-3.405176,-5.404069,3.332681,-7.313231,-8.840780,0.857827,-2.354336,1.103361,-0.656494,-0.002686,-0.660156,0.050557,-0.033544,-0.053593,0.999906,0.004289,-0.011771,0.005517,0.783438,-0.068473,-0.521989,-0.330249
39785,NaN,8.570927,-0.919516,-6.228918,6.249194,-7.310125,-5.272990,-0.591902,-2.515040,0.922025,-0.673584,0.003906,-0.655762,0.086525,-0.008980,-0.061178,0.999906,-0.002959,-0.012575,0.004610,0.777893,-0.077208,-0.531133,-0.326831
39786,NaN,12.157813,-0.114863,-4.047556,5.692435,-7.114558,-0.802598,-1.493428,-2.046841,0.687161,-0.682373,0.012451,-0.647461,0.121987,-0.001026,-0.039221,0.999914,-0.007467,-0.010234,0.003436,0.772887,-0.088182,-0.536425,-0.327289
39787,NaN,15.451264,2.700769,4.544337,1.326646,-1.954630,6.345999,-1.399694,-1.110748,0.365379,-0.693115,0.020996,-0.641113,0.154208,0.027611,0.046109,0.999958,-0.006998,-0.005554,0.001827,0.769622,-0.096227,-0.538947,-0.328569
39788,NaN,22.577767,10.727881,16.174503,-1.222956,7.207019,19.049382,-0.272601,0.371508,-0.273252,-0.686523,0.008057,-0.653564,0.226224,0.107190,0.161179,0.999996,-0.001363,0.001858,-0.001366,0.769990,-0.095932,-0.537283,-0.330514
39789,NaN,20.463784,9.905407,17.239439,-3.041728,7.578396,17.525007,2.937446,2.227381,-0.474362,-0.673096,-0.017578,-0.666260,0.206782,0.096042,0.171525,0.999827,0.014686,0.011136,-0.002372,0.776228,-0.079509,-0.534373,-0.324952
39790,NaN,8.623741,5.771566,15.938317,-7.321622,8.027121,5.795488,4.331164,1.991993,-0.394036,-0.669922,-0.049561,-0.672363,0.087936,0.054087,0.159710,0.999714,0.021654,0.009959,-0.001970,0.782358,-0.058391,-0.533768,-0.315592
39791,NaN,-1.012137,-0.026099,10.384656,-8.679808,4.673919,-6.397744,4.750210,-0.400897,-0.820865,-0.675049,-0.094727,-0.669922,-0.010337,-0.002684,0.103781,0.999708,0.023749,-0.002004,-0.004104,0.780904,-0.038118,-0.543495,-0.305530
39792,NaN,-2.657674,-4.322708,5.368973,-7.231368,-0.395610,-11.265657,5.940343,-0.983048,-0.922524,-0.677979,-0.135498,-0.658936,-0.027040,-0.044669,0.052245,0.999536,0.029697,-0.004914,-0.004612,0.777539,-0.013905,-0.556414,-0.292648
39793,NaN,-5.023709,-12.909784,-15.883176,7.101083,-13.646404,-24.212838,6.815356,0.798618,-0.298349,-0.680908,-0.182617,-0.647949,-0.051069,-0.123516,-0.162902,0.999410,0.034070,0.003992,-0.001491,0.779118,0.014688,-0.563462,-0.274353
39794,NaN,-6.775693,-21.146476,-23.444869,11.366218,-21.271002,-31.280538,5.447924,0.639585,0.572975,-0.675781,-0.204102,-0.637207,-0.067924,-0.205174,-0.239878,0.999620,0.027236,0.003198,0.002865,0.780952,0.035169,-0.568355,-0.256614
39795,NaN,6.807788,-24.180120,-4.806509,-2.822882,-25.101096,-13.823669,-0.373762,0.313126,1.016346,-0.680664,-0.184814,-0.643799,0.069231,-0.241541,-0.047721,0.999984,-0.001869,0.001566,0.005082,0.783002,0.031342,-0.567395,-0.252960
39796,NaN,2.964303,-4.421266,11.775752,-11.568793,-1.937599,-4.394681,-6.305394,-0.918172,0.744069,-0.688232,-0.150391,-0.648193,0.029253,-0.040360,0.119205,0.999486,-0.031522,-0.004590,0.003720,0.781865,0.003377,-0.562925,-0.267938
39797,NaN,8.638278,20.987580,-8.081807,17.366238,12.256103,1.523912,3.748487,-2.636505,0.715984,-0.703369,-0.204102,-0.614014,0.086648,0.211637,-0.075721,0.999731,0.018741,-0.013181,0.003580,0.775017,0.012618,-0.578671,-0.253631
39798,NaN,28.726149,27.698473,-26.167839,38.753722,6.871414,17.134758,10.938676,-2.538845,0.223105,-0.722900,-0.253662,-0.566895,0.290101,0.290919,-0.242344,0.998424,0.054665,-0.012688,0.001115,0.765984,0.051105,-0.601554,-0.220883
39799,NaN,50.067119,15.823681,-23.321707,34.401361,-9.828705,35.136848,4.129383,-3.084168,-0.757515,-0.735107,-0.272949,-0.547852,0.504760,0.160993,-0.222148,0.999661,0.020645,-0.015419,-0.003787,0.754218,0.065928,-0.618172,-0.211359
39800,NaN,35.828649,6.534918,21.695439,-14.114440,-5.091240,29.835020,1.677115,0.096515,0.049534,-0.732910,-0.275146,-0.554199,0.358375,0.063617,0.217320,0.999965,0.008385,0.000483,0.000248,0.753923,0.072207,-0.619656,-0.205941
39801,NaN,6.097531,-5.725328,17.535168,-17.315910,-4.837304,-2.451865,-2.334384,-0.626100,0.575034,-0.743652,-0.266602,-0.541504,0.060585,-0.055025,0.176193,0.999923,-0.011672,-0.003130,0.002875,0.752990,0.061150,-0.620485,-0.210395
39802,NaN,-0.833687,0.244385,-11.353132,10.893840,-1.383993,-12.820035,1.285663,-3.306899,1.587641,-0.762939,-0.260254,-0.524414,-0.006481,0.003118,-0.113630,0.999811,0.006428,-0.016533,0.007938,0.743798,0.057583,-0.634737,-0.201393
39803,NaN,5.790810,-0.731039,-5.562285,5.822388,-3.723031,-5.660426,-1.049700,-2.282711,2.907384,-0.787109,-0.225830,-0.516113,0.058638,-0.006751,-0.054920,0.999815,-0.005248,-0.011413,0.014536,0.739269,0.042329,-0.643567,-0.193678
39804,NaN,13.108840,-2.538158,-10.345127,10.561527,-8.622493,0.156411,-1.481279,-2.567254,3.436306,-0.809082,-0.204590,-0.499268,0.132819,-0.023866,-0.101573,0.999743,-0.007406,-0.012835,0.017180,0.734390,0.023311,-0.652264,-0.186225
39805,NaN,18.047005,-2.283657,-4.433078,5.070902,-8.174229,6.248963,-0.427067,-1.963511,3.910989,-0.822510,-0.174561,-0.482666,0.181295,-0.019389,-0.042510,0.999758,-0.002135,-0.009817,0.019553,0.731051,0.007356,-0.660109,-0.172528
39806,NaN,26.048114,1.620285,-0.500126,2.497233,-4.822471,15.716835,1.049860,-2.341756,4.138797,-0.842529,-0.144531,-0.469971,0.260105,0.021604,-0.001850,0.999704,0.005249,-0.011708,0.020692,0.726566,-0.004476,-0.669611,-0.153955
39807,NaN,34.827141,4.431338,2.620110,0.093834,-2.026451,25.331461,0.288764,-2.403515,3.750013,-0.860107,-0.121094,-0.444824,0.347011,0.050786,0.030447,0.999751,0.001444,-0.012017,0.018749,0.720724,-0.017618,-0.679061,-0.138283
39808,NaN,36.811624,7.620051,2.469656,0.178294,2.023564,27.802362,2.027026,-3.317768,2.742864,-0.879395,-0.114746,-0.417236,0.366542,0.080938,0.031591,0.999717,0.010134,-0.016587,0.013713,0.711257,-0.021900,-0.692064,-0.121167
39809,NaN,30.189714,13.366048,6.243008,-3.615266,10.398909,21.931008,2.875622,-2.706248,2.659534,-0.892334,-0.097656,-0.392090,0.299194,0.136696,0.068442,0.999717,0.014377,-0.013530,0.013296,0.703062,-0.022299,-0.703644,-0.100462
39811,NaN,25.153068,8.651475,8.592010,-16.051753,15.715022,41.364196,2.192389,-2.812395,2.702240,-0.927002,-0.067871,-0.343506,0.493046,0.182416,0.189735,0.998999,0.021917,-0.028115,0.027013,0.685700,-0.028682,-0.724382,-0.065299
39812,NaN,20.588986,4.663899,6.238881,-7.104211,4.685033,10.487727,2.640568,-2.775207,2.381349,-0.940186,-0.057129,-0.328613,0.204424,0.048225,0.065862,0.999746,0.013202,-0.013875,0.011906,0.676066,-0.028993,-0.734805,-0.046430
39813,NaN,15.985016,7.942688,3.316132,-4.050830,8.111901,5.914686,2.815332,-2.180420,2.512359,-0.953125,-0.040039,-0.303467,0.158457,0.080930,0.036026,0.999763,0.014076,-0.010901,0.012561,0.668806,-0.029183,-0.742364,-0.027244
39814,NaN,9.613138,9.803994,2.502741,-2.928818,10.132607,-0.673758,2.859650,-1.964978,2.331036,-0.961914,-0.031494,-0.292969,0.094722,0.098769,0.027372,0.999782,0.014297,-0.009824,0.011654,0.661548,-0.028409,-0.749323,-0.007934
39815,NaN,4.198307,8.937977,1.667778,-1.837519,9.164684,-6.219091,2.722632,-1.796223,2.185004,-0.968506,-0.018799,-0.273926,0.040846,0.089589,0.018267,0.999807,0.013612,-0.008981,0.010924,0.655082,-0.027628,-0.754989,0.009775
39816,NaN,2.057825,6.511242,0.370316,-0.537966,6.634276,-8.243742,1.850036,-1.516052,1.929307,-0.975342,-0.008057,-0.261230,0.019917,0.065268,0.004459,0.999882,0.009250,-0.007580,0.009646,0.648896,-0.028701,-0.759966,0.023718
39817,NaN,-2.367898,8.798749,2.889812,-2.359538,8.564274,-13.342265,0.649544,-2.007393,1.676270,-0.981934,0.002686,-0.244385,-0.024705,0.087689,0.028939,0.999909,0.003248,-0.010037,0.008381,0.641020,-0.032691,-0.766162,0.031936
39818,NaN,-0.873563,15.162071,5.189797,-4.722879,14.979889,-13.110181,-0.768788,-2.314007,1.222003,-0.994873,0.013184,-0.227539,-0.010258,0.151759,0.051202,0.999907,-0.003844,-0.011570,0.006110,0.631237,-0.039424,-0.773859,0.033573
39819,NaN,6.718615,18.820213,6.624988,-7.391412,19.456724,-6.646671,-1.473293,-2.307113,0.720860,-0.997070,0.021729,-0.202148,0.065747,0.188926,0.065624,0.999900,-0.007366,-0.011535,0.003604,0.621750,-0.046440,-0.781237,0.030626
39820,NaN,6.746347,15.763100,5.305928,-6.020961,16.519319,-6.207798,-1.857636,-1.667204,0.465885,-0.999512,0.028076,-0.196045,0.066658,0.158274,0.052149,0.999919,-0.009288,-0.008336,0.002329,0.614201,-0.053809,-0.786909,0.025205
39821,NaN,4.799129,6.567261,6.988396,-7.502415,7.349454,-7.646551,-2.556885,-1.432667,0.387626,-1.003662,0.032471,-0.183350,0.047365,0.066654,0.069377,0.999891,-0.012784,-0.007163,0.001938,0.607674,-0.062969,-0.791509,0.016749
39822,NaN,2.207026,4.531914,8.466144,-8.299416,5.276875,-10.408297,-2.256772,-0.635825,0.342829,-1.008057,0.036621,-0.185303,0.021723,0.046309,0.084212,0.999930,-0.011284,-0.003179,0.001714,0.603948,-0.071207,-0.793787,0.008873
39823,NaN,-0.295229,1.695251,7.481649,-6.923345,2.225728,-12.272101,-1.219616,0.536227,0.213852,-1.001953,0.041016,-0.189697,-0.002770,0.017405,0.074719,0.999977,-0.006098,0.002681,0.001069,0.605532,-0.075732,-0.792197,0.004520
39824,NaN,-2.435727,-0.698382,5.210722,-4.480085,-0.538404,-13.447338,-0.407059,1.146823,0.132136,-0.999512,0.034668,-0.204346,-0.024053,-0.006894,0.052260,0.999981,-0.002035,0.005734,0.000661,0.609538,-0.077597,-0.788945,0.002646
39825,NaN,-4.540828,-3.155875,5.429657,-4.533174,-3.178785,-15.235278,-0.357291,1.426791,-0.037690,-1.004150,0.039062,-0.215088,-0.045025,-0.031453,0.054675,0.999973,-0.001786,0.007134,-0.000188,0.614926,-0.078526,-0.784665,0.000601
39826,NaN,-4.908153,-4.192372,6.002748,-5.229764,-4.145393,-15.571360,-0.251924,1.938342,-0.319015,-0.999756,0.030518,-0.238281,-0.048563,-0.041770,0.060552,0.999951,-0.001260,0.009692,-0.001595,0.622070,-0.078112,-0.779052,-0.002312
39828,NaN,-1.896909,2.268757,1.939446,-2.436607,4.502234,-14.692672,-0.952547,2.217785,-0.690201,-0.988770,0.015625,-0.274170,-0.036756,0.046004,0.039177,0.999685,-0.009524,0.022176,-0.006901,0.638306,-0.078556,-0.765603,-0.015724
39829,NaN,-0.454106,3.982491,0.863343,-0.202475,4.000125,-10.689894,-0.486695,2.380125,-0.998904,-0.973633,0.004883,-0.295166,-0.004240,0.039868,0.008588,0.999914,-0.002433,0.011900,-0.004994,0.646792,-0.076136,-0.758541,-0.021884
39830,NaN,0.822288,4.184484,1.013460,-0.489358,4.336050,-9.398479,-0.993934,2.445815,-1.229504,-0.971436,-0.005615,-0.318359,0.008602,0.041842,0.009823,0.999894,-0.004969,0.012229,-0.006147,0.655404,-0.074384,-0.750987,-0.030527
39831,NaN,2.630300,2.633386,0.309013,-0.196535,2.810351,-7.360997,-1.426709,2.692915,-1.301485,-0.954346,-0.010010,-0.341797,0.026510,0.026181,0.002547,0.999863,-0.007133,0.013464,-0.006507,0.664406,-0.073800,-0.742567,-0.041385
39832,NaN,3.683564,0.804993,0.022290,-0.225518,0.964678,-6.174797,-1.619088,2.956723,-1.316036,-0.947754,-0.020508,-0.364990,0.036885,0.007806,-0.000386,0.999836,-0.008095,0.014783,-0.006580,0.674323,-0.073643,-0.732854,-0.052822
39833,NaN,3.693297,-0.650863,0.962785,-1.309112,-0.358921,-6.186757,-1.640808,3.148843,-1.242520,-0.934814,-0.033447,-0.392334,0.037038,-0.006662,0.009099,0.999823,-0.008204,0.015743,-0.006212,0.684526,-0.073818,-0.722373,-0.064438
39834,NaN,5.870540,-1.527724,-1.679404,1.118457,-1.781765,-3.880722,-1.604078,3.355918,-1.204149,-0.915771,-0.033203,-0.419922,0.058320,-0.015768,-0.017650,0.999809,-0.008020,0.016779,-0.006020,0.695457,-0.073839,-0.710760,-0.075549
39835,NaN,10.063870,-1.620795,-2.869243,2.380573,-2.312721,0.242781,-1.419446,3.487973,-1.337231,-0.903076,-0.037354,-0.453857,0.100007,-0.017089,-0.030321,0.999800,-0.007097,0.017439,-0.006686,0.706408,-0.072713,-0.698694,-0.086759
39836,NaN,16.003744,4.327591,-2.955856,4.270904,3.019855,6.193078,-0.861222,3.781350,-1.474084,-0.883545,-0.054443,-0.479004,0.159751,0.041961,-0.032763,0.999785,-0.004306,0.018905,-0.007370,0.718436,-0.068927,-0.685438,-0.096302
39837,NaN,22.765465,11.677826,-6.714188,10.625055,8.486760,12.874400,-0.329455,4.245328,-1.607691,-0.862061,-0.065186,-0.512939,0.227087,0.114835,-0.072157,0.999741,-0.001647,0.021225,-0.008038,0.731625,-0.062548,-0.670679,-0.104893
39838,NaN,34.431236,18.287667,-0.813327,8.574454,14.570333,25.322648,-1.289912,4.267266,-2.198790,-0.842773,-0.075684,-0.546631,0.346000,0.178990,-0.016667,0.999691,-0.006449,0.021334,-0.010993,0.744077,-0.057615,-0.654965,-0.118537
39839,NaN,43.231266,14.956360,5.144353,4.692891,10.364607,34.786070,-2.850629,4.272482,-3.229531,-0.814941,-0.088623,-0.584717,0.435597,0.143172,0.040089,0.999540,-0.014251,0.021359,-0.016145,0.754645,-0.055088,-0.638320,-0.141507
39840,NaN,35.374696,-1.135934,4.870089,0.750140,-5.642128,25.453035,-2.970575,4.396501,-3.721375,-0.780762,-0.099121,-0.618652,0.354422,-0.017302,0.041141,0.999475,-0.014850,0.021979,-0.018604,0.764757,-0.051262,-0.620417,-0.166139
39841,NaN,33.868008,-1.050712,8.089918,-1.421003,-5.930200,24.481601,-1.973693,4.574850,-3.772885,-0.750732,-0.114014,-0.652588,0.340145,-0.016167,0.073270,0.999512,-0.009867,0.022871,-0.018861,0.774571,-0.043251,-0.602271,-0.188250
39842,NaN,38.541260,-1.907041,6.498258,1.817387,-9.967226,27.979551,-1.675093,4.547558,-3.646924,-0.722656,-0.133301,-0.679932,0.386333,-0.025614,0.056401,0.999540,-0.008374,0.022734,-0.018232,0.784045,-0.034444,-0.583696,-0.208293
39843,NaN,36.233452,-0.573176,3.940585,4.959543,-10.586621,24.708872,-0.653579,3.672752,-3.896564,-0.692383,-0.156738,-0.700928,0.362775,-0.012683,0.032780,0.999636,-0.003267,0.018362,-0.019480,0.789964,-0.021739,-0.569424,-0.226363
39844,NaN,29.240293,-0.753614,1.986985,5.268339,-10.493821,17.047397,0.953373,2.179189,-4.309525,-0.680664,-0.195312,-0.705078,0.292342,-0.013921,0.016628,0.999697,0.004766,0.010895,-0.021545,0.791088,-0.003222,-0.562294,-0.240822
39845,NaN,25.361784,14.329745,0.795298,10.994112,2.578334,17.047717,1.038109,0.506613,-5.213337,-0.662598,-0.233887,-0.715332,0.257257,0.136581,0.008025,0.999644,0.005190,0.002533,-0.026064,0.785628,0.016226,-0.561827,-0.258603
39846,NaN,24.655236,23.561944,-2.918091,17.955567,8.315733,18.110658,-2.167315,2.781347,-4.267203,-0.628662,-0.231689,-0.736572,0.251038,0.229935,-0.035164,0.999617,-0.010835,0.013905,-0.021333,0.787730,0.023295,-0.547643,-0.281115
39847,NaN,17.559049,12.791752,2.673045,7.690880,2.794332,10.484933,-3.099248,4.209449,-2.938559,-0.594971,-0.229492,-0.770508,0.177931,0.125670,0.021042,0.999551,-0.015494,0.021044,-0.014691,0.794715,0.025161,-0.526601,-0.300808
39850,NaN,13.232863,12.203483,2.277741,24.711786,9.329578,37.712840,-4.475078,2.929574,-1.866313,-0.521484,-0.145508,-0.851807,0.408855,0.357469,0.026317,0.996392,-0.067045,0.043891,-0.027961,0.808176,-0.000283,-0.469058,-0.356140
39851,NaN,7.874180,5.391151,-0.408254,5.988498,-0.788979,-2.415025,-6.397735,2.286301,-0.909293,-0.503906,-0.096191,-0.869141,0.078919,0.053367,-0.006697,0.999413,-0.031982,0.011429,-0.004546,0.810965,-0.019709,-0.448702,-0.374985
39852,NaN,6.200798,-0.100918,-1.021931,2.624026,-4.156528,-5.895961,-5.877883,1.546482,-0.561311,-0.490234,-0.051270,-0.880127,0.061923,-0.001492,-0.010659,0.999534,-0.029385,0.007731,-0.002806,0.812370,-0.039379,-0.431371,-0.390414
39853,NaN,4.816401,-2.817605,-2.715005,1.390364,-5.953407,-8.750410,-5.334076,0.781333,-0.320359,-0.491699,-0.006104,-0.886963,0.048013,-0.028967,-0.026572,0.999635,-0.026667,0.003906,-0.001602,0.811636,-0.058568,-0.418253,-0.403585
39854,NaN,4.214077,-5.590206,-4.052126,-0.168558,-8.042154,-10.657922,-4.963156,0.244097,-0.109433,-0.488770,0.034424,-0.883057,0.042061,-0.056908,-0.039169,0.999691,-0.024813,0.001220,-0.000547,0.810170,-0.077979,-0.407265,-0.414341
39855,NaN,-0.955001,-8.165325,-6.078720,-2.883554,-7.503624,-16.129369,-4.266316,-0.150838,0.042531,-0.493896,0.071045,-0.883301,-0.009487,-0.082927,-0.059034,0.999772,-0.021330,-0.000754,0.000213,0.807706,-0.095401,-0.399506,-0.422971
39856,NaN,-5.072091,-8.871262,-8.263769,-3.845486,-6.563079,-20.529267,-2.733117,-0.684070,0.114999,-0.503174,0.090332,-0.879150,-0.050389,-0.089861,-0.081588,0.999901,-0.013665,-0.003420,0.000575,0.805149,-0.108119,-0.396510,-0.427581
39857,NaN,-7.605149,-8.135409,-8.296316,-4.192860,-4.709796,-22.185560,-0.767172,-1.199868,0.231404,-0.511475,0.090332,-0.872803,-0.075459,-0.081760,-0.083104,0.999974,-0.003836,-0.005999,0.001157,0.802481,-0.114018,-0.400144,-0.427677
39858,NaN,-8.928524,-6.428214,-7.865555,-3.421435,-2.816898,-22.590030,0.906185,-1.685018,0.375872,-0.517578,0.079590,-0.862061,-0.088496,-0.064089,-0.079694,0.999952,0.004531,-0.008425,0.001879,0.800342,-0.114746,-0.408725,-0.423355
39859,NaN,-10.777218,-8.070444,-6.764054,-5.604609,-2.384515,-23.593893,1.872558,-1.923091,0.631895,-0.544678,0.066650,-0.855469,-0.106856,-0.080399,-0.069425,0.999905,0.009362,-0.009615,0.003159,0.798422,-0.112425,-0.420550,-0.415958
39860,NaN,-9.656578,-9.952293,-8.188667,-5.502558,-5.236636,-24.012285,2.629321,-1.891669,0.907026,-0.554688,0.047363,-0.844727,-0.095328,-0.098861,-0.084095,0.999859,0.013146,-0.009458,0.004535,0.797642,-0.107766,-0.433116,-0.405665
39861,NaN,-10.095061,-11.397590,-11.072769,-4.353002,-7.742537,-26.410018,3.873922,-2.106523,0.975055,-0.570801,0.017334,-0.825439,-0.099211,-0.112276,-0.113965,0.999745,0.019368,-0.010532,0.004875,0.796640,-0.098532,-0.449281,-0.392177
39862,NaN,-6.278912,-8.382544,-12.427593,0.543920,-8.671912,-23.545235,4.392874,-2.555790,0.833969,-0.595215,-0.014893,-0.814453,-0.060836,-0.081314,-0.126866,0.999668,0.021962,-0.012778,0.004169,0.794376,-0.087897,-0.467628,-0.377578
39863,NaN,-0.937848,-5.921082,-8.852365,1.901561,-8.040120,-16.597057,3.224063,-2.508474,0.654885,-0.609619,-0.030029,-0.793213,-0.008069,-0.057800,-0.089570,0.999786,0.016119,-0.012541,0.003274,0.790713,-0.081225,-0.483844,-0.366157
39864,NaN,1.789051,-3.954217,-5.030705,1.468168,-6.177880,-11.767243,1.380573,-2.781774,0.404640,-0.638916,-0.036621,-0.771973,0.018670,-0.039158,-0.050322,0.999877,0.006903,-0.013908,0.002023,0.785125,-0.081834,-0.497258,-0.360023
39865,NaN,4.921652,-2.422256,-2.533454,1.429723,-5.351617,-7.399899,0.071705,-3.345636,0.241099,-0.653809,-0.038818,-0.752930,0.049660,-0.024154,-0.024515,0.999859,0.000359,-0.016727,0.001205,0.776879,-0.088051,-0.510931,-0.357289
39866,NaN,8.263188,-1.655126,0.790266,0.082962,-4.566360,-2.686825,-0.094005,-3.668191,0.128047,-0.683105,-0.042969,-0.733643,0.082479,-0.016494,0.009424,0.999831,-0.000470,-0.018340,0.000640,0.767499,-0.095286,-0.524980,-0.355335
39867,NaN,10.626220,2.027236,4.576361,-0.175464,-0.739647,1.908008,0.979139,-3.697871,0.099225,-0.706299,-0.049561,-0.703857,0.105381,0.020094,0.047816,0.999817,0.004895,-0.018488,0.000496,0.758008,-0.098227,-0.541351,-0.350306
