// Start Time: Unknown
// Update Rate: 100.0Hz
// Filter Profile: human (46.1)
// Firmware Version: 4.4.0
PacketCounter,SampleTimeFine,Acc_X,Acc_Y,Acc_Z,FreeAcc_X,FreeAcc_Y,FreeAcc_Z,Gyr_X,Gyr_Y,Gyr_Z,Mag_X,Mag_Y,Mag_Z,VelInc_X,VelInc_Y,VelInc_Z,OriInc_q0,OriInc_q1,OriInc_q2,OriInc_q3,Quat_q0,Quat_q1,Quat_q2,Quat_q3
26688,NaN,9.848082,-1.711264,-2.044604,0.000000,-0.000000,0.389850,0.192190,0.138818,1.417468,-0.892090,0.257324,0.156006,0.098584,-0.016394,-0.020530,0.999974,0.000961,0.000694,0.007087,0.533774,-0.516664,-0.577644,-0.338335
26689,NaN,10.344956,-1.628648,-1.365701,0.000000,0.000000,0.748278,0.200297,0.193733,1.343071,-0.900879,0.263672,0.155762,0.103542,-0.015578,-0.013773,0.999976,0.001001,0.000969,0.006715,0.435940,-0.631726,-0.407591,-0.494721
26690,NaN,10.116379,-1.466293,-1.193906,0.128004,0.504304,0.465657,0.198073,0.272574,1.255028,-0.890625,0.281006,0.149170,0.101237,-0.014016,-0.012091,0.999979,0.000990,0.001363,0.006275,0.490798,-0.583733,-0.490772,-0.421326
26691,NaN,9.857048,-1.804199,-1.281494,-0.123745,0.354812,0.282671,0.217137,0.312099,1.179336,-0.897461,0.289551,0.153320,0.098654,-0.017446,-0.012988,0.999981,0.001086,0.001560,0.005897,0.494673,-0.585425,-0.487012,-0.418802
26692,NaN,9.961602,-1.729329,-0.748662,0.089957,0.861990,0.288418,0.238930,0.302232,1.096493,-0.891357,0.298096,0.140381,0.099697,-0.016738,-0.007657,0.999983,0.001195,0.001511,0.005482,0.498310,-0.586988,-0.483554,-0.416302
26693,NaN,9.726500,-2.204027,0.444950,-0.305863,1.987017,-0.034253,0.256999,0.301791,1.017645,-0.889648,0.312988,0.150879,0.097382,-0.021551,0.004275,0.999985,0.001285,0.001509,0.005088,0.501905,-0.588171,-0.480343,-0.414025
26694,NaN,9.341428,-1.781712,1.047675,0.133527,2.471236,-0.570998,0.234042,0.291975,0.946256,-0.881104,0.315186,0.142334,0.093512,-0.017387,0.010320,0.999987,0.001170,0.001460,0.004731,0.505299,-0.589311,-0.476871,-0.412285
26695,NaN,9.555773,-1.485630,1.096940,0.553597,2.510766,-0.425883,0.168044,0.276212,0.884862,-0.879395,0.325928,0.142090,0.095637,-0.014442,0.010825,0.999989,0.000840,0.001381,0.004424,0.508271,-0.590421,-0.473907,-0.410458
26696,NaN,9.381557,-1.597093,0.867029,0.492203,2.218294,-0.530855,0.085838,0.239139,0.826934,-0.879639,0.334473,0.133545,0.093891,-0.015587,0.008551,0.999991,0.000429,0.001196,0.004135,0.510454,-0.591993,-0.469725,-0.410291
26697,NaN,9.244660,-1.829252,0.745135,0.310395,2.065737,-0.593087,0.010297,0.203101,0.776150,-0.879883,0.345215,0.135498,0.092524,-0.017934,0.007356,0.999992,0.000051,0.001016,0.003881,0.512550,-0.593369,-0.466927,-0.408883
26698,NaN,9.841536,-2.165239,0.782801,0.200394,2.134866,0.064488,-0.028097,0.169082,0.719849,-0.873535,0.347412,0.131104,0.098499,-0.021297,0.007748,0.999993,-0.000140,0.000845,0.003599,0.514102,-0.595020,-0.461670,-0.410501
26699,NaN,10.177397,-2.270711,0.881176,0.248848,2.263143,0.401414,-0.040333,0.163489,0.641118,-0.880127,0.349609,0.131104,0.101853,-0.022379,0.008733,0.999995,-0.000202,0.000817,0.003206,0.515673,-0.596265,-0.459257,-0.409430
26700,NaN,10.054643,-2.749114,0.619181,-0.174680,1.938662,0.446340,-0.033948,0.160722,0.552417,-0.869629,0.353760,0.131104,0.100627,-0.027212,0.006116,0.999996,-0.000170,0.000804,0.002762,0.516428,-0.598019,-0.453111,-0.412754
26701,NaN,10.029265,-2.777817,0.609887,-0.155768,1.912609,0.433865,-0.010257,0.139999,0.470787,-0.878174,0.358154,0.128906,0.100362,-0.027542,0.006030,0.999997,-0.000051,0.000700,0.002354,0.517684,-0.598821,-0.451319,-0.411979
26702,NaN,9.992686,-3.110624,1.131723,-0.401172,2.372603,0.435250,0.061439,0.140476,0.374575,-0.869873,0.362305,0.120361,0.099993,-0.030922,0.011237,0.999998,0.000307,0.000702,0.001873,0.517756,-0.600673,-0.444608,-0.416465
26703,NaN,9.852799,-3.143893,1.600038,-0.418562,2.807998,0.260133,0.129703,0.131093,0.271994,-0.871826,0.355957,0.135254,0.098581,-0.031315,0.015915,0.999999,0.000649,0.000655,0.001360,0.519003,-0.600668,-0.443722,-0.415866
26704,NaN,10.181104,-2.338680,2.442614,0.566248,3.489096,0.316290,0.082107,0.138037,0.187385,-0.867920,0.370850,0.124512,0.101850,-0.023301,0.024346,0.999999,0.000411,0.000690,0.000937,0.519277,-0.601944,-0.435107,-0.422725
26705,NaN,10.083799,-2.452460,1.946937,0.416822,2.986156,0.306464,-0.062775,0.080064,0.090549,-0.874268,0.366699,0.124512,0.100857,-0.024473,0.019437,1.000000,-0.000314,0.000400,0.000453,0.519454,-0.602134,-0.434494,-0.422868
26706,NaN,10.487857,-2.832739,0.848214,0.140900,1.806071,0.932417,-0.167063,0.019758,-0.016406,-0.869873,0.366699,0.122314,0.104877,-0.028329,0.008495,1.000000,-0.000835,0.000099,-0.000082,0.517964,-0.603947,-0.424029,-0.432621
26707,NaN,10.785388,-2.975933,0.200680,0.022231,1.204564,1.312489,-0.207628,-0.043441,-0.124683,-0.876465,0.368896,0.130859,0.107835,-0.029824,0.002061,0.999999,-0.001038,-0.000217,-0.000623,0.516975,-0.604314,-0.424068,-0.433253
26708,NaN,10.932318,-3.306604,-0.161428,-0.291331,0.748537,1.581609,-0.204094,-0.105576,-0.255675,-0.872070,0.362305,0.128906,0.109282,-0.033207,-0.001523,0.999999,-0.001020,-0.000528,-0.001278,0.514336,-0.606000,-0.413956,-0.443692
26709,NaN,11.408747,-3.501413,-0.979704,-0.480293,0.009755,2.151768,-0.130386,-0.171229,-0.398601,-0.880371,0.358154,0.135254,0.114026,-0.035248,-0.009676,0.999997,-0.000652,-0.000856,-0.001993,0.512701,-0.605889,-0.415314,-0.444467
26710,NaN,11.201481,-3.914786,-1.188202,-1.016088,-0.257723,2.066339,-0.032714,-0.216270,-0.569047,-0.871582,0.353760,0.128906,0.111916,-0.039468,-0.011755,0.999995,-0.000164,-0.001081,-0.002845,0.509152,-0.607074,-0.406678,-0.454795
26711,NaN,10.871918,-4.715712,-1.734393,-2.013679,-0.647296,1.975868,0.095617,-0.352997,-0.758644,-0.875488,0.343018,0.135498,0.108570,-0.047561,-0.017175,0.999991,0.000478,-0.001765,-0.003793,0.506995,-0.606085,-0.410093,-0.455456
26712,NaN,11.190634,-4.378478,-1.110453,-1.578119,-0.085665,2.151234,0.218909,-0.468006,-0.983448,-0.877441,0.334473,0.137695,0.111715,-0.044322,-0.010891,0.999985,0.001095,-0.002340,-0.004917,0.503585,-0.606961,-0.406801,-0.460992
26713,NaN,12.628307,-4.663768,0.447920,-1.400068,1.607717,3.486857,0.362096,-0.558104,-1.253094,-0.885742,0.323730,0.150879,0.125975,-0.047436,0.004746,0.999975,0.001810,-0.002790,-0.006265,0.500648,-0.604771,-0.412833,-0.461706
26714,NaN,14.407681,-3.867655,2.403801,-0.046121,3.414868,4.906319,0.592784,-0.630630,-1.567704,-0.880859,0.306641,0.146729,0.143691,-0.039876,0.024374,0.999960,0.002964,-0.003153,-0.007838,0.496161,-0.603424,-0.411608,-0.469343
26715,NaN,15.582742,-2.978186,3.977669,1.034939,4.973617,5.733846,0.794133,-0.707349,-1.951685,-0.891113,0.291748,0.153320,0.155384,-0.031459,0.040204,0.999938,0.003971,-0.003537,-0.009758,0.492491,-0.599060,-0.421089,-0.470387
26716,NaN,16.757070,-2.541251,5.509037,1.798964,6.336768,6.746206,0.912381,-0.826775,-2.390883,-0.894775,0.274414,0.151367,0.167020,-0.027664,0.055659,0.999910,0.004562,-0.004134,-0.011954,0.483333,-0.598536,-0.417895,-0.483225
26717,NaN,18.917470,-2.409469,6.968835,2.057138,8.040344,8.716369,1.111385,-0.905276,-2.905714,-0.902344,0.244385,0.166748,0.188477,-0.027226,0.070397,0.999869,0.005557,-0.004526,-0.014528,0.477683,-0.591888,-0.431409,-0.485153
26718,NaN,22.177369,1.092597,8.027797,5.747186,8.311119,11.525154,1.424674,-0.868990,-3.403372,-0.905518,0.212402,0.167236,0.221559,0.006578,0.081298,0.999820,0.007123,-0.004345,-0.017016,0.467875,-0.586686,-0.431311,-0.500862
26719,NaN,24.862398,6.848331,7.504544,10.705338,7.243873,13.728125,1.543325,-0.798594,-3.887083,-0.908691,0.177979,0.169922,0.249581,0.063052,0.076541,0.999773,0.007716,-0.003993,-0.019434,0.460840,-0.576561,-0.448348,-0.504171
26720,NaN,25.699133,12.011497,5.191335,14.506117,2.797138,14.951464,1.606375,-0.797291,-4.417279,-0.911621,0.137207,0.168457,0.259342,0.113976,0.053876,0.999716,0.008031,-0.003986,-0.022084,0.434451,-0.576545,-0.437467,-0.536163
26721,NaN,24.003650,15.859751,2.843433,16.539509,0.251153,13.893461,1.409249,-0.843887,-4.993573,-0.916260,0.085938,0.179932,0.243766,0.152331,0.030546,0.999655,0.007045,-0.004219,-0.024965,0.423131,-0.564626,-0.457320,-0.541309
26722,NaN,20.037442,15.362800,1.241110,14.256870,-2.798770,10.870308,1.190767,-0.852741,-5.584018,-0.910156,0.032227,0.180664,0.204499,0.147875,0.014169,0.999583,0.005953,-0.004263,-0.027916,0.385161,-0.567428,-0.443083,-0.577368
26723,NaN,16.116715,11.051417,-0.490538,8.895944,-2.711479,7.377777,1.035435,-0.318448,-6.123286,-0.912354,-0.027832,0.181641,0.164456,0.105535,-0.004090,0.999517,0.005176,-0.001592,-0.030611,0.369533,-0.552516,-0.463840,-0.585683
26724,NaN,12.945185,7.575988,-4.504513,3.274834,-6.175397,4.199462,0.867491,0.310561,-6.096820,-0.904297,-0.074951,0.165283,0.131615,0.071964,-0.044931,0.999525,0.004337,0.001553,-0.030479,0.330918,-0.553852,-0.444882,-0.621145
26725,NaN,13.028598,-1.894796,-4.019415,-5.732494,-1.840658,2.565277,0.755424,0.565724,-4.455985,-0.905029,-0.113525,0.165771,0.129709,-0.021689,-0.040640,0.999741,0.003777,0.002828,-0.022278,0.320344,-0.540790,-0.458516,-0.628243
26726,NaN,16.478754,-22.545261,-6.021836,-26.316098,1.536939,1.195933,-0.042185,0.155178,-1.307672,-0.898438,-0.117676,0.163818,0.163262,-0.226536,-0.060298,0.999978,-0.000211,0.000776,-0.006538,0.354304,-0.513745,-0.485819,-0.611977
26727,NaN,10.030269,-15.331389,-10.310151,-19.396994,-4.997677,-3.430884,-0.241087,0.356957,2.077501,-0.903564,-0.092041,0.165527,0.101705,-0.152387,-0.103098,0.999944,-0.001205,0.001785,0.010387,0.360888,-0.518096,-0.479085,-0.609765
26728,NaN,1.837024,0.941036,-8.356586,-1.888340,-8.159412,-7.825148,-0.685704,0.598274,3.414452,-0.902100,-0.068359,0.147949,0.017959,0.009433,-0.083652,0.999844,-0.003428,0.002991,0.017071,0.368566,-0.528150,-0.468443,-0.604796
26729,NaN,2.279928,8.689223,-2.735289,7.004050,-5.097327,-6.188725,-1.399631,0.813897,3.346509,-0.907471,-0.042725,0.147461,0.021230,0.087062,-0.028050,0.999827,-0.006998,0.004069,0.016732,0.376832,-0.536013,-0.453793,-0.603953
26730,NaN,7.176429,1.111488,0.246188,0.211191,0.058974,-2.550239,-1.647090,0.770586,3.471176,-0.903809,-0.019043,0.130127,0.071565,0.012376,0.002087,0.999808,-0.008235,0.003853,0.017355,0.379721,-0.547615,-0.435136,-0.605464
26731,NaN,7.288731,-1.380877,-1.252082,-2.424695,-0.674406,-2.723213,-0.862899,1.183305,3.497943,-0.902588,0.004639,0.123291,0.073039,-0.012587,-0.012897,0.999820,-0.004314,0.005916,0.017489,0.390453,-0.553182,-0.420622,-0.603833
26732,NaN,0.821245,2.847057,-0.573959,2.415238,-1.523646,-8.836004,-0.475857,1.195450,3.068564,-0.898926,0.028076,0.110107,0.007740,0.028578,-0.005855,0.999862,-0.002379,0.005977,0.015342,0.400806,-0.555618,-0.409800,-0.602252
26733,NaN,-2.524311,5.656904,-1.391777,4.956969,-3.170485,-12.196827,-0.631779,0.793416,2.338348,-0.903809,0.045410,0.109863,-0.025957,0.056224,-0.013994,0.999919,-0.003159,0.003967,0.011691,0.407685,-0.559240,-0.399778,-0.601017
26734,NaN,-3.859914,6.465170,-1.267919,5.797688,-3.221078,-13.596197,-0.743003,0.414782,1.604582,-0.895508,0.049561,0.105469,-0.039142,0.064292,-0.012838,0.999959,-0.003715,0.002074,0.008023,0.412680,-0.559667,-0.396793,-0.599186
26735,NaN,-5.336015,7.219748,-1.100773,6.538831,-3.261082,-15.143503,-0.856065,0.221116,0.969536,-0.902100,0.055908,0.103271,-0.053722,0.071890,-0.011257,0.999978,-0.004280,0.001106,0.004848,0.413619,-0.562681,-0.391050,-0.599491
26736,NaN,-7.183219,7.445132,-0.894221,6.908789,-2.986285,-16.966604,-0.900624,0.092566,0.369713,-0.902100,0.056152,0.096924,-0.071974,0.074277,-0.009244,0.999988,-0.004503,0.000463,0.001849,0.415000,-0.560239,-0.394510,-0.598556
26737,NaN,-8.193324,6.212187,-0.718368,5.808099,-2.394750,-17.983898,-0.941096,-0.043220,-0.224255,-0.906250,0.049561,0.107666,-0.081862,0.062179,-0.007494,0.999988,-0.004705,-0.000216,-0.001121,0.411602,-0.561871,-0.392406,-0.600751
26738,NaN,-7.993985,5.272222,-0.556271,5.106357,-1.919970,-17.702399,-1.023267,-0.220516,-0.790530,-0.899170,0.036621,0.103516,-0.079724,0.053008,-0.005921,0.999978,-0.005116,-0.001103,-0.003953,0.409607,-0.556689,-0.401649,-0.600831
26739,NaN,-6.808705,4.898828,-0.569516,4.731152,-1.960447,-16.479968,-1.239646,-0.463649,-1.239105,-0.905273,0.021729,0.112305,-0.067768,0.049372,-0.006158,0.999959,-0.006198,-0.002318,-0.006195,0.401486,-0.558108,-0.402307,-0.604545
26740,NaN,-4.951516,4.176986,-1.114132,3.900882,-2.321922,-14.566236,-1.524615,-0.769142,-1.530182,-0.906982,0.013184,0.116699,-0.049150,0.042059,-0.011651,0.999934,-0.007623,-0.003846,-0.007651,0.395446,-0.552842,-0.414345,-0.605232
26741,NaN,-3.169360,2.903770,-1.924974,2.297107,-2.782805,-12.839330,-1.679168,-1.011784,-1.708436,-0.908691,-0.006104,0.132080,-0.031346,0.029143,-0.019653,0.999915,-0.008396,-0.005059,-0.008542,0.383505,-0.555636,-0.415951,-0.609243
26742,NaN,-1.406322,2.063764,-2.890915,1.096559,-3.429619,-11.088959,-1.567267,-1.139575,-1.847140,-0.908203,-0.021240,0.140869,-0.013708,0.020538,-0.029149,0.999910,-0.007836,-0.005698,-0.009235,0.375902,-0.550076,-0.429857,-0.609375
26743,NaN,0.589880,1.545686,-3.455946,0.141883,-3.764311,-9.112789,-1.221204,-1.119947,-1.910796,-0.905518,-0.036133,0.153809,0.006239,0.015187,-0.034618,0.999920,-0.006106,-0.005600,-0.009554,0.364285,-0.551630,-0.433462,-0.612463
26744,NaN,1.739515,0.639230,-3.520521,-0.847978,-3.453154,-8.028123,-0.946410,-1.046986,-1.890330,-0.906982,-0.055420,0.154297,0.017638,0.006060,-0.035142,0.999930,-0.004732,-0.005235,-0.009451,0.358307,-0.544353,-0.448909,-0.611372
26745,NaN,2.800415,-0.455026,-2.833108,-1.845981,-2.337427,-7.128631,-0.641782,-0.961482,-1.811990,-0.910889,-0.068359,0.175781,0.028097,-0.004895,-0.028181,0.999942,-0.003209,-0.004807,-0.009060,0.348843,-0.544342,-0.453575,-0.613409
26746,NaN,4.426046,-2.332050,-1.814470,-3.556050,-0.637674,-5.905280,-0.285947,-0.752506,-1.633760,-0.906250,-0.081299,0.176025,0.044136,-0.023707,-0.017945,0.999959,-0.001430,-0.003762,-0.008169,0.345616,-0.536033,-0.468750,-0.611139
26747,NaN,6.349754,-4.179077,-0.519511,-5.252565,1.378592,-4.468234,0.293873,-0.360897,-1.318535,-0.907959,-0.087646,0.180420,0.063230,-0.042201,-0.005143,0.999976,0.001469,-0.001804,-0.006593,0.341520,-0.533523,-0.473794,-0.611749
26748,NaN,6.296361,-4.607257,0.681214,-5.386151,2.568692,-4.740649,0.844205,0.097050,-0.930360,-0.905762,-0.089844,0.178223,0.062752,-0.046393,0.006586,0.999980,0.004221,0.000485,-0.004652,0.344371,-0.524024,-0.486479,-0.608397
26749,NaN,4.353283,-3.348716,1.621333,-3.576461,2.889600,-6.399123,1.036809,0.438657,-0.596824,-0.914551,-0.085693,0.182373,0.043468,-0.033700,0.015944,0.999980,0.005184,0.002193,-0.002984,0.346331,-0.519440,-0.490431,-0.608041
26750,NaN,2.067730,-1.646738,1.846369,-1.499612,2.385905,-8.245887,0.886695,0.483370,-0.242017,-0.908203,-0.083496,0.171631,0.020702,-0.016574,0.018340,0.999987,0.004433,0.002417,-0.001210,0.351190,-0.512274,-0.497972,-0.605198
26751,NaN,0.887590,-2.032082,2.661741,-1.393871,3.155827,-9.496664,0.570141,0.359574,0.118752,-0.919189,-0.079102,0.180176,0.008936,-0.020391,0.026543,0.999994,0.002851,0.001798,0.000594,0.353903,-0.510475,-0.498759,-0.604489
26752,NaN,1.867725,-3.303356,3.230966,-2.710936,4.073069,-8.863702,0.193321,0.227017,0.512467,-0.917236,-0.070557,0.162842,0.018799,-0.033017,0.032256,0.999996,0.000967,0.001135,0.002562,0.358045,-0.508147,-0.501147,-0.602032
26753,NaN,3.130638,-4.603015,3.938258,-4.035029,5.160809,-7.919867,-0.111490,0.318193,0.903561,-0.924072,-0.062012,0.171387,0.031576,-0.045866,0.039358,0.999988,-0.000557,0.001591,0.004518,0.361275,-0.509644,-0.497940,-0.601497
26754,NaN,12.782021,-37.075389,2.978417,-36.981206,12.756520,-5.754280,-0.275735,-0.204190,1.404541,-0.925049,-0.034180,0.175293,0.130389,-0.369803,0.030427,0.999974,-0.001379,-0.001021,0.007023,0.364890,-0.513214,-0.495192,-0.598541
26755,NaN,39.136102,-34.153067,-1.127489,-39.999652,9.825991,21.847740,0.366841,-0.152167,4.377986,-0.917969,0.012939,0.172363,0.398719,-0.332835,-0.011589,0.999758,0.001834,-0.000761,0.021888,0.378468,-0.523712,-0.485215,-0.589113
26756,NaN,31.710171,-10.465649,-0.625000,-13.974465,3.936249,20.258038,-0.540110,0.141853,6.790428,-0.924561,0.077393,0.169189,0.320406,-0.093831,-0.006213,0.999420,-0.002700,0.000709,0.033946,0.393067,-0.548865,-0.455126,-0.580608
26757,NaN,11.891925,51.315775,-5.556941,46.535981,-19.939404,5.728374,-3.028904,1.031591,5.339029,-0.921631,0.117920,0.175049,0.104868,0.515157,-0.063927,0.999516,-0.015142,0.005157,0.026691,0.402410,-0.563702,-0.429437,-0.579559
26758,NaN,9.879213,29.603494,-4.220034,26.074076,-14.038128,0.895782,-4.349579,-0.090085,2.357706,-0.917725,0.126709,0.172852,0.095322,0.296162,-0.048597,0.999694,-0.021746,-0.000450,0.011787,0.392493,-0.582766,-0.403805,-0.585896
26759,NaN,5.296966,-25.320021,-7.899634,-26.426008,2.250076,-4.512132,-2.224023,-0.518901,2.698464,-0.918457,0.147949,0.183105,0.056587,-0.253309,-0.076036,0.999844,-0.011120,-0.002594,0.013492,0.392808,-0.594005,-0.390383,-0.583490
26760,NaN,12.287733,-7.412198,-8.198196,-9.634718,-4.790568,2.730888,1.936241,0.810704,2.180340,-0.912842,0.176025,0.163574,0.123334,-0.071978,-0.083185,0.999886,0.009681,0.004053,0.010901,0.406373,-0.593763,-0.386943,-0.576699
26761,NaN,1.802020,8.650500,-6.189964,5.885114,-8.930962,-8.401676,1.781257,1.161717,1.513142,-0.919922,0.190918,0.154785,0.017005,0.087184,-0.061226,0.999915,0.008906,0.005808,0.007565,0.418236,-0.589669,-0.385193,-0.573580
26762,NaN,28.294118,20.272445,-4.962912,18.792381,-12.644293,17.077400,0.851224,0.078561,2.102149,-0.907959,0.218750,0.152100,0.280769,0.205892,-0.048868,0.999936,0.004256,0.000393,0.010511,0.424729,-0.595026,-0.378628,-0.567618
26763,NaN,118.753367,96.424995,2.911724,99.864860,-36.438704,100.217308,-2.027267,0.167370,2.077105,-0.910645,0.235840,0.149902,1.177451,0.976735,0.018270,0.999894,-0.010136,0.000837,0.010385,0.424865,-0.602724,-0.366300,-0.567484
26764,NaN,-11.578371,-7.126007,-3.868381,-9.083321,-0.526120,-20.628896,-1.460756,1.462722,3.675621,-0.898682,0.263672,0.155762,-0.114721,-0.073651,-0.037310,0.999778,-0.007303,0.007313,0.018377,0.434150,-0.604129,-0.358055,-0.564215
26765,NaN,9.982651,-44.752411,-9.220623,-43.472909,7.155368,5.879862,0.129683,0.238251,2.450198,-0.897461,0.287354,0.146973,0.105188,-0.446197,-0.092619,0.999924,0.000648,0.001191,0.012251,0.441847,-0.607514,-0.350475,-0.559343
26766,NaN,0.734695,-3.234106,-5.752671,-4.947270,-4.288402,-8.705680,1.528865,0.909254,1.688126,-0.897949,0.302490,0.125244,0.007355,-0.031838,-0.057805,0.999925,0.007644,0.004546,0.008440,0.452066,-0.603878,-0.352311,-0.553936
26767,NaN,6.059037,-13.336536,0.706617,-11.250248,4.647549,-1.633624,1.359695,0.793263,1.689531,-0.894043,0.315186,0.129395,0.061739,-0.132890,0.005918,0.999933,0.006798,0.003966,0.008447,0.462218,-0.601542,-0.349159,-0.550082
26768,NaN,1.841133,-5.107209,6.484449,-2.410657,7.567154,-6.906500,1.662024,0.809839,1.048023,-0.889893,0.321777,0.116455,0.018942,-0.051510,0.064342,0.999944,0.008310,0.004049,0.005240,0.472488,-0.596271,-0.354408,-0.543701
26769,NaN,7.454005,-0.871003,5.898052,2.203635,5.153604,-2.086638,0.970537,0.581031,0.785017,-0.892334,0.334717,0.107666,0.074745,-0.008702,0.058721,0.999976,0.004853,0.002905,0.003925,0.478533,-0.593774,-0.353325,-0.541849
26770,NaN,9.451766,3.827339,8.210206,7.624877,5.826171,-0.907197,-0.553902,0.203819,0.667190,-0.881836,0.336670,0.105469,0.094472,0.038816,0.081899,0.999990,-0.002770,0.001019,0.003336,0.479779,-0.595055,-0.353377,-0.539302
26771,NaN,13.134483,-1.719649,7.229407,2.880342,6.090841,3.690592,-1.556336,0.043951,0.551995,-0.888428,0.341064,0.118408,0.131406,-0.016271,0.072394,0.999966,-0.007782,0.000220,0.002760,0.476697,-0.599623,-0.347421,-0.540842
26772,NaN,11.255761,-4.326984,3.217556,-1.054546,3.279606,2.183092,-1.442400,0.176470,0.454315,-0.877686,0.341064,0.116211,0.112684,-0.042781,0.032386,0.999971,-0.007212,0.000882,0.002272,0.475034,-0.602067,-0.345519,-0.540809
26773,NaN,9.878634,-5.828205,0.986592,-3.335243,1.778336,1.061236,-0.854194,0.250082,0.311217,-0.884277,0.347412,0.124756,0.098889,-0.058086,0.009991,0.999989,-0.004271,0.001250,0.001556,0.473730,-0.603949,-0.341675,-0.542295
26774,NaN,10.748391,-4.639021,2.476323,-1.572630,2.723572,1.732419,-0.487191,0.346119,0.171399,-0.884277,0.347412,0.116211,0.107566,-0.046238,0.024690,0.999995,-0.002436,0.001731,0.000857,0.473811,-0.603817,-0.341171,-0.542689
26775,NaN,11.084028,-3.040803,3.816372,0.427809,3.414690,1.798671,-0.276962,0.339025,0.017619,-0.886475,0.349609,0.120361,0.110907,-0.030346,0.038018,0.999998,-0.001385,0.001695,0.000088,0.473598,-0.603580,-0.339563,-0.544144
26776,NaN,11.011260,-2.922352,3.548866,0.422495,3.116544,1.697788,-0.263431,0.302446,-0.105225,-0.879883,0.347412,0.111816,0.110151,-0.029235,0.035361,0.999998,-0.001317,0.001512,-0.000526,0.472362,-0.603287,-0.338810,-0.546010
26777,NaN,10.624639,-2.870469,2.140678,-0.089543,1.802679,1.252905,-0.263402,0.189579,-0.227903,-0.888184,0.336670,0.114014,0.106234,-0.028798,0.021344,0.999998,-0.001317,0.000948,-0.001140,0.471264,-0.603003,-0.338331,-0.547567
26778,NaN,10.794668,-3.623460,1.371177,-1.061876,1.318405,1.530529,-0.302161,0.052729,-0.352429,-0.890381,0.338867,0.116211,0.107886,-0.036404,0.013738,0.999997,-0.001511,0.000264,-0.001762,0.470024,-0.602280,-0.339906,-0.548452
26779,NaN,11.101460,-3.347356,1.174302,-0.859101,1.042085,1.763231,-0.318804,-0.157231,-0.504738,-0.894775,0.336670,0.122559,0.110920,-0.033735,0.011884,0.999995,-0.001594,-0.000786,-0.002524,0.467408,-0.602599,-0.340921,-0.549706
26780,NaN,10.968057,-3.477562,1.668685,-0.875471,1.629486,1.665723,-0.352677,-0.373567,-0.633043,-0.894287,0.323975,0.118652,0.109538,-0.035093,0.016953,0.999992,-0.001763,-0.001868,-0.003165,0.462586,-0.603978,-0.341679,-0.551797
26781,NaN,11.317739,-3.386384,2.927253,-0.343114,2.830148,2.019431,-0.391408,-0.556088,-0.783781,-0.894043,0.315186,0.133789,0.112962,-0.034249,0.029654,0.999987,-0.001957,-0.002780,-0.003919,0.458283,-0.605070,-0.344249,-0.552594
26782,NaN,12.390024,-3.323738,3.229354,-0.091179,3.108582,3.044806,-0.284823,-0.612489,-0.998096,-0.885010,0.306641,0.133789,0.123633,-0.033808,0.032720,0.999982,-0.001424,-0.003062,-0.004990,0.453538,-0.605493,-0.348119,-0.553619
26783,NaN,12.284479,-3.761707,2.123891,-1.004749,2.366978,2.952686,-0.095629,-0.677657,-1.266430,-0.897705,0.295898,0.142578,0.122530,-0.038383,0.021673,0.999974,-0.000478,-0.003388,-0.006332,0.448549,-0.605365,-0.353218,-0.554594
26784,NaN,13.288328,-4.113431,1.436747,-1.589385,1.922341,3.947317,0.130733,-0.772703,-1.568443,-0.899414,0.283203,0.142822,0.132498,-0.042184,0.014853,0.999962,0.000654,-0.003863,-0.007842,0.443518,-0.604066,-0.360201,-0.555564
26785,NaN,15.891343,-4.072537,3.864247,-0.593742,4.220080,6.493181,0.397632,-0.760043,-1.848312,-0.905273,0.263672,0.155762,0.158379,-0.042268,0.039162,0.999948,0.001988,-0.003800,-0.009241,0.438190,-0.601935,-0.368556,-0.556624
26786,NaN,17.255011,-2.665191,4.170557,0.657721,4.181070,7.631539,0.678930,-0.789398,-2.322494,-0.904297,0.235840,0.156250,0.172058,-0.028795,0.042290,0.999919,0.003395,-0.003947,-0.011612,0.432092,-0.598333,-0.378476,-0.558614
26787,NaN,19.909394,-1.023920,4.218360,2.003484,3.892081,10.087875,0.978720,-0.806687,-2.810729,-0.914062,0.208008,0.165283,0.198750,-0.013243,0.042926,0.999881,0.004893,-0.004033,-0.014053,0.425589,-0.593081,-0.391318,-0.560357
26788,NaN,22.140677,2.176228,3.166676,4.215791,2.167459,12.152037,1.316773,-0.747350,-3.315952,-0.915527,0.186523,0.163330,0.221604,0.017876,0.032621,0.999834,0.006584,-0.003737,-0.016579,0.418656,-0.585646,-0.405732,-0.563141
26789,NaN,23.271042,5.431961,1.294480,6.013955,-0.163921,13.348715,1.589411,-0.695667,-3.842967,-0.918701,0.154541,0.170166,0.233648,0.049727,0.014164,0.999778,0.007946,-0.003478,-0.019213,0.410982,-0.576351,-0.422828,-0.565801
26790,NaN,23.885353,9.363217,-0.693779,8.027769,-3.383150,14.325567,1.952087,-0.613604,-4.442253,-0.925537,0.105225,0.160156,0.240873,0.088354,-0.005321,0.999701,0.009759,-0.003068,-0.022209,0.378555,-0.582024,-0.417947,-0.585888
26791,NaN,21.835075,13.377711,-1.302419,10.735034,-4.741846,12.981014,2.086233,-0.607358,-5.079936,-0.926025,0.058105,0.169434,0.221692,0.128296,-0.010997,0.999618,0.010430,-0.003036,-0.025396,0.368328,-0.569016,-0.439832,-0.589155
26792,NaN,17.564792,16.358363,-1.118685,12.613018,-5.954171,9.748849,2.072408,-0.614847,-5.799727,-0.922119,0.006592,0.168213,0.180324,0.158500,-0.008977,0.999521,0.010360,-0.003074,-0.028994,0.334618,-0.568765,-0.444264,-0.605944
26793,NaN,14.591436,11.709550,-2.600712,7.349684,-5.066271,6.830038,1.771648,-0.403539,-6.463809,-0.924316,-0.051270,0.181885,0.149651,0.112521,-0.024697,0.999437,0.008857,-0.002017,-0.032313,0.318986,-0.552344,-0.468436,-0.611336
26794,NaN,11.572191,2.131845,-7.078254,-3.568211,-5.501316,2.251013,1.937631,0.259077,-6.485721,-0.913818,-0.106934,0.176270,0.116255,0.018239,-0.070746,0.999426,0.009686,0.001295,-0.032422,0.284514,-0.547057,-0.475239,-0.627637
26795,NaN,13.583804,-9.127984,-4.012148,-13.170426,2.015562,0.500700,2.235636,0.817178,-4.567194,-0.910645,-0.136963,0.170410,0.133545,-0.093887,-0.041710,0.999668,0.011177,0.004085,-0.022833,0.278139,-0.530275,-0.493429,-0.630852
26796,NaN,18.404370,-21.397794,-6.945582,-26.542559,5.497604,0.678964,1.460061,0.456475,-1.232400,-0.910645,-0.136963,0.157471,0.182561,-0.214589,-0.071439,0.999952,0.007300,0.002282,-0.006162,0.264197,-0.534408,-0.489089,-0.636710
26797,NaN,3.521236,-9.438566,-7.185924,-12.142211,-2.323265,-9.276463,1.179207,0.756718,1.884815,-0.908936,-0.119873,0.159424,0.035823,-0.093624,-0.072548,0.999931,0.005896,0.003784,0.009424,0.275174,-0.535008,-0.486778,-0.633319
26798,NaN,-2.765963,8.716294,-4.298281,6.451901,-7.771908,-9.560428,-0.032924,0.492014,2.785587,-0.903320,-0.096191,0.150635,-0.028976,0.086758,-0.042927,0.999900,-0.000165,0.002460,0.013927,0.279729,-0.544591,-0.473881,-0.632937
26799,NaN,0.651332,7.813935,-0.165267,6.576523,-3.189850,-6.970321,-1.246901,0.467061,2.586662,-0.910400,-0.076904,0.147949,0.005498,0.078202,-0.002154,0.999894,-0.006234,0.002335,0.012933,0.285591,-0.550921,-0.462193,-0.633483
26800,NaN,8.124323,-3.250072,1.085148,-4.036676,3.591521,-2.845179,-1.341662,0.384134,2.675940,-0.913086,-0.066162,0.141357,0.081689,-0.031337,0.010908,0.999886,-0.006708,0.001921,0.013379,0.281966,-0.564054,-0.442464,-0.637623
26801,NaN,9.250068,-6.341759,-0.653114,-7.572440,3.487391,-2.282975,-0.138707,0.890058,2.702939,-0.914062,-0.033936,0.138916,0.093316,-0.062165,-0.006902,0.999899,-0.000694,0.004450,0.013514,0.292126,-0.567328,-0.433104,-0.636571
26802,NaN,2.168433,0.112337,-0.314976,-0.437881,-0.076264,-7.664173,0.401637,1.009413,2.311697,-0.908203,-0.019043,0.123535,0.021653,0.001380,-0.003257,0.999918,0.002008,0.005047,0.011558,0.292518,-0.575315,-0.417411,-0.639698
26803,NaN,-2.293189,4.992949,-0.923477,4.187085,-3.438297,-11.111436,-0.175748,0.638929,1.621040,-0.912598,-0.012695,0.119141,-0.023365,0.049733,-0.009204,0.999962,-0.000879,0.003195,0.008105,0.298512,-0.576882,-0.411241,-0.639514
26804,NaN,-4.077375,6.096060,-2.146096,4.634326,-5.321812,-12.744074,-0.840455,0.157374,1.150729,-0.904541,0.000244,0.114746,-0.041140,0.060634,-0.021684,0.999974,-0.004202,0.000787,0.005754,0.291696,-0.585138,-0.397918,-0.643575
26805,NaN,-4.815744,5.529590,-1.594246,4.478593,-4.652425,-13.634422,-1.122543,-0.286110,0.780398,-0.913086,0.000244,0.129639,-0.048349,0.055017,-0.016321,0.999976,-0.005613,-0.001431,0.003902,0.290339,-0.589227,-0.392436,-0.643824
26806,NaN,-5.219189,5.374225,-1.067543,4.615141,-4.205214,-14.087923,-1.299708,-0.454935,0.454511,-0.906494,-0.001953,0.121338,-0.052289,0.053552,-0.011143,0.999974,-0.006498,-0.002275,0.002273,0.287352,-0.593034,-0.388688,-0.643942
26807,NaN,-5.703195,4.034100,-0.358338,3.881605,-2.998610,-14.799644,-1.297954,-0.470523,0.176593,-0.908936,0.000244,0.129883,-0.057058,0.040266,-0.003979,0.999976,-0.006490,-0.002353,0.000883,0.283143,-0.596735,-0.384658,-0.644807
26808,NaN,-4.958422,2.714868,0.658466,3.230009,-1.416168,-14.279372,-1.158379,-0.501542,-0.064650,-0.912842,-0.008301,0.132080,-0.049591,0.027202,0.006303,0.999980,-0.005792,-0.002508,-0.000323,0.278862,-0.599205,-0.383323,-0.645176
26809,NaN,-3.788206,1.378580,0.481257,1.874133,-0.755840,-13.333881,-1.053454,-0.522565,-0.290994,-0.902100,-0.008301,0.142822,-0.037874,0.013866,0.004641,0.999982,-0.005267,-0.002613,-0.001455,0.273752,-0.601784,-0.381524,-0.646031
26810,NaN,-2.246591,0.221695,0.033150,0.485323,-0.344562,-11.990560,-0.886842,-0.565592,-0.476313,-0.906250,-0.014893,0.149170,-0.022461,0.002272,0.000258,0.999983,-0.004434,-0.002828,-0.002382,0.268758,-0.603187,-0.382402,-0.646300
26811,NaN,-0.665131,-0.285944,-0.317946,-0.328652,-0.176089,-10.509992,-0.764157,-0.579862,-0.581834,-0.910400,-0.021240,0.151611,-0.006650,-0.002852,-0.003188,0.999984,-0.003821,-0.002899,-0.002909,0.263452,-0.604958,-0.382467,-0.646791
26812,NaN,0.535362,-0.775265,-0.750823,-1.129387,-0.102157,-9.405966,-0.590947,-0.544958,-0.601457,-0.903809,-0.025635,0.153809,0.005351,-0.007791,-0.007471,0.999987,-0.002955,-0.002725,-0.003007,0.258960,-0.605633,-0.384580,-0.646720
26813,NaN,1.261554,-1.119164,-1.307809,-1.828867,-0.249936,-8.741628,-0.393897,-0.480736,-0.551686,-0.901367,-0.031982,0.166748,0.012616,-0.011252,-0.013026,0.999991,-0.001969,-0.002404,-0.002758,0.255047,-0.606624,-0.385603,-0.646737
26814,NaN,1.784715,-0.729907,-1.321139,-1.600052,-0.398926,-8.156169,-0.221476,-0.423999,-0.433804,-0.901367,-0.029785,0.166748,0.017859,-0.007352,-0.013165,0.999995,-0.001107,-0.002120,-0.002169,0.252463,-0.606786,-0.388166,-0.646066
26815,NaN,2.104169,0.581564,-0.862279,-0.331540,-0.718858,-7.603031,-0.280244,-0.377482,-0.267150,-0.903564,-0.029785,0.177490,0.021066,0.005775,-0.008591,0.999996,-0.001401,-0.001887,-0.001336,0.250007,-0.607831,-0.388553,-0.645806
26816,NaN,2.618957,1.330367,-0.112573,0.634313,-0.453878,-6.978411,-0.444450,-0.357934,-0.068434,-0.905762,-0.031982,0.170898,0.026196,0.013292,-0.001108,0.999996,-0.002222,-0.001790,-0.000342,0.248060,-0.608796,-0.389158,-0.645283
26817,NaN,3.121573,0.972264,1.212619,1.073183,0.893371,-6.617361,-0.729825,-0.279712,0.144462,-0.901611,-0.027832,0.181641,0.031192,0.009789,0.012134,0.999992,-0.003649,-0.001399,0.000722,0.245749,-0.610872,-0.386714,-0.645674
26818,NaN,2.815378,-0.543570,1.304993,-0.015963,1.796423,-7.224758,-1.005788,-0.206464,0.371932,-0.903809,-0.023438,0.179443,0.028150,-0.005318,0.013106,0.999985,-0.005029,-0.001032,0.001860,0.243760,-0.612887,-0.383891,-0.646203
26819,NaN,1.656218,-2.242689,1.277210,-1.185018,2.593913,-8.685226,-1.242682,-0.261794,0.617174,-0.910645,-0.017090,0.187988,0.016614,-0.022296,0.012933,0.999975,-0.006213,-0.001309,0.003086,0.241429,-0.616409,-0.378301,-0.647025
26820,NaN,0.650468,-2.733546,0.961216,-1.603398,2.498510,-9.737425,-1.481870,-0.389275,0.833070,-0.906738,-0.006348,0.185547,0.006599,-0.027236,0.009827,0.999962,-0.007409,-0.001946,0.004165,0.239012,-0.620522,-0.372448,-0.647386
26821,NaN,0.926680,-3.331627,1.122422,-1.950543,3.057618,-9.559154,-1.505569,-0.450971,1.046634,-0.913574,0.006592,0.200439,0.009415,-0.033181,0.011495,0.999955,-0.007528,-0.002255,0.005233,0.236869,-0.625695,-0.364857,-0.647517
26822,NaN,3.908489,-25.434716,2.026067,-18.438846,18.054024,-10.401706,-1.228927,-0.675749,1.425584,-0.907471,0.019287,0.206543,0.040824,-0.253929,0.021958,0.999950,-0.006145,-0.003379,0.007128,0.236554,-0.631543,-0.357997,-0.645781
26823,NaN,30.576255,-44.145576,-9.389395,-41.862166,25.085556,14.474125,0.280552,-1.139758,3.459346,-0.911377,0.066406,0.214355,0.313866,-0.435943,-0.092735,0.999833,0.001403,-0.005698,0.017296,0.246521,-0.640971,-0.349275,-0.637488
26824,NaN,35.337920,-9.465141,2.058849,-7.106785,11.579622,24.211457,0.856743,0.916752,5.605221,-0.904541,0.120117,0.202881,0.355936,-0.084781,0.018583,0.999588,0.004283,0.004583,0.028022,0.266159,-0.648577,-0.329041,-0.632644
26825,NaN,14.707742,34.986309,0.694325,27.011214,-21.061532,6.539402,-0.738950,1.619960,4.459492,-0.899170,0.150146,0.194092,0.139272,0.353046,0.004493,0.999712,-0.003694,0.008099,0.022295,0.280448,-0.651580,-0.310001,-0.633003
26826,NaN,11.935510,23.822421,2.109577,19.393233,-13.757541,2.393462,-2.137527,0.518719,2.197504,-0.901611,0.160889,0.196045,0.116776,0.239722,0.018234,0.999879,-0.010687,0.002593,0.010987,0.279784,-0.657319,-0.293122,-0.635400
26827,NaN,1.586279,-9.710068,-4.335242,-10.026801,3.456181,-8.049517,-1.999445,-0.268998,1.345919,-0.904541,0.177979,0.197754,0.016575,-0.097418,-0.042358,0.999926,-0.009997,-0.001345,0.006729,0.277065,-0.662889,-0.282708,-0.635523
26828,NaN,13.492472,4.261831,-4.921151,0.206145,-6.308341,3.773437,1.139261,0.601135,1.637629,-0.903076,0.199463,0.188965,0.134420,0.044001,-0.049368,0.999946,0.005696,0.003006,0.008188,0.284504,-0.662945,-0.277298,-0.634561
26829,NaN,15.499214,24.910546,-1.849930,17.626852,-18.400582,4.845627,0.512260,0.810695,1.973432,-0.903564,0.216553,0.182373,0.152449,0.250665,-0.018480,0.999940,0.002561,0.004053,0.009867,0.293562,-0.662334,-0.271220,-0.633699
26830,NaN,27.468752,14.339090,-7.537339,6.845941,-15.816646,17.018156,-0.904408,0.018663,1.937660,-0.897949,0.238037,0.184082,0.273276,0.145700,-0.076054,0.999943,-0.004522,0.000093,0.009688,0.296591,-0.666231,-0.262223,-0.631988
26831,NaN,62.636274,27.640655,-1.383218,23.359633,-22.304628,50.567756,-2.110783,0.045596,2.432156,-0.896240,0.250732,0.192627,0.622938,0.283828,-0.016944,0.999870,-0.010553,0.000228,0.012160,0.297258,-0.672314,-0.247358,-0.631226
26832,NaN,46.300090,26.410473,-2.933128,20.349890,-23.103583,33.796183,-1.904183,1.092523,2.141732,-0.888184,0.270020,0.179443,0.459961,0.268730,-0.034393,0.999882,-0.009521,0.005462,0.010708,0.299127,-0.673881,-0.234259,-0.633664
26833,NaN,7.503247,-17.697886,-13.977658,-21.557619,2.273882,-0.067067,-0.426185,0.868775,2.523000,-0.882568,0.293701,0.183350,0.076652,-0.176316,-0.139731,0.999909,-0.002131,0.004344,0.012615,0.306665,-0.674655,-0.223095,-0.633266
26834,NaN,12.832816,-9.730652,-6.415665,-10.022638,1.113040,4.287716,0.792416,0.973297,2.140750,-0.878906,0.310791,0.170166,0.129043,-0.095671,-0.065165,0.999923,0.003962,0.004866,0.010703,0.318508,-0.672026,-0.220180,-0.631233
26835,NaN,4.640370,-7.109271,1.398005,-3.487831,5.405901,-4.099733,0.921286,0.831976,1.637866,-0.877197,0.323730,0.163574,0.047041,-0.070772,0.013459,0.999947,0.004606,0.004160,0.008189,0.327663,-0.669696,-0.216256,-0.630379
26836,NaN,4.288041,-10.614909,4.968031,-3.539326,10.293954,-3.709519,0.906050,0.583764,1.422981,-0.873291,0.336670,0.156982,0.043779,-0.106063,0.049073,0.999960,0.004530,0.002919,0.007115,0.335664,-0.667907,-0.214781,-0.628569
26837,NaN,3.992032,-7.066900,5.981701,-0.423699,8.540239,-4.470354,1.258165,0.673677,1.148197,-0.873779,0.349365,0.144043,0.040527,-0.070811,0.059236,0.999958,0.006291,0.003368,0.005741,0.344174,-0.664879,-0.213768,-0.627522
26838,NaN,1.181523,-7.050348,6.434993,-0.542176,9.218349,-7.122322,1.568655,0.654862,0.667781,-0.861084,0.355957,0.141846,0.012261,-0.070965,0.063755,0.999958,0.007843,0.003274,0.003339,0.351301,-0.661104,-0.215443,-0.626988
26839,NaN,2.796825,-5.610599,6.424176,0.560995,7.975570,-5.732865,1.505819,0.529491,0.439011,-0.867432,0.358154,0.122559,0.028261,-0.056525,0.063743,0.999966,0.007529,0.002647,0.002195,0.358203,-0.657245,-0.217782,-0.626331
26840,NaN,3.881347,-3.843802,5.900697,1.564702,6.242811,-4.992278,1.111750,0.318412,0.335229,-0.867432,0.360352,0.118164,0.038972,-0.038700,0.058730,0.999982,0.005559,0.001592,0.001676,0.361894,-0.655057,-0.218768,-0.626158
26841,NaN,4.535412,-5.048145,4.898477,0.029685,6.142063,-4.127378,0.761443,0.122322,0.238460,-0.869873,0.364502,0.120117,0.045444,-0.050613,0.048764,0.999992,0.003807,0.000612,0.001192,0.365255,-0.653548,-0.220155,-0.625297
26842,NaN,5.716903,-4.871586,4.405701,-0.026204,5.449348,-3.020827,0.503462,-0.015441,0.066654,-0.867920,0.368896,0.117920,0.057182,-0.048808,0.043939,0.999997,0.002517,-0.000077,0.000333,0.365021,-0.653391,-0.219755,-0.625738
26843,NaN,7.520274,-4.968498,4.071896,-0.129575,4.954250,-1.253518,0.335728,-0.035317,-0.144516,-0.867920,0.373047,0.117920,0.075160,-0.049808,0.040649,0.999998,0.001679,-0.000177,-0.000723,0.365616,-0.652724,-0.221349,-0.625524
26844,NaN,8.880296,-4.141765,4.790616,1.104863,4.750825,-0.057040,0.262364,-0.000216,-0.300863,-0.867676,0.366699,0.111572,0.088740,-0.041614,0.047852,0.999998,0.001312,-0.000001,-0.001504,0.364154,-0.652305,-0.221822,-0.626646
26845,NaN,9.813896,-3.047509,5.294096,2.317919,4.302638,0.663076,0.150022,0.022717,-0.456948,-0.878174,0.358154,0.118164,0.098075,-0.030739,0.052907,0.999997,0.000750,0.000114,-0.002285,0.363226,-0.651448,-0.223748,-0.627391
26846,NaN,10.961219,-2.342555,4.403514,2.353899,3.017132,1.605829,-0.000859,-0.002796,-0.598156,-0.875977,0.355957,0.115967,0.109541,-0.023753,0.044037,0.999996,-0.000004,-0.000014,-0.002991,0.359728,-0.651202,-0.224015,-0.629562
26847,NaN,17.526351,-0.059979,6.088337,5.802946,1.812634,7.716825,-0.182371,0.025092,-0.616692,-0.880127,0.349609,0.118164,0.175268,-0.001085,0.060862,0.999995,-0.000912,0.000125,-0.003083,0.357209,-0.650753,-0.225411,-0.630961
26848,NaN,15.011013,2.152655,2.835939,4.952565,-1.625729,4.707479,-0.315069,-0.059393,-0.738002,-0.871094,0.341064,0.118408,0.150180,0.021017,0.028371,0.999992,-0.001575,-0.000297,-0.003690,0.351867,-0.651111,-0.224899,-0.633770
26849,NaN,12.752121,-1.761584,-2.483419,-1.761532,-2.600293,2.916082,-0.341755,-0.331516,-0.725509,-0.881836,0.336670,0.124756,0.127497,-0.018121,-0.024592,0.999991,-0.001709,-0.001658,-0.003628,0.348069,-0.651937,-0.226767,-0.634353
26850,NaN,12.003385,-2.540089,-1.632242,-1.881533,-1.237307,2.357989,-0.104701,-0.535419,-0.735635,-0.879395,0.330322,0.120605,0.119982,-0.025851,-0.015988,0.999990,-0.000524,-0.002677,-0.003678,0.343213,-0.653300,-0.228178,-0.635089
26851,NaN,12.529108,-2.827851,2.883427,0.969314,2.333022,3.106501,0.186383,-0.642675,-0.759479,-0.881348,0.321777,0.135742,0.125089,-0.028781,0.029210,0.999987,0.000932,-0.003213,-0.003797,0.340662,-0.654142,-0.232358,-0.634079
26852,NaN,11.727312,-2.116525,5.080479,2.867753,3.723129,2.259304,0.272629,-0.807850,-0.889034,-0.885498,0.315186,0.142334,0.116971,-0.021755,0.051248,0.999981,0.001363,-0.004039,-0.004445,0.337170,-0.655202,-0.236855,-0.633188
26853,NaN,11.195323,-3.292368,4.611194,1.614506,4.380016,1.833933,0.096721,-1.100935,-1.075433,-0.889404,0.306641,0.146729,0.111518,-0.033547,0.046710,0.999970,0.000484,-0.005505,-0.005377,0.332758,-0.657227,-0.242542,-0.631268
26854,NaN,11.194735,-4.760160,2.031216,-1.199291,3.638169,1.910262,-0.070869,-1.465675,-1.348662,-0.884521,0.289551,0.157715,0.111470,-0.048347,0.021147,0.999950,-0.000354,-0.007328,-0.006743,0.325140,-0.660564,-0.247670,-0.629761
26855,NaN,13.813753,-4.908831,1.009604,-1.789580,3.039669,4.452115,0.144047,-1.643228,-1.603634,-0.890625,0.276611,0.175049,0.137649,-0.050201,0.011192,0.999934,0.000720,-0.008216,-0.008018,0.318499,-0.663470,-0.256083,-0.626728
26856,NaN,16.849759,-4.619810,2.393946,-0.458979,4.046441,7.345068,0.777034,-1.565959,-1.886040,-0.890137,0.261475,0.181641,0.167858,-0.047879,0.025072,0.999917,0.003885,-0.007830,-0.009430,0.312077,-0.664895,-0.265885,-0.624362
26857,NaN,19.078314,-3.446492,4.870910,2.059364,5.484933,9.298416,1.393576,-1.378535,-2.262761,-0.895996,0.242188,0.192627,0.190034,-0.036962,0.049769,0.999888,0.006968,-0.006892,-0.011313,0.307768,-0.663936,-0.279887,-0.621394
26858,NaN,21.286473,-0.687582,5.337278,4.287712,4.547541,11.233983,1.996154,-1.204549,-2.787673,-0.897217,0.218750,0.195068,0.212410,-0.010379,0.054561,0.999835,0.009980,-0.006022,-0.013938,0.303441,-0.660640,-0.296179,-0.619481
26859,NaN,23.771713,3.958865,4.932276,7.299885,2.030674,13.588274,2.447551,-0.959330,-3.291430,-0.898438,0.190918,0.197754,0.238077,0.035056,0.050912,0.999778,0.012237,-0.004796,-0.016456,0.299833,-0.654872,-0.316028,-0.617551
26860,NaN,23.300630,7.946781,3.192935,8.796392,-1.019057,13.376849,2.588870,-0.712828,-3.795641,-0.899414,0.158691,0.198242,0.234335,0.074600,0.033750,0.999730,0.012943,-0.003564,-0.018976,0.294461,-0.647197,-0.336105,-0.617626
26861,NaN,19.617224,9.733055,1.339821,8.560228,-2.959253,10.168320,2.415271,-0.675701,-4.256238,-0.902588,0.122314,0.190186,0.198132,0.092951,0.015206,0.999695,0.012075,-0.003378,-0.021279,0.287899,-0.638371,-0.358234,-0.617466
26862,NaN,15.863497,11.885461,0.890540,9.630342,-4.163197,7.026161,1.982849,-0.790203,-4.716313,-0.903320,0.081543,0.195068,0.161337,0.114971,0.010692,0.999665,0.009913,-0.003951,-0.023579,0.277659,-0.629098,-0.379785,-0.618792
26863,NaN,13.587597,13.648004,1.177078,10.895562,-4.461221,5.470327,1.178927,-0.735777,-5.204906,-0.909912,0.027832,0.204346,0.139318,0.132809,0.013069,0.999637,0.005894,-0.003678,-0.026021,0.263758,-0.619619,-0.400693,-0.621248
26864,NaN,11.087122,10.807184,0.269384,7.722390,-3.542204,3.131436,-0.095699,-0.344455,-5.446952,-0.901855,-0.019287,0.200684,0.113754,0.105001,0.002837,0.999628,-0.000478,-0.001722,-0.027231,0.244736,-0.609562,-0.416783,-0.628356
26865,NaN,9.169258,4.269123,-1.674936,1.065662,-1.679743,0.243476,-0.634509,0.099962,-5.039922,-0.908691,-0.070557,0.201660,0.092720,0.040310,-0.016926,0.999677,-0.003172,0.000500,-0.025197,0.227089,-0.599316,-0.429900,-0.635954
26866,NaN,10.859454,-5.408988,-2.953067,-8.126756,2.988644,-0.817675,-0.274171,0.029332,-3.880255,-0.894775,-0.102783,0.193604,0.107513,-0.056223,-0.029470,0.999811,-0.001371,0.000147,-0.019400,0.213326,-0.590573,-0.440297,-0.641758
26867,NaN,14.360376,-15.384029,-1.336521,-16.083714,10.518328,-1.132946,0.004652,-0.294050,-2.089270,-0.894287,-0.117920,0.202393,0.142006,-0.155329,-0.013159,0.999944,0.000023,-0.001470,-0.010446,0.205966,-0.586868,-0.446778,-0.643081
26868,NaN,12.172818,-13.910062,-3.238018,-15.581686,7.729140,-2.768423,-0.401105,-0.683078,-0.309957,-0.887695,-0.122070,0.202393,0.121621,-0.139353,-0.031685,0.999991,-0.002006,-0.003415,-0.001550,0.202696,-0.587908,-0.447422,-0.642722
26869,NaN,1.502870,0.943253,-8.646961,-4.603384,-7.097928,-7.293590,-1.145913,-0.458887,0.844529,-0.883545,-0.117920,0.202393,0.015189,0.009001,-0.086487,0.999972,-0.005730,-0.002294,0.004223,0.200999,-0.592405,-0.441718,-0.643071
26870,NaN,-0.578043,8.310265,-4.888036,3.729104,-8.525578,-7.225575,-1.456976,0.156391,1.208502,-0.883789,-0.109375,0.193604,-0.006320,0.082707,-0.049479,0.999955,-0.007285,0.000782,0.006042,0.201670,-0.595182,-0.433751,-0.645715
26871,NaN,3.650252,-0.673875,-1.545966,-2.194329,0.058637,-6.443736,-1.643732,0.047454,1.569581,-0.886230,-0.100586,0.195557,0.036551,-0.006579,-0.015414,0.999935,-0.008218,0.000237,0.007848,0.201926,-0.600039,-0.423705,-0.647806
26872,NaN,9.047382,-9.225537,-0.577821,-9.177840,6.945987,-3.912292,-1.327587,0.437435,1.915184,-0.884521,-0.085693,0.178223,0.091340,-0.091420,-0.005369,0.999930,-0.006638,0.002187,0.009576,0.204881,-0.603785,-0.412906,-0.650366
26873,NaN,8.639680,-8.752962,-0.100893,-8.349580,6.895961,-3.982325,-0.274045,1.256852,2.025232,-0.893555,-0.074951,0.173828,0.087269,-0.086651,-0.001436,0.999928,-0.001370,0.006284,0.010126,0.213209,-0.604104,-0.404592,-0.652615
26874,NaN,2.930428,-4.027331,-1.424318,-4.489462,1.809249,-7.967163,0.399079,1.478562,1.919045,-0.889648,-0.055664,0.154297,0.029582,-0.039962,-0.014541,0.999925,0.001995,0.007393,0.009595,0.223403,-0.602763,-0.397883,-0.654566
26875,NaN,0.301473,-1.711845,-2.736796,-3.042001,-1.121228,-9.831599,0.718422,1.263231,1.828071,-0.892578,-0.036377,0.145508,0.002997,-0.016993,-0.027448,0.999932,0.003592,0.006316,0.009140,0.234038,-0.601409,-0.393295,-0.654868
26876,NaN,0.211047,-1.658036,-1.940596,-2.497878,-0.554197,-9.926535,0.721703,1.100633,1.676319,-0.890625,-0.025635,0.132324,0.002142,-0.016492,-0.019477,0.999943,0.003608,0.005503,0.008381,0.243614,-0.600366,-0.388688,-0.655084
26877,NaN,0.204178,-1.577698,-0.961514,-1.848168,0.164173,-9.924948,0.879598,1.032770,1.521080,-0.893311,-0.014648,0.121582,0.002112,-0.015719,-0.009695,0.999948,0.004398,0.005164,0.007605,0.253220,-0.598824,-0.385732,-0.654599
26878,NaN,-0.785562,-0.624182,-1.127555,-1.036592,-0.654056,-10.693469,1.167316,1.116601,1.353173,-0.887207,-0.001953,0.112793,-0.007876,-0.006229,-0.011268,0.999944,0.005836,0.005583,0.006766,0.263102,-0.596403,-0.383507,-0.654219
26879,NaN,-1.855970,0.447416,-1.060310,0.030502,-1.316418,-11.554836,1.423565,1.155098,1.178885,-0.894043,0.010986,0.097656,-0.018647,0.004439,-0.010464,0.999941,0.007118,0.005775,0.005894,0.273392,-0.592965,-0.383114,-0.653356
26880,NaN,-2.058507,2.398440,-0.179895,2.157389,-1.656172,-11.432777,1.519065,1.167726,1.079899,-0.892578,0.028076,0.084473,-0.020724,0.023885,-0.001497,0.999940,0.007595,0.005839,0.005399,0.283490,-0.589219,-0.382771,-0.652641
26881,NaN,-2.458914,3.589377,0.119406,3.380951,-2.024319,-11.660619,1.222488,1.154115,1.015079,-0.890625,0.036865,0.071533,-0.024763,0.035760,0.001555,0.999952,0.006112,0.005770,0.005075,0.292589,-0.585622,-0.382123,-0.652243
26882,NaN,-2.168387,3.614605,0.637651,3.656881,-1.518088,-11.392588,0.984428,1.059760,0.962583,-0.884277,0.043213,0.060791,-0.021823,0.036009,0.006669,0.999962,0.004922,0.005299,0.004813,0.300445,-0.582610,-0.380548,-0.652289
26883,NaN,-1.884442,3.532916,1.239857,3.876572,-0.897032,-11.130710,0.605643,0.905477,0.884904,-0.884766,0.056152,0.058350,-0.018944,0.035208,0.012591,0.999975,0.003028,0.004527,0.004424,0.306801,-0.580404,-0.378583,-0.652441
26884,NaN,-1.699207,3.642040,0.824318,3.725008,-1.269329,-10.972117,0.204665,0.665541,0.826646,-0.883057,0.066895,0.047363,-0.017115,0.036341,0.008337,0.999985,0.001023,0.003328,0.004133,0.311119,-0.579500,-0.375474,-0.652996
26885,NaN,-2.100294,3.842958,0.109709,3.569755,-1.978352,-11.404692,-0.213198,0.443870,0.778571,-0.887451,0.071045,0.047363,-0.021150,0.038349,0.001103,0.999989,-0.001066,0.002219,0.003893,0.313864,-0.579826,-0.371834,-0.653476
26886,NaN,-2.392413,3.427325,0.069161,3.221875,-1.800517,-11.775479,-0.598605,0.189556,0.720933,-0.889893,0.079590,0.047363,-0.024047,0.034189,0.000612,0.999989,-0.002993,0.000948,0.003605,0.314568,-0.581463,-0.367195,-0.654305
26887,NaN,-2.086958,2.463143,-0.055300,2.288319,-1.396342,-11.612485,-0.857941,-0.076328,0.641329,-0.892334,0.086182,0.055664,-0.020948,0.024562,-0.000666,0.999986,-0.004290,-0.000382,0.003207,0.314017,-0.584219,-0.362645,-0.654653
26888,NaN,-1.686765,1.761713,-0.462994,1.413978,-1.367283,-11.327390,-0.915773,-0.207532,0.544652,-0.888184,0.096924,0.049072,-0.016911,0.017550,-0.004728,0.999985,-0.004579,-0.001038,0.002723,0.312462,-0.587266,-0.358142,-0.655149
26889,NaN,-2.191044,1.616833,-0.630556,1.239751,-1.441356,-11.861563,-0.775868,-0.189649,0.427081,-0.899414,0.103271,0.053223,-0.021939,0.016097,-0.006389,0.999990,-0.003879,-0.000948,0.002135,0.311230,-0.589846,-0.354646,-0.655320
26890,NaN,-2.475847,0.981806,-0.297685,0.914292,-0.820130,-12.194665,-0.568973,-0.186521,0.306060,-0.895020,0.105469,0.053223,-0.024771,0.009772,-0.003028,0.999994,-0.002845,-0.000933,0.001530,0.309946,-0.591812,-0.351987,-0.655589
26891,NaN,0.127973,-14.851586,2.554677,-10.780863,10.469325,-10.943087,-0.616277,-0.518692,0.265027,-0.895264,0.111816,0.061768,0.001409,-0.148434,0.026008,0.999991,-0.003081,-0.002593,0.001325,0.308066,-0.594917,-0.349990,-0.654734
26892,NaN,26.024472,-63.115337,-9.626025,-59.585256,28.081621,10.541851,0.384458,-1.936993,1.915076,-0.885986,0.150391,0.076172,0.267195,-0.628434,-0.094905,0.999905,0.001922,-0.009685,0.009575,0.311829,-0.603947,-0.348207,-0.645571
26893,NaN,43.803472,-11.774296,-1.393059,-12.749711,5.521681,33.380583,0.620195,-0.114570,5.975334,-0.881592,0.210449,0.073242,0.441298,-0.104546,-0.014016,0.999549,0.003101,-0.000573,0.029872,0.332636,-0.613468,-0.332196,-0.634552
26894,NaN,18.102163,47.914973,1.783704,40.594893,-25.910933,7.703970,-0.068864,1.455288,5.072341,-0.872070,0.246826,0.062012,0.168917,0.483542,0.016412,0.999652,-0.000344,0.007276,0.025359,0.351005,-0.617430,-0.313217,-0.630453
26895,NaN,14.094431,35.482148,-0.870085,28.693602,-21.850568,2.735805,-3.686416,0.399191,0.507548,-0.874268,0.244629,0.074951,0.140017,0.354933,-0.015523,0.999825,-0.018431,0.001996,0.002538,0.341778,-0.623317,-0.299281,-0.636470
26896,NaN,8.193066,-23.013998,-2.270055,-19.577869,11.482022,-0.500023,-3.305134,-0.750114,1.542485,-0.864014,0.263916,0.078857,0.083779,-0.229828,-0.018589,0.999827,-0.016525,-0.003750,0.007712,0.335089,-0.633501,-0.285127,-0.636470
26897,NaN,-4.655106,-9.671204,-9.254501,-13.458509,-1.057484,-14.125116,0.200770,0.009877,1.170796,-0.866699,0.274658,0.078857,-0.045989,-0.096889,-0.092640,0.999982,0.001004,0.000049,0.005854,0.339449,-0.634781,-0.282043,-0.634255
26898,NaN,15.234176,6.067346,-7.106263,1.024059,-10.495364,4.615984,0.546765,0.719968,0.877288,-0.866943,0.287598,0.070068,0.151816,0.061535,-0.071442,0.999980,0.002734,0.003600,0.004386,0.345055,-0.632860,-0.279629,-0.634219
26899,NaN,27.601428,22.811916,-9.619511,13.432453,-23.745368,15.296528,0.908790,0.125713,0.691675,-0.869385,0.293945,0.074219,0.275162,0.229506,-0.095327,0.999983,0.004544,0.000629,0.003458,0.350284,-0.631840,-0.280107,-0.632155
26901,NaN,46.851108,19.437172,0.659124,36.157183,-31.296507,79.663213,-0.777448,0.250323,0.777496,-0.863281,0.306885,0.071777,0.933986,0.396088,0.007782,0.999936,-0.007774,0.002503,0.007775,0.351097,-0.635095,-0.269736,-0.632952
26902,NaN,27.585871,24.620361,-10.952960,14.032553,-26.676488,14.239614,-0.836244,1.282581,1.277579,-0.859375,0.317627,0.061035,0.273566,0.247490,-0.112322,0.999950,-0.004181,0.006413,0.006388,0.354187,-0.634185,-0.260775,-0.635891
26903,NaN,12.370523,-13.233108,-13.469336,-17.950228,-3.872393,3.315702,-1.323032,0.129422,1.952370,-0.853516,0.334717,0.071533,0.124908,-0.132003,-0.133900,0.999930,-0.006615,0.000647,0.009762,0.356391,-0.638399,-0.251202,-0.634295
26904,NaN,20.787843,-6.956539,-5.573117,-7.358241,-2.865532,11.382202,0.166811,0.346381,1.448242,-0.851807,0.345459,0.062744,0.208278,-0.068011,-0.056149,0.999972,0.000834,0.001732,0.007241,0.361931,-0.638795,-0.246491,-0.632606
26905,NaN,17.551660,1.556931,2.976124,4.473226,-1.233594,7.444396,1.162289,0.815644,1.157494,-0.849854,0.354004,0.056152,0.175543,0.016415,0.029139,0.999958,0.005811,0.004078,0.005787,0.370539,-0.635391,-0.246160,-0.631177
26906,NaN,9.893033,-4.420698,6.303559,1.226147,6.000775,1.125060,1.534112,0.785022,0.977960,-0.839600,0.366699,0.038818,0.099392,-0.044202,0.062307,0.999951,0.007670,0.003925,0.004890,0.379436,-0.631234,-0.246435,-0.629953
26907,NaN,6.070223,-8.487968,7.601509,-1.660463,9.956964,-1.764446,1.644801,0.465200,0.703188,-0.843994,0.368896,0.036621,0.061177,-0.085286,0.075173,0.999957,0.008224,0.002326,0.003516,0.387579,-0.627364,-0.249546,-0.627633
26908,NaN,3.278242,-6.968346,8.261948,-0.461366,10.025214,-4.631576,1.668299,0.271567,0.404267,-0.837646,0.371094,0.021729,0.033036,-0.070303,0.081990,0.999962,0.008341,0.001358,0.002021,0.394394,-0.623750,-0.252984,-0.625610
26909,NaN,2.099901,-8.177734,8.950689,-1.342272,11.433863,-5.469707,1.640088,0.175968,0.149913,-0.839844,0.373291,0.021729,0.021139,-0.082492,0.088814,0.999966,0.008200,0.000880,0.000750,0.400282,-0.620034,-0.258010,-0.623509
26910,NaN,2.948814,-7.862477,9.628678,-0.822313,11.633136,-4.595801,1.618426,0.145956,-0.070901,-0.839355,0.364746,0.009033,0.029530,-0.079411,0.095625,0.999967,0.008092,0.000730,-0.000354,0.405242,-0.616218,-0.262982,-0.622009
26911,NaN,2.601608,-6.792046,9.778144,-0.099332,11.234006,-5.090845,1.724709,0.174073,-0.266126,-0.841553,0.366943,0.010986,0.026010,-0.068795,0.097168,0.999962,0.008623,0.000870,-0.001331,0.409944,-0.611732,-0.269178,-0.620704
26912,NaN,2.581445,-5.238142,10.124346,1.186669,10.724278,-5.320138,1.583071,0.124495,-0.380942,-0.841553,0.362549,-0.003906,0.025776,-0.053230,0.100808,0.999967,0.007915,0.000622,-0.001905,0.413746,-0.607557,-0.275000,-0.619728
26913,NaN,3.314529,-2.668701,9.830434,3.115356,9.070815,-5.042029,1.036986,-0.002926,-0.415962,-0.843506,0.360596,-0.006104,0.033088,-0.027265,0.098164,0.999984,0.005185,-0.000015,-0.002080,0.415494,-0.604780,-0.279543,-0.619243
26914,NaN,4.026255,-1.568148,7.377393,2.766062,6.346188,-4.795680,0.318755,-0.186824,-0.452116,-0.845459,0.356201,-0.005859,0.040158,-0.015890,0.073786,0.999996,0.001594,-0.000934,-0.002261,0.414784,-0.604052,-0.282291,-0.619183
26915,NaN,5.651199,-1.823475,4.064547,0.946276,3.402666,-3.543081,-0.286998,-0.353216,-0.480865,-0.847656,0.354004,0.004883,0.056396,-0.018312,0.040771,0.999995,-0.001435,-0.001766,-0.002404,0.411727,-0.604996,-0.283442,-0.619775
26916,NaN,7.138208,-2.144856,1.393243,-0.604359,1.091890,-2.333532,-0.717635,-0.471633,-0.573449,-0.847412,0.347656,0.002686,0.071287,-0.021602,0.014178,0.999987,-0.003588,-0.002358,-0.002867,0.407094,-0.607104,-0.283927,-0.620552
26917,NaN,8.344393,-2.144817,-1.491964,-2.044168,-1.466661,-1.438646,-0.948810,-0.610113,-0.647564,-0.853516,0.336914,0.011475,0.083419,-0.021788,-0.014562,0.999979,-0.004744,-0.003051,-0.003238,0.401107,-0.609944,-0.283979,-0.621641
26918,NaN,9.967600,-1.362329,-3.600230,-2.428215,-3.785485,-0.120268,-1.015660,-0.672065,-0.707474,-0.851318,0.332520,0.022217,0.099747,-0.014158,-0.035596,0.999975,-0.005078,-0.003360,-0.003537,0.394835,-0.613040,-0.284327,-0.622451
26919,NaN,10.769390,-0.870422,-4.567465,-2.542994,-4.844955,0.563098,-0.974254,-0.650569,-0.728033,-0.857422,0.323975,0.037354,0.107808,-0.009318,-0.045280,0.999976,-0.004871,-0.003253,-0.003640,0.388493,-0.615887,-0.284690,-0.623465
26920,NaN,11.460415,-1.126543,-5.012212,-3.017394,-5.040835,1.287578,-0.746140,-0.633281,-0.766473,-0.853027,0.319824,0.033203,0.114717,-0.011891,-0.049715,0.999981,-0.003731,-0.003166,-0.003832,0.382886,-0.618197,-0.285956,-0.624068
26921,NaN,12.018753,-1.195996,-5.076795,-3.137858,-4.997020,1.885033,-0.454253,-0.588894,-0.780550,-0.863525,0.315430,0.041748,0.120288,-0.012544,-0.050386,0.999985,-0.002271,-0.002944,-0.003903,0.378116,-0.619737,-0.288090,-0.624467
26922,NaN,12.485253,-0.831383,-3.940256,-2.232014,-4.192473,2.415901,-0.093603,-0.489452,-0.821420,-0.861084,0.304688,0.048340,0.124913,-0.008845,-0.039093,0.999988,-0.000468,-0.002447,-0.004107,0.374540,-0.620241,-0.291273,-0.624645
26923,NaN,12.356905,-1.096948,-2.246654,-1.572643,-2.530583,2.437451,0.232483,-0.343855,-0.827603,-0.865234,0.300293,0.050537,0.123561,-0.011455,-0.022267,0.999989,0.001162,-0.001719,-0.004138,0.372175,-0.619621,-0.295357,-0.624756
26924,NaN,11.318640,-0.923005,-0.383176,-0.504496,-0.898296,1.503150,0.440151,-0.218144,-0.835280,-0.869385,0.291748,0.048584,0.113151,-0.009694,-0.003729,0.999988,0.002201,-0.001091,-0.004176,0.370591,-0.618231,-0.299730,-0.624991
26925,NaN,10.210896,-0.598501,1.042400,0.438592,0.283085,0.455416,0.433821,-0.172805,-0.866546,-0.869141,0.289795,0.046387,0.102073,-0.006450,0.010499,0.999988,0.002169,-0.000864,-0.004333,0.368984,-0.616617,-0.304267,-0.625344
26926,NaN,9.371981,-0.467117,1.760534,0.844172,0.946823,-0.350029,0.307654,-0.164818,-0.907192,-0.868896,0.281006,0.050781,0.093683,-0.005123,0.017675,0.999988,0.001538,-0.000824,-0.004536,0.366830,-0.615166,-0.308334,-0.626048
26927,NaN,8.718379,-1.145161,2.049484,0.348079,1.670026,-0.946396,0.162870,-0.194763,-0.942944,-0.872803,0.270508,0.051025,0.087108,-0.011879,0.020570,0.999988,0.000814,-0.000974,-0.004715,0.364092,-0.613968,-0.312263,-0.626875
26928,NaN,8.273739,-1.618751,2.019273,-0.136636,1.994707,-1.377381,0.067869,-0.258879,-0.992658,-0.868164,0.257568,0.051025,0.082629,-0.016605,0.020294,0.999987,0.000339,-0.001294,-0.004963,0.360768,-0.613086,-0.315998,-0.627787
26929,NaN,8.142453,-1.580728,1.961941,-0.196803,2.002717,-1.530349,0.012608,-0.339290,-1.041303,-0.876709,0.255371,0.057617,0.081307,-0.016232,0.019756,0.999985,0.000063,-0.001696,-0.005206,0.356986,-0.612434,-0.319948,-0.628585
26930,NaN,8.238908,-1.389981,1.928379,-0.110901,1.940789,-1.461010,-0.023619,-0.424332,-1.089519,-0.876221,0.240479,0.062012,0.082271,-0.014346,0.019460,0.999983,-0.000118,-0.002122,-0.005448,0.352793,-0.612045,-0.323970,-0.629271
26931,NaN,8.803856,-1.450103,1.898225,-0.238295,2.008508,-0.917635,-0.011109,-0.511621,-1.157281,-0.880127,0.233887,0.062012,0.087904,-0.015009,0.019208,0.999980,-0.000056,-0.002558,-0.005786,0.348254,-0.611759,-0.328428,-0.629766
26932,NaN,9.580519,-1.210782,1.867792,-0.125724,1.927230,-0.168544,0.043855,-0.580211,-1.218820,-0.879883,0.225342,0.068604,0.095674,-0.012695,0.018953,0.999977,0.000219,-0.002901,-0.006094,0.343578,-0.611482,-0.333305,-0.630041
