// Start Time: Unknown
// Update Rate: 100.0Hz
// Filter Profile: human (46.1)
// Firmware Version: 4.4.0
PacketCounter,SampleTimeFine,Acc_X,Acc_Y,Acc_Z,FreeAcc_X,FreeAcc_Y,FreeAcc_Z,Gyr_X,Gyr_Y,Gyr_Z,Mag_X,Mag_Y,Mag_Z,VelInc_X,VelInc_Y,VelInc_Z,OriInc_q0,OriInc_q1,OriInc_q2,OriInc_q3,Quat_q0,Quat_q1,Quat_q2,Quat_q3
08561,NaN,-5.429030,1.758082,0.715389,-0.000000,-0.000000,-4.061426,-2.105950,0.728407,0.169849,1.005371,-0.116699,-0.161133,-0.054279,0.017610,0.007166,0.999938,-0.010530,0.003642,0.000849,0.559618,0.571241,0.333740,-0.499128
08562,NaN,-5.691763,1.960290,0.983331,0.000000,-0.000000,-3.713030,-2.398255,0.666523,0.114200,1.004883,-0.108398,-0.155029,-0.056896,0.019688,0.009787,0.999922,-0.011991,0.003333,0.000571,0.621039,0.527266,0.376514,-0.441065
08563,NaN,-6.323090,2.370723,1.284725,0.220396,-0.311763,-2.949277,-2.655032,0.598581,0.069766,1.002686,-0.102051,-0.153076,-0.063201,0.023855,0.012720,0.999907,-0.013275,0.002993,0.000349,0.602021,0.540042,0.368042,-0.458770
08564,NaN,-7.229758,2.817707,1.484812,0.393252,-0.337194,-1.929486,-2.927475,0.512730,0.011759,1.002441,-0.095703,-0.151123,-0.072262,0.028388,0.014619,0.999890,-0.014637,0.002564,0.000059,0.608943,0.532369,0.376228,-0.451913
08565,NaN,-8.290373,3.058688,1.668673,0.350807,-0.296447,-0.831660,-3.137084,0.468661,-0.036017,0.998291,-0.095703,-0.145020,-0.082860,0.030861,0.016398,0.999874,-0.015685,0.002343,-0.000180,0.616225,0.523286,0.384921,-0.445280
08566,NaN,-9.334388,2.894318,1.767166,-0.066167,-0.195240,0.116446,-3.217770,0.452840,-0.075891,1.004395,-0.091309,-0.147217,-0.093293,0.029260,0.017414,0.999868,-0.016088,0.002264,-0.000379,0.623522,0.514165,0.393627,-0.438078
08567,NaN,-10.542247,2.625138,1.888575,-0.623542,-0.124882,1.196039,-3.182535,0.404320,-0.113847,0.999512,-0.072266,-0.143555,-0.105369,0.026610,0.018677,0.999871,-0.015912,0.002022,-0.000569,0.630556,0.504998,0.402270,-0.430760
08568,NaN,-11.594869,2.312553,1.949011,-1.168140,-0.034033,2.112969,-3.047701,0.328699,-0.114711,1.001709,-0.074463,-0.141357,-0.115903,0.023487,0.019325,0.999882,-0.015238,0.001643,-0.000574,0.637269,0.495807,0.410113,-0.424112
08569,NaN,-12.087021,1.915315,2.032604,-1.610207,-0.075681,2.487602,-2.710311,0.264826,-0.065608,0.997314,-0.072266,-0.145508,-0.120837,0.019467,0.020224,0.999907,-0.013551,0.001324,-0.000328,0.643154,0.487270,0.417245,-0.418122
08570,NaN,-12.449937,1.247632,2.613963,-2.218684,-0.690559,2.756744,-2.169445,0.176235,0.000740,0.999268,-0.065918,-0.141602,-0.124476,0.012759,0.026112,0.999941,-0.010847,0.000881,0.000004,0.648036,0.480635,0.422321,-0.413140
08571,NaN,-12.661847,0.840000,2.762675,-2.567858,-0.869491,2.888115,-1.428977,0.107090,0.101587,1.001465,-0.068115,-0.139404,-0.126608,0.008533,0.027634,0.999974,-0.007145,0.000535,0.000508,0.651338,0.475276,0.426372,-0.409975
08572,NaN,-13.017192,0.745657,3.010353,-2.721241,-1.083137,3.244384,-0.360063,0.002106,0.272574,0.997314,-0.068115,-0.139404,-0.130182,0.007333,0.030092,0.999997,-0.001800,0.000011,0.001363,0.652746,0.474687,0.426468,-0.408313
08573,NaN,-12.950499,0.914206,3.535224,-2.433527,-1.557546,3.328869,0.724956,-0.162833,0.388489,0.997559,-0.074463,-0.141357,-0.129551,0.008762,0.035279,0.999991,0.003625,-0.000814,0.001942,0.652344,0.475167,0.425872,-0.409019
08574,NaN,-12.190846,1.530841,3.424636,-1.736748,-1.421750,2.743173,1.577749,-0.295344,0.456750,0.995605,-0.084961,-0.143311,-0.121993,0.014760,0.034184,0.999965,0.007889,-0.001477,0.002284,0.650136,0.480665,0.420582,-0.411576
08575,NaN,-11.502896,2.362628,3.559893,-0.764640,-1.462241,2.346542,2.201801,-0.399873,0.570863,0.991699,-0.093506,-0.143066,-0.115166,0.022906,0.035624,0.999933,0.011009,-0.001999,0.002854,0.648290,0.483957,0.416744,-0.414523
08576,NaN,-11.434968,3.461890,4.135952,0.210772,-1.859356,2.691109,2.285620,-0.575576,0.693972,0.989990,-0.101807,-0.149170,-0.114587,0.033748,0.041419,0.999925,0.011428,-0.002878,0.003470,0.645348,0.491582,0.408431,-0.418398
08577,NaN,-11.509178,4.961237,3.934373,1.485597,-1.343365,3.169618,1.751780,-0.733814,0.777927,0.988037,-0.110352,-0.159180,-0.115427,0.048819,0.039351,0.999947,0.008759,-0.003669,0.003890,0.647381,0.491728,0.404487,-0.418917
08578,NaN,-10.899376,5.665964,3.634401,2.151601,-1.022628,2.774264,0.963504,-0.772063,0.853720,0.982178,-0.120850,-0.161133,-0.109374,0.056019,0.036193,0.999972,0.004817,-0.003860,0.004269,0.648344,0.494942,0.397860,-0.419988
08579,NaN,-9.692776,5.091855,3.325570,1.885869,-0.854299,1.441129,0.168329,-0.742299,0.960898,0.982422,-0.129395,-0.169189,-0.097293,0.050424,0.032938,0.999981,0.000842,-0.003711,0.004804,0.655983,0.490029,0.396328,-0.415310
08580,NaN,-8.681838,4.140733,2.353077,1.117001,-0.171908,0.024912,-0.401397,-0.667263,1.077287,0.978516,-0.140137,-0.175049,-0.087118,0.040985,0.023158,0.999978,-0.002007,-0.003336,0.005386,0.660511,0.489451,0.392324,-0.412607
08581,NaN,-8.275321,3.620887,1.277717,0.535826,0.834658,-0.744103,-0.688796,-0.585323,1.199718,0.970703,-0.156982,-0.177002,-0.083005,0.035755,0.012411,0.999972,-0.003444,-0.002927,0.005999,0.670402,0.483159,0.392010,-0.404285
08582,NaN,-8.301187,3.390041,1.038396,0.164376,1.072777,-0.851600,-0.679344,-0.400810,1.348542,0.972900,-0.161133,-0.182861,-0.083259,0.033374,0.010103,0.999969,-0.003397,-0.002004,0.006743,0.675535,0.482700,0.388770,-0.399389
08583,NaN,-8.906222,3.583394,1.760119,0.073647,0.580306,-0.070225,-0.620697,-0.306517,1.508719,0.964844,-0.176025,-0.190918,-0.089356,0.035215,0.017354,0.999966,-0.003103,-0.001533,0.007544,0.683478,0.479835,0.387543,-0.390420
08584,NaN,-9.508201,3.886209,2.655152,0.098917,-0.083249,0.795776,-0.583231,-0.250145,1.591847,0.963379,-0.193115,-0.188477,-0.095421,0.038180,0.026320,0.999963,-0.002916,-0.001251,0.007959,0.688444,0.480420,0.383993,-0.384436
08585,NaN,-10.054176,3.787861,3.363399,-0.254691,-0.658079,1.423263,-0.538033,-0.242617,1.611059,0.961426,-0.201416,-0.190430,-0.100884,0.037157,0.033411,0.999963,-0.002690,-0.001213,0.008055,0.695393,0.478821,0.382128,-0.375681
08586,NaN,-10.365089,3.313536,3.545293,-0.945677,-0.895598,1.557660,-0.349011,-0.239987,1.630533,0.958008,-0.222656,-0.194336,-0.103959,0.032350,0.035271,0.999965,-0.001745,-0.001200,0.008153,0.699725,0.480255,0.378032,-0.369906
08587,NaN,-10.592408,2.644179,3.150228,-1.866897,-0.662999,1.376018,-0.012658,-0.252260,1.621457,0.954102,-0.233398,-0.192139,-0.106173,0.025584,0.031367,0.999966,-0.000063,-0.001261,0.008107,0.705836,0.479707,0.375833,-0.361146
08588,NaN,-10.568284,2.453142,2.290762,-2.358760,0.076452,1.021595,0.412307,-0.286388,1.594876,0.942139,-0.254395,-0.195801,-0.105906,0.023640,0.022805,0.999965,0.002062,-0.001432,0.007974,0.708240,0.483626,0.370239,-0.356966
08589,NaN,-10.385547,2.919727,1.457934,-2.192217,0.938370,0.809026,0.800474,-0.297761,1.584329,0.938232,-0.267090,-0.193604,-0.104104,0.028315,0.014539,0.999960,0.004002,-0.001489,0.007922,0.712081,0.485525,0.367028,-0.349996
08590,NaN,-9.984535,3.560084,0.569323,-1.783415,1.862318,0.484786,1.076119,-0.245098,1.574449,0.938721,-0.280029,-0.189209,-0.100128,0.034782,0.005759,0.999954,0.005381,-0.001225,0.007872,0.712641,0.491794,0.360433,-0.346944
08591,NaN,-9.724967,4.284003,0.101118,-1.273155,2.398553,0.461617,1.327949,-0.147166,1.597457,0.930908,-0.301270,-0.188965,-0.097589,0.042054,0.001220,0.999946,0.006640,-0.000736,0.007987,0.713016,0.497611,0.356178,-0.342241
08592,NaN,-9.829461,5.376287,0.284239,-0.544221,2.446379,1.110643,1.413073,-0.062164,1.676380,0.927490,-0.318115,-0.182373,-0.098741,0.052915,0.003188,0.999940,0.007065,-0.000311,0.008382,0.712437,0.505498,0.349346,-0.338915
08593,NaN,-10.139720,6.619878,0.456214,0.208211,2.504747,2.041557,1.292767,0.015775,1.766878,0.917480,-0.339355,-0.182129,-0.101976,0.065268,0.004994,0.999940,0.006464,0.000079,0.008834,0.710391,0.514277,0.343216,-0.336253
08594,NaN,-10.675815,7.719300,0.814193,0.663907,2.385034,3.152214,0.940254,0.061065,1.847470,0.909424,-0.349854,-0.169678,-0.107462,0.076163,0.008534,0.999946,0.004701,0.000305,0.009237,0.710936,0.520863,0.337083,-0.331130
08595,NaN,-10.757201,8.258226,0.822114,0.867304,2.353505,3.540000,0.487742,0.082000,1.940829,0.907959,-0.371094,-0.171387,-0.108363,0.081513,0.008465,0.999950,0.002439,0.000410,0.009704,0.709435,0.529071,0.329969,-0.328491
08596,NaN,-10.846916,8.123574,0.521029,0.405046,2.564273,3.497968,0.051045,0.097591,2.043433,0.898193,-0.392334,-0.168945,-0.109289,0.080121,0.005284,0.999948,0.000255,0.000488,0.010217,0.712458,0.532756,0.324809,-0.321052
08597,NaN,-10.831067,7.864300,0.390430,-0.023339,2.523105,3.337920,-0.311021,0.061219,2.103417,0.894287,-0.405029,-0.172852,-0.109129,0.077504,0.003816,0.999943,-0.001555,0.000306,0.010517,0.712158,0.539501,0.317148,-0.318098
08598,NaN,-10.787219,7.794646,0.206600,-0.357080,2.679055,3.220021,-0.538759,0.011074,2.153907,0.882324,-0.424072,-0.174805,-0.108703,0.076784,0.001864,0.999938,-0.002694,0.000055,0.010769,0.716976,0.540983,0.312214,-0.309524
08599,NaN,-10.611371,7.592200,-0.040241,-0.667874,2.807418,2.911690,-0.663126,-0.034461,2.164596,0.872314,-0.443115,-0.178467,-0.106927,0.074766,-0.000670,0.999936,-0.003316,-0.000172,0.010823,0.718478,0.545612,0.305012,-0.305065
08600,NaN,-10.346375,7.361955,-0.141128,-0.972090,2.850898,2.523706,-0.715958,-0.092818,2.153211,0.862061,-0.451660,-0.186523,-0.104248,0.072494,-0.001720,0.999936,-0.003580,-0.000464,0.010766,0.723810,0.546147,0.299877,-0.296472
08601,NaN,-10.207844,7.268606,0.083038,-1.151291,2.577975,2.396398,-0.783964,-0.186061,2.131841,0.845947,-0.477051,-0.190430,-0.102846,0.071595,0.000453,0.999935,-0.003920,-0.000930,0.010659,0.725310,0.550485,0.291441,-0.293179
08602,NaN,-10.000174,7.276587,0.191083,-1.266159,2.503052,2.233642,-0.852746,-0.286918,2.096272,0.837891,-0.489746,-0.194336,-0.100759,0.071719,0.001459,0.999935,-0.004264,-0.001435,0.010481,0.731101,0.549990,0.285862,-0.285105
08603,NaN,-9.857603,7.361521,0.496455,-1.262969,2.215368,2.233120,-0.964099,-0.412454,2.078978,0.823486,-0.504395,-0.206299,-0.099344,0.072607,0.004409,0.999932,-0.004820,-0.002062,0.010395,0.730963,0.555427,0.274106,-0.286460
08604,NaN,-9.698213,7.280992,0.851104,-1.439401,1.929046,2.103396,-1.084617,-0.549287,2.046174,0.811035,-0.510742,-0.214355,-0.097743,0.071856,0.007852,0.999929,-0.005423,-0.002746,0.010231,0.737607,0.553441,0.267951,-0.279000
08605,NaN,-9.184703,6.694231,1.171021,-1.661233,1.499195,1.391324,-1.157382,-0.681322,1.981050,0.801025,-0.525635,-0.234619,-0.092543,0.066093,0.011012,0.999928,-0.005787,-0.003407,0.009905,0.739331,0.556042,0.256477,-0.280049
08606,NaN,-8.518251,6.051534,1.574762,-1.823622,0.996624,0.547715,-1.176964,-0.812905,1.910983,0.788574,-0.536133,-0.244873,-0.085818,0.059787,0.015046,0.999929,-0.005885,-0.004064,0.009555,0.746269,0.552963,0.249789,-0.273716
08607,NaN,-8.008226,6.060977,2.149358,-1.583414,0.478420,0.323695,-1.144314,-0.966015,1.847098,0.776123,-0.540283,-0.259033,-0.080740,0.059986,0.020760,0.999929,-0.005721,-0.004830,0.009235,0.748968,0.553753,0.238549,-0.274769
08608,NaN,-7.716408,6.603936,2.739931,-1.160932,0.135705,0.641548,-1.072243,-1.123821,1.794947,0.753174,-0.550781,-0.275391,-0.077904,0.065486,0.026611,0.999930,-0.005361,-0.005619,0.008975,0.755691,0.550296,0.230827,-0.269861
08609,NaN,-7.601020,7.300738,3.378808,-0.757665,-0.203959,1.226846,-0.993223,-1.287040,1.743561,0.740967,-0.567627,-0.293457,-0.076858,0.072505,0.032934,0.999929,-0.004966,-0.006435,0.008718,0.757656,0.550811,0.218069,-0.273880
08610,NaN,-7.489076,7.652570,4.032446,-0.625203,-0.587237,1.596379,-0.904277,-1.444964,1.674736,0.724121,-0.569580,-0.312012,-0.075816,0.076073,0.039434,0.999929,-0.004521,-0.007225,0.008373,0.763961,0.547193,0.209206,-0.270510
08611,NaN,-7.195887,7.676450,4.800422,-0.566199,-1.223972,1.673286,-0.845407,-1.625096,1.563654,0.713623,-0.575928,-0.328369,-0.072942,0.076397,0.047091,0.999927,-0.004227,-0.008125,0.007818,0.765844,0.546829,0.196173,-0.275641
08612,NaN,-7.064573,8.160352,4.816435,-0.355793,-0.943838,1.963272,-0.797769,-1.793361,1.462097,0.692627,-0.582031,-0.344727,-0.071667,0.081272,0.047200,0.999925,-0.003989,-0.008967,0.007310,0.771742,0.542695,0.186393,-0.274143
08613,NaN,-6.978826,8.205841,4.757098,-0.436904,-0.719846,1.932694,-0.713088,-1.926114,1.334948,0.676025,-0.590576,-0.363037,-0.070787,0.081755,0.046601,0.999925,-0.003565,-0.009630,0.006675,0.773677,0.541029,0.173177,-0.280573
08614,NaN,-6.858213,8.276193,4.549709,-0.473550,-0.325613,1.844660,-0.596262,-2.032976,1.194730,0.661377,-0.592529,-0.387451,-0.069531,0.082482,0.044547,0.999926,-0.002981,-0.010165,0.005974,0.778669,0.536865,0.162905,-0.280914
08615,NaN,-6.970722,8.978183,4.752419,-0.292875,-0.118709,2.503075,-0.382145,-2.127686,1.087946,0.642334,-0.594482,-0.399902,-0.070694,0.089489,0.046604,0.999927,-0.001911,-0.010638,0.005440,0.779786,0.535130,0.149504,-0.288474
08616,NaN,-7.102580,10.137857,5.099840,0.097471,0.108015,3.574002,-0.123201,-2.205832,0.998859,0.627686,-0.598633,-0.420166,-0.072087,0.101051,0.050145,0.999927,-0.000616,-0.011029,0.004994,0.783148,0.532176,0.138398,-0.290369
08617,NaN,-7.061374,10.858919,5.171017,0.400526,0.373077,4.123345,0.065971,-2.237504,0.871924,0.606689,-0.604736,-0.434570,-0.071659,0.108261,0.050948,0.999928,0.000330,-0.011187,0.004360,0.783400,0.531133,0.125899,-0.297207
08618,NaN,-6.865226,11.073593,5.202911,0.501170,0.516753,4.198126,0.156507,-2.249275,0.700155,0.593994,-0.606934,-0.444824,-0.069619,0.110453,0.051336,0.999930,0.000783,-0.011246,0.003501,0.785386,0.528807,0.114988,-0.300516
08619,NaN,-6.712471,10.813730,5.124564,0.356508,0.600965,3.889972,0.152964,-2.259274,0.492692,0.579346,-0.613037,-0.458984,-0.067965,0.107932,0.050564,0.999933,0.000765,-0.011296,0.002463,0.784774,0.527463,0.103302,-0.308613
08620,NaN,-6.673345,10.428880,5.165031,0.032132,0.628399,3.587803,0.081398,-2.285901,0.272296,0.564453,-0.613037,-0.475586,-0.067460,0.104176,0.050924,0.999934,0.000407,-0.011429,0.001361,0.786108,0.524360,0.093483,-0.313595
08621,NaN,-6.438437,10.004300,5.203781,-0.101016,0.544268,3.160714,-0.053377,-2.288530,0.060791,0.553955,-0.613037,-0.491943,-0.065004,0.100037,0.051270,0.999934,-0.000267,-0.011442,0.000304,0.785216,0.521632,0.083151,-0.323145
08622,NaN,-5.936424,9.546798,5.329052,-0.062077,0.294871,2.624658,-0.191565,-2.261026,-0.140723,0.537109,-0.612793,-0.506348,-0.059894,0.095561,0.052524,0.999935,-0.000958,-0.011305,-0.000704,0.786377,0.517134,0.074946,-0.329495
08623,NaN,-5.284582,9.138359,5.540563,0.141124,-0.121839,2.107744,-0.396132,-2.200076,-0.300336,0.521973,-0.606445,-0.522949,-0.053312,0.091572,0.054640,0.999936,-0.001981,-0.011000,-0.001502,0.785635,0.512729,0.066595,-0.339784
08624,NaN,-4.648429,8.817110,5.832782,0.355978,-0.560623,1.716699,-0.633634,-2.110448,-0.394928,0.513184,-0.597900,-0.535400,-0.046920,0.088447,0.057554,0.999937,-0.003168,-0.010552,-0.001975,0.787241,0.506490,0.060390,-0.346514
08625,NaN,-3.911213,8.356857,5.940535,0.624539,-0.960277,1.101041,-0.897839,-2.007063,-0.419451,0.504395,-0.591309,-0.557861,-0.039527,0.083916,0.058634,0.999937,-0.004489,-0.010035,-0.002097,0.787633,0.500010,0.054270,-0.355919
08626,NaN,-3.028677,7.724048,4.310676,1.349172,-0.060394,-0.561175,-0.743979,-1.693260,-0.286705,0.493896,-0.589111,-0.568359,-0.030538,0.077443,0.042561,0.999956,-0.003720,-0.008466,-0.001434,0.789408,0.493967,0.049640,-0.361064
08627,NaN,-3.321462,6.888464,4.556536,0.556313,-0.226731,-0.931050,-0.273067,-1.429966,-0.064176,0.480957,-0.584717,-0.580566,-0.033517,0.068957,0.045232,0.999973,-0.001365,-0.007150,-0.000321,0.788953,0.490794,0.043997,-0.367066
08628,NaN,-3.044403,6.730832,4.626665,0.618202,-0.390924,-1.126892,-0.122114,-1.259300,0.010938,0.472412,-0.584717,-0.586914,-0.030738,0.067335,0.046033,0.999980,-0.000611,-0.006296,0.000055,0.789534,0.487994,0.039227,-0.370080
08629,NaN,-2.546388,6.903265,4.940779,0.969064,-0.814566,-1.040722,-0.247506,-1.054464,0.132868,0.459717,-0.584717,-0.597168,-0.025769,0.069077,0.049187,0.999985,-0.001238,-0.005272,0.000664,0.789489,0.485483,0.034671,-0.373914
08630,NaN,-2.280386,6.686052,5.257304,0.907708,-1.189456,-1.134938,-0.552933,-0.844786,0.273371,0.448975,-0.580322,-0.607422,-0.023117,0.066974,0.052291,0.999986,-0.002765,-0.004224,0.001367,0.791477,0.481762,0.031707,-0.374785
08631,NaN,-2.041042,6.202314,5.747411,0.621441,-1.745050,-1.313574,-0.966686,-0.676680,0.388733,0.440430,-0.575928,-0.617920,-0.020725,0.062260,0.057104,0.999981,-0.004833,-0.003383,0.001944,0.793961,0.476961,0.029590,-0.375845
08632,NaN,-1.813026,5.667167,6.261521,0.311116,-2.298965,-1.492418,-1.436268,-0.558178,0.481948,0.436035,-0.567383,-0.628174,-0.018441,0.057075,0.062155,0.999967,-0.007181,-0.002791,0.002410,0.798348,0.470265,0.028923,-0.375038
08633,NaN,-1.575376,5.250139,6.627261,0.158271,-2.694538,-1.647002,-1.880624,-0.465671,0.551403,0.433350,-0.556885,-0.644775,-0.016053,0.053077,0.065738,0.999949,-0.009403,-0.002328,0.002757,0.803778,0.461913,0.029371,-0.373784
08634,NaN,-1.417256,4.981473,6.842900,0.112982,-2.870675,-1.726145,-2.273280,-0.405382,0.592098,0.418213,-0.546143,-0.665527,-0.014459,0.050545,0.067828,0.999929,-0.011366,-0.002027,0.002960,0.810137,0.452074,0.030621,-0.371981
08635,NaN,-1.240628,4.752204,7.102238,0.128602,-3.056397,-1.737915,-2.628468,-0.384360,0.602586,0.411133,-0.526855,-0.682129,-0.012687,0.048412,0.070366,0.999907,-0.013142,-0.001922,0.003013,0.817797,0.440398,0.033102,-0.369001
08636,NaN,-1.134026,4.949045,7.408168,0.366902,-3.073593,-1.382241,-2.961436,-0.416148,0.618744,0.404297,-0.507568,-0.692871,-0.011649,0.050544,0.073314,0.999883,-0.014807,-0.002081,0.003094,0.825433,0.427572,0.035498,-0.366855
08637,NaN,-1.030892,5.577397,7.520235,0.965310,-2.725606,-0.848570,-3.223924,-0.454746,0.641384,0.395020,-0.486328,-0.719727,-0.010660,0.056942,0.074267,0.999862,-0.016119,-0.002274,0.003207,0.834666,0.412788,0.038996,-0.362516
08638,NaN,-0.898247,5.953499,7.500442,1.453781,-2.362514,-0.603795,-3.360640,-0.459712,0.640757,0.387695,-0.460693,-0.738770,-0.009347,0.060754,0.073969,0.999851,-0.016802,-0.002298,0.003204,0.842729,0.397993,0.041841,-0.360082
08639,NaN,-0.840576,5.678991,7.558312,1.471133,-2.240851,-0.708223,-3.349724,-0.456403,0.601540,0.380371,-0.433105,-0.757568,-0.008750,0.058019,0.074599,0.999853,-0.016748,-0.002282,0.003008,0.852003,0.382206,0.045637,-0.354863
08640,NaN,-0.669666,5.118233,7.525367,1.385610,-2.302558,-1.092183,-3.130598,-0.461366,0.535714,0.373535,-0.416016,-0.770264,-0.007008,0.052333,0.074425,0.999871,-0.015652,-0.002307,0.002678,0.858931,0.368124,0.048196,-0.352703
08641,NaN,-0.564294,4.606462,7.551390,1.266407,-2.363971,-1.364943,-2.668278,-0.463473,0.458241,0.366699,-0.401123,-0.780762,-0.005924,0.047053,0.074877,0.999906,-0.013341,-0.002317,0.002291,0.866459,0.354848,0.050901,-0.347477
08642,NaN,-0.462033,4.340775,7.675951,1.244393,-2.445571,-1.419614,-2.078231,-0.477189,0.369684,0.359863,-0.386230,-0.791260,-0.004884,0.044193,0.076292,0.999941,-0.010391,-0.002386,0.001848,0.870859,0.345089,0.051786,-0.346174
08643,NaN,-0.475607,4.642594,7.835828,1.477525,-2.193324,-1.084312,-1.503560,-0.502669,0.289874,0.353027,-0.373291,-0.801758,-0.005020,0.047006,0.077994,0.999968,-0.007518,-0.002513,0.001449,0.876032,0.336519,0.052505,-0.341418
08644,NaN,-0.579944,5.334573,7.862977,1.864250,-1.653229,-0.625156,-1.055078,-0.523155,0.224917,0.342285,-0.369141,-0.805908,-0.006065,0.053753,0.078331,0.999982,-0.005275,-0.002616,0.001125,0.878313,0.331057,0.051636,-0.341030
08645,NaN,-0.664391,5.985476,7.893249,2.221515,-1.118992,-0.201095,-0.758363,-0.524430,0.199843,0.342041,-0.358398,-0.810059,-0.006910,0.060147,0.078687,0.999989,-0.003792,-0.002622,0.000999,0.882099,0.325624,0.051009,-0.336554
08646,NaN,-0.768824,6.191266,7.855266,2.273030,-0.836186,-0.078127,-0.589230,-0.505633,0.193654,0.335449,-0.354248,-0.812256,-0.007947,0.062136,0.078350,0.999992,-0.002946,-0.002528,0.000968,0.883506,0.322220,0.049455,-0.336371
08647,NaN,-0.795924,6.170080,7.706387,2.243489,-0.623310,-0.186182,-0.490229,-0.485836,0.212699,0.331299,-0.354004,-0.820557,-0.008212,0.061881,0.076893,0.999993,-0.002451,-0.002429,0.001063,0.886767,0.318122,0.048316,-0.331825
08648,NaN,-0.783556,6.032948,7.717873,2.152576,-0.649130,-0.246044,-0.440091,-0.465475,0.246082,0.320801,-0.356201,-0.822510,-0.008089,0.060489,0.077027,0.999994,-0.002200,-0.002327,0.001230,0.887983,0.315455,0.046591,-0.331366
08649,NaN,-0.848229,5.993684,7.682003,2.057785,-0.507059,-0.264655,-0.462826,-0.444746,0.285201,0.320312,-0.347656,-0.824707,-0.008739,0.060102,0.076662,0.999994,-0.002314,-0.002224,0.001426,0.891169,0.311678,0.045272,-0.326536
08650,NaN,-0.965397,6.110601,7.567730,2.037242,-0.235018,-0.255706,-0.567162,-0.433678,0.329516,0.313721,-0.339111,-0.826904,-0.009919,0.061304,0.075482,0.999992,-0.002836,-0.002168,0.001648,0.892682,0.308514,0.043752,-0.325613
08651,NaN,-1.049000,6.069422,7.434798,1.937637,-0.018228,-0.354403,-0.692774,-0.406059,0.376145,0.307373,-0.336914,-0.837158,-0.010755,0.060931,0.074116,0.999990,-0.003464,-0.002030,0.001881,0.896182,0.303911,0.042649,-0.320433
08652,NaN,-1.169719,5.904330,7.346545,1.749683,0.088147,-0.478281,-0.864098,-0.377383,0.417213,0.302979,-0.334717,-0.839355,-0.011959,0.059335,0.073187,0.999987,-0.004320,-0.001887,0.002086,0.898232,0.299519,0.041708,-0.318950
08653,NaN,-1.288892,5.782771,7.341442,1.568084,0.214191,-0.512541,-1.019866,-0.353049,0.458420,0.300537,-0.322021,-0.843750,-0.013151,0.058171,0.073095,0.999983,-0.005099,-0.001765,0.002292,0.902098,0.293670,0.041045,-0.313516
08654,NaN,-1.435079,5.613956,7.355474,1.358722,0.290438,-0.552700,-1.149098,-0.332982,0.490391,0.293701,-0.313477,-0.847900,-0.014611,0.056525,0.073207,0.999979,-0.005745,-0.001665,0.002452,0.904604,0.288059,0.040624,-0.311551
08655,NaN,-1.518183,5.393746,7.470667,1.145146,0.275344,-0.548790,-1.255264,-0.324760,0.508218,0.287354,-0.307129,-0.852295,-0.015441,0.054366,0.074341,0.999976,-0.006276,-0.001624,0.002541,0.908599,0.281299,0.040209,-0.306108
08656,NaN,-1.596179,5.095167,7.461160,0.927748,0.250961,-0.688414,-1.337662,-0.316370,0.512344,0.278320,-0.296387,-0.858643,-0.016211,0.051408,0.074243,0.999973,-0.006688,-0.001582,0.002562,0.911304,0.274833,0.040097,-0.303949
08657,NaN,-1.669113,4.726177,7.551738,0.650706,0.140750,-0.773502,-1.364333,-0.308955,0.503907,0.275879,-0.283691,-0.866943,-0.016927,0.047733,0.075167,0.999972,-0.006822,-0.001545,0.002520,0.915153,0.267669,0.039791,-0.298772
08658,NaN,-1.681769,4.430387,7.737838,0.477961,-0.025076,-0.751758,-1.346170,-0.316872,0.486592,0.271240,-0.275146,-0.873291,-0.017049,0.044782,0.077051,0.999973,-0.006731,-0.001584,0.002433,0.917720,0.261124,0.039700,-0.296694
08659,NaN,-1.731943,4.179100,7.998217,0.279133,-0.166460,-0.629598,-1.293291,-0.327493,0.475184,0.268799,-0.264404,-0.873535,-0.017550,0.042265,0.079681,0.999975,-0.006466,-0.001637,0.002376,0.921188,0.254284,0.039160,-0.291922
08660,NaN,-1.817798,3.973380,8.333660,0.085800,-0.313783,-0.408694,-1.191870,-0.343397,0.454612,0.268555,-0.258057,-0.881836,-0.018412,0.040188,0.083067,0.999978,-0.005959,-0.001717,0.002273,0.923414,0.248376,0.038738,-0.290025
08661,NaN,-1.913036,3.907550,8.692148,-0.058058,-0.359751,-0.099381,-1.054764,-0.374083,0.445644,0.253418,-0.249512,-0.885986,-0.019380,0.039490,0.086678,0.999982,-0.005274,-0.001870,0.002228,0.926361,0.242566,0.037643,-0.285657
08662,NaN,-2.049050,3.904129,9.005613,-0.193945,-0.338071,0.206754,-0.857422,-0.409018,0.449894,0.249023,-0.245361,-0.886230,-0.020763,0.039380,0.089846,0.999986,-0.004287,-0.002045,0.002249,0.928108,0.238091,0.036426,-0.283905
08663,NaN,-2.093764,3.738205,9.191602,-0.407812,-0.378245,0.313204,-0.607337,-0.427509,0.452452,0.248779,-0.236816,-0.892334,-0.021219,0.037613,0.091757,0.999991,-0.003037,-0.002138,0.002262,0.912183,0.235913,0.020501,-0.334435
08664,NaN,-2.178570,3.360993,9.264992,-0.737065,-0.545510,0.239246,-0.275412,-0.432207,0.447673,0.242676,-0.238770,-0.890381,-0.022061,0.033688,0.092556,0.999994,-0.001377,-0.002161,0.002238,0.913296,0.233978,0.018462,-0.332874
08665,NaN,-2.164071,2.835949,9.253221,-1.173272,-0.747974,0.006255,0.118528,-0.413930,0.436128,0.238525,-0.240967,-0.892334,-0.021894,0.028257,0.092504,0.999995,0.000593,-0.002070,0.002181,0.898141,0.233873,0.004504,-0.372324
08666,NaN,-2.249149,2.340683,9.031384,-1.592208,-0.894038,-0.390986,0.578658,-0.393820,0.410557,0.225830,-0.245117,-0.892334,-0.022717,0.023099,0.090336,0.999992,0.002893,-0.001969,0.002053,0.898231,0.235745,0.001178,-0.370951
08667,NaN,-2.365380,2.117357,8.929084,-1.968090,-0.773031,-0.575005,1.053505,-0.367720,0.389074,0.226318,-0.257812,-0.892090,-0.023859,0.020657,0.089357,0.999983,0.005267,-0.001839,0.001945,0.882971,0.238959,-0.012728,-0.403854
08668,NaN,-2.524474,2.518597,8.939837,-1.912467,-0.484321,-0.392334,1.449231,-0.375759,0.391188,0.214111,-0.272705,-0.887939,-0.025461,0.024488,0.089530,0.999970,0.007246,-0.001879,0.001956,0.881980,0.244565,-0.017781,-0.402472
08669,NaN,-2.534762,3.290746,8.976238,-1.538539,-0.014348,-0.042476,1.692466,-0.377213,0.390586,0.214600,-0.289795,-0.883545,-0.025580,0.032097,0.089988,0.999961,0.008462,-0.001886,0.001953,0.867292,0.249730,-0.031940,-0.429440
08670,NaN,-2.369167,3.898453,8.821205,-1.111344,0.161823,0.054459,1.747371,-0.354424,0.373828,0.204834,-0.308838,-0.873047,-0.023920,0.038168,0.088506,0.999959,0.008737,-0.001772,0.001869,0.865821,0.256476,-0.037695,-0.427965
08671,NaN,-2.120956,4.126487,8.771917,-0.932700,0.099763,0.066106,1.663125,-0.326864,0.352927,0.205322,-0.325684,-0.878906,-0.021425,0.040496,0.088023,0.999963,0.008316,-0.001634,0.001765,0.853142,0.261096,-0.050268,-0.448832
08672,NaN,-1.829729,4.128876,8.943734,-0.967443,-0.257626,0.156337,1.538348,-0.304439,0.332778,0.201660,-0.340576,-0.864258,-0.018502,0.040569,0.089723,0.999968,0.007692,-0.001522,0.001664,0.851777,0.266882,-0.055452,-0.447409
08673,NaN,-1.609064,3.986061,9.201217,-1.198222,-0.598002,0.254325,1.493708,-0.293708,0.316196,0.193604,-0.353271,-0.866211,-0.016288,0.039146,0.092282,0.999970,0.007468,-0.001469,0.001581,0.841527,0.270655,-0.066110,-0.462826
08674,NaN,-1.528398,3.897845,9.887695,-1.621130,-1.022884,0.752298,1.533151,-0.326099,0.304005,0.189697,-0.368164,-0.859619,-0.015504,0.038196,0.099147,0.999968,0.007666,-0.001630,0.001520,0.840021,0.276241,-0.071439,-0.461467
08675,NaN,-1.487675,3.630038,10.024738,-2.062949,-1.197199,0.684603,1.869121,-0.336600,0.312509,0.179688,-0.383057,-0.855469,-0.015102,0.035338,0.100555,0.999954,0.009345,-0.001683,0.001563,0.829824,0.281140,-0.082816,-0.474862
08676,NaN,-1.513476,3.323458,10.124690,-2.563323,-1.408997,0.545080,2.462596,-0.375849,0.338853,0.178467,-0.410645,-0.844727,-0.015380,0.031959,0.101617,0.999921,0.012313,-0.001879,0.001694,0.826946,0.290301,-0.090692,-0.472928
08677,NaN,-1.555670,3.979765,9.924670,-2.332401,-1.056448,0.684524,3.165517,-0.476344,0.424338,0.168945,-0.438232,-0.836182,-0.015876,0.038187,0.099822,0.999870,0.015827,-0.002382,0.002122,0.815681,0.299701,-0.105606,-0.483416
08678,NaN,-1.550094,5.361544,9.538612,-1.511862,-0.544081,1.120603,3.836702,-0.596341,0.523598,0.157471,-0.478760,-0.814941,-0.015924,0.051732,0.096344,0.999808,0.019182,-0.002982,0.002618,0.810726,0.313571,-0.118076,-0.480056
08679,NaN,-1.346742,6.512869,9.147821,-0.841026,-0.278058,1.461551,4.337100,-0.684482,0.581990,0.148193,-0.516846,-0.795898,-0.013969,0.063085,0.092814,0.999755,0.021684,-0.003422,0.002910,0.798411,0.326533,-0.136612,-0.487087
08680,NaN,-1.102617,7.233447,8.678364,-0.468173,-0.236286,1.525446,4.670748,-0.726248,0.632955,0.136963,-0.559326,-0.772705,-0.011570,0.070246,0.088399,0.999716,0.023352,-0.003631,0.003164,0.791605,0.342882,-0.151880,-0.482417
08681,NaN,-1.129041,8.493947,8.340551,0.002502,0.144059,2.142806,5.087873,-0.820190,0.788888,0.127930,-0.604004,-0.741455,-0.011967,0.082736,0.085481,0.999660,0.025436,-0.004100,0.003944,0.778094,0.357446,-0.173255,-0.486606
08682,NaN,-1.397289,10.502879,8.106582,0.631734,0.850115,3.484350,5.451281,-1.007228,1.080709,0.104004,-0.648682,-0.709961,-0.014950,0.102690,0.083813,0.999601,0.027253,-0.005035,0.005403,0.769799,0.375121,-0.192297,-0.479286
08683,NaN,-1.592787,12.702569,7.502501,1.497741,1.651381,4.855151,5.694552,-1.153892,1.384660,0.086426,-0.688965,-0.672607,-0.017243,0.124707,0.078501,0.999554,0.028469,-0.005769,0.006922,0.756251,0.389884,-0.217035,-0.478508
08684,NaN,-1.552136,14.214933,6.957891,1.834117,2.050493,5.847447,5.776225,-1.213995,1.651703,0.062500,-0.729248,-0.635254,-0.017122,0.139926,0.073541,0.999530,0.028877,-0.006069,0.008257,0.747272,0.406842,-0.238560,-0.468139
08685,NaN,-1.392213,14.634124,6.502924,1.566341,2.048364,6.051015,5.629528,-1.220936,1.885822,0.040527,-0.769775,-0.595703,-0.015703,0.144293,0.069018,0.999541,0.028143,-0.006104,0.009428,0.732371,0.418540,-0.265785,-0.466707
08686,NaN,-0.634515,13.844764,5.929382,1.045880,1.363383,5.161240,5.446227,-1.156497,2.084222,0.016357,-0.807861,-0.556396,-0.008133,0.136687,0.062989,0.999558,0.027227,-0.005782,0.010420,0.723978,0.432827,-0.286970,-0.454054
08687,NaN,0.198609,12.660224,5.194199,0.688023,0.613098,3.840105,5.210829,-1.105877,2.287486,-0.012207,-0.839844,-0.515137,0.000249,0.125201,0.055221,0.999580,0.026050,-0.005529,0.011436,0.710327,0.441307,-0.313491,-0.449897
08688,NaN,1.140917,13.517682,4.268919,1.360906,0.310180,4.338318,4.896689,-1.175585,2.570234,-0.047363,-0.863037,-0.473877,0.009416,0.134206,0.046042,0.999600,0.024480,-0.005877,0.012849,0.703179,0.451846,-0.334225,-0.435510
08689,NaN,2.336097,16.014719,3.324181,2.591641,0.143957,6.502020,4.600089,-1.227315,2.978488,-0.080322,-0.888428,-0.436768,0.020761,0.159646,0.037051,0.999606,0.022997,-0.006136,0.014890,0.690676,0.454569,-0.362034,-0.430423
08690,NaN,3.498299,17.734873,2.005200,3.764628,0.143067,7.978151,3.950516,-1.097866,3.380013,-0.117676,-0.907471,-0.403809,0.031861,0.177460,0.023737,0.999647,0.019750,-0.005489,0.016898,0.686741,0.459568,-0.381880,-0.413945
08691,NaN,4.010823,18.452953,1.093093,4.129997,0.414850,8.639815,2.935504,-0.919940,3.708985,-0.164062,-0.916016,-0.381348,0.036620,0.185042,0.013818,0.999710,0.014676,-0.004599,0.018543,0.679185,0.453789,-0.407090,-0.408731
08692,NaN,4.470924,18.415004,1.006320,3.707799,0.571452,8.787867,1.784590,-0.756828,4.000034,-0.201904,-0.920166,-0.363037,0.040973,0.184894,0.011871,0.999753,0.008922,-0.003784,0.019999,0.681602,0.450047,-0.422282,-0.393134
08693,NaN,4.599307,17.358044,1.911059,2.303012,0.478636,8.090450,0.636401,-0.625129,4.289675,-0.246582,-0.919922,-0.369385,0.042196,0.174450,0.019801,0.999760,0.003182,-0.003125,0.021447,0.679600,0.433219,-0.443905,-0.391681
08694,NaN,4.764114,14.958934,2.581294,1.115754,0.121507,6.056296,-0.216265,-0.541165,4.599090,-0.293457,-0.904785,-0.363770,0.044115,0.150659,0.025773,0.999731,-0.001081,-0.002706,0.022993,0.687691,0.421099,-0.455163,-0.377603
08695,NaN,5.050640,11.904781,2.753116,0.484772,-0.596911,3.385275,-0.638589,-0.488404,4.840193,-0.342529,-0.895996,-0.368164,0.047538,0.120310,0.027267,0.999699,-0.003193,-0.002442,0.024199,0.696753,0.406781,-0.465935,-0.363277
08696,NaN,5.187097,8.972697,2.423197,0.377490,-1.250602,0.749378,-0.543371,-0.436597,4.956602,-0.391846,-0.881104,-0.370850,0.049573,0.091040,0.024096,0.999687,-0.002717,-0.002183,0.024780,0.705624,0.392420,-0.476404,-0.348052
08697,NaN,5.031909,6.495530,1.943422,0.407571,-1.663377,-1.545784,-0.111489,-0.383543,4.945289,-0.438965,-0.863770,-0.371338,0.048655,0.066183,0.019492,0.999692,-0.000557,-0.001918,0.024724,0.713244,0.379401,-0.487348,-0.331405
08698,NaN,5.080260,4.639865,1.313538,0.742561,-2.129826,-3.182011,0.544919,-0.297974,4.869076,-0.488037,-0.850830,-0.365479,0.049634,0.047580,0.013338,0.999699,0.002724,-0.001490,0.024343,0.719337,0.368871,-0.498403,-0.313181
08699,NaN,5.275597,3.085891,0.375921,1.480325,-2.634726,-4.487671,1.327254,-0.150909,4.749475,-0.524414,-0.838135,-0.345459,0.052001,0.032074,0.004009,0.999696,0.006636,-0.000754,0.023745,0.723717,0.361422,-0.509827,-0.292720
08700,NaN,5.275104,1.684992,-0.049955,1.746834,-3.116120,-5.581685,2.105003,0.039898,4.541138,-0.567139,-0.825195,-0.325439,0.052350,0.018046,-0.000324,0.999687,0.010524,0.000199,0.022703,0.726434,0.357407,-0.520810,-0.270761
08701,NaN,4.901483,0.892463,-0.330267,1.844317,-3.059424,-6.324925,2.725544,0.213741,4.230259,-0.597168,-0.818848,-0.307373,0.048807,0.010003,-0.003223,0.999683,0.013626,0.001069,0.021149,0.727638,0.356437,-0.531310,-0.247397
08702,NaN,4.388116,1.342283,-0.572237,1.866314,-2.182255,-6.188324,3.244767,0.333936,3.929196,-0.629150,-0.810059,-0.281006,0.043596,0.014372,-0.005567,0.999674,0.016222,0.001669,0.019644,0.727365,0.358099,-0.540938,-0.223810
