// Start Time: Unknown
// Update Rate: 100.0Hz
// Filter Profile: human (46.1)
// Firmware Version: 4.4.0
PacketCounter,SampleTimeFine,Acc_X,Acc_Y,Acc_Z,FreeAcc_X,FreeAcc_Y,FreeAcc_Z,Gyr_X,Gyr_Y,Gyr_Z,Mag_X,Mag_Y,Mag_Z,VelInc_X,VelInc_Y,VelInc_Z,OriInc_q0,OriInc_q1,OriInc_q2,OriInc_q3,Quat_q0,Quat_q1,Quat_q2,Quat_q3
22528,NaN,8.893340,3.752977,-0.947857,-0.000000,-0.000000,-0.113542,0.240648,0.507509,1.222609,-0.931152,0.019531,0.148682,0.088677,0.038084,-0.009658,0.999977,0.001203,0.002538,0.006113,0.316403,-0.462823,-0.579296,-0.591693
22529,NaN,8.489546,3.020054,-0.828561,-0.000000,-0.000000,-0.764024,0.261661,0.543755,1.298849,-0.920898,0.036621,0.144043,0.084674,0.030762,-0.008476,0.999974,0.001308,0.002719,0.006494,0.329380,-0.482606,-0.560292,-0.587088
22530,NaN,8.044397,2.386625,-0.741513,-0.721319,0.197943,-1.422368,0.218344,0.507200,1.333682,-0.927734,0.045166,0.137451,0.080263,0.024410,-0.007592,0.999974,0.001092,0.002536,0.006668,0.330905,-0.468746,-0.572406,-0.585773
22531,NaN,8.898461,0.869534,-0.050282,-2.191180,1.140804,-1.219827,0.218425,0.430337,1.312846,-0.923828,0.058105,0.133057,0.088924,0.009280,-0.000684,0.999976,0.001092,0.002152,0.006564,0.336485,-0.470870,-0.569243,-0.583970
22532,NaN,9.475857,0.623400,1.160235,-2.296243,2.377763,-0.835002,0.192465,0.419409,1.289482,-0.924316,0.075195,0.132812,0.094740,0.006834,0.011410,0.999977,0.000962,0.002097,0.006447,0.342492,-0.472893,-0.565620,-0.582362
22533,NaN,9.185949,1.150766,1.536417,-1.545019,2.588347,-0.925694,0.129920,0.437440,1.271555,-0.924805,0.085938,0.134766,0.091817,0.012082,0.015171,0.999977,0.000650,0.002187,0.006358,0.347730,-0.474983,-0.562229,-0.580838
22534,NaN,8.835751,2.060178,1.431229,-0.460401,2.261887,-0.922584,0.050054,0.452072,1.280635,-0.925293,0.101074,0.121826,0.088255,0.021164,0.014118,0.999977,0.000250,0.002260,0.006403,0.352500,-0.479144,-0.556506,-0.580058
22535,NaN,8.352700,2.225968,1.048486,-0.120930,1.748463,-1.283389,-0.076657,0.430438,1.298462,-0.923340,0.105225,0.125977,0.083402,0.022805,0.010297,0.999977,-0.000383,0.002152,0.006492,0.357271,-0.481632,-0.552401,-0.579000
22536,NaN,8.394253,2.305596,0.323512,-0.042153,0.923516,-1.150816,-0.256625,0.346587,1.341305,-0.925781,0.120361,0.119385,0.083791,0.023622,0.003060,0.999975,-0.001283,0.001733,0.006706,0.360730,-0.486872,-0.543356,-0.581028
22537,NaN,9.308821,1.974187,-0.284972,-0.588932,0.420295,-0.320177,-0.421313,0.278074,1.388654,-0.921875,0.131104,0.116943,0.092944,0.020381,-0.003021,0.999973,-0.002107,0.001390,0.006943,0.364485,-0.490583,-0.538235,-0.580330
22538,NaN,10.511622,1.793153,-0.589158,-0.966235,0.157727,0.821982,-0.487478,0.292287,1.439481,-0.931152,0.145996,0.116699,0.104975,0.018673,-0.006090,0.999970,-0.002437,0.001461,0.007197,0.366967,-0.496860,-0.527679,-0.583112
22539,NaN,10.386035,1.502528,-0.723197,-1.099829,-0.005364,0.648604,-0.369072,0.389395,1.451527,-0.918701,0.161133,0.103760,0.103733,0.015765,-0.007463,0.999970,-0.001845,0.001947,0.007258,0.371299,-0.500217,-0.522267,-0.582373
22540,NaN,9.952408,0.933253,-1.111308,-1.463308,-0.440283,0.128104,-0.165212,0.426348,1.475602,-0.919189,0.173828,0.109863,0.099428,0.010057,-0.011333,0.999970,-0.000826,0.002132,0.007378,0.375531,-0.505403,-0.512432,-0.583916
22541,NaN,9.764072,0.345824,-1.473677,-1.925756,-0.766594,-0.151929,-0.002231,0.403302,1.519580,-0.917480,0.188965,0.103271,0.097581,0.004200,-0.014934,0.999969,-0.000011,0.002016,0.007598,0.380984,-0.508107,-0.507813,-0.582069
22542,NaN,10.000140,0.050884,-1.608994,-2.105286,-0.903313,0.053614,0.151556,0.364157,1.537003,-0.917969,0.201904,0.098877,0.099964,0.001289,-0.016271,0.999969,0.000758,0.001821,0.007685,0.386676,-0.512958,-0.500505,-0.580389
22543,NaN,10.741384,0.141601,-1.223041,-1.916840,-0.565885,0.812573,0.331152,0.365026,1.543819,-0.909912,0.221191,0.096436,0.107376,0.002265,-0.012423,0.999967,0.001656,0.001825,0.007719,0.392906,-0.515105,-0.496784,-0.577493
22544,NaN,11.408786,0.539678,-0.372035,-1.237590,0.153446,1.546540,0.529635,0.407566,1.549895,-0.912598,0.231689,0.100586,0.114034,0.006291,-0.003937,0.999964,0.002648,0.002038,0.007749,0.400846,-0.518691,-0.492035,-0.572873
22545,NaN,10.909645,1.106572,0.589391,-0.265068,0.882213,1.129944,0.725141,0.479679,1.568680,-0.908447,0.240479,0.083252,0.109019,0.011900,0.005675,0.999960,0.003626,0.002398,0.007843,0.408384,-0.519702,-0.489062,-0.569166
22546,NaN,9.891368,0.491223,0.916355,-0.465987,1.191609,0.050426,0.773711,0.493965,1.602232,-0.902588,0.259766,0.078857,0.098893,0.005670,0.008940,0.999957,0.003868,0.002470,0.008011,0.416598,-0.522936,-0.483545,-0.564950
22547,NaN,8.725249,-0.123530,0.930707,-0.807930,1.211266,-1.158793,0.675185,0.429292,1.624364,-0.903320,0.279053,0.076416,0.087279,-0.000557,0.009117,0.999959,0.003376,0.002146,0.008122,0.423972,-0.524223,-0.480291,-0.561033
22548,NaN,8.329729,-2.127345,0.806870,-2.582630,1.365454,-1.687110,0.526733,0.337431,1.572836,-0.897217,0.291748,0.073975,0.083475,-0.020638,0.007873,0.999964,0.002634,0.001687,0.007864,0.430254,-0.528669,-0.472045,-0.559074
22549,NaN,8.924832,-3.394010,1.046607,-3.708788,1.782245,-1.133165,0.470558,0.298266,1.467795,-0.891357,0.306885,0.067383,0.089510,-0.033308,0.010254,0.999969,0.002353,0.001491,0.007339,0.436292,-0.530271,-0.468824,-0.555577
22550,NaN,9.211176,-3.176105,1.415101,-3.241256,2.029804,-0.740279,0.517687,0.343224,1.325111,-0.891602,0.315430,0.058594,0.092344,-0.031186,0.013911,0.999973,0.002588,0.001716,0.006625,0.441569,-0.535199,-0.458525,-0.555277
22551,NaN,8.445008,-2.685915,1.521605,-2.621029,1.973720,-1.441237,0.557676,0.407427,1.190655,-0.887939,0.330322,0.054199,0.084639,-0.026398,0.014970,0.999976,0.002788,0.002037,0.005953,0.447291,-0.535554,-0.455977,-0.552447
22552,NaN,7.887678,-2.607670,1.097724,-2.425676,1.453765,-1.924576,0.448530,0.394347,1.076413,-0.883789,0.339111,0.056152,0.079037,-0.025676,0.010764,0.999981,0.002243,0.001972,0.005382,0.451196,-0.541043,-0.442231,-0.555091
22553,NaN,8.056912,-2.622787,0.555999,-2.481799,0.870902,-1.739054,0.205631,0.294343,0.964145,-0.877441,0.341064,0.052002,0.080702,-0.025845,0.005415,0.999987,0.001028,0.001472,0.004821,0.455074,-0.541887,-0.439523,-0.553250
22554,NaN,8.998170,-2.513411,-0.085146,-2.363846,0.128348,-0.774614,0.007635,0.189557,0.851800,-0.879883,0.351807,0.049561,0.090087,-0.024751,-0.000938,0.999990,0.000038,0.000948,0.004259,0.458060,-0.546196,-0.430493,-0.553648
22555,NaN,10.064098,-2.121574,-0.367435,-1.950681,-0.299938,0.288130,-0.074481,0.132249,0.764615,-0.875977,0.358398,0.043213,0.100719,-0.020832,-0.003733,0.999992,-0.000372,0.000661,0.003823,0.460255,-0.547643,-0.427892,-0.552414
22556,NaN,10.678059,-2.142920,-0.454859,-1.805072,-0.484578,0.926324,-0.070669,0.116938,0.692733,-0.878418,0.371094,0.051514,0.106851,-0.021061,-0.004604,0.999994,-0.000353,0.000585,0.003464,0.461875,-0.553404,-0.416570,-0.553972
22557,NaN,10.650753,-2.216443,-0.296325,-1.776187,-0.339093,0.918984,-0.074962,0.113847,0.607598,-0.876221,0.368896,0.047363,0.106573,-0.021842,-0.003016,0.999995,-0.000375,0.000569,0.003038,0.463585,-0.554525,-0.414416,-0.553037
22558,NaN,10.381871,-2.570158,0.071827,-1.886599,0.079010,0.714816,-0.067970,0.102275,0.530636,-0.876465,0.377686,0.047119,0.103887,-0.025426,0.000674,0.999996,-0.000340,0.000511,0.002653,0.467422,-0.557989,-0.409942,-0.549648
22559,NaN,9.833300,-2.767802,0.462878,-1.973933,0.516762,0.207549,-0.085666,0.064776,0.441755,-0.870117,0.379639,0.049316,0.098395,-0.027459,0.004609,0.999997,-0.000428,0.000324,0.002209,0.468528,-0.558915,-0.408321,-0.548971
22560,NaN,9.505628,-2.873561,0.935677,-1.854425,0.998376,-0.063121,-0.132124,0.012743,0.358225,-0.870117,0.379639,0.049316,0.095108,-0.028559,0.009370,0.999998,-0.000661,0.000064,0.001791,0.471254,-0.562434,-0.404083,-0.546173
22561,NaN,9.290057,-3.420599,1.272791,-2.290636,1.462433,-0.208529,-0.146239,-0.045719,0.261399,-0.864014,0.388184,0.049316,0.092942,-0.034075,0.012774,0.999999,-0.000731,-0.000229,0.001307,0.471463,-0.563431,-0.403056,-0.545724
22562,NaN,9.611052,-3.632551,1.721282,-2.263049,1.912166,0.174943,-0.126465,-0.103268,0.144852,-0.868408,0.388184,0.049072,0.096128,-0.036245,0.017285,0.999999,-0.000632,-0.000516,0.000724,0.473196,-0.566037,-0.399753,-0.543954
22563,NaN,9.961506,-3.165570,2.200370,-1.650704,2.261487,0.495313,-0.174325,-0.161349,0.037402,-0.861816,0.384033,0.051514,0.099603,-0.031618,0.022112,0.999999,-0.000872,-0.000807,0.000187,0.472481,-0.566963,-0.399554,-0.543756
22564,NaN,10.855166,-3.110298,2.621101,-1.289234,2.576489,1.415770,-0.269170,-0.211410,-0.071552,-0.870361,0.386230,0.057861,0.108513,-0.031106,0.026368,0.999998,-0.001346,-0.001057,-0.000358,0.470996,-0.571141,-0.392562,-0.545761
22565,NaN,12.014395,-3.090079,2.859938,-1.097804,2.762359,2.566229,-0.310155,-0.236438,-0.202578,-0.865723,0.377441,0.064453,0.120079,-0.030978,0.028789,0.999998,-0.001551,-0.001182,-0.001013,0.469092,-0.572118,-0.392850,-0.546170
22566,NaN,12.723867,-2.444856,2.889055,-0.356243,2.590043,3.202124,-0.334785,-0.232353,-0.329470,-0.876709,0.377441,0.070801,0.127165,-0.024610,0.029079,0.999997,-0.001674,-0.001162,-0.001647,0.471299,-0.572252,-0.393818,-0.543426
22567,NaN,13.762072,-2.322199,3.022895,-0.133777,2.673230,4.214455,-0.356327,-0.213375,-0.448785,-0.870117,0.375488,0.066406,0.137536,-0.023477,0.030417,0.999995,-0.001782,-0.001067,-0.002244,0.468637,-0.572786,-0.394635,-0.544572
22568,NaN,13.803947,-2.905370,2.293498,-0.833197,2.095057,4.299936,-0.315571,-0.209284,-0.604792,-0.876465,0.371094,0.070801,0.137927,-0.029435,0.023126,0.999994,-0.001578,-0.001046,-0.003024,0.470193,-0.572732,-0.394704,-0.543236
22569,NaN,13.248357,-2.975110,1.193214,-1.308293,1.139313,3.707053,-0.217838,-0.225036,-0.762503,-0.875977,0.358154,0.073242,0.132355,-0.030243,0.012114,0.999992,-0.001089,-0.001125,-0.003813,0.467050,-0.572346,-0.396822,-0.544809
22570,NaN,12.889676,-3.947727,0.785102,-2.388882,0.996317,3.440377,0.007294,-0.257993,-0.977469,-0.882324,0.354004,0.077393,0.128691,-0.040107,0.008016,0.999987,0.000036,-0.001290,-0.004887,0.465268,-0.572679,-0.394887,-0.547383
22571,NaN,13.311383,-4.202361,1.253216,-2.612782,1.561228,3.867828,0.302811,-0.341982,-1.246070,-0.885742,0.332520,0.079834,0.132827,-0.042871,0.012695,0.999978,0.001514,-0.001710,-0.006230,0.462039,-0.570438,-0.400071,-0.548692
22572,NaN,13.898967,-4.012749,2.390490,-2.200610,2.586565,4.451245,0.625497,-0.396422,-1.583494,-0.885254,0.317627,0.077881,0.138618,-0.041301,0.024052,0.999962,0.003127,-0.001982,-0.007917,0.461402,-0.567248,-0.404225,-0.549491
22573,NaN,14.281932,-3.861602,3.560145,-1.999770,3.765726,4.794542,0.909973,-0.485681,-1.995821,-0.889160,0.304688,0.080322,0.142337,-0.040201,0.035767,0.999937,0.004550,-0.002428,-0.009979,0.457488,-0.562414,-0.413481,-0.550844
22574,NaN,14.773881,-3.362847,4.594470,-1.484931,4.685519,5.237582,1.137568,-0.583647,-2.473985,-0.901367,0.281006,0.089111,0.147171,-0.035714,0.046176,0.999903,0.005688,-0.002918,-0.012370,0.450456,-0.558725,-0.418000,-0.556948
22575,NaN,16.017253,-2.410363,5.261625,-0.819468,5.235788,6.371722,1.395705,-0.656995,-2.992286,-0.897949,0.249023,0.085449,0.159611,-0.026863,0.052960,0.999858,0.006978,-0.003285,-0.014961,0.444584,-0.551079,-0.431667,-0.558856
22576,NaN,18.042074,1.010986,5.452352,1.989728,4.696436,8.358891,1.691602,-0.678865,-3.481791,-0.912109,0.221191,0.090088,0.180368,0.006504,0.055201,0.999807,0.008457,-0.003394,-0.017408,0.438782,-0.541082,-0.444139,-0.563419
22577,NaN,20.100071,6.106352,5.179314,6.090408,3.645011,10.624329,1.862185,-0.681732,-3.949817,-0.912842,0.182617,0.084229,0.201968,0.056591,0.053021,0.999756,0.009310,-0.003408,-0.019747,0.431070,-0.530015,-0.461458,-0.565967
22578,NaN,21.983076,9.866541,3.885058,8.471606,1.710524,13.010234,1.945839,-0.701805,-4.483740,-0.924316,0.139648,0.091064,0.221823,0.093318,0.040552,0.999695,0.009728,-0.003509,-0.022416,0.418158,-0.519747,-0.472354,-0.576097
22579,NaN,21.147634,12.183603,2.840318,9.564019,0.788748,12.803529,1.757253,-0.772003,-5.027773,-0.927002,0.092529,0.096191,0.214331,0.116211,0.030265,0.999638,0.008785,-0.003860,-0.025136,0.406266,-0.506236,-0.491924,-0.580244
22580,NaN,18.481374,10.961749,2.677460,7.593370,0.948544,10.440691,1.618580,-0.600680,-5.554724,-0.933594,0.036865,0.101318,0.187675,0.104207,0.028193,0.999577,0.008092,-0.003003,-0.027770,0.388365,-0.491902,-0.504558,-0.593824
22581,NaN,16.662890,10.182408,1.244333,5.880727,0.067599,8.846793,1.439798,-0.129406,-5.957038,-0.936035,-0.016846,0.093506,0.169552,0.096709,0.013261,0.999530,0.007198,-0.000647,-0.029781,0.373708,-0.474233,-0.523498,-0.601162
22582,NaN,13.735900,9.989070,-4.567420,4.273591,-5.785631,6.234365,0.685658,0.097187,-5.657453,-0.932129,-0.068115,0.100586,0.140091,0.096109,-0.045408,0.999594,0.003428,0.000486,-0.028283,0.353708,-0.459012,-0.530399,-0.618769
22583,NaN,16.662055,-6.101956,-5.700176,-12.468731,-3.563179,3.571834,0.242860,-0.257823,-3.955611,-0.924561,-0.100342,0.096924,0.165445,-0.064231,-0.056865,0.999803,0.001214,-0.001289,-0.019777,0.341270,-0.448799,-0.540582,-0.624408
22584,NaN,18.724057,-23.403339,-6.646275,-29.507258,-0.580775,-1.359908,-0.372800,-0.776027,-1.226388,-0.924561,-0.102539,0.099121,0.186055,-0.235299,-0.065301,0.999972,-0.001864,-0.003880,-0.006132,0.330289,-0.450999,-0.537546,-0.631311
22585,NaN,9.244552,-7.835325,-6.815606,-11.996854,-4.344322,-4.289554,-1.644420,-0.458521,1.292425,-0.918457,-0.091797,0.098877,0.093107,-0.078309,-0.067299,0.999943,-0.008222,-0.002293,0.006462,0.329403,-0.458608,-0.530170,-0.632529
22586,NaN,-3.115968,9.341638,-5.516612,8.146673,-7.809156,-9.598253,-2.098405,0.343749,2.497135,-0.921387,-0.072510,0.098633,-0.032414,0.092432,-0.056084,0.999866,-0.010492,0.001719,0.012485,0.332614,-0.473358,-0.512962,-0.634169
22587,NaN,0.274224,3.498706,-3.163489,2.237471,-3.955664,-8.521027,-2.452846,0.157698,2.727675,-0.921875,-0.053223,0.096191,0.002243,0.034628,-0.032063,0.999831,-0.012264,0.000788,0.013638,0.335800,-0.483852,-0.498383,-0.636192
22588,NaN,10.794302,-8.393867,-1.406000,-11.163150,1.730740,-1.981798,-2.359248,0.024518,3.122338,-0.922607,-0.031738,0.087402,0.109236,-0.082398,-0.013095,0.999809,-0.011795,0.000123,0.015611,0.338173,-0.498773,-0.480654,-0.637053
22589,NaN,10.547076,-6.482707,-2.481162,-9.435913,0.116916,-1.424593,-1.078966,0.607864,3.340363,-0.919434,0.000488,0.086914,0.106460,-0.063188,-0.024790,0.999841,-0.005395,0.003039,0.016701,0.347523,-0.506607,-0.467787,-0.635415
22590,NaN,0.881810,3.881786,-1.292444,2.942479,-2.477327,-8.163599,-0.497846,0.886227,2.979705,-0.920166,0.017578,0.078125,0.008181,0.038911,-0.013058,0.999876,-0.002489,0.004431,0.014898,0.357871,-0.514423,-0.453958,-0.633419
22591,NaN,-5.313196,7.788777,-0.874875,7.983554,-3.468308,-13.539672,-0.580212,0.604053,2.185104,-0.918457,0.034668,0.069092,-0.054005,0.077275,-0.008811,0.999932,-0.002901,0.003020,0.010925,0.364639,-0.518470,-0.445392,-0.632339
22592,NaN,-5.669376,5.949567,-1.671159,6.001677,-3.577718,-14.450609,-0.702968,0.121291,1.427846,-0.920898,0.043213,0.075439,-0.057127,0.059030,-0.016885,0.999968,-0.003515,0.000606,0.007139,0.368378,-0.522791,-0.438022,-0.631763
22593,NaN,-3.542251,4.109933,-1.514831,3.909061,-2.816022,-12.732067,-0.534533,-0.004566,0.910928,-0.914307,0.041016,0.073486,-0.035609,0.040897,-0.015259,0.999986,-0.002673,-0.000023,0.004555,0.369836,-0.525775,-0.433958,-0.631238
22594,NaN,-4.573595,3.878233,-1.128557,3.983711,-2.351865,-13.791483,-0.291798,0.163247,0.387466,-0.918945,0.049805,0.066895,-0.045820,0.038677,-0.011305,0.999997,-0.001459,0.000816,0.001937,0.371601,-0.526103,-0.432282,-0.631079
22595,NaN,-6.598733,4.247300,-1.401242,4.570867,-2.707433,-15.756027,-0.208461,0.136098,-0.181799,-0.918701,0.041016,0.071289,-0.065958,0.042518,-0.014012,0.999999,-0.001042,0.000680,-0.000909,0.370764,-0.525664,-0.431854,-0.632229
22596,NaN,-6.998749,4.034459,-1.335964,4.481895,-2.583550,-16.159481,-0.212896,-0.028064,-0.687819,-0.918457,0.036865,0.069092,-0.069846,0.040571,-0.013413,0.999994,-0.001064,-0.000140,-0.003439,0.368458,-0.525065,-0.433985,-0.632615
22597,NaN,-6.387596,4.033015,-0.911240,4.558109,-2.227032,-15.483696,-0.206105,-0.209671,-1.066792,-0.916016,0.023926,0.073730,-0.063650,0.040661,-0.009221,0.999985,-0.001031,-0.001048,-0.005334,0.364074,-0.523782,-0.436519,-0.634472
22598,NaN,-5.547302,4.281627,-1.471959,4.482755,-2.895808,-14.586567,-0.242404,-0.418207,-1.318503,-0.915527,0.010986,0.080322,-0.055158,0.043163,-0.014887,0.999975,-0.001212,-0.002091,-0.006592,0.358531,-0.522817,-0.441401,-0.635046
22599,NaN,-3.867814,4.375519,-2.042685,4.074356,-3.502006,-12.880666,-0.026995,-0.639636,-1.448660,-0.921875,0.004639,0.088867,-0.038294,0.044031,-0.020556,0.999969,-0.000135,-0.003198,-0.007243,0.352430,-0.521679,-0.446239,-0.636014
22600,NaN,-1.958534,4.184602,-2.038118,3.532919,-3.422620,-10.954708,0.100889,-0.722661,-1.534993,-0.923584,-0.003906,0.104004,-0.019190,0.042005,-0.020430,0.999964,0.000504,-0.003613,-0.007675,0.346083,-0.520214,-0.453631,-0.635471
22601,NaN,-0.023747,2.809509,-2.038058,1.855633,-2.887074,-9.294303,0.191746,-0.816652,-1.525086,-0.918701,-0.020996,0.097900,0.000060,0.028115,-0.020354,0.999962,0.000959,-0.004083,-0.007625,0.339862,-0.518994,-0.459608,-0.635531
22602,NaN,2.055023,0.586571,-2.070123,-0.664333,-2.031994,-7.743353,0.348514,-0.755360,-1.379728,-0.918457,-0.033936,0.113037,0.020668,0.005759,-0.020613,0.999968,0.001743,-0.003777,-0.006899,0.334352,-0.517292,-0.467620,-0.633994
22603,NaN,3.706655,-1.495571,-1.696883,-2.846272,-0.854705,-6.646689,0.633125,-0.502848,-1.166886,-0.918213,-0.040527,0.117432,0.037021,-0.015118,-0.016923,0.999975,0.003166,-0.002514,-0.005834,0.331098,-0.515083,-0.473479,-0.633152
22604,NaN,4.635956,-2.235382,-0.748543,-3.459199,0.359834,-5.945693,0.948087,-0.180744,-0.920771,-0.928711,-0.044678,0.121826,0.046263,-0.022531,-0.007550,0.999978,0.004740,-0.000904,-0.004604,0.330047,-0.511675,-0.481107,-0.630709
22605,NaN,4.803648,-1.366219,0.837680,-2.229905,1.587300,-5.552275,1.131098,0.177560,-0.643178,-0.917969,-0.042480,0.115234,0.047999,-0.013864,0.008256,0.999978,0.005655,0.000888,-0.003216,0.331324,-0.507686,-0.486021,-0.629494
22606,NaN,3.036542,-0.178411,2.536036,-0.188050,2.698942,-6.920609,1.020879,0.425466,-0.295955,-0.924561,-0.038330,0.113037,0.030416,-0.001958,0.025286,0.999984,0.005104,0.002127,-0.001480,0.333990,-0.503931,-0.490788,-0.627400
22607,NaN,1.566077,-0.408401,2.867949,0.066945,2.969444,-8.390580,0.729296,0.388147,0.084055,-0.922607,-0.038330,0.113037,0.015718,-0.004182,0.028634,0.999991,0.003646,0.001941,0.000420,0.337033,-0.501693,-0.492217,-0.626447
22608,NaN,1.823340,-1.178189,3.069426,-0.670371,3.399527,-8.353966,0.456315,0.277885,0.458236,-0.929199,-0.027588,0.104248,0.018303,-0.011810,0.030642,0.999994,0.002282,0.001389,0.002291,0.340232,-0.501212,-0.493020,-0.624468
22609,NaN,1.866181,-1.004866,3.205229,-0.487812,3.476488,-8.250020,0.168064,0.202986,0.733840,-0.929688,-0.014648,0.104248,0.018731,-0.010007,0.032025,0.999992,0.000840,0.001015,0.003669,0.343434,-0.502093,-0.491361,-0.623314
22610,NaN,1.745294,-0.526739,3.359854,0.037033,3.477476,-8.225908,-0.143515,0.106918,0.925634,-0.927979,-0.006104,0.108398,0.017495,-0.005162,0.033593,0.999989,-0.000718,0.000535,0.004628,0.346098,-0.504396,-0.488857,-0.621948
22611,NaN,5.262253,-24.581834,4.360792,-22.749379,11.500197,-10.898041,-0.409523,-0.284249,1.139964,-0.930664,0.013184,0.116699,0.053960,-0.245423,0.044187,0.999981,-0.002048,-0.001421,0.005700,0.347900,-0.508761,-0.485196,-0.620252
22612,NaN,44.323491,-50.163138,-12.069074,-59.912633,5.548375,21.899196,0.814600,-1.335228,3.798279,-0.934570,0.062500,0.122314,0.453449,-0.492595,-0.119705,0.999789,0.004073,-0.006676,0.018990,0.358841,-0.521358,-0.479572,-0.607807
22613,NaN,42.724224,4.377388,9.354283,-0.560421,9.740052,33.038680,0.246524,1.663730,6.117862,-0.925781,0.120361,0.102051,0.426398,0.056715,0.090058,0.999497,0.001232,0.008317,0.030584,0.381873,-0.530262,-0.461155,-0.600277
22614,NaN,12.887738,35.708001,-4.674849,30.994829,-14.680396,7.114145,-1.208746,1.635122,4.544121,-0.924805,0.150391,0.091064,0.120326,0.359584,-0.049924,0.999690,-0.006043,0.008175,0.022718,0.397498,-0.540264,-0.439741,-0.597276
22615,NaN,11.375368,30.573946,-4.041133,26.640804,-13.425483,3.986031,-3.128312,0.216700,2.062645,-0.921143,0.167480,0.097168,0.110550,0.306207,-0.045320,0.999824,-0.015641,0.001083,0.010313,0.395606,-0.550270,-0.424324,-0.600539
22616,NaN,14.171729,-11.347884,-2.772136,-12.543805,1.086385,3.556957,-2.616576,-0.197754,2.507083,-0.919678,0.191162,0.105469,0.143154,-0.112039,-0.026108,0.999835,-0.013082,-0.000989,0.012535,0.395689,-0.561973,-0.409888,-0.599673
22617,NaN,12.735671,-8.639154,-3.031597,-9.724704,-0.112121,2.492896,0.914702,0.565708,2.281379,-0.913818,0.210449,0.090088,0.128243,-0.084791,-0.031068,0.999920,0.004573,0.002828,0.011407,0.406220,-0.563096,-0.405074,-0.594831
22618,NaN,10.989085,7.952543,0.538563,7.382390,-2.551068,1.290510,1.286689,1.331715,1.726602,-0.912354,0.231934,0.076904,0.109234,0.080437,0.005172,0.999920,0.006433,0.006658,0.008633,0.418123,-0.561246,-0.400746,-0.591252
22619,NaN,15.634822,8.537257,2.442348,8.634193,-1.278598,5.906979,0.925827,1.078400,1.527773,-0.908691,0.249023,0.061768,0.155821,0.086453,0.023981,0.999946,0.004629,0.005392,0.007639,0.427368,-0.559151,-0.396924,-0.589201
22620,NaN,24.985959,12.176270,-1.604871,10.974735,-7.012114,14.794350,0.149568,0.604480,1.396710,-0.911133,0.255371,0.055176,0.248951,0.123516,-0.016710,0.999971,0.000748,0.003022,0.006983,0.432721,-0.560979,-0.391465,-0.587205
22621,NaN,37.653050,13.498611,1.201816,13.529657,-5.991482,27.368277,-0.324323,0.687951,1.443873,-0.907227,0.272705,0.052734,0.375581,0.137718,0.010503,0.999967,-0.001622,0.003440,0.007219,0.437376,-0.562467,-0.384967,-0.586630
22622,NaN,31.213431,13.399769,1.694755,13.847232,-5.410062,20.775834,-0.439329,1.107045,1.383180,-0.903564,0.285400,0.050537,0.311284,0.136187,0.014925,0.999958,-0.002197,0.005535,0.006916,0.441567,-0.563445,-0.377636,-0.587315
22623,NaN,16.676963,-0.812173,-4.416465,-1.726798,-5.542458,6.453229,-0.497547,0.841453,1.373595,-0.899658,0.298340,0.039551,0.166633,-0.007088,-0.044847,0.999964,-0.002488,0.004207,0.006868,0.445765,-0.564644,-0.370439,-0.587576
22624,NaN,14.774170,-5.896258,-3.484146,-6.133383,-2.928858,4.985316,-0.229809,0.652328,1.319600,-0.901855,0.302734,0.039551,0.148012,-0.058027,-0.035257,0.999972,-0.001149,0.003262,0.006598,0.449338,-0.566034,-0.365539,-0.586584
22625,NaN,9.547248,-3.632451,1.125977,-2.575376,1.119680,0.072900,-0.106678,0.693225,1.064680,-0.891602,0.317627,0.030762,0.095702,-0.035810,0.010948,0.999980,-0.000533,0.003466,0.005323,0.453410,-0.566174,-0.360653,-0.586341
22626,NaN,8.223931,-3.484675,3.664115,-1.593215,3.541121,-0.973970,0.196861,0.646096,0.905230,-0.889648,0.323975,0.024414,0.082514,-0.034510,0.036341,0.999984,0.000984,0.003230,0.004526,0.457302,-0.565842,-0.358280,-0.585093
22627,NaN,6.726077,-1.430239,5.107540,0.769832,4.344315,-2.470589,0.284492,0.675562,0.833442,-0.892090,0.328369,0.021973,0.067492,-0.014094,0.050828,0.999985,0.001422,0.003378,0.004167,0.461741,-0.564698,-0.355209,-0.584584
22628,NaN,5.612385,-2.328107,5.580257,0.031929,5.182194,-3.393839,0.145664,0.597605,0.780834,-0.892090,0.332764,0.015625,0.056381,-0.023102,0.055617,0.999988,0.000728,0.002988,0.003904,0.465098,-0.564289,-0.352765,-0.583797
22629,NaN,6.774751,-4.468774,5.651167,-1.844879,5.708160,-1.950397,-0.077272,0.508458,0.699603,-0.883789,0.343506,0.011230,0.068047,-0.044428,0.056356,0.999991,-0.000386,0.002542,0.003498,0.467808,-0.564212,-0.349385,-0.583739
22630,NaN,8.131975,-3.356432,5.879446,-0.428609,5.328289,-0.681006,-0.182117,0.509108,0.580614,-0.884277,0.354004,0.010986,0.081566,-0.033274,0.058617,0.999992,-0.000911,0.002546,0.002903,0.461323,-0.569188,-0.338367,-0.590520
22631,NaN,8.648954,-2.540617,5.107073,0.129739,4.186727,-0.336649,-0.189695,0.572011,0.482109,-0.881836,0.349854,0.006836,0.086696,-0.025149,0.050847,0.999993,-0.000948,0.002860,0.002411,0.463163,-0.568747,-0.335119,-0.591356
22632,NaN,8.860013,-1.329405,3.425262,0.745264,2.100001,-0.483499,-0.240365,0.558488,0.408089,-0.888428,0.354248,-0.003906,0.088722,-0.013072,0.034021,0.999993,-0.001202,0.002792,0.002040,0.457084,-0.572518,-0.324885,-0.598120
22633,NaN,8.531457,-1.369676,1.502749,-0.038504,0.363367,-1.049909,-0.337879,0.470967,0.381502,-0.884277,0.358398,-0.006104,0.085376,-0.013509,0.014849,0.999994,-0.001689,0.002355,0.001908,0.458012,-0.572498,-0.321709,-0.599145
22634,NaN,7.871710,-2.401466,-0.019870,-1.619616,-0.526341,-1.760921,-0.352145,0.329950,0.381373,-0.880127,0.362793,-0.004150,0.078762,-0.023865,-0.000287,0.999995,-0.001761,0.001650,0.001907,0.453236,-0.575741,-0.313758,-0.603867
22635,NaN,7.395266,-3.274615,-0.769411,-2.735540,-0.793510,-2.203998,-0.227255,0.184526,0.360190,-0.878174,0.364746,-0.006348,0.074004,-0.032622,-0.007725,0.999997,-0.001136,0.000923,0.001801,0.453950,-0.576262,-0.311622,-0.603940
22636,NaN,8.248070,-3.583266,-0.606934,-2.871184,-0.659273,-1.294447,0.010984,0.086115,0.332433,-0.882568,0.369141,-0.004150,0.082537,-0.035695,-0.006107,0.999999,0.000055,0.000431,0.001662,0.450333,-0.578999,-0.305966,-0.606915
22637,NaN,8.988122,-2.834526,0.425952,-1.678770,-0.204899,-0.531416,0.225164,0.051453,0.287264,-0.880371,0.366943,-0.010498,0.089923,-0.028221,0.004205,0.999998,0.001126,0.000257,0.001436,0.451926,-0.578774,-0.305707,-0.606075
22638,NaN,9.642019,-1.700989,1.527686,-0.114959,0.178395,0.094413,0.354307,0.049306,0.260527,-0.878418,0.373535,-0.010742,0.096446,-0.016911,0.015223,0.999998,0.001772,0.000247,0.001303,0.449729,-0.580427,-0.302032,-0.607968
22639,NaN,9.145611,-0.679521,2.169010,1.054957,0.410036,-0.457075,0.260270,0.011809,0.248045,-0.876465,0.379883,-0.006348,0.091466,-0.006710,0.021676,0.999998,0.001301,0.000059,0.001240,0.451248,-0.580179,-0.302082,-0.607053
22640,NaN,8.033047,-1.210881,1.788571,0.348868,0.499413,-1.516670,0.102831,-0.073060,0.253485,-0.878662,0.377686,-0.004395,0.080339,-0.012016,0.017909,0.999999,0.000514,-0.000365,0.001267,0.448872,-0.582350,-0.298583,-0.608465
22641,NaN,7.379121,-1.594427,1.147634,-0.307973,0.223655,-2.186039,-0.082735,-0.219827,0.241997,-0.876465,0.382080,-0.006592,0.073798,-0.015850,0.011564,0.999999,-0.000414,-0.001099,0.001210,0.449030,-0.583565,-0.298126,-0.607408
22642,NaN,7.242199,-2.007225,0.060575,-1.144088,-0.511965,-2.402498,-0.242120,-0.387138,0.221380,-0.867920,0.379883,0.000000,0.072443,-0.019991,0.000770,0.999997,-0.001211,-0.001936,0.001107,0.445187,-0.587320,-0.294467,-0.608402
22643,NaN,7.768573,-2.964613,-1.257574,-2.513652,-1.335424,-1.899464,-0.338122,-0.515418,0.189481,-0.876465,0.379883,0.008545,0.077746,-0.029593,-0.012325,0.999995,-0.001691,-0.002577,0.000947,0.444001,-0.589918,-0.294034,-0.606964
22644,NaN,9.162941,-3.843020,-1.836751,-3.406978,-1.654011,-0.444747,-0.308646,-0.584204,0.117085,-0.874756,0.388428,0.010498,0.091705,-0.038405,-0.018040,0.999994,-0.001543,-0.002921,0.000585,0.439706,-0.594108,-0.291213,-0.607363
22645,NaN,9.902239,-3.567359,-1.462354,-2.889500,-1.539130,0.296738,0.004609,-0.540594,0.027904,-0.874512,0.386230,0.017090,0.099066,-0.035659,-0.014357,0.999996,0.000023,-0.002703,0.000140,0.439007,-0.595779,-0.292338,-0.605689
22646,NaN,10.098301,-3.811222,-1.398387,-3.033291,-1.354388,0.551736,0.414183,-0.483887,-0.059893,-0.878906,0.386230,0.023438,0.101005,-0.038114,-0.013818,0.999995,0.002071,-0.002419,-0.000299,0.437675,-0.597379,-0.293076,-0.604720
22647,NaN,10.810120,-3.352968,-0.588043,-2.175669,-0.945773,1.269677,0.687614,-0.459954,-0.156838,-0.874268,0.379883,0.014893,0.108088,-0.033595,-0.005747,0.999991,0.003438,-0.002300,-0.000784,0.438568,-0.597031,-0.296633,-0.602678
22648,NaN,11.210428,-2.628550,0.359574,-1.062159,-0.454759,1.649299,0.881826,-0.435540,-0.263999,-0.878662,0.379883,0.021484,0.112061,-0.026450,0.003723,0.999987,0.004409,-0.002178,-0.001320,0.438316,-0.597101,-0.299522,-0.601362
22649,NaN,11.975998,-1.988696,1.436059,0.040626,0.132594,2.411147,0.962559,-0.392883,-0.352971,-0.878662,0.379883,0.025635,0.119696,-0.020168,0.014499,0.999985,0.004813,-0.001964,-0.001765,0.439524,-0.595636,-0.304333,-0.599514
22650,NaN,12.339233,-1.726145,2.634893,0.812955,1.083408,2.849998,0.968741,-0.367749,-0.443039,-0.880615,0.375488,0.023682,0.123305,-0.017663,0.026491,0.999984,0.004844,-0.001839,-0.002215,0.438888,-0.595152,-0.307651,-0.598768
22651,NaN,12.706679,-1.933214,3.356468,0.913480,1.824317,3.313598,0.872830,-0.383384,-0.549856,-0.880371,0.366943,0.021484,0.126948,-0.019828,0.033722,0.999985,0.004364,-0.001917,-0.002749,0.439233,-0.593531,-0.312743,-0.597484
22652,NaN,12.546847,-2.294195,4.252616,0.902508,2.879795,3.289313,0.733194,-0.400905,-0.667689,-0.882324,0.360596,0.021729,0.125305,-0.023517,0.042692,0.999986,0.003666,-0.002005,-0.003338,0.437598,-0.592998,-0.316469,-0.597250
22653,NaN,12.471622,-3.055022,4.558531,0.245265,3.571534,3.334060,0.583080,-0.439392,-0.850122,-0.882080,0.356201,0.026123,0.124484,-0.031213,0.045769,0.999984,0.002915,-0.002197,-0.004251,0.436077,-0.591682,-0.321694,-0.596878
22654,NaN,12.782248,-3.340041,4.957494,0.086339,4.108212,3.686609,0.470903,-0.483335,-1.069585,-0.890381,0.341309,0.030518,0.127521,-0.034200,0.049803,0.999980,0.002354,-0.002417,-0.005348,0.432665,-0.591050,-0.326196,-0.597542
22655,NaN,13.498955,-3.395137,5.249005,0.065859,4.431953,4.387665,0.399983,-0.552153,-1.357176,-0.892090,0.330566,0.028564,0.134609,-0.034971,0.052793,0.999971,0.002000,-0.002761,-0.006786,0.428870,-0.589606,-0.332594,-0.598179
22656,NaN,15.068213,-2.766017,5.579309,0.705945,4.445140,5.857838,0.409393,-0.611837,-1.698097,-0.900146,0.311279,0.039551,0.150268,-0.029052,0.056195,0.999957,0.002047,-0.003059,-0.008490,0.422920,-0.588476,-0.338655,-0.600123
22657,NaN,16.403232,-2.007296,5.649142,1.230730,4.276389,7.074970,0.445226,-0.692749,-2.102497,-0.901611,0.296143,0.041748,0.163611,-0.021921,0.057011,0.999936,0.002226,-0.003464,-0.010512,0.416712,-0.586017,-0.347626,-0.601741
22658,NaN,18.423653,-1.966017,5.480986,0.953452,4.192557,9.024192,0.544850,-0.796413,-2.533251,-0.911377,0.268311,0.044434,0.183747,-0.022140,0.055484,0.999908,0.002724,-0.003982,-0.012666,0.407677,-0.583887,-0.356217,-0.604967
22659,NaN,21.040761,0.498151,4.800735,2.479357,2.742683,11.454629,0.886674,-0.821075,-3.004017,-0.914551,0.234131,0.049072,0.210249,0.001607,0.048883,0.999869,0.004433,-0.004105,-0.015019,0.399653,-0.579138,-0.369302,-0.607036
22660,NaN,24.001658,4.116073,4.061294,4.822934,0.880493,14.382503,1.148182,-0.777063,-3.539334,-0.922119,0.199707,0.058105,0.240531,0.036669,0.041766,0.999819,0.005741,-0.003885,-0.017696,0.389508,-0.573336,-0.382790,-0.610771
22661,NaN,25.056380,6.515374,2.624154,5.589094,-0.817281,15.587006,1.484889,-0.702916,-4.142368,-0.925049,0.161133,0.060791,0.251743,0.059746,0.027582,0.999752,0.007424,-0.003514,-0.020710,0.379662,-0.564521,-0.400478,-0.613832
22662,NaN,22.648552,10.989406,1.312093,8.413964,-3.135883,13.739048,1.728346,-0.633924,-4.768845,-0.932129,0.116211,0.061523,0.228973,0.104331,0.014762,0.999673,0.008641,-0.003169,-0.023842,0.365822,-0.555081,-0.417615,-0.619401
22663,NaN,18.167772,14.929702,0.470544,11.316399,-4.723261,10.253769,1.732501,-0.725263,-5.492105,-0.930176,0.062500,0.060059,0.185662,0.144183,0.006638,0.999579,0.008661,-0.003626,-0.027457,0.351943,-0.542458,-0.439377,-0.623557
22664,NaN,15.359869,13.824753,-1.326743,9.157016,-5.432084,7.944176,1.472428,-0.758277,-6.227818,-0.941162,0.002686,0.080322,0.157851,0.133466,-0.011680,0.999481,0.007361,-0.003791,-0.031134,0.332952,-0.528922,-0.460696,-0.630193
22665,NaN,14.228904,8.940814,-5.134128,2.716674,-6.752343,6.177715,1.025920,-0.335788,-6.393694,-0.932373,-0.057373,0.070557,0.145140,0.085059,-0.050655,0.999474,0.005129,-0.001679,-0.031963,0.314561,-0.513268,-0.481157,-0.637256
22666,NaN,13.609305,2.735280,-5.141472,-3.476972,-4.310266,3.914011,1.042064,-0.058815,-5.338120,-0.926514,-0.102539,0.075439,0.136778,0.023975,-0.051244,0.999630,0.005210,-0.000294,-0.026687,0.297009,-0.500190,-0.496412,-0.644337
22667,NaN,18.929190,-19.629085,-3.541260,-24.765959,5.350732,0.870192,0.720194,-0.393263,-2.896027,-0.925781,-0.124023,0.080078,0.186495,-0.198877,-0.035757,0.999887,0.003601,-0.001966,-0.014480,0.288457,-0.493141,-0.506509,-0.645797
22668,NaN,18.855781,-20.095531,-9.213621,-27.243563,0.359078,0.282728,-0.428038,-0.581736,0.027466,-0.924072,-0.115479,0.088623,0.188852,-0.201125,-0.091157,0.999993,-0.002140,-0.002909,0.000137,0.285055,-0.496229,-0.505263,-0.645917
22669,NaN,-1.860292,-3.651026,-6.512782,-4.895756,-5.095663,-12.857435,-1.403778,0.045760,2.334793,-0.916016,-0.098145,0.079834,-0.018186,-0.037180,-0.064864,0.999907,-0.007019,0.000229,0.011674,0.289188,-0.503932,-0.494832,-0.646193
22670,NaN,-5.737791,8.409308,-5.309230,7.141922,-8.598385,-12.434636,-2.161108,0.006439,2.636723,-0.918701,-0.081055,0.083740,-0.058476,0.082747,-0.053989,0.999855,-0.010805,0.000032,0.013183,0.292333,-0.513909,-0.480891,-0.647444
22671,NaN,2.553049,-2.692851,-2.965889,-4.256110,-1.420909,-8.253306,-2.266835,-0.196146,2.698940,-0.921631,-0.057373,0.076904,0.025923,-0.026914,-0.029328,0.999844,-0.011334,-0.000981,0.013494,0.294715,-0.524263,-0.466837,-0.648347
22672,NaN,11.707389,-11.542989,-2.543952,-14.206468,3.456250,-1.876222,-1.001817,0.177774,2.923931,-0.918213,-0.033936,0.076660,0.118724,-0.113828,-0.024972,0.999880,-0.005009,0.000889,0.014619,0.301560,-0.532480,-0.455312,-0.646697
22673,NaN,6.711530,-5.734236,-2.642382,-7.745678,0.463775,-4.843580,0.696886,0.956312,2.704907,-0.914551,-0.014648,0.065674,0.067754,-0.056336,-0.026944,0.999891,0.003484,0.004781,0.013524,0.314292,-0.534435,-0.448880,-0.643511
22674,NaN,-1.002178,3.436307,-1.872026,2.528247,-3.141463,-10.047953,1.075768,1.012169,2.093192,-0.915039,0.000488,0.056885,-0.010475,0.034355,-0.018483,0.999918,0.005379,0.005061,0.010466,0.326138,-0.534683,-0.444861,-0.640193
22675,NaN,-3.247486,5.599965,-1.834063,4.986322,-4.033655,-11.846097,0.687701,0.691554,1.337644,-0.915283,0.006836,0.050293,-0.032911,0.055843,-0.018035,0.999966,0.003438,0.003458,0.006688,0.333771,-0.534303,-0.442351,-0.638313
22676,NaN,-3.279231,4.683210,-1.835401,4.177309,-3.633916,-12.136262,0.461263,0.262993,0.813987,-0.911133,0.009033,0.063232,-0.033007,0.046740,-0.018203,0.999988,0.002306,0.001315,0.004070,0.338326,-0.534724,-0.441355,-0.636248
22677,NaN,-3.459282,3.723285,-1.683412,3.407978,-3.107678,-12.531383,0.478140,0.061875,0.529848,-0.911377,0.015381,0.050293,-0.034697,0.037181,-0.016734,0.999994,0.002391,0.000309,0.002649,0.341409,-0.534881,-0.441360,-0.634463
22678,NaN,-5.551042,4.622676,-0.907003,4.919946,-2.792381,-14.395542,0.443465,-0.108942,0.264214,-0.911133,0.013184,0.056641,-0.055567,0.046173,-0.008998,0.999997,0.002217,-0.000545,0.001321,0.343273,-0.535340,-0.442411,-0.632335
22679,NaN,-6.699748,5.932631,-0.606689,6.438248,-3.047383,-15.263668,0.156299,-0.370870,-0.043298,-0.911377,0.015381,0.061035,-0.066973,0.059346,-0.006145,0.999998,0.000781,-0.001854,-0.000216,0.342718,-0.536145,-0.443665,-0.631074
22680,NaN,-6.121104,6.246540,-0.783307,6.539794,-3.341877,-14.625519,-0.238350,-0.680136,-0.328282,-0.911133,0.009033,0.073975,-0.061081,0.062556,-0.008115,0.999992,-0.001192,-0.003401,-0.001641,0.339493,-0.538184,-0.445176,-0.630016
22681,NaN,-4.573095,5.105672,-0.658209,5.244767,-2.788134,-13.295851,-0.602670,-0.995460,-0.544282,-0.906738,0.006836,0.082520,-0.045558,0.051160,-0.006963,0.999979,-0.003013,-0.004977,-0.002721,0.333919,-0.541118,-0.446432,-0.629594
22682,NaN,-2.552720,3.297185,-0.775030,3.161174,-2.152969,-11.645661,-0.839221,-1.275112,-0.659245,-0.902100,-0.001709,0.089111,-0.025368,0.033022,-0.008051,0.999965,-0.004196,-0.006375,-0.003296,0.326552,-0.545163,-0.448011,-0.628846
22683,NaN,-0.785205,1.252305,-1.157710,0.814101,-1.615835,-10.314021,-0.738982,-1.428394,-0.674173,-0.908691,-0.001953,0.106201,-0.007727,0.012506,-0.011679,0.999962,-0.003695,-0.007142,-0.003371,0.319191,-0.549327,-0.449849,-0.627688
22684,NaN,0.945181,0.286118,-0.856893,-0.274158,-0.799271,-8.814957,-0.419395,-1.352591,-0.662358,-0.910645,-0.010498,0.119141,0.009519,0.002812,-0.008511,0.999969,-0.002097,-0.006763,-0.003312,0.312698,-0.552821,-0.452856,-0.625724
22685,NaN,1.669102,0.275840,-0.814662,-0.411464,-0.658495,-8.103098,-0.072610,-1.103768,-0.614389,-0.904053,-0.012695,0.127930,0.016744,0.002704,-0.008055,0.999980,-0.000363,-0.005519,-0.003072,0.308054,-0.554983,-0.456053,-0.623789
22686,NaN,1.865485,0.480521,-0.432720,-0.113085,-0.343936,-7.871795,0.295249,-0.913307,-0.540866,-0.906250,-0.012695,0.138428,0.018687,0.004761,-0.004235,0.999985,0.001476,-0.004567,-0.002704,0.304888,-0.556226,-0.460220,-0.621171
22687,NaN,1.886287,0.959626,0.239959,0.583726,0.104852,-7.767014,0.202134,-0.789554,-0.486576,-0.904053,-0.016846,0.145020,0.018876,0.009548,0.002484,0.999989,0.001011,-0.003948,-0.002433,0.302103,-0.557241,-0.463408,-0.619249
22688,NaN,2.427975,1.806871,1.121555,1.591258,0.677676,-7.087554,-0.059375,-0.715534,-0.422131,-0.897461,-0.019043,0.151611,0.024277,0.018021,0.011297,0.999991,-0.000297,-0.003578,-0.002111,0.298760,-0.558646,-0.465803,-0.617807
22689,NaN,2.550727,1.645009,1.918394,1.752176,1.496659,-7.059076,-0.304095,-0.539476,-0.278108,-0.906006,-0.021240,0.160156,0.025478,0.016444,0.019228,0.999994,-0.001520,-0.002697,-0.001391,0.295778,-0.560112,-0.466452,-0.617424
22690,NaN,2.366419,-0.319382,2.888069,0.457656,3.120793,-7.789310,-0.428242,-0.432205,-0.037982,-0.915039,-0.012695,0.166260,0.023601,-0.003136,0.028938,0.999995,-0.002141,-0.002161,-0.000190,0.293238,-0.562033,-0.466170,-0.617103
22691,NaN,2.687329,-2.308343,3.779563,-0.969444,4.767546,-8.033393,-0.441114,-0.319515,0.212185,-0.904297,-0.008301,0.164307,0.026837,-0.022971,0.037889,0.999996,-0.002206,-0.001598,0.001061,0.291892,-0.564154,-0.464689,-0.616922
22692,NaN,2.842039,-3.553280,4.161524,-1.913014,5.638500,-8.209907,-0.217140,-0.108324,0.472928,-0.913086,-0.004150,0.172607,0.028482,-0.035420,0.041669,0.999996,-0.001086,-0.000542,0.002365,0.292322,-0.565933,-0.463039,-0.616330
22693,NaN,2.646664,-4.708112,4.414842,-2.774215,6.296677,-8.664901,-0.008234,0.121218,0.692594,-0.915771,0.008789,0.170410,0.026656,-0.046987,0.044134,0.999994,-0.000041,0.000606,0.003463,0.294697,-0.567168,-0.460883,-0.615680
22694,NaN,13.985375,-40.423336,3.418963,-36.891589,21.511997,-5.624252,0.398391,-0.438404,1.372960,-0.914307,0.028076,0.182861,0.142550,-0.403328,0.033696,0.999972,0.001992,-0.002192,0.006865,0.298973,-0.571112,-0.458911,-0.611430
22695,NaN,45.266326,-29.061720,-4.220364,-34.587257,14.538327,28.960225,1.326751,-0.072237,4.204599,-0.907471,0.081543,0.167236,0.458650,-0.280729,-0.043923,0.999757,0.006633,-0.000361,0.021021,0.315361,-0.578855,-0.450967,-0.601750
22696,NaN,22.692086,10.838345,1.899584,8.177078,0.324237,14.038695,0.374533,0.820680,5.369408,-0.906982,0.130859,0.168457,0.223979,0.114389,0.018283,0.999629,0.001872,0.004103,0.026844,0.334895,-0.588114,-0.434573,-0.594234
22697,NaN,8.434162,40.148894,-7.846396,32.478837,-22.792497,3.222815,-2.624772,0.867723,3.971711,-0.903564,0.156494,0.168213,0.076005,0.401975,-0.084079,0.999707,-0.013123,0.004338,0.019857,0.340749,-0.598385,-0.413527,-0.595668
22698,NaN,9.614755,19.765703,-3.348857,15.662108,-11.057640,1.443223,-4.510106,-0.443253,2.042267,-0.904053,0.165039,0.185303,0.094209,0.197807,-0.037738,0.999691,-0.022548,-0.002216,0.010210,0.331070,-0.612547,-0.393021,-0.600594
22699,NaN,13.298104,-11.114593,-6.783327,-13.262782,0.624780,3.228297,-3.710644,-0.665789,2.233560,-0.898438,0.188721,0.191406,0.134441,-0.110877,-0.065328,0.999760,-0.018552,-0.003329,0.011167,0.325011,-0.624928,-0.376056,-0.602008
22700,NaN,16.995073,-2.968362,-4.374652,-4.765006,-1.023942,7.304980,0.062497,0.549247,2.223573,-0.898926,0.208008,0.186768,0.170146,-0.027779,-0.044222,0.999934,0.000312,0.002746,0.011118,0.331187,-0.628613,-0.366453,-0.600727
22701,NaN,14.968226,14.872716,1.827129,13.938313,-5.214726,5.257259,0.228624,0.740950,1.712276,-0.897461,0.222900,0.177979,0.148469,0.149981,0.017891,0.999956,0.001143,0.003705,0.008561,0.338377,-0.629118,-0.360526,-0.599778
22702,NaN,21.164534,16.040676,-0.506231,14.071784,-7.824510,11.311611,-0.836487,0.344368,1.828145,-0.889404,0.240234,0.181885,0.210158,0.162308,-0.006101,0.999948,-0.004182,0.001722,0.009141,0.341501,-0.633097,-0.351362,-0.599258
22703,NaN,29.960765,17.207482,-1.360973,15.170990,-9.314167,19.829270,-1.811077,-0.003588,1.820544,-0.889648,0.248779,0.186035,0.298026,0.174660,-0.015178,0.999918,-0.009055,-0.000018,0.009102,0.341174,-0.639346,-0.340160,-0.599273
22704,NaN,35.183425,13.090662,-1.861658,11.929062,-7.998554,24.920301,-2.140966,0.256503,1.778054,-0.892334,0.261475,0.183838,0.350628,0.133815,-0.020489,0.999902,-0.010704,0.001282,0.008890,0.338926,-0.645683,-0.326901,-0.601130
22705,NaN,34.639797,7.222142,-3.102110,6.608130,-6.392637,24.496575,-1.594598,0.664043,1.800029,-0.882080,0.280762,0.187744,0.345624,0.075078,-0.032761,0.999922,-0.007973,0.003320,0.009000,0.340233,-0.649281,-0.315158,-0.602786
22706,NaN,26.263433,2.309320,-3.002532,2.231938,-4.035735,16.318174,-0.910319,1.050178,1.857746,-0.880615,0.298096,0.178955,0.262243,0.025389,-0.031515,0.999933,-0.004551,0.005251,0.009289,0.344302,-0.650393,-0.305197,-0.604400
22707,NaN,16.209875,-3.254259,-2.191549,-2.497448,-0.366165,6.672875,-0.360886,1.042679,1.691259,-0.878662,0.306641,0.170410,0.162249,-0.031211,-0.022704,0.999949,-0.001804,0.005213,0.008456,0.349798,-0.650411,-0.296807,-0.605402
22708,NaN,9.657613,-5.274754,0.822493,-2.898705,3.289738,0.313588,0.083022,0.894265,1.380646,-0.876709,0.312988,0.166016,0.096973,-0.052082,0.007770,0.999966,0.000415,0.004471,0.006903,0.355738,-0.649276,-0.292043,-0.605477
22709,NaN,4.328544,-5.613857,3.374370,-2.179117,5.730847,-4.909015,0.427314,0.737224,1.012562,-0.876953,0.321533,0.157227,0.043693,-0.055990,0.033463,0.999978,0.002137,0.003686,0.005063,0.361244,-0.647749,-0.288743,-0.605435
22710,NaN,0.335767,-7.142715,5.261827,-2.728782,8.364427,-8.626469,0.643152,0.614331,0.787337,-0.870850,0.328125,0.152832,0.003800,-0.071581,0.052377,0.999982,0.003216,0.003072,0.003937,0.365290,-0.646294,-0.286307,-0.605720
22711,NaN,-0.285450,-10.144037,6.380940,-4.649608,10.999577,-8.769463,0.785311,0.482649,0.643596,-0.866943,0.338867,0.142090,-0.002374,-0.101698,0.063417,0.999984,0.003927,0.002413,0.003218,0.370447,-0.644309,-0.285731,-0.604973
22712,NaN,0.758585,-11.475309,7.178935,-5.243531,12.278022,-7.457209,1.073170,0.508813,0.516574,-0.871338,0.345215,0.139893,0.008064,-0.115116,0.071152,0.999979,0.005366,0.002544,0.002583,0.375283,-0.641815,-0.285729,-0.604645
22713,NaN,1.103724,-7.042666,8.538646,-0.930801,10.862288,-7.606319,1.238823,0.598747,0.356032,-0.867188,0.347412,0.126953,0.011418,-0.070934,0.084914,0.999975,0.006194,0.002994,0.001780,0.381165,-0.638173,-0.287213,-0.604116
22714,NaN,3.877465,-3.018105,9.165751,2.946497,8.905076,-5.321473,1.153154,0.678944,0.320945,-0.871582,0.351807,0.116211,0.039134,-0.030646,0.091349,0.999976,0.005766,0.003395,0.001605,0.385871,-0.634716,-0.287389,-0.604688
22715,NaN,6.743026,-1.223258,7.574995,3.782587,6.296530,-2.714079,0.955822,0.747824,0.389927,-0.864990,0.351807,0.105469,0.067737,-0.012462,0.075438,0.999980,0.004779,0.003739,0.001950,0.391135,-0.631158,-0.287605,-0.604926
22716,NaN,8.962059,0.261883,3.447088,2.991714,1.734821,-0.851146,0.444460,0.628350,0.397708,-0.873779,0.358154,0.101074,0.089723,0.002721,0.034195,0.999991,0.002222,0.003142,0.001989,0.394052,-0.629079,-0.285687,-0.606107
22717,NaN,10.972299,1.993582,-0.725673,2.399777,-2.987511,0.685305,-0.325740,0.395883,0.355091,-0.869629,0.360352,0.098877,0.109673,0.020118,-0.007507,0.999995,-0.001629,0.001979,0.001775,0.394653,-0.629026,-0.282813,-0.607118
22718,NaN,10.970600,1.222409,-4.490892,-0.312101,-5.785073,0.601338,-0.893246,0.126553,0.367884,-0.869873,0.366699,0.103027,0.109655,0.012225,-0.045033,0.999988,-0.004466,0.000633,0.001839,0.392043,-0.631232,-0.277453,-0.608989
22719,NaN,10.490325,-1.235389,-6.722987,-3.634415,-6.253476,0.407714,-0.918600,-0.142988,0.409018,-0.865723,0.368896,0.109375,0.104977,-0.012448,-0.067098,0.999987,-0.004593,-0.000715,0.002045,0.390171,-0.634028,-0.273654,-0.609007
22720,NaN,10.990111,-2.568730,-7.107997,-4.901669,-5.864901,1.118046,-0.560164,-0.222792,0.386332,-0.863770,0.373047,0.103027,0.110030,-0.025674,-0.070886,0.999994,-0.002801,-0.001114,0.001932,0.388228,-0.636653,-0.270086,-0.609102
22721,NaN,11.148785,-3.361081,-5.085412,-4.350803,-3.774528,1.513253,0.020264,-0.146446,0.365166,-0.868164,0.375244,0.111572,0.111586,-0.033402,-0.050776,0.999998,0.000101,-0.000732,0.001826,0.389191,-0.637552,-0.269281,-0.607902
22722,NaN,10.252763,-2.802733,-2.089735,-2.265915,-1.522641,0.670083,0.483163,-0.058901,0.336884,-0.863770,0.373047,0.109375,0.102581,-0.027804,-0.020934,0.999996,0.002416,-0.000295,0.001684,0.391842,-0.637111,-0.270034,-0.606326
22723,NaN,10.074444,-2.191041,0.374759,-0.378509,0.171613,0.495693,0.644640,0.033824,0.335320,-0.859619,0.383789,0.107178,0.100782,-0.021753,0.003660,0.999993,0.003223,0.000169,0.001677,0.394940,-0.636195,-0.270864,-0.604906
22724,NaN,9.191234,-2.083737,2.158074,0.605455,1.682066,-0.311001,0.580343,0.082744,0.298266,-0.861816,0.383789,0.104980,0.091952,-0.020763,0.021482,0.999995,0.002902,0.000414,0.001491,0.397171,-0.635448,-0.270918,-0.604206
22725,NaN,8.887423,-1.137604,2.531637,1.558737,1.503737,-0.757374,0.293375,0.091602,0.253802,-0.853271,0.383789,0.100830,0.088900,-0.011300,0.025259,0.999998,0.001467,0.000458,0.001269,0.398978,-0.634931,-0.270828,-0.603598
22726,NaN,8.462418,-1.099206,1.773528,1.131109,0.889078,-1.216394,-0.097360,0.109391,0.242924,-0.862061,0.392334,0.104980,0.084647,-0.010881,0.017694,0.999999,-0.000487,0.000547,0.001215,0.399044,-0.635300,-0.269058,-0.603958
22727,NaN,7.722504,-1.873886,0.532329,-0.268979,0.362406,-1.861073,-0.421591,0.043610,0.239199,-0.855713,0.392334,0.098389,0.077249,-0.018635,0.005346,0.999997,-0.002108,0.000218,0.001196,0.398470,-0.636330,-0.266949,-0.604189
22728,NaN,7.712804,-2.718802,-0.670098,-1.613036,-0.179121,-1.769414,-0.549073,-0.032978,0.224435,-0.855957,0.396729,0.106934,0.077160,-0.027120,-0.006614,0.999996,-0.002745,-0.000165,0.001122,0.397400,-0.637748,-0.264720,-0.604379
22729,NaN,7.532447,-4.269807,-0.834369,-2.974892,0.565448,-1.658216,-0.449509,-0.088556,0.172736,-0.849121,0.390137,0.107178,0.075365,-0.042652,-0.008214,0.999997,-0.002248,-0.000443,0.000864,0.396356,-0.639136,-0.262998,-0.604351
22730,NaN,7.598910,-4.999947,-0.308346,-3.244781,1.402996,-1.425737,-0.235303,-0.114366,0.097395,-0.855957,0.396729,0.113281,0.076015,-0.049966,-0.002981,0.999999,-0.001177,-0.000572,0.000487,0.395746,-0.640053,-0.262204,-0.604124
22731,NaN,8.314486,-4.601379,0.955304,-2.098755,2.132950,-0.742863,-0.018268,-0.108843,0.009431,-0.855713,0.392334,0.111328,0.083142,-0.046009,0.009602,1.000000,-0.000091,-0.000544,0.000047,0.395559,-0.640431,-0.262346,-0.603785
22732,NaN,9.346262,-3.423714,2.148119,-0.327078,2.332206,0.094011,0.125230,-0.140989,-0.090163,-0.853760,0.394531,0.119873,0.093432,-0.034293,0.021526,0.999999,0.000626,-0.000705,-0.000451,0.395532,-0.640483,-0.263262,-0.603348
22733,NaN,11.339212,-1.364366,2.655240,1.897482,1.364480,1.677621,0.060893,-0.208639,-0.162463,-0.857910,0.390137,0.111328,0.113353,-0.013744,0.026666,0.999999,0.000304,-0.001043,-0.000812,0.394948,-0.640778,-0.264390,-0.602924
22734,NaN,13.461063,-1.525551,2.539549,1.977658,1.100339,3.783445,-0.079001,-0.217584,-0.225831,-0.855713,0.392334,0.122070,0.134566,-0.015397,0.025548,0.999999,-0.000395,-0.001088,-0.001129,0.393773,-0.641262,-0.265267,-0.602792
22735,NaN,13.882806,-1.840263,2.196794,1.571123,0.980211,4.241326,-0.160446,-0.205472,-0.324768,-0.857910,0.390137,0.119873,0.138775,-0.018610,0.022125,0.999998,-0.000802,-0.001027,-0.001624,0.391992,-0.641766,-0.266241,-0.602988
22736,NaN,14.132097,-2.153678,1.787692,1.090559,0.835668,4.528243,-0.171935,-0.184666,-0.452588,-0.857666,0.381592,0.124268,0.141255,-0.021841,0.018026,0.999997,-0.000860,-0.000923,-0.002263,0.389883,-0.642003,-0.267504,-0.603544
22737,NaN,14.632657,-2.888287,1.138502,0.143437,0.712795,5.127982,-0.167234,-0.185839,-0.616730,-0.861572,0.373047,0.128662,0.146226,-0.029324,0.011545,0.999994,-0.000836,-0.000929,-0.003084,0.387220,-0.642061,-0.269351,-0.604374
22738,NaN,14.426307,-2.975903,0.876758,-0.170304,0.656734,4.927782,-0.144825,-0.224115,-0.821186,-0.867676,0.366699,0.126709,0.144129,-0.030345,0.008951,0.999991,-0.000724,-0.001121,-0.004106,0.384019,-0.641847,-0.271946,-0.605481
22739,NaN,14.401070,-3.027038,1.100663,-0.176832,0.982389,4.910316,-0.036879,-0.286361,-1.025999,-0.869873,0.362305,0.131104,0.143837,-0.031007,0.011218,0.999986,-0.000184,-0.001432,-0.005130,0.380385,-0.641380,-0.275685,-0.606578
22740,NaN,14.415519,-2.990681,2.110657,0.314576,1.924713,4.931786,0.099280,-0.392077,-1.269122,-0.871338,0.347412,0.135498,0.143920,-0.030831,0.021374,0.999978,0.000496,-0.001960,-0.006346,0.376374,-0.640551,-0.280761,-0.607627
22741,NaN,14.735103,-3.276767,3.156526,0.559860,3.090648,5.285419,0.282641,-0.525071,-1.598070,-0.875244,0.334473,0.135742,0.146999,-0.033988,0.031904,0.999964,0.001413,-0.002625,-0.007990,0.371658,-0.639347,-0.287727,-0.608538
22742,NaN,15.532953,-3.707359,3.812018,0.446420,4.027497,6.097000,0.538825,-0.618189,-2.003133,-0.874512,0.312988,0.142334,0.154829,-0.038729,0.038496,0.999941,0.002694,-0.003091,-0.010015,0.366462,-0.637227,-0.296848,-0.609531
22743,NaN,16.633860,-3.685280,4.356377,0.569756,4.680906,7.128104,0.873850,-0.679426,-2.479945,-0.884521,0.289551,0.138428,0.165714,-0.039102,0.043960,0.999908,0.004369,-0.003397,-0.012399,0.360632,-0.633957,-0.308641,-0.610560
22744,NaN,18.159086,-2.521488,4.427963,1.273249,4.383822,8.486119,1.295356,-0.659821,-3.003512,-0.894287,0.261719,0.140869,0.181035,-0.028225,0.044701,0.999861,0.006476,-0.003299,-0.015017,0.354620,-0.628804,-0.323176,-0.611888
22745,NaN,20.461683,1.902688,4.261435,4.468890,2.268384,10.565955,1.762993,-0.528560,-3.533852,-0.891113,0.231689,0.137207,0.204792,0.015030,0.043300,0.999802,0.008814,-0.002643,-0.017668,0.348412,-0.621460,-0.340563,-0.613525
22746,NaN,22.741001,7.340788,3.229924,7.920223,-0.849093,12.945306,2.112649,-0.397270,-4.105023,-0.907227,0.197510,0.135498,0.228782,0.068372,0.033493,0.999732,0.010562,-0.001986,-0.020523,0.341739,-0.611689,-0.360298,-0.615821
22747,NaN,22.617327,11.501614,1.780275,10.011134,-3.416994,13.316725,2.117261,-0.437159,-4.646386,-0.909912,0.152344,0.142578,0.228719,0.109522,0.019480,0.999672,0.010585,-0.002186,-0.023229,0.332994,-0.600846,-0.381665,-0.618410
22748,NaN,19.205134,13.883946,0.529922,10.875906,-4.983332,10.647568,1.825397,-0.578252,-5.242684,-0.912354,0.098877,0.141113,0.195582,0.133684,0.007097,0.999611,0.009126,-0.002891,-0.026210,0.321052,-0.589151,-0.403822,-0.621896
22749,NaN,15.798414,11.411856,-0.265983,7.910821,-4.001066,7.542080,1.472612,-0.669944,-5.833372,-0.921387,0.047363,0.146240,0.161228,0.109460,-0.001306,0.999542,0.007362,-0.003349,-0.029162,0.305738,-0.576821,-0.426482,-0.626031
22750,NaN,15.560662,6.719336,-3.708722,1.460063,-4.327493,6.923370,1.247534,-0.334568,-6.078810,-0.915039,-0.008301,0.146973,0.157618,0.062651,-0.036424,0.999517,0.006237,-0.001673,-0.030389,0.289266,-0.562495,-0.448205,-0.631694
22751,NaN,12.885594,1.548082,-8.562492,-5.367470,-6.385032,3.307592,1.208691,0.236624,-5.530692,-0.908936,-0.057617,0.141357,0.129126,0.012430,-0.085696,0.999599,0.006043,0.001183,-0.027650,0.275597,-0.547377,-0.467062,-0.637399
22752,NaN,16.248179,-11.395888,-7.833954,-17.514581,0.278826,2.367967,1.098422,-0.054441,-3.512671,-0.907959,-0.085449,0.150391,0.160474,-0.116357,-0.078930,0.999831,0.005492,-0.000272,-0.017562,0.267049,-0.537542,-0.480205,-0.639638
22753,NaN,18.491354,-18.935522,-6.554283,-24.271337,4.855092,1.622787,0.269363,-0.473726,-0.835448,-0.905762,-0.089844,0.148193,0.184276,-0.190038,-0.065361,0.999988,0.001347,-0.002369,-0.004177,0.263945,-0.536680,-0.483947,-0.638829
22754,NaN,6.167704,-6.825748,-7.213064,-10.693282,-2.678456,-5.921911,-0.809921,0.083687,1.552530,-0.904053,-0.079102,0.148193,0.062176,-0.068068,-0.071881,0.999962,-0.004050,0.000418,0.007763,0.266951,-0.541201,-0.477012,-0.638982
22755,NaN,-4.578214,7.239048,-4.561041,5.391785,-7.827526,-11.766741,-1.339896,0.496565,2.660311,-0.900391,-0.057617,0.139160,-0.046851,0.071465,-0.045976,0.999886,-0.006699,0.002483,0.013301,0.272963,-0.547682,-0.464824,-0.639902
22756,NaN,-0.370729,4.488437,-3.606329,2.301676,-5.191576,-8.794533,-1.721505,0.372058,2.585709,-0.905273,-0.040527,0.134766,-0.004352,0.044518,-0.036440,0.999878,-0.008607,0.001860,0.012928,0.277360,-0.554805,-0.451656,-0.641303
22757,NaN,7.205088,-4.252392,-0.511736,-5.461240,2.441249,-3.941676,-1.366922,0.216716,2.776522,-0.904053,-0.016846,0.132080,0.072627,-0.041552,-0.004910,0.999880,-0.006834,0.001084,0.013882,0.282911,-0.562205,-0.439225,-0.641068
22758,NaN,9.020927,-5.589003,-2.253948,-7.642917,1.663141,-2.295588,-0.124626,0.646965,2.852520,-0.904785,0.006592,0.129639,0.090921,-0.054611,-0.022799,0.999893,-0.000623,0.003235,0.014262,0.293098,-0.566550,-0.429838,-0.639027
22759,NaN,2.025991,0.184975,-1.265247,-0.792205,-0.996439,-7.783192,0.868306,1.116258,2.459627,-0.896729,0.023926,0.118652,0.020164,0.002153,-0.012756,0.999899,0.004341,0.005581,0.012298,0.305770,-0.566936,-0.423975,-0.636658
22760,NaN,-4.100035,4.441892,-1.135796,4.038365,-3.349561,-13.022255,1.042552,0.937200,1.649204,-0.899170,0.034668,0.110107,-0.041417,0.044136,-0.010934,0.999941,0.005213,0.004686,0.008246,0.315969,-0.565899,-0.421131,-0.634484
22761,NaN,-5.901919,5.262032,-1.818707,4.743815,-4.376222,-14.729339,0.710830,0.568462,0.822418,-0.890625,0.032471,0.101562,-0.059286,0.052441,-0.017832,0.999981,0.003554,0.002842,0.004112,0.321765,-0.564690,-0.420163,-0.633289
22762,NaN,-5.771262,3.672477,-1.805809,3.338338,-3.604056,-14.904019,0.603645,0.216708,0.239630,-0.903564,0.036865,0.097168,-0.057776,0.036710,-0.017885,0.999994,0.003018,0.001084,0.001198,0.324650,-0.563591,-0.421061,-0.632199
22763,NaN,-6.001850,2.837559,-1.840368,2.643728,-3.266063,-15.272021,0.759877,0.043657,-0.207767,-0.894775,0.032471,0.097168,-0.059993,0.028508,-0.018282,0.999992,0.003799,0.000218,-0.001039,0.326208,-0.561774,-0.423984,-0.631059
22764,NaN,-6.572366,3.810596,-1.089131,3.965388,-3.033176,-15.641756,0.953619,-0.062553,-0.605065,-0.898926,0.026123,0.099365,-0.065605,0.038356,-0.010729,0.999984,0.004768,-0.000313,-0.003025,0.326760,-0.559176,-0.428835,-0.629802
22765,NaN,-6.252571,5.499524,-0.463219,5.745070,-3.139892,-14.978779,0.943342,-0.168448,-0.965563,-0.894531,0.021729,0.105957,-0.062255,0.055317,-0.004424,0.999977,0.004717,-0.000842,-0.004828,0.325973,-0.556078,-0.434780,-0.628876
22766,NaN,-5.064773,6.874522,-0.420284,6.851551,-3.566808,-13.476122,0.694571,-0.347080,-1.203631,-0.900391,0.006592,0.112549,-0.050226,0.069063,-0.004051,0.999974,0.003473,-0.001735,-0.006018,0.323224,-0.553435,-0.440950,-0.628331
22767,NaN,-3.491403,6.254134,0.184803,6.303671,-2.641628,-11.962806,0.220045,-0.591624,-1.350143,-0.895996,0.004639,0.114746,-0.034496,0.062773,0.001815,0.999972,0.001100,-0.002958,-0.006751,0.318262,-0.551942,-0.446331,-0.628378
22768,NaN,-1.540033,4.461198,-0.085103,4.236035,-2.012700,-10.347349,-0.213991,-0.873324,-1.415233,-0.906250,-0.012695,0.121338,-0.015080,0.044718,-0.000965,0.999965,-0.001070,-0.004367,-0.007076,0.311070,-0.551838,-0.451065,-0.628689
22769,NaN,0.326406,2.442286,-0.523781,1.881754,-1.417620,-8.921134,-0.433120,-1.021786,-1.390860,-0.899414,-0.021240,0.136475,0.003461,0.024388,-0.005273,0.999960,-0.002166,-0.005109,-0.006954,0.303170,-0.552561,-0.455122,-0.628990
22770,NaN,1.457127,0.630469,-0.749744,-0.065538,-0.744892,-8.224105,-0.472503,-1.071606,-1.274200,-0.899170,-0.031982,0.153809,0.014651,0.006194,-0.007434,0.999963,-0.002362,-0.005358,-0.006371,0.295184,-0.553699,-0.458907,-0.629037
22771,NaN,1.949349,-0.108266,-0.179719,-0.591351,0.161958,-7.950437,-0.415918,-1.048793,-1.088983,-0.903320,-0.036377,0.158203,0.019496,-0.001192,-0.001693,0.999969,-0.002080,-0.005244,-0.005445,0.288176,-0.555092,-0.462157,-0.628680
22772,NaN,1.885708,0.419959,0.653446,0.236452,0.712845,-7.916598,-0.388749,-0.951652,-0.873340,-0.903320,-0.040527,0.166748,0.018844,0.004130,0.006616,0.999977,-0.001944,-0.004758,-0.004367,0.281926,-0.556589,-0.464855,-0.628201
22773,NaN,1.366897,1.198029,1.299541,1.309856,0.903381,-8.244037,-0.466614,-0.854578,-0.699698,-0.905273,-0.042725,0.173340,0.013655,0.011963,0.013026,0.999982,-0.002333,-0.004273,-0.003498,0.276422,-0.558290,-0.466542,-0.627886
22774,NaN,1.013536,1.486524,1.850678,1.886319,1.217059,-8.538882,-0.616514,-0.729188,-0.521602,-0.903076,-0.042725,0.179688,0.010107,0.014896,0.018498,0.999985,-0.003083,-0.003646,-0.002608,0.271147,-0.560171,-0.467192,-0.628029
22775,NaN,0.934468,0.588302,2.256201,1.321059,1.931588,-8.899714,-0.767944,-0.560933,-0.328923,-0.902832,-0.053467,0.184082,0.009291,0.005954,0.022565,0.999987,-0.003840,-0.002805,-0.001645,0.266633,-0.562193,-0.466466,-0.628693
22776,NaN,1.471018,-0.847240,3.653919,0.630642,3.873345,-8.900426,-0.815398,-0.409471,-0.078946,-0.911621,-0.044922,0.188232,0.014632,-0.008329,0.036603,0.999990,-0.004077,-0.002047,-0.000395,0.262936,-0.564321,-0.464785,-0.629588
22777,NaN,2.337020,-2.489207,4.537200,-0.512144,5.525865,-8.610087,-0.931145,-0.295815,0.205875,-0.905518,-0.040527,0.190430,0.023328,-0.024656,0.045522,0.999988,-0.004656,-0.001479,0.001029,0.260249,-0.566943,-0.461667,-0.630642
22778,NaN,3.823290,-8.008400,4.475082,-5.500182,8.210483,-8.757515,-0.954638,-0.297453,0.416382,-0.914307,-0.034180,0.196777,0.038332,-0.079789,0.045189,0.999985,-0.004773,-0.001487,0.002082,0.258017,-0.569997,-0.457947,-0.631518
22779,NaN,23.333039,-62.620216,-1.471820,-58.714512,31.529889,-4.689291,-0.214659,-1.404639,1.558063,-0.911133,-0.001953,0.204834,0.238292,-0.624373,-0.012385,0.999944,-0.001073,-0.007023,0.007790,0.259077,-0.578241,-0.454626,-0.625965
22780,NaN,57.301938,-34.961734,4.608157,-37.721202,30.662254,36.694714,0.215347,0.561605,5.295212,-0.915283,0.057861,0.201660,0.582132,-0.334332,0.044090,0.999645,0.001077,0.002808,0.026473,0.277658,-0.588102,-0.438981,-0.619949
22781,NaN,22.561686,19.729283,0.614748,14.481330,-5.271598,15.893261,-0.328516,1.138853,6.840149,-0.915039,0.109375,0.187988,0.218725,0.204861,0.004556,0.999398,-0.001642,0.005693,0.034194,0.300206,-0.599681,-0.416020,-0.614155
22782,NaN,1.668795,68.712789,-5.689270,56.282313,-38.256330,1.346231,-2.840272,1.194808,3.495330,-0.917725,0.124512,0.192139,0.004308,0.686374,-0.066695,0.999729,-0.014200,0.005973,0.017475,0.305194,-0.607464,-0.394689,-0.618113
22783,NaN,9.789806,-1.702932,-4.225356,-4.353128,-1.653929,-0.070826,-6.035711,-1.003496,1.432136,-0.911377,0.130859,0.207031,0.098231,-0.017581,-0.041236,0.999506,-0.030174,-0.005017,0.007160,0.289144,-0.622297,-0.373037,-0.624489
22784,NaN,14.307906,-27.435697,-5.070237,-26.068701,12.681483,2.131491,-1.686700,-0.623355,2.645297,-0.910156,0.156494,0.210938,0.146847,-0.272843,-0.047943,0.999872,-0.008433,-0.003117,0.013226,0.291003,-0.631528,-0.360376,-0.621787
22785,NaN,9.333284,3.627382,-4.083600,0.385613,-4.621262,-0.043676,1.690348,1.205735,1.692501,-0.908447,0.171631,0.189453,0.092772,0.037407,-0.041083,0.999910,0.008451,0.006028,0.008462,0.303733,-0.628311,-0.358512,-0.620033
22786,NaN,9.527900,12.051803,-2.790583,8.250988,-8.362368,0.473226,1.378224,1.081465,1.409457,-0.911377,0.193115,0.186768,0.094276,0.121376,-0.027583,0.999937,0.006891,0.005407,0.007047,0.314488,-0.625415,-0.356600,-0.618700
22787,NaN,30.444873,26.120864,-6.854214,17.628303,-18.484995,21.868226,-0.371805,-0.022675,1.712278,-0.903320,0.205811,0.188965,0.302206,0.263674,-0.068996,0.999962,-0.001859,-0.000113,0.008561,0.318554,-0.629097,-0.350129,-0.616580
22788,NaN,59.647218,44.337285,-6.659472,32.933645,-27.611044,51.186160,-2.182582,-0.387191,1.042160,-0.907715,0.210205,0.203857,0.594287,0.445720,-0.070298,0.999925,-0.010913,-0.001936,0.005211,0.314152,-0.635584,-0.340732,-0.617449
22789,NaN,51.724259,20.374587,-5.482041,13.973773,-14.444846,42.307281,-2.182399,0.985084,2.011837,-0.902100,0.231445,0.192871,0.514877,0.208300,-0.059617,0.999878,-0.010912,0.004925,0.010059,0.315052,-0.639319,-0.326023,-0.621066
22790,NaN,4.182220,-24.499364,-6.166812,-23.295435,9.592793,-5.228900,-0.644181,0.945916,2.591493,-0.900635,0.252930,0.183838,0.044704,-0.244624,-0.061087,0.999900,-0.003221,0.004729,0.012957,0.322220,-0.641535,-0.314411,-0.621090
22791,NaN,7.263015,-12.458493,-3.723694,-12.003159,4.325003,-2.128655,1.005297,0.823720,1.241222,-0.890137,0.263672,0.168701,0.073245,-0.123941,-0.038162,0.999960,0.005026,0.004119,0.006206,0.330565,-0.639281,-0.312224,-0.620131
22792,NaN,5.941923,-2.909793,5.386409,0.984606,5.976068,-3.804129,1.238371,0.909802,0.766773,-0.894287,0.261475,0.173096,0.059775,-0.029201,0.053412,0.999963,0.006192,0.004549,0.003834,0.338117,-0.635655,-0.312195,-0.619802
22793,NaN,7.027765,-10.972692,6.616750,-4.961047,11.508029,-2.294728,1.463596,0.583841,0.470920,-0.894775,0.274414,0.155762,0.070728,-0.110040,0.065157,0.999966,0.007318,0.002919,0.002355,0.345113,-0.632083,-0.314248,-0.618559
22794,NaN,3.422867,-9.628034,9.330481,-2.655577,12.997449,-5.878017,1.788754,0.519249,0.022415,-0.901367,0.274414,0.157959,0.034480,-0.097105,0.092349,0.999957,0.008944,0.002596,0.000112,0.351528,-0.627441,-0.318847,-0.617319
22795,NaN,1.635354,-4.637768,9.745170,1.458039,10.638516,-7.851925,1.708809,0.398757,-0.278177,-0.892334,0.270264,0.140869,0.016482,-0.047231,0.097018,0.999961,0.008544,0.001994,-0.001391,0.356636,-0.622738,-0.324292,-0.616314
22796,NaN,4.820969,-2.568853,8.957141,2.714197,8.778626,-4.749253,1.266882,0.207942,-0.380555,-0.901123,0.272461,0.140625,0.048253,-0.026347,0.089356,0.999978,0.006334,0.001040,-0.001903,0.359750,-0.619188,-0.329003,-0.615584
22797,NaN,7.034417,-1.873244,8.361455,2.942363,7.861788,-2.571129,0.687596,0.009058,-0.392555,-0.892334,0.265869,0.136475,0.070311,-0.019158,0.083546,0.999992,0.003438,0.000045,-0.001963,0.360666,-0.617271,-0.332327,-0.615186
22798,NaN,7.268937,-1.895314,6.200024,1.744407,6.049801,-2.381221,0.210158,-0.133590,-0.497581,-0.900879,0.265869,0.136475,0.072600,-0.019199,0.062029,0.999996,0.001051,-0.000668,-0.002488,0.359645,-0.616390,-0.334732,-0.615364
22799,NaN,7.665508,-2.459226,3.192835,-0.323954,3.794530,-2.034621,-0.019488,-0.246854,-0.652699,-0.900635,0.261719,0.134521,0.076535,-0.024839,0.032025,0.999994,-0.000097,-0.001234,-0.003263,0.357146,-0.616087,-0.337137,-0.615810
22800,NaN,7.830468,-2.746455,0.962736,-1.757661,2.077581,-1.914586,-0.072626,-0.328466,-0.751997,-0.904785,0.255127,0.145264,0.078185,-0.027755,0.009766,0.999992,-0.000363,-0.001642,-0.003760,0.354179,-0.615841,-0.339785,-0.616314
22801,NaN,7.897009,-1.985770,-1.270177,-2.301141,-0.167275,-1.900945,-0.087079,-0.429991,-0.820441,-0.902100,0.240234,0.149902,0.078915,-0.020187,-0.012523,0.999989,-0.000435,-0.002150,-0.004102,0.350633,-0.615918,-0.342813,-0.616588
22802,NaN,8.221636,-0.992959,-2.570066,-2.163934,-1.729218,-1.596052,-0.110969,-0.542258,-0.840767,-0.904053,0.233887,0.152100,0.082243,-0.010289,-0.025472,0.999987,-0.000555,-0.002711,-0.004204,0.346900,-0.616236,-0.345965,-0.616621
22803,NaN,9.009751,-0.465581,-3.565924,-2.269285,-2.772499,-0.797645,-0.119978,-0.612113,-0.825029,-0.910400,0.225342,0.156494,0.090186,-0.005049,-0.035380,0.999987,-0.000600,-0.003061,-0.004125,0.342908,-0.616894,-0.349205,-0.616370
22804,NaN,10.343905,0.148822,-3.517696,-1.764158,-2.949155,0.559482,-0.086293,-0.618664,-0.814633,-0.903809,0.220947,0.160889,0.103552,0.001052,-0.034857,0.999987,-0.000431,-0.003093,-0.004073,0.339165,-0.617446,-0.352468,-0.616031
22805,NaN,11.375729,0.975661,-3.247850,-0.970138,-3.030859,1.623190,0.051978,-0.540395,-0.829485,-0.907715,0.210205,0.167236,0.113884,0.009293,-0.032168,0.999988,0.000260,-0.002702,-0.004147,0.335799,-0.617550,-0.356112,-0.615674
22806,NaN,11.847237,1.244038,-2.549738,-0.432546,-2.467510,2.109105,0.200242,-0.412701,-0.833080,-0.909668,0.205811,0.165283,0.118575,0.011972,-0.025241,0.999989,0.001001,-0.002063,-0.004165,0.333208,-0.616949,-0.359956,-0.615450
22807,NaN,12.745179,1.668611,-1.500004,0.402617,-1.671859,3.013682,0.304617,-0.267504,-0.785296,-0.907227,0.199463,0.163330,0.127536,0.016208,-0.014805,0.999990,0.001523,-0.001338,-0.003926,0.331231,-0.615842,-0.363769,-0.615383
22808,NaN,12.828676,2.772249,0.264674,2.191038,-0.655242,3.114012,0.273996,-0.086378,-0.729042,-0.909180,0.193115,0.165527,0.128385,0.027251,0.002740,0.999992,0.001370,-0.000432,-0.003645,0.329749,-0.614285,-0.366973,-0.615833
22809,NaN,11.463736,3.348455,-0.938454,2.035979,-1.984532,1.824577,0.156627,-0.050484,-0.706205,-0.911377,0.190918,0.165527,0.114757,0.033087,-0.009330,0.999993,0.000783,-0.000252,-0.003531,0.327945,-0.612880,-0.369716,-0.616555
22810,NaN,10.184405,2.262855,-2.124744,0.480906,-2.461142,0.534690,-0.054445,-0.141226,-0.666564,-0.913330,0.186523,0.171875,0.101934,0.022283,-0.021182,0.999994,-0.000272,-0.000706,-0.003333,0.325517,-0.612127,-0.371810,-0.617331
22811,NaN,9.681724,0.799445,-1.811231,-0.642806,-1.420710,-0.054437,-0.194793,-0.223769,-0.640361,-0.915039,0.177979,0.169922,0.096862,0.007667,-0.018012,0.999994,-0.000974,-0.001119,-0.003202,0.322511,-0.611937,-0.373541,-0.618051
22812,NaN,9.404744,0.409160,-0.531300,-0.350121,-0.090707,-0.391025,-0.207171,-0.224214,-0.656129,-0.910645,0.171631,0.180664,0.094066,0.003778,-0.005212,0.999993,-0.001036,-0.001121,-0.003281,0.319465,-0.611706,-0.375263,-0.618817
22813,NaN,9.275584,0.430093,0.470235,0.148625,0.795397,-0.550534,-0.190220,-0.201091,-0.665523,-0.914795,0.169434,0.176514,0.092765,0.003997,0.004792,0.999994,-0.000951,-0.001005,-0.003328,0.316430,-0.611377,-0.377040,-0.619622
22814,NaN,9.203029,0.797825,0.632780,0.507752,0.785766,-0.600896,-0.209962,-0.213517,-0.670681,-0.916748,0.163086,0.183105,0.092050,0.007676,0.006418,0.999993,-0.001050,-0.001068,-0.003353,0.313338,-0.611077,-0.378766,-0.620435
22815,NaN,9.194670,0.967545,0.305061,0.440487,0.466740,-0.584527,-0.261089,-0.265471,-0.665849,-0.907715,0.152344,0.178955,0.091974,0.009373,0.003160,0.999993,-0.001305,-0.001327,-0.003329,0.309954,-0.611041,-0.380414,-0.621162
22816,NaN,9.235123,0.809474,-0.164915,0.018133,0.203764,-0.542967,-0.302880,-0.319192,-0.658490,-0.918213,0.141602,0.183350,0.092380,0.007788,-0.001514,0.999992,-0.001514,-0.001596,-0.003292,0.306414,-0.611210,-0.381971,-0.621797
22817,NaN,9.603140,0.493388,-0.409480,-0.440683,0.250527,-0.201547,-0.250353,-0.347418,-0.656355,-0.913818,0.135254,0.185547,0.096054,0.004614,-0.003934,0.999992,-0.001252,-0.001737,-0.003282,0.302927,-0.611412,-0.383738,-0.622218
22818,NaN,10.096133,0.504870,-0.182344,-0.383543,0.543823,0.275758,-0.120782,-0.336197,-0.654366,-0.915771,0.135010,0.194092,0.100980,0.004717,-0.001657,0.999993,-0.000604,-0.001681,-0.003272,0.299910,-0.611343,-0.385863,-0.622434
22819,NaN,10.470595,0.720227,-0.036878,-0.192783,0.654362,0.660498,0.041829,-0.284457,-0.661544,-0.911377,0.128662,0.187744,0.104729,0.006856,-0.000218,0.999993,0.000209,-0.001422,-0.003308,0.297413,-0.610882,-0.388450,-0.622476
22820,NaN,10.514735,1.176828,-0.204176,0.057605,0.338981,0.764060,0.185731,-0.241673,-0.650320,-0.919922,0.124512,0.200684,0.105187,0.011428,-0.001904,0.999994,0.000929,-0.001208,-0.003252,0.295539,-0.610055,-0.391363,-0.622355
22821,NaN,10.335842,1.615504,-0.464346,0.262579,-0.069640,0.655401,0.281199,-0.219840,-0.645154,-0.915283,0.117920,0.196533,0.103415,0.015828,-0.004507,0.999993,0.001406,-0.001099,-0.003226,0.293941,-0.609053,-0.394539,-0.622087
22822,NaN,10.102114,1.841792,-0.634044,0.344548,-0.301019,0.465308,0.298590,-0.217995,-0.621765,-0.917236,0.111572,0.200928,0.101085,0.018113,-0.006203,0.999993,0.001493,-0.001090,-0.003109,0.292531,-0.608029,-0.397671,-0.621759
22823,NaN,9.803518,2.160154,-0.524088,0.662489,-0.350543,0.211671,0.287681,-0.235312,-0.585288,-0.912842,0.109375,0.198730,0.098104,0.021322,-0.005095,0.999994,0.001438,-0.001177,-0.002926,0.291101,-0.607169,-0.400697,-0.621328
22824,NaN,9.571870,2.490749,-0.654272,0.864538,-0.605911,0.043161,0.222970,-0.237868,-0.551721,-0.916992,0.103027,0.200928,0.095795,0.024650,-0.006401,0.999995,0.001115,-0.001189,-0.002759,0.289625,-0.606438,-0.403403,-0.620980
22825,NaN,9.361215,2.507829,-0.821858,0.783176,-0.734569,-0.146055,0.128231,-0.242801,-0.508305,-0.916748,0.098633,0.205322,0.093685,0.024845,-0.008089,0.999996,0.000641,-0.001214,-0.002542,0.287930,-0.605975,-0.405702,-0.620723
22826,NaN,9.348336,2.409845,-0.964530,0.600981,-0.763222,-0.159441,0.060542,-0.251718,-0.455832,-0.916748,0.094482,0.209717,0.093550,0.023888,-0.009520,0.999997,0.000303,-0.001259,-0.002279,0.286218,-0.605702,-0.407633,-0.620516
22827,NaN,9.492446,2.097228,-0.852882,0.355438,-0.447595,-0.070744,0.035454,-0.240034,-0.411979,-0.907959,0.092285,0.205566,0.094978,0.020778,-0.008411,0.999997,0.000177,-0.001200,-0.002060,0.284542,-0.605550,-0.409343,-0.620309
