// Start Time: Unknown
// Update Rate: 100.0Hz
// Filter Profile: human (46.1)
// Firmware Version: 4.4.0
PacketCounter,SampleTimeFine,Acc_X,Acc_Y,Acc_Z,FreeAcc_X,FreeAcc_Y,FreeAcc_Z,Gyr_X,Gyr_Y,Gyr_Z,Mag_X,Mag_Y,Mag_Z,VelInc_X,VelInc_Y,VelInc_Z,OriInc_q0,OriInc_q1,OriInc_q2,OriInc_q3,Quat_q0,Quat_q1,Quat_q2,Quat_q3
16421,NaN,3.803767,-0.524993,-0.243695,0.000000,0.000000,-5.965167,-2.162896,0.230200,-1.249543,-0.709473,-0.150391,-0.679932,0.038001,-0.005514,-0.002422,0.999921,-0.010814,0.001151,-0.006248,0.666554,0.062133,-0.726371,0.155661
16422,NaN,3.654089,-0.536909,0.004106,0.000000,-0.000000,-6.119380,-2.068310,0.144642,-1.075259,-0.707520,-0.145996,-0.684082,0.036511,-0.005565,0.000072,0.999932,-0.010341,0.000723,-0.005376,0.687189,0.063929,-0.703523,0.169529
16423,NaN,3.209265,-0.504848,0.482119,-0.549855,-0.202213,-6.581059,-1.998364,0.056791,-0.882483,-0.705811,-0.133301,-0.682129,0.032071,-0.005142,0.004863,0.999940,-0.009992,0.000284,-0.004412,0.677985,0.057117,-0.716421,0.154317
16424,NaN,3.095044,-0.229860,0.967354,-1.088640,-0.113716,-6.751669,-1.972421,-0.099791,-0.654526,-0.706055,-0.126709,-0.686279,0.030938,-0.002304,0.009712,0.999946,-0.009862,-0.000499,-0.003273,0.678660,0.052849,-0.718056,0.144996
16425,NaN,3.072487,0.015302,1.311026,-1.492675,0.028250,-6.824326,-1.968198,-0.250250,-0.392589,-0.710449,-0.118164,-0.684326,0.030709,0.000222,0.013147,0.999949,-0.009841,-0.001251,-0.001963,0.678547,0.047151,-0.720208,0.136568
16426,NaN,3.423125,0.228125,1.750106,-2.010109,0.176195,-6.532286,-1.863341,-0.448793,-0.114508,-0.717285,-0.105469,-0.682373,0.034193,0.002425,0.017556,0.999954,-0.009317,-0.002244,-0.000573,0.677417,0.041545,-0.722943,0.129357
16427,NaN,3.983182,0.207644,2.157670,-2.454888,0.143218,-6.002542,-1.633442,-0.623532,0.153523,-0.715576,-0.090332,-0.676025,0.039763,0.002284,0.021683,0.999961,-0.008167,-0.003118,0.000768,0.676493,0.036852,-0.725050,0.123699
16428,NaN,4.686613,-0.069831,2.460903,-2.782092,-0.077187,-5.309475,-1.312663,-0.709026,0.429338,-0.728516,-0.083984,-0.678223,0.046780,-0.000436,0.024778,0.999970,-0.006563,-0.003545,0.002147,0.673879,0.031293,-0.728317,0.120258
16429,NaN,5.569723,-0.472689,2.783532,-3.101155,-0.392152,-4.406966,-0.894338,-0.708315,0.728369,-0.735107,-0.071045,-0.669678,0.055615,-0.004399,0.028053,0.999977,-0.004472,-0.003542,0.003642,0.673615,0.026813,-0.728911,0.119219
16430,NaN,7.200700,-0.314492,4.125881,-4.652437,-0.261355,-2.938283,-0.269775,-0.757245,1.057104,-0.733154,-0.064697,-0.671875,0.071865,-0.002709,0.041535,0.999978,-0.001349,-0.003786,0.005285,0.670246,0.022502,-0.731747,0.121692
16431,NaN,9.281733,0.004909,6.378774,-7.093146,-0.078492,-1.065196,0.287522,-0.885697,1.393135,-0.746338,-0.051758,-0.657227,0.092531,0.000602,0.064199,0.999965,0.001438,-0.004428,0.006966,0.670616,0.020130,-0.730295,0.128604
16432,NaN,11.138072,0.862004,8.475076,-9.613987,0.650292,0.374117,0.460982,-1.132871,1.592714,-0.750732,-0.047607,-0.648682,0.110826,0.009308,0.085400,0.999950,0.002305,-0.005664,0.007963,0.665375,0.016587,-0.733920,0.135507
16433,NaN,13.890872,1.842053,10.713175,-12.164610,1.610743,2.857805,0.163740,-1.319012,1.440666,-0.759277,-0.039062,-0.638184,0.138061,0.019329,0.108060,0.999952,0.000819,-0.006595,0.007203,0.668576,0.014974,-0.729966,0.141180
16434,NaN,16.874853,2.184123,13.616985,-15.569861,1.917494,5.314995,-0.492669,-1.020242,1.033526,-0.772461,-0.028320,-0.629883,0.167934,0.023047,0.136972,0.999971,-0.002463,-0.005101,0.005168,0.664140,0.010275,-0.733781,0.142756
16435,NaN,18.021723,3.844111,15.767720,-17.565396,3.442339,6.551238,-1.360531,-0.416195,0.641047,-0.773193,-0.004883,-0.632080,0.179762,0.040091,0.157783,0.999970,-0.006803,-0.002081,0.003205,0.678145,0.007096,-0.722480,0.134509
16436,NaN,18.182869,4.552366,13.509667,-15.532278,4.909873,6.572847,-1.862042,-0.005663,0.216735,-0.771240,0.001709,-0.634277,0.181774,0.046976,0.134669,0.999956,-0.009310,-0.000028,0.001084,0.678015,0.000003,-0.723727,0.128512
16437,NaN,15.659621,5.930254,7.931660,-8.889786,6.866981,4.922202,-1.495369,0.316257,-0.304884,-0.771240,0.001709,-0.634277,0.156812,0.059653,0.078624,0.999970,-0.007477,0.001581,-0.001524,0.704950,0.001117,-0.701387,0.105356
16438,NaN,10.934246,4.456580,3.994103,-4.645309,5.350141,0.442454,-0.589438,0.408487,-0.714206,-0.767090,0.001709,-0.644775,0.109582,0.044292,0.039587,0.999987,-0.002947,0.002042,-0.003571,0.706753,0.001328,-0.700245,0.100773
16439,NaN,7.879409,0.348180,2.948118,-2.371133,0.743233,-1.767647,0.191516,0.119387,-0.762719,-0.766602,-0.006836,-0.636230,0.078824,0.003153,0.029437,0.999992,0.000958,0.000597,-0.003814,0.733345,0.010198,-0.676308,0.068619
16440,NaN,7.438170,-2.116780,2.250165,-1.416881,-1.719097,-2.072709,1.107897,-0.224484,-0.371282,-0.766357,-0.015381,-0.632080,0.074317,-0.021430,0.022467,0.999982,0.005539,-0.001122,-0.001856,0.732644,0.015592,-0.676720,0.070992
16441,NaN,9.737974,-3.212189,0.751642,0.911431,-2.715924,0.061738,2.216172,-0.574282,0.300750,-0.774658,-0.024170,-0.623535,0.097407,-0.032058,0.007441,0.999933,0.011081,-0.002871,0.001504,0.750172,0.027633,-0.657654,0.063007
16442,NaN,13.091230,-3.441588,-0.276317,2.366001,-2.539829,3.273584,3.024398,-0.969344,1.070296,-0.784912,-0.034912,-0.612793,0.131107,-0.033674,-0.002641,0.999860,0.015121,-0.004846,0.005351,0.746124,0.035758,-0.660393,0.076823
16443,NaN,17.422243,-2.632934,-0.892347,3.975254,-1.267867,7.329195,3.404221,-1.161787,1.561023,-0.795166,-0.041260,-0.606445,0.174470,-0.024823,-0.008341,0.999808,0.017020,-0.005809,0.007805,0.754812,0.047929,-0.647982,0.089892
16444,NaN,19.739731,-1.679904,-0.385327,3.444065,0.039634,9.700181,3.272965,-1.024058,1.727676,-0.795166,-0.043457,-0.593750,0.197549,-0.015038,-0.003098,0.999816,0.016364,-0.005120,0.008638,0.749795,0.055135,-0.650670,0.106753
16445,NaN,15.843633,-1.161708,1.313830,1.455705,0.074406,6.060800,2.432178,-0.581336,1.561754,-0.801514,-0.043457,-0.593750,0.158483,-0.010542,0.013466,0.999891,0.012160,-0.002907,0.007808,0.755023,0.062832,-0.641364,0.121016
16446,NaN,9.741756,-0.984070,3.353751,-1.513322,-0.754183,0.398011,1.175743,-0.264884,1.230979,-0.801514,-0.039307,-0.585205,0.097432,-0.009438,0.033610,0.999963,0.005879,-0.001324,0.006155,0.753031,0.063481,-0.642016,0.129345
16447,NaN,7.071303,-1.216483,3.643532,-1.981125,-1.290959,-2.120702,0.043775,-0.445481,0.916569,-0.812500,-0.030518,-0.585205,0.070686,-0.011849,0.036590,0.999987,0.000219,-0.002227,0.004583,0.756816,0.064260,-0.635984,0.136470
16448,NaN,6.901448,-1.722396,2.513100,-0.853884,-1.441905,-2.457179,-0.555383,-0.702671,0.692234,-0.812988,-0.015625,-0.581055,0.068984,-0.016915,0.025421,0.999984,-0.002777,-0.003513,0.003461,0.754276,0.060435,-0.639234,0.137095
16449,NaN,5.696570,-1.016089,0.805950,0.462909,-0.401275,-4.002585,-0.937070,-0.748902,0.391377,-0.812988,-0.009277,-0.572754,0.056955,-0.010011,0.008320,0.999980,-0.004685,-0.003744,0.001957,0.758517,0.059834,-0.633277,0.141534
16450,NaN,5.038222,-1.309375,-0.457512,1.584899,-0.429128,-4.851718,-1.041439,-0.680733,0.135340,-0.819336,-0.009277,-0.566406,0.050406,-0.013083,-0.004335,0.999980,-0.005207,-0.003404,0.000677,0.756562,0.055937,-0.636624,0.138543
16451,NaN,4.767633,-0.353927,-0.831821,1.624348,0.540555,-5.272125,-0.812409,-0.662536,0.130749,-0.825928,-0.000732,-0.564209,0.047706,-0.003541,-0.008146,0.999986,-0.004062,-0.003313,0.000654,0.756834,0.053467,-0.636887,0.136817
16452,NaN,4.956296,0.674484,-1.101082,1.588002,1.613937,-5.218619,-0.401199,-0.958437,0.247821,-0.834717,0.003662,-0.555908,0.049607,0.006785,-0.010787,0.999986,-0.002006,-0.004792,0.001239,0.753709,0.051814,-0.640845,0.136219
16453,NaN,5.545917,0.028759,-1.260779,1.998305,1.110598,-4.604982,0.647584,-1.519946,0.536752,-0.838867,0.005615,-0.534668,0.055552,0.000477,-0.012185,0.999962,0.003238,-0.007600,0.002684,0.752256,0.054127,-0.641986,0.137965
16454,NaN,5.500645,0.963280,-0.750647,1.131520,1.887173,-4.625697,1.704131,-2.154215,0.909668,-0.849609,0.009766,-0.519775,0.055038,0.009943,-0.006830,0.999895,0.008520,-0.010771,0.004548,0.744174,0.059096,-0.649092,0.146259
16455,NaN,8.742945,1.824789,-1.971309,2.183732,3.535667,-1.665470,2.070502,-2.707012,1.247132,-0.862061,0.007568,-0.494385,0.087567,0.018988,-0.018334,0.999835,0.010352,-0.013534,0.006235,0.733706,0.065424,-0.657983,0.156374
16456,NaN,11.094175,1.501559,-4.449026,4.478713,4.435605,0.452760,2.325456,-2.662000,1.590357,-0.876953,0.007568,-0.475342,0.111392,0.016405,-0.042824,0.999812,0.011627,-0.013309,0.007951,0.722807,0.070791,-0.666327,0.168958
16457,NaN,11.987340,0.897028,-5.482955,5.321386,4.440869,1.434907,2.212495,-2.249996,1.726236,-0.887695,0.016113,-0.452148,0.120392,0.010604,-0.053366,0.999838,0.011062,-0.011249,0.008631,0.712680,0.075648,-0.674340,0.177848
16458,NaN,11.298518,0.262922,-4.978122,4.711736,3.779348,0.958208,1.630472,-1.959697,1.709971,-0.900635,0.024658,-0.441650,0.113435,0.003997,-0.048642,0.999882,0.008152,-0.009798,0.008550,0.703852,0.077426,-0.680440,0.188677
16459,NaN,10.554851,1.160204,-3.224762,2.451190,3.879657,0.290962,1.050539,-1.689408,1.509743,-0.902832,0.033203,-0.426758,0.105723,0.012566,-0.031291,0.999922,0.005253,-0.008447,0.007549,0.695071,0.079541,-0.688168,0.192288
16460,NaN,9.683692,1.456728,-0.424918,-0.435917,3.041949,-0.505117,0.497680,-1.190177,1.053187,-0.905029,0.035400,-0.416260,0.096781,0.015087,-0.003636,0.999965,0.002488,-0.005951,0.005266,0.689741,0.078788,-0.692221,0.197180
16461,NaN,9.463928,1.459269,1.585869,-2.445250,2.190711,-0.678638,0.233477,-0.894401,0.733168,-0.905273,0.043945,-0.414307,0.094513,0.014920,0.016299,0.999983,0.001167,-0.004472,0.003666,0.684333,0.079551,-0.698041,0.195188
16462,NaN,9.452747,2.555424,2.694829,-3.958867,2.789903,-0.885748,-0.245114,-0.382425,0.421656,-0.905518,0.050293,-0.412109,0.094422,0.025787,0.027097,0.999995,-0.001226,-0.001912,0.002108,0.682681,0.077613,-0.699754,0.195622
16463,NaN,9.116208,0.799600,2.226116,-2.905162,1.271238,-0.944540,-0.087592,-0.339168,0.258174,-0.909668,0.050293,-0.401611,0.091114,0.008123,0.022412,0.999998,-0.000438,-0.001696,0.001291,0.680290,0.078961,-0.702446,0.193754
16464,NaN,8.098612,0.185077,3.062085,-3.442455,0.236997,-1.869711,0.948941,-0.917069,0.653022,-0.911865,0.058838,-0.393066,0.080838,0.001968,0.031001,0.999973,0.004745,-0.004585,0.003265,0.676044,0.080780,-0.704884,0.198941
16465,NaN,8.083820,0.366084,3.704297,-4.168827,0.098643,-1.950474,1.312476,-0.971622,0.800965,-0.918213,0.056641,-0.388916,0.080642,0.003739,0.037459,0.999959,0.006562,-0.004858,0.004005,0.672228,0.083433,-0.707882,0.200128
16466,NaN,8.834545,0.663403,3.809266,-4.531606,0.421902,-1.310612,1.138453,-1.008664,0.908044,-0.920654,0.067383,-0.382568,0.088121,0.006816,0.038576,0.999961,0.005692,-0.005043,0.004540,0.667249,0.085051,-0.710484,0.206781
16467,NaN,8.240868,1.404967,3.522888,-4.580008,1.050579,-2.052833,0.700118,-1.024921,0.759444,-0.925049,0.069336,-0.367920,0.082173,0.014238,0.035700,0.999974,0.003501,-0.005125,0.003797,0.663425,0.088134,-0.713204,0.208422
16468,NaN,8.891085,0.795489,2.980205,-4.008281,0.813790,-1.337065,0.198140,-1.109540,0.488926,-0.929199,0.073730,-0.357178,0.088724,0.008142,0.030303,0.999981,0.000991,-0.005548,0.002445,0.658859,0.088201,-0.716880,0.210257
16469,NaN,9.037360,0.146906,2.127280,-3.035049,0.553751,-1.054734,0.036802,-1.001637,0.487858,-0.933594,0.073730,-0.350830,0.090262,0.001685,0.021725,0.999984,0.000184,-0.005008,0.002439,0.657080,0.088657,-0.719501,0.206652
16470,NaN,8.559124,-0.349481,0.942614,-1.795081,0.529266,-1.400426,0.075266,-0.941519,0.482250,-0.935791,0.080078,-0.344482,0.085554,-0.003292,0.009828,0.999986,0.000376,-0.004708,0.002411,0.653152,0.088140,-0.722719,0.208087
16471,NaN,7.947097,-0.618375,-0.051883,-0.735204,0.569451,-1.895861,0.019391,-0.869540,0.429551,-0.937988,0.082275,-0.336182,0.079485,-0.006013,-0.000174,0.999988,0.000097,-0.004348,0.002148,0.651554,0.090712,-0.724041,0.207398
16472,NaN,7.754298,-0.494502,-1.035872,0.065719,1.069367,-2.047472,-0.074948,-0.629518,0.362101,-0.942383,0.090820,-0.329834,0.077584,-0.004808,-0.010113,0.999993,-0.000375,-0.003148,0.001811,0.648930,0.089807,-0.726328,0.208020
16473,NaN,8.033618,-0.114372,-2.026487,0.757156,1.834812,-1.767890,-0.109440,-0.410480,0.367233,-0.942383,0.092773,-0.327637,0.080379,-0.001007,-0.020099,0.999996,-0.000547,-0.002052,0.001836,0.648390,0.092560,-0.726449,0.208073
16474,NaN,8.534395,0.676066,-2.790930,1.009380,2.948098,-1.364501,0.020274,-0.480091,0.420179,-0.944824,0.099365,-0.321533,0.085396,0.006943,-0.027704,0.999995,0.000101,-0.002400,0.002101,0.646198,0.091597,-0.728174,0.209286
16475,NaN,9.265235,1.466267,-2.808761,0.536188,3.732273,-0.775782,0.349147,-0.710541,0.438475,-0.942627,0.103516,-0.315186,0.092719,0.014915,-0.027732,0.999990,0.001746,-0.003553,0.002192,0.643395,0.097022,-0.729210,0.211856
16476,NaN,9.228243,1.473845,-1.787297,-0.484834,3.301059,-0.902374,0.905030,-1.082566,0.454271,-0.948975,0.103516,-0.302490,0.092343,0.015027,-0.017306,0.999973,0.004525,-0.005413,0.002271,0.638511,0.099419,-0.731933,0.216087
16477,NaN,9.028766,1.225805,0.516468,-2.518190,1.960539,-1.262800,1.609878,-1.611363,0.450587,-0.953125,0.103516,-0.289795,0.090214,0.012415,0.005991,0.999933,0.008049,-0.008057,0.002253,0.632103,0.106934,-0.735175,0.220291
16478,NaN,9.709913,1.309127,3.294910,-5.293326,0.749196,-0.965807,1.950599,-2.067985,0.411840,-0.955322,0.103516,-0.268555,0.096724,0.012962,0.034077,0.999897,0.009753,-0.010340,0.002059,0.622941,0.113849,-0.739706,0.227635
16479,NaN,11.331629,0.628814,4.474679,-6.460014,-0.387298,0.528334,1.614923,-2.001944,0.306540,-0.963623,0.101318,-0.249512,0.112851,0.006094,0.045928,0.999916,0.008074,-0.010009,0.001533,0.616246,0.120027,-0.743851,0.229172
16480,NaN,12.571742,-0.019487,3.497674,-5.735521,-0.457495,1.899479,0.947772,-1.313869,0.377481,-0.961670,0.107666,-0.243164,0.125484,-0.000126,0.035801,0.999965,0.004739,-0.006569,0.001887,0.610338,0.123041,-0.747013,0.233065
16481,NaN,12.244902,1.037285,2.310414,-5.186177,0.954633,1.524992,0.498804,-0.681203,0.467638,-0.963867,0.114014,-0.243164,0.122345,0.010601,0.023547,0.999988,0.002494,-0.003406,0.002338,0.609551,0.123311,-0.747890,0.232169
16482,NaN,12.147600,2.065468,1.957367,-5.423685,2.009910,1.241950,0.408209,-0.405606,0.477702,-0.963867,0.116211,-0.232666,0.121386,0.020904,0.019862,0.999993,0.002041,-0.002028,0.002389,0.607225,0.123235,-0.748941,0.234901
16483,NaN,12.656466,2.507523,1.917387,-5.722037,2.429940,1.654810,0.463142,-0.241669,0.462037,-0.966064,0.118408,-0.236816,0.126483,0.025323,0.019385,0.999994,0.002316,-0.001208,0.002310,0.607025,0.125734,-0.747890,0.237430
16484,NaN,13.545390,2.694163,1.875165,-6.026077,2.724558,2.455781,0.507372,-0.033749,0.411837,-0.968506,0.124756,-0.237061,0.135395,0.027173,0.018843,0.999995,0.002537,-0.000169,0.002059,0.606089,0.125768,-0.747644,0.240557
16485,NaN,14.131050,3.202115,2.171639,-6.599605,3.008524,2.917198,0.480762,0.166612,0.351745,-0.964355,0.124756,-0.239014,0.141272,0.032217,0.021676,0.999995,0.002404,0.000833,0.001759,0.607890,0.130276,-0.744390,0.243683
16486,NaN,13.814756,4.133785,2.371820,-7.150713,3.698329,2.383654,0.406507,0.351261,0.246527,-0.964355,0.128906,-0.237061,0.138138,0.041460,0.023560,0.999996,0.002033,0.001756,0.001233,0.608632,0.130160,-0.742983,0.246175
16487,NaN,13.595439,4.691979,1.713985,-6.675332,4.488354,2.232341,0.334370,0.547225,0.042857,-0.958008,0.129150,-0.247559,0.135991,0.046921,0.016846,0.999995,0.001672,0.002736,0.000214,0.613732,0.132217,-0.738624,0.245535
16488,NaN,14.272164,4.852490,0.676030,-5.955371,5.272854,3.010263,0.319413,0.788151,-0.150065,-0.958008,0.126953,-0.258057,0.142783,0.048408,0.006275,0.999991,0.001597,0.003941,-0.000750,0.616611,0.132776,-0.735706,0.246775
16489,NaN,15.129323,4.783504,1.377502,-6.445568,4.927626,3.893039,0.176138,1.020764,-0.304040,-0.959961,0.122803,-0.266602,0.151434,0.047593,0.013044,0.999985,0.000881,0.005104,-0.001520,0.623720,0.135343,-0.729728,0.245260
16490,NaN,14.897194,4.409287,2.626440,-7.098389,3.969985,3.682289,-0.029181,1.319216,-0.549056,-0.953857,0.122803,-0.283447,0.149261,0.043687,0.025274,0.999974,-0.000146,0.006596,-0.002745,0.629213,0.135626,-0.725258,0.244331
16491,NaN,13.217594,3.132844,3.618006,-6.663798,2.158749,2.374901,0.145986,1.752941,-0.729152,-0.949219,0.109863,-0.298340,0.132599,0.030820,0.035042,0.999955,0.000730,0.008765,-0.003646,0.639710,0.140016,-0.716064,0.241701
16492,NaN,11.856759,1.351923,3.874597,-5.529952,0.420154,1.441573,0.452705,2.262630,-0.830307,-0.944824,0.103516,-0.321533,0.119051,0.012940,0.037431,0.999925,0.002263,0.011313,-0.004151,0.648452,0.141684,-0.707643,0.242235
16493,NaN,10.814183,1.083354,3.226796,-4.316678,0.438557,0.660978,0.782557,2.737811,-0.802856,-0.942627,0.097168,-0.340576,0.108612,0.010276,0.030824,0.999891,0.003913,0.013689,-0.004014,0.662391,0.145894,-0.694083,0.241251
16494,NaN,9.195969,0.771420,3.538896,-4.002387,-0.112788,-0.776942,1.118278,3.028353,-0.798421,-0.927490,0.084473,-0.378418,0.092511,0.007153,0.034032,0.999862,0.005591,0.015141,-0.003992,0.672959,0.148686,-0.682024,0.244668
16495,NaN,8.128776,0.436976,4.839896,-4.502534,-1.188461,-1.566544,1.102400,3.117954,-0.864971,-0.914551,0.075928,-0.403809,0.082046,0.003754,0.047146,0.999854,0.005512,0.015589,-0.004325,0.687694,0.153436,-0.666242,0.244246
16496,NaN,10.571871,-0.462457,3.822539,-2.877480,-1.010034,1.016899,0.523070,2.878303,-1.017457,-0.907959,0.063232,-0.427002,0.106228,-0.005261,0.036686,0.999880,0.002615,0.014391,-0.005087,0.698043,0.155081,-0.654844,0.244674
16497,NaN,14.323250,-0.105224,1.809182,-0.748480,0.930913,4.574638,-0.371899,3.014606,-1.131845,-0.897461,0.061035,-0.456543,0.143475,-0.001833,0.015933,0.999869,-0.001859,0.015072,-0.005659,0.713357,0.154733,-0.640735,0.237987
16498,NaN,15.937459,0.296467,-2.989328,3.681470,4.104802,5.438382,-1.156868,3.311491,-1.247768,-0.878174,0.054688,-0.479980,0.158864,0.001789,-0.032539,0.999827,-0.005784,0.016556,-0.006238,0.726224,0.150628,-0.629222,0.232357
16499,NaN,15.041315,-2.029117,-5.127709,7.279435,3.010559,4.136382,-1.029631,2.776268,-1.449365,-0.861084,0.046143,-0.503174,0.149529,-0.021648,-0.053248,0.999864,-0.005148,0.013881,-0.007246,0.740474,0.149309,-0.616458,0.222227
16500,NaN,13.636485,-4.310989,-1.882896,5.910493,-0.785217,3.322014,-0.000273,2.439539,-1.313041,-0.858887,0.039795,-0.520020,0.135835,-0.044003,-0.020488,0.999904,-0.000001,0.012197,-0.006565,0.749384,0.150620,-0.606384,0.219171
16501,NaN,11.401130,-2.967923,0.654425,3.120246,-1.243796,1.497938,0.705919,2.567793,-1.007347,-0.843750,0.027100,-0.541260,0.113930,-0.030273,0.004975,0.999899,0.003529,0.012839,-0.005037,0.759964,0.154260,-0.593374,0.215793
16502,NaN,10.069697,0.436797,3.122534,-0.645496,0.329353,0.713822,0.116598,2.618985,-0.986544,-0.833008,0.018555,-0.564453,0.101114,0.003852,0.029905,0.999902,0.000583,0.013094,-0.004933,0.768636,0.154779,-0.582474,0.214395
16503,NaN,9.936447,3.853183,1.565035,-0.766230,3.987999,0.163864,-0.837996,1.739201,-1.778141,-0.824463,0.014404,-0.577148,0.099832,0.037708,0.014624,0.999914,-0.004190,0.008696,-0.008890,0.778094,0.155649,-0.573599,0.203290
16504,NaN,12.173435,0.586697,1.695890,1.603057,1.308077,2.316751,-0.279271,1.418383,-2.241561,-0.813232,-0.004883,-0.589600,0.121906,0.004524,0.016088,0.999911,-0.001396,0.007092,-0.011207,0.784591,0.159526,-0.566566,0.194861
16505,NaN,14.779171,-1.286650,3.781637,1.881421,-1.191373,5.333695,-0.903424,1.274110,-1.963510,-0.806885,-0.009277,-0.593994,0.147894,-0.014150,0.036936,0.999921,-0.004517,0.006370,-0.009817,0.792308,0.161179,-0.559402,0.182588
16506,NaN,12.148328,-1.279927,-1.084472,5.332667,0.629560,1.212610,-0.679121,1.162772,-1.684584,-0.800293,-0.017822,-0.606445,0.121304,-0.013860,-0.011504,0.999942,-0.003396,0.005814,-0.008423,0.797603,0.162120,-0.554021,0.174949
16507,NaN,10.262737,0.338582,0.703811,2.732547,0.912637,0.068115,-0.126523,1.218947,-1.683262,-0.793457,-0.032715,-0.612793,0.102691,0.002526,0.006411,0.999946,-0.000633,0.006095,-0.008416,0.803575,0.166057,-0.546824,0.166358
16508,NaN,8.744389,0.628044,1.019157,1.997400,0.813444,-1.254473,-0.272956,1.378916,-1.728600,-0.780273,-0.045410,-0.629639,0.087561,0.005537,0.009580,0.999938,-0.001365,0.006894,-0.008643,0.808963,0.168521,-0.540038,0.159808
16509,NaN,8.145286,1.698762,2.055759,0.655646,1.159629,-1.346262,-0.529125,1.179953,-1.772225,-0.778076,-0.052002,-0.635986,0.081719,0.016318,0.020032,0.999940,-0.002646,0.005900,-0.008861,0.814695,0.171106,-0.533374,0.150022
16510,NaN,8.161168,1.737656,1.476085,1.280952,1.378196,-1.550721,-0.999515,1.041213,-1.837452,-0.765137,-0.058350,-0.644531,0.081842,0.016697,0.014251,0.999932,-0.004997,0.005206,-0.009187,0.819653,0.171133,-0.528269,0.140760
16511,NaN,7.674182,1.089161,1.080885,1.842080,0.830607,-2.252106,-1.239918,0.877631,-1.910230,-0.758789,-0.062500,-0.652832,0.076888,0.010223,0.010407,0.999926,-0.006199,0.004388,-0.009551,0.824854,0.171390,-0.523208,0.128434
16512,NaN,7.400538,0.788019,0.874167,2.139212,0.545144,-2.651839,-1.519304,0.770822,-1.996889,-0.748047,-0.062500,-0.657227,0.074112,0.007205,0.008400,0.999914,-0.007596,0.003854,-0.009984,0.829387,0.169830,-0.519244,0.116881
16513,NaN,7.375658,0.751331,0.493598,2.583981,0.539797,-2.867324,-1.856658,0.689697,-2.041619,-0.743896,-0.064697,-0.671875,0.073845,0.006804,0.004616,0.999899,-0.009283,0.003448,-0.010208,0.834194,0.167944,-0.515180,0.102491
16514,NaN,7.587113,0.840834,0.203952,2.998372,0.623950,-2.817612,-2.175542,0.596795,-2.039783,-0.741699,-0.062500,-0.671875,0.075957,0.007654,0.001727,0.999884,-0.010877,0.002984,-0.010199,0.838511,0.163791,-0.512028,0.088876
16515,NaN,7.411351,0.506803,0.183237,3.151809,0.184658,-3.085983,-2.572533,0.567970,-2.013325,-0.733643,-0.056152,-0.684814,0.074164,0.004343,0.001563,0.999863,-0.012862,0.002840,-0.010066,0.842981,0.158848,-0.508753,0.072938
16516,NaN,6.889276,-0.014282,-0.129670,3.393792,-0.294731,-3.823297,-2.826388,0.466081,-1.939667,-0.725342,-0.051758,-0.691162,0.068884,-0.000831,-0.001449,0.999850,-0.014131,0.002330,-0.009698,0.846997,0.151667,-0.506197,0.057940
16517,NaN,6.494097,-0.377564,-0.234268,3.434769,-0.719358,-4.330512,-2.942124,0.340361,-1.851505,-0.721191,-0.043213,-0.691162,0.064898,-0.004412,-0.002391,0.999848,-0.014710,0.001702,-0.009257,0.850459,0.144745,-0.503999,0.041873
16518,NaN,6.136812,-0.695081,-0.588882,3.653328,-1.011158,-4.901490,-2.950829,0.246103,-1.725037,-0.719238,-0.036621,-0.699707,0.061297,-0.007566,-0.005856,0.999853,-0.014753,0.001230,-0.008625,0.853456,0.136464,-0.502241,0.027282
16519,NaN,5.712877,-1.056439,-0.825653,3.714048,-1.384897,-5.485851,-2.847219,0.176079,-1.565594,-0.715332,-0.026123,-0.701904,0.057036,-0.011128,-0.008151,0.999868,-0.014235,0.000880,-0.007828,0.855774,0.129156,-0.500804,0.012881
16520,NaN,5.456498,-1.363855,-0.826972,3.619213,-1.759739,-5.797583,-2.677910,0.111849,-1.390067,-0.715820,-0.017334,-0.708252,0.054463,-0.014127,-0.008113,0.999886,-0.013389,0.000559,-0.006950,0.857780,0.121149,-0.499537,0.000306
16521,NaN,5.070152,-1.684317,-0.648839,3.281067,-2.157779,-6.132704,-2.499171,0.062448,-1.213268,-0.715820,-0.010986,-0.708496,0.050596,-0.017230,-0.006291,0.999903,-0.012495,0.000312,-0.006066,0.859101,0.114353,-0.498736,-0.011457
16522,NaN,4.585977,-1.844176,-0.330569,2.740704,-2.376690,-6.439127,-2.320046,-0.003397,-1.018861,-0.714111,-0.000244,-0.710693,0.045765,-0.018712,-0.003089,0.999920,-0.011600,-0.000017,-0.005094,0.860297,0.106912,-0.497988,-0.021613
16523,NaN,4.250331,-2.091992,0.125699,1.791752,-2.944641,-6.560618,-2.120535,-0.091557,-0.808785,-0.716553,0.008301,-0.708496,0.042418,-0.021077,0.001499,0.999936,-0.010602,-0.000458,-0.004044,0.857091,0.068900,-0.503435,-0.084854
16524,NaN,3.947623,-2.226606,0.686855,1.093168,-3.048044,-6.568087,-1.848481,-0.257587,-0.584494,-0.716797,0.019043,-0.710693,0.039402,-0.022316,0.007125,0.999952,-0.009242,-0.001288,-0.002922,0.856796,0.062331,-0.503522,-0.092090
16525,NaN,3.978558,-2.191863,1.228170,0.257604,-3.076177,-6.261334,-1.498781,-0.505881,-0.332640,-0.721191,0.025391,-0.702393,0.039718,-0.021891,0.012546,0.999967,-0.007494,-0.002529,-0.001663,0.849108,0.030152,-0.507686,-0.142693
16526,NaN,4.322965,-2.024721,1.782623,-0.088073,-2.938988,-5.651009,-1.105129,-0.759002,-0.081879,-0.727783,0.036133,-0.696045,0.043153,-0.020165,0.018102,0.999977,-0.005526,-0.003795,-0.000409,0.847276,0.025120,-0.510089,-0.145951
16527,NaN,4.778353,-1.976104,2.259889,-0.612396,-2.894478,-5.007342,-0.671032,-0.954323,0.191460,-0.734131,0.036133,-0.689697,0.047694,-0.019639,0.022893,0.999983,-0.003355,-0.004772,0.000957,0.837355,-0.001599,-0.514596,-0.184457
16528,NaN,5.596422,-1.618812,2.787064,-0.677612,-2.666467,-3.969867,-0.185344,-1.072975,0.512790,-0.740723,0.040283,-0.687500,0.055855,-0.016019,0.028185,0.999982,-0.000927,-0.005365,0.002564,0.835057,-0.004690,-0.518896,-0.182770
16529,NaN,6.640394,-1.493373,3.619690,-1.194705,-2.559244,-2.639865,0.244065,-1.161629,0.870664,-0.747070,0.040283,-0.678955,0.066257,-0.014690,0.036564,0.999973,0.001220,-0.005808,0.004353,0.825708,-0.025551,-0.523810,-0.207792
16530,NaN,9.184295,-0.752280,4.810313,-1.079384,-2.277116,0.272150,0.431130,-1.293513,1.216434,-0.762207,0.055420,-0.668457,0.091573,-0.007070,0.048680,0.999958,0.002156,-0.006467,0.006082,0.823611,-0.028305,-0.529412,-0.201462
16531,NaN,12.294574,0.837782,6.799361,-1.278567,-0.983675,4.168792,0.336352,-1.385728,1.499002,-0.768799,0.059570,-0.655762,0.122404,0.009181,0.068858,0.999946,0.001682,-0.006929,0.007495,0.815311,-0.047843,-0.534431,-0.217629
16532,NaN,13.945323,3.340495,9.805810,-2.407159,1.970863,7.278130,0.086638,-1.473687,1.496753,-0.773438,0.074463,-0.647461,0.138471,0.034401,0.099096,0.999945,0.000433,-0.007368,0.007484,0.812984,-0.053095,-0.540137,-0.210926
16533,NaN,16.129444,3.879126,13.620579,-4.724833,3.610561,10.811408,-0.587828,-1.304901,1.186032,-0.782227,0.085205,-0.632812,0.160166,0.040145,0.137137,0.999957,-0.002939,-0.006524,0.005930,0.805165,-0.073312,-0.543100,-0.226666
16534,NaN,18.230185,4.486114,16.641512,-6.363042,5.049722,13.923376,-1.560549,-0.726986,0.802014,-0.784912,0.104492,-0.635010,0.181511,0.046890,0.166715,0.999955,-0.007803,-0.003635,0.004010,0.803498,-0.082598,-0.543931,-0.227393
16535,NaN,18.972526,5.767775,15.352446,-4.045498,6.028132,14.191509,-2.365487,-0.070821,0.273211,-0.785400,0.119629,-0.639404,0.189590,0.059748,0.152893,0.999929,-0.011827,-0.000354,0.001366,0.797885,-0.103714,-0.539280,-0.248598
16536,NaN,16.709230,7.382314,9.476919,1.139867,5.659760,9.940068,-2.126243,0.324880,-0.443076,-0.785400,0.125977,-0.637207,0.167410,0.074452,0.093708,0.999940,-0.010631,0.001624,-0.002215,0.797066,-0.110596,-0.535529,-0.256247
16537,NaN,11.154993,6.833888,5.104369,3.029514,4.671528,3.078648,-1.341549,0.511211,-1.044058,-0.785645,0.125977,-0.645752,0.112035,0.068094,0.050300,0.999961,-0.006708,0.002556,-0.005220,0.792535,-0.120084,-0.530343,-0.276050
16538,NaN,6.475604,3.421395,3.914880,0.758664,2.641056,-1.975965,-0.693673,0.375423,-1.262340,-0.781250,0.121582,-0.643555,0.065044,0.033939,0.038909,0.999972,-0.003468,0.001877,-0.006312,0.791357,-0.118968,-0.528633,-0.283105
16539,NaN,3.900568,1.153998,3.105627,-0.614312,1.182716,-4.871566,0.071301,0.035816,-1.090702,-0.780762,0.111084,-0.643555,0.039073,0.011316,0.031053,0.999985,0.000357,0.000179,-0.005453,0.786688,-0.121491,-0.527637,-0.296581
16540,NaN,4.754288,-0.723054,0.729201,0.274157,-1.827464,-5.313477,1.327980,-0.327816,-0.544260,-0.782471,0.095947,-0.639160,0.047511,-0.007408,0.007321,0.999973,0.006640,-0.001639,-0.002721,0.785809,-0.115319,-0.531204,-0.295007
16541,NaN,6.666289,-3.009900,-1.500153,1.064035,-5.431173,-4.800800,2.898037,-0.826659,0.406955,-0.788330,0.081055,-0.632812,0.066786,-0.029744,-0.015158,0.999884,0.014490,-0.004133,0.002035,0.783154,-0.111007,-0.537195,-0.292862
16542,NaN,11.656685,-2.960547,-1.877163,2.726791,-7.155968,-0.351272,3.769165,-1.474709,1.394535,-0.796631,0.072266,-0.626221,0.116905,-0.028441,-0.018454,0.999771,0.018844,-0.007373,0.006972,0.783155,-0.102133,-0.547582,-0.276389
16543,NaN,20.081352,-1.581213,-0.389656,4.281564,-7.783249,8.269939,3.470643,-1.748329,1.914282,-0.807129,0.072266,-0.613525,0.200978,-0.013839,-0.002392,0.999765,0.017352,-0.008741,0.009571,0.780410,-0.100758,-0.557286,-0.265031
16544,NaN,21.894594,-0.425442,-0.579457,5.485411,-6.964957,10.218935,2.915392,-1.231318,2.057670,-0.807129,0.068115,-0.609375,0.219004,-0.001930,-0.004486,0.999822,0.014576,-0.006156,0.010288,0.781042,-0.096735,-0.564809,-0.248208
16545,NaN,16.919576,-0.835176,1.846240,2.040284,-4.516707,6.490925,1.770171,-0.595954,1.829416,-0.815674,0.076660,-0.604980,0.169208,-0.006970,0.018901,0.999915,0.008851,-0.002980,0.009147,0.780460,-0.100068,-0.567959,-0.241437
16546,NaN,9.996745,-3.109284,3.368487,-1.949682,-3.798086,0.322432,0.033166,-0.496100,1.413939,-0.813965,0.089355,-0.596680,0.100100,-0.030391,0.033928,0.999972,0.000166,-0.002480,0.007070,0.780759,-0.104555,-0.569203,-0.235566
16547,NaN,7.719832,-4.251312,3.519637,-3.233842,-3.970982,-1.823380,-1.189811,-0.589752,0.909130,-0.818604,0.100098,-0.596680,0.077285,-0.041951,0.035675,0.999968,-0.005949,-0.002949,0.004546,0.777678,-0.116642,-0.569136,-0.240198
16548,NaN,6.667909,-2.302508,2.436553,-1.622790,-2.416457,-2.940610,-1.994831,-0.611602,0.494808,-0.821289,0.121582,-0.590576,0.066660,-0.022614,0.024796,0.999943,-0.009974,-0.003058,0.002474,0.775331,-0.126540,-0.568789,-0.243576
16549,NaN,5.915225,-2.579197,1.613082,-1.338231,-2.750704,-3.906242,-2.272319,-0.559032,0.071168,-0.823730,0.132324,-0.586426,0.059115,-0.025584,0.016588,0.999931,-0.011361,-0.002795,0.000356,0.770995,-0.139318,-0.567676,-0.252786
16550,NaN,5.411676,-1.480678,2.077670,-1.264382,-1.413808,-4.138407,-1.980027,-0.476941,-0.059733,-0.828125,0.140869,-0.582275,0.054062,-0.014615,0.021051,0.999948,-0.009900,-0.002385,-0.000299,0.768153,-0.147382,-0.567016,-0.258287
16551,NaN,5.004721,0.327261,0.842967,0.620250,-0.427490,-4.783037,-1.196198,-0.684808,-0.026460,-0.836914,0.151367,-0.567627,0.050018,0.003317,0.008581,0.999976,-0.005981,-0.003424,-0.000132,0.764472,-0.154713,-0.567892,-0.262954
16552,NaN,4.844563,0.694668,-0.218647,1.601256,-0.626587,-5.225403,0.243000,-1.290652,0.215486,-0.841064,0.147217,-0.563232,0.048451,0.007001,-0.001865,0.999978,0.001215,-0.006453,0.001077,0.761268,-0.156095,-0.572957,-0.260432
16553,NaN,4.769966,1.234949,-1.414080,2.783717,-0.740565,-5.572640,1.945707,-2.233469,0.725591,-0.851562,0.142822,-0.546143,0.047807,0.012656,-0.013485,0.999884,0.009728,-0.011167,0.003628,0.756464,-0.155552,-0.583177,-0.251933
16554,NaN,6.601556,1.976669,-2.300835,4.178930,-0.784504,-3.922386,2.946235,-2.873034,1.188729,-0.859619,0.138428,-0.525146,0.066214,0.020487,-0.021760,0.999771,0.014730,-0.014364,0.005943,0.751709,-0.151464,-0.596687,-0.236551
16555,NaN,8.865032,3.372313,-3.301828,6.003445,-0.208955,-1.765174,2.994430,-2.988968,1.515733,-0.874268,0.134033,-0.505859,0.088864,0.034872,-0.031175,0.999748,0.014971,-0.014944,0.007578,0.746233,-0.149153,-0.610330,-0.219968
16556,NaN,10.688110,2.117278,-3.799978,5.921145,-1.417285,-0.010932,2.443967,-2.525214,1.725241,-0.882812,0.138428,-0.489014,0.107157,0.022548,-0.036378,0.999808,0.012219,-0.012625,0.008626,0.742111,-0.148054,-0.621028,-0.204145
16557,NaN,11.089733,1.495263,-4.306468,6.003745,-1.863653,0.396815,1.559113,-2.005015,1.863083,-0.891846,0.151123,-0.474365,0.111173,0.016317,-0.041827,0.999876,0.007795,-0.010025,0.009315,0.738536,-0.150163,-0.629123,-0.190315
16558,NaN,10.651946,0.827923,-4.608059,5.831242,-2.246187,0.002011,0.663396,-1.619282,1.670409,-0.894287,0.164062,-0.470215,0.106813,0.009321,-0.045187,0.999927,0.003317,-0.008096,0.008352,0.735483,-0.154504,-0.634425,-0.180827
16559,NaN,10.451862,1.516071,-3.081425,4.731555,-0.718552,0.093364,-0.226962,-0.812854,0.953615,-0.890137,0.168213,-0.457520,0.104569,0.015625,-0.030407,0.999980,-0.001135,-0.004064,0.004768,0.733110,-0.159149,-0.637145,-0.176825
16560,NaN,9.446788,1.177150,-1.144026,2.721554,0.012259,-0.618723,-0.736358,-0.599426,0.458611,-0.896484,0.170410,-0.451172,0.094474,0.011947,-0.011201,0.999986,-0.003682,-0.002997,0.002293,0.731016,-0.163844,-0.638310,-0.177007
16561,NaN,8.684611,0.286593,0.387388,0.811521,0.055827,-1.152889,-0.498699,-1.107724,0.422223,-0.905273,0.183105,-0.438477,0.086817,0.003060,0.004347,0.999979,-0.002493,-0.005539,0.002111,0.727239,-0.166732,-0.642645,-0.174160
16562,NaN,8.571032,0.958751,2.696078,-0.981468,1.814829,-1.015384,-0.306540,-1.259798,0.415523,-0.903320,0.185303,-0.436523,0.085518,0.009807,0.027485,0.999977,-0.001533,-0.006299,0.002078,0.723287,-0.170281,-0.646590,-0.172577
16563,NaN,7.214163,0.888409,2.574412,-1.131577,1.814959,-2.404188,-0.513887,-1.088716,0.244847,-0.914062,0.191650,-0.421631,0.071989,0.009039,0.026113,0.999981,-0.002569,-0.005444,0.001224,0.719277,-0.172887,-0.650809,-0.170873
16564,NaN,7.585991,-0.064972,3.255652,-2.213834,1.354017,-1.975906,-0.035471,-1.421501,0.262880,-0.916016,0.196045,-0.404785,0.075627,-0.000544,0.033095,0.999974,-0.000177,-0.007107,0.001314,0.714833,-0.175087,-0.655640,-0.168806
16565,NaN,7.880754,0.477451,3.711535,-2.438315,2.112134,-1.707005,0.220456,-1.323571,0.312564,-0.911621,0.191650,-0.398438,0.078552,0.004856,0.037641,0.999976,0.001102,-0.006618,0.001563,0.710645,-0.175835,-0.660994,-0.164780
16566,NaN,8.312538,1.046248,3.448489,-1.999441,2.551043,-1.352288,0.183373,-1.221136,0.175924,-0.922363,0.193848,-0.385742,0.082903,0.010504,0.035001,0.999981,0.000917,-0.006106,0.000880,0.706908,-0.176774,-0.665309,-0.162469
16567,NaN,8.864193,0.994755,3.368547,-2.028714,2.520988,-0.843934,-0.067338,-1.141682,0.037632,-0.924561,0.193848,-0.381348,0.088446,0.009976,0.034187,0.999984,-0.000337,-0.005708,0.000188,0.703053,-0.176642,-0.670060,-0.159790
16568,NaN,9.319593,0.024613,2.497649,-1.764482,1.315011,-0.418526,-0.477563,-0.983692,-0.013973,-0.926758,0.197998,-0.368896,0.093072,0.000300,0.025434,0.999985,-0.002388,-0.004918,-0.000070,0.699320,-0.179065,-0.673132,-0.160565
16569,NaN,9.139298,-0.842485,0.317801,-0.326419,-0.420125,-0.644594,-0.741831,-0.812721,0.077969,-0.924561,0.200195,-0.364502,0.091382,-0.008376,0.003581,0.999985,-0.003709,-0.004064,0.000390,0.695993,-0.181284,-0.675983,-0.160551
16570,NaN,8.768552,-1.264056,-1.292212,0.815267,-1.510497,-1.025863,-0.737256,-0.861587,0.167482,-0.931152,0.206543,-0.351807,0.087751,-0.012614,-0.012498,0.999984,-0.003686,-0.004308,0.000837,0.692541,-0.185111,-0.678220,-0.161674
16571,NaN,9.023877,-1.407069,-2.033716,1.333224,-1.926767,-0.754233,-0.598667,-0.883275,0.194634,-0.933105,0.204346,-0.343506,0.090341,-0.014043,-0.019896,0.999985,-0.002993,-0.004416,0.000973,0.689111,-0.187495,-0.681229,-0.160932
16572,NaN,9.301343,-1.498186,-2.076500,1.266545,-1.968926,-0.453731,-0.255847,-0.770435,0.223323,-0.931152,0.212891,-0.341309,0.093109,-0.014904,-0.020387,0.999991,-0.001279,-0.003852,0.001117,0.686426,-0.189762,-0.683455,-0.160307
16573,NaN,9.688275,-1.156095,-2.134544,1.438550,-1.608212,-0.060808,0.363164,-0.737230,0.380509,-0.935303,0.206543,-0.334961,0.096982,-0.011338,-0.021009,0.999990,0.001816,-0.003686,0.001903,0.684573,-0.188982,-0.686660,-0.155382
16574,NaN,9.675101,-0.542886,-1.755224,1.353569,-0.804217,-0.091411,1.095888,-0.930256,0.492208,-0.937500,0.212891,-0.326660,0.096844,-0.005096,-0.017130,0.999971,0.005479,-0.004651,0.002461,0.682783,-0.187645,-0.690204,-0.149048
16575,NaN,10.009421,-0.247822,-1.014089,0.763356,-0.064173,0.221744,1.790300,-1.294867,0.466263,-0.943848,0.212891,-0.320312,0.100162,-0.002158,-0.009513,0.999936,0.008951,-0.006474,0.002331,0.680344,-0.182252,-0.696334,-0.137968
16576,NaN,10.498658,-0.067116,0.675611,-0.792010,0.987379,0.631338,2.214127,-1.756252,0.505401,-0.947998,0.208496,-0.315918,0.104923,-0.000488,0.007672,0.999897,0.011070,-0.008781,0.002527,0.676531,-0.177680,-0.703297,-0.126923
16577,NaN,11.174385,-0.167231,2.875450,-3.028414,1.962744,1.147947,2.006985,-1.906210,0.567599,-0.947754,0.204102,-0.296875,0.111468,-0.001651,0.029801,0.999900,0.010035,-0.009531,0.002838,0.671836,-0.172591,-0.711140,-0.114575
16578,NaN,12.078200,0.070630,3.864195,-4.040066,2.743769,1.890582,1.383843,-1.462547,0.732443,-0.950195,0.219238,-0.284180,0.120492,0.000876,0.039529,0.999943,0.006919,-0.007313,0.003662,0.668216,-0.171383,-0.716167,-0.105923
16579,NaN,11.849305,1.982728,3.137205,-2.748556,4.298537,1.507452,0.741858,-0.866376,0.813045,-0.952393,0.219238,-0.280029,0.118274,0.020191,0.031959,0.999975,0.003709,-0.004332,0.004065,0.666065,-0.171486,-0.719146,-0.098891
16580,NaN,11.756995,3.572079,1.662573,-0.844634,5.308293,1.361309,0.452718,-0.622026,0.700472,-0.952393,0.221191,-0.280029,0.117391,0.036094,0.017072,0.999986,0.002264,-0.003110,0.003502,0.664559,-0.172810,-0.720825,-0.094393
16581,NaN,11.933009,4.104608,1.079853,-0.182588,5.697732,1.497146,0.421428,-0.421259,0.578433,-0.948242,0.225586,-0.273682,0.119188,0.041368,0.011137,0.999991,0.002107,-0.002106,0.002892,0.663669,-0.172582,-0.722316,-0.089552
16582,NaN,11.800459,4.478027,1.463748,-0.420773,6.231706,1.252326,0.368921,-0.201090,0.459355,-0.944092,0.227783,-0.278076,0.117887,0.045024,0.014839,0.999995,0.001845,-0.001005,0.002297,0.663468,-0.173114,-0.722742,-0.086519
16583,NaN,11.745245,4.774496,2.166972,-0.999242,6.786960,1.067612,0.205033,-0.067984,0.304871,-0.948486,0.229980,-0.282227,0.117372,0.047902,0.021759,0.999998,0.001025,-0.000340,0.001524,0.663569,-0.172304,-0.723170,-0.083747
16584,NaN,11.978853,4.838483,2.251905,-1.065004,6.929591,1.269796,0.065602,0.090386,0.126045,-0.944092,0.227783,-0.282227,0.119768,0.048453,0.022481,1.000000,0.000328,0.000452,0.000630,0.664010,-0.172512,-0.722782,-0.083166
16585,NaN,12.431511,4.222878,1.264979,-0.401009,6.064301,1.893665,0.032757,0.302474,-0.053903,-0.937744,0.229980,-0.284424,0.124345,0.042193,0.012469,0.999999,0.000164,0.001512,-0.000270,0.665248,-0.170349,-0.722255,-0.082309
16586,NaN,12.442825,3.486129,0.486758,0.095931,5.085376,2.076107,0.059774,0.399939,-0.186145,-0.935791,0.227783,-0.292969,0.124470,0.034744,0.004629,0.999998,0.000299,0.002000,-0.000931,0.666670,-0.169321,-0.721100,-0.083050
16587,NaN,12.354079,3.374634,1.014027,-0.413551,5.095421,1.973108,0.144648,0.416129,-0.343326,-0.939697,0.223389,-0.290771,0.123619,0.033527,0.009907,0.999996,0.000723,0.002081,-0.001717,0.668238,-0.166325,-0.720282,-0.083590
16588,NaN,12.588760,3.211263,2.444843,-1.790204,5.396635,2.122013,0.324075,0.575275,-0.467583,-0.943848,0.212891,-0.301270,0.126032,0.031779,0.024138,0.999992,0.001620,0.002876,-0.002338,0.670383,-0.163324,-0.718873,-0.084460
16589,NaN,13.443852,2.337513,4.032227,-3.588830,5.099534,2.976877,0.446081,0.886010,-0.626261,-0.939453,0.210693,-0.311768,0.134688,0.022865,0.039777,0.999983,0.002230,0.004430,-0.003131,0.673817,-0.157821,-0.716812,-0.085109
16590,NaN,13.557211,1.168859,4.717615,-4.545251,4.100126,3.223626,0.549774,1.318197,-0.755266,-0.928711,0.199951,-0.328613,0.135922,0.011048,0.046312,0.999967,0.002749,0.006591,-0.003776,0.678637,-0.152703,-0.713172,-0.086718
16591,NaN,12.757052,0.696039,4.306044,-4.141655,3.233241,2.603199,0.808521,2.004245,-0.795962,-0.924316,0.191406,-0.349609,0.128020,0.006281,0.041805,0.999934,0.004043,0.010021,-0.003980,0.686201,-0.145331,-0.707292,-0.088007
16592,NaN,11.136876,0.489343,2.944994,-2.683843,2.254606,1.171255,1.255056,2.698503,-0.829630,-0.917725,0.180908,-0.381348,0.111771,0.004252,0.027972,0.999881,0.006275,0.013492,-0.004148,0.696214,-0.136894,-0.699098,-0.088362
16593,NaN,9.005002,0.036063,2.418980,-2.110368,1.301630,-0.824514,1.639214,2.997411,-0.876165,-0.904785,0.170166,-0.406738,0.090399,-0.000226,0.022836,0.999845,0.008196,0.014986,-0.004381,0.707515,-0.126222,-0.689740,-0.088034
16594,NaN,7.941609,-0.242050,3.797518,-3.341250,1.205450,-1.755082,1.559221,2.823050,-0.983435,-0.893799,0.151123,-0.436279,0.079927,-0.003103,0.036827,0.999858,0.007796,0.014115,-0.004917,0.717705,-0.116062,-0.680957,-0.087901
16595,NaN,10.339433,-0.744846,4.727739,-4.031352,0.841941,0.809920,1.081332,2.541727,-1.212939,-0.882812,0.136230,-0.459473,0.103935,-0.008328,0.045915,0.999886,0.005406,0.012708,-0.006064,0.726501,-0.107077,-0.672631,-0.091100
16596,NaN,14.075785,-0.792634,3.164459,-1.981550,0.134530,4.498452,0.108917,2.769661,-1.374538,-0.865479,0.121094,-0.476318,0.141119,-0.008912,0.029687,0.999880,0.000545,0.013848,-0.006872,0.735165,-0.100791,-0.663269,-0.097196
16597,NaN,16.778524,-0.403549,-1.933647,3.643512,-1.297521,6.632216,-0.809021,3.031434,-1.434519,-0.850586,0.121338,-0.503906,0.167432,-0.005322,-0.021856,0.999851,-0.004045,0.015156,-0.007172,0.744161,-0.097589,-0.652011,-0.107619
16598,NaN,16.918361,-2.638995,-5.301626,6.578203,-4.803764,6.153699,-0.716008,2.828172,-1.543081,-0.839844,0.110596,-0.527100,0.168201,-0.027886,-0.055301,0.999864,-0.003580,0.014140,-0.007715,0.752105,-0.093694,-0.641761,-0.117056
16599,NaN,15.584678,-5.949665,-2.754783,3.291181,-7.542141,4.956606,0.411474,2.662562,-1.407822,-0.826660,0.095703,-0.550293,0.155037,-0.060530,-0.029739,0.999884,0.002057,0.013312,-0.007039,0.759792,-0.087047,-0.632223,-0.124227
16600,NaN,13.520861,-5.562000,0.470974,0.384286,-6.371146,3.348304,1.547315,2.835582,-1.069900,-0.807129,0.078613,-0.571289,0.134953,-0.056367,0.002361,0.999855,0.007736,0.014177,-0.005349,0.768660,-0.076019,-0.622780,-0.124613
16601,NaN,13.287288,-2.327950,3.877635,-1.547013,-2.605707,3.891510,1.598307,3.070627,-0.717063,-0.787842,0.070068,-0.598877,0.133360,-0.024055,0.036541,0.999844,0.007991,0.015352,-0.003585,0.778141,-0.066397,-0.611947,-0.124936
16602,NaN,10.518778,3.712355,5.057595,-1.242099,3.584069,1.832317,0.275225,3.049481,-0.568845,-0.775146,0.063721,-0.611572,0.106048,0.036755,0.049014,0.999879,0.001376,0.015247,-0.002844,0.787118,-0.061678,-0.600363,-0.127300
16603,NaN,11.335429,5.244161,1.079115,3.308192,3.703740,1.697665,-0.006175,1.269063,-2.084374,-0.766113,0.044434,-0.624023,0.113958,0.051256,0.010068,0.999926,-0.000031,0.006345,-0.010422,0.789190,-0.056253,-0.595659,-0.138581
16604,NaN,14.479649,-1.411869,1.583515,1.830991,-3.327740,4.319608,0.714026,1.403090,-2.210872,-0.752686,0.025146,-0.628174,0.144734,-0.015773,0.014765,0.999908,0.003570,0.007015,-0.011054,0.791970,-0.045880,-0.591178,-0.145556
16605,NaN,14.460091,-2.364548,1.962278,1.264813,-4.476873,4.218933,-0.197529,1.073572,-1.791527,-0.746338,0.020996,-0.636719,0.144484,-0.024921,0.018871,0.999945,-0.000988,0.005368,-0.008957,0.793418,-0.041733,-0.586982,-0.155559
16606,NaN,10.694645,-1.069054,0.090691,2.442125,-3.208692,0.150368,0.013435,1.295336,-1.702870,-0.735352,0.008057,-0.649170,0.106853,-0.011601,0.000214,0.999943,0.000067,0.006477,-0.008514,0.795858,-0.035677,-0.582169,-0.162533
16607,NaN,9.171835,0.626179,1.869510,0.978163,-1.045559,-0.541427,-0.124267,1.366663,-1.730670,-0.718018,-0.000488,-0.659912,0.091893,0.005478,0.018064,0.999939,-0.000621,0.006833,-0.008653,0.797705,-0.032040,-0.576751,-0.173200
16608,NaN,8.035450,0.135918,1.513956,0.904965,-1.496302,-1.824037,-0.306323,1.352396,-1.752230,-0.711670,-0.004639,-0.666260,0.080462,0.000677,0.014594,0.999938,-0.001532,0.006762,-0.008761,0.799994,-0.027041,-0.571330,-0.181274
16609,NaN,7.416160,0.704604,2.410292,0.153570,-0.738286,-2.019439,-0.410539,1.164643,-1.765934,-0.698486,-0.017578,-0.674561,0.074359,0.006439,0.023657,0.999942,-0.002053,0.005823,-0.008830,0.800837,-0.024697,-0.566397,-0.192989
16610,NaN,7.239488,0.721974,1.697732,0.790388,-0.998873,-2.451333,-0.559550,0.936920,-1.803120,-0.687744,-0.021729,-0.680908,0.072535,0.006613,0.016619,0.999944,-0.002798,0.004685,-0.009015,0.801642,-0.020930,-0.562290,-0.201894
16611,NaN,7.130935,1.213580,2.177145,0.527980,-0.534350,-2.296237,-0.715221,0.815591,-1.862246,-0.683350,-0.032471,-0.689209,0.071507,0.011548,0.021438,0.999942,-0.003576,0.004078,-0.009311,0.801164,-0.019563,-0.558393,-0.214364
16612,NaN,7.199435,1.333063,1.700579,1.042428,-0.713856,-2.403032,-1.232595,0.735799,-1.904528,-0.674805,-0.030273,-0.691406,0.072179,0.012747,0.016661,0.999929,-0.006163,0.003679,-0.009522,0.801005,-0.018397,-0.554264,-0.225487
16613,NaN,6.918117,0.792476,0.956656,1.421927,-1.454060,-3.084690,-1.726362,0.678207,-1.887537,-0.670654,-0.030273,-0.697754,0.069284,0.007352,0.009267,0.999912,-0.008632,0.003391,-0.009437,0.799710,-0.020996,-0.549670,-0.240597
16614,NaN,6.589644,0.653911,0.469847,1.703643,-1.725692,-3.632876,-2.058243,0.557426,-1.851003,-0.660400,-0.019531,-0.702148,0.065966,0.005975,0.004451,0.999900,-0.010291,0.002787,-0.009255,0.798725,-0.023471,-0.545098,-0.253685
16615,NaN,6.300666,0.668466,0.112986,1.914942,-1.848464,-4.061773,-2.314367,0.391648,-1.790346,-0.645508,-0.019531,-0.710693,0.063065,0.006132,0.000933,0.999891,-0.011571,0.001958,-0.008951,0.796022,-0.029429,-0.540673,-0.270474
16616,NaN,5.961720,0.348499,-0.224009,1.939830,-2.207500,-4.609157,-2.534488,0.258946,-1.714066,-0.650146,-0.013184,-0.714844,0.059641,0.002945,-0.002357,0.999882,-0.012672,0.001295,-0.008570,0.793943,-0.034533,-0.536396,-0.284150
16617,NaN,5.598624,0.240972,-0.501313,1.979309,-2.352008,-5.100635,-2.706441,0.171562,-1.618865,-0.645996,-0.004639,-0.710693,0.055999,0.001888,-0.005089,0.999875,-0.013532,0.000858,-0.008094,0.790949,-0.041531,-0.532088,-0.299260
16618,NaN,5.097280,-0.166776,-0.911140,1.929016,-2.715182,-5.844556,-2.780723,0.114055,-1.514237,-0.644531,0.012695,-0.721436,0.050952,-0.002180,-0.009113,0.999875,-0.013903,0.000570,-0.007571,0.788316,-0.048327,-0.527717,-0.312628
16619,NaN,4.584998,-0.530415,-1.122494,1.701923,-2.946616,-6.498528,-2.794586,0.052962,-1.417165,-0.642334,0.016846,-0.719482,0.045807,-0.005785,-0.011158,0.999877,-0.013972,0.000265,-0.007086,0.784779,-0.056423,-0.523432,-0.327042
16620,NaN,4.288961,-0.573622,-1.016635,1.458489,-2.860651,-6.739149,-2.802183,-0.039599,-1.298253,-0.645020,0.031982,-0.717529,0.042853,-0.006156,-0.010074,0.999881,-0.014010,-0.000198,-0.006491,0.781675,-0.064082,-0.519303,-0.339416
16621,NaN,3.763097,-0.782338,-0.943618,1.086697,-2.789341,-7.223947,-2.754798,-0.110595,-1.154805,-0.636963,0.046875,-0.719727,0.037590,-0.008169,-0.009304,0.999888,-0.013773,-0.000553,-0.005774,0.778057,-0.072439,-0.515464,-0.351676
16622,NaN,3.329661,-0.943106,-0.703349,0.649860,-2.617431,-7.532946,-2.618816,-0.178051,-1.000514,-0.641602,0.057617,-0.717529,0.033255,-0.009688,-0.006878,0.999901,-0.013094,-0.000890,-0.005002,0.774820,-0.080357,-0.511857,-0.362215
16623,NaN,3.066703,-0.802297,-0.121800,0.208806,-2.111903,-7.454867,-2.434482,-0.266088,-0.812918,-0.641846,0.070557,-0.715576,0.030636,-0.008161,-0.001078,0.999917,-0.012172,-0.001330,-0.004064,0.771637,-0.088013,-0.508969,-0.371188
16624,NaN,2.918599,-0.541045,0.674273,-0.251591,-1.440911,-7.143227,-2.238530,-0.393730,-0.598206,-0.646484,0.083252,-0.713623,0.029156,-0.005421,0.006861,0.999931,-0.011192,-0.001969,-0.002991,0.768492,-0.095855,-0.506555,-0.378990
16625,NaN,2.881359,-0.563648,1.460022,-0.843792,-0.997411,-6.805251,-1.957938,-0.599641,-0.332800,-0.642334,0.089844,-0.707275,0.028760,-0.005541,0.014741,0.999946,-0.009790,-0.002998,-0.001664,0.765381,-0.103519,-0.505496,-0.384642
16626,NaN,3.259659,-0.658235,2.242385,-1.387115,-0.773574,-6.129728,-1.503376,-0.864699,-0.007733,-0.651123,0.100342,-0.698975,0.032499,-0.006414,0.022613,0.999962,-0.007517,-0.004323,-0.000039,0.762379,-0.110914,-0.505892,-0.388007
16627,NaN,4.305134,-0.948529,2.958750,-1.898589,-1.005644,-4.957621,-0.803176,-1.101465,0.365079,-0.655762,0.108887,-0.694824,0.042904,-0.009287,0.029862,0.999975,-0.004016,-0.005507,0.001825,0.759853,-0.116922,-0.508514,-0.387771
16628,NaN,5.785211,-1.369752,4.083382,-2.716042,-1.261043,-3.251357,0.094814,-1.286128,0.783185,-0.661865,0.106689,-0.686279,0.057641,-0.013491,0.041199,0.999972,0.000474,-0.006431,0.003916,0.758141,-0.121046,-0.513104,-0.383789
16629,NaN,8.334852,-0.814144,5.815161,-3.097775,-0.939471,-0.144797,0.858933,-1.450552,1.212845,-0.668213,0.106689,-0.673584,0.082972,-0.007889,0.058720,0.999946,0.004295,-0.007253,0.006064,0.757235,-0.123628,-0.519646,-0.375871
16630,NaN,11.995139,0.863785,8.002047,-2.868445,0.049878,4.344513,1.133259,-1.526495,1.581466,-0.683105,0.108887,-0.671387,0.119265,0.009126,0.080983,0.999924,0.005666,-0.007632,0.007907,0.756890,-0.126308,-0.526531,-0.365964
16631,NaN,14.993639,2.812371,9.798545,-2.364103,1.484545,8.101725,0.937087,-1.550406,1.699442,-0.687500,0.113037,-0.658691,0.148927,0.028929,0.099277,0.999923,0.004685,-0.007752,0.008497,0.756454,-0.130079,-0.533100,-0.355895
16632,NaN,16.949347,4.399883,11.144831,-2.020134,2.970874,10.630553,0.632951,-1.505246,1.418602,-0.689697,0.117432,-0.648193,0.168332,0.044840,0.112859,0.999942,0.003165,-0.007526,0.007093,0.755340,-0.134140,-0.538958,-0.347840
16633,NaN,17.389210,3.493637,13.442975,-4.295393,3.812960,11.688639,-0.054718,-1.045517,0.929615,-0.694336,0.130371,-0.644043,0.173021,0.035779,0.135326,0.999975,-0.000274,-0.005228,0.004648,0.754086,-0.138705,-0.542218,-0.343677
16634,NaN,17.973165,3.276577,14.198912,-4.870605,4.140469,12.424862,-0.914469,-0.562561,0.448287,-0.698730,0.134521,-0.641846,0.179257,0.033818,0.142341,0.999983,-0.004572,-0.002813,0.002241,0.752690,-0.144336,-0.542441,-0.344067
16635,NaN,16.745098,5.193220,11.577018,-1.833792,4.564127,10.612797,-1.172973,-0.243508,-0.260739,-0.701172,0.143066,-0.633545,0.167378,0.052393,0.115668,0.999981,-0.005865,-0.001218,-0.001304,0.750727,-0.148553,-0.541456,-0.348090
16636,NaN,12.364597,5.354582,7.727442,0.306694,3.948613,5.206703,-0.932176,0.017836,-0.837856,-0.694824,0.143066,-0.642090,0.123877,0.053387,0.077014,0.999980,-0.004661,0.000089,-0.004189,0.748615,-0.149753,-0.540371,-0.353763
16637,NaN,7.691306,3.323810,4.872979,0.145112,2.436085,-0.432183,-0.604388,0.102877,-1.006917,-0.696533,0.136719,-0.641846,0.077105,0.032997,0.048590,0.999983,-0.003022,0.000514,-0.005035,0.746654,-0.149179,-0.539561,-0.359343
16638,NaN,6.523456,0.693316,4.293457,-1.497044,0.636749,-2.143066,-0.105349,-0.121719,-0.932535,-0.700684,0.130127,-0.641846,0.065240,0.006652,0.042971,0.999989,-0.000527,-0.000609,-0.004663,0.744569,-0.147277,-0.540509,-0.363011
16639,NaN,7.515699,-1.512599,3.590673,-2.448197,-1.733877,-1.896486,0.838950,-0.316672,-0.460443,-0.696289,0.121582,-0.635498,0.075065,-0.015450,0.035961,0.999987,0.004195,-0.001583,-0.002302,0.743492,-0.143551,-0.543426,-0.362355
16640,NaN,10.263751,-2.984163,1.623432,-1.710686,-5.009434,-0.385894,2.015613,-0.768146,0.482168,-0.704590,0.115234,-0.637451,0.102647,-0.029758,0.016328,0.999939,0.010078,-0.003841,0.002411,0.743686,-0.138754,-0.549547,-0.354509
16641,NaN,15.896933,-3.163792,-0.244712,0.363753,-8.240951,4.141897,2.812259,-1.307656,1.426807,-0.714844,0.104492,-0.628906,0.159203,-0.030474,-0.001841,0.999854,0.014061,-0.006538,0.007134,0.744475,-0.134649,-0.558202,-0.340642
16642,NaN,23.142649,-2.192550,-0.614512,2.426536,-9.997564,11.041724,3.178695,-1.283639,1.851962,-0.714600,0.098145,-0.618408,0.231650,-0.019696,-0.004984,0.999810,0.015892,-0.006418,0.009259,0.746052,-0.130150,-0.567033,-0.323946
16643,NaN,25.254133,-1.112851,1.129968,2.254464,-8.484136,13.919269,2.763144,-0.529623,1.894537,-0.712402,0.100098,-0.618408,0.252602,-0.008897,0.011835,0.999856,0.013815,-0.002648,0.009472,0.749320,-0.126228,-0.572125,-0.308639
16644,NaN,14.571202,-1.626712,3.728420,-1.549381,-3.837012,4.738626,1.203878,0.420568,1.523344,-0.712646,0.106689,-0.624756,0.145909,-0.015379,0.036883,0.999951,0.006019,0.002103,0.007617,0.753603,-0.125424,-0.571411,-0.299735
16645,NaN,7.104421,-3.730680,3.654387,-3.873024,-3.170817,-2.553877,-0.257374,0.332986,0.860642,-0.708740,0.113037,-0.628906,0.071265,-0.036953,0.036473,0.999989,-0.001287,0.001665,0.004303,0.755682,-0.128564,-0.569217,-0.297337
16646,NaN,5.026380,-3.519605,1.912582,-2.718690,-3.252677,-4.981703,-0.955275,-0.373670,0.687806,-0.713135,0.123779,-0.622803,0.050348,-0.034931,0.019387,0.999981,-0.004776,-0.001868,0.003439,0.755018,-0.134688,-0.568748,-0.297208
16647,NaN,2.618901,-3.995329,-0.080774,-1.900387,-3.940809,-7.892806,-1.020757,-0.985749,0.562636,-0.715576,0.136475,-0.614258,0.026304,-0.039882,-0.000475,0.999971,-0.005104,-0.004929,0.002813,0.752350,-0.141891,-0.570516,-0.297235
16648,NaN,2.105635,-4.702590,-2.364718,-0.692204,-5.583417,-9.115749,-0.730915,-1.208661,0.475948,-0.722168,0.143066,-0.610107,0.021310,-0.047061,-0.023347,0.999972,-0.003655,-0.006043,0.002380,0.749076,-0.147795,-0.573616,-0.296661
16649,NaN,2.434709,-2.136968,-4.241808,2.356178,-4.717013,-8.985004,-0.191179,-1.407851,0.465348,-0.732910,0.147217,-0.601807,0.024694,-0.021353,-0.042225,0.999972,-0.000956,-0.007039,0.002327,0.745571,-0.152267,-0.578209,-0.294301
16650,NaN,2.902943,0.364712,-3.153812,3.114818,-2.245078,-7.872691,0.637013,-1.728340,0.574897,-0.741211,0.147217,-0.586914,0.029290,0.003831,-0.031274,0.999953,0.003185,-0.008642,0.002874,0.741877,-0.154095,-0.585117,-0.288984
16651,NaN,4.639705,1.054814,-3.447652,4.002742,-2.215691,-6.125903,1.567676,-2.181452,0.763303,-0.751465,0.136475,-0.572021,0.046727,0.010993,-0.033883,0.999903,0.007838,-0.010907,0.003816,0.737732,-0.153950,-0.594848,-0.279656
16652,NaN,6.752379,0.731797,-4.656909,5.025700,-3.447261,-4.274876,2.665212,-2.778850,1.212385,-0.768311,0.129883,-0.550781,0.068113,0.008341,-0.045519,0.999796,0.013325,-0.013893,0.006062,0.733070,-0.151584,-0.607762,-0.265059
16653,NaN,10.122917,1.545293,-5.175774,6.257295,-3.408754,-0.820671,2.913945,-3.049876,1.652760,-0.783203,0.132080,-0.535889,0.101864,0.017030,-0.049967,0.999743,0.014568,-0.015248,0.008263,0.727998,-0.150151,-0.621479,-0.247463
16654,NaN,12.643882,0.428451,-5.227472,5.862336,-4.358551,1.762775,2.510165,-2.678258,1.818616,-0.791504,0.129883,-0.518799,0.127073,0.006079,-0.050507,0.999790,0.012550,-0.013390,0.009092,0.723664,-0.149953,-0.632830,-0.230978
16655,NaN,15.604273,0.265842,-5.271090,6.009524,-4.470130,4.858088,1.993246,-1.976850,1.684413,-0.800049,0.134033,-0.510498,0.156521,0.004490,-0.051127,0.999866,0.009966,-0.009884,0.008422,0.720703,-0.150461,-0.641109,-0.216627
16656,NaN,13.095848,1.603141,-5.149939,6.316863,-2.575473,2.598949,0.992092,-1.354812,1.545329,-0.802490,0.142578,-0.501953,0.131173,0.017297,-0.050528,0.999935,0.004960,-0.006774,0.007726,0.718739,-0.153304,-0.645855,-0.206842
16657,NaN,9.700043,2.643488,-2.641224,4.351379,0.137130,-0.373451,0.482911,-1.029188,1.188419,-0.802490,0.146973,-0.489258,0.096975,0.027074,-0.025848,0.999966,0.002415,-0.005146,0.005942,0.716904,-0.156500,-0.649379,-0.199660
16658,NaN,9.907751,3.069800,0.441226,1.842026,2.126935,0.180470,0.691677,-1.060281,0.721684,-0.811035,0.149170,-0.482910,0.098940,0.031038,0.005044,0.999973,0.003458,-0.005301,0.003608,0.714709,-0.157425,-0.653281,-0.193989
16659,NaN,9.438236,3.254730,2.349951,0.126063,3.351084,-0.120000,1.168797,-1.142895,0.524888,-0.815186,0.144775,-0.476562,0.094160,0.032654,0.024229,0.999963,0.005844,-0.005714,0.002624,0.712274,-0.156036,-0.658344,-0.186820
16660,NaN,9.060475,2.426964,2.919921,-0.902016,2.984088,-0.496644,1.194822,-0.955794,0.367668,-0.815186,0.144775,-0.472412,0.090419,0.024259,0.029777,0.999969,0.005974,-0.004779,0.001838,0.710387,-0.153886,-0.662550,-0.180823
16661,NaN,7.450849,1.457165,3.576903,-2.123952,2.559263,-2.107441,1.107497,-1.037557,0.410665,-0.815186,0.146973,-0.466064,0.074291,0.014525,0.036235,0.999969,0.005537,-0.005188,0.002053,0.708051,-0.152202,-0.667149,-0.174383
16662,NaN,7.409215,1.760475,4.751839,-3.138141,3.397855,-2.119781,1.021941,-1.320874,0.471894,-0.819092,0.140381,-0.455322,0.073734,0.017534,0.048096,0.999962,0.005110,-0.006604,0.002359,0.704813,-0.151312,-0.672327,-0.168288
16663,NaN,8.289364,2.974431,5.300462,-3.178650,4.748816,-1.268746,0.568011,-1.250472,0.313276,-0.831787,0.135986,-0.440430,0.082513,0.029722,0.053606,0.999975,0.002840,-0.006252,0.001566,0.701202,-0.151393,-0.677150,-0.163904
16664,NaN,8.199314,0.695024,5.159569,-4.156534,2.680568,-1.453903,0.460784,-1.320718,0.091213,-0.829590,0.140381,-0.434326,0.081647,0.006868,0.052152,0.999975,0.002304,-0.006604,0.000456,0.697141,-0.151173,-0.682066,-0.161016
16665,NaN,8.483942,-0.636764,4.464370,-4.190322,1.209848,-1.251720,0.212983,-0.933559,0.072007,-0.835938,0.142578,-0.429932,0.084632,-0.006385,0.045032,0.999988,0.001065,-0.004668,0.000360,0.694112,-0.151446,-0.685555,-0.159017
16666,NaN,8.049153,-1.033613,2.128523,-2.301364,-0.114092,-1.745567,-0.099997,-0.389762,0.158740,-0.838135,0.142578,-0.432129,0.080458,-0.010262,0.021447,0.999998,-0.000500,-0.001949,0.000794,0.692830,-0.152654,-0.686701,-0.158510
16667,NaN,8.016540,-1.164797,-0.614806,0.107515,-1.382385,-1.807871,-0.390737,-0.062936,0.242241,-0.838135,0.144531,-0.432129,0.080181,-0.011563,-0.006100,0.999997,-0.001954,-0.000315,0.001211,0.692470,-0.154961,-0.686501,-0.158709
16668,NaN,8.192112,-0.481954,-2.798501,2.375040,-1.697982,-1.648705,-0.585160,0.043745,0.330137,-0.832031,0.146729,-0.427979,0.081923,-0.004766,-0.027989,0.999994,-0.002926,0.000219,0.001651,0.692429,-0.158092,-0.685620,-0.159604
16669,NaN,8.796630,-0.277278,-4.051102,3.602308,-2.044754,-1.054187,-0.502194,-0.009875,0.469597,-0.838379,0.151123,-0.425781,0.087975,-0.002668,-0.040500,0.999994,-0.002511,-0.000049,0.002348,0.692324,-0.161505,-0.684976,-0.159412
16670,NaN,8.771053,1.408401,-4.311132,4.575566,-0.619674,-1.084522,-0.335062,-0.409875,0.445023,-0.836426,0.157471,-0.415283,0.087767,0.014207,-0.042955,0.999994,-0.001675,-0.002049,0.002225,0.691005,-0.164523,-0.685758,-0.158683
16671,NaN,9.836696,1.431525,-3.640728,3.954553,-0.229679,0.004269,0.157389,-0.884968,0.376204,-0.838623,0.157471,-0.413086,0.098500,0.014529,-0.035960,0.999988,0.000787,-0.004425,0.001881,0.688320,-0.165964,-0.688771,-0.155777
16672,NaN,9.536630,0.713546,-1.797620,1.910499,0.036281,-0.271470,1.161944,-1.246709,0.477776,-0.842529,0.150879,-0.400391,0.095458,0.007465,-0.017339,0.999961,0.005810,-0.006233,0.002389,0.685340,-0.164584,-0.693538,-0.149086
16673,NaN,9.318004,0.144637,0.457495,-0.476616,0.606675,-0.514410,2.189570,-1.673737,0.518491,-0.848877,0.153076,-0.394043,0.093133,0.001632,0.005372,0.999902,0.010947,-0.008368,0.002592,0.681567,-0.160056,-0.700583,-0.137960
16674,NaN,9.295731,0.010651,2.964349,-2.973112,1.587470,-0.656535,2.658758,-2.068574,0.467839,-0.854980,0.144531,-0.375000,0.092644,-0.000079,0.030603,0.999855,0.013293,-0.010342,0.002339,0.676677,-0.154047,-0.708985,-0.125373
16675,NaN,9.694520,0.385045,4.648003,-4.602506,2.623114,-0.449623,2.337812,-2.094743,0.248395,-0.863281,0.137939,-0.357910,0.096447,0.003419,0.047534,0.999876,0.011689,-0.010473,0.001242,0.671043,-0.148278,-0.717392,-0.114295
16676,NaN,10.486763,-0.315742,4.872105,-5.311858,2.101391,0.245851,1.695564,-1.734275,0.278275,-0.869385,0.135742,-0.353760,0.104445,-0.003430,0.049600,0.999925,0.008478,-0.008671,0.001391,0.666192,-0.144577,-0.723915,-0.105981
16677,NaN,11.074603,-0.129389,4.030109,-4.646663,2.056866,0.821300,1.096588,-1.143855,0.518976,-0.873779,0.135742,-0.343018,0.110516,-0.001230,0.040927,0.999965,0.005483,-0.005719,0.002595,0.663053,-0.143437,-0.727970,-0.099225
16678,NaN,11.003106,0.851134,2.406088,-2.866965,2.487690,0.825605,0.813336,-0.622861,0.590211,-0.871582,0.140137,-0.336914,0.109930,0.008737,0.024439,0.999983,0.004067,-0.003114,0.002951,0.661654,-0.143205,-0.729998,-0.093855
16679,NaN,11.187840,1.728792,1.230463,-1.534493,3.017242,1.059823,0.792781,-0.469549,0.562444,-0.871582,0.137939,-0.336914,0.111800,0.017553,0.012636,0.999985,0.003964,-0.002348,0.002812,0.660749,-0.142934,-0.731525,-0.088612
16680,NaN,11.801655,2.448702,0.532597,-0.743526,3.602616,1.677589,0.883755,-0.461483,0.496911,-0.871826,0.142090,-0.328369,0.117942,0.024755,0.005707,0.999984,0.004419,-0.002307,0.002485,0.659906,-0.142044,-0.733070,-0.083402
16681,NaN,12.565754,3.516706,0.711139,-0.692905,4.820791,2.313736,0.924153,-0.364342,0.508688,-0.873779,0.139893,-0.328369,0.125554,0.035452,0.007504,0.999984,0.004621,-0.001822,0.002543,0.659429,-0.141090,-0.734279,-0.077979
16682,NaN,12.826071,4.875075,1.520516,-1.108064,6.448177,2.343754,0.802090,-0.165479,0.478341,-0.875977,0.142090,-0.328369,0.128131,0.048996,0.015507,0.999989,0.004010,-0.000827,0.002392,0.659570,-0.140275,-0.734788,-0.073335
16683,NaN,12.745510,5.661667,1.892749,-1.248142,7.348704,2.125629,0.677622,-0.028357,0.363637,-0.873779,0.142090,-0.326172,0.127349,0.056784,0.019138,0.999993,0.003388,-0.000142,0.001818,0.660084,-0.139453,-0.734845,-0.069603
16684,NaN,12.830920,5.757726,1.562445,-0.932016,7.385296,2.221176,0.639792,0.161743,0.197648,-0.873779,0.142090,-0.334717,0.128265,0.057654,0.015705,0.999994,0.003199,0.000809,0.000988,0.661193,-0.138020,-0.734387,-0.066708
16685,NaN,12.655440,5.171759,1.503928,-1.032837,6.793313,2.101724,0.558145,0.277635,-0.017960,-0.875977,0.140137,-0.336914,0.126580,0.051664,0.015008,0.999995,0.002791,0.001388,-0.000090,0.662622,-0.136064,-0.733619,-0.064979
16686,NaN,12.123099,4.530739,2.672289,-2.287919,6.415848,1.511639,0.475444,0.246327,-0.270093,-0.873779,0.135742,-0.341064,0.121325,0.045080,0.026681,0.999996,0.002377,0.001232,-0.001350,0.663761,-0.133427,-0.733133,-0.064292
16687,NaN,12.034530,4.031037,4.562237,-4.225088,6.380133,1.292944,0.538545,0.437708,-0.422751,-0.864990,0.131592,-0.341064,0.120530,0.039933,0.045467,0.999992,0.002693,0.002189,-0.002114,0.665638,-0.129989,-0.732060,-0.064170
16688,NaN,12.156378,3.274161,5.811258,-5.601003,5.906448,1.412674,0.583174,1.052510,-0.517256,-0.869141,0.120850,-0.347168,0.121952,0.032258,0.057566,0.999979,0.002916,0.005263,-0.002586,0.669692,-0.125825,-0.729060,-0.064435
16689,NaN,12.021949,2.322237,5.897844,-5.820928,4.874010,1.459434,0.585303,1.621624,-0.614203,-0.854004,0.114502,-0.364258,0.120763,0.022681,0.058068,0.999958,0.002926,0.008108,-0.003071,0.675839,-0.121178,-0.724049,-0.065650
16690,NaN,12.075087,1.628843,4.834105,-4.808618,3.781724,1.780305,0.717577,2.211254,-0.676927,-0.849609,0.107910,-0.378906,0.121330,0.015708,0.047059,0.999927,0.003588,0.011056,-0.003385,0.684011,-0.115578,-0.717165,-0.066670
16691,NaN,11.475359,0.853144,2.766277,-2.735715,2.286927,1.471791,1.117994,2.908286,-0.685922,-0.843018,0.091064,-0.412598,0.115168,0.007988,0.026036,0.999873,0.005590,0.014541,-0.003429,0.694897,-0.108434,-0.707717,-0.067055
16692,NaN,9.012585,-0.038949,1.824595,-1.737068,0.875054,-0.825726,1.661573,3.380794,-0.664223,-0.825928,0.086670,-0.436035,0.090415,-0.000833,0.016713,0.999817,0.008307,0.016903,-0.003321,0.707414,-0.099167,-0.696755,-0.065299
16693,NaN,7.647380,-0.609693,2.630588,-2.430956,0.287625,-2.081226,1.706774,3.062040,-0.780739,-0.816895,0.067627,-0.459229,0.076839,-0.006614,0.025076,0.999839,0.008533,0.015309,-0.003903,0.718692,-0.089523,-0.686562,-0.064037
16694,NaN,10.166775,-0.283450,3.873980,-3.228565,0.778577,0.551364,1.127499,2.490382,-1.017006,-0.806152,0.056885,-0.480225,0.102123,-0.003567,0.037451,0.999894,0.005637,0.012451,-0.005085,0.727347,-0.081183,-0.678352,-0.064924
16695,NaN,14.136325,0.363364,2.665248,-1.341315,0.994522,4.479535,0.093983,2.717893,-1.254056,-0.793213,0.050537,-0.501465,0.141727,0.002734,0.024730,0.999888,0.000470,0.013589,-0.006270,0.736253,-0.075845,-0.668714,-0.070710
16696,NaN,16.885475,1.049245,-2.837954,4.820692,0.214521,6.648169,-0.741954,3.082055,-1.410745,-0.776123,0.041992,-0.522461,0.168458,0.009191,-0.031013,0.999850,-0.003710,0.015410,-0.007053,0.745671,-0.072767,-0.657536,-0.079536
16697,NaN,18.193381,-0.769986,-6.305716,8.384349,-2.746469,7.318514,-0.726244,2.904091,-1.617374,-0.769531,0.031250,-0.541504,0.180922,-0.009401,-0.065657,0.999855,-0.003631,0.014520,-0.008086,0.754315,-0.069101,-0.646714,-0.089420
16698,NaN,17.376609,-6.258711,-3.536457,4.734915,-7.853590,6.603741,0.204182,2.513381,-1.719178,-0.758301,0.012207,-0.547607,0.172757,-0.064037,-0.037605,0.999884,0.001021,0.012566,-0.008596,0.761660,-0.061649,-0.637839,-0.096096
16699,NaN,16.705773,-6.348542,-0.088938,1.658165,-7.514945,6.316303,1.206832,2.473092,-1.564476,-0.740967,-0.002930,-0.575195,0.166523,-0.064774,-0.003339,0.999875,0.006034,0.012365,-0.007822,0.769135,-0.050915,-0.629279,-0.099233
16700,NaN,16.665790,-1.028034,3.664977,-0.377210,-1.905566,7.170784,1.120353,2.873952,-1.214237,-0.721680,-0.013428,-0.600586,0.167094,-0.011490,0.034189,0.999863,0.005602,0.014369,-0.006071,0.777758,-0.041362,-0.619001,-0.101090
16701,NaN,11.996706,4.766974,3.652375,0.236170,3.955292,3.004128,0.098794,2.904245,-1.224968,-0.708984,-0.017822,-0.611084,0.120770,0.046914,0.034797,0.999876,0.000494,0.014521,-0.006125,0.786102,-0.035773,-0.607825,-0.106356
16702,NaN,12.849687,4.247927,3.014143,1.159675,2.940573,3.686998,-0.016365,1.201360,-2.344685,-0.701904,-0.041260,-0.613037,0.129161,0.040970,0.029364,0.999913,-0.000082,0.006007,-0.011723,0.788440,-0.028078,-0.603456,-0.115821
16703,NaN,15.014382,-1.464737,3.697392,-0.074318,-3.182150,5.389316,0.014025,1.385313,-2.490680,-0.690918,-0.056152,-0.623535,0.150197,-0.016520,0.035933,0.999898,0.000070,0.006926,-0.012453,0.791140,-0.019730,-0.598188,-0.126015
16704,NaN,15.446788,-2.805387,2.601430,0.849183,-5.102642,5.236387,-1.069644,1.006544,-2.028290,-0.680176,-0.056152,-0.629883,0.154303,-0.029482,0.025393,0.999922,-0.005348,0.005033,-0.010141,0.792710,-0.017267,-0.593680,-0.137321
16705,NaN,11.510848,-2.050064,0.074923,2.424479,-4.344192,0.768076,-0.928486,1.136285,-1.947475,-0.671387,-0.066895,-0.640381,0.114904,-0.021618,0.000195,0.999926,-0.004642,0.005681,-0.009737,0.794639,-0.014431,-0.588570,-0.148071
16706,NaN,10.099701,-1.029563,1.727776,0.830744,-2.947549,0.019241,-0.959917,1.424052,-1.935978,-0.660645,-0.073242,-0.651123,0.101011,-0.011193,0.016611,0.999916,-0.004799,0.007120,-0.009680,0.797266,-0.011500,-0.582287,-0.158672
16707,NaN,8.442438,-2.061259,1.693469,0.211282,-3.716055,-1.779335,-0.857944,1.625092,-1.882361,-0.647949,-0.075439,-0.663818,0.084360,-0.021336,0.016340,0.999913,-0.004290,0.008125,-0.009412,0.800409,-0.008197,-0.575115,-0.168881
16708,NaN,7.000942,-1.917351,2.059032,-0.431176,-3.271061,-3.027302,-0.555459,1.462499,-1.826158,-0.636963,-0.086182,-0.672119,0.069979,-0.019756,0.020133,0.999928,-0.002777,0.007312,-0.009131,0.802997,-0.003940,-0.568820,-0.177828
16709,NaN,6.938717,-0.659476,2.596164,-0.525543,-2.091843,-2.694607,-0.435384,1.227392,-1.815121,-0.626465,-0.088135,-0.676514,0.069481,-0.007169,0.025551,0.999938,-0.002177,0.006137,-0.009075,0.804838,0.000498,-0.563442,-0.186465
16710,NaN,7.309126,0.373680,2.596207,-0.056869,-1.375165,-2.170233,-0.653865,1.130542,-1.820912,-0.615723,-0.092529,-0.684814,0.073267,0.003154,0.025537,0.999937,-0.003269,0.005653,-0.009104,0.806281,0.004044,-0.558238,-0.195614
16711,NaN,6.818012,0.580335,2.582600,-0.073711,-1.159014,-2.591770,-0.994800,1.116523,-1.824651,-0.602783,-0.098877,-0.695557,0.068373,0.005307,0.025417,0.999930,-0.004974,0.005582,-0.009123,0.807598,0.006139,-0.552627,-0.205794
16712,NaN,6.489857,0.833547,1.958105,0.520220,-1.066274,-3.086735,-1.558299,0.990057,-1.801020,-0.600830,-0.092529,-0.697510,0.065067,0.007901,0.019197,0.999917,-0.007791,0.004950,-0.009005,0.808467,0.005835,-0.546919,-0.217319
16713,NaN,5.898414,0.809424,1.043333,1.183311,-1.187813,-4.005541,-1.991706,0.776625,-1.750694,-0.592285,-0.092529,-0.704102,0.059092,0.007679,0.010126,0.999905,-0.009958,0.003883,-0.008753,0.808686,0.003333,-0.541457,-0.229868
16714,NaN,5.765251,0.404757,0.266627,1.692999,-1.785113,-4.576343,-2.198041,0.575254,-1.697127,-0.588379,-0.083740,-0.714600,0.057692,0.003586,0.002459,0.999899,-0.010990,0.002876,-0.008485,0.808254,-0.000306,-0.536517,-0.242642
16715,NaN,5.513992,0.024858,-0.182058,1.850081,-2.230332,-5.118017,-2.262116,0.434166,-1.601332,-0.584717,-0.071045,-0.723145,0.055135,-0.000214,-0.001940,0.999902,-0.011310,0.002171,-0.008006,0.807407,-0.004697,-0.531929,-0.255195
16716,NaN,5.493419,-0.009208,-0.510594,2.090564,-2.429056,-5.321926,-2.341332,0.335658,-1.464752,-0.576416,-0.064453,-0.718994,0.054923,-0.000555,-0.005193,0.999903,-0.011706,0.001678,-0.007324,0.806303,-0.009831,-0.527563,-0.267311
16717,NaN,5.228182,-0.131086,-0.787930,2.163439,-2.583944,-5.736656,-2.405833,0.254878,-1.292875,-0.578857,-0.053711,-0.723389,0.052261,-0.001744,-0.007927,0.999906,-0.012029,0.001274,-0.006464,0.805065,-0.015841,-0.523319,-0.278849
16718,NaN,4.800198,-0.626743,-0.994095,1.939032,-2.950143,-6.354477,-2.452162,0.190271,-1.131564,-0.572754,-0.045166,-0.725586,0.047956,-0.006660,-0.009907,0.999908,-0.012260,0.000951,-0.005658,0.803723,-0.022490,-0.519170,-0.289803
16719,NaN,4.337335,-0.987791,-1.116828,1.678639,-3.139122,-6.920775,-2.419253,0.125331,-0.974834,-0.577393,-0.032471,-0.729980,0.043317,-0.010223,-0.011073,0.999915,-0.012096,0.000627,-0.004874,0.802306,-0.029553,-0.515237,-0.299936
16720,NaN,3.917839,-0.946997,-0.864121,1.323899,-2.865519,-7.161502,-2.382844,0.054236,-0.845263,-0.571289,-0.019531,-0.727783,0.039135,-0.009738,-0.008537,0.999920,-0.011914,0.000271,-0.004226,0.800769,-0.036856,-0.511524,-0.309443
16721,NaN,3.607087,-0.989884,-0.677200,1.018770,-2.713296,-7.353117,-2.336013,-0.024883,-0.695811,-0.569580,-0.008789,-0.738525,0.036037,-0.010102,-0.006650,0.999926,-0.011680,-0.000124,-0.003479,0.799149,-0.044520,-0.508134,-0.318084
16722,NaN,3.171975,-0.701113,-0.422288,0.819383,-2.198310,-7.526366,-2.258280,-0.098754,-0.562442,-0.576172,0.004150,-0.732178,0.031702,-0.007147,-0.004127,0.999932,-0.011291,-0.000494,-0.002812,0.797454,-0.052274,-0.505021,-0.326019
16723,NaN,3.093186,-0.092537,0.018392,0.783364,-1.511997,-7.228720,-2.216478,-0.238889,-0.425553,-0.576660,0.016846,-0.736572,0.030930,-0.000989,0.000232,0.999936,-0.011082,-0.001194,-0.002128,0.795537,-0.060481,-0.502492,-0.333113
16724,NaN,3.106414,0.421404,0.763261,0.518470,-0.799647,-6.730204,-2.215174,-0.415212,-0.295719,-0.581299,0.029785,-0.728271,0.031055,0.004253,0.007650,0.999935,-0.011076,-0.002076,-0.001479,0.793287,-0.069243,-0.500504,-0.339701
16725,NaN,3.184243,0.579240,1.462222,0.118224,-0.382143,-6.283817,-2.146039,-0.650034,-0.104428,-0.585938,0.044678,-0.726318,0.031798,0.005933,0.014662,0.999937,-0.010730,-0.003250,-0.000522,0.790701,-0.078649,-0.499505,-0.345111
16726,NaN,3.440677,0.386098,1.996882,-0.320636,-0.355656,-5.844647,-1.835352,-0.854046,0.193531,-0.590820,0.063965,-0.719971,0.034317,0.004078,0.020079,0.999948,-0.009177,-0.004270,0.000968,0.788145,-0.087863,-0.499605,-0.348570
16727,NaN,4.057383,-0.374943,2.549096,-1.047099,-0.873112,-5.203823,-1.156957,-1.015643,0.573461,-0.597168,0.068359,-0.713623,0.040454,-0.003485,0.025717,0.999966,-0.005785,-0.005078,0.002867,0.786081,-0.095679,-0.501386,-0.348617
16728,NaN,5.882568,-1.829663,3.917597,-2.520730,-2.006616,-3.261468,-0.018261,-1.199749,0.970220,-0.607910,0.070312,-0.705078,0.058677,-0.018008,0.039530,0.999970,-0.000091,-0.005999,0.004851,0.784739,-0.100278,-0.505583,-0.344259
16729,NaN,8.847260,-1.872441,6.572159,-3.771437,-1.894102,0.539149,1.225290,-1.453979,1.317585,-0.618408,0.070312,-0.694580,0.088115,-0.018548,0.066249,0.999933,0.006126,-0.007270,0.006588,0.783900,-0.101379,-0.512752,-0.335126
16730,NaN,12.538627,0.440427,10.097751,-4.120406,0.215915,5.754754,1.893487,-1.611782,1.623307,-0.628906,0.063965,-0.681885,0.124531,0.004455,0.102025,0.999890,0.009467,-0.008059,0.008116,0.783368,-0.100815,-0.521355,-0.323049
16731,NaN,16.113513,3.305849,12.660734,-3.619133,2.506997,10.472100,1.485247,-1.483924,1.662816,-0.643799,0.068115,-0.679688,0.159912,0.033444,0.128044,0.999910,0.007426,-0.007419,0.008314,0.782870,-0.101847,-0.528694,-0.311809
16732,NaN,18.284789,3.985643,12.245790,-2.532135,2.333742,12.285026,0.333720,-1.209897,1.310791,-0.644043,0.078857,-0.673340,0.181837,0.040845,0.123628,0.999959,0.001669,-0.006049,0.006554,0.781859,-0.105895,-0.533254,-0.305161
16733,NaN,17.928893,2.104992,10.993678,-2.814842,0.662454,11.124597,-0.526122,-0.695325,0.790953,-0.648438,0.085205,-0.669189,0.178820,0.022048,0.110502,0.999983,-0.002631,-0.003477,0.003955,0.780927,-0.111263,-0.534717,-0.303070
16734,NaN,17.291133,1.026322,12.027740,-4.357752,0.768795,10.805714,-1.204119,-0.283492,0.325951,-0.659424,0.091797,-0.665039,0.172723,0.011270,0.120456,0.999980,-0.006021,-0.001417,0.001630,0.779983,-0.117270,-0.533800,-0.304846
16735,NaN,16.593631,2.816426,11.270558,-2.790586,2.176423,10.131762,-1.428268,-0.132647,-0.301561,-0.653076,0.095947,-0.669189,0.165905,0.028719,0.112612,0.999973,-0.007141,-0.000663,-0.001508,0.778319,-0.122408,-0.532245,-0.309761
16736,NaN,12.193888,3.725195,7.870176,-0.681726,2.684954,4.912588,-1.141728,-0.036661,-0.798362,-0.653076,0.098145,-0.662842,0.122073,0.037213,0.078512,0.999976,-0.005709,-0.000183,-0.003992,0.776273,-0.124787,-0.531088,-0.315870
16737,NaN,8.995556,3.046187,5.368934,0.024396,1.942232,0.922845,-0.823552,0.005241,-0.885612,-0.655518,0.102539,-0.669189,0.090091,0.030284,0.053562,0.999982,-0.004118,0.000026,-0.004428,0.774368,-0.125796,-0.530230,-0.321536
16738,NaN,7.632590,1.597309,4.270270,-0.396639,0.704287,-0.958899,-0.606950,-0.018972,-0.794050,-0.659668,0.100342,-0.665039,0.076385,0.015799,0.042662,0.999988,-0.003035,-0.000095,-0.003970,0.772656,-0.126077,-0.529813,-0.326198
16739,NaN,7.005663,-0.244424,3.939106,-1.485269,-0.657696,-1.937603,-0.293170,-0.075732,-0.561356,-0.667969,0.093994,-0.662842,0.070035,-0.002583,0.039421,0.999995,-0.001466,-0.000379,-0.002807,0.771358,-0.126012,-0.529896,-0.329148
16740,NaN,7.105608,-2.512878,3.039564,-2.276779,-2.901221,-2.570980,0.438966,-0.203410,-0.077617,-0.665771,0.095947,-0.658691,0.071015,-0.025223,0.030413,0.999997,0.002195,-0.001017,-0.000388,0.770973,-0.124455,-0.531442,-0.328148
16741,NaN,9.257541,-3.378933,1.756307,-1.410197,-5.039874,-1.279530,1.403586,-0.656219,0.642329,-0.671875,0.087402,-0.654297,0.092626,-0.033615,0.017631,0.999965,0.007018,-0.003281,0.003212,0.771139,-0.122009,-0.535770,-0.321574
16742,NaN,14.090458,-2.858793,1.210437,0.398043,-6.598319,3.012270,2.145589,-1.235631,1.281674,-0.673828,0.083008,-0.647949,0.141007,-0.027818,0.012674,0.999903,0.010728,-0.006178,0.006408,0.771130,-0.119152,-0.543142,-0.310093
16743,NaN,18.827412,-2.241827,1.135955,1.893257,-7.563731,7.507345,2.666860,-1.242833,1.708254,-0.684326,0.078857,-0.643555,0.188383,-0.020969,0.012244,0.999855,0.013334,-0.006214,0.008541,0.771896,-0.115635,-0.550897,-0.295494
16744,NaN,19.695813,-0.984011,1.416461,2.658221,-6.390878,8.707053,2.716010,-0.794921,1.773935,-0.686279,0.074463,-0.639404,0.196978,-0.008291,0.014828,0.999861,0.013579,-0.003974,0.008869,0.773797,-0.111205,-0.556867,-0.280660
16745,NaN,14.647930,-3.412212,1.801332,-0.001706,-6.408745,3.912263,2.267148,-0.038634,1.548674,-0.684082,0.074463,-0.645752,0.146735,-0.033188,0.017662,0.999906,0.011335,-0.000193,0.007743,0.777065,-0.107022,-0.559243,-0.268260
16746,NaN,8.400593,-3.027436,3.215930,-2.260572,-3.505233,-1.287426,1.074055,0.052574,1.215437,-0.690430,0.074463,-0.635010,0.084197,-0.029935,0.031976,0.999967,0.005370,0.000263,0.006077,0.779398,-0.106182,-0.559803,-0.260546
16747,NaN,8.182612,-1.562668,2.533664,-0.944250,-2.462497,-1.514470,0.030062,-0.518607,0.920822,-0.688721,0.083008,-0.639404,0.081831,-0.015254,0.025547,0.999986,0.000150,-0.002593,0.004604,0.779166,-0.109581,-0.561329,-0.256519
16748,NaN,7.073603,-1.859691,0.814386,0.029442,-3.113841,-3.144861,-0.433267,-0.984334,0.723460,-0.697266,0.091553,-0.631104,0.070761,-0.018323,0.008532,0.999979,-0.002166,-0.004922,0.003617,0.777084,-0.114569,-0.564192,-0.254364
16749,NaN,5.709615,-2.243897,-1.117289,1.050671,-3.905643,-5.066685,-0.555662,-1.161325,0.539527,-0.701660,0.098145,-0.620361,0.057220,-0.022315,-0.010779,0.999976,-0.002778,-0.005807,0.002698,0.774169,-0.120006,-0.567637,-0.253080
16750,NaN,5.299463,-0.377720,-2.094166,2.699499,-2.645853,-5.532004,-0.402849,-1.198608,0.424886,-0.712402,0.095947,-0.614014,0.053127,-0.003706,-0.020616,0.999978,-0.002014,-0.005993,0.002124,0.771052,-0.124295,-0.571491,-0.251846
16751,NaN,5.334316,1.328057,-3.744497,4.927492,-1.960372,-5.798222,0.341574,-1.333975,0.470739,-0.720947,0.100098,-0.607666,0.053560,0.013470,-0.037065,0.999974,0.001708,-0.006670,0.002354,0.768034,-0.126252,-0.576750,-0.248080
16752,NaN,5.647347,2.541082,-3.561296,5.436870,-0.824325,-5.252988,1.505048,-1.799758,0.707192,-0.733398,0.097900,-0.594971,0.056699,0.025876,-0.034910,0.999925,0.007525,-0.008999,0.003536,0.764621,-0.124744,-0.585030,-0.239862
16753,NaN,6.371694,3.213041,-4.210606,6.395430,-0.525527,-4.571831,2.644210,-2.188928,0.985391,-0.747803,0.078613,-0.582031,0.064008,0.032992,-0.040974,0.999841,0.013220,-0.010944,0.004927,0.760921,-0.120346,-0.595889,-0.226787
16754,NaN,7.927339,3.122943,-5.207471,7.392663,-1.070260,-3.186830,3.221282,-2.473325,1.375358,-0.756348,0.080811,-0.565186,0.079684,0.032599,-0.050573,0.999770,0.016105,-0.012366,0.006876,0.756882,-0.114976,-0.607979,-0.210410
16755,NaN,9.161220,2.248827,-5.075461,6.979450,-1.629734,-1.852747,3.043649,-2.506990,1.697668,-0.766602,0.072021,-0.548096,0.092036,0.024025,-0.049245,0.999770,0.015217,-0.012534,0.008488,0.752598,-0.111353,-0.619637,-0.192994
16756,NaN,10.304102,1.256559,-3.757295,5.448696,-1.799295,-0.382260,2.315986,-2.267573,1.741664,-0.781494,0.078369,-0.533447,0.103340,0.013890,-0.036247,0.999831,0.011579,-0.011337,0.008708,0.748421,-0.110214,-0.629323,-0.177962
16757,NaN,11.594261,0.990185,-2.984806,4.716314,-1.589643,1.120639,1.305135,-1.809587,1.543640,-0.790283,0.089111,-0.524902,0.116124,0.010988,-0.028729,0.999908,0.006525,-0.009048,0.007718,0.744709,-0.111875,-0.636463,-0.166753
16758,NaN,11.202427,-0.066417,-2.474649,3.695122,-2.091709,0.845165,0.387586,-1.312116,1.231211,-0.792480,0.091309,-0.512207,0.112184,0.000073,-0.024011,0.999958,0.001938,-0.006560,0.006156,0.741751,-0.115451,-0.640950,-0.160186
16759,NaN,9.573937,1.873167,-1.270062,3.061095,0.450787,-0.474211,-0.365388,-1.224652,0.789349,-0.799072,0.104004,-0.503906,0.095740,0.019087,-0.012149,0.999972,-0.001827,-0.006123,0.003947,0.738170,-0.120439,-0.644843,-0.157406
16760,NaN,10.199597,2.216786,0.911648,1.188138,1.643627,0.466538,-0.557004,-1.309866,0.288435,-0.805420,0.102051,-0.491211,0.101901,0.022341,0.009722,0.999974,-0.002785,-0.006549,0.001442,0.733825,-0.124465,-0.649042,-0.157336
16761,NaN,9.957314,1.245534,2.936052,-1.187040,1.631445,0.446320,0.045781,-1.459757,0.138645,-0.811768,0.104004,-0.482666,0.099347,0.012517,0.030089,0.999973,0.000229,-0.007299,0.000693,0.729141,-0.125959,-0.654467,-0.155439
16762,NaN,9.116827,1.418247,4.446530,-2.703883,2.485207,-0.251779,0.559286,-1.175658,0.240274,-0.815918,0.099854,-0.476318,0.090888,0.014166,0.045040,0.999978,0.002796,-0.005878,0.001201,0.725822,-0.125630,-0.659016,-0.151981
16763,NaN,7.790871,0.470057,4.699553,-3.514528,1.818571,-1.606316,0.713178,-1.017176,0.328981,-0.815918,0.104004,-0.463623,0.077661,0.004660,0.047408,0.999979,0.003566,-0.005086,0.001645,0.723115,-0.124915,-0.663132,-0.147506
16764,NaN,7.724307,1.205647,4.697631,-3.319484,2.535205,-1.704716,0.581559,-0.988743,0.446568,-0.822266,0.106201,-0.450928,0.076982,0.012091,0.047392,0.999981,0.002908,-0.004944,0.002233,0.720520,-0.125033,-0.666838,-0.143335
16765,NaN,8.597992,3.417691,4.178462,-2.030069,4.411246,-0.897279,0.351360,-0.833565,0.459009,-0.824463,0.104004,-0.450928,0.085726,0.034300,0.042202,0.999987,0.001757,-0.004168,0.002295,0.718244,-0.125940,-0.669890,-0.139687
16766,NaN,8.218149,2.318304,3.623191,-2.019918,3.244975,-1.361098,0.254499,-0.951435,0.203009,-0.830811,0.108154,-0.444580,0.081984,0.023220,0.036652,0.999987,0.001272,-0.004757,0.001015,0.715355,-0.126382,-0.673342,-0.137496
16767,NaN,8.785911,0.426879,3.872740,-2.995601,1.606414,-0.822831,0.141185,-1.048253,0.193960,-0.832764,0.105957,-0.431885,0.087650,0.004326,0.039190,0.999986,0.000706,-0.005241,0.000970,0.712029,-0.127281,-0.677105,-0.135440
16768,NaN,8.717876,-0.165086,2.728674,-2.215672,0.685129,-0.975532,-0.153171,-0.660292,0.243506,-0.843506,0.110352,-0.434082,0.087090,-0.001524,0.027576,0.999994,-0.000766,-0.003301,0.001218,0.709861,-0.129110,-0.679186,-0.134662
16769,NaN,8.779852,-0.636814,0.631654,-0.471508,-0.479333,-1.012797,-0.348218,-0.380797,0.255052,-0.837402,0.112549,-0.431885,0.087794,-0.006245,0.006495,0.999996,-0.001741,-0.001904,0.001275,0.708500,-0.131527,-0.680172,-0.134519
16770,NaN,8.651281,-0.596550,-1.257865,1.275003,-1.108740,-1.214562,-0.438497,-0.193784,0.257215,-0.837402,0.116699,-0.425537,0.086533,-0.005882,-0.012482,0.999996,-0.002192,-0.000969,0.001286,0.707727,-0.134099,-0.680386,-0.134963
16771,NaN,8.541680,-0.285293,-2.029818,2.088810,-1.083791,-1.349588,-0.523531,-0.261960,0.247919,-0.839600,0.123291,-0.427734,0.085447,-0.002800,-0.020179,0.999995,-0.002618,-0.001310,0.001240,0.706673,-0.136997,-0.680795,-0.135506
16772,NaN,8.652661,0.010714,-2.420983,2.545005,-0.938264,-1.246922,-0.453341,-0.369442,0.235165,-0.839600,0.121094,-0.417236,0.086571,0.000154,-0.024050,0.999995,-0.002267,-0.001847,0.001176,0.705266,-0.139663,-0.681623,-0.135956
16773,NaN,8.937908,0.203469,-2.457124,2.632785,-0.739808,-0.953459,0.034303,-0.520685,0.278777,-0.842041,0.129639,-0.419434,0.089440,0.002164,-0.024338,0.999996,0.000172,-0.002603,0.001394,0.703705,-0.140849,-0.683321,-0.134288
16774,NaN,9.014199,-0.006284,-1.955641,2.050987,-0.683529,-0.845753,0.831345,-0.823005,0.377915,-0.850342,0.127441,-0.410889,0.090221,0.000188,-0.019185,0.999981,0.004157,-0.004115,0.001890,0.701724,-0.139779,-0.686490,-0.129527
16775,NaN,9.055125,-0.535547,-1.055719,0.955324,-0.746288,-0.761408,1.789218,-1.339262,0.498100,-0.854248,0.118652,-0.389648,0.090632,-0.005039,-0.009996,0.999934,0.008946,-0.006696,0.002490,0.698646,-0.136110,-0.691989,-0.120495
16776,NaN,8.605384,0.057022,0.873761,-0.756806,0.576163,-1.215466,2.478978,-1.934536,0.493790,-0.862549,0.112305,-0.383057,0.085962,0.000667,0.009577,0.999873,0.012394,-0.009672,0.002469,0.693853,-0.130322,-0.699811,-0.108853
16777,NaN,9.730531,0.520003,2.939825,-2.743844,1.792539,-0.176827,2.328580,-2.144188,0.306896,-0.871094,0.112305,-0.368408,0.096974,0.004998,0.030498,0.999874,0.011642,-0.010720,0.001534,0.687816,-0.124406,-0.708397,-0.098012
16778,NaN,10.695452,0.067329,3.560208,-3.701857,1.625782,0.709757,1.641898,-1.804805,0.289444,-0.875000,0.105713,-0.351318,0.106627,0.000530,0.036570,0.999925,0.008209,-0.009024,0.001447,0.682538,-0.120674,-0.715170,-0.090062
16779,NaN,10.833599,0.089273,3.613680,-3.913298,1.713972,0.778821,0.918807,-1.292405,0.467672,-0.881592,0.112305,-0.347168,0.108097,0.000978,0.036840,0.999966,0.004594,-0.006462,0.002338,0.678583,-0.119824,-0.719773,-0.084226
16780,NaN,11.037231,1.114247,2.871540,-3.024428,2.558520,0.939683,0.480728,-0.870072,0.529755,-0.879395,0.114258,-0.338623,0.110216,0.011365,0.029222,0.999984,0.002404,-0.004350,0.002649,0.675956,-0.120479,-0.722594,-0.080167
16781,NaN,11.459922,1.690322,1.230882,-1.384493,2.755678,1.420777,0.509731,-0.600638,0.529904,-0.879395,0.116455,-0.336670,0.114516,0.017175,0.012696,0.999989,0.002549,-0.003003,0.002650,0.674299,-0.121023,-0.724495,-0.076039
16782,NaN,11.807754,2.452939,0.134706,-0.194174,3.288645,1.789230,0.695937,-0.414173,0.553326,-0.885742,0.116455,-0.336670,0.118006,0.024850,0.001678,0.999988,0.003480,-0.002071,0.002767,0.673425,-0.120852,-0.725808,-0.071392
16783,NaN,12.325281,3.469971,0.306062,-0.154316,4.430782,2.203579,0.681813,-0.266972,0.536689,-0.879639,0.118652,-0.334473,0.123155,0.035019,0.003344,0.999990,0.003409,-0.001335,0.002683,0.673102,-0.120629,-0.726575,-0.066860
16784,NaN,12.822406,4.526255,1.222977,-0.825987,5.795297,2.521352,0.513478,-0.259699,0.437464,-0.885986,0.120850,-0.330322,0.128109,0.045511,0.012513,0.999993,0.002567,-0.001298,0.002187,0.672614,-0.120592,-0.727347,-0.063357
16785,NaN,13.095533,4.779719,1.693976,-1.270024,6.234455,2.706360,0.377665,-0.243088,0.282996,-0.881592,0.120850,-0.332520,0.130867,0.047950,0.017189,0.999996,0.001888,-0.001215,0.001415,0.672092,-0.120407,-0.728075,-0.060839
16786,NaN,13.129183,4.290869,1.517925,-1.259421,5.750855,2.774312,0.399798,-0.080561,0.118883,-0.879395,0.118652,-0.328125,0.131260,0.042956,0.015318,0.999998,0.001999,-0.000403,0.000594,0.672077,-0.119536,-0.728389,-0.058926
16787,NaN,13.042688,3.703162,1.467207,-1.364379,5.166696,2.734087,0.466631,0.137185,0.018695,-0.877197,0.112061,-0.334473,0.130433,0.037010,0.014669,0.999997,0.002333,0.000686,0.000093,0.672936,-0.117890,-0.727999,-0.057243
16788,NaN,12.289431,3.672655,2.404614,-2.221111,5.278367,1.913613,0.499199,0.312613,-0.084581,-0.883545,0.110107,-0.336670,0.122947,0.036615,0.023945,0.999996,0.002496,0.001563,-0.000423,0.674345,-0.115827,-0.727132,-0.055886
16789,NaN,11.974064,3.628715,3.893597,-3.629031,5.516540,1.505590,0.507687,0.538498,-0.189467,-0.879395,0.114258,-0.344971,0.119879,0.036075,0.038705,0.999993,0.002538,0.002692,-0.000947,0.676627,-0.113047,-0.725507,-0.055096
16790,NaN,12.484235,3.345945,5.018462,-4.763581,5.487081,1.995587,0.406950,0.863307,-0.340057,-0.881348,0.105713,-0.349121,0.125114,0.033145,0.049713,0.999987,0.002035,0.004317,-0.001700,0.679891,-0.110211,-0.722876,-0.055249
16791,NaN,13.052242,2.506217,5.454497,-5.310936,4.722316,2.672677,0.243841,1.208848,-0.555596,-0.879150,0.099365,-0.361816,0.130918,0.024633,0.053785,0.999977,0.001219,0.006044,-0.002778,0.684336,-0.106946,-0.719023,-0.057030
16792,NaN,12.923769,1.599493,4.720116,-4.646714,3.537172,2.747269,0.319308,1.741216,-0.687701,-0.862061,0.093018,-0.378906,0.129696,0.015475,0.046098,0.999955,0.001597,0.008706,-0.003438,0.690545,-0.102893,-0.713485,-0.059155
16793,NaN,12.094770,1.060852,3.218277,-3.064342,2.461791,2.116579,0.725846,2.400810,-0.674787,-0.859619,0.080322,-0.395508,0.121357,0.010086,0.030765,0.999916,0.003629,0.012004,-0.003374,0.699368,-0.097140,-0.705558,-0.060305
16794,NaN,10.679997,0.945321,2.000300,-1.632372,1.848240,0.811229,1.221769,2.983716,-0.648491,-0.846924,0.078125,-0.427246,0.107113,0.008990,0.018462,0.999865,0.006109,0.014918,-0.003242,0.710202,-0.089679,-0.695706,-0.059694
16795,NaN,8.589156,0.561293,2.318394,-1.810056,1.306817,-1.182943,1.570668,3.194494,-0.608872,-0.835693,0.058838,-0.446289,0.086264,0.005176,0.021850,0.999837,0.007853,0.015972,-0.003044,0.721840,-0.080940,-0.684857,-0.058016
16796,NaN,7.996102,-0.614617,3.274849,-2.771796,0.182019,-1.607974,1.517260,2.964950,-0.721438,-0.824951,0.046143,-0.471680,0.080411,-0.006678,0.031509,0.999855,0.007586,0.014824,-0.003607,0.732299,-0.072134,-0.674782,-0.056607
16797,NaN,10.966120,-0.484588,3.938864,-2.891108,0.302512,1.480874,0.922996,2.835279,-0.874267,-0.809814,0.033447,-0.486328,0.110182,-0.005504,0.037805,0.999879,0.004615,0.014176,-0.004371,0.741855,-0.064992,-0.664877,-0.058023
16798,NaN,14.283060,0.876101,1.091900,0.852310,0.945176,4.481604,-0.156641,3.160508,-1.041701,-0.796875,0.024902,-0.513916,0.143022,0.008024,0.008653,0.999861,-0.000783,0.015802,-0.005208,0.751910,-0.061194,-0.653348,-0.063417
16799,NaN,16.284490,1.596218,-3.701719,6.366511,0.502704,5.699272,-0.970027,3.194452,-1.204339,-0.777588,0.020752,-0.541260,0.162317,0.014795,-0.039686,0.999843,-0.004850,0.015971,-0.006021,0.761432,-0.059940,-0.641390,-0.072438
16800,NaN,15.428581,-1.667107,-6.176407,8.402077,-3.446320,4.204215,-0.673217,2.792133,-1.316390,-0.766846,0.012207,-0.560303,0.153289,-0.017895,-0.063850,0.999875,-0.003366,0.013960,-0.006582,0.769617,-0.057272,-0.630825,-0.080427
16801,NaN,14.404667,-4.475823,-2.494109,4.419666,-5.729434,3.654777,0.283530,2.515335,-1.280458,-0.751709,-0.002930,-0.572998,0.143427,-0.045641,-0.026812,0.999899,0.001418,0.012576,-0.006402,0.776934,-0.051045,-0.621670,-0.085406
16802,NaN,13.011830,-3.861565,0.576258,1.614291,-4.689805,2.833955,1.184498,2.504810,-1.172074,-0.734375,-0.013428,-0.592041,0.129946,-0.039404,0.003903,0.999887,0.005922,0.012524,-0.005860,0.784439,-0.041734,-0.612669,-0.086898
16803,NaN,13.017511,0.207498,4.083374,-0.667726,-0.321556,3.811245,1.021160,2.472623,-0.979769,-0.723389,-0.026367,-0.604736,0.130674,0.001233,0.039228,0.999899,0.005106,0.012363,-0.004899,0.791527,-0.033592,-0.603785,-0.088313
16804,NaN,10.924208,6.094007,3.082733,1.072028,5.284008,1.887729,-0.506660,1.788866,-1.694992,-0.712646,-0.036865,-0.619385,0.110023,0.060086,0.029693,0.999921,-0.002533,0.008944,-0.008475,0.796036,-0.029695,-0.596714,-0.096835
16805,NaN,13.796902,2.292397,1.828730,2.492099,0.730857,4.050830,-0.379699,1.463282,-2.268005,-0.701660,-0.049805,-0.629883,0.138346,0.021390,0.017234,0.999907,-0.001898,0.007316,-0.011340,0.798965,-0.023734,-0.591243,-0.107347
16806,NaN,15.169580,-1.553975,3.265397,0.898867,-3.320382,5.397503,-0.698474,1.373275,-2.161989,-0.690918,-0.056152,-0.638428,0.151737,-0.017068,0.031670,0.999912,-0.003492,0.006866,-0.010810,0.801714,-0.019400,-0.585584,-0.118194
16807,NaN,13.347127,-2.295430,-0.006699,3.357185,-4.579407,2.482320,-1.180702,1.090126,-1.773018,-0.679932,-0.064697,-0.644775,0.133258,-0.024139,-0.000654,0.999928,-0.005903,0.005450,-0.008865,0.803556,-0.018313,-0.580809,-0.128931
16808,NaN,10.422896,-1.913006,0.568363,2.111749,-3.781345,-0.124696,-0.382668,1.262497,-1.781695,-0.669189,-0.071289,-0.651123,0.104086,-0.020048,0.005064,0.999939,-0.001913,0.006312,-0.008908,0.805992,-0.013868,-0.575615,-0.137300
16809,NaN,9.519418,0.298110,2.469436,0.684494,-1.314458,-0.086106,-0.563019,1.334926,-1.807409,-0.658447,-0.079834,-0.663574,0.095378,0.002188,0.024051,0.999933,-0.002815,0.006674,-0.009037,0.808421,-0.010019,-0.570043,-0.146312
16810,NaN,8.225692,-0.327867,2.170089,0.487599,-1.845989,-1.516252,-0.595460,1.313371,-1.813150,-0.645508,-0.088135,-0.674316,0.082363,-0.003961,0.021171,0.999933,-0.002977,0.006567,-0.009066,0.810757,-0.006303,-0.564349,-0.155385
16811,NaN,7.633379,-0.081585,2.783031,-0.134992,-1.495710,-1.827493,-0.673183,1.045471,-1.751806,-0.636719,-0.096924,-0.680664,0.076467,-0.001392,0.027435,0.999942,-0.003366,0.005227,-0.008759,0.812266,-0.003276,-0.559626,-0.164414
16812,NaN,7.049569,-0.461243,2.387394,-0.024658,-1.899139,-2.601569,-0.671344,0.909178,-1.734942,-0.627930,-0.105469,-0.682617,0.070560,-0.005145,0.023570,0.999946,-0.003357,0.004546,-0.008675,0.813333,-0.000406,-0.555378,-0.173336
16813,NaN,7.438038,0.734062,2.808056,0.094190,-0.919072,-1.882139,-1.024910,0.778891,-1.707937,-0.615234,-0.107422,-0.688965,0.074549,0.006847,0.027755,0.999943,-0.005124,0.003894,-0.008540,0.813964,0.000868,-0.551305,-0.183099
16814,NaN,6.943047,0.568262,1.990743,0.660614,-1.197657,-2.697911,-1.562767,0.858802,-1.676679,-0.606689,-0.109619,-0.695312,0.069560,0.005254,0.019567,0.999925,-0.007814,0.004294,-0.008383,0.814745,-0.000090,-0.546329,-0.194205
16815,NaN,6.249140,1.037616,1.762420,0.832309,-0.687556,-3.326690,-1.983975,0.797040,-1.652853,-0.602783,-0.101074,-0.697510,0.062645,0.010031,0.017274,0.999909,-0.009920,0.003985,-0.008264,0.815254,-0.002879,-0.541095,-0.206322
16816,NaN,5.656457,0.844184,0.956202,1.322297,-0.936225,-4.245210,-2.248039,0.642627,-1.600106,-0.594482,-0.094482,-0.712402,0.056660,0.008094,0.009288,0.999900,-0.011240,0.003213,-0.008000,0.815232,-0.007056,-0.536123,-0.218906
16817,NaN,5.424642,0.639507,0.422151,1.657639,-1.252866,-4.743577,-2.390282,0.466113,-1.533051,-0.590332,-0.090332,-0.716797,0.054303,0.006028,0.004021,0.999896,-0.011951,0.002330,-0.007665,0.814637,-0.012207,-0.531609,-0.231536
16818,NaN,5.202110,0.304425,-0.000926,1.819974,-1.661349,-5.221206,-2.508274,0.335189,-1.455795,-0.588623,-0.077393,-0.720947,0.052041,0.002664,-0.000131,0.999893,-0.012541,0.001676,-0.007279,0.813607,-0.018170,-0.527370,-0.244120
16819,NaN,5.216301,0.243424,-0.385304,2.112383,-1.906365,-5.417172,-2.574517,0.215896,-1.349129,-0.584717,-0.066650,-0.725342,0.052173,0.002032,-0.003937,0.999894,-0.012872,0.001079,-0.006745,0.812212,-0.024837,-0.523429,-0.256352
16820,NaN,5.003176,-0.090465,-0.419780,1.900934,-2.192612,-5.714560,-2.585328,0.128101,-1.213301,-0.580811,-0.055908,-0.725586,0.050022,-0.001263,-0.004215,0.999898,-0.012926,0.000640,-0.006066,0.810592,-0.031999,-0.519690,-0.268027
16821,NaN,4.956583,-0.461677,-0.401309,1.662560,-2.539948,-5.847070,-2.557366,0.051909,-1.080070,-0.576904,-0.045166,-0.729736,0.049539,-0.004935,-0.003964,0.999904,-0.012786,0.000260,-0.005400,0.808792,-0.039505,-0.516204,-0.278977
16822,NaN,4.695655,-0.737334,-0.305839,1.326789,-2.672353,-6.099968,-2.469507,0.002782,-0.941001,-0.572754,-0.038818,-0.727783,0.046921,-0.007631,-0.002966,0.999913,-0.012347,0.000014,-0.004705,0.806933,-0.047061,-0.512887,-0.289124
16823,NaN,4.493214,-0.829763,-0.153810,1.053981,-2.634478,-6.228052,-2.319495,-0.064815,-0.796375,-0.575439,-0.025879,-0.732178,0.044899,-0.008493,-0.001426,0.999925,-0.011597,-0.000324,-0.003982,0.805010,-0.054478,-0.509986,-0.298170
16824,NaN,4.181595,-0.832135,0.027264,0.778555,-2.448247,-6.409930,-2.139428,-0.143953,-0.632021,-0.571533,-0.010986,-0.729980,0.041789,-0.008450,0.000393,0.999938,-0.010697,-0.000720,-0.003160,0.803072,-0.061693,-0.507513,-0.306103
16825,NaN,3.912875,-0.722385,0.416953,0.427373,-2.087521,-6.426563,-1.936002,-0.201553,-0.471546,-0.567383,-0.006592,-0.734375,0.039107,-0.007275,0.004279,0.999950,-0.009680,-0.001008,-0.002358,0.801198,-0.068601,-0.505536,-0.312744
16826,NaN,3.925671,-0.494660,1.104951,0.014667,-1.609001,-6.032825,-1.768138,-0.309279,-0.315848,-0.576416,0.006104,-0.730225,0.039232,-0.004910,0.011154,0.999958,-0.008841,-0.001546,-0.001579,0.799287,-0.075372,-0.504095,-0.318351
16827,NaN,4.232268,-0.382859,1.919228,-0.459599,-1.266863,-5.348853,-1.648865,-0.503636,-0.148801,-0.574463,0.016846,-0.726074,0.042271,-0.003701,0.019330,0.999963,-0.008244,-0.002518,-0.000744,0.797124,-0.082418,-0.503583,-0.322806
16828,NaN,4.707435,-0.653343,2.595274,-1.004001,-1.324794,-4.659163,-1.497273,-0.742768,0.061094,-0.585449,0.025391,-0.721924,0.046979,-0.006324,0.026175,0.999965,-0.007486,-0.003714,0.000305,0.794712,-0.089740,-0.504082,-0.326007
16829,NaN,5.422035,-1.034726,3.277710,-1.561275,-1.528779,-3.776372,-1.124120,-0.969482,0.334278,-0.587646,0.031982,-0.715576,0.054077,-0.010071,0.033097,0.999971,-0.005621,-0.004847,0.001671,0.792277,-0.096674,-0.506001,-0.326976
16830,NaN,6.755847,-1.596593,4.131132,-2.199762,-2.011803,-2.304728,-0.457976,-1.157599,0.663980,-0.594238,0.038330,-0.707031,0.067370,-0.015647,0.041738,0.999975,-0.002290,-0.005788,0.003320,0.790198,-0.102064,-0.509502,-0.324928
16831,NaN,9.066198,-1.494454,5.616194,-2.655553,-2.025255,0.425260,0.348682,-1.307496,1.018738,-0.604736,0.033936,-0.700684,0.090367,-0.014582,0.056728,0.999964,0.001743,-0.006537,0.005094,0.788664,-0.105466,-0.514751,-0.319246
16832,NaN,11.782661,0.306486,7.382872,-2.220672,-0.662948,3.900697,0.858193,-1.397418,1.342268,-0.613281,0.038330,-0.694336,0.117284,0.003534,0.074664,0.999944,0.004291,-0.006987,0.006711,0.787622,-0.107767,-0.520892,-0.310981
16833,NaN,13.514492,2.523059,9.162395,-1.883818,1.533959,6.528902,0.865839,-1.420277,1.511360,-0.621826,0.044678,-0.685791,0.134295,0.025848,0.092691,0.999937,0.004329,-0.007101,0.007557,0.786684,-0.110578,-0.527025,-0.301903
16834,NaN,14.667538,3.295078,10.160380,-2.010358,2.502536,8.045501,0.474213,-1.331710,1.382359,-0.628174,0.044678,-0.681641,0.145763,0.033718,0.102656,0.999951,0.002371,-0.006658,0.006912,0.785490,-0.114366,-0.532186,-0.294457
16835,NaN,15.739832,1.936308,11.347138,-3.532578,1.918913,9.268223,-0.122513,-1.117709,0.986243,-0.634766,0.053223,-0.671143,0.156663,0.020207,0.114336,0.999972,-0.000613,-0.005588,0.004931,0.783873,-0.119197,-0.535839,-0.290193
16836,NaN,16.758498,1.650642,13.085331,-4.805931,2.489937,10.814843,-1.033924,-0.766805,0.494048,-0.639160,0.055176,-0.660645,0.167039,0.017598,0.131405,0.999976,-0.005170,-0.003834,0.002470,0.781905,-0.125689,-0.537034,-0.290554
16837,NaN,17.603898,3.340363,11.840333,-2.577573,3.151747,11.274474,-1.636267,-0.273887,-0.047010,-0.639404,0.068115,-0.671143,0.175885,0.034331,0.118366,0.999966,-0.008181,-0.001369,-0.000235,0.780052,-0.132446,-0.535731,-0.294906
16838,NaN,15.062645,5.752824,8.526370,0.851988,4.193444,7.917663,-1.531766,0.071840,-0.652875,-0.637451,0.070312,-0.664795,0.150845,0.057687,0.084768,0.999965,-0.007659,0.000359,-0.003264,0.778244,-0.136567,-0.533603,-0.301584
16839,NaN,11.004224,4.782940,5.807117,1.364828,3.229499,3.048050,-1.272781,0.260273,-0.994637,-0.633057,0.065918,-0.669189,0.110355,0.047649,0.057624,0.999967,-0.006364,0.001301,-0.004973,0.776553,-0.138547,-0.531312,-0.308994
16840,NaN,8.002145,2.198107,4.709550,-0.134428,1.562464,-0.400667,-1.067116,0.309671,-0.953544,-0.633057,0.065918,-0.671143,0.080199,0.021849,0.046855,0.999973,-0.005336,0.001548,-0.004768,0.775147,-0.139681,-0.529104,-0.315729
16841,NaN,7.152146,0.374465,3.318527,-0.472654,-0.348323,-1.941144,-0.468696,0.178000,-0.676949,-0.626709,0.065918,-0.673340,0.071563,0.003580,0.033113,0.999991,-0.002343,0.000890,-0.003385,0.774225,-0.139487,-0.528121,-0.319698
16842,NaN,7.111952,-2.040546,1.478900,-0.700828,-3.208945,-3.019876,0.753226,-0.057078,-0.157453,-0.624268,0.059570,-0.666992,0.071099,-0.020517,0.014732,0.999993,0.003766,-0.000285,-0.000787,0.774347,-0.136252,-0.529649,-0.318267
16843,NaN,8.881776,-3.405149,0.075595,-0.100296,-5.629999,-2.145911,2.113690,-0.626749,0.623272,-0.636719,0.044678,-0.660400,0.088921,-0.033782,0.000677,0.999934,0.010568,-0.003134,0.003116,0.775079,-0.130780,-0.534958,-0.309787
16844,NaN,13.248404,-2.915282,0.735656,0.787386,-6.301525,2.196844,2.995035,-1.160508,1.271434,-0.642578,0.031738,-0.651855,0.132622,-0.028424,0.007697,0.999851,0.014974,-0.005802,0.006357,0.775792,-0.124358,-0.543180,-0.296035
16845,NaN,17.382052,-1.987941,1.388962,1.845260,-6.362713,6.439109,3.358943,-1.239312,1.680273,-0.646484,0.018799,-0.641113,0.173892,-0.018660,0.014647,0.999804,0.016794,-0.006196,0.008401,0.776858,-0.117800,-0.551800,-0.279518
16846,NaN,16.559452,-2.065840,1.196333,1.822523,-6.015809,5.692042,3.380269,-0.849139,1.824473,-0.646240,0.014404,-0.634766,0.165723,-0.019353,0.012332,0.999807,0.016900,-0.004245,0.009122,0.778910,-0.110875,-0.558638,-0.262543
16847,NaN,11.663937,-3.402022,1.862921,-0.490916,-5.253475,1.289089,2.616168,-0.501318,1.724402,-0.654541,0.010254,-0.634766,0.116882,-0.033256,0.018484,0.999874,0.013080,-0.002506,0.008622,0.781128,-0.106264,-0.563011,-0.248126
16848,NaN,8.314634,-3.579429,2.270614,-1.641889,-4.242131,-1.663529,1.359710,-0.491621,1.487194,-0.650391,0.010254,-0.626221,0.083354,-0.035329,0.022670,0.999946,0.006798,-0.002458,0.007436,0.782273,-0.105751,-0.565794,-0.238206
16849,NaN,7.597130,-2.689218,1.879666,-1.022389,-3.374884,-2.326350,0.297092,-0.905215,1.293601,-0.661377,0.020996,-0.622070,0.076057,-0.026429,0.019101,0.999968,0.001485,-0.004526,0.006468,0.781387,-0.109465,-0.568998,-0.231718
16850,NaN,7.252226,-2.866683,0.731387,-0.245992,-3.842234,-2.991909,-0.414185,-1.081935,1.091176,-0.669922,0.029541,-0.615723,0.072636,-0.028255,0.007765,0.999968,-0.002071,-0.005410,0.005456,0.779325,-0.115445,-0.572127,-0.228024
16851,NaN,5.800276,-1.753738,-0.791242,1.189515,-3.131697,-4.701755,-0.809976,-1.147729,0.902580,-0.676514,0.038086,-0.609619,0.058125,-0.017306,-0.007509,0.999965,-0.004050,-0.005739,0.004513,0.776575,-0.122646,-0.575148,-0.226038
16852,NaN,5.223466,-0.444363,-1.566234,2.307249,-2.163711,-5.348429,-0.798585,-1.264214,0.722283,-0.683105,0.044434,-0.598877,0.052348,-0.004316,-0.015314,0.999966,-0.003993,-0.006321,0.003611,0.773243,-0.129256,-0.578689,-0.224737
16853,NaN,5.439971,0.576381,-2.145562,3.309846,-1.535473,-5.206646,-0.312707,-1.347973,0.696377,-0.689697,0.052979,-0.588379,0.054522,0.005920,-0.021098,0.999970,-0.001564,-0.006740,0.003482,0.769891,-0.134151,-0.583108,-0.221939
16854,NaN,6.574373,1.577600,-2.881917,4.630272,-1.137317,-4.219655,0.621709,-1.649588,0.858938,-0.700195,0.052979,-0.575684,0.065909,0.016147,-0.028226,0.999952,0.003108,-0.008248,0.004295,0.766418,-0.136094,-0.589541,-0.215692
16855,NaN,7.249659,2.525313,-3.411065,5.613520,-0.513396,-3.584513,1.596562,-2.103490,1.110186,-0.710693,0.050781,-0.565186,0.072706,0.025923,-0.033142,0.999897,0.007983,-0.010517,0.005551,0.762401,-0.135647,-0.598555,-0.205127
16856,NaN,8.656147,3.256167,-3.791125,6.449431,-0.006670,-2.177335,2.100134,-2.519589,1.369044,-0.723145,0.041992,-0.539551,0.086800,0.033543,-0.036470,0.999842,0.010500,-0.012597,0.006845,0.757572,-0.134310,-0.609287,-0.191872
16857,NaN,10.154269,3.535829,-3.421251,6.363207,0.534038,-0.510677,1.916733,-2.579758,1.526448,-0.737793,0.039795,-0.529053,0.101694,0.036451,-0.032556,0.999842,0.009583,-0.012898,0.007632,0.752303,-0.134271,-0.619851,-0.178316
16858,NaN,11.826858,2.213998,-2.471492,5.056242,-0.104005,1.380965,1.374135,-2.143322,1.475735,-0.739990,0.046387,-0.512207,0.118355,0.023176,-0.023290,0.999892,0.006870,-0.010716,0.007378,0.747820,-0.135581,-0.628077,-0.167038
16859,NaN,11.826094,2.054551,-1.628026,4.102449,0.364875,1.578545,0.456528,-1.472395,1.233979,-0.746582,0.052734,-0.503662,0.118246,0.021311,-0.015362,0.999951,0.002283,-0.007362,0.006170,0.744436,-0.139062,-0.633199,-0.159799
16860,NaN,10.071405,1.765536,-1.342092,3.383944,0.488221,-0.083312,-0.348544,-1.122567,0.728545,-0.749023,0.061279,-0.499512,0.100722,0.017999,-0.012887,0.999976,-0.001743,-0.005613,0.003643,0.741207,-0.143570,-0.636575,-0.157396
16861,NaN,8.764288,0.450497,0.475722,0.944988,0.201337,-1.077270,-0.311292,-1.178307,0.317273,-0.755371,0.061279,-0.486816,0.087606,0.004652,0.005266,0.999980,-0.001556,-0.005891,0.001586,0.737390,-0.146729,-0.640576,-0.156172
16862,NaN,8.951874,-0.398200,2.127227,-0.957983,0.176346,-0.654643,0.120922,-1.241037,0.213406,-0.759521,0.063232,-0.478271,0.089389,-0.003900,0.021825,0.999980,0.000605,-0.006205,0.001067,0.733658,-0.147943,-0.645074,-0.154073
16863,NaN,9.125191,1.004451,2.836888,-1.079268,1.801845,-0.436454,0.538992,-0.904661,0.374328,-0.763672,0.059082,-0.474121,0.091103,0.010138,0.028808,0.999984,0.002695,-0.004523,0.001872,0.731337,-0.147937,-0.648637,-0.150104
16864,NaN,9.129108,1.898107,1.869937,0.111032,2.262476,-0.576412,0.139189,-0.405358,0.226926,-0.763916,0.067627,-0.465576,0.091231,0.019072,0.018898,0.999997,0.000696,-0.002027,0.001135,0.730295,-0.148478,-0.650052,-0.148512
16865,NaN,8.657213,0.740389,1.489530,-0.116414,1.107285,-1.067741,0.236090,-0.802268,0.309299,-0.765869,0.061035,-0.457031,0.086500,0.007520,0.015251,0.999990,0.001180,-0.004011,0.001546,0.728010,-0.149278,-0.653029,-0.145846
16866,NaN,8.335613,0.637552,2.985225,-1.627420,1.690102,-1.251485,0.498269,-1.366068,0.479673,-0.770020,0.063232,-0.448730,0.083134,0.006500,0.030437,0.999971,0.002491,-0.006830,0.002398,0.724252,-0.150033,-0.657985,-0.141438
16867,NaN,8.717658,1.530259,3.850866,-2.128185,2.925172,-0.863887,0.494095,-1.333292,0.436595,-0.778564,0.061035,-0.440186,0.086884,0.015396,0.039126,0.999972,0.002470,-0.006666,0.002183,0.720453,-0.150677,-0.662915,-0.137067
16868,NaN,8.763193,1.218173,3.999641,-2.483023,2.755158,-0.839539,0.364396,-1.035611,0.268731,-0.778320,0.061035,-0.431641,0.087407,0.012226,0.040472,0.999984,0.001822,-0.005178,0.001344,0.717469,-0.150974,-0.666681,-0.134098
16869,NaN,8.416842,0.121234,3.180386,-2.266634,1.463782,-1.228281,0.286865,-0.830335,0.218729,-0.784668,0.061035,-0.427490,0.084034,0.001258,0.032155,0.999990,0.001434,-0.004152,0.001094,0.714996,-0.151284,-0.669760,-0.131590
16870,NaN,8.346078,-0.468875,2.083583,-1.548888,0.524406,-1.354327,0.254416,-0.656634,0.228694,-0.782715,0.063232,-0.423340,0.083397,-0.004620,0.021104,0.999993,0.001272,-0.003283,0.001143,0.713136,-0.151583,-0.672095,-0.129412
16871,NaN,8.150945,-0.572228,0.868172,-0.518821,-0.013856,-1.612103,-0.025165,-0.410509,0.244192,-0.782715,0.065186,-0.418945,0.081498,-0.005622,0.008850,0.999997,-0.000126,-0.002053,0.001221,0.711841,-0.152817,-0.673423,-0.128186
16872,NaN,7.967287,-0.872540,-1.363256,1.385445,-1.136381,-1.882583,-0.390432,-0.283005,0.276913,-0.784668,0.063232,-0.414795,0.079704,-0.008642,-0.013503,0.999996,-0.001952,-0.001415,0.001385,0.710765,-0.155331,-0.673964,-0.128287
16873,NaN,8.206883,-0.274854,-3.004327,3.112302,-1.201831,-1.730394,-0.484230,-0.506351,0.197940,-0.784912,0.065186,-0.414795,0.082147,-0.002740,-0.029829,0.999993,-0.002421,-0.002532,0.000990,0.708750,-0.158101,-0.675364,-0.128693
16874,NaN,9.145135,0.182150,-3.179958,3.459233,-0.793820,-0.802586,-0.290169,-0.739587,0.247586,-0.784912,0.067383,-0.402100,0.091566,0.001889,-0.031464,0.999991,-0.001451,-0.003698,0.001238,0.706177,-0.160452,-0.677595,-0.128198
16875,NaN,9.834816,0.714744,-2.753507,3.248811,-0.052219,-0.104038,0.129448,-0.965910,0.300705,-0.791260,0.069580,-0.397949,0.098469,0.007313,-0.027055,0.999987,0.000647,-0.004830,0.001504,0.703122,-0.161680,-0.680924,-0.125783
16876,NaN,9.812157,0.533124,-1.777018,2.199969,0.247755,-0.075238,0.724497,-1.128692,0.308585,-0.797363,0.065186,-0.383057,0.098211,0.005546,-0.017196,0.999976,0.003622,-0.005643,0.001543,0.700044,-0.160902,-0.685080,-0.121305
16877,NaN,9.505276,0.211910,-0.635600,0.915303,0.474079,-0.339831,1.278990,-1.371316,0.334771,-0.795410,0.067383,-0.370361,0.095090,0.002316,-0.005690,0.999955,0.006395,-0.006856,0.001674,0.696466,-0.158435,-0.690451,-0.114502
16878,NaN,9.414581,0.726872,1.098530,-0.632202,1.686379,-0.478714,1.589619,-1.817669,0.353732,-0.803467,0.056396,-0.359619,0.094027,0.007343,0.011898,0.999926,0.007948,-0.009088,0.001769,0.691601,-0.155162,-0.697358,-0.106323
16879,NaN,9.881388,0.673497,3.031751,-2.642443,2.440580,-0.099631,1.571605,-2.146894,0.263172,-0.811768,0.056396,-0.342773,0.098472,0.006621,0.031428,0.999911,0.007858,-0.010734,0.001316,0.685332,-0.151807,-0.705441,-0.098123
16880,NaN,10.935862,-0.035570,4.463224,-4.459322,2.408770,0.856066,1.191480,-2.001969,0.296692,-0.813721,0.054199,-0.321533,0.108905,-0.000464,0.045721,0.999931,0.005957,-0.010010,0.001483,0.679273,-0.149755,-0.712610,-0.091367
16881,NaN,11.563768,0.109726,4.318100,-4.470872,2.613087,1.392641,0.616415,-1.371548,0.434380,-0.815918,0.052002,-0.311035,0.115335,0.001213,0.043976,0.999969,0.003082,-0.006858,0.002172,0.674961,-0.149867,-0.717270,-0.086551
16882,NaN,11.616175,1.153941,3.058747,-3.048264,3.261677,1.398532,0.154303,-0.851383,0.466970,-0.809570,0.056396,-0.306885,0.116003,0.011787,0.031091,0.999988,0.000772,-0.004257,0.002335,0.672216,-0.151401,-0.719851,-0.083771
16883,NaN,11.547965,1.487303,2.207091,-2.200639,3.365506,1.334897,0.071775,-0.673173,0.417646,-0.813721,0.056396,-0.300537,0.115373,0.015106,0.022465,0.999992,0.000359,-0.003366,0.002088,0.669971,-0.152982,-0.721867,-0.081508
16884,NaN,11.983312,1.689580,2.048612,-2.059978,3.616448,1.734110,0.295965,-0.490422,0.408744,-0.822266,0.056396,-0.300537,0.119748,0.017110,0.020805,0.999994,0.001480,-0.002452,0.002044,0.668589,-0.153678,-0.723312,-0.078683
16885,NaN,12.468420,2.240284,1.990171,-1.888702,4.227628,2.145608,0.529593,-0.227368,0.398048,-0.815918,0.058350,-0.296143,0.124617,0.022598,0.020103,0.999994,0.002648,-0.001137,0.001990,0.668293,-0.153467,-0.724002,-0.075194
16886,NaN,12.898734,3.026388,1.877361,-1.567394,5.027844,2.488726,0.641169,0.032141,0.373127,-0.811523,0.054199,-0.296143,0.128934,0.030444,0.018850,0.999993,0.003206,0.000161,0.001866,0.669036,-0.152676,-0.723843,-0.071639
16887,NaN,12.917508,4.056936,1.716810,-1.082017,5.984030,2.405689,0.582959,0.264510,0.300459,-0.813965,0.060547,-0.294189,0.129137,0.040713,0.017116,0.999994,0.002915,0.001323,0.001502,0.670521,-0.151738,-0.722953,-0.068684
16888,NaN,12.882804,4.484603,1.008561,-0.247674,6.182331,2.386200,0.501031,0.426375,0.143193,-0.809570,0.056396,-0.302490,0.128817,0.044913,0.009923,0.999994,0.002505,0.002132,0.000716,0.672486,-0.150441,-0.721582,-0.066704
16889,NaN,12.844266,4.438524,0.915425,-0.136146,6.096986,2.366053,0.413319,0.467798,-0.049346,-0.807129,0.049805,-0.302490,0.128475,0.044335,0.008945,0.999995,0.002067,0.002339,-0.000247,0.674453,-0.148716,-0.720192,-0.065721
16890,NaN,12.906117,4.746406,2.252980,-1.276864,6.756506,2.307169,0.399092,0.631833,-0.207080,-0.802979,0.049805,-0.306885,0.129181,0.047286,0.022216,0.999992,0.001995,0.003159,-0.001035,0.676951,-0.146429,-0.718341,-0.065440
16891,NaN,13.593268,4.781803,3.749877,-2.652831,7.241939,2.923845,0.318236,0.965126,-0.380206,-0.802490,0.034912,-0.312988,0.136202,0.047500,0.036918,0.999985,0.001591,0.004826,-0.001901,0.680513,-0.143645,-0.715451,-0.066313
16892,NaN,14.156589,3.839449,4.081856,-3.149398,6.396805,3.639822,0.192663,1.350208,-0.622646,-0.789795,0.030762,-0.319336,0.141956,0.037914,0.039898,0.999972,0.000963,0.006751,-0.003113,0.685255,-0.140324,-0.711348,-0.068699
16893,NaN,13.126744,2.598099,3.742902,-2.996889,4.854971,2.856651,0.311350,1.902607,-0.775430,-0.781006,0.022217,-0.334229,0.131715,0.025414,0.036217,0.999946,0.001557,0.009513,-0.003877,0.691953,-0.135796,-0.705428,-0.071639
16894,NaN,12.013917,1.424317,2.811698,-2.215968,3.183369,1.986247,0.608555,2.572793,-0.861102,-0.772217,0.011475,-0.351074,0.120548,0.013642,0.026610,0.999903,0.003043,0.012864,-0.004305,0.701064,-0.129732,-0.697261,-0.074200
16895,NaN,10.367983,0.951172,2.141240,-1.474220,2.220200,0.476755,0.973966,3.075527,-0.869930,-0.761475,0.002930,-0.374268,0.104033,0.008960,0.019859,0.999860,0.004870,0.015377,-0.004349,0.712025,-0.122074,-0.687281,-0.075920
16896,NaN,8.461542,0.514416,3.146837,-2.396492,1.787235,-1.279228,0.992021,3.141483,-0.942336,-0.744385,-0.005615,-0.399658,0.085118,0.004592,0.030158,0.999853,0.004960,0.015707,-0.004711,0.722962,-0.114106,-0.676948,-0.077760
16897,NaN,8.925863,-0.513196,4.050274,-3.280178,0.880719,-0.604213,0.678326,2.849741,-1.110120,-0.739746,-0.020508,-0.412109,0.089793,-0.005764,0.039207,0.999877,0.003391,0.014248,-0.005550,0.732509,-0.106718,-0.667422,-0.081184
16898,NaN,12.655525,-0.959302,3.649121,-2.392759,0.215607,3.172463,0.124179,2.718541,-1.246615,-0.727051,-0.024658,-0.427002,0.126972,-0.010406,0.034761,0.999888,0.000621,0.013592,-0.006233,0.741058,-0.100999,-0.658106,-0.086765
16899,NaN,15.946809,-0.531795,0.666858,1.318692,-0.432531,6.095799,-0.505415,2.997654,-1.289830,-0.705566,-0.033203,-0.441895,0.159506,-0.006334,0.004293,0.999864,-0.002527,0.014988,-0.006449,0.750049,-0.097260,-0.647286,-0.094803
16900,NaN,17.094315,-0.976893,-4.185163,6.391287,-2.541398,6.415294,-0.726254,3.131312,-1.375732,-0.694824,-0.037354,-0.462891,0.170187,-0.011100,-0.044482,0.999847,-0.003631,0.015656,-0.006878,0.759063,-0.094044,-0.635770,-0.103809
16901,NaN,15.461200,-3.912814,-4.903726,6.333498,-5.862011,4.466897,-0.093882,2.767738,-1.452507,-0.677490,-0.052490,-0.477783,0.153624,-0.040270,-0.051149,0.999878,-0.000469,0.013838,-0.007262,0.766995,-0.088275,-0.625786,-0.110986
16902,NaN,13.638390,-4.745342,-1.861224,3.190538,-6.007187,3.060003,0.899386,2.578628,-1.301866,-0.662598,-0.058838,-0.492676,0.135815,-0.048249,-0.020582,0.999886,0.004497,0.012893,-0.006509,0.774650,-0.079323,-0.616900,-0.114277
16903,NaN,12.676019,-3.401538,1.983073,0.059591,-3.878239,2.880862,1.190301,2.663950,-1.064281,-0.647461,-0.069580,-0.505127,0.126824,-0.034801,0.017936,0.999879,0.005951,0.013319,-0.005321,0.782641,-0.069851,-0.607603,-0.115810
16904,NaN,10.564346,1.066369,4.846591,-1.619991,1.128183,1.690550,0.197532,2.893505,-0.843969,-0.632324,-0.075928,-0.522217,0.106374,0.010169,0.046941,0.999886,0.000988,0.014467,-0.004220,0.790923,-0.064841,-0.596621,-0.119497
16905,NaN,10.343336,4.790241,1.707426,2.460718,3.757267,0.801779,-0.395617,1.776247,-1.799803,-0.617188,-0.086670,-0.526367,0.104005,0.047001,0.016059,0.999918,-0.001978,0.008881,-0.008999,0.794959,-0.059931,-0.589885,-0.128394
16906,NaN,13.121327,0.363177,1.897656,1.954681,-1.105111,3.258253,0.327836,1.421308,-2.272676,-0.606201,-0.099365,-0.530518,0.131373,0.002109,0.018048,0.999909,0.001639,0.007106,-0.011363,0.797718,-0.051017,-0.585074,-0.136862
16907,NaN,15.090927,-0.514357,4.295489,0.155506,-2.008141,5.756055,-0.662451,1.274081,-1.991805,-0.595459,-0.107910,-0.543213,0.151119,-0.006508,0.042013,0.999925,-0.003312,0.006370,-0.009959,0.799851,-0.046906,-0.580002,-0.147091
16908,NaN,12.378238,-2.357876,-1.615425,4.333571,-5.005126,1.029454,-0.512655,1.320956,-1.820674,-0.586670,-0.114502,-0.541016,0.123451,-0.024746,-0.016908,0.999933,-0.002563,0.006605,-0.009103,0.802171,-0.042711,-0.574731,-0.156146
16909,NaN,10.086898,-0.269182,1.277899,1.725146,-2.072702,-0.005821,0.075864,1.333692,-1.749795,-0.571533,-0.127197,-0.549561,0.100922,-0.003579,0.012105,0.999939,0.000379,0.006668,-0.008749,0.804595,-0.036294,-0.569794,-0.163233
16910,NaN,9.001515,0.403879,2.263538,0.789475,-1.151158,-0.627805,-0.264741,1.382138,-1.807120,-0.562988,-0.129395,-0.557861,0.090200,0.003254,0.022008,0.999934,-0.001324,0.006911,-0.009035,0.806958,-0.031090,-0.564309,-0.171485
16911,NaN,8.299787,0.464446,1.940164,0.955606,-1.180515,-1.412872,-0.538940,1.283881,-1.813021,-0.545898,-0.131592,-0.562256,0.083158,0.003942,0.018857,0.999935,-0.002695,0.006419,-0.009065,0.808876,-0.027009,-0.558933,-0.180511
16912,NaN,8.069666,0.760441,2.002578,0.981368,-0.988629,-1.580715,-0.745826,1.085459,-1.804917,-0.535156,-0.137939,-0.562256,0.080868,0.006949,0.019560,0.999938,-0.003729,0.005427,-0.009024,0.810131,-0.024010,-0.554080,-0.190018
16913,NaN,7.432108,0.664901,1.621153,1.131900,-1.139993,-2.347844,-0.969320,0.966702,-1.835545,-0.531006,-0.135742,-0.568604,0.074456,0.006043,0.015822,0.999934,-0.004846,0.004833,-0.009178,0.810880,-0.021896,-0.549453,-0.200237
16914,NaN,6.987869,0.262077,1.296619,1.166983,-1.592897,-2.980444,-1.228748,0.902520,-1.880309,-0.518311,-0.135742,-0.574951,0.069957,0.002042,0.012637,0.999927,-0.006144,0.004512,-0.009401,0.811285,-0.020817,-0.544731,-0.211308
16915,NaN,7.024191,0.519951,1.062603,1.498193,-1.559111,-3.025799,-1.613494,0.811300,-1.866142,-0.511963,-0.137939,-0.579102,0.070329,0.004628,0.010302,0.999916,-0.008067,0.004056,-0.009330,0.811270,-0.021389,-0.539916,-0.223325
16916,NaN,6.933691,0.524910,0.960144,1.578624,-1.674859,-3.181324,-2.086350,0.744537,-1.828612,-0.501709,-0.129150,-0.587646,0.069417,0.004713,0.009292,0.999897,-0.010431,0.003723,-0.009143,0.810933,-0.024091,-0.534708,-0.236419
16917,NaN,6.441079,0.154826,0.389211,1.765467,-2.107212,-3.972769,-2.425479,0.638522,-1.786006,-0.495361,-0.125000,-0.589844,0.064433,0.001018,0.003672,0.999881,-0.012127,0.003192,-0.008930,0.810121,-0.028363,-0.529446,-0.250172
16918,NaN,6.069032,-0.148572,0.032595,1.801139,-2.445749,-4.556306,-2.604997,0.452346,-1.726255,-0.484863,-0.120605,-0.600586,0.060675,-0.002006,0.000213,0.999875,-0.013024,0.002262,-0.008631,0.808692,-0.033785,-0.524536,-0.264081
16919,NaN,5.803122,-0.510065,-0.213702,1.717843,-2.823385,-5.010738,-2.698929,0.301488,-1.639556,-0.485352,-0.107910,-0.598633,0.057983,-0.005605,-0.002151,0.999874,-0.013494,0.001507,-0.008197,0.806737,-0.039971,-0.520019,-0.277774
16920,NaN,5.497662,-0.732799,-0.596803,1.774308,-3.101427,-5.529045,-2.672611,0.202141,-1.527221,-0.477051,-0.101318,-0.602783,0.054912,-0.007827,-0.005921,0.999881,-0.013363,0.001011,-0.007636,0.804515,-0.046504,-0.515736,-0.290878
16921,NaN,5.212549,-0.944692,-0.928158,1.779874,-3.351540,-6.001785,-2.597727,0.120497,-1.409353,-0.479492,-0.086426,-0.607178,0.052051,-0.009934,-0.009186,0.999891,-0.012988,0.000602,-0.007047,0.802058,-0.053121,-0.511813,-0.303198
16922,NaN,4.851929,-1.325007,-0.956255,1.416984,-3.572793,-6.430698,-2.462839,0.015111,-1.296944,-0.464844,-0.082031,-0.609375,0.048431,-0.013681,-0.009400,0.999903,-0.012314,0.000076,-0.006485,0.799402,-0.059660,-0.508315,-0.314664
16923,NaN,4.589978,-1.615548,-0.780523,0.963965,-3.654038,-6.649574,-2.284104,-0.113513,-1.167707,-0.465088,-0.075684,-0.609375,0.045808,-0.016511,-0.007592,0.999918,-0.011420,-0.000568,-0.005838,0.796500,-0.065988,-0.505564,-0.325019
16924,NaN,4.440442,-1.731687,-0.446310,0.524446,-3.553894,-6.648861,-2.089868,-0.252204,-1.001632,-0.469482,-0.069336,-0.605225,0.044322,-0.017584,-0.004224,0.999932,-0.010449,-0.001261,-0.005008,0.793495,-0.072193,-0.503470,-0.334174
16925,NaN,4.095612,-1.871795,0.036830,-0.082842,-3.289208,-6.738124,-1.863134,-0.365122,-0.823406,-0.467529,-0.062744,-0.605225,0.040878,-0.018881,0.000618,0.999946,-0.009316,-0.001826,-0.004117,0.790454,-0.078124,-0.502169,-0.341913
16926,NaN,3.887880,-1.605390,0.573392,-0.423504,-2.731446,-6.590683,-1.631155,-0.484279,-0.645660,-0.469727,-0.060547,-0.603271,0.038813,-0.016131,0.005959,0.999959,-0.008156,-0.002421,-0.003228,0.787468,-0.083783,-0.501527,-0.348345
16927,NaN,3.758150,-1.223755,1.281943,-0.773917,-2.024316,-6.267595,-1.418734,-0.658753,-0.474497,-0.472168,-0.050049,-0.596924,0.037510,-0.012235,0.013030,0.999967,-0.007094,-0.003294,-0.002372,0.784338,-0.089343,-0.501931,-0.353408
16928,NaN,3.952628,-1.011571,1.957566,-1.110971,-1.589244,-5.723872,-1.207620,-0.897201,-0.264870,-0.476318,-0.052002,-0.596924,0.039424,-0.010049,0.019813,0.999971,-0.006038,-0.004486,-0.001324,0.781060,-0.095006,-0.503420,-0.357054
16929,NaN,4.381314,-0.841855,2.608109,-1.397399,-1.280537,-5.004990,-0.951141,-1.137742,0.004091,-0.482666,-0.047852,-0.588379,0.043664,-0.008293,0.026369,0.999973,-0.004756,-0.005689,0.000020,0.777699,-0.100789,-0.506246,-0.358804
16930,NaN,4.913842,-0.831614,3.170045,-1.702819,-1.153789,-4.275975,-0.601926,-1.281009,0.330126,-0.491455,-0.041504,-0.580078,0.048947,-0.008139,0.032039,0.999974,-0.003010,-0.006405,0.001651,0.774729,-0.106270,-0.509969,-0.358377
16931,NaN,5.863843,-0.812412,3.730259,-1.913619,-1.180126,-3.186676,-0.099243,-1.325810,0.712728,-0.493408,-0.041504,-0.573730,0.058418,-0.007897,0.037694,0.999972,-0.000496,-0.006629,0.003564,0.772521,-0.110884,-0.514623,-0.355075
16932,NaN,8.109531,-0.450523,4.918681,-2.076612,-1.141619,-0.617930,0.465379,-1.373957,1.117497,-0.508301,-0.043701,-0.567139,0.080779,-0.004169,0.049733,0.999958,0.002327,-0.006870,0.005587,0.771199,-0.114406,-0.520116,-0.348772
16933,NaN,11.495443,1.179897,6.960484,-1.812268,-0.089257,3.554775,0.849876,-1.366292,1.470038,-0.518799,-0.045654,-0.562988,0.114386,0.012343,0.070439,0.999941,0.004249,-0.006831,0.007350,0.770623,-0.117380,-0.526075,-0.340011
16934,NaN,14.176408,3.624868,9.281590,-1.431999,2.155283,7.320736,0.761352,-1.273912,1.568744,-0.520996,-0.043701,-0.552490,0.140880,0.037000,0.093855,0.999942,0.003807,-0.006369,0.007844,0.770344,-0.120741,-0.531327,-0.331184
16935,NaN,15.861903,5.050199,10.937522,-1.475745,3.777656,9.687990,0.324991,-1.205001,1.243723,-0.529297,-0.045898,-0.545898,0.157638,0.051305,0.110410,0.999961,0.001625,-0.006025,0.006219,0.769345,-0.124837,-0.535803,-0.324715
16936,NaN,17.326700,3.756535,12.770811,-3.410402,3.523163,11.479828,-0.225416,-0.864313,0.674898,-0.529785,-0.032959,-0.541992,0.172585,0.038293,0.128412,0.999984,-0.001127,-0.004322,0.003374,0.767975,-0.128924,-0.538333,-0.322166
16937,NaN,17.715833,3.226397,14.643776,-5.036218,4.203618,12.450824,-1.038935,-0.302217,0.116196,-0.531982,-0.028809,-0.539795,0.176918,0.033128,0.146535,0.999985,-0.005195,-0.001511,0.000581,0.766651,-0.133755,-0.537784,-0.324259
16938,NaN,16.380259,4.836478,13.228219,-3.129204,5.213009,10.917023,-1.507515,-0.025707,-0.407533,-0.536377,-0.026611,-0.537598,0.163885,0.049026,0.131935,0.999970,-0.007538,-0.000129,-0.002038,0.764893,-0.138486,-0.535695,-0.329835
16939,NaN,12.097713,5.003687,8.677166,-0.485173,4.298758,5.285963,-1.323776,0.127084,-0.710521,-0.530273,-0.013672,-0.539795,0.121210,0.050179,0.086363,0.999972,-0.006619,0.000635,-0.003553,0.763121,-0.141468,-0.533519,-0.336141
16940,NaN,8.645448,3.735817,4.714606,0.872771,2.290065,0.430413,-0.821227,0.214281,-0.748355,-0.523926,-0.018066,-0.541992,0.086644,0.037227,0.046900,0.999984,-0.004106,0.001071,-0.003742,0.761845,-0.142253,-0.531843,-0.341321
16941,NaN,6.824015,2.048966,3.557751,0.204962,1.017762,-1.916798,-0.408753,0.010585,-0.706243,-0.528076,-0.018066,-0.535645,0.068314,0.020321,0.035532,0.999992,-0.002044,0.000053,-0.003531,0.760370,-0.141934,-0.531614,-0.345078
16942,NaN,7.032315,0.252438,3.861372,-1.207839,-0.202118,-1.880000,-0.042455,-0.238067,-0.482603,-0.525635,-0.024414,-0.535645,0.070283,0.002363,0.038697,0.999996,-0.000212,-0.001190,-0.002413,0.758875,-0.141233,-0.532787,-0.346843
16943,NaN,8.031503,-1.251565,3.209923,-1.602044,-2.041800,-1.467658,0.539600,-0.347777,0.047992,-0.523682,-0.024414,-0.535645,0.080262,-0.012583,0.032205,0.999995,0.002698,-0.001739,0.000240,0.758410,-0.139937,-0.535012,-0.344955
