// Start Time: Unknown
// Update Rate: 100.0Hz
// Filter Profile: human (46.1)
// Firmware Version: 4.4.0
PacketCounter,SampleTimeFine,Acc_X,Acc_Y,Acc_Z,FreeAcc_X,FreeAcc_Y,FreeAcc_Z,Gyr_X,Gyr_Y,Gyr_Z,Mag_X,Mag_Y,Mag_Z,VelInc_X,VelInc_Y,VelInc_Z,OriInc_q0,OriInc_q1,OriInc_q2,OriInc_q3,Quat_q0,Quat_q1,Quat_q2,Quat_q3
22528,NaN,7.366931,0.629148,1.196950,-0.000000,0.000000,-2.322781,-0.423375,1.339056,-1.213418,-1.088379,-0.113525,-0.116211,0.073784,0.005869,0.011463,0.999957,-0.002117,0.006695,-0.006067,-0.214032,-0.636941,0.133354,-0.728501
22529,NaN,6.659785,0.551934,1.538881,0.000000,0.000000,-2.955247,-0.663888,1.204990,-1.196053,-1.083740,-0.126221,-0.133057,0.066721,0.005171,0.014970,0.999958,-0.003319,0.006025,-0.005980,-0.181095,-0.617510,0.097640,-0.759179
22530,NaN,6.059165,0.516605,1.549958,0.301371,-0.278587,-3.550615,-0.773698,1.059723,-1.214337,-1.083252,-0.141357,-0.147949,0.060703,0.004857,0.015159,0.999960,-0.003868,0.005299,-0.006072,-0.276976,-0.611386,0.178207,-0.719537
22531,NaN,5.806965,0.828630,1.821772,0.327924,-0.637261,-3.712529,-0.869440,1.050190,-1.306923,-1.070557,-0.147705,-0.160400,0.058217,0.007984,0.017877,0.999955,-0.004347,0.005251,-0.006535,-0.285259,-0.607541,0.175877,-0.720131
22532,NaN,6.617563,0.648531,2.323050,0.722873,-0.533597,-2.826910,-0.899965,1.068804,-1.316322,-1.072266,-0.162598,-0.177246,0.066340,0.006152,0.022848,0.999954,-0.004500,0.005344,-0.006582,-0.293874,-0.603103,0.173391,-0.721000
22533,NaN,7.247256,0.225035,3.762334,2.011381,-0.835616,-1.939728,-0.692024,1.101128,-1.313051,-1.063477,-0.173340,-0.185791,0.072691,0.001903,0.037217,0.999957,-0.003460,0.005506,-0.006565,-0.301636,-0.599229,0.170301,-0.721760
22534,NaN,7.583575,-0.176037,5.279186,3.325849,-1.230979,-1.278445,-0.381182,1.204913,-1.321490,-1.058838,-0.188232,-0.202637,0.076139,-0.002163,0.052338,0.999958,-0.001906,0.006024,-0.006607,-0.308897,-0.593251,0.165701,-0.724693
22535,NaN,7.343149,0.550568,5.432588,2.973175,-1.797987,-1.347249,-0.310718,1.277365,-1.328217,-1.050293,-0.194580,-0.217285,0.073811,0.005100,0.053847,0.999956,-0.001554,0.006387,-0.006641,-0.315676,-0.589217,0.160907,-0.726141
22536,NaN,7.975795,1.055170,4.961776,1.999420,-1.476721,-0.693181,-0.118605,1.281433,-1.254451,-1.045654,-0.207520,-0.225586,0.080138,0.010079,0.049099,0.999960,-0.000593,0.006407,-0.006272,-0.322915,-0.575685,0.155149,-0.735011
22537,NaN,7.934655,1.804336,4.029254,0.797018,-1.327167,-0.865603,0.320739,1.390888,-1.161904,-1.038818,-0.220215,-0.236084,0.079727,0.017517,0.039767,0.999958,0.001604,0.006954,-0.005809,-0.327327,-0.571969,0.148373,-0.737356
22538,NaN,6.873431,2.057219,3.167661,-0.087618,-1.041945,-2.039973,0.908508,1.503170,-1.067049,-1.032227,-0.235352,-0.250977,0.069078,0.020062,0.031250,0.999947,0.004542,0.007516,-0.005335,-0.332790,-0.555988,0.137124,-0.749217
22539,NaN,6.101109,1.956897,3.497977,0.346173,-1.281347,-2.634564,1.288410,1.494213,-0.952545,-1.025635,-0.241699,-0.261475,0.061362,0.019053,0.034646,0.999940,0.006442,0.007471,-0.004763,-0.333781,-0.553154,0.127155,-0.752624
22540,NaN,5.454455,1.713503,5.064043,1.656786,-1.919921,-2.608615,1.382643,1.452004,-0.832250,-1.023193,-0.256592,-0.271973,0.054981,0.016558,0.050358,0.999941,0.006913,0.007260,-0.004161,-0.338324,-0.539846,0.112504,-0.762526
22541,NaN,5.051252,2.015676,6.488128,2.623601,-2.915974,-2.310327,1.270113,1.390723,-0.748552,-1.016602,-0.260986,-0.273926,0.051037,0.019555,0.064653,0.999949,0.006350,0.006953,-0.003743,-0.338514,-0.537085,0.103283,-0.765689
22542,NaN,5.449991,2.960269,5.580035,1.072899,-2.617852,-1.964332,0.755449,1.283170,-0.707168,-1.010010,-0.271484,-0.288818,0.054961,0.029199,0.055560,0.999966,0.003777,0.006416,-0.003536,-0.346059,-0.518524,0.089308,-0.776788
22543,NaN,6.165589,3.577441,2.620789,-1.700370,-1.171012,-2.503961,0.131857,1.392687,-0.754372,-1.005615,-0.277832,-0.301514,0.061971,0.035524,0.025801,0.999968,0.000659,0.006963,-0.003772,-0.349258,-0.513663,0.084428,-0.779128
22544,NaN,6.391312,3.853569,1.002389,-3.267566,-0.175671,-3.030752,0.124296,1.548007,-0.801033,-0.996826,-0.286377,-0.312012,0.064142,0.038273,0.009552,0.999962,0.000621,0.007740,-0.004005,-0.359206,-0.497398,0.069925,-0.786560
22545,NaN,7.197380,3.879260,1.957889,-2.827546,-0.125195,-1.896118,0.552716,1.620733,-0.824658,-0.990234,-0.294922,-0.322510,0.072289,0.038442,0.019100,0.999955,0.002764,0.008104,-0.004123,-0.361625,-0.492282,0.062786,-0.789268
22546,NaN,7.266562,3.642948,3.634835,-1.446812,-0.378391,-1.035030,0.618352,1.822124,-0.799495,-0.975342,-0.301514,-0.339355,0.073138,0.036026,0.035795,0.999946,0.003092,0.009110,-0.003997,-0.368123,-0.486206,0.046136,-0.791177
22547,NaN,6.447633,3.146374,4.925853,-0.033254,-0.854058,-1.152286,0.620108,1.940646,-0.724558,-0.968750,-0.312012,-0.356201,0.065064,0.031077,0.048726,0.999942,0.003100,0.009703,-0.003623,-0.369908,-0.479809,0.038347,-0.794658
22548,NaN,5.584144,2.603018,5.772337,1.168134,-1.010651,-1.512695,0.620366,1.897436,-0.623712,-0.964355,-0.318359,-0.364746,0.056467,0.025677,0.057270,0.999945,0.003102,0.009487,-0.003119,-0.374053,-0.474179,0.023480,-0.796673
22549,NaN,5.184648,2.284984,5.436950,1.178122,-0.731378,-2.083682,0.805057,1.725081,-0.501012,-0.955566,-0.324951,-0.373047,0.052370,0.022501,0.054010,0.999952,0.004025,0.008625,-0.002505,-0.374324,-0.468849,0.015858,-0.799882
22550,NaN,5.891572,2.733792,5.012065,0.361624,-0.254135,-1.620714,0.949097,1.426565,-0.393420,-0.949219,-0.326904,-0.381592,0.059325,0.026985,0.049827,0.999961,0.004745,0.007133,-0.001967,-0.376660,-0.462763,0.003708,-0.802474
22551,NaN,7.113942,4.076499,4.944735,-0.875235,-0.345365,-0.284298,0.818111,1.102709,-0.333750,-0.947021,-0.335449,-0.385742,0.071479,0.040444,0.049220,0.999975,0.004091,0.005513,-0.001669,-0.376117,-0.459874,-0.002423,-0.804392
22552,NaN,8.153661,5.837803,6.281768,-1.247832,-1.238779,1.889038,0.622373,0.801286,-0.237268,-0.938232,-0.339844,-0.389893,0.081857,0.058086,0.062671,0.999986,0.003112,0.004006,-0.001186,-0.377308,-0.456641,-0.010747,-0.805607
22553,NaN,9.603528,7.034439,6.871544,-1.959633,-1.313771,3.728461,0.529270,0.562500,-0.087085,-0.938232,-0.339844,-0.389893,0.096259,0.070121,0.068631,0.999992,0.002646,0.002812,-0.000435,-0.376418,-0.455366,-0.014139,-0.806692
22554,NaN,10.922975,7.526668,6.604887,-2.768597,-0.577086,4.733389,0.474114,0.463323,0.012626,-0.938232,-0.346191,-0.394287,0.109378,0.075117,0.065974,0.999995,0.002371,0.002317,0.000063,-0.376701,-0.454866,-0.022026,-0.806665
22555,NaN,11.302007,7.167675,6.930408,-2.431420,-0.143884,5.060405,0.382780,0.361885,0.051631,-0.931641,-0.346191,-0.392090,0.113127,0.071573,0.069236,0.999996,0.001914,0.001809,0.000258,-0.375581,-0.454131,-0.024134,-0.807540
22556,NaN,11.651596,6.750189,7.210321,-1.931492,0.418892,5.333510,0.239716,0.240773,0.070001,-0.937988,-0.348389,-0.394287,0.116579,0.067456,0.072044,0.999998,0.001199,0.001204,0.000350,-0.375237,-0.456487,-0.030788,-0.806145
22557,NaN,12.011281,6.024464,7.407089,-1.479278,1.122192,5.418282,0.149525,0.146749,0.071458,-0.931885,-0.344238,-0.387939,0.120146,0.060232,0.074028,0.999999,0.000748,0.000734,0.000357,-0.374584,-0.456187,-0.031503,-0.806590
22558,NaN,12.182778,5.117212,7.656285,-0.655415,1.857493,5.331446,0.184470,-0.003547,0.060742,-0.936279,-0.339844,-0.390137,0.121811,0.051138,0.076612,1.000000,0.000922,-0.000018,0.000304,-0.373480,-0.460367,-0.035914,-0.804540
22559,NaN,12.689440,4.734771,8.092704,-0.226526,2.323806,5.791167,0.296165,-0.175296,0.061063,-0.931641,-0.346191,-0.387939,0.126809,0.047266,0.081108,0.999998,0.001481,-0.000876,0.000305,-0.372584,-0.461635,-0.036638,-0.804196
22560,NaN,12.561272,4.459944,8.118760,0.168663,2.387271,5.610119,0.429048,-0.336634,0.072466,-0.937988,-0.348389,-0.379395,0.125460,0.044470,0.081494,0.999996,0.002145,-0.001683,0.000362,-0.369832,-0.467541,-0.038815,-0.801950
22561,NaN,12.168209,4.741125,8.193339,0.267273,1.888948,5.485481,0.505292,-0.510752,0.117499,-0.944336,-0.350586,-0.370850,0.121444,0.047275,0.082363,0.999993,0.002526,-0.002554,0.000587,-0.368276,-0.470543,-0.039622,-0.800869
22562,NaN,11.731596,5.124342,8.668881,0.745749,1.078128,5.592467,0.603571,-0.667146,0.209852,-0.944336,-0.348389,-0.360352,0.116972,0.051104,0.087234,0.999989,0.003018,-0.003336,0.001049,-0.364104,-0.477545,-0.039634,-0.798629
22563,NaN,11.005637,5.324716,8.651845,0.946752,0.417560,5.129151,0.528843,-0.815109,0.363278,-0.948486,-0.350586,-0.349609,0.109605,0.053217,0.087107,0.999987,0.002644,-0.004076,0.001816,-0.361547,-0.481828,-0.039394,-0.797229
22564,NaN,10.549428,5.719987,8.726241,1.079088,-0.354501,4.981339,0.403814,-0.992013,0.587875,-0.961426,-0.342041,-0.334961,0.104891,0.057332,0.087899,0.999981,0.002019,-0.004960,0.002939,-0.356796,-0.488552,-0.036520,-0.795412
22565,NaN,10.851116,6.236219,8.375165,0.565352,-0.606773,5.223562,0.380497,-1.142352,0.839738,-0.965576,-0.340088,-0.322266,0.107767,0.062655,0.084488,0.999973,0.001902,-0.005712,0.004199,-0.352726,-0.493914,-0.033943,-0.794029
22566,NaN,11.802116,6.415842,8.584377,0.533012,-0.486504,6.112699,0.376487,-1.245914,1.082772,-0.974365,-0.329346,-0.315918,0.117134,0.064632,0.086697,0.999964,0.001882,-0.006229,0.005414,-0.346796,-0.500509,-0.029619,-0.792683
22567,NaN,13.002051,6.558808,8.916796,0.552194,-0.256303,7.251943,0.252511,-1.334645,1.311229,-0.983154,-0.316650,-0.296875,0.128988,0.066323,0.090114,0.999955,0.001263,-0.006673,0.006556,-0.341150,-0.506408,-0.025023,-0.791544
22568,NaN,15.005662,6.404598,8.618376,0.002684,0.733024,8.624125,0.070879,-1.423110,1.476872,-0.994141,-0.303711,-0.290771,0.148960,0.065118,0.087269,0.999947,0.000354,-0.007115,0.007384,-0.334861,-0.512561,-0.018422,-0.790449
22569,NaN,17.805805,5.953042,7.706537,-1.089347,2.518378,10.295292,-0.013203,-1.527215,1.565226,-1.009521,-0.286621,-0.271729,0.176990,0.060924,0.078416,0.999940,-0.000066,-0.007636,0.007826,-0.328830,-0.518688,-0.011800,-0.789110
22570,NaN,20.204871,5.352097,7.229479,-1.618967,3.909491,11.894958,0.065705,-1.534282,1.617402,-1.016113,-0.273682,-0.254883,0.201045,0.055125,0.073858,0.999938,0.000329,-0.007671,0.008087,-0.321339,-0.525635,-0.004301,-0.787674
22571,NaN,20.698040,3.863494,6.775941,-1.228370,5.035337,11.689997,0.135342,-1.489670,1.664468,-1.027100,-0.258789,-0.235840,0.206137,0.040306,0.069324,0.999937,0.000677,-0.007448,0.008322,-0.314440,-0.531722,0.001934,-0.786381
22572,NaN,19.422752,2.278930,6.182996,-0.468840,5.294944,9.996190,0.180734,-1.609394,1.695951,-1.042236,-0.250244,-0.229492,0.193519,0.024375,0.063411,0.999931,0.000904,-0.008047,0.008480,-0.304687,-0.540125,0.010268,-0.784426
22573,NaN,17.064882,1.561055,6.387238,0.754880,4.295631,7.946976,0.402893,-1.821733,1.703513,-1.055420,-0.233154,-0.208496,0.169917,0.016929,0.065456,0.999920,0.002014,-0.009108,0.008517,-0.296800,-0.547754,0.016063,-0.782060
22574,NaN,15.386077,0.830371,6.537664,1.809798,3.539122,6.445974,0.387097,-2.173015,1.842725,-1.064209,-0.214111,-0.181152,0.153054,0.009588,0.067060,0.999897,0.001935,-0.010865,0.009213,-0.284739,-0.558618,0.025923,-0.778587
22575,NaN,14.515686,1.191903,5.345317,1.002432,2.888686,5.396849,-0.027287,-2.394827,1.963130,-1.077393,-0.198975,-0.155762,0.144377,0.013346,0.055183,0.999880,-0.000136,-0.011974,0.009815,-0.276829,-0.567580,0.034918,-0.774596
22576,NaN,12.803820,1.296829,2.826047,-0.695398,2.507625,3.103110,-0.276819,-2.543526,2.209420,-1.084473,-0.171387,-0.132812,0.127511,0.014420,0.029865,0.999857,-0.001384,-0.012717,0.011047,-0.264719,-0.577997,0.049266,-0.770336
22577,NaN,10.937192,0.789683,1.282510,-1.285464,2.482887,0.867147,-0.420583,-2.785809,2.556828,-1.095703,-0.145752,-0.109619,0.109066,0.009322,0.014327,0.999819,-0.002103,-0.013928,0.012783,-0.255352,-0.587435,0.061953,-0.765426
22578,NaN,8.600638,0.526280,-0.080854,-1.818548,2.072997,-1.649300,-0.877536,-2.585037,2.909758,-1.106934,-0.120117,-0.080322,0.085919,0.006513,0.000276,0.999801,-0.004387,-0.012924,0.014548,-0.242097,-0.596793,0.080370,-0.760768
22579,NaN,8.653939,0.719752,-1.798305,-3.345764,2.317770,-1.934411,-1.242694,-2.467846,3.265740,-1.108154,-0.081543,-0.052979,0.086621,0.008504,-0.016965,0.999771,-0.006213,-0.012338,0.016327,-0.232337,-0.603227,0.097809,-0.756684
22580,NaN,7.386841,0.182224,-2.555305,-3.480049,2.460925,-3.258705,-1.798714,-2.609421,3.328791,-1.121582,-0.049561,-0.030029,0.074152,0.002831,-0.024609,0.999736,-0.008993,-0.013046,0.016642,-0.219469,-0.611454,0.119876,-0.750724
22581,NaN,8.146768,-1.602624,-4.786068,-4.594391,4.925798,-2.996328,-2.157167,-2.633771,3.258946,-1.124756,-0.015381,-0.002686,0.082339,-0.015196,-0.046613,0.999722,-0.010785,-0.013168,0.016293,-0.212192,-0.616849,0.140792,-0.744748
22582,NaN,11.566730,-3.108512,-4.491840,-3.949778,6.166064,0.674814,-2.383135,-2.648956,2.877504,-1.129639,0.014648,0.020264,0.116682,-0.029931,-0.043016,0.999738,-0.011915,-0.013244,0.014386,-0.202223,-0.625160,0.163137,-0.735980
22583,NaN,18.221313,-3.793106,-2.561757,-2.633081,5.982973,7.799880,-2.512349,-2.463057,2.108377,-1.127930,0.029541,0.043457,0.182895,-0.036304,-0.022905,0.999790,-0.012561,-0.012314,0.010541,-0.200266,-0.629832,0.181428,-0.728209
22584,NaN,17.166814,-2.253516,-3.266957,-3.583863,4.356407,6.879212,-2.699425,-1.444349,1.027128,-1.125732,0.031738,0.053955,0.172011,-0.022079,-0.031128,0.999870,-0.013497,-0.007221,0.005135,-0.198393,-0.635226,0.197949,-0.719683
22585,NaN,10.878797,-4.840081,-1.628633,0.050532,5.294085,0.975999,-0.965294,-0.756814,0.064243,-1.130127,0.033936,0.058105,0.108864,-0.048442,-0.015641,0.999981,-0.004826,-0.003784,0.000321,-0.200475,-0.636916,0.202374,-0.716374
22586,NaN,4.037300,-1.213130,5.224523,4.590205,-1.785802,-5.251174,-1.679927,-0.024435,-0.073669,-1.129883,0.027344,0.056152,0.040362,-0.011707,0.052350,0.999965,-0.008400,-0.000122,-0.000368,-0.200451,-0.639333,0.210193,-0.711963
22587,NaN,3.210002,1.487976,5.254346,3.126652,-4.131849,-6.168990,-2.529537,0.830378,-0.549156,-1.134033,0.018799,0.039307,0.032359,0.015453,0.052216,0.999908,-0.012647,0.004152,-0.002746,-0.211346,-0.634360,0.216591,-0.711343
22588,NaN,1.213264,-0.501754,6.641539,5.532930,-3.403939,-7.906832,-1.239260,1.712267,-0.988654,-1.137939,0.003906,0.024658,0.012677,-0.004668,0.066338,0.999932,-0.006196,0.008561,-0.004943,-0.216679,-0.630360,0.217679,-0.712960
22589,NaN,2.418777,1.317520,8.907572,6.088951,-6.179168,-6.396377,-0.725688,1.665372,-1.282766,-1.141602,-0.013184,0.003662,0.025013,0.013339,0.088822,0.999938,-0.003628,0.008327,-0.006414,-0.225338,-0.624994,0.214405,-0.715985
22590,NaN,5.499732,-1.606430,-1.580870,-0.970399,2.568455,-4.541439,-2.292932,2.415854,-1.387941,-1.145752,-0.028076,-0.034180,0.054688,-0.016629,-0.016282,0.999837,-0.011464,0.012079,-0.006939,-0.237201,-0.615883,0.216446,-0.719427
22591,NaN,-0.550836,-2.571448,-8.817379,-5.189172,7.348730,-11.741976,-1.674094,2.842927,-1.102327,-1.141113,-0.038574,-0.057373,-0.006903,-0.026415,-0.087863,0.999849,-0.008370,0.014214,-0.005511,-0.249361,-0.604772,0.215669,-0.724953
22592,NaN,-6.529498,-2.916405,-5.828028,-1.725103,5.171586,-17.254531,0.785876,2.110092,-0.599172,-1.141113,-0.044922,-0.078613,-0.065992,-0.028740,-0.057700,0.999932,0.003929,0.010550,-0.002996,-0.248130,-0.600241,0.209497,-0.730926
22593,NaN,-7.538957,-3.657799,-4.534233,-0.098290,4.729856,-18.082627,1.971625,1.364160,-0.280377,-1.141113,-0.047119,-0.095459,-0.075749,-0.036026,-0.045183,0.999927,0.009858,0.006821,-0.001402,-0.244648,-0.597952,0.199743,-0.736684
22594,NaN,-7.318158,-3.357193,-2.058922,1.565512,3.056284,-17.380606,2.414986,0.873775,0.020279,-1.141113,-0.044922,-0.091309,-0.073268,-0.033330,-0.020673,0.999918,0.012075,0.004369,0.000101,-0.234166,-0.599394,0.191033,-0.741215
22595,NaN,-5.414603,-3.507608,-0.190541,2.771436,2.359689,-15.142612,2.659989,0.373539,0.275737,-1.145264,-0.047119,-0.086914,-0.054102,-0.035122,-0.002271,0.999909,0.013300,0.001868,0.001379,-0.225507,-0.600806,0.181547,-0.745130
22596,NaN,-4.234015,-2.411135,-0.338878,1.774509,1.756446,-14.010423,2.486846,0.010759,0.501146,-1.145508,-0.038574,-0.093506,-0.042280,-0.024173,-0.003687,0.999920,0.012434,0.000054,0.002506,-0.211490,-0.604422,0.174691,-0.747950
22597,NaN,-3.060740,0.056417,-1.824308,-1.002625,0.565870,-13.185209,2.080611,-0.253735,0.530148,-1.141357,-0.038574,-0.082764,-0.030586,0.000673,-0.018275,0.999942,0.010403,-0.001269,0.002651,-0.202985,-0.607073,0.168771,-0.749517
22598,NaN,-2.261169,0.691772,-1.881028,-1.532711,0.116473,-12.414009,1.801172,-0.428178,0.400646,-1.145752,-0.032227,-0.080811,-0.022585,0.007042,-0.018796,0.999955,0.009006,-0.002141,0.002003,-0.191118,-0.611258,0.164326,-0.750223
22599,NaN,-1.186707,0.130796,-1.322116,-0.986177,0.414071,-11.237240,1.256538,-0.540580,0.212650,-1.143555,-0.030029,-0.072266,-0.011833,0.001379,-0.013245,0.999976,0.006283,-0.002703,0.001063,-0.186031,-0.614298,0.160775,-0.749788
22600,NaN,-0.696079,-0.102534,-1.394059,-1.038022,0.685038,-10.756965,0.747218,-0.462471,0.094360,-1.143555,-0.030029,-0.068115,-0.006928,-0.000976,-0.013960,0.999990,0.003736,-0.002312,0.000472,-0.179116,-0.617726,0.159215,-0.748988
22601,NaN,-0.569378,0.243353,-1.198715,-1.057441,0.293024,-10.597724,0.458800,-0.307779,0.082674,-1.141357,-0.032227,-0.063965,-0.005676,0.002459,-0.011990,0.999996,0.002294,-0.001539,0.000413,-0.177143,-0.619222,0.158027,-0.748473
22602,NaN,0.265000,0.678450,-0.890340,-1.132042,-0.185204,-9.726643,0.309334,-0.135017,0.049936,-1.141602,-0.027832,-0.057617,0.002654,0.006799,-0.008891,0.999999,0.001547,-0.000675,0.000250,-0.172541,-0.621009,0.157625,-0.748152
22603,NaN,1.103035,-0.016211,-0.492110,-0.610090,0.304609,-8.815629,0.249769,0.042672,-0.051320,-1.137207,-0.027832,-0.061768,0.011029,-0.000159,-0.004924,0.999999,0.001249,0.000213,-0.000257,-0.171991,-0.621105,0.156494,-0.748437
22604,NaN,2.074391,-0.292151,0.045066,-0.180824,0.364327,-7.757195,0.185179,0.240906,-0.215739,-1.141357,-0.032227,-0.065918,0.020741,-0.002944,0.000423,0.999998,0.000926,0.001205,-0.001079,-0.169644,-0.621509,0.155407,-0.748863
22605,NaN,2.840289,0.434139,0.424444,-0.307161,-0.395113,-6.951676,0.026054,0.449794,-0.424890,-1.136963,-0.040771,-0.078613,0.028421,0.004280,0.004181,0.999995,0.000130,0.002249,-0.002124,-0.171502,-0.620174,0.153607,-0.749917
22606,NaN,3.538925,1.010530,0.596101,-0.539315,-0.931940,-6.243230,-0.259081,0.630401,-0.644950,-1.136963,-0.040771,-0.078613,0.035440,0.009999,0.005836,0.999989,-0.001295,0.003152,-0.003225,-0.172863,-0.618947,0.152489,-0.750846
22607,NaN,3.424840,1.259511,0.328340,-0.881788,-1.010406,-6.403128,-0.557958,0.684977,-0.768750,-1.130371,-0.051514,-0.095459,0.034307,0.012472,0.003131,0.999983,-0.002790,0.003425,-0.003844,-0.177995,-0.616469,0.151611,-0.751863
22608,NaN,3.326109,1.774196,0.366724,-1.080564,-1.467453,-6.492445,-0.870112,0.702701,-0.864639,-1.127930,-0.060059,-0.099609,0.033350,0.017613,0.003473,0.999975,-0.004351,0.003513,-0.004323,-0.182849,-0.614463,0.152118,-0.752237
22609,NaN,3.064120,1.950870,0.325132,-1.179873,-1.585241,-6.747546,-1.053721,0.799310,-0.925247,-1.119385,-0.062012,-0.110352,0.030743,0.019383,0.003026,0.999967,-0.005269,0.003997,-0.004626,-0.190168,-0.611178,0.152503,-0.753021
22610,NaN,2.443666,1.839072,0.492825,-0.899209,-1.591221,-7.311530,-1.037970,0.976961,-0.904652,-1.121338,-0.074951,-0.122803,0.024543,0.018305,0.004713,0.999964,-0.005190,0.004885,-0.004523,-0.196843,-0.607850,0.153456,-0.753805
22611,NaN,1.619175,1.609753,0.989662,-0.242864,-1.685632,-7.998304,-0.854143,1.126645,-0.800314,-1.116943,-0.083496,-0.141846,0.016311,0.016074,0.009736,0.999967,-0.004271,0.005633,-0.004002,-0.203313,-0.603357,0.153129,-0.755761
22612,NaN,1.194479,1.801589,1.942587,0.522467,-2.343975,-8.175987,-0.560401,1.259526,-0.706438,-1.110352,-0.089844,-0.152344,0.012130,0.018027,0.019299,0.999970,-0.002802,0.006298,-0.003532,-0.208684,-0.599088,0.152665,-0.757784
22613,NaN,1.498528,2.850492,3.690267,1.383211,-4.033338,-7.402833,-0.176030,1.391242,-0.684379,-1.104004,-0.089844,-0.165039,0.015339,0.028485,0.036772,0.999970,-0.000880,0.006956,-0.003422,-0.212859,-0.594138,0.149827,-0.761080
22614,NaN,2.347883,3.361339,4.847727,1.891066,-4.872636,-6.208258,0.373733,1.609268,-0.671121,-1.101562,-0.104736,-0.184082,0.023981,0.033443,0.048348,0.999960,0.001869,0.008046,-0.003356,-0.216113,-0.589153,0.145422,-0.764883
22615,NaN,5.152794,0.607726,6.043618,3.654911,-2.506704,-3.194436,1.470530,1.679594,-0.714776,-1.093018,-0.108887,-0.190430,0.052054,0.005449,0.060042,0.999931,0.007352,0.008398,-0.003574,-0.215720,-0.584798,0.135869,-0.770075
22616,NaN,8.756891,-2.541517,11.475465,8.942810,-1.397096,1.715209,1.890987,1.350853,-0.781735,-1.088135,-0.126221,-0.196533,0.088237,-0.026839,0.113911,0.999925,0.009455,0.006754,-0.003909,-0.214435,-0.582088,0.124949,-0.774325
22617,NaN,24.234139,-2.281076,3.118207,-1.897436,5.301419,14.072556,1.297551,0.886430,-0.829995,-1.081787,-0.125977,-0.200928,0.242378,-0.024014,0.029955,0.999961,0.006488,0.004432,-0.004150,-0.214416,-0.580544,0.116555,-0.776794
22618,NaN,39.702742,8.025118,1.575124,-11.884283,0.343772,28.940419,1.948238,1.679173,-0.845904,-1.077148,-0.143066,-0.219727,0.397480,0.078434,0.013185,0.999908,0.009741,0.008396,-0.004229,-0.211896,-0.576393,0.104212,-0.782312
22619,NaN,38.203038,3.746727,7.757550,-4.664357,1.962542,29.020488,2.081393,2.132842,-0.791804,-1.066162,-0.156006,-0.234375,0.382974,0.035171,0.073869,0.999881,0.010407,0.010664,-0.003959,-0.210081,-0.570600,0.091517,-0.788610
22620,NaN,21.768397,-2.797926,7.310318,1.785185,4.891885,12.725863,1.763221,1.670347,-1.273616,-1.055420,-0.168701,-0.242920,0.218096,-0.030000,0.071024,0.999906,0.008816,0.008351,-0.006368,-0.211942,-0.566794,0.080038,-0.792098
22621,NaN,16.896896,-3.453053,3.539273,-0.015936,6.117687,6.695390,1.496425,0.970785,-1.550108,-1.046143,-0.192383,-0.255371,0.168862,-0.036099,0.034307,0.999930,0.007482,0.004854,-0.007750,-0.214214,-0.565117,0.068685,-0.793749
22622,NaN,17.920017,-1.283751,3.527117,-1.245901,4.780693,7.816706,0.918439,1.219742,-1.582041,-1.039307,-0.207275,-0.259521,0.179301,-0.014414,0.034114,0.999940,0.004592,0.006099,-0.007910,-0.218684,-0.562212,0.060253,-0.795277
22623,NaN,17.785908,4.838655,8.644529,0.597768,-2.136210,10.424574,-0.240081,1.042225,-1.617011,-1.030518,-0.218018,-0.265869,0.178690,0.047047,0.085459,0.999953,-0.001200,0.005211,-0.008085,-0.226092,-0.558266,0.055521,-0.796328
22624,NaN,19.251937,8.600963,8.877465,-1.229531,-4.815357,12.519205,-0.081113,0.388131,-1.571513,-1.023682,-0.237305,-0.267822,0.193359,0.084528,0.088365,0.999967,-0.000406,0.001941,-0.007857,-0.233051,-0.557511,0.052044,-0.795085
22625,NaN,19.782147,8.627331,7.829636,-2.198816,-3.943013,12.696621,1.041505,0.243479,-1.656893,-1.023193,-0.254395,-0.271973,0.198620,0.084222,0.078497,0.999951,0.005207,0.001217,-0.008284,-0.236786,-0.558161,0.042999,-0.794065
22626,NaN,18.150932,5.360524,9.033772,0.791127,-1.591342,11.082931,0.954352,0.718420,-1.693750,-1.014160,-0.271484,-0.280273,0.182276,0.051634,0.089933,0.999946,0.004772,0.003592,-0.008469,-0.242416,-0.557231,0.034794,-0.793421
22627,NaN,14.316282,5.051915,9.085079,1.927703,-2.301927,7.622688,-0.275872,1.274324,-1.489393,-1.005371,-0.286621,-0.297119,0.144109,0.049573,0.089866,0.999951,-0.001379,0.006372,-0.007447,-0.249303,-0.552074,0.030193,-0.795079
22628,NaN,9.521269,4.808510,4.210882,-1.034736,-2.004243,1.430759,-0.965760,1.378786,-1.576274,-0.998779,-0.297119,-0.309814,0.095875,0.047532,0.041219,0.999934,-0.004829,0.006894,-0.007881,-0.259496,-0.545880,0.028698,-0.796149
22629,NaN,5.925951,3.481638,3.194789,-0.445408,-1.725834,-2.446108,-0.526395,1.148957,-1.712890,-0.981201,-0.312256,-0.322510,0.059737,0.034389,0.031515,0.999943,-0.002632,0.005745,-0.008564,-0.267901,-0.540839,0.024627,-0.796942
22630,NaN,3.058445,1.712706,5.226699,2.811146,-1.926512,-4.522043,0.101830,1.173865,-1.474689,-0.974854,-0.320801,-0.333008,0.031016,0.016873,0.052094,0.999955,0.000509,0.005869,-0.007373,-0.275390,-0.536746,0.019618,-0.797295
22631,NaN,1.063331,1.749736,6.064010,4.018640,-2.995108,-5.832267,0.098681,1.059552,-0.987760,-0.965820,-0.335693,-0.334961,0.011041,0.017414,0.060591,0.999974,0.000493,0.005298,-0.004939,-0.279159,-0.532742,0.015115,-0.798766
22632,NaN,2.313614,2.359271,5.123661,2.576177,-2.626031,-4.950803,0.117710,0.650096,-0.567964,-0.963379,-0.344238,-0.345459,0.023369,0.023496,0.051175,0.999991,0.000589,0.003250,-0.002840,-0.282042,-0.530340,0.012508,-0.799397
22633,NaN,4.499431,2.701839,5.106083,1.786206,-1.911519,-2.973658,0.249852,0.339642,-0.382895,-0.963379,-0.344238,-0.339111,0.045133,0.026868,0.051018,0.999996,0.001249,0.001698,-0.001914,-0.282929,-0.529357,0.010016,-0.799770
22634,NaN,6.185674,3.005368,5.869269,1.815339,-1.617639,-1.104600,0.242029,0.203638,-0.283272,-0.963379,-0.346436,-0.343262,0.061959,0.029895,0.058666,0.999998,0.001210,0.001018,-0.001416,-0.283807,-0.528703,0.007866,-0.799915
22635,NaN,7.681676,3.256612,7.343429,2.521616,-1.590805,0.894804,0.005388,0.114137,-0.244668,-0.959229,-0.346436,-0.351807,0.076898,0.032470,0.073391,0.999999,0.000027,0.000571,-0.001223,-0.284775,-0.528264,0.007036,-0.799869
22636,NaN,9.776108,2.943368,7.187134,1.935310,-0.310824,2.518109,-0.182139,0.063281,-0.143724,-0.957031,-0.346436,-0.347656,0.097805,0.029429,0.071814,0.999999,-0.000911,0.000316,-0.000719,-0.285571,-0.527405,0.006712,-0.800155
22637,NaN,11.219559,2.692302,6.558487,1.096439,0.747230,3.392620,-0.349824,0.139395,-0.035425,-0.954834,-0.346436,-0.349609,0.112246,0.027018,0.065459,0.999998,-0.001749,0.000697,-0.000177,-0.286639,-0.526349,0.007820,-0.800459
22638,NaN,11.483768,2.381470,6.066811,0.700904,1.289602,3.309811,-0.313573,0.273182,0.046642,-0.963379,-0.346436,-0.354004,0.114915,0.023936,0.060474,0.999998,-0.001568,0.001366,0.000233,-0.286444,-0.524391,0.007953,-0.801811
22639,NaN,11.176724,2.286391,5.561063,0.365043,1.391469,2.796935,-0.048565,0.319555,0.105694,-0.957275,-0.342041,-0.360352,0.111844,0.022936,0.055426,0.999999,-0.000243,0.001598,0.000528,-0.286159,-0.523036,0.007968,-0.802797
22640,NaN,10.224921,2.469532,5.578078,0.522874,0.818504,2.054037,0.180814,0.267058,0.142259,-0.959229,-0.348389,-0.362305,0.102306,0.024718,0.055667,0.999998,0.000904,0.001335,0.000711,-0.283883,-0.521825,0.006273,-0.804407
22641,NaN,9.201930,2.341648,6.093967,1.302546,0.316844,1.389912,0.454530,0.146185,0.195721,-0.957275,-0.344238,-0.358154,0.092041,0.023368,0.060926,0.999997,0.002273,0.000731,0.000979,-0.281913,-0.521875,0.004749,-0.805077
22642,NaN,8.631490,2.317927,5.718647,1.170818,0.213724,0.730641,0.733167,0.005216,0.228867,-0.959229,-0.346436,-0.351807,0.086290,0.023068,0.057269,0.999993,0.003666,0.000026,0.001144,-0.277505,-0.522467,0.001296,-0.806236
22643,NaN,8.142707,2.473064,6.110600,1.612242,-0.236343,0.536409,0.937490,-0.074199,0.277944,-0.959229,-0.344238,-0.351807,0.081370,0.024557,0.061252,0.999988,0.004687,-0.000371,0.001390,-0.273932,-0.524060,-0.001654,-0.806424
22644,NaN,7.860549,2.831780,6.557912,1.962290,-0.765813,0.597695,0.994654,-0.178882,0.321755,-0.967773,-0.342041,-0.343262,0.078501,0.028117,0.065790,0.999986,0.004973,-0.000894,0.001609,-0.268000,-0.525661,-0.005929,-0.807355
22645,NaN,7.756409,3.437540,7.291175,2.425809,-1.521661,1.001163,0.913413,-0.283897,0.375998,-0.963379,-0.342041,-0.337158,0.077396,0.034187,0.073178,0.999987,0.004567,-0.001419,0.001880,-0.264086,-0.528036,-0.008247,-0.807074
22646,NaN,8.270288,4.474678,8.221055,2.706074,-2.427556,2.136779,0.603715,-0.391846,0.449169,-0.965576,-0.340088,-0.332764,0.082441,0.044683,0.082507,0.999991,0.003019,-0.001959,0.002246,-0.258184,-0.529832,-0.010686,-0.807778
22647,NaN,9.406232,6.548414,8.121738,1.500430,-3.766727,3.636516,0.208515,-0.526595,0.568212,-0.972168,-0.331543,-0.322266,0.093662,0.065666,0.081533,0.999992,0.001043,-0.002633,0.002841,-0.255362,-0.532254,-0.009343,-0.807099
22648,NaN,10.974575,8.601100,7.689862,-0.106117,-4.880057,5.344027,-0.134352,-0.637359,0.729134,-0.982910,-0.327148,-0.311768,0.109185,0.086462,0.077189,0.999988,-0.000672,-0.003187,0.003646,-0.250254,-0.533997,-0.007953,-0.807563
22649,NaN,12.365975,9.514369,6.959844,-1.487503,-5.081909,6.430414,-0.360721,-0.633738,0.913870,-0.985596,-0.312256,-0.307617,0.123002,0.095833,0.069816,0.999983,-0.001804,-0.003169,0.004569,-0.247547,-0.536132,-0.003262,-0.807015
22650,NaN,13.014209,9.427184,6.912589,-1.676324,-4.921707,6.890238,-0.474066,-0.586103,1.093353,-0.989990,-0.307861,-0.307617,0.129421,0.095145,0.069281,0.999978,-0.002370,-0.002930,0.005467,-0.243035,-0.537311,0.000844,-0.807608
22651,NaN,13.368550,8.621143,7.913670,-0.607376,-4.571616,7.345227,-0.665282,-0.591489,1.213341,-0.994629,-0.290771,-0.309814,0.132924,0.087283,0.079241,0.999972,-0.003326,-0.002957,0.006067,-0.239913,-0.538871,0.007510,-0.807467
22652,NaN,14.259856,7.915863,8.452477,-0.163116,-4.002448,8.114799,-0.855407,-0.724942,1.287688,-1.011963,-0.277832,-0.299316,0.141777,0.080435,0.084697,0.999964,-0.004277,-0.003625,0.006438,-0.236894,-0.540180,0.014408,-0.807390
22653,NaN,15.829364,7.111932,8.394301,-0.380641,-3.015716,9.223156,-0.971275,-0.914282,1.314511,-1.018799,-0.262939,-0.299316,0.157435,0.072565,0.084314,0.999956,-0.004856,-0.004571,0.006572,-0.234134,-0.542602,0.022962,-0.806373
22654,NaN,17.127321,5.906242,8.243155,-0.402434,-1.761835,10.009029,-0.911965,-1.173388,1.325402,-1.029541,-0.252197,-0.284668,0.170389,0.060572,0.083159,0.999950,-0.004560,-0.005867,0.006627,-0.231615,-0.545584,0.030955,-0.804819
22655,NaN,17.728976,4.797567,7.414958,-0.744637,-0.705091,9.967309,-0.678266,-1.565509,1.373331,-1.032471,-0.226562,-0.272217,0.176367,0.049443,0.075367,0.999940,-0.003391,-0.007827,0.006867,-0.227682,-0.550853,0.039242,-0.801986
22656,NaN,17.471797,4.367793,6.667450,-0.970317,-0.546141,9.358571,-0.389620,-1.968575,1.521965,-1.047607,-0.218018,-0.250977,0.173711,0.045134,0.068301,0.999921,-0.001948,-0.009843,0.007610,-0.223067,-0.557507,0.046798,-0.798271
22657,NaN,16.771085,4.294542,7.008436,-0.214048,-1.240598,8.821257,-0.325511,-2.190719,1.622230,-1.056152,-0.209473,-0.236328,0.166574,0.044416,0.071842,0.999906,-0.001628,-0.010953,0.008111,-0.216966,-0.565455,0.055058,-0.793823
22658,NaN,15.359962,4.161636,5.422540,-0.928540,-1.393210,6.915382,-0.338288,-2.413418,1.651068,-1.065186,-0.190430,-0.208740,0.152580,0.042973,0.055999,0.999892,-0.001691,-0.012067,0.008255,-0.211786,-0.573733,0.063472,-0.788637
22659,NaN,13.027015,1.934717,2.322836,-1.907124,0.681246,3.405657,-0.078226,-2.760313,1.764056,-1.082764,-0.166748,-0.183594,0.129756,0.020503,0.025014,0.999866,-0.000391,-0.013801,0.008820,-0.204150,-0.583898,0.071756,-0.782456
22660,NaN,10.826399,-1.995458,-0.417166,-2.018706,4.365665,0.097866,-0.398626,-2.777315,2.344230,-1.091797,-0.145508,-0.152100,0.108532,-0.018690,-0.002628,0.999833,-0.001993,-0.013886,0.011720,-0.196555,-0.593045,0.083081,-0.776377
22661,NaN,11.600470,-1.534898,-0.497478,-2.266246,3.766709,1.042260,-1.257959,-3.119644,2.734291,-1.107422,-0.113525,-0.124756,0.116258,-0.013784,-0.003073,0.999765,-0.006289,-0.015597,0.013670,-0.188329,-0.602643,0.099118,-0.769109
22662,NaN,15.539749,-2.867926,-0.542647,-2.308871,5.184433,4.943748,-1.250327,-3.215792,2.940790,-1.114502,-0.081543,-0.091064,0.155856,-0.026412,-0.002753,0.999743,-0.006251,-0.016078,0.014703,-0.180644,-0.611921,0.116231,-0.761190
22663,NaN,16.247473,-4.826749,-1.011084,-1.784751,6.620909,5.718947,-0.988559,-3.010868,3.079985,-1.115479,-0.049316,-0.063721,0.163318,-0.045798,-0.007426,0.999756,-0.004942,-0.015053,0.015399,-0.170153,-0.620547,0.132107,-0.754000
22664,NaN,16.016158,-4.632788,-1.877724,-2.309468,6.166766,5.617706,-1.687520,-3.147613,2.839555,-1.120361,-0.023682,-0.030273,0.161064,-0.044187,-0.015868,0.999740,-0.008437,-0.015737,0.014197,-0.163578,-0.628769,0.150353,-0.745175
22665,NaN,17.586562,-3.449735,-0.740548,-1.723868,4.055929,7.573019,-2.242908,-3.206252,2.575421,-1.127197,-0.002441,-0.002930,0.176375,-0.032287,-0.004210,0.999726,-0.011214,-0.016030,0.012876,-0.158579,-0.636771,0.169386,-0.735312
22666,NaN,14.861456,-4.659442,-2.335460,-1.882308,5.254978,4.912934,-1.846206,-2.550547,2.065353,-1.127686,0.020996,0.026611,0.149365,-0.045256,-0.021031,0.999823,-0.009230,-0.012752,0.010326,-0.155521,-0.642713,0.185317,-0.726905
22667,NaN,10.195938,-7.814069,-5.909236,-2.764615,9.446803,0.338239,-1.123524,-1.470201,1.635064,-1.132324,0.033936,0.037109,0.103024,-0.077629,-0.057901,0.999924,-0.005617,-0.007351,0.008175,-0.151815,-0.645619,0.195783,-0.722356
22668,NaN,13.459443,-5.835261,-1.394805,0.001846,5.229447,3.964096,-0.144516,-1.587342,0.810559,-1.130371,0.042480,0.045410,0.134934,-0.057816,-0.012836,0.999960,-0.000723,-0.007937,0.004053,-0.148381,-0.650422,0.200836,-0.717356
22669,NaN,5.900658,-4.864589,7.636308,8.343350,0.267021,-2.948875,-0.289296,-0.656472,0.373087,-1.134521,0.040283,0.051758,0.058846,-0.048425,0.076627,0.999992,-0.001446,-0.003282,0.001865,-0.147323,-0.652182,0.203572,-0.715202
22670,NaN,3.302471,-2.177992,12.414021,11.486140,-4.340423,-5.455632,-1.380189,0.792508,-0.001315,-1.136719,0.038086,0.034912,0.033517,-0.020923,0.124154,0.999968,-0.006901,0.003962,-0.000007,-0.151846,-0.648530,0.207598,-0.716418
22671,NaN,-0.049122,1.145754,10.887122,8.788356,-6.485341,-9.078454,-2.378300,2.165943,-0.761931,-1.142822,0.027588,0.011719,0.000734,0.012750,0.108721,0.999863,-0.011891,0.010829,-0.003809,-0.164514,-0.639669,0.211974,-0.720296
22672,NaN,3.024118,2.090915,5.328582,3.041091,-4.636163,-6.471163,-2.469676,1.837404,-1.220313,-1.142578,0.010498,-0.011230,0.030857,0.021376,0.052742,0.999863,-0.012348,0.009187,-0.006101,-0.176123,-0.632654,0.213444,-0.723306
22673,NaN,3.632846,1.724498,-5.748394,-6.246381,1.604818,-7.052279,-0.853774,2.531044,-0.979449,-1.148682,-0.002197,-0.038574,0.035680,0.016822,-0.058011,0.999899,-0.004269,0.012655,-0.004897,-0.185049,-0.623730,0.211183,-0.729465
22674,NaN,-3.964521,4.688740,-12.743013,-12.479782,2.638911,-15.924883,2.261132,2.460172,-0.823437,-1.146484,-0.008545,-0.063965,-0.041007,0.048487,-0.126389,0.999852,0.011305,0.012300,-0.004117,-0.181633,-0.617882,0.196611,-0.739307
22675,NaN,-5.947955,0.865529,-8.346845,-6.476319,3.208049,-17.130328,3.905073,1.871495,-0.726207,-1.144043,-0.017090,-0.072510,-0.060220,0.010493,-0.082714,0.999759,0.019524,0.009357,-0.003631,-0.174050,-0.615075,0.178186,-0.748090
22676,NaN,-8.687192,-2.351046,-1.517043,1.414226,2.377769,-18.509887,2.991815,1.347229,-0.577590,-1.144043,-0.021484,-0.091309,-0.087040,-0.023035,-0.014931,0.999861,0.014958,0.006736,-0.002888,-0.168378,-0.613101,0.164298,-0.754163
22677,NaN,-7.875023,-2.227392,1.656527,3.966019,0.818435,-17.114892,2.172697,0.655017,-0.336766,-1.145996,-0.027832,-0.091309,-0.078734,-0.022321,0.016581,0.999934,0.010863,0.003275,-0.001684,-0.163514,-0.612696,0.154511,-0.757623
22678,NaN,-5.705538,0.224052,2.181171,2.944105,-1.463749,-14.965402,1.755899,-0.003481,-0.136742,-1.147949,-0.027832,-0.087158,-0.057054,0.002088,0.021829,0.999961,0.008779,-0.000017,-0.000684,-0.158021,-0.614329,0.147157,-0.758929
22679,NaN,-3.902133,0.510217,-0.085244,0.468893,-0.657276,-13.665265,1.497357,-0.334826,-0.020580,-1.147949,-0.032227,-0.080811,-0.039019,0.005113,-0.000880,0.999971,0.007487,-0.001674,-0.000103,-0.153249,-0.616780,0.141672,-0.758964
22680,NaN,-2.772029,0.077524,-1.516065,-0.864674,0.374585,-12.829403,1.316000,-0.610871,-0.013751,-1.143555,-0.034424,-0.078613,-0.027674,0.000877,-0.015240,0.999974,0.006580,-0.003054,-0.000069,-0.147921,-0.620189,0.136564,-0.758179
22681,NaN,-2.247742,-0.064063,-0.846344,-0.326809,0.264660,-12.178245,0.933424,-0.752462,-0.122269,-1.150146,-0.027832,-0.068115,-0.022446,-0.000587,-0.008551,0.999982,0.004667,-0.003762,-0.000611,-0.144973,-0.623804,0.133200,-0.756379
22682,NaN,-1.788558,-0.677869,-0.488999,0.131497,0.717678,-11.647134,0.356212,-0.647495,-0.265931,-1.145508,-0.036621,-0.057373,-0.017879,-0.006746,-0.004960,0.999992,0.001781,-0.003237,-0.001330,-0.143719,-0.626761,0.131079,-0.754542
22683,NaN,-0.632018,-0.794060,-1.238394,-0.713906,1.169224,-10.641451,-0.176016,-0.548000,-0.372121,-1.145264,-0.042969,-0.059570,-0.006301,-0.007940,-0.012394,0.999994,-0.000880,-0.002740,-0.001861,-0.145314,-0.628942,0.130970,-0.752438
22684,NaN,0.775728,-0.029479,-1.553317,-1.526789,0.660871,-9.315130,-0.471210,-0.538719,-0.419969,-1.145020,-0.049316,-0.051025,0.007798,-0.000348,-0.015511,0.999991,-0.002356,-0.002694,-0.002100,-0.147331,-0.630982,0.131436,-0.750253
22685,NaN,1.564609,0.869818,-1.085162,-1.570325,-0.292164,-8.459597,-0.765890,-0.429232,-0.502689,-1.140869,-0.051514,-0.051025,0.015691,0.008617,-0.010851,0.999987,-0.003829,-0.002146,-0.002513,-0.151349,-0.632351,0.133038,-0.748016
22686,NaN,1.883914,0.512174,-0.936211,-1.338104,0.013585,-8.110571,-1.039110,-0.173625,-0.619451,-1.140625,-0.057861,-0.048828,0.018863,0.005015,-0.009372,0.999981,-0.005196,-0.000868,-0.003097,-0.156512,-0.632684,0.135004,-0.746317
22687,NaN,2.315828,-0.116771,-0.653958,-0.886628,0.525518,-7.635069,-1.259364,0.151314,-0.749870,-1.140137,-0.070801,-0.050781,0.023149,-0.001296,-0.006549,0.999973,-0.006297,0.000757,-0.003749,-0.163391,-0.631623,0.137209,-0.745339
22688,NaN,3.252455,0.413198,-0.262976,-0.893469,-0.022026,-6.647333,-1.468938,0.386713,-0.829308,-1.140381,-0.068604,-0.063477,0.032536,0.003977,-0.002722,0.999963,-0.007345,0.001934,-0.004146,-0.171295,-0.629586,0.139836,-0.744798
22689,NaN,3.530505,1.097346,-0.264244,-1.240488,-0.576554,-6.367829,-1.451044,0.462213,-0.836328,-1.131348,-0.083740,-0.065674,0.035344,0.010806,-0.002803,0.999962,-0.007255,0.002311,-0.004182,-0.179294,-0.627183,0.142206,-0.744495
22690,NaN,3.282967,1.631553,-0.142321,-1.351095,-1.087021,-6.579601,-1.218598,0.426514,-0.803299,-1.126953,-0.094238,-0.072021,0.032892,0.016174,-0.001592,0.999971,-0.006093,0.002133,-0.004016,-0.186579,-0.625093,0.144113,-0.744095
22691,NaN,2.981024,2.185183,0.434669,-1.073512,-1.829980,-6.755061,-0.866905,0.379659,-0.771181,-1.126953,-0.092285,-0.080322,0.029902,0.021755,0.004196,0.999981,-0.004334,0.001898,-0.003856,-0.192428,-0.623416,0.144571,-0.743924
22692,NaN,2.475598,2.171630,0.669491,-0.807111,-1.949288,-7.197053,-0.526208,0.398594,-0.705643,-1.122314,-0.104980,-0.086670,0.024846,0.021646,0.006588,0.999988,-0.002631,0.001993,-0.003528,-0.197513,-0.621924,0.144442,-0.743865
22693,NaN,1.744266,2.186624,0.607874,-0.770763,-1.997555,-7.912963,-0.198947,0.457264,-0.620344,-1.115723,-0.111328,-0.093018,0.017524,0.021818,0.006017,0.999992,-0.000995,0.002286,-0.003102,-0.200768,-0.620470,0.142801,-0.744525
22694,NaN,1.384840,1.535852,0.407828,-0.588309,-1.362444,-8.315835,0.170691,0.547021,-0.549001,-1.119873,-0.115723,-0.099365,0.013902,0.015317,0.004053,0.999992,0.000853,0.002735,-0.002745,-0.203488,-0.618949,0.140559,-0.745479
22695,NaN,1.578614,0.975853,1.274793,0.399485,-1.232093,-7.971021,0.517920,0.646504,-0.497467,-1.111328,-0.119873,-0.103516,0.015851,0.009686,0.012722,0.999988,0.002590,0.003233,-0.002487,-0.204191,-0.617408,0.136430,-0.747329
22696,NaN,2.240129,1.155368,2.732691,1.473333,-1.943353,-7.006766,0.638161,0.753805,-0.436423,-1.109131,-0.128418,-0.107666,0.022529,0.011418,0.027279,0.999985,0.003191,0.003769,-0.002182,-0.205266,-0.615477,0.132596,-0.749315
22697,NaN,4.129818,1.917483,3.361689,1.355921,-2.581933,-4.962138,0.734410,1.027058,-0.399798,-1.104980,-0.124268,-0.122559,0.041508,0.018969,0.033474,0.999978,0.003672,0.005135,-0.001999,-0.205180,-0.612634,0.127557,-0.752536
22698,NaN,7.768208,1.797288,4.574125,1.835940,-2.366447,-1.122153,1.307705,1.382211,-0.464610,-1.098389,-0.134766,-0.133057,0.078037,0.017495,0.045318,0.999952,0.006538,0.006911,-0.002323,-0.204563,-0.608981,0.120285,-0.756854
22699,NaN,9.081009,-1.186675,11.121184,8.642552,-2.097689,1.520890,1.955794,1.385362,-0.564028,-1.095947,-0.143311,-0.139404,0.091541,-0.013207,0.110455,0.999924,0.009779,0.006927,-0.002820,-0.201560,-0.606032,0.109740,-0.761614
22700,NaN,22.516883,2.413587,8.465321,2.255813,-1.560030,14.207432,2.284114,0.573639,-0.501733,-1.087158,-0.154053,-0.135010,0.225469,0.022607,0.084271,0.999928,0.011420,0.002868,-0.002509,-0.196790,-0.606321,0.098757,-0.764131
22701,NaN,39.967946,5.599420,-4.493215,-13.857433,4.024805,28.144500,3.732504,0.857499,-0.812670,-1.078369,-0.160645,-0.143555,0.399710,0.055217,-0.045611,0.999808,0.018661,0.004287,-0.004063,-0.188965,-0.607002,0.081172,-0.767627
22702,NaN,38.212212,-0.076225,1.166878,-6.406549,7.367256,27.148905,3.239802,1.685507,-1.363684,-1.071533,-0.184082,-0.158203,0.382184,-0.003522,0.008406,0.999810,0.016198,0.008427,-0.006818,-0.185947,-0.604030,0.063584,-0.772353
22703,NaN,23.987481,-1.630163,4.101121,-0.644276,5.545497,13.928961,1.198530,2.010951,-1.896077,-1.056396,-0.197021,-0.172852,0.240100,-0.018813,0.038490,0.999887,0.005992,0.010054,-0.009480,-0.190267,-0.597913,0.051353,-0.776956
22704,NaN,16.538282,2.809124,2.064678,-2.694926,0.847207,6.850874,0.797578,1.593544,-1.857018,-1.057861,-0.218262,-0.181152,0.165792,0.026474,0.019435,0.999917,0.003988,0.007967,-0.009285,-0.196173,-0.593020,0.041752,-0.779807
22705,NaN,17.209812,4.131172,5.606839,-0.152628,-0.859252,8.732027,0.842600,0.809621,-1.810015,-1.048584,-0.239746,-0.183105,0.172687,0.039516,0.055539,0.999942,0.004213,0.004048,-0.009050,-0.200890,-0.591034,0.032304,-0.780563
22706,NaN,21.449482,4.514050,9.187923,2.086872,-0.650427,13.853251,0.261872,0.348309,-2.081994,-1.037354,-0.265381,-0.193604,0.215108,0.042783,0.091562,0.999943,0.001309,0.001742,-0.010410,-0.210459,-0.590388,0.026447,-0.778749
22707,NaN,24.321338,5.130880,11.264605,3.232184,-0.406955,17.281565,0.061497,0.357768,-2.465648,-1.023926,-0.289062,-0.197754,0.244022,0.048269,0.112225,0.999922,0.000307,0.001789,-0.012328,-0.219908,-0.589340,0.018552,-0.777158
22708,NaN,22.314964,6.579746,8.817997,0.983817,-1.002953,15.026705,-0.081049,0.632946,-2.805779,-1.016846,-0.312500,-0.210205,0.224321,0.062691,0.087445,0.999897,-0.000405,0.003165,-0.014028,-0.231174,-0.587085,0.010002,-0.775751
22709,NaN,19.416487,6.465156,7.382800,0.308830,-0.854487,11.923179,-0.394619,0.996204,-2.752300,-1.003418,-0.338135,-0.227051,0.195395,0.062112,0.072733,0.999891,-0.001973,0.004981,-0.013761,-0.243032,-0.582839,0.002301,-0.775390
22710,NaN,15.165346,5.067610,7.288376,1.514901,-0.676795,7.680721,-0.829059,1.318626,-2.396794,-0.992188,-0.359619,-0.239502,0.152724,0.049149,0.071673,0.999898,-0.004145,0.006593,-0.011984,-0.254788,-0.576754,-0.003005,-0.776163
22711,NaN,9.286157,-0.331647,7.252102,4.676015,1.976649,0.824992,-1.166245,1.543512,-1.878184,-0.983398,-0.372314,-0.260498,0.093384,-0.003772,0.071823,0.999909,-0.005831,0.007717,-0.009391,-0.265393,-0.569198,-0.005861,-0.778168
22712,NaN,4.101186,-3.751291,6.183726,6.135400,3.140426,-5.162456,-1.131494,1.706106,-1.372779,-0.970459,-0.383057,-0.285889,0.041281,-0.037446,0.061698,0.999924,-0.005657,0.008530,-0.006864,-0.273917,-0.561000,-0.007556,-0.781147
22713,NaN,0.286757,-1.875688,3.557408,3.850449,0.665122,-8.819191,-0.776650,1.685470,-0.949517,-0.961914,-0.389404,-0.302979,0.003079,-0.018633,0.035621,0.999946,-0.003883,0.008427,-0.004747,-0.279725,-0.553288,-0.009493,-0.784561
22714,NaN,-1.974607,0.934985,2.298187,2.068609,-2.353952,-10.296914,-0.645742,1.501410,-0.499411,-0.955322,-0.395752,-0.313477,-0.019549,0.009473,0.023099,0.999963,-0.003229,0.007507,-0.002497,-0.282569,-0.546378,-0.010880,-0.788357
22715,NaN,-2.820954,2.172022,1.949348,1.438435,-3.686495,-10.716002,-0.558663,1.142418,-0.088959,-0.958008,-0.385010,-0.328369,-0.028088,0.021787,0.019593,0.999980,-0.002793,0.005712,-0.000445,-0.284378,-0.541070,-0.010534,-0.791367
22716,NaN,-2.358874,2.768982,1.907293,1.039154,-3.961257,-10.125596,-0.251369,0.648214,0.207710,-0.949463,-0.385010,-0.332520,-0.023556,0.027689,0.019115,0.999993,-0.001257,0.003241,0.001039,-0.283180,-0.538039,-0.010523,-0.793859
22717,NaN,0.114645,3.534656,2.817880,0.850378,-3.725554,-7.395153,0.232337,0.259723,0.362729,-0.955811,-0.385010,-0.330322,0.001119,0.035316,0.028218,0.999997,0.001162,0.001299,0.001814,-0.281100,-0.537355,-0.010837,-0.795057
22718,NaN,4.366106,4.855437,4.675416,0.772069,-3.422996,-2.588797,0.443561,0.032955,0.521962,-0.958008,-0.382812,-0.328369,0.043542,0.048564,0.046855,0.999994,0.002218,0.000165,0.002610,-0.276946,-0.537724,-0.011866,-0.796249
22719,NaN,7.886597,5.745250,4.876495,-0.364426,-2.662876,0.759098,0.431598,0.136271,0.596289,-0.958252,-0.376465,-0.326172,0.078728,0.057582,0.048835,0.999993,0.002158,0.000681,0.002981,-0.273401,-0.537811,-0.012169,-0.797410
22720,NaN,9.268913,5.413287,5.299771,-0.237533,-1.909557,2.002601,0.472898,0.353387,0.627687,-0.958496,-0.363525,-0.330566,0.092612,0.054298,0.052962,0.999991,0.002364,0.001767,0.003138,-0.268884,-0.536922,-0.013429,-0.799522
22721,NaN,10.793402,5.416303,6.239504,0.115148,-1.524754,3.693857,0.122377,0.397253,0.616987,-0.954346,-0.365723,-0.330566,0.107890,0.054458,0.062214,0.999993,0.000612,0.001986,0.003085,-0.266060,-0.535537,-0.012795,-0.801404
22722,NaN,13.587148,5.293702,6.641501,-0.360690,-0.348569,6.202638,-0.444698,0.314858,0.498087,-0.954346,-0.361328,-0.334717,0.135843,0.053423,0.066083,0.999993,-0.002223,0.001574,0.002490,-0.264750,-0.533557,-0.010551,-0.803190
22723,NaN,17.300916,4.423034,6.536214,-1.270371,1.991402,9.055973,-0.833563,0.244510,0.168237,-0.952393,-0.357178,-0.336914,0.173051,0.044647,0.064965,0.999990,-0.004168,0.001223,0.000841,-0.266282,-0.531475,-0.007078,-0.804101
22724,NaN,17.383820,4.013209,4.860606,-2.674281,2.830835,8.263872,-1.047359,0.400159,-0.243670,-0.956787,-0.359131,-0.349609,0.173984,0.040173,0.048048,0.999984,-0.005237,0.002001,-0.001218,-0.269675,-0.528332,-0.004395,-0.805060
22725,NaN,13.936296,3.892869,3.455509,-2.892160,1.861641,4.660879,-0.946451,0.411926,-0.441181,-0.954590,-0.359131,-0.351807,0.139519,0.038783,0.034084,0.999984,-0.004732,0.002060,-0.002206,-0.273937,-0.525379,-0.002305,-0.805562
22726,NaN,11.282703,2.935478,3.460566,-1.732177,1.555520,2.123458,-0.711193,0.210596,-0.513131,-0.946045,-0.357178,-0.358154,0.112938,0.029188,0.034383,0.999990,-0.003556,0.001053,-0.002566,-0.277767,-0.523487,-0.001218,-0.805485
22727,NaN,8.300041,1.505077,3.658641,-0.050982,1.415342,-0.727774,-0.088233,0.100707,-0.506436,-0.945801,-0.365723,-0.360107,0.083057,0.014857,0.036538,0.999997,-0.000441,0.000504,-0.002532,-0.280036,-0.522954,-0.002328,-0.805043
22728,NaN,6.068698,0.897084,5.469753,2.430642,0.438429,-1.973587,0.640607,-0.083195,-0.430399,-0.943359,-0.376465,-0.357910,0.060683,0.008665,0.054751,0.999992,0.003203,-0.000416,-0.002152,-0.280035,-0.524141,-0.005999,-0.804252
22729,NaN,5.366280,1.042654,6.779442,3.735888,-0.316026,-1.952204,1.290841,-0.260537,-0.311819,-0.945312,-0.382812,-0.341064,0.053590,0.009905,0.067929,0.999977,0.006454,-0.001303,-0.001559,-0.277907,-0.526975,-0.011641,-0.803075
22730,NaN,5.471955,1.376040,7.499206,4.257440,-0.662971,-1.475596,1.516782,-0.353451,-0.171889,-0.947266,-0.385010,-0.334717,0.054598,0.013144,0.075190,0.999969,0.007584,-0.001767,-0.000859,-0.274168,-0.530384,-0.018014,-0.801998
22731,NaN,5.668639,2.013436,8.454314,4.853491,-1.294617,-0.733641,1.270310,-0.507699,0.023210,-0.951660,-0.385010,-0.326172,0.056469,0.019603,0.084812,0.999977,0.006352,-0.002538,0.000116,-0.270745,-0.534150,-0.022350,-0.800550
22732,NaN,6.064174,2.905816,9.758130,5.607971,-2.166508,0.399804,0.638676,-0.717987,0.250500,-0.951660,-0.382812,-0.319824,0.060254,0.028822,0.097890,0.999988,0.003193,-0.003590,0.001252,-0.267118,-0.537725,-0.023949,-0.799329
22733,NaN,7.150757,4.981506,9.115828,4.008577,-3.335123,1.670070,0.309842,-0.933843,0.500041,-0.958008,-0.380859,-0.307129,0.070956,0.049851,0.091568,0.999985,0.001549,-0.004669,0.002500,-0.264394,-0.541922,-0.022595,-0.797437
22734,NaN,8.930144,7.511834,8.928615,2.477004,-4.770221,3.862145,0.198569,-1.162863,0.814309,-0.966797,-0.370117,-0.292480,0.088473,0.075391,0.089877,0.999974,0.000993,-0.005814,0.004072,-0.259377,-0.546630,-0.020622,-0.795923
22735,NaN,11.852543,10.217754,8.482350,0.394899,-5.917148,6.970021,0.315917,-1.220640,1.145808,-0.971191,-0.363770,-0.277588,0.117417,0.102717,0.085704,0.999964,0.001580,-0.006103,0.005729,-0.254070,-0.551996,-0.017164,-0.794012
22736,NaN,15.596501,12.502401,9.005158,-0.792006,-6.738947,11.034343,0.429842,-1.189492,1.429358,-0.986084,-0.355225,-0.269287,0.154527,0.125937,0.091243,0.999954,0.002149,-0.005947,0.007147,-0.245931,-0.557072,-0.014522,-0.793081
22737,NaN,20.052710,13.284567,9.274554,-1.793576,-6.078495,15.175762,0.153494,-1.119384,1.568204,-0.993164,-0.331543,-0.258789,0.198954,0.134338,0.093965,0.999953,0.000767,-0.005597,0.007841,-0.239355,-0.561787,-0.009386,-0.791843
22738,NaN,22.289267,11.350581,8.613850,-2.091038,-3.772020,16.287617,-0.174617,-1.002651,1.495342,-1.004150,-0.321045,-0.243896,0.221600,0.115242,0.087151,0.999959,-0.000873,-0.005013,0.007477,-0.233248,-0.565339,-0.004089,-0.791183
22739,NaN,21.674536,8.412256,7.430864,-1.797485,-1.512842,14.482048,-0.193881,-1.106284,1.371331,-1.015137,-0.305908,-0.233398,0.215746,0.085677,0.075421,0.999961,-0.000969,-0.005531,0.006857,-0.228385,-0.569494,0.001845,-0.789629
22740,NaN,19.250297,6.420592,6.908175,-0.791172,-0.833412,11.592606,-0.143683,-1.401882,1.270911,-1.021729,-0.295410,-0.220947,0.191599,0.065476,0.070380,0.999955,-0.000718,-0.007009,0.006354,-0.223260,-0.574615,0.006937,-0.787353
22741,NaN,16.312157,5.371704,6.780913,0.376958,-1.215947,8.607088,-0.192540,-1.769290,1.300284,-1.032715,-0.282471,-0.206055,0.162159,0.054840,0.069194,0.999939,-0.000963,-0.008846,0.006501,-0.218620,-0.581285,0.013405,-0.783667
22742,NaN,13.910731,4.528745,6.755307,1.405234,-1.562958,6.162966,-0.407673,-1.968675,1.452699,-1.043457,-0.269775,-0.185059,0.138100,0.046432,0.068822,0.999923,-0.002038,-0.009843,0.007263,-0.213723,-0.588217,0.020841,-0.779672
22743,NaN,14.447273,1.997662,5.797354,1.539756,0.786902,5.785826,-0.726809,-2.450515,1.816287,-1.061035,-0.252686,-0.161865,0.143558,0.021498,0.059660,0.999877,-0.003634,-0.012252,0.009081,-0.208499,-0.596730,0.031632,-0.774235
22744,NaN,13.681055,0.457415,3.153222,0.058896,2.344759,4.036613,-1.034108,-2.538233,2.077710,-1.074219,-0.235596,-0.140869,0.136337,0.006161,0.033235,0.999852,-0.005170,-0.012691,0.010388,-0.202937,-0.604873,0.043988,-0.768772
22745,NaN,12.513375,-0.729783,0.522510,-1.500827,3.550637,2.125262,-0.964885,-2.395593,2.459227,-1.083496,-0.201416,-0.115723,0.125136,-0.005729,0.006754,0.999841,-0.004824,-0.011977,0.012295,-0.195844,-0.612464,0.057557,-0.763689
22746,NaN,12.704944,-1.970691,-0.204628,-1.581000,4.566481,2.102334,-0.587043,-2.570882,2.896861,-1.092773,-0.169189,-0.090576,0.127329,-0.017867,-0.000356,0.999808,-0.002935,-0.012854,0.014483,-0.185854,-0.620587,0.070916,-0.758486
22747,NaN,12.423464,-1.019069,0.744887,-0.860035,2.855470,2.312487,-0.612263,-2.628162,3.182833,-1.108643,-0.137207,-0.063232,0.124263,-0.008187,0.009109,0.999782,-0.003061,-0.013140,0.015913,-0.174712,-0.628719,0.085539,-0.752908
22748,NaN,12.793647,-1.746048,-0.418341,-1.561654,3.502184,2.523100,-0.841677,-2.650867,3.294609,-1.115723,-0.107422,-0.035889,0.128241,-0.015362,-0.002417,0.999768,-0.004208,-0.013253,0.016472,-0.163582,-0.636303,0.100973,-0.747103
22749,NaN,13.277569,-2.790745,-1.766855,-2.305565,4.495914,2.901290,-1.284407,-2.688656,3.391795,-1.120850,-0.072998,-0.008545,0.133445,-0.025753,-0.015707,0.999745,-0.006421,-0.013442,0.016958,-0.153600,-0.643420,0.118733,-0.740486
22750,NaN,12.346075,-1.879526,-2.370060,-2.896133,3.331614,2.106448,-2.191527,-2.696461,3.143402,-1.128174,-0.038818,0.014404,0.124041,-0.017095,-0.021837,0.999726,-0.010957,-0.013481,0.015716,-0.148084,-0.649469,0.139427,-0.732681
22751,NaN,13.824508,-1.892729,-3.110347,-3.522335,3.252692,3.654506,-2.255448,-2.531741,2.653525,-1.128662,-0.019775,0.037598,0.138860,-0.017424,-0.029146,0.999768,-0.011276,-0.012658,0.013267,-0.143889,-0.655072,0.158146,-0.724684
22752,NaN,10.402001,-5.221710,-5.526741,-3.750033,6.961858,0.359300,-1.941865,-2.103894,1.931574,-1.129150,-0.000488,0.058594,0.105091,-0.051732,-0.053662,0.999851,-0.009709,-0.010519,0.009657,-0.141944,-0.659533,0.173190,-0.717547
22753,NaN,11.778742,-4.943209,-6.266337,-4.454801,6.821520,1.851654,-0.817662,-1.574968,0.695381,-1.126953,0.001709,0.077393,0.118446,-0.049274,-0.061531,0.999955,-0.004088,-0.007875,0.003477,-0.140776,-0.663970,0.179525,-0.712107
22754,NaN,9.434495,-3.485829,1.434313,2.116120,2.088547,-0.097916,-0.296058,-1.098265,0.327673,-1.129150,0.003662,0.085938,0.094321,-0.034682,0.014913,0.999982,-0.001480,-0.005491,0.001638,-0.139730,-0.667341,0.182568,-0.708379
22755,NaN,7.225532,-0.074026,5.118702,4.085416,-2.561544,-2.385538,-1.126200,0.216544,-0.116537,-1.137451,0.001709,0.077637,0.072310,-0.000494,0.051112,0.999983,-0.005631,0.001083,-0.000583,-0.144097,-0.665881,0.186013,-0.707981
22756,NaN,4.102248,-0.917519,5.313646,4.804617,-1.790029,-5.383762,-1.484227,1.810245,-0.693064,-1.139404,-0.013184,0.048096,0.041470,-0.008926,0.052829,0.999925,-0.007421,0.009051,-0.003465,-0.152924,-0.659033,0.187464,-0.712143
22757,NaN,1.600528,-1.050298,6.549031,6.088009,-2.212473,-7.669574,-1.298468,2.739345,-1.111375,-1.143555,-0.021729,0.014404,0.016844,-0.010171,0.065330,0.999870,-0.006492,0.013696,-0.005557,-0.163709,-0.649241,0.186305,-0.719011
22758,NaN,1.248847,1.007092,4.507766,3.284863,-3.064835,-8.167022,-1.706506,2.688845,-1.500216,-1.145020,-0.047363,-0.010986,0.013169,0.010357,0.044816,0.999845,-0.008532,0.013444,-0.007501,-0.176509,-0.639539,0.184839,-0.725030
22759,NaN,1.848570,-1.559941,-5.476672,-4.142394,4.153464,-8.616790,-1.817444,2.697502,-1.340695,-1.144775,-0.062256,-0.044678,0.017639,-0.016218,-0.054863,0.999845,-0.009087,0.013487,-0.006703,-0.189647,-0.629296,0.184730,-0.730682
22760,NaN,-4.940812,-0.972004,-9.602178,-6.957402,5.407085,-16.130050,0.578497,2.463854,-1.039234,-1.146484,-0.072998,-0.065674,-0.050635,-0.009182,-0.095430,0.999906,0.002892,0.012319,-0.005196,-0.193302,-0.621800,0.176549,-0.738126
22761,NaN,-6.426996,-2.949515,-6.512934,-3.084185,5.285395,-17.226984,2.288334,1.805945,-0.667424,-1.142578,-0.070801,-0.080566,-0.064953,-0.028536,-0.064875,0.999888,0.011441,0.009029,-0.003337,-0.190224,-0.617865,0.164263,-0.745034
22762,NaN,-6.935376,-3.372919,-2.488693,0.633750,3.541480,-17.073892,2.293380,1.399022,-0.372570,-1.148438,-0.085693,-0.093018,-0.069590,-0.033315,-0.024784,0.999908,0.011467,0.006995,-0.001863,-0.185355,-0.615127,0.153080,-0.750885
22763,NaN,-7.058811,-2.361974,-0.713327,1.715676,1.768570,-16.872655,2.165133,0.853355,-0.072327,-1.140137,-0.077148,-0.095215,-0.070627,-0.023517,-0.007087,0.999932,0.010825,0.004267,-0.000362,-0.179609,-0.613942,0.143926,-0.755050
22764,NaN,-5.987531,-1.321013,0.379931,2.008344,0.467014,-15.599597,2.364505,0.202766,0.242569,-1.142334,-0.077148,-0.095215,-0.059855,-0.013327,0.003703,0.999929,0.011822,0.001014,0.001213,-0.171114,-0.615134,0.135335,-0.757638
22765,NaN,-4.077951,0.725805,0.303242,0.719454,-1.152908,-13.737172,2.258801,-0.279854,0.338623,-1.142578,-0.070801,-0.091064,-0.040796,0.007155,0.003057,0.999934,0.011294,-0.001399,0.001693,-0.162684,-0.617855,0.128049,-0.758546
22766,NaN,-2.904265,1.135185,0.072688,0.145255,-1.320271,-12.634824,1.892249,-0.531106,0.264055,-1.146484,-0.074951,-0.073975,-0.029060,0.011306,0.000757,0.999951,0.009461,-0.002655,0.001320,-0.154958,-0.621251,0.121824,-0.758416
22767,NaN,-2.473084,0.861698,-0.410759,-0.261781,-0.846773,-12.311054,1.326791,-0.644089,0.134592,-1.144531,-0.072998,-0.065674,-0.024723,0.008628,-0.004130,0.999973,0.006634,-0.003220,0.000673,-0.149931,-0.624621,0.117706,-0.757308
22768,NaN,-1.816766,0.755938,-1.225030,-1.085233,-0.403627,-11.820701,1.007533,-0.666154,0.050011,-1.148682,-0.068604,-0.055176,-0.018129,0.007617,-0.012272,0.999982,0.005038,-0.003331,0.000250,-0.145722,-0.627888,0.114269,-0.755953
22769,NaN,-0.967283,0.372172,-1.590463,-1.433354,0.139476,-11.049514,0.839505,-0.622887,-0.012590,-1.146484,-0.072998,-0.052979,-0.009623,0.003789,-0.015919,0.999986,0.004198,-0.003114,-0.000063,-0.142777,-0.630851,0.111508,-0.754459
22770,NaN,0.178067,0.066732,-0.940288,-0.919245,0.274204,-9.802898,0.814455,-0.464526,-0.057130,-1.146484,-0.072998,-0.050781,0.001803,0.000705,-0.009396,0.999989,0.004072,-0.002323,-0.000286,-0.139804,-0.633234,0.108397,-0.753472
22771,NaN,1.257970,0.242840,-0.337490,-0.594228,-0.021471,-8.628716,0.646976,-0.257656,-0.127218,-1.137939,-0.072998,-0.048828,0.012586,0.002431,-0.003351,0.999994,0.003235,-0.001288,-0.000636,-0.138096,-0.634720,0.105735,-0.752915
22772,NaN,1.882278,0.092713,-0.186677,-0.497359,0.115244,-7.989019,0.357427,-0.060613,-0.257725,-1.146240,-0.081543,-0.044434,0.018825,0.000906,-0.001859,0.999998,0.001787,-0.000303,-0.001289,-0.137610,-0.635351,0.103476,-0.752785
22773,NaN,2.409850,0.600113,0.221948,-0.370180,-0.450367,-7.388455,0.075440,0.139674,-0.395258,-1.142090,-0.079346,-0.048584,0.024112,0.005953,0.002205,0.999998,0.000377,0.000698,-0.001976,-0.138931,-0.635079,0.101840,-0.752995
22774,NaN,2.728733,1.519508,0.848221,-0.154458,-1.482508,-6.939947,-0.320733,0.369355,-0.581577,-1.139648,-0.087891,-0.061279,0.027347,0.015129,0.008407,0.999993,-0.001604,0.001847,-0.002908,-0.142082,-0.633777,0.100837,-0.753639
22775,NaN,2.867740,1.979719,1.071235,-0.145044,-1.955469,-6.739294,-0.693495,0.522576,-0.742145,-1.133057,-0.096436,-0.063477,0.028778,0.019727,0.010569,0.999984,-0.003467,0.002613,-0.003711,-0.147338,-0.631677,0.100725,-0.754407
22776,NaN,2.726114,1.728234,0.819197,-0.292638,-1.623222,-6.919772,-0.918871,0.563050,-0.820022,-1.130859,-0.104980,-0.067627,0.027355,0.017207,0.008036,0.999977,-0.004594,0.002815,-0.004100,-0.153432,-0.629288,0.101101,-0.755138
22777,NaN,1.907504,1.489958,0.750558,-0.162832,-1.440484,-7.734155,-0.975690,0.529244,-0.827077,-1.126221,-0.113525,-0.080322,0.019156,0.014857,0.007382,0.999976,-0.004878,0.002646,-0.004135,-0.159889,-0.626942,0.101774,-0.755659
22778,NaN,1.271281,1.581949,0.889710,0.011623,-1.632796,-8.314664,-1.022204,0.552268,-0.825148,-1.117920,-0.115723,-0.086670,0.012802,0.015812,0.008781,0.999975,-0.005111,0.002761,-0.004126,-0.166360,-0.624450,0.102541,-0.756222
22779,NaN,0.707162,2.133024,1.524053,0.445349,-2.434371,-8.695548,-1.035666,0.513361,-0.748855,-1.111084,-0.126465,-0.094971,0.007191,0.021382,0.015112,0.999976,-0.005178,0.002567,-0.003744,-0.172685,-0.622015,0.103689,-0.756654
22780,NaN,1.214955,2.427863,2.599086,1.184025,-3.036513,-7.940957,-1.019219,0.507419,-0.689755,-1.113281,-0.128418,-0.107666,0.012299,0.024368,0.025836,0.999978,-0.005096,0.002537,-0.003449,-0.178635,-0.619558,0.104897,-0.757122
22781,NaN,2.171974,3.311020,5.003385,2.777527,-4.629528,-6.411753,-1.142040,0.679057,-0.643786,-1.106689,-0.135010,-0.114014,0.021996,0.033324,0.049770,0.999973,-0.005710,0.003395,-0.003219,-0.184962,-0.616286,0.106616,-0.758033
22782,NaN,3.740909,3.448863,5.894548,3.163834,-4.862890,-4.618857,-0.951879,1.197268,-0.710720,-1.100098,-0.147705,-0.124512,0.037883,0.034634,0.058555,0.999964,-0.004759,0.005986,-0.003554,-0.191084,-0.611205,0.106774,-0.760601
22783,NaN,6.752655,1.208101,8.813783,6.066818,-3.439061,-1.088915,0.139656,1.546872,-0.795223,-1.095703,-0.154053,-0.137207,0.068253,0.011749,0.087620,0.999962,0.000698,0.007734,-0.003976,-0.194501,-0.605855,0.102330,-0.764616
22784,NaN,17.755026,2.307846,11.917619,6.224594,-3.504314,10.474296,1.616302,0.779854,-0.601183,-1.088867,-0.164795,-0.136963,0.178080,0.021583,0.118661,0.999955,0.008081,0.003899,-0.003006,-0.191922,-0.604687,0.093188,-0.767356
22785,NaN,34.146085,6.608455,-6.444757,-15.105457,2.486331,22.074599,4.644208,0.624974,-0.146187,-1.082520,-0.164795,-0.139160,0.341309,0.067324,-0.063961,0.999725,0.023219,0.003125,-0.000731,-0.178682,-0.606646,0.074303,-0.771059
22786,NaN,32.256812,1.879829,2.095453,-5.288804,3.792507,21.905623,4.516576,1.065697,-1.026973,-1.082275,-0.177734,-0.134766,0.322764,0.016688,0.019628,0.999718,0.022581,0.005328,-0.005134,-0.169149,-0.606755,0.052596,-0.774901
22787,NaN,28.042762,-9.020206,10.193151,6.318274,11.491574,18.464665,3.438833,1.431458,-0.992947,-1.073242,-0.194824,-0.147461,0.280682,-0.093307,0.098337,0.999814,0.017193,0.007157,-0.004964,-0.162910,-0.604263,0.035040,-0.779165
22788,NaN,29.009966,-1.389813,7.262820,0.701487,5.849172,19.539066,1.412024,1.510362,-0.820010,-1.068604,-0.205566,-0.151611,0.290575,-0.015591,0.070329,0.999938,0.007060,0.007552,-0.004100,-0.161745,-0.599620,0.025601,-0.783351
22789,NaN,41.101106,7.556758,6.950662,-5.122753,0.751406,32.233262,1.383601,0.928965,-1.437034,-1.057373,-0.227051,-0.162109,0.411856,0.072136,0.068102,0.999939,0.006918,0.004645,-0.007185,-0.163335,-0.597246,0.015120,-0.785105
22790,NaN,27.930373,10.429909,8.447986,-1.525130,-4.726576,20.774103,0.716725,0.896073,-1.928762,-1.054932,-0.241943,-0.166260,0.280666,0.101296,0.083591,0.999937,0.003584,0.004480,-0.009644,-0.168485,-0.594435,0.005615,-0.786275
22791,NaN,19.266791,6.524374,2.771891,-3.723943,-1.489168,10.320630,1.585802,0.839639,-2.395125,-1.047852,-0.269775,-0.168213,0.193545,0.062711,0.027412,0.999888,0.007929,0.004198,-0.011975,-0.173193,-0.592469,-0.008446,-0.786711
22792,NaN,15.947850,2.575502,5.522263,0.744377,1.245430,7.197311,1.849868,0.280186,-2.177625,-1.038330,-0.295410,-0.159424,0.159820,0.023505,0.055223,0.999897,0.009249,0.001401,-0.010888,-0.176060,-0.592839,-0.022529,-0.785517
22793,NaN,10.617369,0.032492,13.493388,10.191637,1.011684,3.967701,1.143614,0.288732,-1.611390,-1.036133,-0.304199,-0.163574,0.106362,-0.001303,0.134776,0.999950,0.005718,0.001444,-0.008057,-0.178958,-0.592499,-0.032051,-0.784788
22794,NaN,7.792136,-2.166677,9.355312,7.498351,3.047553,-0.462813,0.041670,0.455893,-1.022460,-1.025146,-0.314697,-0.169922,0.078022,-0.022085,0.093371,0.999984,0.000208,0.002279,-0.005112,-0.182305,-0.590537,-0.035940,-0.785328
22795,NaN,6.532488,-1.159346,0.001939,-1.260028,3.236922,-4.160069,0.365668,0.115521,-0.323709,-1.027344,-0.314697,-0.167969,0.065306,-0.011699,-0.000040,0.999997,0.001828,0.000578,-0.001619,-0.182475,-0.590355,-0.038437,-0.785307
22796,NaN,7.718663,0.224806,1.160465,-0.787622,2.164527,-2.351492,0.711419,-0.077932,0.279716,-1.029297,-0.314697,-0.165771,0.077179,0.002315,0.011643,0.999993,0.003557,-0.000390,0.001399,-0.178874,-0.591281,-0.040554,-0.785332
22797,NaN,9.304116,2.635942,5.564618,2.434909,-0.245820,1.072639,0.375445,-0.034276,0.696964,-1.031738,-0.306152,-0.165771,0.092939,0.026579,0.055712,0.999992,0.001877,-0.000171,0.003485,-0.175033,-0.591886,-0.039937,-0.785773
22798,NaN,10.382174,3.674473,5.580015,1.955799,-0.947550,2.340664,0.271025,0.025049,1.069513,-1.038574,-0.295410,-0.165771,0.103631,0.037224,0.055837,0.999985,0.001355,0.000125,0.005348,-0.169511,-0.592144,-0.038151,-0.786878
22799,NaN,10.086436,3.704792,3.381487,-0.056383,-0.875536,1.417850,0.376112,-0.071914,1.302262,-1.038818,-0.280518,-0.155273,0.100608,0.037640,0.033921,0.999977,0.001881,-0.000360,0.006511,-0.163284,-0.592978,-0.035714,-0.787680
22800,NaN,10.199770,4.351933,2.010005,-1.505169,-1.408821,1.267133,0.366035,-0.223015,1.399548,-1.045410,-0.269775,-0.151123,0.101667,0.044195,0.020294,0.999973,0.001830,-0.001115,0.006998,-0.156122,-0.594296,-0.033201,-0.788249
22801,NaN,10.156807,4.713854,1.857264,-1.682312,-1.900083,1.250215,0.437113,-0.312288,1.443219,-1.052490,-0.252686,-0.149170,0.101195,0.047829,0.018835,0.999970,0.002186,-0.001561,0.007216,-0.149182,-0.596088,-0.030390,-0.788353
22802,NaN,9.624546,3.135445,2.072041,-0.998821,-0.723071,0.445667,0.360788,-0.379565,1.475579,-1.059082,-0.237793,-0.145020,0.095971,0.032026,0.020960,0.999969,0.001804,-0.001898,0.007378,-0.141867,-0.597987,-0.027448,-0.788373
22803,NaN,9.084256,2.375872,2.680521,-0.117243,-0.356610,-0.055074,-0.150269,-0.427933,1.412769,-1.061768,-0.222656,-0.147217,0.090614,0.024420,0.026981,0.999972,-0.000751,-0.002140,0.007064,-0.136802,-0.599743,-0.022327,-0.788096
22804,NaN,8.639537,1.851829,2.869000,0.282528,-0.126706,-0.528050,-0.599378,-0.443275,1.342704,-1.062012,-0.211914,-0.138916,0.086204,0.019184,0.028824,0.999971,-0.002997,-0.002216,0.006713,-0.133054,-0.601151,-0.015830,-0.787822
22805,NaN,8.256831,1.132123,2.876494,0.526986,0.344637,-1.018750,-0.933778,-0.422057,1.159577,-1.070801,-0.201172,-0.138916,0.082439,0.011934,0.028884,0.999970,-0.004669,-0.002110,0.005798,-0.131323,-0.602264,-0.008385,-0.787377
22806,NaN,7.915285,0.890602,2.377546,0.186475,0.458923,-1.515019,-1.203915,-0.433645,0.936541,-1.077637,-0.186279,-0.136963,0.079058,0.009420,0.023891,0.999969,-0.006020,-0.002168,0.004683,-0.130958,-0.603147,-0.000755,-0.786805
22807,NaN,7.603507,1.457126,1.183261,-0.979734,-0.056249,-2.042673,-1.239042,-0.563268,0.724279,-1.077881,-0.179932,-0.132812,0.075948,0.014920,0.011955,0.999970,-0.006195,-0.002816,0.003621,-0.131844,-0.604535,0.006673,-0.785564
22808,NaN,8.148906,2.430987,0.194096,-2.233272,-0.786765,-1.642914,-1.033762,-0.802703,0.552860,-1.086426,-0.173340,-0.130615,0.081413,0.024546,0.002141,0.999975,-0.005169,-0.004013,0.002764,-0.132445,-0.606928,0.012720,-0.783540
22809,NaN,9.018148,2.773085,-0.167741,-2.803006,-0.935931,-0.851004,-0.762426,-1.053472,0.386620,-1.080322,-0.169189,-0.117920,0.090135,0.027900,-0.001309,0.999977,-0.003812,-0.005267,0.001933,-0.133174,-0.610509,0.017578,-0.780534
22810,NaN,10.243001,3.532392,-0.096617,-3.095053,-1.502453,0.461958,-0.502292,-1.276038,0.270939,-1.077881,-0.173584,-0.103271,0.102386,0.035461,-0.000402,0.999976,-0.002511,-0.006380,0.001355,-0.133451,-0.615087,0.021160,-0.776796
22811,NaN,10.476025,4.212197,0.670132,-2.459482,-2.317728,0.981584,-0.233079,-1.376977,0.214399,-1.078125,-0.167236,-0.090576,0.104666,0.042243,0.007373,0.999975,-0.001165,-0.006885,0.001072,-0.133186,-0.620239,0.023644,-0.772662
22812,NaN,10.477131,3.412602,2.064308,-0.829729,-1.879245,1.208038,-0.577270,-1.225813,0.110520,-1.082275,-0.165039,-0.080078,0.104624,0.034244,0.021186,0.999977,-0.002886,-0.006129,0.000553,-0.134486,-0.624557,0.027060,-0.768836
22813,NaN,9.717960,1.510668,2.722091,0.484621,-0.369102,0.373520,-0.859544,-0.994536,0.071278,-1.082275,-0.162842,-0.075684,0.097037,0.015259,0.027638,0.999978,-0.004298,-0.004973,0.000356,-0.136759,-0.627777,0.031255,-0.765647
22814,NaN,8.188621,0.452468,3.248562,1.584168,0.221067,-1.137872,-0.452151,-0.829804,0.206999,-1.088623,-0.162842,-0.061035,0.081746,0.004683,0.032815,0.999988,-0.002261,-0.004149,0.001035,-0.137331,-0.630581,0.034226,-0.763109
22815,NaN,7.294781,-0.330386,3.107843,1.855143,0.808680,-2.138984,0.026441,-0.849452,0.379440,-1.088867,-0.154297,-0.054688,0.072821,-0.003170,0.031387,0.999989,0.000132,-0.004247,0.001897,-0.135654,-0.633767,0.035905,-0.760690
22816,NaN,7.701896,-0.133238,3.670005,2.335493,0.507235,-1.621627,0.081098,-0.903475,0.538682,-1.091064,-0.150146,-0.046143,0.076855,-0.001140,0.037047,0.999986,0.000405,-0.004517,0.002693,-0.133125,-0.637134,0.037848,-0.758226
22817,NaN,8.319182,0.137559,3.809575,2.366598,0.241109,-0.976351,-0.338159,-0.858381,0.577778,-1.089111,-0.143799,-0.035645,0.083023,0.001680,0.038450,0.999985,-0.001691,-0.004292,0.002889,-0.131848,-0.640042,0.041541,-0.755802
22818,NaN,9.189549,-0.135353,3.034352,1.626004,0.721973,-0.299163,-0.744561,-0.895301,0.606269,-1.091309,-0.141602,-0.027344,0.091762,-0.000961,0.030759,0.999978,-0.003723,-0.004476,0.003031,-0.131608,-0.642756,0.046753,-0.753232
22819,NaN,9.590431,-0.751327,2.331243,1.131315,1.433413,-0.084409,-0.898928,-1.066788,0.659087,-1.089355,-0.130859,-0.020996,0.095802,-0.007091,0.023856,0.999970,-0.004495,-0.005334,0.003295,-0.131761,-0.646007,0.052958,-0.750007
22820,NaN,9.049957,-1.167592,2.289049,1.344130,1.663546,-0.651394,-0.717395,-0.900073,0.828429,-1.093994,-0.122314,-0.016846,0.090442,-0.011218,0.023338,0.999975,-0.003587,-0.004500,0.004142,-0.130621,-0.648624,0.058795,-0.747508
22821,NaN,8.359666,-0.765741,1.574391,0.684669,1.279394,-1.395876,-0.663515,-0.569883,0.813909,-1.096191,-0.118164,-0.008301,0.083581,-0.007264,0.016007,0.999982,-0.003318,-0.002849,0.004070,-0.129561,-0.650067,0.064286,-0.745985
22822,NaN,8.823398,-0.116560,0.848015,-0.224056,0.817892,-0.988550,-0.540633,-0.392641,0.741892,-1.098389,-0.113770,-0.004150,0.088221,-0.000815,0.008656,0.999988,-0.002703,-0.001963,0.003709,-0.128446,-0.650841,0.068960,-0.745085
22823,NaN,9.445759,0.422263,0.762094,-0.519053,0.311764,-0.346202,-0.316918,-0.355534,0.718090,-1.098877,-0.101074,-0.006348,0.094428,0.004574,0.007782,0.999991,-0.001585,-0.001778,0.003590,-0.126679,-0.651706,0.072705,-0.744275
22824,NaN,9.558078,0.821466,0.786678,-0.609052,-0.140037,-0.207506,-0.053466,-0.400920,0.674302,-1.098877,-0.094482,0.008301,0.095536,0.008539,0.008056,0.999992,-0.000267,-0.002005,0.003372,-0.124378,-0.652811,0.075448,-0.743421
22825,NaN,9.720747,0.797293,0.779120,-0.606223,-0.170781,-0.048543,0.393641,-0.409040,0.615782,-1.101074,-0.090332,0.010498,0.097166,0.008257,0.008006,0.999991,0.001968,-0.002045,0.003079,-0.120650,-0.654336,0.076249,-0.742613
22826,NaN,9.840245,1.378565,1.508720,-0.055769,-0.981615,0.189310,0.603445,-0.446153,0.614325,-1.099121,-0.081787,0.016602,0.098326,0.014042,0.015349,0.999988,0.003017,-0.002231,0.003072,-0.116303,-0.656075,0.076314,-0.741765
