// Start Time: Unknown
// Update Rate: 100.0Hz
// Filter Profile: human (46.1)
// Firmware Version: 4.4.0
PacketCounter,SampleTimeFine,Acc_X,Acc_Y,Acc_Z,FreeAcc_X,FreeAcc_Y,FreeAcc_Z,Gyr_X,Gyr_Y,Gyr_Z,Mag_X,Mag_Y,Mag_Z,VelInc_X,VelInc_Y,VelInc_Z,OriInc_q0,OriInc_q1,OriInc_q2,OriInc_q3,Quat_q0,Quat_q1,Quat_q2,Quat_q3
59954,NaN,-7.216287,0.241649,0.636666,0.000000,0.000000,-2.564342,-0.912389,0.098978,0.305495,0.761230,-0.157227,0.194336,-0.072163,0.002335,0.006392,0.999988,-0.004562,0.000495,0.001527,0.716282,-0.139956,0.660547,0.176154
59955,NaN,-7.101704,0.165642,0.650286,-0.000000,-0.000000,-2.679351,-0.930070,0.098629,0.323170,0.765625,-0.159180,0.196533,-0.071016,0.001572,0.006530,0.999988,-0.004650,0.000493,0.001616,0.716418,-0.150010,0.657056,0.180333
59956,NaN,-7.125806,0.086389,0.531341,-0.049729,-0.147086,-2.668265,-0.941404,0.093985,0.307504,0.765625,-0.165527,0.200684,-0.071257,0.000779,0.005343,0.999988,-0.004707,0.000470,0.001538,0.714464,-0.150737,0.657644,0.185271
59957,NaN,-7.265417,0.029360,0.387485,-0.146925,-0.285703,-2.543983,-0.946773,0.072664,0.292697,0.761475,-0.167725,0.192627,-0.072653,0.000206,0.003900,0.999988,-0.004734,0.000363,0.001463,0.713231,-0.153222,0.657239,0.189373
59958,NaN,-7.374058,-0.006394,0.211391,-0.275786,-0.417102,-2.452566,-0.929958,0.050415,0.267835,0.761963,-0.176270,0.196777,-0.073740,-0.000153,0.002133,0.999988,-0.004650,0.000252,0.001339,0.711888,-0.155781,0.656981,0.193195
59959,NaN,-7.574277,-0.026360,0.141395,-0.329245,-0.495348,-2.260432,-0.896997,0.024743,0.226440,0.761963,-0.178467,0.198730,-0.075742,-0.000343,0.001425,0.999989,-0.004485,0.000124,0.001132,0.710882,-0.158252,0.656372,0.196926
59960,NaN,-7.754085,-0.141494,0.034840,-0.358617,-0.657829,-2.093510,-0.863850,-0.000955,0.184714,0.759766,-0.180420,0.188721,-0.077539,-0.001485,0.000354,0.999990,-0.004319,-0.000005,0.000924,0.709448,-0.161307,0.656272,0.199927
59961,NaN,-8.044430,-0.182891,-0.170487,-0.526242,-0.827515,-1.824344,-0.814157,-0.033061,0.152109,0.757812,-0.180420,0.192627,-0.080443,-0.001897,-0.001711,0.999991,-0.004071,-0.000165,0.000761,0.708741,-0.163661,0.655458,0.203163
59962,NaN,-8.563823,-0.231933,-0.379189,-0.674851,-0.971194,-1.319279,-0.730989,-0.057966,0.113653,0.761963,-0.178223,0.188721,-0.085636,-0.002382,-0.003808,0.999993,-0.003655,-0.000290,0.000568,0.706416,-0.167781,0.656545,0.204388
59963,NaN,-9.280687,-0.361571,-0.719947,-0.937505,-1.315728,-0.638259,-0.646624,-0.063846,0.066437,0.761963,-0.182617,0.184570,-0.092803,-0.003670,-0.007217,0.999995,-0.003233,-0.000319,0.000332,0.706011,-0.169781,0.655711,0.206798
59964,NaN,-10.182722,-0.697315,-1.075855,-1.025707,-1.723579,0.252537,-0.538147,-0.047577,0.016657,0.764160,-0.184814,0.188721,-0.101824,-0.007011,-0.010764,0.999996,-0.002691,-0.000238,0.000083,0.701554,-0.175613,0.659414,0.205318
59965,NaN,-11.163921,-1.058864,-1.112446,-0.911799,-2.111659,1.219148,-0.425023,-0.040614,-0.010661,0.757812,-0.184570,0.180420,-0.111638,-0.010606,-0.011125,0.999998,-0.002125,-0.000203,-0.000053,0.701324,-0.177097,0.658824,0.206717
59966,NaN,-12.166720,-1.494347,-1.219709,-0.656601,-2.312504,2.269160,-0.290690,-0.024716,-0.023118,0.760010,-0.184570,0.182617,-0.121667,-0.014947,-0.012190,0.999999,-0.001453,-0.000124,-0.000116,0.694481,-0.185527,0.665346,0.201473
59967,NaN,-13.157407,-1.846830,-1.297379,-0.569968,-2.685169,3.251628,-0.077280,-0.016468,-0.018096,0.760010,-0.182617,0.182617,-0.131575,-0.018461,-0.012977,1.000000,-0.000386,-0.000082,-0.000090,0.694482,-0.185839,0.665194,0.201682
59968,NaN,-14.047746,-2.200393,-1.195477,-0.149183,-2.506853,4.233789,0.149098,-0.016810,-0.000344,0.762207,-0.184814,0.184570,-0.140476,-0.021995,-0.011983,1.000000,0.000745,-0.000084,-0.000002,0.687180,-0.195965,0.672633,0.192214
59969,NaN,-14.911217,-2.457023,-1.073020,0.064347,-2.664646,5.101341,0.318996,-0.024270,0.027359,0.755859,-0.184570,0.184570,-0.149108,-0.024573,-0.010787,0.999999,0.001595,-0.000121,0.000137,0.687547,-0.194753,0.672882,0.191258
59970,NaN,-15.759706,-2.542434,-1.007614,0.261298,-2.153407,6.034777,0.437058,-0.044552,0.065921,0.761963,-0.182617,0.184570,-0.157586,-0.025454,-0.010167,0.999998,0.002185,-0.000223,0.000330,0.681775,-0.205037,0.678926,0.179451
59971,NaN,-16.512373,-2.543949,-0.977303,0.263728,-2.132183,6.784585,0.519384,-0.071781,0.098884,0.760254,-0.188965,0.188721,-0.165108,-0.025496,-0.009898,0.999996,0.002597,-0.000359,0.000494,0.682460,-0.202866,0.679246,0.178098
59972,NaN,-16.883700,-2.501843,-0.840698,0.387842,-1.479539,7.207470,0.556005,-0.103489,0.120722,0.762451,-0.191162,0.188721,-0.168817,-0.025097,-0.008564,0.999996,0.002780,-0.000517,0.000604,0.678851,-0.211360,0.683387,0.165741
59973,NaN,-17.020574,-2.480909,-0.971708,0.243022,-1.552035,7.343392,0.556849,-0.129460,0.136487,0.762451,-0.193115,0.180664,-0.170182,-0.024898,-0.009896,0.999996,0.002784,-0.000647,0.000682,0.679766,-0.208896,0.683550,0.164438
59974,NaN,-16.992977,-2.499286,-0.923067,0.242903,-1.128238,7.349121,0.577210,-0.165543,0.126990,0.762207,-0.184814,0.186768,-0.169906,-0.025074,-0.009444,0.999995,0.002886,-0.000828,0.000635,0.678797,-0.214030,0.685685,0.152515
59975,NaN,-16.900546,-2.531275,-0.996664,0.163544,-1.234971,7.260012,0.589321,-0.199457,0.092762,0.764404,-0.186768,0.188721,-0.168984,-0.025361,-0.010210,0.999995,0.002947,-0.000997,0.000464,0.680038,-0.211558,0.685554,0.151023
59976,NaN,-16.796001,-2.547713,-1.258413,-0.083540,-1.082165,7.187365,0.627536,-0.237583,0.043133,0.766602,-0.188965,0.188721,-0.167939,-0.025473,-0.012864,0.999994,0.003138,-0.001188,0.000216,0.679069,-0.216014,0.686881,0.142822
59977,NaN,-16.656087,-2.718258,-1.523825,-0.285375,-1.397131,7.072289,0.706370,-0.274298,-0.027904,0.762207,-0.186768,0.186768,-0.166543,-0.027105,-0.015562,0.999993,0.003532,-0.001371,-0.000140,0.680789,-0.213514,0.686419,0.140597
59978,NaN,-16.101159,-2.872959,-1.699404,-0.476791,-1.417455,6.562666,0.754775,-0.298990,-0.090148,0.764404,-0.186768,0.186768,-0.160999,-0.028592,-0.017343,0.999992,0.003774,-0.001495,-0.000451,0.682783,-0.209827,0.688466,0.125680
59979,NaN,-15.080204,-2.958518,-1.790584,-0.573637,-1.660220,5.558899,0.817084,-0.307507,-0.124051,0.768311,-0.182617,0.186768,-0.150792,-0.029418,-0.018258,0.999990,0.004085,-0.001538,-0.000620,0.684770,-0.207269,0.687792,0.122766
59980,NaN,-13.573939,-3.065387,-1.734376,-0.544628,-1.684550,4.098519,0.895608,-0.302611,-0.148017,0.770508,-0.180420,0.186523,-0.135735,-0.030475,-0.017686,0.999989,0.004478,-0.001513,-0.000740,0.686232,-0.202179,0.690496,0.106886
59981,NaN,-11.820266,-3.182655,-1.468202,-0.286974,-1.905828,2.364695,0.948176,-0.280956,-0.165968,0.772705,-0.182617,0.182617,-0.118208,-0.031658,-0.014998,0.999987,0.004741,-0.001405,-0.000830,0.688240,-0.199346,0.689862,0.103326
59982,NaN,-9.923242,-3.263520,-0.999315,0.163174,-1.834601,0.518198,0.979305,-0.263300,-0.164787,0.768311,-0.178467,0.186523,-0.099246,-0.032504,-0.010283,0.999987,0.004897,-0.001316,-0.000824,0.687694,-0.196434,0.693509,0.086812
59983,NaN,-7.822904,-3.291396,-0.586592,0.542236,-2.022278,-1.567003,1.010068,-0.261210,-0.133772,0.776611,-0.176270,0.184570,-0.078243,-0.032831,-0.006134,0.999986,0.005050,-0.001306,-0.000669,0.689640,-0.193309,0.692908,0.083105
59984,NaN,-5.437157,-3.153689,-0.240656,0.774736,-2.086716,-3.929528,1.035439,-0.270763,-0.062387,0.776611,-0.172119,0.184570,-0.054378,-0.031507,-0.002643,0.999986,0.005177,-0.001354,-0.000312,0.690913,-0.185407,0.695558,0.066798
59985,NaN,-3.217151,-2.843127,0.300027,1.184717,-1.993395,-6.186924,1.006855,-0.256461,0.056225,0.772461,-0.174072,0.186523,-0.032167,-0.028455,0.002816,0.999986,0.005034,-0.001282,0.000281,0.692710,-0.181645,0.695051,0.063727
59986,NaN,-2.094655,-2.219598,0.705259,1.337343,-1.468099,-7.390350,0.957061,-0.219519,0.137146,0.776611,-0.172119,0.186523,-0.020939,-0.022244,0.006923,0.999988,0.004785,-0.001098,0.000686,0.693650,-0.177709,0.696030,0.053012
59987,NaN,-2.571836,-1.404199,1.035784,1.359153,-0.536296,-7.069692,0.879011,-0.200948,0.054130,0.781006,-0.178467,0.184570,-0.025725,-0.014094,0.010270,0.999990,0.004395,-0.001005,0.000271,0.695109,-0.174417,0.695608,0.050318
59988,NaN,-4.031777,-0.597244,1.055141,1.084800,0.498283,-5.775343,0.780988,-0.208950,-0.132834,0.776367,-0.169922,0.184326,-0.040333,-0.005987,0.010486,0.999992,0.003905,-0.001045,-0.000664,0.695580,-0.170126,0.697078,0.036146
59989,NaN,-5.560213,-0.018407,0.948721,0.764481,1.297444,-4.376828,0.660658,-0.209829,-0.292287,0.780762,-0.172119,0.186523,-0.055612,-0.000134,0.009428,0.999993,0.003303,-0.001049,-0.001461,0.696922,-0.168808,0.696214,0.033006
59990,NaN,-6.783138,0.307118,0.726802,0.421628,1.810787,-3.241785,0.529992,-0.218601,-0.350469,0.780518,-0.163574,0.186279,-0.067834,0.003171,0.007202,0.999994,0.002650,-0.001093,-0.001752,0.698424,-0.165689,0.695824,0.024069
59991,NaN,-7.590058,0.535658,0.784257,0.371944,2.216847,-2.501179,0.391563,-0.248497,-0.338934,0.782471,-0.159180,0.184326,-0.075901,0.005470,0.007759,0.999996,0.001958,-0.001242,-0.001695,0.699651,-0.165470,0.694720,0.021729
59992,NaN,-8.135497,0.640309,0.877234,0.381097,2.489613,-2.001007,0.224451,-0.293114,-0.298238,0.784424,-0.157227,0.182129,-0.081358,0.006515,0.008660,0.999997,0.001122,-0.001466,-0.001491,0.701915,-0.164417,0.692838,0.016067
59993,NaN,-8.482487,0.706902,0.923031,0.365259,2.650167,-1.679584,0.057450,-0.330329,-0.265557,0.780273,-0.161377,0.180176,-0.084830,0.007179,0.009092,0.999998,0.000287,-0.001652,-0.001328,0.703126,-0.165108,0.691464,0.015208
59994,NaN,-8.655832,0.712849,0.922911,0.335369,2.686662,-1.508918,-0.082543,-0.361376,-0.233641,0.788574,-0.155029,0.178223,-0.086566,0.007233,0.009070,0.999998,-0.000413,-0.001807,-0.001168,0.705132,-0.162018,0.690217,0.011813
59995,NaN,-8.676057,0.627568,0.844218,0.241447,2.601981,-1.472917,-0.185594,-0.386471,-0.201571,0.784668,-0.161377,0.184326,-0.086770,0.006371,0.008269,0.999997,-0.000928,-0.001932,-0.001008,0.706326,-0.163344,0.688678,0.012057
59996,NaN,-8.296763,0.351255,0.703408,0.188896,2.219647,-1.782009,-0.249494,-0.406467,-0.191680,0.792725,-0.152832,0.169922,-0.082978,0.003601,0.006861,0.999997,-0.001247,-0.002032,-0.000958,0.708726,-0.155335,0.688161,0.003572
59997,NaN,-7.576007,0.024070,0.540917,0.104726,1.731043,-2.417995,-0.280491,-0.398454,-0.209232,0.788574,-0.152832,0.165771,-0.075770,0.000327,0.005258,0.999996,-0.001402,-0.001992,-0.001046,0.709880,-0.157040,0.686579,0.004106
59998,NaN,-6.972126,-0.340136,0.294057,-0.047291,1.202457,-2.930501,-0.289530,-0.366917,-0.232674,0.790771,-0.152832,0.167969,-0.069730,-0.003316,0.002817,0.999997,-0.001448,-0.001835,-0.001163,0.711018,-0.157385,0.685323,0.004059
59999,NaN,-6.801904,-0.740641,0.176879,-0.087762,0.771214,-3.012452,-0.270749,-0.315638,-0.256536,0.788574,-0.155029,0.161621,-0.068031,-0.007317,0.001671,0.999997,-0.001354,-0.001578,-0.001283,0.711890,-0.159219,0.683991,0.004324
60000,NaN,-7.110131,-0.976263,0.086671,-0.158628,0.578486,-2.660436,-0.224323,-0.263398,-0.259090,0.794678,-0.148682,0.159668,-0.071115,-0.009670,0.000784,0.999998,-0.001122,-0.001317,-0.001295,0.713081,-0.154674,0.683806,0.000779
60001,NaN,-7.656261,-1.041549,0.053442,-0.231958,0.638276,-2.115625,-0.121899,-0.212355,-0.232105,0.792725,-0.150879,0.155518,-0.076575,-0.010326,0.000459,0.999999,-0.000609,-0.001062,-0.001161,0.713713,-0.155900,0.682868,0.000534
60002,NaN,-8.241129,-1.009161,0.100597,-0.237813,0.793260,-1.550794,0.055189,-0.167662,-0.174325,0.794678,-0.146484,0.159668,-0.082421,-0.010020,0.000934,0.999999,0.000276,-0.000838,-0.000872,0.714274,-0.152865,0.682966,-0.001543
60003,NaN,-8.705898,-1.013472,0.188844,-0.198618,0.913777,-1.095980,0.257064,-0.141399,-0.090222,0.794434,-0.142334,0.161621,-0.087065,-0.010098,0.001814,0.999999,0.001285,-0.000707,-0.000451,0.714952,-0.152255,0.682389,-0.002633
60004,NaN,-8.974870,-0.911504,0.275681,-0.176812,1.072896,-0.853182,0.482630,-0.118004,0.011121,0.796875,-0.146484,0.159668,-0.089750,-0.009127,0.002682,0.999997,0.002413,-0.000590,0.000056,0.716559,-0.146408,0.681948,-0.007416
60005,NaN,-9.030501,-0.806789,0.422093,-0.070196,1.203688,-0.816844,0.702516,-0.100299,0.111282,0.796875,-0.148682,0.161621,-0.090303,-0.008133,0.004147,0.999994,0.003513,-0.000501,0.000556,0.717415,-0.143514,0.681640,-0.009338
60006,NaN,-8.810385,-0.667887,0.428538,-0.062905,1.254125,-1.056217,0.853150,-0.084814,0.186637,0.796875,-0.146484,0.155518,-0.088099,-0.006779,0.004219,0.999990,0.004266,-0.000424,0.000933,0.718254,-0.134080,0.682555,-0.015871
60007,NaN,-8.600647,-0.555625,0.474153,-0.029313,1.303130,-1.280067,0.960367,-0.049052,0.234891,0.792725,-0.148682,0.163574,-0.086001,-0.005680,0.004693,0.999988,0.004802,-0.000245,0.001174,0.719075,-0.129831,0.682452,-0.018270
60008,NaN,-8.412195,-0.516553,0.371405,-0.111959,1.230557,-1.467453,1.045301,0.003719,0.270571,0.794922,-0.150879,0.165771,-0.084115,-0.005299,0.003688,0.999985,0.005226,0.000019,0.001353,0.719753,-0.120503,0.683300,-0.023131
60009,NaN,-8.518697,-0.727338,0.521534,0.057116,1.040144,-1.310689,1.091744,0.057876,0.282986,0.797119,-0.157227,0.167969,-0.085175,-0.007422,0.005200,0.999984,0.005459,0.000289,0.001415,0.720235,-0.115597,0.683542,-0.025875
60010,NaN,-8.616405,-0.916326,0.686776,0.269946,0.829983,-1.164456,1.077046,0.093963,0.294785,0.795166,-0.157227,0.161865,-0.086147,-0.009327,0.006858,0.999984,0.005385,0.000470,0.001474,0.719853,-0.103271,0.685574,-0.033676
60011,NaN,-8.907033,-0.925367,0.871115,0.439962,0.860445,-0.867503,1.036994,0.111247,0.313277,0.795166,-0.157227,0.166016,-0.089051,-0.009438,0.008712,0.999985,0.005185,0.000556,0.001566,0.720050,-0.098443,0.685952,-0.036158
60012,NaN,-9.234812,-0.824649,1.126558,0.708256,0.947381,-0.548151,0.973383,0.110565,0.320283,0.795166,-0.157227,0.172119,-0.092328,-0.008449,0.011276,0.999987,0.004867,0.000553,0.001601,0.719278,-0.088244,0.687920,-0.040231
60013,NaN,-9.593697,-0.538812,1.353458,0.905083,1.266769,-0.234736,0.864443,0.110473,0.331878,0.791016,-0.161377,0.174072,-0.095920,-0.005606,0.013564,0.999989,0.004322,0.000552,0.001659,0.719339,-0.083969,0.688281,-0.042057
60014,NaN,-10.078970,-0.089863,1.562950,1.102929,1.706199,0.182750,0.746033,0.108016,0.344825,0.795166,-0.157227,0.176025,-0.100779,-0.001131,0.015680,0.999991,0.003730,0.000540,0.001724,0.719043,-0.074375,0.689423,-0.046280
60015,NaN,-10.704529,0.338106,1.870446,1.379594,2.199025,0.744803,0.627621,0.100342,0.364467,0.793213,-0.161377,0.178223,-0.107042,0.003127,0.018768,0.999993,0.003138,0.000502,0.001822,0.719011,-0.070837,0.689769,-0.047167
60016,NaN,-11.746036,0.010495,1.941347,1.429826,1.948422,1.844813,0.609727,0.078390,0.349802,0.786865,-0.165771,0.178223,-0.117453,-0.000160,0.019459,0.999994,0.003049,0.000392,0.001749,0.719324,-0.063526,0.689987,-0.049562
60017,NaN,-12.951902,-1.458464,2.688020,2.141857,0.646016,3.305963,0.948516,-0.075094,0.346231,0.789062,-0.169922,0.180420,-0.129503,-0.014936,0.026761,0.999987,0.004743,-0.000375,0.001731,0.719962,-0.058936,0.689582,-0.051562
60018,NaN,-13.396598,-1.976490,3.072164,2.445090,0.050237,3.855952,1.438642,-0.252223,0.269362,0.789062,-0.165771,0.180420,-0.133977,-0.020165,0.030409,0.999972,0.007193,-0.001261,0.001347,0.721752,-0.048142,0.688103,-0.057188
60019,NaN,-12.966484,-1.158034,3.523904,2.863802,0.714331,3.346952,1.788215,-0.350528,0.120848,0.793213,-0.163574,0.182373,-0.129719,-0.011972,0.034906,0.999958,0.008941,-0.001753,0.000604,0.723395,-0.041370,0.686326,-0.062814
60020,NaN,-12.678303,-0.246779,3.558143,2.860533,1.447680,2.961577,1.902468,-0.258878,-0.071069,0.788818,-0.159424,0.184326,-0.126830,-0.002760,0.035392,0.999954,0.009512,-0.001294,-0.000355,0.725463,-0.031424,0.683896,-0.070724
60021,NaN,-12.865708,0.212763,3.601893,2.888932,1.876453,3.097701,1.897675,-0.188060,-0.156599,0.794922,-0.155029,0.184326,-0.128689,0.001887,0.035917,0.999954,0.009488,-0.000940,-0.000783,0.726317,-0.025139,0.682486,-0.077745
60022,NaN,-12.764219,0.456176,3.453851,2.712290,2.022631,2.978515,1.776970,-0.104039,-0.288659,0.796875,-0.148682,0.184082,-0.127654,0.004439,0.034512,0.999959,0.008885,-0.000520,-0.001443,0.727874,-0.016525,0.680117,-0.085833
60023,NaN,-12.295197,0.683026,3.125955,2.440520,2.189697,2.461638,1.635135,0.018797,-0.334502,0.792480,-0.146484,0.186035,-0.122938,0.006780,0.031327,0.999965,0.008176,0.000094,-0.001672,0.727778,-0.011701,0.679431,-0.092605
60024,NaN,-11.770158,0.765959,2.978412,2.318025,2.150323,1.934526,1.510421,0.175331,-0.447044,0.796631,-0.142334,0.188232,-0.117658,0.007697,0.029945,0.999969,0.007552,0.000877,-0.002235,0.728279,-0.004503,0.677944,-0.099905
60025,NaN,-11.699278,1.479819,3.055333,2.545497,2.836299,1.757686,1.262378,0.338429,-0.527073,0.798584,-0.135986,0.198242,-0.116902,0.014912,0.030845,0.999975,0.006312,0.001692,-0.002635,0.726881,-0.001522,0.678515,-0.106105
60026,NaN,-12.195221,2.239788,2.991798,2.608499,3.622921,2.135553,0.986960,0.424154,-0.561822,0.800537,-0.129639,0.198242,-0.121825,0.022591,0.030288,0.999982,0.004935,0.002121,-0.002809,0.726332,0.003870,0.678124,-0.112142
60027,NaN,-12.554597,2.978985,2.894417,2.695718,4.440821,2.347967,0.618523,0.402062,-0.496461,0.796143,-0.125488,0.206299,-0.125413,0.030011,0.029289,0.999990,0.003093,0.002010,-0.002482,0.724673,0.004660,0.679238,-0.116029
60028,NaN,-12.682940,3.688327,2.908560,2.859059,5.109931,2.378887,0.144068,0.298812,-0.365639,0.796143,-0.123291,0.206299,-0.126718,0.037094,0.029302,0.999997,0.000720,0.001494,-0.001828,0.724776,0.007833,0.678703,-0.118322
60029,NaN,-12.145785,3.920317,2.752713,2.801789,5.306226,1.783012,-0.339860,0.068703,-0.191163,0.793945,-0.123291,0.206299,-0.121411,0.039366,0.027502,0.999998,-0.001699,0.000344,-0.000956,0.724444,0.005995,0.679157,-0.117854
60030,NaN,-11.256306,3.450633,2.529918,2.503815,4.709725,0.983652,-0.814913,-0.042484,-0.171948,0.798096,-0.121094,0.202148,-0.112539,0.034706,0.025134,0.999991,-0.004075,-0.000212,-0.000860,0.725912,0.006641,0.677873,-0.116172
60031,NaN,-9.674646,2.646074,1.669798,1.566824,3.858446,-0.536595,-1.098898,-0.210801,-0.116254,0.800537,-0.127686,0.202148,-0.096748,0.026608,0.016450,0.999984,-0.005494,-0.001054,-0.000581,0.726587,0.002138,0.677737,-0.112871
60032,NaN,-8.079874,1.747487,0.729995,0.514389,2.854856,-2.037343,-1.329202,-0.270839,-0.058168,0.804688,-0.125488,0.200195,-0.080803,0.017546,0.007074,0.999977,-0.006646,-0.001354,-0.000291,0.728935,0.001372,0.675857,-0.108946
60033,NaN,-6.934710,0.938778,-0.086664,-0.385283,2.019988,-3.123133,-1.560781,-0.255357,-0.010292,0.800537,-0.127441,0.194092,-0.069345,0.009384,-0.001028,0.999969,-0.007804,-0.001277,-0.000051,0.729783,-0.004488,0.675754,-0.103703
60034,NaN,-6.535044,0.366633,-0.504168,-0.903731,1.421069,-3.467675,-1.816207,-0.215616,0.044328,0.800537,-0.133789,0.187988,-0.065346,0.003605,-0.005145,0.999958,-0.009081,-0.001078,0.000222,0.731825,-0.006909,0.674417,-0.097702
60035,NaN,-6.769314,0.015008,-0.859874,-1.338351,1.138890,-3.219138,-2.052430,-0.195431,0.106720,0.798828,-0.142334,0.188232,-0.067685,0.000025,-0.008666,0.999947,-0.010262,-0.000977,0.000534,0.732429,-0.014152,0.674670,-0.090375
60036,NaN,-7.275156,-0.146795,-1.010681,-1.580008,1.015579,-2.710365,-2.176669,-0.191301,0.169394,0.805420,-0.146729,0.184082,-0.072741,-0.001640,-0.010159,0.999940,-0.010883,-0.000956,0.000847,0.734072,-0.017758,0.673784,-0.082695
60037,NaN,-7.743799,-0.152563,-0.976333,-1.597951,1.038491,-2.242294,-2.210180,-0.196956,0.251460,0.801270,-0.153076,0.178223,-0.077426,-0.001731,-0.009821,0.999938,-0.011051,-0.000985,0.001257,0.734600,-0.025102,0.673953,-0.074299
60038,NaN,-8.194267,-0.038873,-0.832411,-1.518411,1.131237,-1.796769,-2.157061,-0.193131,0.363364,0.805664,-0.159424,0.176270,-0.081934,-0.000628,-0.008397,0.999940,-0.010785,-0.000966,0.001817,0.736026,-0.028400,0.673146,-0.065827
60039,NaN,-8.672192,-0.014960,-0.578673,-1.323941,1.157834,-1.301029,-2.031254,-0.195762,0.484673,0.801514,-0.159424,0.167969,-0.086715,-0.000419,-0.005868,0.999945,-0.010156,-0.000979,0.002423,0.736518,-0.034305,0.673123,-0.057171
60040,NaN,-9.164391,-0.067835,-0.297560,-1.126149,1.070900,-0.775881,-1.848445,-0.213195,0.570488,0.801758,-0.169922,0.164062,-0.091638,-0.000968,-0.003065,0.999953,-0.009242,-0.001066,0.002852,0.737859,-0.036061,0.672213,-0.048917
60041,NaN,-9.345667,-0.252274,-0.054718,-0.925323,0.849282,-0.548222,-1.620179,-0.248768,0.608894,0.804199,-0.180664,0.160156,-0.093448,-0.002812,-0.000641,0.999962,-0.008101,-0.001244,0.003044,0.738527,-0.040049,0.671773,-0.041174
60042,NaN,-9.156728,-0.326740,0.058272,-0.831688,0.661914,-0.711825,-1.345122,-0.291614,0.609088,0.804199,-0.178467,0.154053,-0.091558,-0.003543,0.000472,0.999972,-0.006726,-0.001458,0.003045,0.740022,-0.040073,0.670505,-0.034413
60043,NaN,-8.704253,-0.359648,0.160984,-0.707288,0.530554,-1.144511,-1.039432,-0.310208,0.590578,0.802246,-0.184814,0.147949,-0.087034,-0.003846,0.001494,0.999981,-0.005197,-0.001551,0.002953,0.740944,-0.041989,0.669639,-0.028676
60044,NaN,-8.338523,-0.278662,0.149440,-0.716926,0.496566,-1.513881,-0.744577,-0.302059,0.550532,0.798340,-0.191162,0.145996,-0.083379,-0.003011,0.001379,0.999988,-0.003723,-0.001510,0.002753,0.742460,-0.040256,0.668245,-0.024111
60045,NaN,-8.121114,0.046447,0.058695,-0.811763,0.754047,-1.767169,-0.457857,-0.269796,0.527547,0.796387,-0.195312,0.142090,-0.081213,0.000251,0.000477,0.999993,-0.002289,-0.001349,0.002638,0.743330,-0.040223,0.667397,-0.020563
60046,NaN,-8.206168,0.401445,0.008993,-0.905266,1.043860,-1.713730,-0.193476,-0.226736,0.509629,0.796631,-0.201660,0.140137,-0.082072,0.003805,-0.000007,0.999996,-0.000967,-0.001134,0.002548,0.744565,-0.036784,0.666293,-0.018013
60047,NaN,-8.269008,0.806021,0.052411,-0.894947,1.410951,-1.674074,0.007725,-0.188451,0.510152,0.802979,-0.206055,0.144287,-0.082711,0.007849,0.000446,0.999996,0.000039,-0.000942,0.002551,0.745240,-0.035071,0.665679,-0.016100
60048,NaN,-8.292826,1.063192,0.061343,-0.910354,1.599561,-1.656856,0.158947,-0.148585,0.539920,0.799072,-0.210205,0.140137,-0.082957,0.010408,0.000560,0.999996,0.000795,-0.000743,0.002700,0.746160,-0.030377,0.664914,-0.014526
60049,NaN,-8.185404,1.315484,0.092255,-0.879766,1.799255,-1.767294,0.275074,-0.105988,0.582444,0.794678,-0.212402,0.136230,-0.081892,0.012915,0.000897,0.999995,0.001375,-0.000530,0.002912,0.746596,-0.027419,0.664581,-0.013247
60050,NaN,-7.969131,1.400079,0.132681,-0.818761,1.798176,-1.965342,0.345887,-0.054864,0.638525,0.799316,-0.218750,0.142334,-0.079736,0.013744,0.001329,0.999993,0.001729,-0.000274,0.003193,0.747131,-0.021708,0.664214,-0.011951
60051,NaN,-7.615668,1.425245,0.120191,-0.788071,1.755129,-2.306530,0.358847,-0.007565,0.683979,0.792969,-0.220703,0.136230,-0.076205,0.013990,0.001224,0.999993,0.001794,-0.000038,0.003420,0.747233,-0.018094,0.664231,-0.010583
60052,NaN,-7.271892,1.408806,0.114441,-0.747083,1.650119,-2.629584,0.322870,0.047479,0.715388,0.789062,-0.227051,0.144531,-0.072768,0.013826,0.001184,0.999992,0.001614,0.000237,0.003577,0.747329,-0.012284,0.664282,-0.008875
60053,NaN,-7.054830,1.391328,0.045189,-0.782023,1.573900,-2.839919,0.230018,0.109428,0.735363,0.793457,-0.237793,0.138672,-0.070599,0.013653,0.000506,0.999992,0.001150,0.000547,0.003677,0.747009,-0.008975,0.664718,-0.006894
60054,NaN,-6.978509,1.338593,0.047919,-0.757885,1.446798,-2.897063,0.087907,0.171888,0.731662,0.785156,-0.239990,0.142822,-0.069833,0.013130,0.000545,0.999993,0.000440,0.000859,0.003658,0.746582,-0.004020,0.665267,-0.004359
60055,NaN,-7.256417,1.244353,0.150889,-0.674773,1.304240,-2.596722,-0.094088,0.222886,0.722547,0.785400,-0.248291,0.145020,-0.072607,0.012182,0.001584,0.999993,-0.000470,0.001114,0.003613,0.745852,-0.001960,0.666108,-0.001349
60056,NaN,-7.945840,1.188773,0.112733,-0.773077,1.173635,-1.901499,-0.264505,0.271983,0.712259,0.785400,-0.246338,0.148926,-0.079498,0.011606,0.001220,0.999992,-0.001323,0.001360,0.003561,0.745018,0.001556,0.667039,0.002276
60057,NaN,-8.884938,1.041852,0.102371,-0.867093,0.963262,-0.960683,-0.410447,0.299783,0.681620,0.783447,-0.254883,0.151123,-0.088883,0.010118,0.001136,0.999991,-0.002052,0.001499,0.003408,0.744009,0.002300,0.668137,0.006191
60058,NaN,-9.995636,0.751088,-0.062181,-1.122457,0.567670,0.132068,-0.521305,0.327820,0.637706,0.781494,-0.259033,0.149170,-0.099980,0.007191,-0.000477,0.999990,-0.002607,0.001639,0.003189,0.742934,0.004347,0.669267,0.010549
60059,NaN,-11.413280,0.204437,-0.399458,-1.565744,-0.076053,1.501308,-0.564447,0.355394,0.545224,0.779785,-0.265381,0.153320,-0.114145,0.001722,-0.003797,0.999991,-0.002822,0.001777,0.002726,0.741724,0.004058,0.670536,0.014475
60060,NaN,-13.161420,-0.380315,-0.996024,-2.278004,-0.811945,3.168473,-0.542067,0.400708,0.442085,0.777588,-0.269531,0.151367,-0.131625,-0.004121,-0.009686,0.999992,-0.002710,0.002004,0.002210,0.740334,0.005267,0.671974,0.018152
60061,NaN,-15.114568,-1.041458,-1.679204,-3.069895,-1.612150,5.030847,-0.356088,0.437625,0.369642,0.777832,-0.273926,0.157715,-0.151162,-0.010723,-0.016442,0.999994,-0.001780,0.002188,0.001848,0.738838,0.005153,0.673545,0.020733
60062,NaN,-16.862499,-1.885861,-2.055066,-3.508657,-2.619754,6.708486,-0.025938,0.436592,0.296742,0.778076,-0.278076,0.155762,-0.168641,-0.019111,-0.020180,0.999997,-0.000130,0.002183,0.001484,0.737188,0.007523,0.675282,0.022152
60063,NaN,-17.416360,-2.617245,-2.172527,-3.591758,-3.415635,7.226438,0.310986,0.371894,0.211403,0.777832,-0.271729,0.163818,-0.174176,-0.026323,-0.021442,0.999997,0.001555,0.001859,0.001057,0.735897,0.009344,0.676674,0.021900
60064,NaN,-16.900687,-2.807990,-2.132807,-3.445277,-3.629983,6.710630,0.544698,0.343159,0.120254,0.771484,-0.271729,0.165771,-0.169026,-0.028124,-0.021115,0.999995,0.002723,0.001716,0.000601,0.734394,0.012820,0.678284,0.020779
60065,NaN,-15.863741,-2.689330,-2.010671,-3.199990,-3.457600,5.703061,0.638332,0.392983,-0.013001,0.773682,-0.273926,0.169922,-0.158678,-0.026819,-0.019881,0.999993,0.003192,0.001965,-0.000065,0.733019,0.015082,0.679787,0.018596
60066,NaN,-14.911647,-2.407589,-1.519823,-2.573543,-3.123029,4.819015,0.563768,0.491227,-0.172794,0.771484,-0.271729,0.179932,-0.149174,-0.023905,-0.014899,0.999993,0.002819,0.002456,-0.000864,0.730898,0.017197,0.682075,0.016331
60067,NaN,-14.496283,-1.931652,-0.997972,-1.958116,-2.589078,4.481761,0.375308,0.568693,-0.307084,0.777588,-0.267578,0.184082,-0.145020,-0.019076,-0.009603,0.999993,0.001877,0.002843,-0.001535,0.728949,0.017478,0.684202,0.013981
60068,NaN,-14.520999,-1.312953,-0.280430,-1.141734,-1.937260,4.595800,0.149949,0.590165,-0.403296,0.781738,-0.263428,0.186035,-0.145244,-0.012835,-0.002385,0.999993,0.000750,0.002951,-0.002016,0.726438,0.016939,0.686912,0.012361
60069,NaN,-14.558459,-0.703254,0.433200,-0.346085,-1.272374,4.709410,-0.108689,0.548220,-0.466120,0.775146,-0.259033,0.190186,-0.145588,-0.006691,0.004735,0.999993,-0.000543,0.002741,-0.002331,0.724591,0.014912,0.688929,0.011092
60070,NaN,-14.433847,-0.211495,1.007095,0.328843,-0.719913,4.636108,-0.386760,0.446077,-0.478118,0.777344,-0.257080,0.196289,-0.144320,-0.001750,0.010396,0.999993,-0.001934,0.002230,-0.002391,0.722619,0.012093,0.691054,0.010964
60071,NaN,-14.093186,0.002562,1.340893,0.733135,-0.422291,4.318818,-0.647529,0.323419,-0.464488,0.781494,-0.252686,0.194092,-0.140909,0.000397,0.013636,0.999991,-0.003238,0.001617,-0.002322,0.721562,0.008133,0.692206,0.011546
60072,NaN,-13.543382,-0.209104,1.402999,0.872536,-0.551530,3.765579,-0.863847,0.193879,-0.455276,0.781494,-0.259033,0.192139,-0.135424,-0.001722,0.014169,0.999988,-0.004319,0.000969,-0.002276,0.720510,0.003589,0.693310,0.013142
60073,NaN,-12.848621,-0.672207,1.076843,0.601855,-0.930679,3.050815,-1.028156,0.089771,-0.449037,0.785400,-0.248535,0.189941,-0.128496,-0.006378,0.010859,0.999984,-0.005141,0.000449,-0.002245,0.720238,-0.001675,0.693561,0.015093
60074,NaN,-11.985021,-1.165890,0.713396,0.309337,-1.357498,2.169389,-1.137600,-0.005210,-0.424882,0.783203,-0.246338,0.183838,-0.119875,-0.011363,0.007196,0.999982,-0.005688,-0.000026,-0.002124,0.719902,-0.007004,0.693817,0.017618
60075,NaN,-10.811296,-1.553191,0.347793,0.008749,-1.686746,0.984170,-1.183524,-0.100519,-0.376365,0.785400,-0.244385,0.189941,-0.108144,-0.015308,0.003515,0.999981,-0.005918,-0.000503,-0.001882,0.720230,-0.012558,0.693322,0.020375
60076,NaN,-9.388466,-1.979299,-0.030531,-0.281032,-2.076173,-0.449339,-1.117713,-0.173811,-0.348678,0.787354,-0.242188,0.181641,-0.093919,-0.019631,-0.000277,0.999982,-0.005589,-0.000869,-0.001743,0.720454,-0.017796,0.692886,0.023197
60077,NaN,-7.855330,-2.500272,-0.129643,-0.285869,-2.560832,-1.981037,-0.985385,-0.227140,-0.304982,0.791748,-0.246338,0.177734,-0.078590,-0.024889,-0.001263,0.999986,-0.004927,-0.001136,-0.001525,0.721181,-0.022374,0.691915,0.025536
60078,NaN,-6.450202,-2.820206,-0.237205,-0.300438,-2.860506,-3.382901,-0.855981,-0.246642,-0.243303,0.798096,-0.246338,0.171631,-0.064533,-0.028134,-0.002331,0.999989,-0.004280,-0.001233,-0.001217,0.721635,-0.026395,0.691212,0.027794
60079,NaN,-5.525657,-2.885533,-0.150748,-0.162656,-2.904010,-4.297058,-0.719779,-0.230539,-0.175901,0.795898,-0.246338,0.167480,-0.055280,-0.028812,-0.001467,0.999992,-0.003599,-0.001153,-0.000880,0.722358,-0.029565,0.690250,0.029681
60080,NaN,-5.262952,-2.667919,-0.241309,-0.247857,-2.685220,-4.558847,-0.553648,-0.185635,-0.137525,0.793945,-0.248535,0.167480,-0.052646,-0.026650,-0.002388,0.999996,-0.002768,-0.000928,-0.000688,0.722619,-0.032201,0.689792,0.031172
60081,NaN,-5.497374,-2.334042,-0.295580,-0.340014,-2.351251,-4.325225,-0.346495,-0.116776,-0.137334,0.800049,-0.239990,0.167236,-0.054988,-0.023308,-0.002948,0.999998,-0.001732,-0.000584,-0.000687,0.722988,-0.033906,0.689290,0.031893
60082,NaN,-6.055841,-1.900207,-0.168566,-0.274418,-1.897175,-3.759768,-0.144816,-0.051862,-0.135207,0.795898,-0.244141,0.163330,-0.060571,-0.018962,-0.001688,0.999999,-0.000724,-0.000259,-0.000676,0.722852,-0.035267,0.689360,0.031996
60083,NaN,-6.766684,-1.496210,0.090182,-0.090532,-1.460636,-3.038240,0.020195,-0.001119,-0.125214,0.795898,-0.242188,0.163330,-0.067676,-0.014920,0.000900,1.000000,0.000101,-0.000006,-0.000626,0.722881,-0.035623,0.689335,0.031477
60084,NaN,-7.492718,-1.180437,0.432304,0.191254,-1.098447,-2.297504,0.120328,0.031921,-0.114444,0.799805,-0.237793,0.165283,-0.074933,-0.011764,0.004328,1.000000,0.000602,0.000160,-0.000572,0.722520,-0.036020,0.689728,0.030701
60085,NaN,-8.044865,-0.860995,0.720684,0.422405,-0.742777,-1.734915,0.169440,0.030154,-0.101268,0.799805,-0.237793,0.167236,-0.080452,-0.008575,0.007212,1.000000,0.000847,0.000151,-0.000506,0.722464,-0.035760,0.689842,0.029748
60086,NaN,-8.426215,-0.472544,1.086434,0.738103,-0.307819,-1.341253,0.195141,-0.005202,-0.086478,0.800049,-0.239990,0.167236,-0.084264,-0.004700,0.010858,0.999999,0.000976,-0.000026,-0.000432,0.722261,-0.035807,0.690092,0.028808
60087,NaN,-8.610389,-0.024733,1.412160,1.009394,0.173973,-1.147558,0.196865,-0.053474,-0.088117,0.803955,-0.235840,0.169434,-0.086108,-0.000223,0.014098,0.999999,0.000984,-0.000267,-0.000441,0.722496,-0.035391,0.689908,0.027823
60088,NaN,-8.561311,0.300610,1.646105,1.213378,0.529674,-1.190436,0.169870,-0.098604,-0.116271,0.797852,-0.239990,0.167236,-0.085619,0.003042,0.016421,0.999999,0.000849,-0.000493,-0.000581,0.722661,-0.035574,0.689764,0.026860
60089,NaN,-8.292319,0.414182,1.872864,1.431619,0.668893,-1.449390,0.098814,-0.129435,-0.169603,0.803955,-0.231445,0.169189,-0.082932,0.004203,0.018677,0.999999,0.000494,-0.000647,-0.000848,0.723149,-0.035782,0.689277,0.025932
60090,NaN,-7.974150,0.455349,1.942230,1.502962,0.731531,-1.764545,0.005098,-0.152641,-0.238982,0.802002,-0.233643,0.163086,-0.079751,0.004648,0.019362,0.999999,0.000025,-0.000763,-0.001195,0.723541,-0.036920,0.688836,0.025103
60091,NaN,-7.828860,0.473585,1.891818,1.443800,0.764233,-1.911699,-0.109248,-0.160766,-0.301608,0.805908,-0.227295,0.165039,-0.078296,0.004864,0.018853,0.999998,-0.000546,-0.000804,-0.001508,0.724113,-0.038332,0.688182,0.024420
60092,NaN,-7.839475,0.497715,1.648303,1.184379,0.796957,-1.914333,-0.179505,-0.177786,-0.344147,0.812256,-0.227295,0.161133,-0.078401,0.005127,0.016409,0.999998,-0.000898,-0.000889,-0.001721,0.724621,-0.040428,0.687548,0.023833
60093,NaN,-7.998517,0.509614,1.481046,0.990368,0.826397,-1.764979,-0.221376,-0.182717,-0.362170,0.812012,-0.223145,0.156982,-0.079989,0.005257,0.014732,0.999997,-0.001107,-0.000914,-0.001811,0.725247,-0.042451,0.686782,0.023322
60094,NaN,-7.937597,0.426533,1.353680,0.857038,0.763120,-1.831280,-0.220781,-0.195153,-0.351603,0.807861,-0.225098,0.156982,-0.079381,0.004420,0.013455,0.999997,-0.001104,-0.000976,-0.001758,0.725838,-0.044651,0.686035,0.022839
60095,NaN,-7.761819,0.272508,1.320578,0.829855,0.629740,-2.003801,-0.194665,-0.197217,-0.334242,0.810059,-0.223145,0.158936,-0.077626,0.002868,0.013126,0.999998,-0.000973,-0.000986,-0.001671,0.726509,-0.046479,0.685219,0.022340
60096,NaN,-7.488772,0.119330,1.331127,0.854130,0.497454,-2.270091,-0.144403,-0.196693,-0.316776,0.812012,-0.220947,0.152832,-0.074899,0.001321,0.013237,0.999998,-0.000722,-0.000983,-0.001584,0.727138,-0.048243,0.684449,0.021740
60097,NaN,-7.251652,0.037951,1.342606,0.871350,0.431993,-2.502109,-0.083312,-0.191932,-0.293384,0.813965,-0.216553,0.150635,-0.072529,0.000491,0.013356,0.999998,-0.000417,-0.000960,-0.001467,0.727807,-0.049527,0.683668,0.021008
60098,NaN,-7.084797,0.101170,1.498188,1.014963,0.525197,-2.661245,-0.011914,-0.183222,-0.262560,0.815918,-0.212402,0.154785,-0.070860,0.001106,0.014917,0.999999,-0.000060,-0.000916,-0.001313,0.728438,-0.050586,0.682944,0.020135
60099,NaN,-6.974460,0.201952,1.588988,1.088208,0.645639,-2.769415,0.055468,-0.175387,-0.224400,0.813965,-0.214600,0.154785,-0.069756,0.002093,0.015829,0.999999,0.000277,-0.000877,-0.001122,0.729075,-0.051130,0.682252,0.019175
60100,NaN,-6.957579,0.255175,1.678688,1.159891,0.720244,-2.782261,0.123726,-0.165095,-0.199455,0.813965,-0.216553,0.150635,-0.069587,0.002611,0.016731,0.999999,0.000619,-0.000825,-0.000997,0.729694,-0.051444,0.681597,0.018061
60101,NaN,-6.846003,0.278744,1.693677,1.168409,0.749445,-2.892634,0.174659,-0.159904,-0.170212,0.815918,-0.212402,0.148438,-0.068471,0.002831,0.016884,0.999999,0.000873,-0.000800,-0.000851,0.730300,-0.051370,0.680983,0.016888
60102,NaN,-6.775762,0.194499,1.687710,1.163736,0.669517,-2.957427,0.217152,-0.149824,-0.155666,0.815918,-0.208252,0.148438,-0.067769,0.001979,0.016828,0.999999,0.001086,-0.000749,-0.000778,0.730915,-0.051157,0.680369,0.015613
60103,NaN,-6.619723,0.096521,1.708879,1.195175,0.572299,-3.104905,0.226988,-0.140859,-0.146392,0.815918,-0.210205,0.148438,-0.066209,0.000994,0.017043,0.999999,0.001135,-0.000704,-0.000732,0.731465,-0.050813,0.679832,0.014345
60104,NaN,-6.663168,0.196901,1.765562,1.228627,0.684226,-3.061681,0.211697,-0.131127,-0.120411,0.817627,-0.201904,0.146240,-0.066642,0.001990,0.017614,0.999999,0.001058,-0.000656,-0.000602,0.732034,-0.050465,0.679269,0.013201
60105,NaN,-6.911924,0.343348,1.813487,1.235764,0.849595,-2.817518,0.173670,-0.120045,-0.092799,0.815674,-0.206055,0.140137,-0.069129,0.003450,0.018096,0.999999,0.000868,-0.000600,-0.000464,0.732493,-0.050135,0.678815,0.012305
60106,NaN,-7.419302,0.553495,1.986276,1.339839,1.101936,-2.310138,0.109169,-0.109198,-0.065027,0.813477,-0.203857,0.150391,-0.074202,0.005548,0.019825,1.000000,0.000546,-0.000546,-0.000325,0.732982,-0.049936,0.678312,0.011694
60107,NaN,-7.889792,0.617696,2.118923,1.420191,1.203173,-1.834240,0.032880,-0.114947,-0.037017,0.822021,-0.203857,0.146484,-0.078909,0.006188,0.021145,1.000000,0.000164,-0.000575,-0.000185,0.733384,-0.049932,0.677881,0.011479
60108,NaN,-8.308330,0.603390,2.289309,1.544615,1.226102,-1.401730,-0.057119,-0.115342,-0.008914,0.822021,-0.201904,0.140137,-0.083096,0.006044,0.022843,1.000000,-0.000286,-0.000577,-0.000045,0.733869,-0.050113,0.677340,0.011648
60109,NaN,-8.891283,0.539251,2.474510,1.674849,1.210354,-0.801649,-0.154194,-0.121669,0.003193,0.817627,-0.201904,0.150391,-0.088928,0.005410,0.024687,1.000000,-0.000771,-0.000608,0.000016,0.734244,-0.050659,0.676883,0.012215
60110,NaN,-9.578313,0.533550,2.343674,1.471876,1.229154,-0.125360,-0.212286,-0.120442,0.004899,0.815674,-0.203857,0.144287,-0.095797,0.005358,0.023373,0.999999,-0.001061,-0.000602,0.000024,0.734736,-0.051312,0.676285,0.012951
60111,NaN,-10.425215,0.486459,2.103106,1.152218,1.206521,0.702135,-0.223699,-0.108102,-0.007795,0.815918,-0.210205,0.142334,-0.104263,0.004892,0.020969,0.999999,-0.001118,-0.000541,-0.000039,0.735046,-0.052152,0.675869,0.013709
60112,NaN,-11.432104,0.582153,1.808447,0.746679,1.326891,1.675751,-0.237010,-0.096516,-0.021190,0.820068,-0.206055,0.144287,-0.114329,0.005855,0.018022,0.999999,-0.001185,-0.000483,-0.000106,0.735469,-0.052954,0.675331,0.014442
60113,NaN,-12.508667,0.711722,1.643477,0.464490,1.500303,2.725559,-0.260529,-0.071553,-0.036110,0.819824,-0.199707,0.142090,-0.125091,0.007161,0.016381,0.999999,-0.001303,-0.000358,-0.000181,0.735646,-0.054027,0.675037,0.015211
60114,NaN,-13.611634,0.794358,1.536117,0.236138,1.633729,3.808707,-0.286564,-0.050720,-0.061786,0.815674,-0.206055,0.136230,-0.136118,0.008008,0.015315,0.999999,-0.001433,-0.000254,-0.000309,0.735907,-0.055102,0.674648,0.015933
60115,NaN,-14.516458,0.761497,1.461385,0.074793,1.652935,4.703002,-0.274190,-0.037400,-0.083979,0.819824,-0.203857,0.142334,-0.145164,0.007696,0.014576,0.999999,-0.001371,-0.000187,-0.000420,0.735966,-0.056389,0.674463,0.016562
60116,NaN,-15.133830,0.593471,1.411984,-0.028385,1.524103,5.321875,-0.215008,-0.045748,-0.102048,0.819824,-0.203857,0.138184,-0.151338,0.006027,0.014079,0.999999,-0.001075,-0.000229,-0.000510,0.736229,-0.057294,0.674090,0.016908
60117,NaN,-15.466981,0.487249,1.216450,-0.251569,1.432111,5.641451,-0.115587,-0.050334,-0.105530,0.817627,-0.199707,0.138184,-0.154670,0.004961,0.012123,1.000000,-0.000578,-0.000252,-0.000528,0.736377,-0.058069,0.673863,0.016927
60118,NaN,-15.383061,0.340312,1.058036,-0.400932,1.275700,5.552391,0.007383,-0.045379,-0.117701,0.817871,-0.206055,0.134033,-0.153831,0.003493,0.010546,1.000000,0.000037,-0.000227,-0.000589,0.736695,-0.058167,0.673518,0.016462
60119,NaN,-15.111804,0.272134,0.915513,-0.516587,1.195435,5.273163,0.134164,-0.017211,-0.129831,0.819824,-0.199707,0.140137,-0.151117,0.002813,0.009144,1.000000,0.000671,-0.000086,-0.000649,0.736804,-0.058107,0.673425,0.015540
60120,NaN,-14.843091,0.143850,0.968044,-0.431551,1.073149,5.017593,0.254206,0.043131,-0.171278,0.821777,-0.199707,0.138184,-0.148428,0.001553,0.009714,0.999999,0.001271,0.000216,-0.000856,0.736884,-0.057466,0.673426,0.014043
60121,NaN,-14.720957,0.079401,1.165053,-0.209751,1.048776,4.915728,0.364665,0.108720,-0.216626,0.819824,-0.199707,0.135986,-0.147202,0.000932,0.011732,0.999998,0.001823,0.000544,-0.001083,0.736638,-0.056857,0.673786,0.011989
60122,NaN,-14.473222,0.168756,1.496657,0.145512,1.178155,4.690185,0.452299,0.147607,-0.234211,0.821777,-0.195557,0.144287,-0.144719,0.001823,0.015077,0.999996,0.002261,0.000738,-0.001171,0.736410,-0.055683,0.674173,0.009563
60123,NaN,-13.917991,0.348690,1.939940,0.640174,1.390503,4.160574,0.549330,0.153608,-0.221699,0.821777,-0.193359,0.146240,-0.139161,0.003588,0.019516,0.999995,0.002747,0.000768,-0.001108,0.736054,-0.054412,0.674697,0.006856
60124,NaN,-13.092155,0.609086,2.427893,1.195018,1.649934,3.360003,0.610074,0.146116,-0.183841,0.827881,-0.187012,0.152344,-0.130898,0.006137,0.024393,0.999995,0.003050,0.000731,-0.000919,0.735853,-0.052472,0.675092,0.004096
60125,NaN,-12.192802,0.916974,2.758558,1.601127,1.929911,2.468465,0.624048,0.125339,-0.119870,0.827881,-0.187012,0.154297,-0.121905,0.009157,0.027691,0.999995,0.003120,0.000627,-0.000599,0.735595,-0.050581,0.675529,0.001519
60126,NaN,-11.064443,1.168070,2.771845,1.711458,2.091861,1.330221,0.605937,0.085726,-0.019405,0.823486,-0.182861,0.154297,-0.110631,0.011607,0.027801,0.999995,0.003030,0.000429,-0.000097,0.735595,-0.048065,0.675714,-0.000608
60127,NaN,-9.743890,1.305377,2.546876,1.609606,2.107112,-0.009465,0.578768,0.055044,0.102591,0.830078,-0.189209,0.152344,-0.097439,0.012930,0.025533,0.999996,0.002894,0.000275,0.000513,0.735548,-0.045587,0.675934,-0.002196
60128,NaN,-8.297780,1.253299,2.198543,1.400691,1.906535,-1.466394,0.520866,0.032300,0.226280,0.830078,-0.189209,0.156494,-0.082988,0.012382,0.022031,0.999996,0.002604,0.000162,0.001131,0.735720,-0.042493,0.675944,-0.003126
60129,NaN,-6.978252,1.106743,1.844642,1.179278,1.628266,-2.792605,0.416348,0.029172,0.328529,0.823730,-0.193359,0.154297,-0.069798,0.010914,0.018479,0.999996,0.002082,0.000146,0.001643,0.735715,-0.039848,0.676110,-0.003327
60130,NaN,-6.109577,0.862906,1.368208,0.796503,1.274893,-3.673983,0.291515,0.046550,0.396929,0.823975,-0.197754,0.164795,-0.061110,0.008488,0.013709,0.999997,0.001458,0.000233,0.001985,0.735795,-0.036993,0.676187,-0.002845
60131,NaN,-5.937865,0.658498,0.965854,0.426872,1.014582,-3.861799,0.154837,0.087444,0.417019,0.826172,-0.201904,0.160645,-0.059388,0.006454,0.009690,0.999997,0.000774,0.000437,0.002085,0.735535,-0.035010,0.676579,-0.001847
60132,NaN,-6.347550,0.539692,0.511945,-0.048616,0.864343,-3.480608,0.044197,0.124940,0.405783,0.824219,-0.208252,0.168945,-0.063483,0.005267,0.005160,0.999998,0.000221,0.000625,0.002029,0.735294,-0.033036,0.676942,-0.000494
60133,NaN,-7.103932,0.574305,0.277412,-0.337222,0.895439,-2.744658,-0.039599,0.130140,0.398194,0.830566,-0.208252,0.160889,-0.071049,0.005602,0.002819,0.999998,-0.000198,0.000651,0.001991,0.734849,-0.031831,0.677483,0.001086
60134,NaN,-7.756828,0.875837,0.136831,-0.538206,1.181549,-2.114092,-0.120413,0.096310,0.428089,0.822510,-0.216797,0.162842,-0.077586,0.008593,0.001400,0.999997,-0.000602,0.000482,0.002140,0.734663,-0.030380,0.677744,0.003079
60135,NaN,-8.124898,1.252908,0.151486,-0.565979,1.536490,-1.755055,-0.209005,0.042089,0.482894,0.826904,-0.218994,0.169189,-0.081279,0.012334,0.001519,0.999997,-0.001045,0.000210,0.002414,0.734481,-0.029509,0.677964,0.005558
60136,NaN,-8.318229,1.694328,0.299492,-0.459317,1.944307,-1.556665,-0.315198,-0.017681,0.527958,0.824951,-0.229492,0.167236,-0.083227,0.016728,0.002961,0.999995,-0.001576,-0.000088,0.002640,0.734627,-0.028417,0.677822,0.008596
60137,NaN,-8.513474,2.004724,0.361062,-0.439527,2.218060,-1.356012,-0.447962,-0.078599,0.550041,0.827148,-0.227295,0.161133,-0.085191,0.019821,0.003533,0.999994,-0.002240,-0.000393,0.002750,0.734804,-0.028192,0.677585,0.012149
60138,NaN,-8.633688,2.093367,0.360447,-0.474267,2.257034,-1.225877,-0.570413,-0.126664,0.536941,0.825195,-0.233643,0.161133,-0.086395,0.020712,0.003490,0.999992,-0.002852,-0.000633,0.002685,0.735254,-0.027971,0.677022,0.016104
60139,NaN,-8.640223,2.048512,0.367236,-0.489397,2.168652,-1.207925,-0.670513,-0.174953,0.503434,0.823242,-0.239990,0.157227,-0.086457,0.020280,0.003529,0.999991,-0.003353,-0.000875,0.002517,0.735708,-0.028715,0.676387,0.020252
60140,NaN,-8.460734,1.808528,0.412035,-0.443394,1.884361,-1.370120,-0.730674,-0.223497,0.443355,0.823242,-0.242188,0.155273,-0.084652,0.017912,0.003960,0.999990,-0.003653,-0.001117,0.002217,0.736439,-0.029360,0.675425,0.024420
60141,NaN,-8.169183,1.578552,0.390611,-0.452286,1.619003,-1.654619,-0.778502,-0.239583,0.372296,0.823486,-0.248535,0.149170,-0.081726,0.015648,0.003747,0.999990,-0.003892,-0.001198,0.001861,0.737083,-0.030936,0.674493,0.028459
60142,NaN,-7.960244,1.505438,0.243268,-0.605304,1.500145,-1.870770,-0.813211,-0.244807,0.301124,0.830078,-0.257080,0.147217,-0.079628,0.014944,0.002274,0.999990,-0.004066,-0.001224,0.001506,0.737858,-0.032346,0.673402,0.032386
60143,NaN,-7.851535,1.550006,0.137241,-0.734689,1.512397,-1.987042,-0.830785,-0.238405,0.243562,0.825928,-0.257080,0.136963,-0.078536,0.015410,0.001215,0.999990,-0.004154,-0.001192,0.001218,0.738482,-0.034549,0.672418,0.036124
60144,NaN,-7.814658,1.572510,0.064314,-0.836085,1.501318,-2.028555,-0.827180,-0.222460,0.215964,0.828125,-0.261230,0.133057,-0.078164,0.015643,0.000491,0.999990,-0.004136,-0.001112,0.001080,0.739157,-0.036290,0.671378,0.039781
60145,NaN,-7.877736,1.557921,0.059070,-0.873128,1.466233,-1.965583,-0.800615,-0.193745,0.210969,0.830322,-0.263428,0.133057,-0.078794,0.015498,0.000452,0.999991,-0.004003,-0.000969,0.001055,0.739616,-0.038498,0.670531,0.043288
60146,NaN,-7.951696,1.454649,0.132831,-0.820085,1.345270,-1.882949,-0.768717,-0.158167,0.225680,0.824219,-0.269775,0.125000,-0.079534,0.014462,0.001210,0.999992,-0.003844,-0.000791,0.001128,0.740048,-0.039995,0.669732,0.046772
60147,NaN,-7.923724,1.286212,0.251551,-0.698900,1.172633,-1.898180,-0.721025,-0.126555,0.257215,0.828369,-0.267578,0.126953,-0.079255,0.012769,0.002419,0.999992,-0.003605,-0.000633,0.001286,0.740265,-0.041768,0.669139,0.050168
60148,NaN,-7.832009,1.180130,0.412488,-0.532829,1.061589,-1.970985,-0.666473,-0.096850,0.295090,0.830811,-0.273926,0.123047,-0.078339,0.011699,0.004048,0.999993,-0.003332,-0.000484,0.001475,0.740467,-0.042666,0.668596,0.053555
60149,NaN,-7.745857,1.087567,0.670936,-0.267402,0.983585,-2.028584,-0.620341,-0.053963,0.340940,0.822266,-0.276123,0.116943,-0.077479,0.010764,0.006655,0.999994,-0.003102,-0.000270,0.001705,0.740421,-0.043804,0.668295,0.056907
60150,NaN,-7.702142,1.043193,0.847078,-0.090026,0.934377,-2.050757,-0.575618,-0.021054,0.375729,0.824463,-0.278320,0.119141,-0.077042,0.010312,0.008433,0.999994,-0.002878,-0.000105,0.001879,0.740346,-0.044120,0.668064,0.060272
60151,NaN,-7.678218,1.054256,1.064816,0.122038,0.951584,-2.048677,-0.545260,0.010129,0.422644,0.824951,-0.286621,0.121338,-0.076804,0.010409,0.010624,0.999994,-0.002726,0.000051,0.002113,0.740062,-0.044725,0.668023,0.063661
60152,NaN,-7.791651,1.043238,1.222415,0.267944,0.924638,-1.915496,-0.502675,0.055723,0.468990,0.822754,-0.286621,0.114990,-0.077937,0.010280,0.012220,0.999994,-0.002513,0.000279,0.002345,0.739701,-0.044488,0.668101,0.067111
60153,NaN,-8.294905,1.023990,1.251950,0.257041,0.857250,-1.409098,-0.479907,0.110276,0.510347,0.824951,-0.292969,0.115234,-0.082968,0.010058,0.012541,0.999994,-0.002400,0.000551,0.002552,0.739052,-0.044591,0.668454,0.070582
60154,NaN,-8.960019,0.963308,1.149713,0.115191,0.705190,-0.756142,-0.451241,0.169393,0.537009,0.821289,-0.303711,0.115479,-0.089616,0.009418,0.011552,0.999993,-0.002256,0.000847,0.002685,0.738285,-0.043981,0.668963,0.074086
60155,NaN,-9.772682,0.880227,1.173437,0.097408,0.542764,0.054063,-0.423743,0.217468,0.555853,0.816895,-0.305664,0.109375,-0.097738,0.008556,0.011822,0.999993,-0.002119,0.001087,0.002779,0.737256,-0.043762,0.669724,0.077512
60156,NaN,-10.735155,0.802386,1.059077,-0.060564,0.334165,0.999036,-0.398652,0.254884,0.586691,0.814941,-0.307861,0.113281,-0.107361,0.007730,0.010712,0.999993,-0.001993,0.001274,0.002933,0.736177,-0.042836,0.670557,0.081005
60157,NaN,-11.878705,0.691238,0.651274,-0.502565,0.024679,2.093274,-0.326144,0.280666,0.618056,0.817383,-0.316406,0.111572,-0.118798,0.006556,0.006669,0.999993,-0.001631,0.001403,0.003090,0.734913,-0.042073,0.671583,0.084318
60158,NaN,-12.950884,0.533908,0.016226,-1.139853,-0.393551,3.092964,-0.282316,0.317363,0.646546,0.813232,-0.318604,0.111572,-0.129525,0.004921,0.000361,0.999993,-0.001412,0.001587,0.003233,0.733598,-0.040563,0.672689,0.087628
60159,NaN,-13.786474,0.394731,-0.323755,-1.453274,-0.730756,3.886968,-0.194291,0.385465,0.662169,0.813477,-0.329102,0.113770,-0.137883,0.003488,-0.002975,0.999992,-0.000971,0.001927,0.003311,0.731969,-0.039212,0.674143,0.090637
60160,NaN,-14.397068,-0.106763,-0.391443,-1.399923,-1.375915,4.455674,-0.085276,0.441602,0.668050,0.811523,-0.331299,0.119873,-0.143974,-0.001550,-0.003596,0.999992,-0.000426,0.002208,0.003340,0.730224,-0.036996,0.675791,0.093337
60161,NaN,-14.721795,-0.717277,-0.407144,-1.240537,-2.086750,4.730932,0.040227,0.480725,0.644498,0.809570,-0.335449,0.119873,-0.147203,-0.007646,-0.003719,0.999992,0.000201,0.002404,0.003222,0.728303,-0.034890,0.677675,0.095470
60162,NaN,-14.940996,-1.341844,-0.435706,-1.081575,-2.809163,4.889745,0.207909,0.491919,0.586781,0.807617,-0.337646,0.128174,-0.149380,-0.013852,-0.004004,0.999992,0.001040,0.002460,0.002934,0.726434,-0.031957,0.679624,0.096869
60163,NaN,-15.034577,-1.738835,-0.506346,-1.000006,-3.287373,4.935557,0.411407,0.496132,0.529444,0.809814,-0.346191,0.132324,-0.150311,-0.017776,-0.004727,0.999991,0.002057,0.002481,0.002647,0.724553,-0.028898,0.681701,0.097320
60164,NaN,-14.991053,-2.076335,-0.545899,-0.902657,-3.687027,4.847846,0.617117,0.468085,0.461269,0.805420,-0.339844,0.134277,-0.149874,-0.021093,-0.005173,0.999990,0.003086,0.002340,0.002306,0.722842,-0.024971,0.683734,0.096867
60165,NaN,-14.775353,-2.379136,-0.456189,-0.690808,-3.995178,4.600514,0.784471,0.429816,0.386964,0.803711,-0.350342,0.136475,-0.147717,-0.024060,-0.004338,0.999988,0.003922,0.002149,0.001935,0.721277,-0.021015,0.685705,0.095535
60166,NaN,-14.457156,-2.477668,-0.361773,-0.524098,-4.087489,4.269096,0.903649,0.361886,0.307107,0.803711,-0.350342,0.144775,-0.144540,-0.024983,-0.003469,0.999987,0.004518,0.001809,0.001536,0.719984,-0.016615,0.687456,0.093543
60167,NaN,-13.952770,-2.521575,-0.396776,-0.505721,-4.108508,3.754180,0.959833,0.275857,0.210249,0.803711,-0.350342,0.148926,-0.139507,-0.025344,-0.003897,0.999987,0.004799,0.001379,0.001051,0.719011,-0.012560,0.688903,0.090983
60168,NaN,-13.448111,-2.485053,-0.515284,-0.600706,-4.050469,3.245856,0.977928,0.194948,0.089777,0.803711,-0.350342,0.152832,-0.134475,-0.024886,-0.005143,0.999987,0.004890,0.000975,0.000449,0.718347,-0.008650,0.690049,0.087952
60169,NaN,-13.083291,-2.406655,-0.872407,-0.956384,-3.976550,2.875809,0.993910,0.129183,-0.040006,0.805908,-0.350342,0.163086,-0.130843,-0.023997,-0.008759,0.999987,0.004970,0.000646,-0.000200,0.717955,-0.005269,0.690936,0.084378
60170,NaN,-12.809118,-2.304278,-1.397235,-1.493618,-3.887846,2.596547,1.014737,0.089656,-0.178441,0.805664,-0.342041,0.163086,-0.128118,-0.022857,-0.014031,0.999987,0.005074,0.000448,-0.000892,0.717721,-0.002187,0.691688,0.080246
60171,NaN,-12.435647,-2.186008,-1.882021,-1.995453,-3.739933,2.228771,1.042158,0.082742,-0.309810,0.809814,-0.342041,0.163086,-0.124398,-0.021569,-0.018882,0.999985,0.005211,0.000414,-0.001549,0.717562,0.000454,0.692386,0.075534
60172,NaN,-11.879598,-1.857470,-2.039415,-2.184602,-3.310830,1.719865,1.022342,0.128276,-0.396183,0.809570,-0.333496,0.166992,-0.118845,-0.018235,-0.020412,0.999985,0.005112,0.000641,-0.001981,0.717217,0.002726,0.693262,0.070578
60173,NaN,-10.948127,-1.524118,-1.747299,-1.906369,-2.790511,0.855767,0.978525,0.173832,-0.446014,0.813721,-0.331543,0.179199,-0.109530,-0.014912,-0.017451,0.999985,0.004893,0.000869,-0.002230,0.716750,0.004634,0.694223,0.065594
60174,NaN,-9.879326,-1.372824,-1.060864,-1.203641,-2.413291,-0.151521,0.876800,0.224272,-0.501542,0.815674,-0.331543,0.179199,-0.098839,-0.013434,-0.010557,0.999987,0.004384,0.001121,-0.002508,0.716047,0.005933,0.695378,0.060755
60175,NaN,-8.936101,-1.353621,-0.168606,-0.285058,-2.182127,-1.045050,0.673663,0.246745,-0.558791,0.817627,-0.322998,0.183105,-0.089400,-0.013281,-0.001621,0.999990,0.003368,0.001234,-0.002794,0.715334,0.006333,0.696472,0.056425
60176,NaN,-8.276266,-1.456921,0.825396,0.739911,-2.106101,-1.669154,0.375169,0.225006,-0.618011,0.819336,-0.314453,0.180908,-0.082798,-0.014329,0.008320,0.999993,0.001876,0.001125,-0.003090,0.714643,0.005393,0.697465,0.052905
60177,NaN,-7.994318,-1.626388,1.649875,1.588312,-2.146162,-1.929328,0.020490,0.144338,-0.673430,0.825684,-0.312500,0.185059,-0.079985,-0.015996,0.016555,0.999994,0.000102,0.000722,-0.003367,0.714316,0.003085,0.697997,0.050437
60178,NaN,-8.014656,-1.838366,1.933893,1.892093,-2.281423,-1.902630,-0.278144,0.028006,-0.695995,0.827637,-0.303955,0.180908,-0.080207,-0.018078,0.019375,0.999993,-0.001391,0.000140,-0.003480,0.714340,-0.000446,0.698087,0.048907
60179,NaN,-8.208761,-2.059648,1.810323,1.780226,-2.460486,-1.708394,-0.497316,-0.100146,-0.709995,0.829590,-0.299561,0.178711,-0.082169,-0.020260,0.018113,0.999990,-0.002487,-0.000501,-0.003550,0.714859,-0.004670,0.697596,0.048113
60180,NaN,-8.515446,-2.193443,1.446536,1.415982,-2.569714,-1.397962,-0.643186,-0.199011,-0.725177,0.833740,-0.297607,0.176758,-0.085248,-0.021579,0.014450,0.999988,-0.003216,-0.000995,-0.003626,0.715669,-0.009589,0.696740,0.047749
60181,NaN,-8.790836,-2.086376,0.976388,0.920262,-2.446087,-1.108987,-0.747619,-0.267804,-0.743906,0.837646,-0.286865,0.166260,-0.087998,-0.020500,0.009723,0.999985,-0.003738,-0.001339,-0.003720,0.716736,-0.014786,0.695554,0.047709
60182,NaN,-8.933532,-1.673205,0.670484,0.558916,-1.995192,-0.937807,-0.855892,-0.295500,-0.750638,0.839600,-0.286865,0.164307,-0.089407,-0.016368,0.006643,0.999983,-0.004279,-0.001477,-0.003753,0.717841,-0.020569,0.694246,0.047993
60183,NaN,-9.005855,-1.245477,0.556180,0.380007,-1.512674,-0.838675,-0.961092,-0.302614,-0.762826,0.843506,-0.278320,0.159912,-0.090113,-0.012085,0.005484,0.999980,-0.004805,-0.001513,-0.003814,0.718964,-0.026588,0.692834,0.048627
60184,NaN,-9.037688,-0.879208,0.570502,0.329255,-1.071845,-0.783818,-1.037964,-0.307270,-0.795711,0.847900,-0.276367,0.156006,-0.090419,-0.008403,0.005610,0.999977,-0.005190,-0.001536,-0.003979,0.720045,-0.033198,0.691372,0.049375
60185,NaN,-9.102914,-0.621332,0.657490,0.352321,-0.729691,-0.700927,-1.055697,-0.324747,-0.848229,0.851807,-0.267822,0.151611,-0.091065,-0.005793,0.006458,0.999976,-0.005278,-0.001624,-0.004241,0.721187,-0.039845,0.689782,0.050028
60186,NaN,-9.080245,-0.508215,0.658409,0.303975,-0.531738,-0.715063,-0.994187,-0.357066,-0.898474,0.853516,-0.261475,0.139404,-0.090836,-0.004642,0.006446,0.999976,-0.004971,-0.001785,-0.004492,0.722405,-0.046643,0.688062,0.050260
60187,NaN,-8.883414,-0.525972,0.576501,0.194745,-0.475659,-0.909927,-0.870337,-0.372841,-0.933404,0.859619,-0.250732,0.137207,-0.088868,-0.004820,0.005621,0.999978,-0.004352,-0.001864,-0.004667,0.723706,-0.052898,0.686261,0.049974
60188,NaN,-8.492916,-0.739608,0.449457,0.081348,-0.621719,-1.298884,-0.713379,-0.370408,-0.948310,0.855225,-0.248535,0.130859,-0.084971,-0.006978,0.004363,0.999981,-0.003567,-0.001852,-0.004742,0.724989,-0.058844,0.684486,0.049060
60189,NaN,-8.212031,-1.050582,0.264009,-0.075234,-0.883637,-1.577165,-0.525007,-0.346031,-0.937098,0.861328,-0.238037,0.126709,-0.082173,-0.010114,0.002525,0.999984,-0.002625,-0.001730,-0.004685,0.726240,-0.063863,0.682814,0.047566
60190,NaN,-7.990494,-1.308334,0.080467,-0.235600,-1.096384,-1.793452,-0.310667,-0.309936,-0.923245,0.867676,-0.235840,0.126709,-0.079965,-0.012713,0.000701,0.999987,-0.001553,-0.001550,-0.004616,0.727386,-0.068277,0.681316,0.045345
60191,NaN,-7.795514,-1.400474,-0.000807,-0.320427,-1.137850,-1.981115,-0.082170,-0.277955,-0.894272,0.864990,-0.223145,0.122314,-0.078017,-0.013656,-0.000111,0.999989,-0.000411,-0.001390,-0.004471,0.728502,-0.071553,0.679971,0.042472
60192,NaN,-7.545929,-1.291723,-0.025301,-0.374832,-0.977699,-2.228925,0.131912,-0.239169,-0.847590,0.869141,-0.218994,0.118164,-0.075513,-0.012597,-0.000352,0.999990,0.000660,-0.001196,-0.004238,0.729509,-0.074120,0.678824,0.038992
60193,NaN,-7.231778,-1.047483,0.117506,-0.277957,-0.670730,-2.540673,0.322442,-0.204051,-0.792802,0.875000,-0.208252,0.118164,-0.072360,-0.010190,0.001085,0.999990,0.001612,-0.001020,-0.003964,0.730471,-0.075589,0.677840,0.035086
60194,NaN,-6.901003,-0.791063,0.345224,-0.091881,-0.346048,-2.867158,0.487677,-0.161928,-0.741995,0.870850,-0.206299,0.115967,-0.069042,-0.007663,0.003377,0.999990,0.002438,-0.000810,-0.003710,0.731299,-0.076514,0.677053,0.030754
60195,NaN,-6.619592,-0.551412,0.652850,0.178423,-0.035512,-3.140655,0.621765,-0.115183,-0.697258,0.872803,-0.199951,0.117920,-0.066218,-0.005303,0.006474,0.999989,0.003109,-0.000576,-0.003486,0.732029,-0.076578,0.676451,0.026149
60196,NaN,-6.407758,-0.307497,0.896816,0.387318,0.266720,-3.352274,0.739133,-0.081416,-0.650981,0.878906,-0.195557,0.119873,-0.064091,-0.002899,0.008931,0.999988,0.003696,-0.000407,-0.003255,0.732638,-0.076277,0.675997,0.021267
60197,NaN,-6.236746,-0.038731,1.216853,0.671979,0.594840,-3.521918,0.814168,-0.049859,-0.596328,0.874512,-0.187012,0.123779,-0.062371,-0.000251,0.012152,0.999987,0.004071,-0.000249,-0.002982,0.733173,-0.075300,0.675662,0.016355
60198,NaN,-6.178518,0.374812,1.521700,0.922060,1.064727,-3.596075,0.846825,-0.032919,-0.529194,0.876465,-0.182861,0.117676,-0.061778,0.003847,0.015223,0.999988,0.004234,-0.000165,-0.002646,0.733619,-0.074181,0.675401,0.011537
60199,NaN,-6.173667,0.794290,1.709265,1.060392,1.519440,-3.629363,0.828458,-0.015921,-0.462231,0.880127,-0.170166,0.121582,-0.061720,0.008015,0.017121,0.999989,0.004142,-0.000080,-0.002311,0.734002,-0.072698,0.675209,0.007055
60200,NaN,-6.272746,1.075432,1.864244,1.180015,1.839358,-3.551409,0.757330,0.002629,-0.398998,0.882324,-0.170166,0.127686,-0.062706,0.010809,0.018684,0.999991,0.003787,0.000013,-0.001995,0.734268,-0.071442,0.675083,0.003007
60201,NaN,-6.371192,1.325890,1.862268,1.152372,2.106862,-3.484081,0.637143,0.021482,-0.340954,0.880127,-0.170166,0.125488,-0.063687,0.013308,0.018672,0.999993,0.003186,0.000107,-0.001705,0.734426,-0.070249,0.675043,-0.000398
60202,NaN,-6.618199,1.381592,1.837140,1.108873,2.195065,-3.252465,0.501848,0.042059,-0.288257,0.879883,-0.161621,0.121338,-0.066158,0.013865,0.018420,0.999996,0.002509,0.000210,-0.001441,0.734462,-0.069523,0.675072,-0.003185
60203,NaN,-6.981223,1.336800,1.903511,1.155095,2.203887,-2.887626,0.330543,0.060754,-0.254077,0.879883,-0.161621,0.125488,-0.069789,0.013425,0.019078,0.999998,0.001653,0.000304,-0.001270,0.734369,-0.069162,0.675197,-0.005250
60204,NaN,-7.468731,1.337648,1.969158,1.183416,2.274090,-2.404796,0.152354,0.063547,-0.213508,0.882080,-0.163818,0.123535,-0.074667,0.013441,0.019726,0.999999,0.000762,0.000318,-0.001068,0.734217,-0.069432,0.675323,-0.006586
60205,NaN,-7.996866,1.359084,2.152320,1.321345,2.380045,-1.874244,-0.022595,0.048540,-0.161123,0.882080,-0.161621,0.125488,-0.079952,0.013658,0.021541,1.000000,-0.000113,0.000243,-0.000806,0.734043,-0.070054,0.675443,-0.007113
60206,NaN,-8.579370,1.328955,2.234960,1.355256,2.434587,-1.291960,-0.188903,0.040764,-0.133809,0.877686,-0.159424,0.123291,-0.085780,0.013368,0.022354,0.999999,-0.000945,0.000204,-0.000669,0.733860,-0.071274,0.675515,-0.006989
60207,NaN,-9.234329,1.284137,2.155971,1.222409,2.468649,-0.648545,-0.337780,0.039196,-0.112220,0.879883,-0.159668,0.123291,-0.092332,0.012930,0.021556,0.999998,-0.001689,0.000196,-0.000561,0.733605,-0.072887,0.675627,-0.006269
60208,NaN,-9.890023,1.281086,1.965498,0.973553,2.534784,-0.017588,-0.434468,0.054034,-0.080910,0.886230,-0.159668,0.127441,-0.098890,0.012894,0.019654,0.999998,-0.002172,0.000270,-0.000405,0.733298,-0.074795,0.675761,-0.005121
60209,NaN,-10.630241,1.194835,1.794213,0.747583,2.527233,0.708864,-0.507353,0.083964,-0.047070,0.882080,-0.161621,0.123291,-0.106292,0.012019,0.017956,0.999997,-0.002537,0.000420,-0.000235,0.732824,-0.076808,0.676060,-0.003606
60210,NaN,-11.488487,1.155896,1.722496,0.608947,2.588194,1.554759,-0.577476,0.121283,-0.021873,0.875732,-0.161621,0.123291,-0.114873,0.011621,0.017261,0.999996,-0.002887,0.000606,-0.000109,0.732234,-0.079005,0.676453,-0.001778
60211,NaN,-12.534081,1.155507,1.726084,0.531889,2.715249,2.587403,-0.649416,0.149575,-0.003531,0.884277,-0.163818,0.117432,-0.125328,0.011613,0.017317,0.999994,-0.003247,0.000748,-0.000018,0.731470,-0.081390,0.676999,0.000352
60212,NaN,-13.612303,1.043237,1.699722,0.438953,2.731249,3.663950,-0.687205,0.170517,0.006508,0.884033,-0.157471,0.127441,-0.136109,0.010487,0.017077,0.999994,-0.003436,0.000853,0.000033,0.730659,-0.083857,0.677568,0.002642
60213,NaN,-14.485797,0.669353,1.771854,0.500091,2.479688,4.575739,-0.675529,0.176387,0.014092,0.886230,-0.163818,0.125488,-0.144843,0.006743,0.017824,0.999994,-0.003378,0.000882,0.000070,0.729777,-0.086276,0.678202,0.004913
60214,NaN,-15.093293,0.305831,1.741737,0.486001,2.193446,5.216858,-0.613502,0.169105,0.026897,0.884277,-0.163818,0.125488,-0.150919,0.003092,0.017536,0.999995,-0.003068,0.000846,0.000134,0.728990,-0.088373,0.678760,0.007035
60215,NaN,-15.430352,-0.094896,1.689265,0.482474,1.835467,5.593695,-0.471256,0.145837,0.041921,0.879883,-0.161621,0.123291,-0.154291,-0.000941,0.017007,0.999997,-0.002356,0.000729,0.000210,0.728286,-0.089949,0.679288,0.008727
60216,NaN,-15.534700,-0.304785,1.520523,0.355948,1.614749,5.711411,-0.269215,0.129958,0.063071,0.877686,-0.159424,0.123291,-0.155336,-0.003076,0.015310,0.999999,-0.001346,0.000650,0.000315,0.727780,-0.090645,0.679723,0.009834
60217,NaN,-15.373768,-0.472931,1.379072,0.273067,1.404757,5.563602,-0.035794,0.128075,0.086321,0.879883,-0.161621,0.125488,-0.153727,-0.004793,0.013890,1.000000,-0.000179,0.000640,0.000432,0.727327,-0.090484,0.680223,0.010217
60218,NaN,-15.090161,-0.492195,1.464173,0.401302,1.352795,5.290553,0.188344,0.149126,0.095130,0.886230,-0.163818,0.121338,-0.150888,-0.005008,0.014750,0.999999,0.000942,0.000746,0.000476,0.726961,-0.089391,0.680763,0.009880
60219,NaN,-14.676374,-0.347991,1.650891,0.621727,1.462217,4.874647,0.358877,0.176847,0.086951,0.882080,-0.163818,0.127441,-0.146748,-0.003573,0.016632,0.999998,0.001794,0.000884,0.000435,0.726517,-0.087796,0.681458,0.008901
60220,NaN,-14.207568,-0.017270,2.065440,1.049015,1.775874,4.395305,0.464507,0.213499,0.089821,0.882324,-0.167969,0.131592,-0.142053,-0.000285,0.020805,0.999997,0.002323,0.001067,0.000449,0.726052,-0.085707,0.682235,0.007580
60221,NaN,-13.722017,0.301482,2.619628,1.624692,2.091909,3.907051,0.529375,0.227768,0.102781,0.882080,-0.163818,0.129639,-0.137192,0.002875,0.026360,0.999996,0.002647,0.001139,0.000514,0.725498,-0.083439,0.683120,0.006055
60222,NaN,-13.094357,0.587718,3.265741,2.304475,2.360154,3.286608,0.571108,0.205155,0.133391,0.882080,-0.163818,0.131592,-0.130914,0.005696,0.032808,0.999995,0.002856,0.001026,0.000667,0.725102,-0.080794,0.683870,0.004538
60223,NaN,-12.283102,0.757311,3.779895,2.877873,2.468532,2.490145,0.617160,0.147744,0.187529,0.882080,-0.163818,0.133789,-0.122810,0.007341,0.037913,0.999995,0.003086,0.000739,0.000938,0.724842,-0.077914,0.684489,0.003053
60224,NaN,-11.334997,1.000252,4.136699,3.285592,2.600594,1.546733,0.630999,0.057305,0.272740,0.880127,-0.167969,0.133789,-0.113351,0.009717,0.041430,0.999994,0.003155,0.000287,0.001364,0.724974,-0.074550,0.684727,0.001903
60225,NaN,-10.368188,1.254686,3.925012,3.122474,2.674379,0.559236,0.609904,-0.052003,0.377760,0.884521,-0.172363,0.133789,-0.103715,0.012231,0.039261,0.999994,0.003050,-0.000260,0.001889,0.725375,-0.071041,0.684677,0.001209
60226,NaN,-9.118607,1.497671,3.423072,2.679293,2.677575,-0.715377,0.553643,-0.159707,0.490666,0.886719,-0.172363,0.133789,-0.091250,0.014658,0.034199,0.999993,0.002768,-0.000799,0.002453,0.726222,-0.067185,0.684168,0.001202
60227,NaN,-7.912342,1.552917,2.716946,2.045417,2.492902,-1.938686,0.451945,-0.235419,0.591569,0.882568,-0.178711,0.129883,-0.079201,0.015234,0.027111,0.999992,0.002260,-0.001177,0.002958,0.727174,-0.063514,0.683506,0.001888
60228,NaN,-6.846576,1.305792,1.739150,1.156230,2.008110,-3.013001,0.365369,-0.240002,0.651540,0.880615,-0.180908,0.127930,-0.068529,0.012803,0.017333,0.999992,0.001827,-0.001200,0.003258,0.728224,-0.059768,0.682721,0.003145
60229,NaN,-6.155519,0.873960,0.847935,0.347794,1.397530,-3.705397,0.294819,-0.178697,0.668454,0.880859,-0.189209,0.123779,-0.061591,0.008521,0.008437,0.999993,0.001474,-0.000893,0.003342,0.728910,-0.056405,0.682266,0.004631
60230,NaN,-6.070775,0.540715,0.344818,-0.125104,0.970535,-3.787089,0.178251,-0.135995,0.687860,0.880859,-0.191406,0.127930,-0.060728,0.005195,0.003412,0.999993,0.000891,-0.000680,0.003439,0.729531,-0.053206,0.681843,0.006634
60231,NaN,-6.490090,0.512771,0.070904,-0.428218,0.900340,-3.378789,0.058406,-0.111176,0.728174,0.878906,-0.197754,0.122070,-0.064919,0.004891,0.000674,0.999993,0.000292,-0.000556,0.003641,0.729901,-0.050502,0.681624,0.009126
60232,NaN,-7.239460,0.698385,-0.060502,-0.632419,1.060829,-2.645010,-0.034066,-0.100482,0.770681,0.883545,-0.210449,0.122314,-0.072420,0.006705,-0.000643,0.999992,-0.000170,-0.000502,0.003853,0.730316,-0.047792,0.681328,0.012149
60233,NaN,-7.861039,0.917416,-0.179713,-0.817332,1.237150,-2.036381,-0.116089,-0.107114,0.827696,0.879395,-0.212646,0.120117,-0.078646,0.008848,-0.001844,0.999991,-0.000580,-0.000536,0.004138,0.730600,-0.045384,0.681117,0.015598
60234,NaN,-8.133374,1.118060,-0.095552,-0.778640,1.381306,-1.756871,-0.196733,-0.142254,0.916193,0.875488,-0.216797,0.114014,-0.081383,0.010807,-0.001024,0.999989,-0.000984,-0.000711,0.004581,0.731075,-0.042762,0.680671,0.019718
60235,NaN,-8.201605,1.164270,0.075961,-0.626953,1.364804,-1.665833,-0.285182,-0.177957,1.017217,0.877930,-0.231689,0.112305,-0.082074,0.011226,0.000670,0.999986,-0.001426,-0.000890,0.005086,0.731513,-0.040319,0.680195,0.024451
60236,NaN,-8.211878,1.174846,0.141260,-0.578854,1.290352,-1.637460,-0.371155,-0.216714,1.100839,0.871826,-0.238037,0.112305,-0.082183,0.011299,0.001302,0.999983,-0.001856,-0.001084,0.005504,0.732135,-0.037689,0.679461,0.029858
60237,NaN,-8.254314,1.094958,0.204940,-0.527383,1.124023,-1.576651,-0.428316,-0.254523,1.134337,0.872314,-0.248779,0.108398,-0.082606,0.010485,0.001922,0.999981,-0.002142,-0.001273,0.005672,0.732739,-0.035359,0.678661,0.035519
60238,NaN,-8.175107,0.972756,0.183791,-0.550566,0.901962,-1.645990,-0.469707,-0.291497,1.147706,0.868164,-0.257080,0.102539,-0.081808,0.009262,0.001697,0.999980,-0.002349,-0.001457,0.005738,0.733528,-0.032911,0.677596,0.041446
60239,NaN,-8.033856,0.879822,0.199327,-0.534442,0.718715,-1.778154,-0.487697,-0.317478,1.142710,0.872803,-0.265625,0.096436,-0.080390,0.008344,0.001845,0.999979,-0.002438,-0.001587,0.005714,0.734276,-0.030756,0.676500,0.047346
60240,NaN,-7.950951,0.820644,0.152050,-0.590490,0.561057,-1.859700,-0.491273,-0.329024,1.119711,0.858398,-0.280518,0.088623,-0.079556,0.007765,0.001370,0.999980,-0.002456,-0.001645,0.005599,0.735128,-0.028471,0.675233,0.053247
60241,NaN,-7.968033,0.886249,0.183740,-0.589225,0.538700,-1.833297,-0.489668,-0.334323,1.087557,0.858643,-0.282471,0.086426,-0.079730,0.008433,0.001683,0.999981,-0.002448,-0.001672,0.005438,0.735888,-0.026504,0.674011,0.058951
60242,NaN,-8.081686,0.960142,0.173285,-0.641532,0.512881,-1.713906,-0.473771,-0.337901,1.052357,0.860840,-0.291016,0.080566,-0.080869,0.009180,0.001574,0.999982,-0.002369,-0.001689,0.005262,0.736730,-0.024379,0.672658,0.064543
60243,NaN,-8.096441,0.990472,0.193134,-0.648864,0.457412,-1.692355,-0.440939,-0.337054,1.022936,0.859131,-0.297363,0.076660,-0.081017,0.009494,0.001774,0.999983,-0.002205,-0.001685,0.005115,0.737471,-0.022447,0.671383,0.069840
60244,NaN,-8.086274,1.016411,0.266582,-0.601776,0.404997,-1.690791,-0.408975,-0.333330,0.995854,0.853027,-0.307861,0.068604,-0.080916,0.009767,0.002511,0.999984,-0.002045,-0.001667,0.004979,0.738268,-0.020275,0.670018,0.075001
60245,NaN,-8.035216,1.071947,0.354259,-0.538671,0.393607,-1.726056,-0.369200,-0.319559,0.965046,0.853271,-0.316406,0.068604,-0.080408,0.010338,0.003395,0.999985,-0.001846,-0.001598,0.004825,0.738933,-0.018278,0.668783,0.079838
60246,NaN,-8.011219,1.072105,0.427726,-0.484252,0.323553,-1.739752,-0.322304,-0.302575,0.935128,0.847168,-0.320557,0.062500,-0.080168,0.010353,0.004139,0.999987,-0.001612,-0.001513,0.004676,0.739609,-0.016003,0.667522,0.084476
60247,NaN,-7.914825,1.112204,0.444508,-0.481162,0.299510,-1.827868,-0.272000,-0.279933,0.904159,0.847412,-0.331299,0.058594,-0.079204,0.010770,0.004319,0.999988,-0.001360,-0.001400,0.004521,0.740135,-0.013866,0.666431,0.088756
60248,NaN,-7.792930,1.176223,0.525874,-0.414786,0.311741,-1.931054,-0.218831,-0.259708,0.880109,0.845459,-0.335449,0.058838,-0.077987,0.011425,0.005145,0.999989,-0.001094,-0.001299,0.004401,0.740658,-0.011412,0.665339,0.092838
60249,NaN,-7.537260,1.276725,0.465187,-0.476975,0.364160,-2.177491,-0.165132,-0.231272,0.857054,0.843506,-0.341797,0.054688,-0.075432,0.012448,0.004554,0.999990,-0.000826,-0.001156,0.004285,0.741017,-0.009058,0.664442,0.096581
60250,NaN,-7.312788,1.329431,0.456811,-0.481639,0.375491,-2.391123,-0.129057,-0.199952,0.844876,0.839600,-0.348145,0.052734,-0.073188,0.012988,0.004487,0.999990,-0.000645,-0.001000,0.004224,0.741328,-0.006420,0.663586,0.100227
60251,NaN,-7.102388,1.366363,0.428078,-0.500970,0.374472,-2.594474,-0.114109,-0.157365,0.830969,0.843994,-0.356689,0.046875,-0.071083,0.013371,0.004217,0.999991,-0.000571,-0.000787,0.004155,0.741427,-0.004000,0.662961,0.103697
60252,NaN,-7.117723,1.362399,0.323631,-0.608227,0.290260,-2.589920,-0.128902,-0.103513,0.813001,0.829590,-0.363037,0.048828,-0.071233,0.013337,0.003191,0.999991,-0.000645,-0.000518,0.004065,0.741402,-0.001519,0.662439,0.107219
60253,NaN,-7.218594,1.362760,0.212656,-0.726325,0.199614,-2.502232,-0.159026,-0.044016,0.802060,0.838135,-0.369385,0.041016,-0.072240,0.013340,0.002100,0.999992,-0.000795,-0.000220,0.004010,0.741114,0.000580,0.662185,0.110726
60254,NaN,-7.393541,1.317437,0.083966,-0.858614,0.046063,-2.351621,-0.212766,0.014483,0.788020,0.836182,-0.373535,0.042969,-0.073986,0.012884,0.000831,0.999992,-0.001064,0.000072,0.003940,0.740681,0.002600,0.662035,0.114429
60255,NaN,-7.715820,1.295064,0.136738,-0.825841,-0.082558,-2.031901,-0.297473,0.071349,0.768671,0.834229,-0.375732,0.045166,-0.077207,0.012656,0.001376,0.999991,-0.001487,0.000357,0.003843,0.740007,0.004010,0.662108,0.118268
60256,NaN,-8.226391,1.215458,0.135137,-0.850809,-0.314615,-1.545527,-0.405569,0.128254,0.739223,0.832275,-0.379883,0.043213,-0.082307,0.011853,0.001380,0.999991,-0.002028,0.000641,0.003696,0.739197,0.005084,0.662249,0.122425
60257,NaN,-9.010184,1.127500,0.157433,-0.869015,-0.603253,-0.792709,-0.521790,0.175819,0.692966,0.828369,-0.390625,0.043213,-0.090139,0.010967,0.001625,0.999990,-0.002609,0.000879,0.003465,0.738201,0.005350,0.662549,0.126725
60258,NaN,-9.853742,1.043199,0.189622,-0.877118,-0.907066,0.017267,-0.639008,0.207749,0.652066,0.826172,-0.390625,0.037109,-0.098569,0.010117,0.001966,0.999989,-0.003195,0.001039,0.003260,0.737153,0.005214,0.662820,0.131329
60259,NaN,-10.673504,0.917184,0.150600,-0.935778,-1.260030,0.785608,-0.731356,0.237493,0.617436,0.817871,-0.394775,0.041260,-0.106761,0.008848,0.001600,0.999988,-0.003657,0.001187,0.003087,0.735975,0.004418,0.663185,0.136041
60260,NaN,-11.501949,0.738599,0.107982,-0.979852,-1.674417,1.548995,-0.782527,0.259014,0.580022,0.822266,-0.398926,0.043457,-0.115039,0.007057,0.001201,0.999987,-0.003913,0.001295,0.002900,0.734768,0.003466,0.663526,0.140846
60261,NaN,-12.317487,0.319609,0.039131,-0.987147,-2.319288,2.248416,-0.766530,0.283205,0.511100,0.824463,-0.403320,0.039307,-0.123182,0.002883,0.000554,0.999988,-0.003833,0.001416,0.002555,0.733477,0.002155,0.664004,0.145278
60262,NaN,-12.997615,-0.141134,-0.104333,-1.036443,-2.988515,2.795366,-0.712560,0.284153,0.416756,0.824463,-0.403320,0.037354,-0.129974,-0.001685,-0.000853,0.999990,-0.003563,0.001421,0.002084,0.732264,0.000878,0.664467,0.149238
60263,NaN,-13.444936,-0.536776,-0.253180,-1.079225,-3.533006,3.128387,-0.614048,0.275107,0.301621,0.828857,-0.405518,0.041504,-0.134444,-0.005578,-0.002330,0.999993,-0.003070,0.001376,0.001508,0.731127,-0.000564,0.665004,0.152391
60264,NaN,-13.837749,-0.830433,-0.377158,-1.115406,-3.952254,3.433087,-0.489044,0.265847,0.162368,0.822510,-0.409668,0.039551,-0.138376,-0.008426,-0.003567,0.999996,-0.002445,0.001329,0.000812,0.730139,-0.001885,0.665562,0.154663
60265,NaN,-14.418629,-1.046864,-0.466146,-1.147366,-4.310664,3.946370,-0.332978,0.274583,-0.000013,0.833008,-0.403320,0.039551,-0.144192,-0.010476,-0.004446,0.999998,-0.001665,0.001373,-0.000000,0.729224,-0.003304,0.666299,0.155777
60266,NaN,-15.050648,-1.261556,-0.562233,-1.193080,-4.658598,4.515727,-0.152917,0.272620,-0.179450,0.822266,-0.403320,0.041504,-0.150525,-0.012485,-0.005408,0.999998,-0.000765,0.001363,-0.000897,0.728468,-0.004579,0.667144,0.155667
60267,NaN,-15.681098,-1.360454,-0.560984,-1.177965,-4.845968,5.126891,0.036863,0.247064,-0.346383,0.826660,-0.401123,0.043457,-0.156841,-0.013332,-0.005419,0.999998,0.000184,0.001235,-0.001732,0.727916,-0.005782,0.668058,0.154285
60268,NaN,-16.148499,-1.239192,-0.610106,-1.265198,-4.774243,5.623864,0.229357,0.200131,-0.486154,0.836914,-0.394775,0.047363,-0.161520,-0.011992,-0.005953,0.999996,0.001147,0.001001,-0.002431,0.727632,-0.006673,0.668934,0.151767
60269,NaN,-16.267743,-1.030190,-0.551670,-1.261510,-4.497942,5.813615,0.408078,0.140749,-0.611019,0.834473,-0.386475,0.053467,-0.162712,-0.009794,-0.005423,0.999993,0.002040,0.000704,-0.003055,0.727638,-0.007329,0.669725,0.148182
60270,NaN,-16.126789,-0.781452,-0.491269,-1.261803,-4.111085,5.757506,0.560853,0.089631,-0.731131,0.838867,-0.386475,0.053467,-0.161297,-0.007211,-0.004861,0.999989,0.002804,0.000448,-0.003656,0.727889,-0.007788,0.670435,0.143648
60271,NaN,-15.893818,-0.645389,-0.518399,-1.326511,-3.815408,5.581471,0.698293,0.051580,-0.854667,0.840332,-0.373779,0.057373,-0.158965,-0.005757,-0.005164,0.999985,0.003491,0.000258,-0.004273,0.728350,-0.008139,0.671074,0.138201
60272,NaN,-15.888123,-0.689118,-0.578040,-1.406137,-3.723846,5.594942,0.859181,0.022339,-0.987148,0.850830,-0.369385,0.063477,-0.158913,-0.006082,-0.005790,0.999979,0.004296,0.000112,-0.004936,0.728964,-0.008353,0.671709,0.131715
60273,NaN,-15.980418,-0.858034,-0.769198,-1.606085,-3.774442,5.675140,1.019027,-0.002809,-1.119933,0.850586,-0.356689,0.069336,-0.159849,-0.007646,-0.007735,0.999971,0.005095,-0.000014,-0.005600,0.729737,-0.008389,0.672298,0.124215
60274,NaN,-15.742537,-0.892959,-0.825862,-1.688344,-3.593703,5.469275,1.115491,-0.037316,-1.204501,0.854248,-0.346191,0.071289,-0.157474,-0.007935,-0.008334,0.999966,0.005577,-0.000187,-0.006022,0.730612,-0.008388,0.672807,0.116050
60275,NaN,-14.971585,-0.746970,-0.899324,-1.788923,-3.153549,4.760119,1.165007,-0.074952,-1.257223,0.858398,-0.342041,0.075195,-0.149755,-0.006476,-0.009089,0.999963,0.005825,-0.000375,-0.006286,0.731620,-0.008308,0.673125,0.107546
60276,NaN,-13.884408,-0.640404,-0.742600,-1.627032,-2.679150,3.748665,1.151802,-0.082574,-1.296991,0.866455,-0.324951,0.077148,-0.138878,-0.005460,-0.007517,0.999962,0.005759,-0.000413,-0.006485,0.732584,-0.008484,0.673400,0.098894
60277,NaN,-12.889378,-0.619183,-0.375079,-1.242178,-2.297980,2.829854,1.046515,-0.083425,-1.324842,0.872559,-0.318604,0.079102,-0.128929,-0.005318,-0.003834,0.999964,0.005233,-0.000417,-0.006624,0.733543,-0.009060,0.673526,0.090527
60278,NaN,-11.765161,-0.515087,-0.079658,-0.919635,-1.859662,1.779750,0.863722,-0.098992,-1.301093,0.878174,-0.301758,0.080811,-0.117681,-0.004382,-0.000875,0.999969,0.004319,-0.000495,-0.006505,0.734444,-0.010314,0.673519,0.082809
60279,NaN,-10.470601,-0.385083,0.119823,-0.673787,-1.430537,0.545609,0.716675,-0.130265,-1.235673,0.875732,-0.293213,0.082764,-0.104728,-0.003208,0.001118,0.999974,0.003583,-0.000651,-0.006178,0.735417,-0.011781,0.673251,0.075871
60280,NaN,-8.971332,-0.468122,0.417680,-0.276937,-1.221610,-0.907154,0.620738,-0.169300,-1.138173,0.882080,-0.286865,0.082520,-0.089742,-0.004183,0.004087,0.999979,0.003104,-0.000846,-0.005691,0.736398,-0.013361,0.672830,0.069561
60281,NaN,-7.586189,-0.705290,0.595499,0.016000,-1.236105,-2.271228,0.529792,-0.189253,-1.020998,0.890137,-0.276367,0.086670,-0.075902,-0.006681,0.005865,0.999983,0.002649,-0.000946,-0.005105,0.737417,-0.014771,0.672232,0.064039
60282,NaN,-6.622077,-1.012651,0.602884,0.118541,-1.403639,-3.235738,0.490808,-0.175472,-0.920737,0.887939,-0.271973,0.078369,-0.066272,-0.009836,0.005946,0.999986,0.002454,-0.000877,-0.004604,0.738287,-0.016103,0.671712,0.058960
60283,NaN,-6.345727,-1.357134,0.644292,0.199594,-1.671636,-3.512630,0.447801,-0.132591,-0.848386,0.887451,-0.261475,0.082275,-0.063518,-0.013316,0.006371,0.999988,0.002239,-0.000663,-0.004242,0.739014,-0.017252,0.671273,0.054342
60284,NaN,-6.675997,-1.607513,0.387365,-0.078011,-1.913932,-3.207112,0.396699,-0.073479,-0.798394,0.893799,-0.261475,0.084229,-0.066825,-0.015816,0.003818,0.999990,0.001983,-0.000367,-0.003992,0.739465,-0.018560,0.671078,0.050015
60285,NaN,-7.373308,-1.617479,0.135202,-0.408037,-1.930873,-2.525359,0.420396,0.000118,-0.742154,0.893555,-0.250732,0.083984,-0.073792,-0.015904,0.001318,0.999991,0.002102,0.000001,-0.003711,0.739687,-0.019488,0.671103,0.045868
60286,NaN,-8.059601,-1.526040,0.036990,-0.589151,-1.822826,-1.836642,0.495484,0.055292,-0.661158,0.891357,-0.248779,0.090088,-0.080646,-0.014995,0.000355,0.999991,0.002477,0.000276,-0.003306,0.739654,-0.020013,0.671396,0.041697
60287,NaN,-8.438663,-1.148036,0.080298,-0.621983,-1.406079,-1.435853,0.553136,0.090042,-0.575858,0.893066,-0.242432,0.090088,-0.084419,-0.011240,0.000810,0.999992,0.002766,0.000450,-0.002879,0.739526,-0.019911,0.671776,0.037709
60288,NaN,-8.458088,-0.653468,0.261649,-0.484237,-0.852412,-1.382177,0.551418,0.113085,-0.501425,0.899414,-0.240234,0.098145,-0.084595,-0.006330,0.002647,0.999993,0.002757,0.000565,-0.002507,0.739248,-0.019713,0.672289,0.033928
60289,NaN,-8.270764,-0.094543,0.597885,-0.170417,-0.227966,-1.524694,0.478890,0.139421,-0.443087,0.901367,-0.236084,0.098145,-0.082705,-0.000777,0.006035,0.999994,0.002394,0.000697,-0.002215,0.738902,-0.019448,0.672833,0.030675
60290,NaN,-8.089898,0.335075,0.899644,0.127077,0.259940,-1.671172,0.383511,0.169569,-0.405923,0.905762,-0.236084,0.098145,-0.080884,0.003498,0.009072,0.999996,0.001918,0.000848,-0.002030,0.738385,-0.019559,0.673522,0.027803
60291,NaN,-7.977909,0.619409,1.079328,0.311252,0.586445,-1.765653,0.292027,0.200301,-0.382085,0.905273,-0.225342,0.102051,-0.079756,0.006331,0.010882,0.999997,0.001460,0.001002,-0.001910,0.737794,-0.019788,0.674258,0.025397
60292,NaN,-7.829145,0.620879,1.296162,0.557833,0.634542,-1.897695,0.211518,0.228270,-0.397212,0.903320,-0.229736,0.108398,-0.078264,0.006350,0.013058,0.999997,0.001058,0.001141,-0.001986,0.737052,-0.020505,0.675128,0.023133
60293,NaN,-7.672660,0.485105,1.592798,0.892223,0.549239,-2.031672,0.093543,0.238723,-0.431595,0.901123,-0.223389,0.104004,-0.076697,0.005009,0.016022,0.999997,0.000468,0.001194,-0.002158,0.736308,-0.021638,0.675967,0.021210
60294,NaN,-7.648018,0.481787,1.712156,1.030681,0.590423,-2.050939,-0.033667,0.237625,-0.468690,0.900879,-0.218994,0.110107,-0.076448,0.005000,0.017212,0.999997,-0.000168,0.001188,-0.002343,0.735512,-0.023494,0.676823,0.019512
60295,NaN,-7.847066,0.546989,1.851805,1.164647,0.705125,-1.847072,-0.159168,0.229676,-0.509285,0.903076,-0.218994,0.112305,-0.078435,0.005684,0.018604,0.999996,-0.000796,0.001148,-0.002546,0.734767,-0.025818,0.677585,0.018158
60296,NaN,-7.874583,0.743475,1.929337,1.241337,0.954125,-1.823152,-0.279679,0.205080,-0.527416,0.909180,-0.210693,0.114258,-0.078706,0.007669,0.019363,0.999995,-0.001398,0.001025,-0.002637,0.734050,-0.028767,0.678271,0.017084
60297,NaN,-7.730389,0.898720,2.034357,1.356694,1.162043,-1.969598,-0.383263,0.172884,-0.527585,0.906738,-0.202148,0.114014,-0.077262,0.009230,0.020393,0.999994,-0.001916,0.000864,-0.002638,0.733454,-0.031970,0.678788,0.016430
60298,NaN,-7.417181,1.068574,2.122969,1.463136,1.382018,-2.288561,-0.473895,0.141727,-0.515069,0.904541,-0.204102,0.112061,-0.074129,0.010927,0.021257,0.999994,-0.002369,0.000709,-0.002575,0.732911,-0.035574,0.679204,0.016075
60299,NaN,-7.079727,1.216545,2.294231,1.649463,1.581928,-2.626410,-0.558358,0.121999,-0.502254,0.910645,-0.197998,0.115967,-0.070752,0.012407,0.022951,0.999993,-0.002792,0.000610,-0.002511,0.732437,-0.039329,0.679507,0.016115
60300,NaN,-6.863918,1.189637,2.487703,1.858310,1.614510,-2.837223,-0.633374,0.113460,-0.502380,0.906494,-0.197754,0.114014,-0.068595,0.012147,0.024878,0.999992,-0.003167,0.000567,-0.002512,0.731945,-0.043458,0.679779,0.016360
60301,NaN,-6.750616,1.161998,2.532116,1.908878,1.636952,-2.956375,-0.702507,0.095918,-0.498547,0.908447,-0.193604,0.113770,-0.067465,0.011877,0.025312,0.999991,-0.003513,0.000480,-0.002493,0.731505,-0.047724,0.679954,0.016909
60302,NaN,-6.769385,1.095962,2.517649,1.892988,1.622788,-2.946306,-0.723129,0.084526,-0.495778,0.910400,-0.189453,0.113770,-0.067656,0.011218,0.025165,0.999990,-0.003616,0.000423,-0.002479,0.731074,-0.052143,0.680078,0.017495
60303,NaN,-6.840147,0.909741,2.498034,1.879636,1.489677,-2.877054,-0.715828,0.067596,-0.493119,0.914551,-0.183105,0.113770,-0.068370,0.009355,0.024970,0.999990,-0.003579,0.000338,-0.002466,0.730698,-0.056435,0.680123,0.018116
60304,NaN,-6.962324,0.752341,2.379707,1.762739,1.378027,-2.763109,-0.683474,0.053720,-0.486673,0.916504,-0.178711,0.109619,-0.069598,0.007774,0.023789,0.999991,-0.003417,0.000269,-0.002433,0.730364,-0.060661,0.680105,0.018614
60305,NaN,-7.119267,0.536319,2.299227,1.688812,1.211579,-2.605896,-0.626648,0.037373,-0.475192,0.914307,-0.178711,0.109619,-0.071175,0.005604,0.022988,0.999992,-0.003133,0.000187,-0.002376,0.730090,-0.064563,0.680029,0.019005
60306,NaN,-7.301812,0.474497,2.247473,1.624607,1.202991,-2.429868,-0.576012,0.024817,-0.467733,0.913818,-0.166016,0.107178,-0.073004,0.004980,0.022470,0.999993,-0.002880,0.000124,-0.002339,0.729872,-0.068318,0.679890,0.019221
60307,NaN,-7.601579,0.410473,2.235608,1.591807,1.203447,-2.133617,-0.535074,0.018719,-0.453479,0.914062,-0.170166,0.103271,-0.076004,0.004337,0.022352,0.999994,-0.002675,0.000094,-0.002267,0.729669,-0.071807,0.679744,0.019385
60308,NaN,-8.014225,0.410804,2.237826,1.556626,1.279417,-1.729108,-0.498743,0.035118,-0.442761,0.922363,-0.166016,0.107422,-0.080129,0.004341,0.022382,0.999994,-0.002494,0.000176,-0.002214,0.729430,-0.075186,0.679633,0.019430
60309,NaN,-8.520713,0.381158,2.213439,1.494333,1.329677,-1.230968,-0.454113,0.060080,-0.416257,0.922119,-0.159668,0.113281,-0.085192,0.004039,0.022151,0.999995,-0.002271,0.000300,-0.002081,0.729097,-0.078257,0.679644,0.019439
60310,NaN,-9.053350,0.278404,2.295430,1.547148,1.326890,-0.693741,-0.412924,0.084067,-0.383985,0.922119,-0.157471,0.109131,-0.090518,0.003005,0.022986,0.999996,-0.002065,0.000420,-0.001920,0.728713,-0.081117,0.679722,0.019392
60311,NaN,-9.697407,0.258636,2.475306,1.680612,1.430387,-0.047285,-0.393615,0.100685,-0.352852,0.917969,-0.159668,0.105225,-0.096957,0.002806,0.024796,0.999996,-0.001968,0.000503,-0.001764,0.728247,-0.083754,0.679900,0.019410
60312,NaN,-10.362560,0.280145,2.628616,1.781320,1.576791,0.613780,-0.380200,0.110872,-0.336282,0.917725,-0.151123,0.113037,-0.103606,0.003026,0.026338,0.999997,-0.001901,0.000554,-0.001681,0.727779,-0.086325,0.680080,0.019419
60313,NaN,-11.085347,0.400022,2.869369,1.951756,1.841046,1.326398,-0.362695,0.109023,-0.311025,0.921875,-0.151123,0.109131,-0.110831,0.004225,0.028747,0.999997,-0.001813,0.000545,-0.001555,0.727284,-0.088707,0.680301,0.019480
60314,NaN,-11.857177,0.564176,3.066076,2.065916,2.150187,2.079338,-0.351654,0.091631,-0.289923,0.921631,-0.146973,0.113037,-0.118549,0.005868,0.030705,0.999997,-0.001758,0.000458,-0.001450,0.726890,-0.091002,0.680416,0.019575
60315,NaN,-12.663845,0.784342,3.203827,2.109814,2.509827,2.856249,-0.330921,0.069099,-0.265060,0.921631,-0.144775,0.111084,-0.126617,0.008064,0.032069,0.999998,-0.001655,0.000345,-0.001325,0.726533,-0.093108,0.680509,0.019713
60316,NaN,-13.499048,0.914091,3.226516,2.046627,2.766179,3.664319,-0.296617,0.042275,-0.251165,0.921387,-0.140625,0.113037,-0.134972,0.009358,0.032280,0.999998,-0.001483,0.000211,-0.001256,0.726333,-0.095051,0.680451,0.019792
60317,NaN,-14.395634,1.039542,3.018646,1.751574,2.985782,4.520634,-0.240201,0.019182,-0.227096,0.923584,-0.140625,0.110840,-0.143941,0.010595,0.030188,0.999999,-0.001201,0.000096,-0.001135,0.726180,-0.096692,0.680383,0.019782
60318,NaN,-15.157035,0.977065,2.581432,1.266329,2.965798,5.252322,-0.126410,0.004402,-0.214566,0.925537,-0.136230,0.106689,-0.151559,0.009950,0.025811,0.999999,-0.000632,0.000022,-0.001073,0.726194,-0.097871,0.680210,0.019443
60319,NaN,-15.557419,0.838117,2.176984,0.854196,2.835149,5.637464,0.017504,-0.017677,-0.197944,0.921387,-0.134277,0.112793,-0.155568,0.008533,0.021757,1.000000,0.000088,-0.000088,-0.000990,0.726287,-0.098473,0.680045,0.018680
60320,NaN,-15.403751,0.797492,1.833946,0.523458,2.746045,5.466713,0.159773,-0.038035,-0.179328,0.929932,-0.136475,0.113037,-0.154034,0.008098,0.018317,0.999999,0.000799,-0.000190,-0.000897,0.726587,-0.098470,0.679756,0.017528
60321,NaN,-14.769889,0.827374,1.613224,0.341571,2.691101,4.818715,0.300137,-0.037922,-0.174215,0.929688,-0.134277,0.106689,-0.147695,0.008378,0.016117,0.999998,0.001501,-0.000190,-0.000871,0.726882,-0.097963,0.679553,0.015900
60322,NaN,-13.804530,0.918452,1.702291,0.482626,2.705490,3.853101,0.411471,-0.003593,-0.174649,0.923584,-0.136230,0.108887,-0.138038,0.009270,0.017039,0.999998,0.002057,-0.000018,-0.000873,0.727187,-0.097014,0.679407,0.013903
60323,NaN,-12.810022,1.026947,2.030797,0.870449,2.768882,2.870018,0.473652,0.045917,-0.177088,0.927490,-0.132080,0.116943,-0.128086,0.010335,0.020362,0.999997,0.002368,0.000230,-0.000885,0.727276,-0.095891,0.679514,0.011634
60324,NaN,-12.039579,1.085914,2.522396,1.415180,2.825902,2.124844,0.486985,0.098834,-0.170343,0.927490,-0.129883,0.114990,-0.120374,0.010900,0.025310,0.999997,0.002435,0.000494,-0.000852,0.727263,-0.094642,0.679738,0.009357
60325,NaN,-11.384146,1.256058,3.197448,2.123964,3.024677,1.489534,0.488636,0.106273,-0.131294,0.933838,-0.127930,0.118896,-0.113816,0.012557,0.032066,0.999997,0.002443,0.000531,-0.000656,0.727143,-0.093310,0.680077,0.007176
60326,NaN,-10.683280,1.494797,3.734856,2.688811,3.249163,0.795293,0.469325,0.061693,-0.052314,0.929688,-0.132080,0.116943,-0.106817,0.014888,0.037416,0.999997,0.002347,0.000308,-0.000262,0.727243,-0.091704,0.680204,0.005416
60327,NaN,-9.840684,1.740877,4.068039,3.060617,3.422700,-0.048654,0.433628,-0.009635,0.070467,0.931885,-0.132080,0.110840,-0.098415,0.017286,0.040713,0.999998,0.002168,-0.000048,0.000352,0.727477,-0.089881,0.680207,0.004209
60328,NaN,-8.901146,1.965602,4.002163,3.040813,3.495441,-1.000959,0.365745,-0.084536,0.219334,0.929688,-0.130127,0.116943,-0.089050,0.019485,0.040020,0.999998,0.001829,-0.000423,0.001097,0.728029,-0.087705,0.679902,0.003869
60329,NaN,-8.056567,1.985029,3.513966,2.619965,3.317981,-1.855099,0.279172,-0.136811,0.368875,0.933838,-0.132080,0.119141,-0.080626,0.019653,0.035112,0.999997,0.001396,-0.000684,0.001844,0.728613,-0.085426,0.679564,0.004330
60330,NaN,-7.295536,1.800876,2.410535,1.604398,2.867326,-2.637532,0.236452,-0.153780,0.496812,0.927979,-0.142822,0.113037,-0.073018,0.017799,0.024070,0.999996,0.001182,-0.000769,0.002484,0.729342,-0.082758,0.679103,0.005483
60331,NaN,-6.640532,1.279302,1.120531,0.441089,2.078510,-3.295482,0.305585,-0.084916,0.571750,0.936523,-0.149170,0.119385,-0.066446,0.012586,0.011196,0.999995,0.001528,-0.000425,0.002859,0.729743,-0.079693,0.679029,0.006573
60332,NaN,-6.391910,0.727352,0.431787,-0.154823,1.380762,-3.516547,0.362753,-0.037694,0.612940,0.934814,-0.159668,0.113281,-0.063942,0.007070,0.004319,0.999994,0.001814,-0.000188,0.003065,0.730115,-0.076159,0.679024,0.007684
60333,NaN,-6.520197,0.530185,-0.133059,-0.696368,1.088865,-3.398556,0.377535,-0.005025,0.640208,0.934814,-0.161865,0.117432,-0.065218,0.005096,-0.001322,0.999993,0.001888,-0.000025,0.003201,0.730252,-0.072600,0.679253,0.008748
60334,NaN,-6.856522,0.584834,-0.544577,-1.130640,1.080084,-3.089191,0.422425,0.032156,0.659025,0.935303,-0.170410,0.119629,-0.068585,0.005634,-0.005423,0.999992,0.002112,0.000161,0.003295,0.730381,-0.068687,0.679507,0.009805
60335,NaN,-7.443235,0.776468,-0.673109,-1.312443,1.257697,-2.522062,0.455362,0.069792,0.683960,0.939697,-0.174561,0.119873,-0.074461,0.007525,-0.006688,0.999991,0.002277,0.000349,0.003420,0.730267,-0.064697,0.680007,0.010739
60336,NaN,-8.122766,0.954853,-0.655947,-1.352370,1.433189,-1.847882,0.436407,0.086999,0.716691,0.933594,-0.185303,0.115967,-0.081264,0.009272,-0.006504,0.999991,0.002182,0.000435,0.003583,0.730178,-0.060533,0.680466,0.011945
60337,NaN,-8.866997,1.145648,-0.525931,-1.280509,1.625240,-1.098834,0.381846,0.082092,0.780015,0.931641,-0.189453,0.124023,-0.088716,0.011121,-0.005201,0.999990,0.001909,0.000410,0.003900,0.729967,-0.056482,0.681011,0.013477
60338,NaN,-9.525786,1.167286,-0.499447,-1.289379,1.611773,-0.426968,0.327879,0.058403,0.866865,0.936279,-0.202148,0.126465,-0.095309,0.011268,-0.004948,0.999989,0.001639,0.000292,0.004334,0.729897,-0.052193,0.681383,0.015615
60339,NaN,-10.021028,1.110162,-0.524232,-1.329383,1.490143,0.083763,0.295654,0.015319,0.961592,0.936768,-0.212891,0.122559,-0.100263,0.010627,-0.005219,0.999987,0.001478,0.000077,0.004808,0.729844,-0.047831,0.681697,0.018121
60340,NaN,-10.306782,0.869626,-0.505574,-1.301474,1.160590,0.395147,0.279945,-0.045224,1.039042,0.935059,-0.225586,0.124756,-0.103110,0.008168,-0.005067,0.999985,0.001400,-0.000226,0.005195,0.730054,-0.043112,0.681702,0.021083
60341,NaN,-10.161160,0.594753,-0.511468,-1.269380,0.774483,0.269591,0.266483,-0.107797,1.095656,0.935303,-0.234131,0.122803,-0.101639,0.005398,-0.005162,0.999984,0.001332,-0.000539,0.005478,0.730359,-0.038385,0.681555,0.024206
60342,NaN,-9.805637,0.470704,-0.423708,-1.151463,0.538777,-0.069257,0.227681,-0.162479,1.123856,0.935547,-0.244629,0.125000,-0.098077,0.004161,-0.004312,0.999983,0.001138,-0.000812,0.005619,0.730892,-0.033549,0.681106,0.027682
60343,NaN,-9.439662,0.507300,-0.375639,-1.088569,0.468663,-0.426523,0.166150,-0.199718,1.129096,0.929688,-0.255371,0.121094,-0.094419,0.004543,-0.003847,0.999983,0.000831,-0.000999,0.005645,0.731439,-0.029061,0.680569,0.031284
60344,NaN,-9.109146,0.688470,-0.249851,-0.967360,0.553624,-0.742418,0.080783,-0.218805,1.110975,0.930176,-0.268066,0.115234,-0.091125,0.006380,-0.002596,0.999984,0.000404,-0.001094,0.005555,0.732086,-0.024796,0.679849,0.035223
60345,NaN,-9.047548,0.927049,0.015647,-0.732027,0.713697,-0.775447,-0.030148,-0.234799,1.079638,0.928467,-0.282959,0.115479,-0.090524,0.008782,0.000049,0.999985,-0.000151,-0.001174,0.005398,0.732686,-0.021186,0.679100,0.039314
60346,NaN,-9.106702,1.088554,0.143435,-0.639750,0.781663,-0.695865,-0.125388,-0.237800,1.049697,0.928467,-0.287109,0.113525,-0.091124,0.010408,0.001319,0.999985,-0.000627,-0.001189,0.005248,0.733333,-0.017879,0.678226,0.043731
60347,NaN,-9.337625,1.134198,0.243627,-0.579018,0.727640,-0.449386,-0.176696,-0.261740,1.047916,0.920654,-0.302002,0.109619,-0.093437,0.010855,0.002304,0.999985,-0.000883,-0.001309,0.005240,0.733972,-0.014907,0.677303,0.048204
60348,NaN,-9.257346,1.086034,0.230951,-0.601634,0.578942,-0.526501,-0.150927,-0.282003,1.057969,0.925293,-0.314697,0.105713,-0.092632,0.010372,0.002171,0.999985,-0.000755,-0.001410,0.005290,0.734714,-0.011653,0.676223,0.052741
60349,NaN,-9.002535,0.863085,0.227325,-0.583986,0.271980,-0.789033,-0.074243,-0.309962,1.092272,0.925781,-0.329590,0.099854,-0.090074,0.008140,0.002131,0.999984,-0.000371,-0.001550,0.005461,0.735465,-0.008142,0.675109,0.057030
60350,NaN,-8.524519,0.672324,0.162514,-0.611412,0.008817,-1.282088,0.025823,-0.314136,1.119788,0.921875,-0.340088,0.095947,-0.085283,0.006246,0.001492,0.999983,0.000129,-0.001571,0.005599,0.736254,-0.004021,0.673920,0.061196
60351,NaN,-7.997211,0.486886,0.112412,-0.615486,-0.230580,-1.826928,0.144410,-0.296584,1.136544,0.920166,-0.350830,0.094238,-0.080000,0.004414,0.001009,0.999982,0.000722,-0.001483,0.005683,0.736903,0.000441,0.672875,0.064907
60352,NaN,-7.587264,0.237303,0.041749,-0.640239,-0.537897,-2.267839,0.272522,-0.249630,1.137021,0.918213,-0.359131,0.088135,-0.075885,0.001941,0.000326,0.999982,0.001363,-0.001248,0.005685,0.737414,0.005504,0.671956,0.068300
60353,NaN,-7.214624,0.055603,0.003445,-0.636932,-0.765538,-2.666947,0.395392,-0.191323,1.125385,0.916504,-0.369873,0.086182,-0.072148,0.000150,-0.000034,0.999982,0.001977,-0.000957,0.005627,0.737655,0.010818,0.671334,0.071124
60354,NaN,-6.973076,0.023352,-0.021836,-0.642895,-0.853557,-2.921940,0.484519,-0.133951,1.136740,0.916992,-0.382568,0.088623,-0.069730,-0.000162,-0.000265,0.999981,0.002423,-0.000670,0.005684,0.737709,0.016615,0.670868,0.073800
60355,NaN,-6.832766,0.014246,-0.027093,-0.634534,-0.922713,-3.072280,0.552531,-0.052117,1.137429,0.908936,-0.397461,0.092773,-0.068327,-0.000245,-0.000289,0.999980,0.002763,-0.000261,0.005687,0.737410,0.022498,0.670762,0.076146
60356,NaN,-6.851299,0.065764,0.047689,-0.561183,-0.948009,-3.050087,0.583311,0.035421,1.114477,0.911377,-0.407959,0.091064,-0.068515,0.000274,0.000490,0.999980,0.002917,0.000177,0.005572,0.736830,0.028512,0.670910,0.078415
60357,NaN,-7.077755,0.225299,0.137877,-0.491943,-0.896464,-2.804249,0.568027,0.115440,1.100839,0.899170,-0.416504,0.091064,-0.070788,0.001859,0.001425,0.999981,0.002840,0.000577,0.005504,0.735923,0.034262,0.671378,0.080590
60358,NaN,-7.599731,0.380464,0.226142,-0.442163,-0.906157,-2.267187,0.522449,0.203634,1.069199,0.901367,-0.422852,0.097412,-0.076014,0.003392,0.002348,0.999982,0.002612,0.001018,0.005346,0.734744,0.039823,0.672080,0.082913
60359,NaN,-8.268126,0.333791,0.414272,-0.281167,-1.141358,-1.611314,0.458717,0.277211,1.008319,0.899902,-0.437744,0.103760,-0.082691,0.002911,0.004264,0.999984,0.002294,0.001386,0.005042,0.733298,0.044792,0.673067,0.085139
60360,NaN,-8.964809,0.257327,0.496308,-0.218759,-1.427393,-0.947342,0.356267,0.320892,0.941846,0.895752,-0.439941,0.105713,-0.089651,0.002142,0.005111,0.999986,0.001781,0.001604,0.004709,0.731762,0.049254,0.674114,0.087570
60361,NaN,-9.707457,0.288577,0.494272,-0.242001,-1.625003,-0.228201,0.247792,0.347860,0.880187,0.891846,-0.452637,0.099854,-0.097077,0.002452,0.005115,0.999988,0.001239,0.001739,0.004401,0.730142,0.052986,0.675260,0.090049
60362,NaN,-10.621684,0.268304,0.418364,-0.341019,-1.919898,0.640261,0.153318,0.374113,0.803273,0.890137,-0.465332,0.110352,-0.106218,0.002253,0.004384,0.999990,0.000767,0.001871,0.004016,0.728502,0.056202,0.676417,0.092660
60363,NaN,-11.656538,0.283511,0.266564,-0.514851,-2.211162,1.627209,0.078163,0.405997,0.711136,0.892334,-0.467529,0.110352,-0.116569,0.002420,0.002903,0.999992,0.000391,0.002030,0.003556,0.726779,0.058715,0.677716,0.095109
60364,NaN,-12.628743,0.134247,-0.013850,-0.793646,-2.660306,2.507845,0.029069,0.420079,0.613799,0.886230,-0.473877,0.112549,-0.126291,0.000955,0.000127,0.999993,0.000145,0.002100,0.003069,0.725081,0.060801,0.679017,0.097453
60365,NaN,-13.327034,-0.022797,-0.357470,-1.108770,-3.054094,3.117147,0.032474,0.433996,0.516268,0.886230,-0.476074,0.120605,-0.133277,-0.000571,-0.003286,0.999994,0.000162,0.002170,0.002581,0.723349,0.062471,0.680435,0.099355
60366,NaN,-13.836523,-0.352139,-0.640453,-1.338320,-3.565220,3.509516,0.088687,0.434170,0.413010,0.886719,-0.486572,0.122803,-0.138371,-0.003804,-0.006106,0.999995,0.000443,0.002171,0.002065,0.721663,0.064065,0.681869,0.100758
60367,NaN,-14.203471,-0.553043,-0.897494,-1.538391,-3.902300,3.798151,0.160334,0.439315,0.290097,0.888672,-0.486572,0.125000,-0.142046,-0.005729,-0.008667,0.999996,0.000802,0.002197,0.001450,0.719972,0.065423,0.683430,0.101408
60368,NaN,-14.354328,-0.714328,-0.943495,-1.519338,-4.125175,3.903047,0.223228,0.451902,0.145853,0.888916,-0.488770,0.129150,-0.143559,-0.007238,-0.009119,0.999997,0.001116,0.002260,0.000729,0.718301,0.066560,0.685082,0.101376
60369,NaN,-14.432594,-0.756229,-0.823623,-1.337036,-4.185346,3.980241,0.249223,0.459062,-0.007076,0.884521,-0.484375,0.131104,-0.144345,-0.007547,-0.007914,0.999997,0.001246,0.002295,-0.000035,0.716654,0.067210,0.686847,0.100659
60370,NaN,-14.504056,-0.701889,-0.502045,-0.957560,-4.122374,4.086989,0.210731,0.473484,-0.161333,0.884521,-0.486572,0.133057,-0.145058,-0.006897,-0.004684,0.999996,0.001054,0.002367,-0.000807,0.715052,0.067215,0.688674,0.099554
60371,NaN,-14.415984,-0.406481,-0.071479,-0.474500,-3.763527,4.101375,0.102423,0.471275,-0.285183,0.892822,-0.482422,0.143311,-0.144167,-0.003859,-0.000377,0.999996,0.000512,0.002356,-0.001426,0.713542,0.066377,0.690492,0.098350
60372,NaN,-14.141472,-0.084885,0.350453,0.000129,-3.320663,3.938090,-0.031109,0.438385,-0.399435,0.895020,-0.480225,0.139160,-0.141408,-0.000566,0.003815,0.999996,-0.000156,0.002192,-0.001997,0.712247,0.064694,0.692150,0.097198
60373,NaN,-13.837238,0.262444,0.756309,0.449649,-2.830395,3.748140,-0.175557,0.390911,-0.520254,0.890625,-0.480225,0.147461,-0.138350,0.002991,0.007831,0.999994,-0.000878,0.001955,-0.002601,0.711207,0.062090,0.693611,0.096088
60374,NaN,-13.692004,0.384598,0.834062,0.567798,-2.593458,3.650793,-0.310248,0.328355,-0.632854,0.898926,-0.471924,0.147217,-0.136893,0.004292,0.008559,0.999992,-0.001551,0.001642,-0.003164,0.710481,0.058640,0.694801,0.095022
60375,NaN,-13.837389,0.255033,0.752362,0.524442,-2.657430,3.780194,-0.424200,0.258966,-0.745596,0.898682,-0.465576,0.143066,-0.138353,0.003082,0.007697,0.999990,-0.002121,0.001295,-0.003728,0.710061,0.054432,0.695721,0.093931
60376,NaN,-13.957450,0.023819,0.434988,0.241571,-2.813625,3.862989,-0.535952,0.176582,-0.825789,0.906982,-0.463379,0.143066,-0.139568,0.000826,0.004471,0.999987,-0.002680,0.000883,-0.004129,0.709992,0.049566,0.696292,0.092906
60377,NaN,-13.581960,-0.384763,0.077143,-0.074150,-3.042222,3.429737,-0.560390,0.078160,-0.880431,0.906738,-0.454834,0.145020,-0.135834,-0.003247,0.000834,0.999986,-0.002802,0.000391,-0.004402,0.710266,0.044487,0.696508,0.091760
60378,NaN,-12.923689,-0.818293,-0.216459,-0.329966,-3.241719,2.722040,-0.527099,-0.008981,-0.933888,0.910645,-0.446289,0.136719,-0.129273,-0.007585,-0.002150,0.999986,-0.002635,-0.000045,-0.004669,0.710854,0.039346,0.696414,0.090257
60379,NaN,-12.480209,-1.068885,-0.457761,-0.556280,-3.309108,2.264021,-0.479391,-0.083554,-0.956198,0.919189,-0.444336,0.138672,-0.124849,-0.010103,-0.004605,0.999986,-0.002397,-0.000418,-0.004781,0.711669,0.034362,0.696068,0.088520
60380,NaN,-12.086941,-1.189999,-0.775776,-0.876715,-3.271515,1.876605,-0.394103,-0.146886,-0.962466,0.918701,-0.435791,0.132324,-0.120919,-0.011334,-0.007824,0.999986,-0.001971,-0.000734,-0.004812,0.712683,0.029638,0.695513,0.086408
60381,NaN,-11.445545,-1.307810,-0.915350,-1.020665,-3.188807,1.247943,-0.257596,-0.203073,-0.938723,0.922852,-0.431641,0.130371,-0.114506,-0.012553,-0.009253,0.999988,-0.001288,-0.001015,-0.004694,0.713832,0.025555,0.694798,0.083938
60382,NaN,-10.703027,-1.506612,-0.983589,-1.089044,-3.178301,0.507375,-0.096303,-0.264486,-0.896519,0.926758,-0.423096,0.134277,-0.107083,-0.014591,-0.009970,0.999989,-0.000482,-0.001322,-0.004483,0.715147,0.022156,0.693912,0.080991
60383,NaN,-9.985063,-1.681467,-1.069877,-1.180445,-3.167627,-0.208239,0.098095,-0.303210,-0.847736,0.928711,-0.412354,0.127930,-0.099904,-0.016386,-0.010858,0.999990,0.000490,-0.001516,-0.004239,0.716532,0.019700,0.692945,0.077595
60384,NaN,-9.394668,-1.832164,-1.028547,-1.151377,-3.153308,-0.790222,0.291119,-0.323194,-0.795621,0.930420,-0.404053,0.121582,-0.094002,-0.017933,-0.010464,0.999990,0.001456,-0.001616,-0.003978,0.717934,0.018046,0.691969,0.073643
60385,NaN,-8.971662,-1.868860,-0.864958,-1.015238,-3.053653,-1.188565,0.461789,-0.325539,-0.728724,0.938721,-0.401855,0.117676,-0.089770,-0.018341,-0.008838,0.999989,0.002309,-0.001628,-0.003644,0.719288,0.017314,0.691019,0.069409
60386,NaN,-8.647367,-1.716210,-0.694109,-0.888657,-2.787769,-1.467490,0.621667,-0.324645,-0.659065,0.940918,-0.397705,0.117432,-0.086518,-0.016855,-0.007134,0.999988,0.003108,-0.001623,-0.003295,0.720581,0.017306,0.690120,0.064788
60387,NaN,-8.501644,-1.414821,-0.466451,-0.719721,-2.403216,-1.554151,0.773733,-0.316629,-0.607937,0.942627,-0.389160,0.121582,-0.085051,-0.013871,-0.004853,0.999987,0.003869,-0.001583,-0.003040,0.721802,0.018110,0.689263,0.059909
60388,NaN,-8.374390,-0.961569,-0.240412,-0.556474,-1.875293,-1.609875,0.932673,-0.308571,-0.563649,0.942627,-0.389160,0.125488,-0.083767,-0.009368,-0.002577,0.999984,0.004663,-0.001543,-0.002818,0.722941,0.019535,0.688476,0.054547
60389,NaN,-8.444763,-0.357907,0.191276,-0.194944,-1.219115,-1.448822,1.029167,-0.297431,-0.532265,0.944580,-0.385010,0.129639,-0.084459,-0.003364,0.001769,0.999982,0.005146,-0.001487,-0.002661,0.724005,0.021514,0.687711,0.049060
60390,NaN,-8.701408,0.330355,0.574283,0.118974,-0.505214,-1.101552,1.043602,-0.293978,-0.505361,0.948730,-0.378662,0.123291,-0.087014,0.003494,0.005633,0.999982,0.005218,-0.001470,-0.002527,0.725016,0.023529,0.686952,0.043518
60391,NaN,-9.070276,0.962294,0.895579,0.379852,0.132242,-0.656483,0.980696,-0.296320,-0.481128,0.944336,-0.376465,0.125244,-0.090693,0.009797,0.008869,0.999984,0.004903,-0.001482,-0.002406,0.726020,0.025506,0.686127,0.038380
60392,NaN,-9.341849,1.384256,1.093572,0.535998,0.567060,-0.337813,0.883585,-0.311162,-0.455572,0.948242,-0.370117,0.121094,-0.093404,0.014007,0.010852,0.999986,0.004418,-0.001556,-0.002278,0.727056,0.027114,0.685221,0.033564
60393,NaN,-9.407578,1.436762,1.316384,0.735665,0.646209,-0.255450,0.770910,-0.317870,-0.423878,0.948242,-0.365723,0.129395,-0.094066,0.014516,0.013070,0.999989,0.003855,-0.001589,-0.002119,0.728113,0.028527,0.684235,0.029347
60394,NaN,-9.406328,1.316174,1.343377,0.742748,0.558073,-0.265293,0.647496,-0.322227,-0.404166,0.947998,-0.359375,0.123047,-0.094058,0.013309,0.013325,0.999991,0.003237,-0.001611,-0.002021,0.729183,0.029457,0.683208,0.025528
60395,NaN,-9.338221,1.151913,1.283010,0.664427,0.429014,-0.349614,0.556956,-0.305585,-0.384670,0.954346,-0.357422,0.127197,-0.093379,0.011663,0.012720,0.999993,0.002785,-0.001528,-0.001923,0.730197,0.030222,0.682207,0.022186
60396,NaN,-9.133522,1.124098,1.215714,0.589174,0.447800,-0.559848,0.488478,-0.299268,-0.363460,0.951904,-0.353027,0.125000,-0.091333,0.011377,0.012048,0.999994,0.002442,-0.001496,-0.001817,0.731190,0.030710,0.681215,0.019064
60397,NaN,-8.956680,1.077548,1.149991,0.514978,0.441600,-0.743762,0.436462,-0.273018,-0.344236,0.954346,-0.357422,0.125000,-0.089564,0.010905,0.011401,0.999995,0.002182,-0.001365,-0.001721,0.732091,0.031168,0.680298,0.016286
60398,NaN,-8.692756,1.057176,1.226476,0.592196,0.464241,-1.002490,0.405802,-0.247171,-0.331284,0.951904,-0.348877,0.120850,-0.086925,0.010691,0.012179,0.999996,0.002029,-0.001236,-0.001656,0.732905,0.031461,0.679467,0.013574
60399,NaN,-8.314615,1.031761,1.293592,0.672134,0.483800,-1.375575,0.382563,-0.216042,-0.323630,0.958008,-0.344727,0.124756,-0.083143,0.010427,0.012866,0.999996,0.001913,-0.001080,-0.001618,0.733607,0.031788,0.678740,0.011063
60400,NaN,-7.939257,1.019435,1.389821,0.784947,0.513941,-1.742847,0.360778,-0.185679,-0.315884,0.951660,-0.344482,0.120850,-0.079389,0.010295,0.013843,0.999997,0.001804,-0.000928,-0.001579,0.734210,0.031967,0.678115,0.008573
60401,NaN,-7.546275,0.982620,1.455899,0.872247,0.515913,-2.131253,0.372657,-0.150217,-0.307416,0.953857,-0.342529,0.118652,-0.075458,0.009915,0.014521,0.999997,0.001863,-0.000751,-0.001537,0.734679,0.032308,0.677617,0.006165
60402,NaN,-7.161609,0.909947,1.692652,1.131199,0.471876,-2.499724,0.464680,-0.120007,-0.297768,0.955566,-0.336182,0.118652,-0.071613,0.009167,0.016905,0.999996,0.002323,-0.000600,-0.001489,0.735036,0.032932,0.677219,0.003404
60403,NaN,-6.786875,0.715610,1.783428,1.242580,0.303278,-2.875945,0.677241,-0.083963,-0.296380,0.955566,-0.331787,0.122559,-0.067866,0.007196,0.017830,0.999993,0.003386,-0.000420,-0.001482,0.735217,0.034427,0.676957,0.000016
60404,NaN,-6.500467,0.498684,1.984737,1.455846,0.094574,-3.155698,0.978636,-0.082292,-0.271794,0.964111,-0.336182,0.130859,-0.065006,0.004978,0.019845,0.999987,0.004893,-0.000411,-0.001359,0.735342,0.037030,0.676669,-0.004381
60405,NaN,-6.140564,0.823484,1.945212,1.465735,0.434627,-3.501489,1.070565,-0.109438,-0.310588,0.963867,-0.327637,0.130615,-0.061404,0.008226,0.019463,0.999984,0.005353,-0.000547,-0.001553,0.735505,0.039921,0.676281,-0.009158
60406,NaN,-6.015538,1.664460,1.756931,1.351298,1.293339,-3.604210,0.987017,-0.121826,-0.357187,0.961670,-0.327637,0.134766,-0.060136,0.016665,0.017615,0.999986,0.004935,-0.000609,-0.001786,0.735724,0.042265,0.675818,-0.013902
60407,NaN,-5.832321,2.265586,1.513900,1.183331,1.924264,-3.784615,0.840654,-0.129950,-0.372883,0.968018,-0.325684,0.132812,-0.058291,0.022701,0.015196,0.999989,0.004203,-0.000650,-0.001864,0.735961,0.044096,0.675343,-0.018134
60408,NaN,-5.522312,2.457610,1.328757,1.054870,2.153263,-4.107247,0.636348,-0.101747,-0.383579,0.959473,-0.323486,0.134766,-0.055183,0.024640,0.013338,0.999993,0.003182,-0.000509,-0.001918,0.736160,0.045071,0.674954,-0.021777
60409,NaN,-5.338843,2.243894,1.262261,0.995192,1.965854,-4.310271,0.430024,-0.062039,-0.399680,0.965576,-0.317139,0.128418,-0.053347,0.022518,0.012654,0.999996,0.002150,-0.000310,-0.001998,0.736235,0.045306,0.674756,-0.024706
60410,NaN,-5.266199,1.879899,1.170593,0.882109,1.632553,-4.409561,0.281189,-0.026776,-0.420961,0.963135,-0.306396,0.128418,-0.052624,0.018893,0.011725,0.999997,0.001406,-0.000134,-0.002105,0.736247,0.044866,0.674674,-0.027261
60411,NaN,-5.254604,1.550523,1.136311,0.821731,1.328137,-4.439890,0.206177,-0.009078,-0.438515,0.969482,-0.306396,0.132324,-0.052512,0.015609,0.011377,0.999997,0.001031,-0.000045,-0.002193,0.736178,0.044152,0.674699,-0.029566
60412,NaN,-5.282811,1.452047,1.160550,0.837959,1.248875,-4.418106,0.166347,0.005644,-0.449830,0.971436,-0.300049,0.128174,-0.052795,0.014630,0.011619,0.999997,0.000832,0.000028,-0.002249,0.736096,0.043205,0.674747,-0.031825
60413,NaN,-5.298035,1.562508,1.310600,1.002540,1.364599,-4.394107,0.110031,0.023960,-0.465155,0.969238,-0.295898,0.134277,-0.052942,0.015741,0.013121,0.999997,0.000550,0.000120,-0.002326,0.735925,0.042051,0.674906,-0.033896
60414,NaN,-5.398753,1.758483,1.512564,1.220098,1.561421,-4.280969,0.014727,0.042417,-0.471181,0.973389,-0.293701,0.136230,-0.053943,0.017711,0.015138,0.999997,0.000074,0.000212,-0.002356,0.735742,0.040487,0.675107,-0.035707
60415,NaN,-5.634027,1.832257,1.802855,1.500880,1.629547,-4.029819,-0.119545,0.065657,-0.473666,0.977539,-0.291748,0.134277,-0.056291,0.018467,0.018036,0.999997,-0.000598,0.000328,-0.002368,0.735467,0.038467,0.675454,-0.037026
60416,NaN,-5.933240,1.945848,2.089989,1.775963,1.744022,-3.716627,-0.263729,0.080596,-0.470528,0.975342,-0.289551,0.128174,-0.059278,0.019626,0.020898,0.999996,-0.001319,0.000403,-0.002353,0.735206,0.035896,0.675832,-0.037880
60417,NaN,-6.216645,2.014171,2.413974,2.083350,1.815855,-3.417922,-0.411573,0.087973,-0.452780,0.977051,-0.283203,0.130127,-0.062110,0.020332,0.024125,0.999995,-0.002058,0.000440,-0.002264,0.734903,0.032877,0.676301,-0.038130
60418,NaN,-6.576301,2.050558,2.612436,2.254224,1.877273,-3.054618,-0.566859,0.102320,-0.424817,0.979248,-0.278809,0.132080,-0.065706,0.020719,0.026099,0.999994,-0.002834,0.000512,-0.002124,0.734622,0.029359,0.676787,-0.037779
60419,NaN,-7.050550,2.005884,2.733713,2.332774,1.873427,-2.583908,-0.669599,0.143547,-0.402074,0.981201,-0.274658,0.125732,-0.070445,0.020292,0.027320,0.999992,-0.003348,0.000718,-0.002010,0.734162,0.025573,0.677485,-0.036962
60420,NaN,-7.676970,1.881354,2.934273,2.473895,1.792584,-1.954470,-0.717566,0.191389,-0.382034,0.983154,-0.270508,0.125732,-0.076705,0.019065,0.029348,0.999991,-0.003588,0.000957,-0.001910,0.733595,0.021672,0.678290,-0.035922
60421,NaN,-8.546812,1.824739,3.186757,2.660472,1.787802,-1.080077,-0.736961,0.201892,-0.364683,0.978760,-0.266113,0.125732,-0.085402,0.018521,0.031886,0.999991,-0.003685,0.001009,-0.001823,0.732928,0.017775,0.679186,-0.034731
60422,NaN,-9.556756,1.768704,3.360824,2.761714,1.802172,-0.072059,-0.738651,0.202740,-0.355021,0.984863,-0.264160,0.127686,-0.095502,0.017981,0.033639,0.999991,-0.003693,0.001014,-0.001775,0.732314,0.013899,0.680000,-0.033512
60423,NaN,-10.661926,1.565059,3.343958,2.664063,1.692763,1.019907,-0.715625,0.212365,-0.360123,0.987061,-0.261963,0.125488,-0.106555,0.015962,0.033496,0.999991,-0.003578,0.001062,-0.001801,0.731585,0.010096,0.680906,-0.032375
60424,NaN,-11.758291,1.333201,3.252865,2.497822,1.566285,2.100465,-0.675723,0.223448,-0.373854,0.980713,-0.266113,0.129639,-0.117521,0.013662,0.032614,0.999992,-0.003379,0.001117,-0.001869,0.730880,0.006398,0.681752,-0.031430
60425,NaN,-12.867178,1.147176,3.225903,2.408365,1.489846,3.197555,-0.601284,0.220128,-0.399025,0.982666,-0.255615,0.123535,-0.128613,0.011826,0.032365,0.999993,-0.003006,0.001101,-0.001995,0.730091,0.002882,0.682649,-0.030824
60426,NaN,-13.978789,1.021173,3.279818,2.405556,1.478870,4.302278,-0.499828,0.209117,-0.430930,0.988770,-0.253418,0.125488,-0.139731,0.010595,0.032918,0.999994,-0.002499,0.001046,-0.002155,0.729411,-0.000364,0.683387,-0.030682
60427,NaN,-15.128401,1.046037,3.295237,2.375702,1.633636,5.435523,-0.366862,0.177279,-0.477264,0.990723,-0.247070,0.125244,-0.151229,0.010882,0.033067,0.999995,-0.001834,0.000886,-0.002386,0.728738,-0.003298,0.684075,-0.031162
60428,NaN,-16.101585,1.200495,3.311453,2.358188,1.920316,6.386651,-0.187139,0.135903,-0.516701,0.988525,-0.247070,0.125244,-0.160962,0.012452,0.033212,0.999996,-0.000936,0.000680,-0.002584,0.728294,-0.005701,0.684475,-0.032394
60429,NaN,-17.106894,1.335056,3.037831,2.052238,2.209136,7.350177,0.057791,0.104399,-0.553928,0.992676,-0.242920,0.127441,-0.171015,0.013815,0.030472,0.999996,0.000289,0.000522,-0.002770,0.727856,-0.007363,0.684817,-0.034605
60430,NaN,-17.906784,1.331402,2.647434,1.633010,2.358553,8.109483,0.346629,0.089819,-0.573687,0.992188,-0.228027,0.120850,-0.179017,0.013782,0.026578,0.999994,0.001733,0.000449,-0.002868,0.727574,-0.008014,0.684937,-0.037862
60431,NaN,-18.315166,1.244758,2.406587,1.389039,2.397253,8.493308,0.621276,0.064533,-0.558680,0.994385,-0.228027,0.127197,-0.183108,0.012884,0.024165,0.999991,0.003106,0.000323,-0.002793,0.727277,-0.007648,0.685015,-0.042017
60432,NaN,-18.017994,0.983452,2.268019,1.270545,2.200693,8.195682,0.915636,0.035364,-0.541854,0.998291,-0.221680,0.129150,-0.180149,0.010219,0.022758,0.999986,0.004578,0.000177,-0.002709,0.727188,-0.006119,0.684794,-0.047093
60433,NaN,-17.085500,0.633782,2.242606,1.292875,1.850751,7.282579,1.235622,-0.006872,-0.532148,0.993896,-0.217285,0.131104,-0.170838,0.006654,0.022461,0.999977,0.006178,-0.000034,-0.002661,0.727118,-0.003444,0.684435,-0.053250
60434,NaN,-15.874520,0.277568,2.112296,1.207886,1.461115,6.091562,1.562977,-0.035752,-0.538815,0.998047,-0.208984,0.128906,-0.158741,0.003038,0.021118,0.999966,0.007815,-0.000179,-0.002694,0.727225,0.000444,0.683727,-0.060514
60435,NaN,-14.886873,0.042165,2.014469,1.147046,1.196619,5.118189,1.838401,-0.042037,-0.536766,1.004150,-0.204590,0.132812,-0.148871,0.000636,0.020119,0.999954,0.009192,-0.000210,-0.002684,0.727180,0.005287,0.682976,-0.068740
60436,NaN,-14.006857,-0.262484,1.489653,0.637061,0.905727,4.232016,2.107513,-0.009484,-0.500649,1.006104,-0.198486,0.140869,-0.140076,-0.002431,0.014864,0.999941,0.010537,-0.000047,-0.002503,0.727070,0.011303,0.682058,-0.077706
60437,NaN,-12.907896,-0.902313,-0.048852,-0.906455,0.403218,3.088700,2.609086,0.126045,-0.433846,1.001709,-0.198242,0.140869,-0.129098,-0.008736,-0.000522,0.999912,0.013045,0.000630,-0.002169,0.726273,0.019363,0.681455,-0.088159
60438,NaN,-11.887471,-1.819928,-0.497066,-1.446379,-0.480818,2.126646,3.162891,0.260375,-0.317435,1.005859,-0.192139,0.153076,-0.118910,-0.017931,-0.005101,0.999873,0.015814,0.001302,-0.001587,0.724972,0.029950,0.680822,-0.099999
60439,NaN,-10.871208,-2.382027,-0.212071,-1.246445,-1.142711,1.189247,3.377650,0.320091,-0.157205,1.001465,-0.187744,0.163330,-0.108734,-0.023696,-0.002348,0.999856,0.016887,0.001600,-0.000786,0.723206,0.041820,0.680207,-0.111996
60440,NaN,-9.993999,-2.423946,0.175974,-0.879948,-1.341564,0.346654,3.376842,0.374120,0.014587,0.999512,-0.189941,0.169434,-0.099935,-0.024274,0.001537,0.999856,0.016883,0.001871,0.000073,0.721248,0.054352,0.679448,-0.123281
60441,NaN,-9.084223,-2.202587,0.729276,-0.291002,-1.371929,-0.542345,3.197244,0.407473,0.165287,1.001465,-0.185791,0.179443,-0.090809,-0.022216,0.007124,0.999870,0.015986,0.002037,0.000826,0.719016,0.066693,0.678800,-0.133413
60442,NaN,-8.174519,-1.749684,1.053850,0.148695,-1.160704,-1.468519,2.856204,0.443586,0.293094,0.999268,-0.183594,0.189697,-0.081696,-0.017766,0.010467,0.999894,0.014281,0.002218,0.001465,0.716789,0.078309,0.678205,-0.141844
60443,NaN,-7.581745,-1.203825,1.492070,0.735228,-0.891575,-2.078188,2.376877,0.451865,0.406478,0.997070,-0.185791,0.197998,-0.075759,-0.012370,0.014946,0.999925,0.011884,0.002259,0.002032,0.714574,0.088525,0.677915,-0.148253
60444,NaN,-7.459817,-0.667613,1.849309,1.241531,-0.586447,-2.221329,1.797528,0.431066,0.515374,0.993164,-0.189941,0.204102,-0.074540,-0.007035,0.018592,0.999954,0.008988,0.002155,0.002577,0.712778,0.097071,0.677747,-0.152262
60445,NaN,-7.851880,-0.384519,1.797186,1.274077,-0.345978,-1.857419,1.290213,0.382991,0.614206,0.999512,-0.192139,0.210449,-0.078472,-0.004203,0.018096,0.999973,0.006451,0.001915,0.003071,0.711316,0.104044,0.677799,-0.154249
60446,NaN,-8.541405,-0.384851,1.515873,0.981606,-0.269341,-1.189175,0.871108,0.298178,0.714754,0.989258,-0.202637,0.212646,-0.085377,-0.004220,0.015268,0.999983,0.004356,0.001491,0.003574,0.710507,0.109852,0.677683,-0.154458
60447,NaN,-9.053373,-0.589595,0.929860,0.333286,-0.286962,-0.703249,0.559201,0.195657,0.804405,0.991699,-0.209229,0.214600,-0.090500,-0.006286,0.009370,0.999988,0.002796,0.000978,0.004022,0.710163,0.114719,0.677482,-0.153381
60448,NaN,-9.386150,-0.882361,0.303716,-0.391068,-0.384257,-0.396240,0.359555,0.107584,0.854758,0.983643,-0.219727,0.214844,-0.093821,-0.009230,0.003071,0.999989,0.001798,0.000538,0.004274,0.710357,0.119030,0.676967,-0.151458
60449,NaN,-9.563523,-1.056890,-0.216875,-0.972016,-0.420112,-0.246961,0.215722,0.051029,0.879077,0.981934,-0.232422,0.215088,-0.095588,-0.010987,-0.002156,0.999990,0.001079,0.000255,0.004395,0.710729,0.122814,0.676440,-0.149028
60450,NaN,-9.529693,-1.175052,-0.624898,-1.425975,-0.456869,-0.307765,0.105285,0.016948,0.892174,0.984131,-0.240967,0.215332,-0.095244,-0.012172,-0.006247,0.999990,0.000526,0.000085,0.004461,0.711377,0.126272,0.675748,-0.146162
60451,NaN,-9.376094,-1.353494,-0.966446,-1.833395,-0.575799,-0.486184,0.073861,0.013315,0.866906,0.980225,-0.249512,0.219482,-0.093702,-0.013938,-0.009663,0.999991,0.000369,0.000067,0.004335,0.711927,0.129477,0.675172,-0.143312
60452,NaN,-9.126938,-1.854191,-1.013081,-2.086129,-1.101890,-0.746334,0.074313,0.016362,0.833090,0.976562,-0.262207,0.215576,-0.091192,-0.018918,-0.010130,0.999991,0.000372,0.000082,0.004165,0.712518,0.132613,0.674520,-0.140549
60453,NaN,-8.797363,-2.382573,-1.050649,-2.331749,-1.650690,-1.094210,0.095443,0.016798,0.795963,0.972412,-0.268555,0.215576,-0.087879,-0.024171,-0.010511,0.999992,0.000477,0.000084,0.003980,0.712967,0.135653,0.673964,-0.138018
60454,NaN,-8.433759,-2.735493,-1.086066,-2.506768,-2.031686,-1.483299,0.121502,0.031491,0.800804,0.970703,-0.277100,0.215820,-0.084229,-0.027686,-0.010864,0.999992,0.000608,0.000157,0.004004,0.713420,0.138845,0.673341,-0.135520
60455,NaN,-8.197051,-2.731529,-0.910852,-2.354910,-2.157656,-1.733018,0.175561,0.056918,0.831826,0.968994,-0.287598,0.218018,-0.081859,-0.027648,-0.009109,0.999991,0.000878,0.000285,0.004159,0.713678,0.142314,0.672826,-0.133098
60456,NaN,-8.144620,-2.512840,-0.513045,-1.927381,-2.170929,-1.782479,0.189267,0.082617,0.867457,0.968994,-0.291748,0.220215,-0.081338,-0.025476,-0.005121,0.999990,0.000946,0.000413,0.004337,0.713920,0.145990,0.672279,-0.130561
60457,NaN,-8.354086,-1.929255,-0.059223,-1.322353,-1.877261,-1.551752,0.117111,0.093553,0.917212,0.961182,-0.306641,0.222412,-0.083451,-0.019675,-0.000565,0.999989,0.000586,0.000468,0.004586,0.714126,0.149555,0.671844,-0.127606
60458,NaN,-8.815224,-1.163587,0.332857,-0.723876,-1.407839,-1.056761,-0.021023,0.082166,0.984006,0.959229,-0.315186,0.226562,-0.088092,-0.012069,0.003366,0.999988,-0.000105,0.000411,0.004920,0.714564,0.152854,0.671320,-0.123950
60459,NaN,-9.335473,-0.320379,0.601949,-0.218247,-0.834967,-0.492256,-0.159234,0.043117,1.048435,0.959961,-0.334229,0.214600,-0.093335,-0.003688,0.006042,0.999986,-0.000796,0.000216,0.005242,0.715195,0.155834,0.670746,-0.119630
60460,NaN,-9.707056,0.442569,0.988205,0.361089,-0.386589,-0.059811,-0.283361,-0.023813,1.117438,0.949463,-0.336426,0.218750,-0.097094,0.003897,0.009865,0.999983,-0.001417,-0.000119,0.005587,0.716229,0.158563,0.669865,-0.114698
60461,NaN,-9.713546,0.877150,1.245544,0.714095,-0.179602,-0.008067,-0.429696,-0.072780,1.158523,0.945801,-0.353271,0.217041,-0.097189,0.008235,0.012402,0.999981,-0.002148,-0.000364,0.005793,0.717479,0.160865,0.668903,-0.109161
60462,NaN,-9.421240,0.919171,1.423550,0.863441,-0.282844,-0.283538,-0.592902,-0.115741,1.174166,0.941895,-0.364014,0.215088,-0.094273,0.008680,0.014155,0.999978,-0.002964,-0.000579,0.005871,0.719046,0.162609,0.667766,-0.103055
60463,NaN,-8.978093,0.698745,1.461675,0.802952,-0.555040,-0.742002,-0.749943,-0.161673,1.158044,0.936035,-0.383057,0.203125,-0.089831,0.006522,0.014519,0.999976,-0.003750,-0.000808,0.005790,0.720789,0.163697,0.666597,-0.096512
60464,NaN,-8.477856,0.375231,1.461613,0.680586,-0.889671,-1.274781,-0.851006,-0.209864,1.110618,0.932129,-0.393555,0.199219,-0.084813,0.003343,0.014512,0.999975,-0.004255,-0.001049,0.005553,0.722784,0.164234,0.665236,-0.089842
60465,NaN,-7.973782,0.087627,1.462867,0.584562,-1.176082,-1.812466,-0.895996,-0.252529,1.030406,0.932617,-0.402100,0.193115,-0.079760,0.000531,0.014525,0.999976,-0.004480,-0.001263,0.005152,0.724819,0.164312,0.663847,-0.083339
60466,NaN,-7.534658,-0.035379,1.370325,0.458570,-1.268400,-2.274077,-0.860149,-0.283835,0.946839,0.926514,-0.410400,0.181152,-0.075363,-0.000652,0.013599,0.999979,-0.004301,-0.001419,0.004734,0.726930,0.164219,0.662292,-0.077289
60467,NaN,-7.126517,-0.087825,1.217444,0.303527,-1.268506,-2.701034,-0.730599,-0.315943,0.885082,0.920410,-0.423096,0.177246,-0.071280,-0.001149,0.012066,0.999982,-0.003653,-0.001580,0.004425,0.728920,0.164375,0.660671,-0.071906
60468,NaN,-6.768711,0.033775,1.168304,0.297651,-1.139811,-3.045599,-0.555230,-0.349568,0.853814,0.916748,-0.433838,0.171143,-0.067708,0.000081,0.011564,0.999986,-0.002776,-0.001748,0.004269,0.730911,0.165042,0.658791,-0.067258
60469,NaN,-6.480276,0.202861,1.123630,0.304579,-0.972865,-3.312058,-0.356493,-0.368649,0.846910,0.914795,-0.440186,0.171387,-0.064831,0.001774,0.011114,0.999988,-0.001782,-0.001843,0.004235,0.732710,0.166409,0.656840,-0.063287
60470,NaN,-6.446921,0.309153,1.195623,0.367838,-0.932882,-3.325621,-0.178247,-0.383662,0.834382,0.912842,-0.448486,0.159180,-0.064504,0.002833,0.011830,0.999989,-0.000891,-0.001918,0.004172,0.734459,0.168366,0.654695,-0.059979
60471,NaN,-6.522622,0.411982,1.185715,0.338515,-0.885234,-3.238364,-0.000030,-0.392041,0.815111,0.906738,-0.454834,0.161377,-0.065265,0.003854,0.011729,0.999990,-0.000000,-0.001960,0.004076,0.735994,0.170921,0.652545,-0.057311
60472,NaN,-6.710439,0.502599,1.185516,0.295409,-0.869282,-3.041808,0.176967,-0.410855,0.792327,0.906982,-0.459229,0.157227,-0.067148,0.004750,0.011722,0.999990,0.000885,-0.002054,0.003962,0.737488,0.174027,0.650202,-0.055342
60473,NaN,-6.968249,0.582221,1.197436,0.247819,-0.881253,-2.777707,0.353953,-0.438966,0.768553,0.900879,-0.469727,0.155518,-0.069730,0.005533,0.011831,0.999989,0.001770,-0.002195,0.003843,0.738826,0.177713,0.647792,-0.054036
60474,NaN,-7.212193,0.653458,1.283153,0.263372,-0.926013,-2.521462,0.549179,-0.467115,0.732017,0.896973,-0.480225,0.149414,-0.072175,0.006236,0.012680,0.999987,0.002746,-0.002336,0.003660,0.740126,0.181971,0.645162,-0.053548
60475,NaN,-7.437554,0.795233,1.346500,0.280569,-0.898428,-2.271045,0.739254,-0.505076,0.687988,0.890625,-0.480225,0.151367,-0.074436,0.007647,0.013306,0.999984,0.003696,-0.002525,0.003440,0.741269,0.186794,0.642440,-0.053841
60476,NaN,-7.664551,0.865229,1.357644,0.221906,-0.920137,-2.038315,0.932073,-0.523324,0.619244,0.897217,-0.486816,0.149658,-0.076707,0.008352,0.013415,0.999981,0.004660,-0.002617,0.003096,0.742319,0.192076,0.639561,-0.055053
60477,NaN,-7.797411,0.853278,1.297457,0.086962,-0.976000,-1.922783,1.106104,-0.540818,0.550029,0.886719,-0.490967,0.153564,-0.078032,0.008247,0.012810,0.999977,0.005530,-0.002704,0.002750,0.743135,0.197792,0.636688,-0.057064
60478,NaN,-7.947309,0.820222,1.231014,-0.065630,-1.046407,-1.797185,1.274193,-0.539567,0.470398,0.886719,-0.486572,0.151611,-0.079525,0.007937,0.012147,0.999973,0.006371,-0.002698,0.002352,0.743795,0.203845,0.633738,-0.059933
60479,NaN,-8.071127,0.802176,1.062752,-0.298939,-1.054839,-1.706289,1.406628,-0.533861,0.393528,0.889160,-0.495117,0.149658,-0.080755,0.007789,0.010467,0.999970,0.007033,-0.002669,0.001968,0.744163,0.210163,0.630893,-0.063466
