// Start Time: Unknown
// Update Rate: 100.0Hz
// Filter Profile: human (46.1)
// Firmware Version: 4.4.0
PacketCounter,SampleTimeFine,Acc_X,Acc_Y,Acc_Z,FreeAcc_X,FreeAcc_Y,FreeAcc_Z,Gyr_X,Gyr_Y,Gyr_Z,Mag_X,Mag_Y,Mag_Z,VelInc_X,VelInc_Y,VelInc_Z,OriInc_q0,OriInc_q1,OriInc_q2,OriInc_q3,Quat_q0,Quat_q1,Quat_q2,Quat_q3
44441,NaN,22.015421,8.149985,-0.562664,-0.000000,0.000000,13.669580,0.279486,0.484398,-0.183384,-0.952393,-0.093506,-0.012695,0.220215,0.081306,-0.006046,0.999996,0.001397,0.002422,-0.000917,0.435359,-0.370376,-0.612940,-0.545517
44442,NaN,19.265327,10.054240,-1.144028,-0.000000,0.000000,11.948488,0.780157,0.476656,-0.424884,-0.943848,-0.095703,-0.012451,0.192839,0.100178,-0.011508,0.999987,0.003901,0.002383,-0.002124,0.399579,-0.329988,-0.646182,-0.560263
44443,NaN,18.448103,12.245959,-1.482556,3.788714,0.009419,12.053677,1.271628,0.493703,-0.655380,-0.949951,-0.104248,-0.023193,0.184845,0.121947,-0.014505,0.999971,0.006358,0.002468,-0.003277,0.424154,-0.341015,-0.635756,-0.547372
44444,NaN,18.196071,14.954075,-1.748280,6.207053,0.287528,12.972473,1.782106,0.710452,-0.882793,-0.940918,-0.112793,-0.031494,0.182558,0.148888,-0.016802,0.999944,0.008910,0.003552,-0.004414,0.427012,-0.332467,-0.640597,-0.544760
44445,NaN,16.669724,16.448782,-2.787712,8.081227,-0.379571,12.340362,1.944155,0.887382,-1.057796,-0.944824,-0.127930,-0.041992,0.167444,0.163869,-0.027024,0.999929,0.009721,0.004437,-0.005289,0.430265,-0.319691,-0.645347,-0.544239
44446,NaN,14.126333,15.226836,-3.265140,8.000935,-0.832370,9.613058,1.793690,0.981256,-1.057629,-0.940430,-0.129883,-0.054932,0.141909,0.151808,-0.031984,0.999934,0.008968,0.004906,-0.005288,0.433392,-0.309729,-0.649765,-0.542259
44447,NaN,11.203152,10.692327,-4.487360,5.337584,-2.823804,5.137535,1.091774,1.059301,-0.628383,-0.931396,-0.138672,-0.063232,0.112130,0.106816,-0.044884,0.999966,0.005459,0.005296,-0.003142,0.434514,-0.297969,-0.652916,-0.544162
44448,NaN,8.344803,8.595452,-5.226781,5.020918,-3.833324,1.629807,-0.115959,1.218790,0.506034,-0.933838,-0.129883,-0.076172,0.082909,0.086134,-0.052824,0.999978,-0.000580,0.006094,0.002530,0.439688,-0.296550,-0.649185,-0.545245
44449,NaN,4.942684,11.154237,-5.826939,8.945363,-3.533762,-0.311005,-1.345473,1.290564,2.022659,-0.934814,-0.097656,-0.089600,0.047918,0.111635,-0.059333,0.999905,-0.006727,0.006453,0.010113,0.445694,-0.297028,-0.644240,-0.545972
44450,NaN,1.969177,18.139978,-5.044291,16.365289,-1.123748,-0.365756,-2.031794,1.332566,3.362503,-0.936035,-0.065674,-0.103027,0.016300,0.181167,-0.052400,0.999785,-0.010158,0.006662,0.016811,0.456051,-0.308684,-0.630593,-0.546886
44451,NaN,0.832881,20.371179,-2.837155,18.456761,1.547438,-0.836101,-2.844309,1.211617,4.434227,-0.928955,-0.018311,-0.125000,0.003633,0.203396,-0.031297,0.999635,-0.014220,0.006057,0.022168,0.463617,-0.317099,-0.622228,-0.545289
44452,NaN,1.589519,16.236941,-1.962441,14.703407,1.014550,-2.552462,-3.264253,0.896819,5.158117,-0.924561,0.041748,-0.134521,0.011611,0.162356,-0.022333,0.999524,-0.016319,0.004483,0.025786,0.475072,-0.338114,-0.602778,-0.544650
44453,NaN,4.717810,13.336455,-0.922529,10.998418,0.884654,-0.915609,-3.027859,0.499434,5.441449,-0.921875,0.090820,-0.133057,0.043503,0.134420,-0.011367,0.999512,-0.015137,0.002497,0.027203,0.477372,-0.351230,-0.593173,-0.544884
44454,NaN,11.138518,12.816766,-0.224254,9.134613,0.585347,4.488601,-2.447385,0.181140,5.277723,-0.912842,0.140137,-0.144531,0.107950,0.131006,-0.003933,0.999577,-0.012235,0.000906,0.026385,0.487787,-0.372080,-0.576556,-0.539634
44455,NaN,16.518950,12.061485,-4.858723,7.871280,-4.711548,9.101187,-1.056702,0.328299,4.607063,-0.903809,0.185303,-0.145020,0.162276,0.124116,-0.049505,0.999719,-0.005283,0.001641,0.023033,0.486967,-0.376510,-0.574155,-0.539860
44456,NaN,12.501760,12.749887,-8.097798,10.758229,-7.387683,4.818016,1.226951,1.240169,3.678530,-0.889648,0.213135,-0.164795,0.122137,0.130260,-0.080948,0.999793,0.006134,0.006200,0.018391,0.502664,-0.380657,-0.567404,-0.529605
44457,NaN,7.835283,13.838037,-8.037140,12.993641,-5.927965,0.838895,2.793833,2.027260,2.846084,-0.877197,0.228271,-0.201416,0.075556,0.140581,-0.079193,0.999750,0.013968,0.010135,0.014229,0.510559,-0.360776,-0.586068,-0.515456
44458,NaN,5.901046,13.800538,-7.555587,13.714400,-4.853760,-1.405536,3.430443,2.339571,2.127790,-0.864746,0.245361,-0.225098,0.056658,0.139893,-0.073839,0.999728,0.017151,0.011697,0.010638,0.528946,-0.352126,-0.584940,-0.504053
44459,NaN,5.994179,13.226581,-7.572210,13.170947,-3.687447,-0.806984,3.919691,2.295582,1.590196,-0.858398,0.256104,-0.261719,0.058026,0.134191,-0.073778,0.999710,0.019597,0.011477,0.007950,0.533804,-0.320370,-0.616862,-0.481558
44460,NaN,8.640678,12.823693,-6.953039,12.297904,-3.037836,1.454746,4.273161,2.163301,1.138204,-0.847656,0.251953,-0.285156,0.084931,0.130183,-0.067687,0.999697,0.021364,0.010815,0.005690,0.549898,-0.307171,-0.619366,-0.468661
44461,NaN,11.448973,12.749978,-7.285954,11.178024,-2.255084,4.906902,4.318855,2.164151,0.729762,-0.833984,0.237061,-0.332031,0.113242,0.129466,-0.071308,0.999702,0.021592,0.010820,0.003648,0.548082,-0.270254,-0.655897,-0.443134
44462,NaN,13.204623,12.634714,-7.258402,10.850616,-2.074919,6.454590,4.206236,2.101674,0.183005,-0.825195,0.230469,-0.355469,0.131176,0.127976,-0.071285,0.999723,0.021029,0.010507,0.000915,0.560911,-0.254597,-0.659028,-0.431557
44463,NaN,13.262321,12.666013,-7.224612,9.750949,-0.737794,7.300948,3.980274,1.962585,-0.405556,-0.817871,0.209229,-0.380859,0.132181,0.127813,-0.071009,0.999752,0.019900,0.009812,-0.002028,0.550933,-0.215735,-0.694843,-0.408808
44464,NaN,12.193894,11.021128,-5.680204,7.933137,0.015556,5.662492,3.815146,1.656657,-0.889670,-0.819092,0.187744,-0.404053,0.121966,0.110738,-0.055703,0.999774,0.019074,0.008283,-0.004448,0.558860,-0.198701,-0.698880,-0.399699
44465,NaN,12.684150,6.838833,-3.582592,2.272837,-0.419795,4.855280,3.568328,1.223451,-1.325623,-0.809570,0.164307,-0.420654,0.127077,0.068181,-0.035385,0.999800,0.017840,0.006117,-0.006628,0.540303,-0.161722,-0.731653,-0.382888
44466,NaN,13.986231,3.357453,-1.426067,-2.021657,-1.404015,4.430167,3.011402,0.835587,-1.740424,-0.810791,0.138672,-0.439697,0.140089,0.032572,-0.014350,0.999840,0.015056,0.004178,-0.008702,0.542376,-0.145595,-0.736451,-0.377188
44467,NaN,13.659390,3.516738,-0.114620,-3.756381,-0.308982,3.779424,2.422789,0.398144,-2.225460,-0.812012,0.108643,-0.441406,0.136972,0.033657,-0.001005,0.999863,0.012113,0.001991,-0.011127,0.520721,-0.113755,-0.763261,-0.365160
44468,NaN,11.850112,4.116248,1.350987,-3.957617,1.274185,2.099285,1.696830,-0.303325,-2.802527,-0.813232,0.084961,-0.440918,0.119040,0.039379,0.014029,0.999865,0.008484,-0.001517,-0.014012,0.515341,-0.099181,-0.768640,-0.365759
44469,NaN,10.608810,3.020596,1.818035,-5.131097,0.929214,0.075221,0.634413,-1.184031,-3.389969,-0.827148,0.050781,-0.429932,0.106469,0.028344,0.018902,0.999834,0.003172,-0.005920,-0.016949,0.488770,-0.074668,-0.789074,-0.364542
44470,NaN,8.646121,2.547474,1.528474,-4.462176,0.697592,-1.864628,-0.514501,-2.098107,-3.938440,-0.836670,0.012207,-0.416504,0.086775,0.023809,0.016131,0.999748,-0.002572,-0.010490,-0.019691,0.472999,-0.064193,-0.794535,-0.375321
44471,NaN,8.142291,2.443842,0.488951,-4.076937,-0.057111,-2.338099,-1.627159,-2.862731,-4.423503,-0.855469,-0.007080,-0.392822,0.081858,0.022676,0.005870,0.999620,-0.008135,-0.014312,-0.022115,0.441184,-0.047338,-0.808331,-0.386932
44472,NaN,8.426391,2.555631,-0.919626,-3.630272,-1.160419,-1.823081,-2.592568,-3.440739,-4.851765,-0.867188,-0.039307,-0.362305,0.084994,0.023391,-0.008051,0.999474,-0.012961,-0.017201,-0.024255,0.417050,-0.040080,-0.811628,-0.407092
44473,NaN,9.159649,2.652055,-2.320281,-3.814451,-2.448387,-1.110082,-3.249315,-3.866266,-5.266526,-0.876709,-0.078125,-0.327393,0.092677,0.023727,-0.021819,0.999335,-0.016243,-0.019327,-0.026327,0.382744,-0.026374,-0.819533,-0.425649
44474,NaN,10.010969,2.195154,-2.929965,-4.792965,-3.658713,-1.025686,-3.653620,-4.166879,-5.699135,-0.884277,-0.114502,-0.292725,0.101257,0.018562,-0.027557,0.999210,-0.018263,-0.020829,-0.028488,0.352764,-0.018862,-0.819836,-0.450634
44475,NaN,11.284751,0.711013,-3.602044,-6.554372,-5.617288,-1.674388,-3.906036,-4.401170,-6.178178,-0.889404,-0.155273,-0.262207,0.113739,0.002933,-0.033608,0.999090,-0.019524,-0.021999,-0.030882,0.318883,-0.002842,-0.823787,-0.468700
44476,NaN,11.322602,-0.357570,-3.983376,-7.378417,-6.679660,-3.101361,-4.107715,-4.549672,-6.663720,-0.892090,-0.206787,-0.231445,0.113870,-0.008144,-0.037112,0.998975,-0.020532,-0.022741,-0.033307,0.284153,0.007393,-0.820667,-0.495690
44477,NaN,11.826081,-1.938479,-4.472488,-8.397850,-8.217623,-4.769002,-4.114409,-4.786175,-7.226845,-0.892090,-0.266846,-0.194092,0.118454,-0.024539,-0.041421,0.998849,-0.020564,-0.023922,-0.036120,0.253599,0.029061,-0.821999,-0.509078
44478,NaN,13.833087,-4.891973,-5.311998,-10.947014,-10.861287,-7.467540,-3.941191,-4.893999,-7.672123,-0.877197,-0.329102,-0.160889,0.137521,-0.055196,-0.048701,0.998771,-0.019698,-0.024460,-0.038345,0.214232,0.043097,-0.816050,-0.535079
44479,NaN,15.429234,-8.944055,-3.630611,-13.451526,-12.016056,-12.189550,-3.392355,-4.605589,-7.903537,-0.866455,-0.391357,-0.134277,0.151341,-0.096020,-0.031206,0.998810,-0.016955,-0.023019,-0.039502,0.192595,0.072817,-0.816809,-0.538914
44480,NaN,17.207560,-14.131983,-3.757769,-15.344213,-14.256656,-18.232439,-2.532420,-4.240972,-7.797228,-0.840820,-0.453613,-0.107422,0.167103,-0.148331,-0.032149,0.998935,-0.012658,-0.021197,-0.038972,0.154995,0.090712,-0.810362,-0.557728
44481,NaN,22.559920,-19.457239,-3.198325,-19.179973,-18.675712,-23.252042,-1.550018,-3.895550,-7.279340,-0.819336,-0.511719,-0.082764,0.218862,-0.202839,-0.026125,0.999118,-0.007748,-0.019472,-0.036386,0.150333,0.126191,-0.813734,-0.547095
44482,NaN,30.571236,-23.972646,-2.024368,-25.896657,-21.519420,-29.281546,-0.393107,-3.180746,-6.593545,-0.791504,-0.576172,-0.055908,0.297856,-0.249667,-0.014980,0.999328,-0.001965,-0.015900,-0.032960,0.119509,0.143933,-0.810343,-0.555288
44483,NaN,32.785402,-25.943335,-1.263918,-25.245208,-25.919298,-30.786406,0.627576,-2.173115,-5.821001,-0.761963,-0.619141,-0.033691,0.320239,-0.268795,-0.009965,0.999513,0.003137,-0.010864,-0.029100,0.142808,0.187115,-0.817047,-0.526335
44484,NaN,31.172056,-25.941130,-0.191047,-22.977881,-24.048368,-33.008986,1.082928,-1.443545,-4.672269,-0.739258,-0.655518,-0.016113,0.305558,-0.266591,-0.001121,0.999686,0.005414,-0.007217,-0.023359,0.123559,0.203117,-0.816300,-0.526432
44485,NaN,28.003193,-27.082908,1.435501,-17.724724,-26.154284,-32.646513,0.944953,-1.025784,-3.121752,-0.721191,-0.681396,0.001709,0.275685,-0.275223,0.014483,0.999854,0.004725,-0.005129,-0.015608,0.175227,0.246759,-0.819963,-0.485866
44486,NaN,23.973219,-29.730331,3.363876,-14.177807,-23.389662,-36.679208,0.515600,-0.882492,-1.395326,-0.712158,-0.696289,0.008301,0.237501,-0.299053,0.033921,0.999963,0.002578,-0.004412,-0.006977,0.167577,0.250778,-0.820237,-0.486045
44487,NaN,20.742444,-31.032455,4.239909,-9.563529,-25.606067,-35.582964,0.415979,-0.728742,0.183286,-0.716553,-0.692139,0.016846,0.207554,-0.310223,0.042510,0.999991,0.002080,-0.003644,0.000916,0.236190,0.286486,-0.818881,-0.437692
44488,NaN,17.961516,-31.054010,5.640872,-8.599577,-23.037410,-36.535211,0.566790,-0.398632,1.388370,-0.723389,-0.683594,0.029541,0.181654,-0.309443,0.055891,0.999970,0.002834,-0.001993,0.006942,0.236777,0.280589,-0.822556,-0.434289
44489,NaN,15.050881,-29.105581,6.491608,-5.731169,-23.571546,-32.775565,0.927028,-0.006023,2.219752,-0.739014,-0.668457,0.037842,0.153727,-0.289658,0.063576,0.999928,0.004635,-0.000030,0.011098,0.310798,0.313176,-0.816256,-0.372895
44490,NaN,16.570796,-16.998702,3.759405,-8.282620,-19.807779,-20.614975,1.144150,0.201865,2.891804,-0.763184,-0.651367,0.039551,0.168182,-0.167778,0.036461,0.999879,0.005721,0.001009,0.014458,0.315184,0.303491,-0.822505,-0.363370
44491,NaN,25.995538,9.487428,21.205876,-32.752654,-9.870431,-3.084747,0.882286,1.132840,3.296961,-0.788086,-0.614746,0.025879,0.259552,0.098223,0.211016,0.999838,0.004411,0.005664,0.016484,0.388715,0.333873,-0.807364,-0.292563
44492,NaN,43.201144,49.792420,21.030199,-52.385882,2.883028,35.287370,-2.250437,2.267231,5.007856,-0.817139,-0.584717,-0.000244,0.421631,0.510857,0.199782,0.999559,-0.011251,0.011334,0.025036,0.408775,0.312455,-0.807669,-0.288001
44493,NaN,26.251758,4.627946,-2.298725,-8.009059,-16.351639,9.788397,-5.415496,-1.097169,5.217530,-0.844238,-0.546143,-0.013916,0.261328,0.052487,-0.022917,0.999278,-0.027071,-0.005485,0.026081,0.481539,0.308140,-0.783265,-0.244268
44494,NaN,11.048465,-29.276883,-11.308190,12.803450,-29.625806,-17.879685,-2.749642,-2.403515,5.380612,-0.871826,-0.496826,-0.012695,0.119648,-0.291137,-0.107670,0.999471,-0.013746,-0.012015,0.026898,0.482679,0.277354,-0.793568,-0.245655
44495,NaN,4.085206,-25.605568,2.044991,3.623517,-22.155936,-22.938385,0.358215,-0.040349,6.217079,-0.901611,-0.440918,-0.007080,0.048779,-0.254657,0.020002,0.999515,0.001791,-0.000202,0.031080,0.533473,0.281882,-0.777894,-0.175586
44496,NaN,4.834869,-8.068441,-3.222135,3.632205,-9.246522,-9.440154,0.960580,-0.147161,5.898272,-0.924805,-0.395996,-0.001465,0.050720,-0.079056,-0.032567,0.999553,0.004802,-0.000736,0.029487,0.536486,0.261251,-0.787094,-0.156248
44497,NaN,13.156823,-12.806268,0.790716,0.364264,-17.839956,-5.425967,-0.426233,-0.269084,5.560584,-0.943604,-0.346436,-0.006592,0.135049,-0.124322,0.008355,0.999610,-0.002131,-0.001345,0.027799,0.567746,0.261848,-0.774082,-0.099485
44498,NaN,13.456382,-9.964488,-3.492998,3.110149,-14.718518,-1.675861,0.238039,0.177221,4.623394,-0.951660,-0.301514,-0.005127,0.136787,-0.096458,-0.035167,0.999732,0.001190,0.000886,0.023115,0.570267,0.244648,-0.779543,-0.085180
44499,NaN,11.925618,-10.913914,0.350234,1.364763,-14.808524,-3.466979,0.860187,0.455440,3.822950,-0.967773,-0.273682,-0.003662,0.121320,-0.106846,0.002765,0.999805,0.004301,0.002277,0.019114,0.589849,0.251726,-0.766465,-0.035256
44500,NaN,11.543172,-10.158589,-0.839299,2.238303,-13.443792,-2.645104,1.409477,0.861179,3.274401,-0.971191,-0.239258,-0.010498,0.117034,-0.099614,-0.009601,0.999832,0.007047,0.004306,0.016371,0.591854,0.243443,-0.768166,-0.019107
44501,NaN,8.943714,-4.595317,-1.050980,1.548838,-6.921230,-2.608524,1.479507,0.957129,2.837907,-0.976318,-0.213623,-0.017334,0.090024,-0.044597,-0.011273,0.999861,0.007397,0.004785,0.014189,0.604539,0.251915,-0.755329,0.023421
44502,NaN,7.733921,-0.481926,-4.084734,2.755442,-1.650917,-1.663535,0.601984,0.527508,2.514157,-0.983643,-0.187744,-0.013428,0.077282,-0.003724,-0.041064,0.999913,0.003010,0.002637,0.012570,0.605426,0.244155,-0.756765,0.033957
44503,NaN,10.965662,-2.649841,-1.785719,1.373942,-4.944317,0.391045,-0.069402,0.082965,2.402006,-0.990723,-0.168457,-0.018066,0.109957,-0.025185,-0.017894,0.999928,-0.000347,0.000415,0.012010,0.611723,0.245253,-0.749675,0.060280
44504,NaN,13.152654,-2.712383,0.760233,-1.284719,-6.421502,1.936107,-0.409963,-0.173314,2.111128,-0.991455,-0.147217,-0.016357,0.131796,-0.025718,0.007770,0.999942,-0.002050,-0.000867,0.010555,0.610904,0.236123,-0.752874,0.064986
44505,NaN,14.460498,-4.701508,-2.582505,2.558025,-6.768299,3.807901,-0.532427,-0.258174,1.742544,-0.991943,-0.132080,-0.010010,0.145041,-0.045821,-0.025515,0.999958,-0.002662,-0.001291,0.008713,0.614285,0.235777,-0.748514,0.082396
44506,NaN,15.577404,-4.649583,-4.495798,3.907462,-6.066160,5.432498,-0.340278,-0.245962,1.393048,-0.994385,-0.123535,-0.012451,0.156148,-0.045485,-0.044688,0.999974,-0.001701,-0.001230,0.006965,0.613176,0.229613,-0.751032,0.085111
44507,NaN,22.707401,-1.809899,-1.639508,-0.776546,-6.035410,12.199908,-0.045048,-0.129259,1.194896,-0.995117,-0.108643,-0.012695,0.227187,-0.016746,-0.016244,0.999982,-0.000225,-0.000646,0.005974,0.614871,0.230203,-0.747746,0.099074
44508,NaN,26.901208,4.526028,3.356376,-8.797457,-3.333258,16.011954,0.089682,0.174796,1.085045,-0.995361,-0.099854,-0.014893,0.268791,0.046704,0.033350,0.999985,0.000448,0.000874,0.005425,0.614875,0.226331,-0.748402,0.102947
44509,NaN,25.380573,5.701722,3.070439,-8.744996,-1.531482,14.830468,-0.041215,0.257801,0.926161,-0.997559,-0.095703,-0.012939,0.253577,0.058198,0.030366,0.999988,-0.000206,0.001289,0.004631,0.617971,0.227535,-0.743706,0.115068
44510,NaN,22.372175,6.035989,2.168816,-7.769738,-0.019796,12.125372,-0.042803,0.223556,0.854872,-0.993652,-0.087158,-0.021484,0.223485,0.061320,0.021425,0.999990,-0.000214,0.001118,0.004274,0.618353,0.224092,-0.744005,0.117805
44511,NaN,19.911452,7.212759,0.347939,-6.343052,2.490574,10.241532,0.240329,0.146521,0.714472,-0.991699,-0.080566,-0.023682,0.198858,0.072834,0.003421,0.999993,0.001202,0.000733,0.003572,0.621071,0.227740,-0.738689,0.129394
44512,NaN,19.682889,8.761668,-0.515823,-6.415719,4.381182,10.289341,0.803800,0.089017,0.507817,-0.993896,-0.076416,-0.023926,0.196603,0.088136,-0.004892,0.999989,0.004019,0.000445,0.002539,0.620149,0.228299,-0.738463,0.134041
44513,NaN,20.238906,11.297772,-0.476928,-7.845765,6.448244,11.028197,1.574197,0.166892,0.259740,-0.989746,-0.072021,-0.032471,0.202239,0.113274,-0.004047,0.999968,0.007871,0.000834,0.001299,0.621522,0.238020,-0.731568,0.147870
44514,NaN,19.832216,14.608448,-0.155273,-10.008159,9.064728,10.788525,2.273854,0.419062,-0.049803,-0.989502,-0.078613,-0.032227,0.198357,0.146043,-0.000308,0.999933,0.011369,0.002095,-0.000249,0.620344,0.244942,-0.728476,0.156523
44515,NaN,17.752868,17.816116,-0.203131,-11.756439,11.753364,9.062044,2.578122,0.823077,-0.326631,-0.991455,-0.082764,-0.042969,0.177815,0.177884,-0.000468,0.999907,0.012890,0.004115,-0.001633,0.623101,0.260335,-0.717200,0.172033
44516,NaN,14.174252,19.114213,-0.193458,-12.426239,13.143521,5.651123,2.294637,1.136095,-0.367604,-0.993164,-0.093506,-0.060059,0.142088,0.190893,-0.000550,0.999916,0.011473,0.005680,-0.001838,0.624452,0.267802,-0.711148,0.180582
44517,NaN,11.314408,16.008328,0.200256,-10.845127,10.550265,2.653143,1.413537,1.217014,0.112513,-0.982422,-0.091309,-0.070801,0.113068,0.160131,0.002446,0.999956,0.007068,0.006085,0.000563,0.629504,0.279268,-0.698819,0.193353
44518,NaN,9.222076,13.150612,0.380930,-9.097244,8.605516,0.252704,0.247549,1.362401,1.175751,-0.980957,-0.073975,-0.092285,0.091469,0.132041,0.003348,0.999959,0.001238,0.006812,0.005879,0.632756,0.274610,-0.695904,0.199815
44519,NaN,6.767301,14.072066,-0.866663,-8.700239,10.440863,-2.076583,-0.684328,1.625136,2.547698,-0.981689,-0.050537,-0.105469,0.065798,0.141535,-0.009690,0.999880,-0.003422,0.008125,0.012738,0.639234,0.271560,-0.687073,0.213463
44520,NaN,5.893128,17.402727,-0.969547,-10.653512,13.482749,-3.240438,-1.111580,1.710244,3.720325,-0.980713,-0.013916,-0.131836,0.055590,0.175023,-0.011151,0.999775,-0.005557,0.008551,0.018600,0.642503,0.253341,-0.687689,0.223811
44521,NaN,7.302206,19.093818,-1.598505,-11.438708,15.269858,-2.305722,-1.440428,1.652193,4.436626,-0.973633,0.028809,-0.151611,0.068622,0.192369,-0.017946,0.999694,-0.007201,0.008260,0.022181,0.646974,0.242247,-0.681681,0.240943
44522,NaN,7.825316,18.424538,-1.478892,-10.995173,15.191252,-2.662574,-1.432582,1.586872,4.876441,-0.973389,0.082520,-0.152588,0.073605,0.185963,-0.016713,0.999646,-0.007162,0.007933,0.024379,0.648013,0.218996,-0.683937,0.253672
44523,NaN,9.678380,11.514312,-0.115831,-7.905377,9.298799,-1.023450,-1.053163,1.307635,4.903975,-0.957275,0.118896,-0.174316,0.093909,0.117459,-0.002393,0.999664,-0.005265,0.006537,0.024517,0.648944,0.209330,-0.678490,0.273319
44524,NaN,13.631845,8.614781,-0.541980,-6.180602,8.155943,2.659918,0.070693,1.044888,4.720690,-0.952148,0.157471,-0.183594,0.134204,0.089334,-0.006093,0.999708,0.000353,0.005224,0.023601,0.645774,0.192056,-0.679745,0.289890
44525,NaN,12.116995,9.714322,-4.054815,-4.473337,11.371334,0.592631,1.717469,1.364391,4.027425,-0.944580,0.189697,-0.207520,0.118900,0.099901,-0.040514,0.999737,0.008587,0.006821,0.020135,0.643745,0.194374,-0.669409,0.315756
44526,NaN,8.027620,11.606064,-8.068855,-2.784230,15.087270,-4.444268,3.462787,2.024710,3.182200,-0.927734,0.202637,-0.235596,0.077593,0.118692,-0.079443,0.999672,0.017312,0.010122,0.015909,0.641922,0.191608,-0.660299,0.339452
44527,NaN,4.404231,13.758432,-9.878685,-3.600517,17.106754,-9.044797,4.812163,2.661888,2.593280,-0.912598,0.204834,-0.278320,0.040943,0.140461,-0.095989,0.999538,0.024057,0.013307,0.012964,0.641285,0.205644,-0.639592,0.370657
44528,NaN,1.230752,15.044842,-9.910973,-5.063488,17.023291,-13.059667,5.654161,2.944196,2.130181,-0.899414,0.198486,-0.308105,0.009266,0.153282,-0.094954,0.999435,0.028265,0.014718,0.010649,0.640577,0.211387,-0.621504,0.398383
44529,NaN,1.033558,15.141855,-8.572328,-7.250617,15.432020,-13.419445,5.851787,2.566868,1.573850,-0.890625,0.194336,-0.346680,0.008068,0.153911,-0.081357,0.999459,0.029254,0.012832,0.007868,0.637661,0.231382,-0.597483,0.427626
44530,NaN,4.355801,13.821331,-7.561661,-7.838556,14.338230,-10.094986,5.938984,1.890402,1.112956,-0.883301,0.172852,-0.372070,0.042089,0.140622,-0.071867,0.999499,0.029690,0.009450,0.005564,0.633739,0.242831,-0.579748,0.450887
44531,NaN,9.424091,13.271187,-7.945758,-8.634902,15.237627,-5.201516,5.887962,1.369059,0.749503,-0.871826,0.157959,-0.397461,0.093208,0.135337,-0.076139,0.999536,0.029435,0.006844,0.003747,0.626227,0.267982,-0.557126,0.475012
44532,NaN,15.495722,15.488920,-8.672167,-11.482147,18.160514,-0.141793,5.530294,1.308921,0.272951,-0.868896,0.132324,-0.414062,0.154190,0.157437,-0.083402,0.999595,0.027648,0.006544,0.001365,0.621562,0.281317,-0.540035,0.492832
44533,NaN,14.287749,14.531144,-7.816191,-11.708412,15.932921,-0.570737,4.708757,1.160467,-0.726777,-0.861084,0.095703,-0.428467,0.142965,0.146591,-0.075550,0.999699,0.023541,0.005802,-0.003634,0.616088,0.307857,-0.517260,0.508036
44534,NaN,11.373852,12.274804,-5.513937,-10.475974,11.947610,-2.201343,4.011218,0.848040,-1.506022,-0.857666,0.063721,-0.436768,0.114436,0.122967,-0.053159,0.999762,0.020054,0.004240,-0.007530,0.615786,0.321879,-0.502018,0.514956
44535,NaN,11.127651,9.367946,-2.467782,-8.703349,7.731376,-0.749542,3.648139,0.493878,-1.804802,-0.854492,0.029297,-0.438232,0.112060,0.093103,-0.023252,0.999790,0.018239,0.002469,-0.009023,0.610914,0.350111,-0.480515,0.522791
44536,NaN,12.297348,3.446006,1.110039,-3.574736,3.341079,2.035599,3.161269,0.137278,-2.118115,-0.853027,-0.009277,-0.437744,0.123336,0.032975,0.011545,0.999819,0.015805,0.000686,-0.010590,0.611137,0.364433,-0.468037,0.524063
44537,NaN,12.104794,-0.931410,2.103135,1.011131,1.363125,2.390763,2.580010,-0.265842,-2.684092,-0.849854,-0.043457,-0.430664,0.120878,-0.011209,0.021056,0.999826,0.012899,-0.001329,-0.013420,0.607522,0.392334,-0.449051,0.524733
44538,NaN,7.914108,0.681390,3.347903,-0.605244,-0.885264,-1.260110,1.769509,-0.953067,-3.314356,-0.846436,-0.082275,-0.408691,0.079075,0.005204,0.033907,0.999812,0.008847,-0.004765,-0.016571,0.610493,0.407575,-0.440718,0.516671
44539,NaN,6.798686,2.801281,2.643068,-2.307489,-0.499626,-2.364751,0.668421,-2.103829,-3.942438,-0.849609,-0.114258,-0.391113,0.068237,0.026579,0.027238,0.999745,0.003342,-0.010518,-0.019711,0.609880,0.434586,-0.429842,0.504398
44540,NaN,9.347471,3.392004,0.768265,-2.085247,1.761995,-0.221187,-0.438102,-3.069892,-4.405021,-0.848389,-0.150879,-0.360596,0.094060,0.031871,0.009052,0.999637,-0.002190,-0.015348,-0.022022,0.615122,0.450299,-0.430580,0.483173
44541,NaN,10.958048,2.792076,-0.400120,-0.596332,2.723031,1.152169,-1.277049,-3.617665,-4.782901,-0.853760,-0.185303,-0.338623,0.110256,0.025271,-0.002178,0.999530,-0.006384,-0.018085,-0.023911,0.617499,0.474920,-0.426333,0.459766
44542,NaN,11.116824,1.076796,-1.328533,1.731902,3.006866,0.884100,-1.838494,-3.975766,-5.217294,-0.850342,-0.219482,-0.308105,0.111633,0.007750,-0.011150,0.999420,-0.009191,-0.019875,-0.026081,0.625025,0.489226,-0.430197,0.430038
44543,NaN,10.930162,0.501624,-1.969934,3.517953,2.302229,0.476563,-2.154508,-4.312668,-5.710987,-0.855225,-0.269043,-0.279541,0.109773,0.001690,-0.017365,0.999302,-0.010770,-0.021558,-0.028548,0.668912,0.462968,-0.479742,0.328731
44544,NaN,11.744747,1.115948,-2.125750,3.808698,1.942495,1.383181,-2.413937,-4.714279,-6.210532,-0.843506,-0.303223,-0.244629,0.118172,0.007262,-0.018581,0.999167,-0.012066,-0.023565,-0.031044,0.672843,0.477150,-0.484699,0.290993
44545,NaN,14.881501,2.251710,-2.152672,4.832911,0.234780,4.596077,-2.697364,-5.028695,-6.733458,-0.839600,-0.354736,-0.211670,0.149937,0.017222,-0.018021,0.999026,-0.013482,-0.025135,-0.033656,0.696290,0.445850,-0.532586,0.180968
44546,NaN,15.800018,1.685153,-1.688114,5.789938,-1.906525,4.952066,-3.129114,-5.276167,-7.242028,-0.822754,-0.404297,-0.183105,0.158842,0.010886,-0.012899,0.998874,-0.015640,-0.026371,-0.036197,0.694986,0.458509,-0.537039,0.135474
44547,NaN,16.264243,-0.245648,-1.561164,6.627777,-5.963815,3.873857,-3.539952,-5.557992,-7.556153,-0.801514,-0.462158,-0.154297,0.162737,-0.008827,-0.010970,0.998744,-0.017692,-0.027778,-0.037765,0.696393,0.420538,-0.581158,0.020972
44548,NaN,19.702952,-0.950020,-0.386131,7.101977,-10.240062,5.473343,-3.828669,-5.451273,-7.696956,-0.788818,-0.518066,-0.129639,0.196472,-0.017073,0.001779,0.998705,-0.019135,-0.027245,-0.038468,0.688513,0.429595,-0.583601,-0.028422
44549,NaN,22.102443,-6.299747,-0.016763,6.644985,-18.104536,2.671923,-3.787927,-5.191737,-7.527858,-0.757324,-0.561035,-0.107422,0.218331,-0.071166,0.006821,0.998776,-0.018932,-0.025948,-0.037624,0.669367,0.386873,-0.619706,-0.135061
44550,NaN,25.473328,-13.171625,1.421509,6.952738,-26.572088,-1.480613,-3.450817,-4.769292,-6.985561,-0.725098,-0.625488,-0.093506,0.249463,-0.140151,0.022577,0.998957,-0.017248,-0.023838,-0.034916,0.655854,0.393342,-0.619178,-0.178202
44551,NaN,26.955179,-20.451526,1.155059,2.566083,-33.694436,-7.895912,-2.703783,-4.044732,-6.315835,-0.697754,-0.670410,-0.079834,0.262577,-0.212652,0.019747,0.999206,-0.013515,-0.020218,-0.031571,0.622227,0.348764,-0.648879,-0.264865
44552,NaN,28.208620,-23.044864,0.538160,2.259634,-36.323491,-11.266795,-1.701974,-3.046853,-5.492752,-0.657715,-0.704834,-0.074951,0.275473,-0.237994,0.011616,0.999471,-0.008508,-0.015232,-0.027459,0.607710,0.357069,-0.646182,-0.292644
44553,NaN,27.895315,-23.158444,0.304170,-3.419350,-35.942216,-13.091036,-1.043454,-2.186416,-4.392436,-0.637451,-0.737061,-0.063477,0.273714,-0.237604,0.007283,0.999685,-0.005217,-0.010931,-0.021960,0.572529,0.317031,-0.669998,-0.350434
44554,NaN,26.555132,-25.461136,0.561397,-4.003910,-35.826228,-17.166266,-0.828097,-1.539736,-3.009187,-0.615234,-0.756348,-0.061035,0.261622,-0.258536,0.008703,0.999849,-0.004140,-0.007698,-0.015045,0.563326,0.321996,-0.668082,-0.364210
44555,NaN,24.155322,-30.338864,2.049637,-9.531593,-35.220028,-23.108301,-0.772897,-1.160158,-1.527623,-0.606201,-0.767090,-0.060791,0.239098,-0.305135,0.023065,0.999947,-0.003864,-0.005801,-0.007638,0.536147,0.280332,-0.688783,-0.399422
44556,NaN,21.524489,-31.864900,2.753680,-9.906400,-33.468214,-26.183115,-0.456539,-0.832168,-0.152525,-0.604004,-0.769287,-0.060791,0.214883,-0.318748,0.029159,0.999988,-0.002283,-0.004161,-0.000763,0.533611,0.277969,-0.689880,-0.402565
44557,NaN,18.995501,-30.638097,4.344089,-13.372448,-29.618782,-26.008032,0.069833,-0.395571,0.961278,-0.612793,-0.767090,-0.054443,0.191338,-0.305479,0.043712,0.999986,0.000349,-0.001978,0.004806,0.518239,0.240453,-0.707482,-0.416028
44558,NaN,15.752166,-27.590376,6.049088,-13.621678,-25.102632,-24.986013,0.581615,0.066892,1.817303,-0.621826,-0.754395,-0.048096,0.160041,-0.274631,0.059638,0.999954,0.002908,0.000334,0.009086,0.521534,0.235660,-0.710671,-0.409162
44559,NaN,12.975160,-23.357773,6.926117,-14.118700,-20.223060,-22.204631,0.994780,0.418903,2.420203,-0.643799,-0.741455,-0.041992,0.132711,-0.232323,0.067828,0.999912,0.004974,0.002094,0.012101,0.517817,0.206706,-0.724247,-0.405715
44560,NaN,14.807198,-10.745077,5.615094,-11.995093,-14.902813,-10.300974,1.131034,0.645813,2.858745,-0.663818,-0.719971,-0.040283,0.149770,-0.105632,0.055068,0.999877,0.005655,0.003229,0.014293,0.524723,0.200568,-0.727734,-0.393501
44561,NaN,26.726864,1.749077,16.984256,-25.441954,-10.521550,5.928983,0.999498,1.172820,3.364821,-0.692627,-0.694092,-0.045166,0.267924,0.021151,0.168372,0.999829,0.004997,0.005864,0.016823,0.531077,0.178354,-0.735847,-0.380364
44562,NaN,42.950373,43.568757,11.408195,-18.975544,4.978404,49.239642,-1.876481,1.881173,5.245698,-0.717529,-0.659668,-0.077881,0.418886,0.447788,0.105944,0.999568,-0.009381,0.009405,0.026225,0.549416,0.157574,-0.731643,-0.371498
44563,NaN,32.028741,6.141503,-3.969349,-6.041454,-16.735423,17.800801,-4.374788,-0.241062,5.651866,-0.753662,-0.610352,-0.098145,0.318447,0.069549,-0.040771,0.999361,-0.021869,-0.001205,0.028253,0.563230,0.118706,-0.730527,-0.367437
44564,NaN,19.092724,-33.740508,-17.243121,0.212892,-42.010945,-15.699534,-2.479346,-2.620927,5.726104,-0.789551,-0.563232,-0.086182,0.202721,-0.333795,-0.165672,0.999427,-0.012394,-0.013102,0.028625,0.565327,0.085931,-0.736332,-0.361714
44565,NaN,8.872866,-19.008770,3.248681,-11.392783,-17.350219,-14.239890,-0.672001,-0.061654,7.120821,-0.832520,-0.505127,-0.093750,0.095406,-0.186659,0.033147,0.999361,-0.003359,-0.000308,0.035597,0.580085,0.055686,-0.740420,-0.334930
44566,NaN,-6.415730,-13.407519,-0.912698,-1.461249,-7.991336,-22.290468,-0.860872,-0.073521,5.842306,-0.853516,-0.455811,-0.098877,-0.060201,-0.135910,-0.008567,0.999564,-0.004304,-0.000368,0.029207,0.589583,0.031416,-0.740495,-0.321048
44567,NaN,10.385663,-11.838036,-1.764805,-5.250706,-14.508109,-6.207022,-1.169230,-0.197291,5.346316,-0.869873,-0.417236,-0.099609,0.106990,-0.115648,-0.016862,0.999625,-0.005845,-0.000986,0.026728,0.600870,0.011128,-0.742155,-0.296711
44568,NaN,15.630594,-14.406737,-3.885301,-5.720168,-19.184613,-1.681154,-0.377832,0.286154,4.506558,-0.890625,-0.380615,-0.108643,0.159444,-0.140571,-0.038812,0.999743,-0.001889,0.001431,0.022531,0.608485,-0.006308,-0.740795,-0.284481
44569,NaN,8.526924,-11.139415,0.335668,-5.895598,-12.235903,-6.289981,0.562082,0.668238,3.626144,-0.900391,-0.346436,-0.113525,0.087280,-0.109832,0.002757,0.999826,0.002810,0.003341,0.018130,0.621238,-0.006058,-0.742023,-0.251850
44570,NaN,10.390745,-10.102023,-0.584586,-4.966922,-12.138591,-3.622168,1.082571,0.999629,3.218345,-0.907715,-0.322754,-0.111816,0.105482,-0.099296,-0.006911,0.999843,0.005413,0.004998,0.016091,0.628935,-0.013377,-0.740067,-0.237827
44571,NaN,11.238528,-2.509028,0.239379,-3.026951,-5.170640,0.023430,0.706554,0.899322,2.818391,-0.916992,-0.299072,-0.118652,0.112733,-0.023510,0.001802,0.999884,0.003533,0.004496,0.014091,0.640195,-0.006875,-0.740407,-0.204694
44572,NaN,10.546993,-0.190379,-1.049839,-0.905074,-3.050227,0.299137,-0.193095,0.417302,2.402367,-0.920166,-0.273438,-0.123291,0.105461,-0.000647,-0.010717,0.999925,-0.000965,0.002086,0.012012,0.644146,-0.015960,-0.738735,-0.197717
44573,NaN,12.507124,-2.371949,0.380819,-2.876198,-4.838940,1.611179,-0.612905,0.045343,2.212626,-0.929443,-0.251953,-0.121582,0.125324,-0.022322,0.003850,0.999934,-0.003064,0.000227,0.011063,0.650299,-0.010147,-0.740325,-0.170079
44574,NaN,15.251200,-2.714821,0.403606,-3.361312,-5.454556,4.296667,-0.755450,-0.080151,1.942406,-0.934326,-0.234863,-0.124023,0.152764,-0.025650,0.004196,0.999946,-0.003777,-0.000401,0.009712,0.651582,-0.019862,-0.739804,-0.166545
44575,NaN,17.041674,-4.567779,-2.839778,-0.568495,-8.007083,6.153053,-0.620474,-0.110006,1.610191,-0.937012,-0.219727,-0.124268,0.170793,-0.044391,-0.028165,0.999963,-0.003102,-0.000550,0.008051,0.655358,-0.011615,-0.741893,-0.141299
44576,NaN,18.683897,-3.238556,-4.402179,0.989797,-7.127562,8.275126,-0.197954,-0.092185,1.273971,-0.935303,-0.204834,-0.128662,0.187061,-0.031238,-0.043904,0.999979,-0.000990,-0.000461,0.006370,0.655892,-0.017056,-0.741965,-0.137848
44577,NaN,26.750626,2.535491,2.884734,-5.995342,-0.937766,16.521989,0.048273,0.094486,1.133132,-0.935791,-0.196289,-0.126709,0.267370,0.026863,0.028727,0.999984,0.000241,0.000472,0.005666,0.658812,-0.004928,-0.743859,-0.112325
44578,NaN,27.404476,6.444986,3.298901,-5.783745,3.126684,17.758883,0.182559,0.303485,0.990489,-0.931641,-0.187744,-0.131104,0.273771,0.065776,0.032633,0.999986,0.000913,0.001517,0.004952,0.660494,-0.007842,-0.742926,-0.108387
44579,NaN,24.563967,6.865380,3.480180,-5.721732,4.111016,14.945942,0.259424,0.337593,0.985699,-0.934082,-0.183350,-0.131104,0.245356,0.069819,0.034478,0.999986,0.001297,0.001688,0.004928,0.663675,0.006672,-0.743398,-0.082770
44580,NaN,20.884998,8.085235,2.373766,-3.996366,5.830626,11.569991,0.539097,0.336342,0.888763,-0.932129,-0.174805,-0.137695,0.208528,0.081716,0.023606,0.999985,0.002695,0.001682,0.004444,0.665266,0.005295,-0.742523,-0.077802
44581,NaN,19.171269,9.924109,1.589696,-3.310008,7.880705,10.074224,0.882031,0.313407,0.720916,-0.934326,-0.172607,-0.139893,0.191379,0.099861,0.016036,0.999983,0.004410,0.001567,0.003605,0.667614,0.023938,-0.742380,-0.050885
44582,NaN,18.263619,11.717749,1.319571,-2.933375,9.856113,9.340839,1.288494,0.343313,0.536679,-0.927979,-0.166260,-0.144287,0.182344,0.117580,0.013639,0.999974,0.006442,0.001717,0.002683,0.668855,0.026331,-0.741607,-0.044265
44583,NaN,16.645585,13.722902,1.101728,-3.270542,12.006730,7.843683,1.661863,0.511183,0.318427,-0.923828,-0.164062,-0.144287,0.166267,0.137398,0.011733,0.999961,0.008309,0.002556,0.001592,0.670855,0.048403,-0.739799,-0.017530
44584,NaN,14.579158,15.583535,0.077855,-2.297581,14.113100,6.028514,1.821374,0.805895,0.084086,-0.921631,-0.164062,-0.150635,0.145731,0.155884,0.001611,0.999950,0.009107,0.004029,0.000420,0.673370,0.054267,-0.737239,-0.010312
44585,NaN,11.941255,15.604005,-1.124949,-1.688001,14.431051,3.462779,1.642355,1.030620,-0.089759,-0.912842,-0.170410,-0.165527,0.119427,0.156075,-0.010583,0.999953,0.008212,0.005153,-0.000449,0.676509,0.075857,-0.732414,0.012297
44586,NaN,10.942413,12.274483,-2.833994,0.423685,11.457037,2.311147,1.112152,1.071316,0.060983,-0.908691,-0.166260,-0.172119,0.109235,0.122935,-0.028242,0.999970,0.005561,0.005357,0.000305,0.679987,0.079324,-0.728723,0.016985
44587,NaN,11.030458,9.706846,-2.734803,0.356384,9.015334,2.102325,0.439748,1.137496,0.747679,-0.908936,-0.155518,-0.191406,0.109783,0.097540,-0.027759,0.999974,0.002199,0.005687,0.003738,0.683390,0.091457,-0.723444,0.035253
44588,NaN,10.062743,10.630211,-3.091679,0.693014,10.231077,1.080167,-0.294030,1.312363,1.799239,-0.903076,-0.136230,-0.202393,0.099460,0.107154,-0.031729,0.999937,-0.001470,0.006562,0.008996,0.687912,0.083705,-0.719788,0.040938
44589,NaN,8.550683,13.991631,-2.968422,-0.287629,13.797502,-0.473979,-0.897837,1.532399,2.875246,-0.897705,-0.104004,-0.215820,0.083251,0.140987,-0.030959,0.999857,-0.004489,0.007662,0.014376,0.693542,0.086662,-0.712690,0.059682
44590,NaN,7.032721,16.890130,-3.366408,-0.217555,17.070126,-2.424796,-1.155384,1.616536,3.718213,-0.903320,-0.067383,-0.241943,0.066893,0.169966,-0.035194,0.999778,-0.005776,0.008082,0.018590,0.698539,0.068902,-0.708882,0.069149
44591,NaN,6.026855,18.555226,-3.418549,-0.419622,18.970859,-4.141656,-1.597448,1.482340,4.293477,-0.891846,-0.020264,-0.249023,0.056009,0.186502,-0.036098,0.999710,-0.007986,0.007411,0.021465,0.702513,0.053452,-0.704807,0.082854
44592,NaN,5.374407,16.717392,-2.632699,-0.511169,17.228379,-5.553552,-1.636165,1.216967,4.660480,-0.884766,0.024658,-0.264893,0.049666,0.168138,-0.028010,0.999677,-0.008180,0.006084,0.023300,0.705082,0.030760,-0.702227,0.093759
44593,NaN,7.695105,12.253325,-0.776278,-1.337101,12.984756,-3.525646,-1.236592,0.856953,4.703426,-0.879883,0.065430,-0.273926,0.074006,0.124244,-0.008849,0.999695,-0.006182,0.004284,0.023515,0.705898,0.010153,-0.700337,0.105513
44594,NaN,9.608472,11.064057,-0.644562,-1.185864,12.390418,-2.054634,-0.308801,0.650537,4.386529,-0.868408,0.110352,-0.278809,0.093606,0.112701,-0.006926,0.999753,-0.001544,0.003252,0.021931,0.705704,-0.006644,-0.698253,0.119923
44595,NaN,7.649645,10.736663,-4.873456,3.001659,12.666355,-4.514333,1.194902,0.773631,3.587359,-0.866943,0.129639,-0.285645,0.074363,0.109003,-0.048377,0.999814,0.005974,0.003868,0.017936,0.706249,-0.014505,-0.694636,0.135950
44596,NaN,5.287410,11.059730,-7.911475,5.715556,13.216784,-7.471254,2.988199,1.195505,2.854177,-0.854492,0.142578,-0.309326,0.050810,0.112501,-0.077751,0.999769,0.014940,0.005977,0.014270,0.708515,-0.014677,-0.688015,0.156291
44597,NaN,5.061201,12.403914,-8.899823,5.969547,14.875698,-8.507366,4.345140,1.547837,2.319791,-0.837402,0.146973,-0.326416,0.048477,0.126509,-0.086648,0.999667,0.021723,0.007738,0.011598,0.712101,-0.007652,-0.679052,0.178161
44598,NaN,7.295924,13.880362,-9.511586,5.590107,17.280358,-7.276487,5.025464,1.665453,1.822877,-0.830811,0.144775,-0.352051,0.070900,0.141797,-0.092174,0.999608,0.025124,0.008326,0.009113,0.716045,0.002568,-0.668310,0.201580
44599,NaN,9.419105,14.628902,-9.224184,4.402573,18.770136,-5.808576,5.400082,1.652843,1.350717,-0.819580,0.134277,-0.375244,0.092445,0.149350,-0.089005,0.999579,0.026997,0.008263,0.006753,0.719732,0.016442,-0.657305,0.222857
44600,NaN,13.547378,15.060320,-8.501695,2.932896,20.420525,-2.265497,5.414658,1.620254,0.882133,-0.814941,0.125732,-0.394531,0.134129,0.153444,-0.081978,0.999591,0.027070,0.008100,0.004410,0.723334,0.031212,-0.645246,0.243868
44601,NaN,13.474523,15.085818,-8.310115,2.028138,20.504215,-2.490117,5.205672,1.745355,0.274033,-0.805420,0.106445,-0.417725,0.133827,0.153157,-0.080305,0.999622,0.026025,0.008726,0.001370,0.727391,0.047826,-0.633253,0.260009
44602,NaN,10.833763,13.173879,-6.682236,0.610596,17.453070,-4.284085,4.929683,1.561488,-0.463667,-0.791504,0.076416,-0.432129,0.108136,0.133095,-0.064398,0.999663,0.024646,0.007807,-0.002318,0.731513,0.065173,-0.620842,0.274219
44603,NaN,9.828931,11.431263,-5.910472,0.241713,15.304128,-4.528118,4.336791,1.230504,-1.005694,-0.791016,0.059326,-0.442627,0.098511,0.115072,-0.057221,0.999733,0.021682,0.006152,-0.005028,0.734901,0.083447,-0.610905,0.282404
44604,NaN,10.220320,9.355921,-4.832922,0.108094,13.160891,-3.322916,3.885484,0.800494,-1.341813,-0.787598,0.027100,-0.448486,0.102642,0.093792,-0.046919,0.999781,0.019426,0.004002,-0.006709,0.737458,0.100671,-0.601784,0.289615
44605,NaN,11.652481,5.786174,-2.678377,0.280722,9.486122,-0.519408,3.618266,0.432286,-1.662049,-0.782227,-0.002930,-0.458740,0.116946,0.057366,-0.025995,0.999799,0.018090,0.002161,-0.008310,0.738938,0.119473,-0.595019,0.292659
44606,NaN,12.926038,1.521217,-1.420623,1.886664,5.622052,1.859651,3.299031,0.109403,-2.078720,-0.783447,-0.032959,-0.456299,0.129403,0.014100,-0.014038,0.999810,0.016494,0.000547,-0.010393,0.740193,0.137661,-0.588433,0.294805
44607,NaN,13.002275,0.554139,0.070983,1.425773,3.766369,2.562427,3.004033,-0.320275,-2.531022,-0.777832,-0.071533,-0.451416,0.130077,0.003882,0.000985,0.999806,0.015019,-0.001601,-0.012654,0.740451,0.157707,-0.584337,0.292251
44608,NaN,11.194522,2.398931,2.002618,-1.332163,3.303152,1.249936,2.467206,-1.024848,-3.060820,-0.781006,-0.101562,-0.440186,0.112187,0.022019,0.020880,0.999794,0.012335,-0.005124,-0.015303,0.739831,0.177246,-0.581991,0.287262
44609,NaN,9.892063,3.697146,2.508608,-2.650189,3.270057,0.191306,1.320155,-2.070333,-3.558631,-0.777832,-0.133789,-0.418213,0.099287,0.035036,0.026348,0.999766,0.006600,-0.010351,-0.017792,0.737207,0.196361,-0.585345,0.274482
44610,NaN,9.748345,3.969685,1.600298,-2.108116,3.566578,-0.006299,-0.127977,-2.983800,-3.902691,-0.783447,-0.159424,-0.398682,0.097980,0.037799,0.017438,0.999698,-0.000640,-0.014917,-0.019511,0.733733,0.211344,-0.592509,0.256713
44611,NaN,9.466035,2.925868,0.910437,-0.948724,2.639869,-0.267787,-1.344641,-3.719138,-4.219724,-0.791260,-0.187500,-0.370361,0.095062,0.027324,0.010682,0.999582,-0.006722,-0.018593,-0.021096,0.728859,0.224544,-0.603809,0.231860
44612,NaN,10.024976,1.658105,-0.216299,0.788623,1.810768,0.155444,-2.263841,-4.299435,-4.623385,-0.801025,-0.215332,-0.340088,0.100615,0.014248,-0.000172,0.999438,-0.011317,-0.021493,-0.023113,0.723372,0.235107,-0.616569,0.203226
44613,NaN,11.221212,2.082382,-1.415749,1.671201,2.141698,1.359828,-2.841851,-4.707466,-5.041028,-0.806396,-0.245361,-0.311768,0.112982,0.017804,-0.011771,0.999304,-0.014206,-0.023532,-0.025199,0.716414,0.245824,-0.630598,0.169316
44614,NaN,12.225526,2.974516,-2.104337,1.892820,2.351768,2.578957,-3.300147,-4.955172,-5.483245,-0.809814,-0.279785,-0.277100,0.123482,0.026052,-0.018444,0.999181,-0.016496,-0.024769,-0.027409,0.708904,0.255281,-0.643882,0.133052
44615,NaN,13.308961,2.752743,-2.718916,2.665977,1.288507,3.723480,-3.642634,-5.172926,-5.967751,-0.806152,-0.322754,-0.248535,0.134474,0.023069,-0.024170,0.999055,-0.018207,-0.025856,-0.029829,0.699745,0.265454,-0.656796,0.092249
44616,NaN,15.041611,1.548459,-3.379979,3.957541,-1.008193,5.128559,-3.761206,-5.287427,-6.470171,-0.798340,-0.363525,-0.215576,0.151626,0.010003,-0.030023,0.998951,-0.018799,-0.026428,-0.032340,0.689627,0.275698,-0.667749,0.050161
44617,NaN,17.855998,0.017555,-3.912082,5.192350,-4.443099,7.134342,-3.570756,-5.313305,-6.963892,-0.788086,-0.417236,-0.182617,0.179360,-0.006703,-0.034283,0.998882,-0.017847,-0.026557,-0.034806,0.677248,0.288115,-0.676972,0.005709
44618,NaN,18.712681,-1.688173,-3.353713,5.125507,-8.043018,6.711050,-3.316296,-5.029254,-7.345854,-0.766602,-0.475098,-0.158203,0.187085,-0.024256,-0.028470,0.998872,-0.016575,-0.025137,-0.036715,0.664453,0.301563,-0.682749,-0.037625
44619,NaN,16.618497,-5.243066,-1.474512,4.087662,-12.060121,2.164873,-2.983719,-4.809484,-7.433412,-0.738770,-0.535156,-0.131348,0.164357,-0.058736,-0.009932,0.998909,-0.014913,-0.024039,-0.037154,0.649779,0.315936,-0.686629,-0.080698
44620,NaN,17.725052,-9.996154,-1.372251,5.048470,-17.482931,-0.616380,-2.559231,-4.644768,-7.109045,-0.706787,-0.593262,-0.095947,0.173781,-0.106311,-0.008325,0.999017,-0.012792,-0.023216,-0.035534,0.634373,0.329838,-0.688781,-0.119825
44621,NaN,23.126609,-14.684767,0.857196,3.700398,-25.715494,-1.104045,-1.859337,-4.283115,-6.475115,-0.670654,-0.646973,-0.082275,0.226081,-0.154106,0.014862,0.999203,-0.009294,-0.021410,-0.032367,0.617672,0.343228,-0.690537,-0.154383
44622,NaN,26.610481,-20.308093,2.189815,3.311973,-32.926918,-4.358212,-0.886326,-3.436709,-5.846248,-0.624023,-0.685791,-0.055664,0.259582,-0.210620,0.027319,0.999415,-0.004431,-0.017180,-0.029226,0.602456,0.357819,-0.690031,-0.181300
44623,NaN,28.317826,-23.013157,4.006433,1.838633,-36.581490,-7.439977,-0.039717,-2.413614,-5.035732,-0.586182,-0.724365,-0.037842,0.276755,-0.237146,0.043477,0.999610,-0.000199,-0.012067,-0.025175,0.589090,0.372620,-0.688393,-0.200605
44624,NaN,27.705405,-23.359088,3.886697,1.911502,-36.393608,-9.829082,0.164113,-1.651898,-3.919670,-0.553223,-0.748047,-0.026611,0.272073,-0.238989,0.040933,0.999774,0.000821,-0.008259,-0.019597,0.579035,0.384852,-0.685965,-0.214615
44625,NaN,24.918701,-25.096244,4.611965,2.278083,-35.311450,-14.269882,-0.071187,-1.193199,-2.490180,-0.531250,-0.763184,-0.015381,0.245755,-0.254020,0.047683,0.999905,-0.000356,-0.005966,-0.012451,0.574115,0.397317,-0.681415,-0.219555
44626,NaN,21.862446,-29.041440,6.077098,1.915956,-35.320730,-20.159498,-0.332132,-1.056836,-0.952000,-0.522705,-0.760986,-0.013428,0.216912,-0.291347,0.062404,0.999973,-0.001661,-0.005284,-0.004760,0.570115,0.398436,-0.682175,-0.225512
44627,NaN,19.462989,-31.267878,6.414994,2.114840,-34.743271,-23.453338,-0.224800,-0.822045,0.393812,-0.522705,-0.760986,-0.002686,0.194978,-0.312222,0.065302,0.999989,-0.001124,-0.004110,0.001969,0.568762,0.395177,-0.685289,-0.225219
44628,NaN,17.514741,-29.637975,7.491767,0.525760,-32.491358,-23.425911,0.193088,-0.388030,1.432210,-0.527344,-0.750244,0.005859,0.177119,-0.295188,0.074975,0.999972,0.000965,-0.001940,0.007161,0.568648,0.390370,-0.689422,-0.221244
44629,NaN,14.558798,-26.112314,8.522667,-1.279654,-28.466395,-22.240095,0.592859,0.042949,2.125639,-0.549316,-0.737549,0.011963,0.148372,-0.259807,0.084424,0.999939,0.002964,0.000215,0.010628,0.570833,0.384398,-0.694207,-0.210867
44630,NaN,15.283593,-18.227489,8.089309,-3.162006,-24.311033,-15.308999,0.788336,0.287524,2.585263,-0.558350,-0.726807,0.018066,0.155293,-0.180594,0.079957,0.999908,0.003942,0.001438,0.012926,0.572989,0.377942,-0.699123,-0.200179
44631,NaN,11.278128,-6.247689,2.813040,-1.443384,-12.900060,-7.438433,0.624194,0.224267,2.866542,-0.582520,-0.709473,0.021973,0.113693,-0.060939,0.027811,0.999892,0.003121,0.001121,0.014332,0.576509,0.369589,-0.704408,-0.186685
44632,NaN,53.303297,45.871920,21.683821,-37.581430,-10.933409,52.498461,-1.329170,1.623873,4.641212,-0.614014,-0.668701,-0.006592,0.523897,0.472357,0.209450,0.999676,-0.006645,0.008118,0.023204,0.588829,0.350807,-0.706835,-0.174926
44633,NaN,54.283047,32.061193,5.265342,-16.941205,-14.383987,49.403476,-4.627976,1.105255,6.379735,-0.647705,-0.629883,-0.037354,0.532467,0.338764,0.041991,0.999208,-0.023134,0.005525,0.031890,0.607396,0.315304,-0.709664,-0.167423
44634,NaN,11.202848,-48.524333,-11.245951,20.878179,-42.756897,-28.294219,-3.843775,-2.263595,4.973733,-0.681152,-0.597900,-0.025146,0.125273,-0.484262,-0.101777,0.999442,-0.019215,-0.011316,0.024864,0.609249,0.283916,-0.720765,-0.169430
44635,NaN,26.431804,-34.833571,8.693666,-4.107126,-44.380058,-9.469642,-0.080282,-0.001411,8.000242,-0.726074,-0.539795,-0.039062,0.277961,-0.337362,0.087076,0.999200,-0.000401,-0.000007,0.039991,0.616986,0.254560,-0.731060,-0.141698
44636,NaN,-14.669025,0.092311,2.295684,-0.660213,7.433656,-22.645595,0.890508,1.377247,6.408318,-0.753662,-0.490479,-0.040039,-0.146455,-0.003878,0.023956,0.999453,0.004452,0.006885,0.032036,0.625088,0.234722,-0.735199,-0.116846
44637,NaN,5.349417,-10.972788,-10.245720,11.516853,-10.860337,-7.976851,-1.343139,-0.056087,5.743285,-0.780762,-0.451904,-0.047119,0.056657,-0.108816,-0.101709,0.999565,-0.006715,-0.000280,0.028712,0.630751,0.209251,-0.740514,-0.100031
44638,NaN,12.946722,-16.974148,-1.983919,3.407986,-20.456151,-4.380363,-0.380134,0.091982,5.066551,-0.799316,-0.413330,-0.039307,0.133703,-0.166427,-0.019582,0.999677,-0.001900,0.000460,0.025330,0.633820,0.189271,-0.745096,-0.085330
44639,NaN,13.393081,-13.289370,3.486408,-2.684376,-17.581221,-2.617123,0.778398,0.433599,4.290302,-0.817871,-0.376709,-0.046387,0.136816,-0.130113,0.034060,0.999760,0.003892,0.002168,0.021450,0.637255,0.175713,-0.747572,-0.064553
44640,NaN,11.527265,-10.736673,-1.441783,1.989742,-13.613370,-2.007937,1.733995,1.259712,3.538214,-0.829590,-0.348877,-0.046875,0.117049,-0.105172,-0.016070,0.999786,0.008669,0.006298,0.017690,0.641446,0.168379,-0.747067,-0.045676
44641,NaN,10.224339,-6.837035,-1.285556,1.486621,-9.188532,-1.671683,1.936601,1.532489,3.088335,-0.836670,-0.329590,-0.055664,0.103176,-0.066648,-0.014295,0.999805,0.009682,0.007662,0.015441,0.646891,0.163164,-0.744560,-0.023244
44642,NaN,7.348744,1.243900,-0.771941,-0.315043,-0.587595,-2.349519,0.799708,0.889951,2.675614,-0.843994,-0.301514,-0.058350,0.073277,0.013452,-0.007993,0.999893,0.003998,0.004450,0.013378,0.649794,0.155874,-0.743877,-0.010880
44643,NaN,12.302186,-1.386489,-3.222341,2.112143,-3.520923,2.302762,-0.209374,0.209761,2.466680,-0.855469,-0.280273,-0.056396,0.123147,-0.012380,-0.032339,0.999923,-0.001047,0.001049,0.012333,0.651433,0.145799,-0.744565,0.000311
44644,NaN,15.401091,-1.528100,-1.757395,0.318562,-4.309261,5.151817,-0.342437,-0.037251,2.224674,-0.851807,-0.265137,-0.061035,0.154172,-0.013597,-0.017521,0.999937,-0.001712,-0.000186,0.011123,0.651500,0.136390,-0.746262,0.006260
44645,NaN,16.293042,-4.470540,-4.468831,3.413504,-6.425504,6.076721,-0.334578,-0.097278,1.781567,-0.860840,-0.250244,-0.056885,0.163342,-0.043326,-0.044536,0.999959,-0.001673,-0.000486,0.008908,0.651749,0.128427,-0.747346,0.014252
44646,NaN,20.136240,-3.319651,-1.264177,-0.468576,-6.310587,9.630425,-0.075645,0.086046,1.583936,-0.861328,-0.237305,-0.061523,0.201611,-0.031605,-0.012716,0.999968,-0.000378,0.000430,0.007920,0.651987,0.122248,-0.748065,0.019190
44647,NaN,23.608662,2.663468,2.694531,-5.991280,-1.391472,13.293221,0.019351,0.258650,1.353003,-0.865723,-0.230957,-0.061523,0.235934,0.028229,0.026643,0.999976,0.000097,0.001293,0.006765,0.653154,0.116981,-0.747644,0.027087
44648,NaN,24.834173,5.207126,3.864634,-7.801829,1.002490,14.618928,-0.158164,0.275458,1.193497,-0.866211,-0.218018,-0.066162,0.248078,0.053583,0.038263,0.999981,-0.000791,0.001377,0.005967,0.654103,0.111959,-0.747449,0.030559
44649,NaN,23.598920,4.341318,3.412611,-7.008331,0.783851,13.374902,-0.156305,0.270024,1.117419,-0.873047,-0.209473,-0.068359,0.235787,0.044757,0.033773,0.999983,-0.000782,0.001350,0.005587,0.655413,0.107160,-0.746725,0.036789
44650,NaN,20.600223,4.738929,2.054460,-5.401980,2.015732,10.627452,0.209310,0.314964,0.974879,-0.875488,-0.200928,-0.064209,0.205800,0.048371,0.020271,0.999986,0.001047,0.001575,0.004874,0.656289,0.104142,-0.746166,0.040939
44651,NaN,18.871507,6.175354,1.369273,-4.826762,3.959469,9.086174,0.752233,0.370510,0.759733,-0.873291,-0.198730,-0.072754,0.188504,0.062419,0.013577,0.999984,0.003761,0.001853,0.003799,0.657530,0.103769,-0.744628,0.049154
44652,NaN,17.798023,8.163811,0.681179,-4.496913,6.241767,8.206715,1.330608,0.425327,0.489350,-0.873535,-0.192139,-0.070801,0.177795,0.082027,0.006978,0.999973,0.006653,0.002127,0.002447,0.658285,0.106210,-0.743136,0.055941
44653,NaN,16.444316,10.509422,-0.477173,-3.864269,8.979394,7.084885,1.831789,0.512099,0.175966,-0.871338,-0.192139,-0.074951,0.164339,0.105279,-0.004229,0.999954,0.009159,0.002560,0.000880,0.659546,0.111602,-0.740403,0.065938
44654,NaN,14.795616,12.617375,-1.916739,-2.980826,11.490180,5.707303,2.142562,0.637084,-0.162080,-0.873535,-0.192139,-0.070801,0.147999,0.126253,-0.018287,0.999937,0.010713,0.003185,-0.000810,0.660722,0.119046,-0.737458,0.073692
44655,NaN,13.938024,12.900884,-3.155541,-1.980386,12.154435,4.986097,2.193487,0.808716,-0.472527,-0.875488,-0.200684,-0.072754,0.139560,0.129019,-0.030705,0.999929,0.010967,0.004043,-0.002363,0.662906,0.127952,-0.733054,0.082555
44656,NaN,13.890430,11.257306,-4.536536,-0.310040,10.952860,5.026075,1.958345,0.827572,-0.620379,-0.870850,-0.207275,-0.074707,0.139067,0.112583,-0.044838,0.999939,0.009792,0.004138,-0.003102,0.664902,0.136362,-0.729061,0.088207
44657,NaN,14.145574,7.958948,-4.550105,0.666660,7.841324,5.094180,1.493462,0.880922,-0.267470,-0.873291,-0.202881,-0.085693,0.141362,0.079740,-0.045529,0.999962,0.007467,0.004405,-0.001337,0.667507,0.142136,-0.724746,0.094737
44658,NaN,13.546947,8.439210,-3.498119,-0.421079,8.083183,4.380953,0.824283,1.110215,0.620971,-0.869141,-0.196533,-0.089844,0.135011,0.084957,-0.035382,0.999971,0.004121,0.005551,0.003105,0.670631,0.142102,-0.721070,0.100590
44659,NaN,12.018504,11.210579,-3.585032,-1.132272,11.039453,2.828988,0.255598,1.559627,1.645184,-0.873779,-0.181396,-0.105225,0.118974,0.113134,-0.036637,0.999935,0.001278,0.007798,0.008226,0.675441,0.136437,-0.716413,0.109164
44660,NaN,9.952010,15.143642,-3.828713,-2.025803,15.216849,0.548061,-0.291618,1.917391,2.727970,-0.872559,-0.157715,-0.120605,0.097068,0.152715,-0.039448,0.999860,-0.001458,0.009587,0.013639,0.680925,0.124611,-0.711857,0.118631
44661,NaN,6.528365,21.254412,-3.645751,-3.929339,21.278495,-3.537694,-0.998212,1.962187,3.606988,-0.878174,-0.114990,-0.136230,0.061070,0.213483,-0.038134,0.999777,-0.004991,0.009810,0.018034,0.686418,0.107416,-0.707528,0.129216
44662,NaN,3.875366,20.658449,-2.877582,-4.025541,20.645037,-7.063077,-1.772021,1.501970,4.273607,-0.879395,-0.082764,-0.145264,0.034105,0.207079,-0.030877,0.999704,-0.008859,0.007509,0.021366,0.689718,0.085211,-0.705603,0.138389
44663,NaN,6.572730,12.253219,-2.749580,-1.330090,13.069412,-4.494678,-1.720321,0.965524,4.714805,-0.880859,-0.037598,-0.150146,0.062682,0.123790,-0.028865,0.999674,-0.008601,0.004827,0.023571,0.690542,0.062289,-0.704999,0.149159
44664,NaN,11.141370,11.020909,0.425654,-4.056208,11.885351,-0.431550,-0.877804,0.758224,4.883327,-0.878418,0.013672,-0.144531,0.108693,0.112901,0.003349,0.999685,-0.004389,0.003791,0.024414,0.689629,0.041457,-0.704333,0.163120
44665,NaN,12.714982,13.130257,-3.986200,-0.509071,15.868773,0.078075,0.250195,0.890209,4.439828,-0.870605,0.039551,-0.157715,0.124014,0.134129,-0.040252,0.999743,0.001251,0.004451,0.022197,0.689094,0.026344,-0.701611,0.179437
44666,NaN,9.152161,15.258327,-8.226795,2.953394,18.685401,-4.681827,2.046665,1.566010,3.794760,-0.869385,0.065186,-0.170898,0.087955,0.155111,-0.081387,0.999737,0.010232,0.007829,0.018972,0.690732,0.018667,-0.694693,0.199855
44667,NaN,4.106637,14.789542,-9.187169,3.840143,17.464440,-10.233353,3.461110,2.115193,3.188167,-0.861572,0.090820,-0.190674,0.037729,0.150080,-0.089698,0.999667,0.017304,0.010575,0.015939,0.694506,0.017803,-0.683948,0.222619
44668,NaN,1.965066,13.206878,-9.054705,3.733195,15.461406,-12.498693,4.426117,2.212977,2.471028,-0.853271,0.101562,-0.205811,0.017019,0.134253,-0.087790,0.999618,0.022128,0.011063,0.012354,0.698663,0.022247,-0.671295,0.246451
44669,NaN,3.969208,12.544079,-8.481553,2.752427,15.373358,-10.848166,4.870458,1.943476,1.891634,-0.851074,0.101807,-0.220703,0.037684,0.127825,-0.082095,0.999612,0.024349,0.009716,0.009457,0.702190,0.030821,-0.658595,0.268761
44670,NaN,6.635357,11.513448,-8.131884,2.165574,15.361219,-8.395421,5.166234,1.678111,1.467335,-0.844971,0.112549,-0.233643,0.064828,0.117672,-0.078849,0.999604,0.025828,0.008389,0.007336,0.704669,0.041854,-0.645726,0.291080
44671,NaN,9.776872,11.704138,-8.341385,1.606312,16.850954,-5.866722,5.217407,1.428011,1.032917,-0.842529,0.104004,-0.244385,0.096571,0.119677,-0.081007,0.999621,0.026084,0.007139,0.005164,0.706567,0.055097,-0.633388,0.310721
44672,NaN,14.324962,14.805162,-9.003160,-0.071076,21.428824,-3.015003,4.856866,1.403380,0.436922,-0.837891,0.095215,-0.248535,0.142303,0.150507,-0.087397,0.999678,0.024282,0.007016,0.002184,0.708766,0.068668,-0.620801,0.327936
44673,NaN,13.109877,15.462036,-8.355588,-1.590042,21.151950,-4.262941,4.217360,1.278938,-0.515829,-0.833252,0.084717,-0.259033,0.130976,0.156010,-0.081114,0.999754,0.021085,0.006394,-0.002579,0.712122,0.083431,-0.609514,0.338253
44674,NaN,10.649408,12.974697,-6.438225,-2.227951,17.248441,-5.261091,3.713696,0.944565,-1.245903,-0.832764,0.069580,-0.254395,0.107006,0.130253,-0.062471,0.999797,0.018567,0.004723,-0.006229,0.715412,0.098832,-0.599226,0.345465
44675,NaN,11.451887,9.812574,-3.437416,-2.864557,13.405346,-2.648085,3.425389,0.596455,-1.524425,-0.834229,0.050293,-0.258545,0.115165,0.097823,-0.033040,0.999820,0.017126,0.002982,-0.007622,0.718172,0.115041,-0.590923,0.349006
44676,NaN,12.903691,3.930084,-0.263105,-1.503688,7.649704,1.198046,2.874179,0.409679,-1.762094,-0.829590,0.039551,-0.251953,0.129372,0.038197,-0.002342,0.999856,0.014370,0.002048,-0.008810,0.720699,0.129833,-0.583337,0.351362
44677,NaN,12.414888,-0.325593,0.480143,0.867078,3.751540,2.003954,2.194211,0.129821,-2.260975,-0.826660,0.022461,-0.251465,0.124104,-0.004711,0.004675,0.999876,0.010971,0.000649,-0.011304,0.723661,0.144599,-0.578104,0.348140
44678,NaN,10.490442,1.098268,1.378115,-0.727748,3.345044,0.258398,1.595025,-0.408632,-2.868783,-0.834717,0.000977,-0.240479,0.105018,0.009365,0.014075,0.999863,0.007975,-0.002043,-0.014343,0.726220,0.159350,-0.574653,0.342033
44679,NaN,8.854495,2.956573,2.927898,-3.129977,2.890284,-1.006195,0.711846,-1.373849,-3.511085,-0.838135,-0.022705,-0.223145,0.088840,0.027902,0.029990,0.999816,0.003559,-0.006869,-0.017554,0.727636,0.174831,-0.576128,0.328720
44680,NaN,9.765835,2.579955,1.527579,-1.636245,3.399974,-0.320197,-0.535261,-2.464014,-3.982625,-0.841797,-0.048340,-0.188477,0.097949,0.023894,0.016416,0.999722,-0.002676,-0.012319,-0.019911,0.727348,0.188353,-0.582330,0.310450
44681,NaN,10.737640,2.093797,0.090472,-0.032231,3.691591,0.484594,-1.625110,-3.174572,-4.308288,-0.840820,-0.072021,-0.162354,0.107764,0.018635,0.002456,0.999609,-0.008124,-0.015871,-0.021539,0.726034,0.200336,-0.592612,0.285572
44682,NaN,10.289165,0.286669,-0.318099,1.456619,1.939635,0.194053,-2.379869,-3.633912,-4.713661,-0.848633,-0.097900,-0.129883,0.102956,0.000417,-0.001325,0.999486,-0.011897,-0.018166,-0.023564,0.724008,0.210744,-0.604174,0.257632
44683,NaN,9.824900,-0.627941,-1.231767,2.696420,1.066501,-0.326213,-2.807921,-4.047291,-5.168706,-0.847656,-0.132324,-0.090820,0.098261,-0.008972,-0.010216,0.999363,-0.014037,-0.020232,-0.025838,0.720854,0.221698,-0.617046,0.224663
44684,NaN,10.302622,0.139094,-1.898323,2.847988,1.375903,0.172898,-3.063707,-4.379432,-5.599256,-0.844238,-0.175293,-0.051514,0.103389,-0.001768,-0.016711,0.999251,-0.015315,-0.021892,-0.027989,0.716489,0.232678,-0.629600,0.190021
44685,NaN,11.671476,0.374362,-1.538000,2.615424,0.452810,1.659549,-3.228752,-4.600536,-6.049337,-0.844727,-0.220215,-0.018799,0.117065,-0.000014,-0.012709,0.999148,-0.016139,-0.022996,-0.030238,0.710715,0.244639,-0.641974,0.151345
44686,NaN,13.719089,-0.366552,-1.334166,3.060839,-1.511778,3.542597,-3.459868,-4.720803,-6.510001,-0.832275,-0.273926,0.016357,0.137233,-0.008325,-0.009985,0.999042,-0.017294,-0.023596,-0.032540,0.704042,0.256572,-0.652786,0.111203
44687,NaN,13.207770,-2.177772,-0.524315,3.042670,-4.520593,2.420522,-3.635410,-4.833810,-6.969676,-0.806396,-0.338379,0.053955,0.131279,-0.026414,-0.001611,0.998936,-0.018171,-0.024160,-0.034836,0.695763,0.269144,-0.662539,0.067221
44688,NaN,13.669778,-3.989781,0.160890,3.031622,-7.606822,1.832341,-3.695105,-4.943187,-7.301264,-0.782959,-0.400635,0.089355,0.135014,-0.044768,0.005758,0.998858,-0.018468,-0.024707,-0.036492,0.686023,0.281822,-0.670392,0.022873
44689,NaN,14.756507,-5.771337,0.076067,3.515581,-10.585133,1.433404,-3.764964,-4.925651,-7.436757,-0.744385,-0.460938,0.120361,0.145189,-0.063069,0.005511,0.998828,-0.018817,-0.024619,-0.037169,0.674494,0.294168,-0.676742,-0.023306
44690,NaN,18.058142,-8.997318,-0.203827,4.627683,-15.715639,1.951395,-3.774879,-4.835163,-7.208863,-0.699219,-0.518799,0.138672,0.177135,-0.096363,0.004052,0.998880,-0.018867,-0.024167,-0.036031,0.662096,0.304931,-0.681246,-0.067456
44691,NaN,22.270732,-13.658960,-0.836290,6.105136,-22.592606,1.811082,-3.588041,-4.563305,-6.639649,-0.654785,-0.563965,0.160889,0.218085,-0.143942,-0.000812,0.999028,-0.017934,-0.022809,-0.033187,0.648749,0.313818,-0.684608,-0.109334
44692,NaN,26.375967,-19.485503,-2.457153,8.407448,-30.142042,0.269116,-3.015614,-3.972575,-5.965136,-0.610107,-0.613525,0.172607,0.258167,-0.202900,-0.016386,0.999244,-0.015074,-0.019858,-0.029818,0.636136,0.322042,-0.685969,-0.145144
44693,NaN,28.319927,-22.778474,-2.501200,8.242471,-34.664087,-2.253275,-2.104578,-3.096334,-5.216738,-0.566406,-0.635010,0.186035,0.277444,-0.235288,-0.018237,0.999485,-0.010521,-0.015479,-0.026079,0.624479,0.330657,-0.685831,-0.174149
44694,NaN,28.089582,-25.088793,-2.271522,7.782142,-36.701058,-5.835630,-1.204367,-2.246498,-4.278393,-0.528809,-0.660889,0.199463,0.275662,-0.256941,-0.018064,0.999690,-0.006021,-0.011231,-0.021390,0.614850,0.339506,-0.684512,-0.195292
44695,NaN,25.734325,-27.928150,-1.711379,7.432852,-37.261143,-10.990361,-0.445117,-1.519808,-3.152433,-0.507080,-0.669434,0.208252,0.253016,-0.283327,-0.014552,0.999844,-0.002225,-0.007599,-0.015761,0.607114,0.347074,-0.683661,-0.208709
44696,NaN,22.780301,-29.885573,-0.392021,6.439809,-36.565224,-15.618823,0.088143,-1.075759,-1.884211,-0.485596,-0.671631,0.217041,0.224991,-0.300983,-0.002837,0.999941,0.000441,-0.005379,-0.009421,0.601284,0.352637,-0.683710,-0.215978
44697,NaN,19.977410,-29.467617,0.659448,5.396090,-34.283249,-17.775686,0.592746,-0.734377,-0.586505,-0.481445,-0.667480,0.223389,0.198885,-0.295280,0.006451,0.999985,0.002964,-0.003672,-0.002933,0.597205,0.355198,-0.685928,-0.216063
44698,NaN,17.315703,-27.552714,2.869131,3.011998,-31.319287,-18.601451,0.953682,-0.405669,0.572580,-0.490479,-0.654541,0.236084,0.173888,-0.275164,0.027731,0.999982,0.004768,-0.002028,0.002863,0.594730,0.355635,-0.689176,-0.211796
44699,NaN,15.026612,-24.888133,4.671546,0.936577,-28.207559,-18.207849,1.157115,-0.109336,1.469638,-0.497314,-0.643799,0.252930,0.152066,-0.248033,0.045362,0.999956,0.005785,-0.000547,0.007348,0.594155,0.353392,-0.693692,-0.202202
44700,NaN,12.628688,-21.832869,5.751235,-0.548275,-24.705750,-17.463249,1.327439,0.139673,2.091935,-0.509033,-0.622314,0.265381,0.128603,-0.217367,0.055978,0.999923,0.006637,0.000698,0.010459,0.594365,0.350191,-0.698263,-0.191117
44701,NaN,14.732130,-12.696611,4.925157,-2.060745,-19.939104,-8.999631,1.292231,0.219077,2.585124,-0.531006,-0.603027,0.269287,0.149002,-0.125361,0.048276,0.999895,0.006461,0.001095,0.012925,0.595774,0.344695,-0.703561,-0.176751
44702,NaN,14.984297,1.636095,9.605134,-10.479379,-10.716447,-0.076351,1.080021,0.434426,2.824468,-0.553223,-0.588135,0.275391,0.149805,0.017959,0.095820,0.999883,0.005400,0.002172,0.014122,0.597869,0.338317,-0.708008,-0.163765
44703,NaN,44.776533,39.511139,18.560268,-31.181626,-3.479770,44.274085,-1.429339,1.459534,4.587433,-0.579834,-0.562256,0.253418,0.439852,0.406559,0.179495,0.999685,-0.007146,0.007297,0.022935,0.609638,0.318501,-0.710072,-0.150655
44704,NaN,41.969481,25.057822,0.218317,-8.931129,-6.424794,37.806311,-4.418549,-0.006716,5.765984,-0.610840,-0.538574,0.235840,0.412240,0.262501,-0.003515,0.999340,-0.022088,-0.000034,0.028824,0.620591,0.284350,-0.715478,-0.148674
44705,NaN,14.377292,-33.458454,-13.624097,19.011383,-33.669483,-13.843391,-3.239027,-2.359006,4.746735,-0.629150,-0.504150,0.237305,0.153243,-0.333151,-0.129067,0.999518,-0.016193,-0.011793,0.023730,0.620811,0.255344,-0.726540,-0.146739
44706,NaN,23.639148,-35.150358,7.015584,-2.879384,-42.818795,-8.761484,-0.042483,-0.326709,7.026639,-0.658691,-0.457031,0.234375,0.248426,-0.342900,0.070629,0.999382,-0.000212,-0.001633,0.035126,0.624451,0.229290,-0.736044,-0.125408
44707,NaN,-8.866711,-1.728978,-0.280586,1.602296,2.626735,-18.309443,0.838881,1.001386,6.004283,-0.681641,-0.418457,0.235840,-0.088108,-0.019930,-0.002444,0.999528,0.004194,0.005006,0.030017,0.631332,0.210095,-0.739803,-0.099858
44708,NaN,5.127446,-11.423471,-4.690973,5.999672,-11.903812,-8.784041,-0.710405,-0.203270,5.281841,-0.708496,-0.386230,0.235107,0.054317,-0.112992,-0.046453,0.999644,-0.003552,-0.001016,0.026406,0.633740,0.188137,-0.745375,-0.085987
44709,NaN,14.078296,-13.718688,-3.967706,4.379765,-17.366022,-0.795458,-0.326237,-0.051297,4.762123,-0.716309,-0.347656,0.238770,0.144007,-0.133848,-0.039420,0.999715,-0.001631,-0.000256,0.023808,0.636183,0.169008,-0.749555,-0.069819
44710,NaN,10.813447,-11.209647,1.225943,-0.818686,-14.167045,-3.279514,0.488374,0.297548,3.947801,-0.732422,-0.317627,0.233887,0.110337,-0.109962,0.011826,0.999801,0.002442,0.001488,0.019738,0.638138,0.155832,-0.751966,-0.055160
44711,NaN,12.017163,-9.738142,-0.710376,0.732106,-12.586960,-0.826365,1.263532,0.847338,3.337199,-0.746094,-0.293945,0.231445,0.121740,-0.095309,-0.008224,0.999832,0.006317,0.004236,0.016685,0.641519,0.147223,-0.751950,-0.036732
44712,NaN,10.727637,-5.616053,-1.992727,1.548093,-7.813790,-0.478518,1.447115,1.105186,2.898992,-0.749023,-0.270264,0.230957,0.107960,-0.054450,-0.020921,0.999854,0.007235,0.005526,0.014494,0.645049,0.141141,-0.750695,-0.021168
44713,NaN,7.974373,-0.242773,-2.889525,1.850278,-1.558692,-1.679938,0.609140,0.641394,2.531931,-0.760742,-0.246826,0.224121,0.079672,-0.001330,-0.029156,0.999910,0.003046,0.003207,0.012659,0.647523,0.133341,-0.750247,-0.007960
44714,NaN,11.679908,-2.549346,-2.758693,1.674314,-4.350606,1.535999,-0.301707,0.112595,2.319955,-0.763428,-0.231689,0.232666,0.117069,-0.024178,-0.027616,0.999931,-0.001509,0.000563,0.011600,0.648196,0.123651,-0.751365,-0.001498
44715,NaN,14.340297,-2.322460,-1.125967,-0.354369,-4.582624,4.013831,-0.406379,-0.050003,2.039454,-0.768066,-0.218994,0.232422,0.143633,-0.021783,-0.011179,0.999946,-0.002032,-0.000250,0.010197,0.648434,0.114345,-0.752613,0.005668
44716,NaN,15.580122,-4.127646,-4.026411,2.549471,-5.848450,5.526160,-0.446718,-0.134906,1.636550,-0.770752,-0.208252,0.229980,0.156160,-0.040089,-0.040068,0.999964,-0.002234,-0.000675,0.008183,0.648113,0.106732,-0.753971,0.009223
44717,NaN,18.268855,-3.503714,-2.983647,0.987230,-5.515347,8.174267,-0.261399,-0.070465,1.353251,-0.770752,-0.201660,0.225586,0.182931,-0.033839,-0.029727,0.999976,-0.001307,-0.000352,0.006766,0.648051,0.100471,-0.754800,0.014581
44718,NaN,23.385700,1.824315,1.674919,-5.236211,-1.434243,13.068373,-0.123840,0.006811,1.189639,-0.775635,-0.190918,0.229736,0.233743,0.019644,0.016729,0.999982,-0.000619,0.000034,0.005948,0.648042,0.095571,-0.755371,0.017979
44719,NaN,24.749897,5.703120,3.222461,-7.620665,2.310424,14.519357,-0.145590,0.060362,1.059452,-0.771484,-0.184570,0.225342,0.247202,0.058365,0.032108,0.999986,-0.000728,0.000302,0.005297,0.648375,0.090835,-0.755539,0.022797
44720,NaN,24.286934,4.855541,3.488156,-7.695162,1.751563,13.921456,-0.156708,-0.017998,1.024394,-0.771973,-0.169678,0.225098,0.242613,0.049826,0.034865,0.999987,-0.000784,-0.000090,0.005122,0.648254,0.086451,-0.756070,0.025526
44721,NaN,20.957951,5.402306,2.507940,-6.379421,3.035341,10.797907,0.157964,0.003692,0.962398,-0.768066,-0.158936,0.222900,0.209317,0.055011,0.025119,0.999988,0.000790,0.000018,0.004812,0.648269,0.083215,-0.756213,0.031053
44722,NaN,18.950723,6.544361,1.046687,-4.895509,4.728130,9.074630,0.602339,0.001979,0.806117,-0.768066,-0.154541,0.216309,0.189242,0.066175,0.010664,0.999987,0.003012,0.000010,0.004031,0.647894,0.082110,-0.756438,0.035953
44723,NaN,18.618804,8.761794,0.114336,-4.408072,7.245322,8.936018,1.214112,0.017972,0.622173,-0.762207,-0.143799,0.216309,0.185914,0.088188,0.001661,0.999977,0.006071,0.000090,0.003111,0.647568,0.083685,-0.756106,0.044230
44724,NaN,18.362101,11.444002,-0.498770,-4.421382,10.079459,8.821495,1.888682,0.132993,0.401336,-0.753906,-0.133057,0.216064,0.183388,0.114849,-0.004026,0.999953,0.009443,0.000665,0.002007,0.647163,0.088242,-0.755389,0.052732
44725,NaN,17.021642,13.708538,-0.801933,-4.630804,12.489353,7.532894,2.449335,0.427723,0.137179,-0.749756,-0.126709,0.209717,0.170107,0.137290,-0.006703,0.999922,0.012246,0.002139,0.000686,0.647855,0.095613,-0.753021,0.064041
44726,NaN,14.571019,15.052516,-1.269819,-4.404554,14.019998,5.171910,2.683383,0.835235,-0.120192,-0.754150,-0.122314,0.203125,0.145752,0.150595,-0.011287,0.999901,0.013416,0.004176,-0.000601,0.649692,0.104472,-0.749324,0.074157
44727,NaN,12.532655,15.022954,-1.213481,-4.445500,14.061746,3.099689,2.429333,1.064208,-0.164313,-0.745605,-0.120361,0.194580,0.125390,0.150265,-0.010977,0.999912,0.012146,0.005321,-0.000822,0.652661,0.112737,-0.744445,0.084412
44728,NaN,11.646332,12.372455,-0.901469,-4.049666,11.467200,2.088157,1.702209,1.152536,0.239861,-0.750244,-0.111572,0.175049,0.116264,0.123939,-0.008631,0.999946,0.008511,0.005763,0.001199,0.655856,0.116899,-0.740060,0.092185
44729,NaN,11.027930,10.932562,0.038764,-4.481424,9.939164,1.244646,0.773374,1.299305,1.146513,-0.746338,-0.100830,0.166504,0.109651,0.109955,0.000098,0.999955,0.003867,0.006496,0.005732,0.659893,0.114821,-0.735709,0.100450
44730,NaN,9.040130,13.190112,-0.725857,-4.158305,12.586000,-0.839492,-0.121468,1.546375,2.188976,-0.746826,-0.079346,0.146729,0.088890,0.132875,-0.008030,0.999910,-0.000607,0.007732,0.010945,0.664493,0.105573,-0.731857,0.108113
44731,NaN,7.256453,16.572610,-0.657641,-4.923246,16.067667,-3.082037,-0.579868,1.756553,3.033354,-0.758545,-0.053711,0.135742,0.069976,0.166779,-0.007681,0.999842,-0.002899,0.008782,0.015166,0.669707,0.091884,-0.727462,0.117679
44732,NaN,6.706923,18.703855,-1.098968,-4.829246,18.498450,-4.293932,-1.086440,1.769402,3.631736,-0.752930,-0.027832,0.111816,0.063553,0.188148,-0.012582,0.999781,-0.005432,0.008846,0.018157,0.674359,0.073968,-0.723685,0.126685
44733,NaN,6.210073,18.710116,-1.575987,-4.023420,18.875710,-5.503643,-1.499887,1.532027,4.122507,-0.753906,0.004395,0.096191,0.058099,0.188199,-0.017624,0.999730,-0.007499,0.007659,0.020611,0.677888,0.053403,-0.720476,0.136130
44734,NaN,5.375202,15.271907,-0.408738,-3.866795,15.412371,-6.690116,-1.517629,1.167297,4.265919,-0.744385,0.036377,0.087158,0.050450,0.153780,-0.005553,0.999727,-0.007587,0.005836,0.021328,0.679409,0.032077,-0.718492,0.145405
44735,NaN,8.839800,8.537268,0.024420,-2.728497,9.654789,-2.717382,-0.955855,0.712052,4.262516,-0.736816,0.068604,0.080322,0.086551,0.087229,-0.000480,0.999755,-0.004779,0.003560,0.021311,0.679092,0.013472,-0.717001,0.156721
44736,NaN,10.456548,7.310779,-1.179934,-1.380506,9.433723,-1.253737,0.478517,0.703218,3.995493,-0.735596,0.098633,0.069092,0.103035,0.075205,-0.011985,0.999791,0.002392,0.003516,0.019976,0.678309,0.000212,-0.714356,0.172026
44737,NaN,6.981383,8.262821,-5.593448,2.845091,10.887577,-5.160120,2.313183,1.140072,3.191760,-0.729980,0.120117,0.051758,0.068160,0.084367,-0.055357,0.999790,0.011565,0.005700,0.015958,0.679723,-0.003808,-0.708118,0.191133
44738,NaN,5.211619,8.603071,-8.647619,5.558727,11.796365,-7.391350,4.324362,1.581216,2.508302,-0.728516,0.143799,0.030029,0.050340,0.088518,-0.084983,0.999656,0.021619,0.007905,0.012540,0.682773,0.000490,-0.698318,0.214880
44739,NaN,7.444816,10.165799,-9.233089,5.007984,14.359091,-6.250461,5.674040,1.885733,2.023861,-0.729248,0.165283,0.003906,0.072540,0.104976,-0.090074,0.999502,0.028365,0.009427,0.010118,0.687005,0.011210,-0.685331,0.241288
44740,NaN,9.540409,11.810409,-9.256426,3.659500,16.814705,-5.343073,6.214755,2.006509,1.731306,-0.727295,0.173828,-0.023926,0.093451,0.121737,-0.089763,0.999429,0.031068,0.010031,0.008655,0.691050,0.024188,-0.670647,0.268510
44741,NaN,11.718575,12.554737,-8.900319,2.154705,18.325498,-4.015040,6.367653,1.921875,1.435115,-0.721191,0.186768,-0.052002,0.115431,0.129151,-0.086044,0.999421,0.031832,0.009608,0.007174,0.694544,0.039173,-0.655300,0.294375
44742,NaN,15.810183,13.552740,-8.218167,0.153201,20.532988,-0.897536,6.176906,1.924777,1.087833,-0.717041,0.195312,-0.080078,0.156579,0.138864,-0.079439,0.999462,0.030879,0.009622,0.005438,0.697664,0.054195,-0.639384,0.318615
44743,NaN,14.258414,13.897867,-7.779122,-1.104515,20.119211,-2.677067,5.916117,2.062402,0.326544,-0.710693,0.197510,-0.103516,0.141571,0.141459,-0.075094,0.999508,0.029576,0.010310,0.001632,0.701939,0.070900,-0.622765,0.338258
44744,NaN,10.547608,12.071609,-6.138056,-2.052829,16.435453,-5.308585,5.600443,1.930580,-0.438040,-0.716553,0.187012,-0.133545,0.105165,0.122160,-0.058989,0.999559,0.027998,0.009651,-0.002190,0.706394,0.088613,-0.606088,0.354701
44745,NaN,8.522696,11.198001,-5.100438,-2.857037,14.335019,-6.592003,4.972708,1.520930,-0.919780,-0.722656,0.174072,-0.150391,0.085368,0.112820,-0.048855,0.999651,0.024861,0.007604,-0.004598,0.710332,0.106754,-0.591635,0.366060
44746,NaN,8.748349,9.502019,-2.453791,-4.121732,11.536400,-5.042424,4.642831,1.119474,-1.212912,-0.722168,0.161377,-0.171631,0.087929,0.095031,-0.022823,0.999697,0.023212,0.005597,-0.006064,0.713168,0.124742,-0.578334,0.375981
44747,NaN,10.005109,5.208435,0.535225,-3.431874,7.063676,-1.698605,4.168105,0.723030,-1.516825,-0.728027,0.148438,-0.180176,0.100463,0.051202,0.006063,0.999748,0.020839,0.003615,-0.007583,0.715457,0.143229,-0.567244,0.381893
44748,NaN,10.246820,0.460134,1.839732,-0.854936,2.985479,0.134359,3.639261,0.267696,-1.939675,-0.731934,0.137939,-0.195068,0.102529,0.003273,0.018328,0.999787,0.018195,0.001338,-0.009698,0.717158,0.161200,-0.557826,0.385395
44749,NaN,8.943626,0.539867,2.671582,-1.382929,1.785312,-0.740213,3.112446,-0.422662,-2.401246,-0.750488,0.114258,-0.190430,0.089432,0.003906,0.026973,0.999805,0.015561,-0.002113,-0.012005,0.718038,0.180510,-0.551718,0.383984
44750,NaN,6.903357,3.945217,3.621464,-4.617327,2.337488,-2.774039,2.195387,-1.534807,-2.911476,-0.762695,0.092773,-0.181641,0.069311,0.038040,0.037169,0.999804,0.010976,-0.007674,-0.014556,0.717270,0.199328,-0.550277,0.378136
44751,NaN,7.939202,5.717365,3.418787,-5.638080,3.609671,-1.902176,0.708423,-2.759507,-3.354206,-0.783203,0.064941,-0.162109,0.079851,0.055713,0.035487,0.999758,0.003542,-0.013796,-0.016770,0.715170,0.216958,-0.555713,0.364204
44752,NaN,9.249432,4.421272,2.570958,-3.892904,3.381028,-0.587337,-0.740465,-3.565430,-3.670709,-0.795166,0.032715,-0.135742,0.092810,0.042610,0.027203,0.999666,-0.003702,-0.017825,-0.018351,0.712510,0.230923,-0.565641,0.345042
44753,NaN,9.188325,2.454800,2.110208,-2.068718,1.958621,-0.497644,-1.754336,-4.097785,-4.024342,-0.815674,0.002686,-0.103271,0.091900,0.022894,0.022779,0.999549,-0.008770,-0.020486,-0.020119,0.709565,0.243755,-0.578601,0.319877
44754,NaN,9.231733,1.453123,0.939881,-0.515753,1.627075,-0.577903,-2.297679,-4.490704,-4.523387,-0.833984,-0.035889,-0.064209,0.092377,0.012565,0.011321,0.999426,-0.011486,-0.022449,-0.022613,0.706201,0.255725,-0.592360,0.291539
44755,NaN,9.920857,1.906578,-0.606229,0.376365,2.493099,-0.013173,-2.570990,-4.764459,-5.027782,-0.842773,-0.089600,-0.024902,0.099755,0.016503,-0.003913,0.999318,-0.012852,-0.023817,-0.025133,0.702185,0.269004,-0.606253,0.258902
44756,NaN,11.319696,2.286691,-1.134637,0.766950,2.449585,1.501197,-2.781031,-4.969702,-5.504767,-0.847656,-0.143311,0.016602,0.114006,0.019602,-0.008807,0.999216,-0.013902,-0.024842,-0.027517,0.697437,0.282140,-0.619419,0.224275
44757,NaN,13.957987,1.548449,-1.548448,2.016565,1.081935,4.125681,-2.960921,-5.158521,-6.009813,-0.843262,-0.209717,0.060303,0.140298,0.011080,-0.012057,0.999106,-0.014800,-0.025785,-0.030040,0.691662,0.296582,-0.631801,0.185660
44758,NaN,15.006015,0.196384,-1.113707,2.736188,-1.539680,4.900085,-3.185181,-5.231694,-6.512099,-0.830078,-0.282715,0.097900,0.150237,-0.003063,-0.007186,0.999001,-0.015921,-0.026150,-0.032550,0.685215,0.310689,-0.642559,0.145155
44759,NaN,14.058477,-0.798643,-0.081839,2.390773,-4.004229,3.469172,-3.478369,-5.105949,-7.008534,-0.799561,-0.357910,0.137939,0.140147,-0.012874,0.002960,0.998909,-0.017386,-0.025520,-0.035030,0.678393,0.325167,-0.651056,0.100871
44760,NaN,13.768966,-2.286204,0.627799,2.510226,-6.621481,2.225878,-3.716211,-5.099720,-7.204117,-0.762451,-0.439453,0.162842,0.136524,-0.027629,0.010254,0.998854,-0.018574,-0.025489,-0.036007,0.670694,0.338203,-0.657767,0.055955
44761,NaN,17.709997,-5.820684,0.300618,4.865187,-11.861168,3.715526,-3.641526,-4.992992,-7.099654,-0.712891,-0.503906,0.191895,0.174722,-0.064317,0.008523,0.998893,-0.018201,-0.024956,-0.035485,0.661470,0.350761,-0.662804,0.010755
44762,NaN,22.194192,-11.270113,1.661810,6.315757,-19.954970,3.747486,-3.241797,-4.667589,-6.683311,-0.656982,-0.564209,0.205811,0.217523,-0.119676,0.023633,0.999038,-0.016204,-0.023330,-0.033406,0.651415,0.362093,-0.666056,-0.030269
44763,NaN,25.592834,-17.855192,1.598260,8.914800,-27.755855,1.412596,-2.566664,-4.002227,-6.109468,-0.610352,-0.607178,0.217529,0.249903,-0.185980,0.023380,0.999251,-0.012830,-0.020006,-0.030540,0.641116,0.373432,-0.667146,-0.066602
44764,NaN,25.542298,-21.687506,1.665510,9.712926,-31.331196,-2.801168,-1.650430,-3.123605,-5.365019,-0.564209,-0.637207,0.230957,0.249167,-0.223447,0.022406,0.999484,-0.008251,-0.015615,-0.026820,0.631665,0.384799,-0.666249,-0.095091
44765,NaN,26.000743,-20.972477,1.953043,8.685734,-31.759924,-3.870195,-1.101067,-2.261458,-4.532635,-0.520264,-0.663086,0.227295,0.254916,-0.215418,0.023608,0.999664,-0.005505,-0.011306,-0.022661,0.623756,0.395225,-0.663997,-0.117615
44766,NaN,24.762660,-22.795201,1.874288,8.970159,-32.400830,-7.382176,-0.898345,-1.634755,-3.349337,-0.483154,-0.682373,0.234375,0.243594,-0.231961,0.021781,0.999816,-0.004491,-0.008173,-0.016746,0.618022,0.402505,-0.661828,-0.134245
44767,NaN,22.595934,-27.160568,2.963674,9.038457,-34.126045,-13.085449,-0.766947,-1.186627,-2.053147,-0.468018,-0.684570,0.236572,0.222971,-0.273785,0.032013,0.999922,-0.003835,-0.005933,-0.010265,0.614224,0.405919,-0.660955,-0.145252
44768,NaN,19.472129,-29.287556,3.373269,8.834151,-33.359410,-17.388485,-0.633073,-0.913034,-0.807786,-0.457275,-0.682373,0.234375,0.193377,-0.293548,0.035546,0.999976,-0.003165,-0.004565,-0.004039,0.611893,0.405968,-0.661645,-0.151668
44769,NaN,16.832361,-28.566931,4.121690,7.445687,-31.266593,-18.942034,-0.243919,-0.584420,0.335146,-0.453125,-0.678223,0.240723,0.168680,-0.285336,0.042058,0.999994,-0.001220,-0.002922,0.001676,0.610866,0.403294,-0.664172,-0.151892
44770,NaN,14.059932,-25.840370,5.098317,5.276065,-27.925382,-18.962816,0.143715,-0.234361,1.258703,-0.462158,-0.667480,0.240723,0.142162,-0.257549,0.050964,0.999979,0.000719,-0.001172,0.006293,0.610744,0.399363,-0.667523,-0.148033
44771,NaN,11.808157,-23.087369,5.655867,3.682791,-24.876534,-18.299326,0.531660,0.048286,1.864616,-0.479736,-0.654541,0.246826,0.120242,-0.229909,0.055918,0.999953,0.002658,0.000241,0.009323,0.611493,0.394259,-0.671741,-0.139286
44772,NaN,14.086450,-8.657471,6.674664,-2.274829,-17.428783,-6.815801,0.515832,0.437946,2.310307,-0.493164,-0.641602,0.246582,0.141999,-0.085110,0.066216,0.999928,0.002579,0.002190,0.011551,0.613514,0.388349,-0.675268,-0.129610
44773,NaN,32.258261,0.450303,17.108898,-14.335027,-26.518514,10.795358,0.191482,0.951546,3.265588,-0.521973,-0.617920,0.235352,0.323263,0.009615,0.169560,0.999855,0.000957,0.004757,0.016327,0.618803,0.377887,-0.678916,-0.115574
44774,NaN,57.205500,32.047520,1.670528,-10.492816,-13.887317,53.415134,-2.991557,0.855073,6.228009,-0.559326,-0.592285,0.211182,0.561755,0.338254,0.009317,0.999394,-0.014955,0.004275,0.031134,0.630582,0.347756,-0.685897,-0.104768
44775,NaN,21.266568,-6.361629,-11.408237,13.405483,-14.105665,5.812157,-3.920490,-0.734543,5.491495,-0.588379,-0.562012,0.204102,0.214760,-0.059949,-0.112097,0.999424,-0.019599,-0.003672,0.027452,0.638036,0.315510,-0.695222,-0.100149
44776,NaN,30.085161,-36.435475,3.196655,8.009024,-46.297893,-3.941331,-0.815387,-1.725993,6.238882,-0.619873,-0.521240,0.198975,0.311716,-0.354601,0.036085,0.999468,-0.004076,-0.008628,0.031189,0.636110,0.290189,-0.709791,-0.085744
44777,NaN,6.230886,-12.259817,1.984469,1.743815,-13.772822,-10.318468,0.925738,1.626365,6.700648,-0.651367,-0.482666,0.200439,0.066526,-0.120505,0.018754,0.999395,0.004628,0.008130,0.033496,0.643534,0.269175,-0.714306,-0.056356
44778,NaN,-5.159655,-11.391846,-0.974048,4.645403,-7.306967,-18.886597,0.239012,0.800051,5.433371,-0.678467,-0.444092,0.188965,-0.048516,-0.115253,-0.009679,0.999622,0.001195,0.004000,0.027163,0.647360,0.250658,-0.718842,-0.036915
44779,NaN,6.428745,-7.179886,-7.333323,8.944861,-6.764596,-5.244421,0.177842,0.404834,4.908914,-0.694580,-0.409668,0.192627,0.065874,-0.070130,-0.073528,0.999696,0.000889,0.002024,0.024542,0.649676,0.232808,-0.723477,-0.017378
44780,NaN,13.949101,-11.965727,-1.335299,4.304565,-15.105521,-0.180514,0.211172,0.556835,4.368635,-0.712891,-0.379639,0.187988,0.142022,-0.116559,-0.013870,0.999757,0.001056,0.002784,0.021841,0.651669,0.217677,-0.726596,-0.001762
44781,NaN,10.413436,-9.576134,1.616970,0.926137,-12.270819,-2.650149,0.853517,0.872599,3.585460,-0.726562,-0.355957,0.191650,0.105897,-0.093940,0.015307,0.999821,0.004267,0.004363,0.017926,0.654043,0.206477,-0.727545,0.016521
44782,NaN,10.024078,-10.082359,0.657620,2.101741,-12.073332,-2.576345,1.472514,1.189823,3.019067,-0.738037,-0.334473,0.180664,0.101782,-0.099337,0.005239,0.999841,0.007362,0.005949,0.015095,0.656500,0.200171,-0.726534,0.032985
44783,NaN,8.453418,-2.088843,1.043454,-0.758291,-4.188768,-2.145452,0.949717,1.009226,2.633378,-0.745605,-0.308838,0.182373,0.084851,-0.019820,0.009911,0.999889,0.004748,0.005046,0.013166,0.658880,0.192543,-0.725551,0.048776
44784,NaN,8.933751,-0.326411,-1.318149,0.813904,-1.695484,-0.974401,-0.282849,0.388048,2.323828,-0.761230,-0.291748,0.175537,0.089342,-0.002245,-0.013351,0.999930,-0.001414,0.001940,0.011619,0.659949,0.183064,-0.726528,0.055786
44785,NaN,12.948571,-2.495531,-1.814474,1.694734,-4.035542,2.757987,-0.653432,0.002846,2.103923,-0.755371,-0.274414,0.177490,0.129739,-0.023650,-0.018068,0.999939,-0.003267,0.000014,0.010519,0.660038,0.172271,-0.728491,0.063028
44786,NaN,15.750878,-2.740782,-0.637368,0.358273,-4.873360,5.422908,-0.705046,-0.092660,1.820382,-0.761963,-0.268066,0.186035,0.157753,-0.025995,-0.006207,0.999952,-0.003525,-0.000463,0.009102,0.659705,0.163325,-0.730552,0.066397
44787,NaN,17.094803,-2.969381,-1.960603,1.451215,-4.560904,6.979591,-0.625937,-0.115051,1.462102,-0.762451,-0.253174,0.172852,0.171171,-0.028504,-0.019417,0.999968,-0.003130,-0.000575,0.007310,0.659339,0.154962,-0.732219,0.071515
44788,NaN,20.294234,-0.796417,1.480889,-2.862662,-3.782221,9.990793,-0.399389,-0.045499,1.220901,-0.762695,-0.248779,0.170654,0.202982,-0.006695,0.014869,0.999979,-0.001997,-0.000227,0.006104,0.659033,0.149178,-0.733442,0.074053
44789,NaN,23.197792,3.264882,3.481634,-6.378160,-0.564699,12.988932,-0.251349,0.061714,1.016438,-0.765137,-0.235840,0.172607,0.231819,0.033871,0.034703,0.999986,-0.001257,0.000309,0.005082,0.659092,0.143629,-0.733956,0.079227
44790,NaN,23.896033,4.307042,3.666567,-6.988354,0.528809,13.722251,-0.201381,0.116320,0.934986,-0.765381,-0.227295,0.159668,0.238777,0.044224,0.036483,0.999988,-0.001007,0.000582,0.004675,0.659287,0.139475,-0.734315,0.081665
44791,NaN,21.403618,4.427142,2.368105,-5.609523,1.588681,11.384683,0.055471,0.190010,0.889119,-0.763428,-0.225098,0.163818,0.213859,0.045216,0.023490,0.999990,0.000277,0.000950,0.004446,0.659663,0.135494,-0.734031,0.087661
44792,NaN,18.829562,5.803421,1.233714,-4.753118,3.623872,9.002939,0.449627,0.232760,0.762305,-0.763672,-0.218750,0.155273,0.188087,0.058724,0.012250,0.999990,0.002248,0.001164,0.003812,0.659874,0.134064,-0.733573,0.091997
44793,NaN,18.062333,7.178646,0.717878,-4.685453,5.336862,8.294207,0.918699,0.247406,0.585435,-0.766113,-0.205811,0.159180,0.180421,0.072281,0.007287,0.999984,0.004593,0.001237,0.002927,0.660012,0.134140,-0.732370,0.100124
44794,NaN,17.714718,9.013308,0.574549,-5.187722,7.200520,7.981141,1.446961,0.333555,0.385370,-0.762207,-0.199463,0.159180,0.176983,0.090431,0.006104,0.999971,0.007235,0.001668,0.001927,0.660052,0.137320,-0.730780,0.106930
44795,NaN,16.826083,11.316404,0.271859,-5.739116,9.586428,7.111069,1.883734,0.522015,0.150854,-0.760010,-0.197266,0.150635,0.168184,0.113261,0.003346,0.999952,0.009419,0.002610,0.000754,0.660719,0.142143,-0.727683,0.117142
44796,NaN,15.266568,13.984256,-0.261577,-6.207271,12.303940,5.639715,2.057772,0.860593,-0.056277,-0.757812,-0.195068,0.139893,0.152696,0.139821,-0.001834,0.999938,0.010289,0.004303,-0.000281,0.662381,0.148619,-0.723549,0.125063
44797,NaN,13.450837,16.082494,-0.396292,-6.911363,14.352673,3.824048,1.839510,1.075074,-0.177670,-0.757812,-0.195068,0.135498,0.134633,0.160737,-0.003208,0.999943,0.009197,0.005375,-0.000888,0.665183,0.154276,-0.718153,0.134115
44798,NaN,12.721232,15.750906,-1.456124,-5.847160,14.462448,3.175355,1.135159,1.105399,-0.040941,-0.753662,-0.192871,0.126953,0.127165,0.157565,-0.014370,0.999969,0.005676,0.005527,-0.000205,0.668284,0.157439,-0.713660,0.138920
44799,NaN,11.914060,12.768116,-2.101165,-3.990762,12.124057,2.289509,0.050014,1.042436,0.608197,-0.756104,-0.179932,0.109619,0.118640,0.128048,-0.021599,0.999982,0.000250,0.005212,0.003041,0.671752,0.154486,-0.710072,0.143806
44800,NaN,11.276053,12.441314,-2.104066,-3.695624,12.029598,1.500251,-0.970439,1.116838,1.599768,-0.748047,-0.169434,0.098877,0.111639,0.125203,-0.022272,0.999941,-0.004852,0.005584,0.007999,0.675278,0.144721,-0.708211,0.146605
44801,NaN,9.565260,13.504548,-3.614937,-2.498696,13.923498,-0.495924,-1.273107,1.327735,2.703853,-0.753174,-0.141357,0.079102,0.093571,0.136083,-0.037639,0.999866,-0.006365,0.006638,0.013519,0.679010,0.129749,-0.706031,0.153725
44802,NaN,7.462590,15.906640,-4.201025,-2.583731,16.609606,-3.197561,-1.321770,1.485302,3.574429,-0.762451,-0.117676,0.065918,0.071451,0.160078,-0.043605,0.999791,-0.006608,0.007426,0.017871,0.682222,0.111461,-0.704173,0.162142
44803,NaN,6.617977,17.814566,-4.367305,-2.888512,18.653605,-4.927373,-1.357994,1.358200,4.024641,-0.757324,-0.083496,0.048340,0.062278,0.179121,-0.045319,0.999751,-0.006789,0.006790,0.020122,0.684449,0.091525,-0.702297,0.173007
44804,NaN,5.883609,14.207384,-3.505930,-2.124913,15.146243,-5.966736,-1.036304,1.239096,4.257692,-0.756104,-0.055664,0.034912,0.055575,0.143095,-0.036150,0.999741,-0.005181,0.006195,0.021287,0.685414,0.071919,-0.700717,0.184478
44805,NaN,8.742234,6.648010,-3.065184,0.045564,8.719569,-2.466615,0.051328,0.942167,4.262214,-0.761719,-0.016846,0.019287,0.085834,0.068329,-0.031041,0.999762,0.000257,0.004710,0.021309,0.684689,0.056377,-0.698472,0.200399
44806,NaN,10.303578,8.042148,-3.200208,-0.520833,10.675718,-1.638993,1.807081,1.057662,4.050520,-0.753906,0.010986,0.010498,0.101207,0.082772,-0.031800,0.999740,0.009035,0.005288,0.020251,0.683636,0.047329,-0.693997,0.220839
44807,NaN,7.084184,11.656757,-5.721951,0.389211,14.345416,-6.231559,3.224401,1.431549,3.331950,-0.752686,0.034668,-0.004883,0.068474,0.118629,-0.055814,0.999706,0.016120,0.007157,0.016658,0.684016,0.045325,-0.685851,0.244288
44808,NaN,3.487537,13.871618,-7.753924,1.076649,16.191684,-10.960639,4.352820,1.823497,2.587450,-0.746582,0.051758,-0.028809,0.032372,0.140794,-0.074793,0.999638,0.021761,0.009116,0.012936,0.685873,0.049079,-0.674632,0.268404
44809,NaN,2.018638,13.769194,-8.927519,1.519784,16.154099,-12.978638,5.242407,2.110514,2.033220,-0.743164,0.073242,-0.041992,0.017852,0.140161,-0.085819,0.999549,0.026208,0.010551,0.010165,0.688710,0.057498,-0.660378,0.293725
44810,NaN,2.838569,13.016183,-9.341395,1.366165,15.983031,-12.521055,5.744324,2.142881,1.582209,-0.736572,0.073242,-0.065430,0.026365,0.132992,-0.089911,0.999499,0.028717,0.010713,0.007910,0.691462,0.068862,-0.644684,0.318623
44811,NaN,5.775585,12.191144,-8.833151,0.427245,16.116941,-9.845888,5.781462,1.795767,1.252131,-0.730469,0.088379,-0.084961,0.056206,0.124761,-0.085261,0.999522,0.028903,0.008977,0.006260,0.692974,0.082092,-0.629343,0.342017
44812,NaN,9.778907,12.479919,-8.155118,-1.210098,17.457923,-6.410203,5.807689,1.352027,0.998477,-0.730469,0.090576,-0.108643,0.096619,0.127593,-0.078529,0.999543,0.029034,0.006759,0.004992,0.692817,0.096706,-0.614847,0.364165
44813,NaN,18.410183,14.657796,-8.297300,-3.445027,22.405981,0.612125,5.358475,1.086009,0.656928,-0.728271,0.083984,-0.116943,0.183174,0.149351,-0.079992,0.999621,0.026789,0.005429,0.003284,0.692155,0.111466,-0.601492,0.383021
44814,NaN,17.797062,16.009478,-9.239400,-4.347382,23.603779,-0.738915,4.519769,1.260238,-0.175679,-0.719238,0.075439,-0.127441,0.177541,0.161989,-0.089867,0.999724,0.022597,0.006301,-0.000878,0.693567,0.125176,-0.588209,0.396619
44815,NaN,11.842226,12.726312,-7.855565,-3.503122,18.071371,-4.807912,3.709659,1.011914,-0.952676,-0.725342,0.069092,-0.140381,0.118640,0.128134,-0.076784,0.999804,0.018547,0.005059,-0.004763,0.696040,0.139193,-0.576830,0.404254
44816,NaN,10.012000,11.218282,-5.312426,-4.482525,14.588631,-5.188550,3.163389,0.657052,-1.270629,-0.716309,0.054199,-0.155029,0.100662,0.112369,-0.051678,0.999849,0.015816,0.003285,-0.006353,0.698191,0.152503,-0.567175,0.409370
44817,NaN,11.068090,7.833828,-1.860971,-4.351921,10.441186,-2.107282,2.664625,0.535693,-1.468857,-0.717773,0.037109,-0.159180,0.111205,0.077764,-0.017868,0.999881,0.013323,0.002678,-0.007344,0.700662,0.165352,-0.558920,0.411509
44818,NaN,11.781267,1.096921,1.052157,-0.989490,4.493919,1.138544,1.945608,0.339276,-1.817620,-0.717529,0.026367,-0.163330,0.117923,0.009796,0.010421,0.999910,0.009728,0.001696,-0.009088,0.703672,0.176522,-0.552174,0.410840
44819,NaN,9.974252,-2.238347,1.368790,1.497473,1.421155,0.291856,1.456369,-0.134184,-2.334019,-0.720947,0.000488,-0.162842,0.099462,-0.023644,0.013586,0.999905,0.007282,-0.000671,-0.011670,0.706783,0.188887,-0.547793,0.405835
44820,NaN,7.856842,0.053439,1.202981,-0.168048,1.958370,-2.111291,0.774982,-0.959114,-2.850359,-0.722412,-0.016602,-0.160400,0.078506,-0.000632,0.012405,0.999879,0.003875,-0.004795,-0.014251,0.709117,0.201343,-0.546850,0.396949
44821,NaN,8.549149,2.876548,0.392135,-1.683517,4.244863,-2.024628,-0.283828,-1.961359,-3.289325,-0.723389,-0.048828,-0.142822,0.085906,0.027361,0.004723,0.999816,-0.001419,-0.009806,-0.016446,0.710448,0.213675,-0.551195,0.381825
44822,NaN,10.556320,2.589535,-0.994696,-0.252390,5.359732,-0.308977,-1.337123,-2.745321,-3.670461,-0.727051,-0.070312,-0.134033,0.106139,0.023890,-0.008657,0.999715,-0.006685,-0.013725,-0.018351,0.711111,0.224208,-0.559420,0.362080
44823,NaN,11.104871,-0.443252,-1.585395,2.659500,3.497459,0.516519,-2.091416,-3.194745,-4.037211,-0.728516,-0.093750,-0.110107,0.111161,-0.006829,-0.014016,0.999614,-0.010456,-0.015972,-0.020183,0.711540,0.234235,-0.570032,0.337504
44824,NaN,10.325401,-2.260628,-1.623833,4.059798,1.547625,-0.042929,-2.411359,-3.499934,-4.518159,-0.727295,-0.132568,-0.085938,0.102965,-0.025114,-0.014142,0.999519,-0.012055,-0.017497,-0.022587,0.711667,0.244314,-0.580985,0.310317
44825,NaN,9.834782,-1.909250,-2.461760,4.406585,1.624763,-0.629524,-2.477126,-3.788627,-4.995310,-0.726074,-0.168945,-0.068115,0.098265,-0.021835,-0.022496,0.999432,-0.012383,-0.018940,-0.024972,0.710980,0.256131,-0.592101,0.279859
44826,NaN,10.265904,-0.583280,-3.041498,4.067720,2.296954,-0.163473,-2.591462,-4.065732,-5.430568,-0.718018,-0.216309,-0.039551,0.103032,-0.009003,-0.028220,0.999341,-0.012954,-0.020324,-0.027147,0.709391,0.268502,-0.602833,0.247515
44827,NaN,11.617061,-0.233034,-3.447409,4.483576,2.012225,1.262972,-2.685358,-4.313444,-5.893522,-0.710205,-0.257080,-0.015381,0.116732,-0.006205,-0.031894,0.999243,-0.013423,-0.021562,-0.029460,0.706640,0.282159,-0.613331,0.211829
44828,NaN,14.221394,-0.372880,-3.026104,4.825792,0.462121,3.895922,-2.692240,-4.467225,-6.353902,-0.688965,-0.310547,0.007080,0.142619,-0.008634,-0.026984,0.999155,-0.013457,-0.022330,-0.031761,0.702872,0.296609,-0.622482,0.174670
44829,NaN,16.052343,-1.671351,-3.404793,6.340685,-1.830005,5.298312,-2.699294,-4.593233,-6.812133,-0.657227,-0.362305,0.031494,0.160542,-0.022607,-0.030082,0.999065,-0.013492,-0.022959,-0.034050,0.697687,0.312248,-0.630561,0.134633
44830,NaN,16.386758,-2.569595,-3.328994,6.930057,-4.067254,5.068509,-2.734109,-4.662882,-7.199731,-0.625244,-0.411621,0.049561,0.163502,-0.032004,-0.029065,0.998987,-0.013666,-0.023307,-0.035986,0.691398,0.328216,-0.636788,0.093512
44831,NaN,18.170595,-2.987674,-2.197674,6.518756,-7.085921,6.029777,-2.737070,-4.707998,-7.391522,-0.584961,-0.460938,0.067627,0.180873,-0.036831,-0.017239,0.998947,-0.013681,-0.023532,-0.036945,0.683359,0.344218,-0.641842,0.050739
44832,NaN,20.884718,-6.065852,-1.489177,7.800550,-12.386086,6.330458,-2.615631,-4.661746,-7.243759,-0.538574,-0.497559,0.076904,0.206723,-0.068318,-0.009195,0.998987,-0.013074,-0.023301,-0.036207,0.674051,0.359345,-0.645318,0.009550
44833,NaN,24.805050,-11.084760,0.016475,9.100210,-20.212963,5.882613,-2.333951,-4.613129,-6.729994,-0.498535,-0.531982,0.084229,0.244024,-0.119049,0.007183,0.999100,-0.011666,-0.023059,-0.033640,0.662751,0.373049,-0.648633,-0.029515
44834,NaN,26.929326,-16.759902,0.937938,10.459420,-27.200736,2.724557,-1.941794,-4.353153,-6.096958,-0.457031,-0.551270,0.095215,0.263709,-0.175557,0.016840,0.999251,-0.009707,-0.021760,-0.030477,0.650866,0.385453,-0.650917,-0.064089
44835,NaN,28.762886,-20.678869,2.344418,10.305445,-32.616031,-0.328118,-1.259276,-3.623065,-5.362387,-0.422119,-0.568604,0.104248,0.281448,-0.214216,0.029914,0.999457,-0.006295,-0.018112,-0.026807,0.639118,0.397237,-0.652002,-0.092867
44836,NaN,27.338510,-21.931725,4.576713,7.981748,-34.007608,-4.442096,-0.696087,-2.696493,-4.324938,-0.400146,-0.579346,0.113281,0.267904,-0.224981,0.050181,0.999669,-0.003480,-0.013481,-0.021622,0.629496,0.407718,-0.651494,-0.114264
44837,NaN,26.497107,-23.795052,5.247343,7.511633,-35.147654,-7.833032,-0.556570,-1.914845,-2.943480,-0.385010,-0.581543,0.113281,0.260910,-0.241659,0.055654,0.999842,-0.002783,-0.009574,-0.014717,0.622407,0.414048,-0.651535,-0.129132
44838,NaN,24.441877,-29.036986,5.430362,8.698283,-37.124461,-13.825995,-0.605320,-1.270717,-1.449864,-0.374268,-0.581543,0.113281,0.241951,-0.291961,0.056728,0.999949,-0.003027,-0.006353,-0.007249,0.618558,0.416036,-0.652069,-0.138224
44839,NaN,21.430610,-32.281219,5.479754,9.139111,-37.049557,-18.482793,-0.584151,-0.880962,0.029239,-0.376709,-0.577393,0.115479,0.214106,-0.322617,0.056683,0.999986,-0.002921,-0.004405,0.000146,0.616852,0.413034,-0.654908,-0.141392
44840,NaN,19.107783,-33.049421,5.491061,8.863234,-35.994270,-20.459636,-0.280422,-0.627243,1.263901,-0.394531,-0.562256,0.121582,0.192987,-0.329201,0.055976,0.999974,-0.001402,-0.003136,0.006319,0.616260,0.407566,-0.659243,-0.139688
44841,NaN,17.174203,-32.685213,6.354633,7.630381,-34.906979,-21.077031,0.325161,-0.189596,2.193404,-0.398926,-0.555908,0.121338,0.175253,-0.325046,0.063182,0.999938,0.001626,-0.000948,0.010967,0.616520,0.400544,-0.664982,-0.131402
44842,NaN,15.037981,-29.005108,7.578362,5.093890,-31.684086,-19.557375,1.068097,0.332650,2.839569,-0.420898,-0.540771,0.131836,0.154605,-0.288274,0.073986,0.999884,0.005340,0.001663,0.014197,0.617286,0.394556,-0.670272,-0.118400
44843,NaN,17.231116,-17.644131,5.766755,2.819782,-25.162800,-9.266766,1.580546,0.694307,3.360542,-0.436768,-0.521484,0.137939,0.175444,-0.173956,0.055681,0.999822,0.007902,0.003471,0.016802,0.618531,0.387753,-0.676040,-0.100188
44844,NaN,19.495492,34.314748,19.089081,-30.017943,4.446665,21.826944,1.250918,2.011687,3.165741,-0.463379,-0.500000,0.126709,0.191425,0.345001,0.191108,0.999805,0.006254,0.010058,0.015828,0.624375,0.381841,-0.676455,-0.082233
44845,NaN,29.607187,81.842807,19.392653,-48.763651,33.157429,57.064921,-1.686253,2.949663,3.410151,-0.482910,-0.489258,0.102783,0.284793,0.824921,0.182733,0.999710,-0.008430,0.014747,0.017049,0.639110,0.365498,-0.673054,-0.070341
44846,NaN,34.245408,-4.106480,-4.256727,7.871888,-21.102870,16.650204,-6.232877,-1.405301,3.959946,-0.500732,-0.469727,0.089600,0.343476,-0.035522,-0.038991,0.999294,-0.031157,-0.007025,0.019795,0.646715,0.331497,-0.682116,-0.081161
44847,NaN,14.995212,-49.764887,-9.392614,26.180064,-44.355585,-21.468562,-2.607018,-2.151456,5.430102,-0.531982,-0.439697,0.084717,0.164359,-0.494470,-0.085750,0.999489,-0.013033,-0.010755,0.027146,0.645980,0.303124,-0.696596,-0.074695
44848,NaN,11.786105,-8.904705,1.922676,1.133211,-13.656757,-3.980195,-0.008451,-0.553876,7.202481,-0.559082,-0.403320,0.083984,0.120911,-0.084728,0.019562,0.999348,-0.000042,-0.002769,0.036005,0.646337,0.277598,-0.708843,-0.052238
44849,NaN,1.496669,1.458232,4.611101,-4.864059,-0.712125,-8.604042,-0.260379,0.100813,6.535528,-0.577637,-0.362549,0.085449,0.014502,0.015121,0.046084,0.999465,-0.001302,0.000504,0.032672,0.648682,0.252891,-0.717173,-0.030341
44850,NaN,9.820499,-19.823100,-5.723412,11.244583,-19.649832,-6.736051,-1.783502,-0.453890,5.492215,-0.598145,-0.328125,0.082764,0.103734,-0.195931,-0.055249,0.999581,-0.008916,-0.002269,0.027457,0.649875,0.227226,-0.725019,-0.019467
44851,NaN,16.974629,-12.632141,-7.987371,10.396428,-14.923190,3.627558,-0.727742,0.062890,4.835483,-0.609863,-0.302490,0.082275,0.172713,-0.122459,-0.079477,0.999701,-0.003638,0.000314,0.024175,0.651373,0.206651,-0.730059,-0.004744
44852,NaN,10.809348,-15.825002,1.457092,2.565153,-18.065410,-3.778810,0.548091,0.615696,3.907755,-0.623535,-0.278809,0.075439,0.111201,-0.156136,0.013802,0.999801,0.002740,0.003078,0.019537,0.653021,0.194130,-0.731959,0.010639
44853,NaN,10.532251,-12.072297,1.248837,1.769035,-14.173530,-2.452147,1.775487,1.285863,3.223007,-0.635254,-0.255127,0.068604,0.107323,-0.119105,0.010740,0.999810,0.008877,0.006429,0.016114,0.655799,0.187299,-0.730693,0.030556
44854,NaN,10.526457,-4.712548,-1.449127,2.192895,-6.231009,-0.249015,2.198654,1.656919,2.796356,-0.635742,-0.240234,0.066162,0.105780,-0.045479,-0.015872,0.999808,0.010993,0.008284,0.013981,0.659243,0.183987,-0.727402,0.049322
44855,NaN,6.984286,4.236893,-0.986225,-0.941371,2.950795,-2.189907,0.930742,1.043036,2.490624,-0.646973,-0.220947,0.055176,0.069256,0.043280,-0.010024,0.999898,0.004654,0.005215,0.012453,0.661559,0.176953,-0.725940,0.063552
44856,NaN,9.089223,-0.861698,-3.232914,2.740648,-1.225304,-0.604394,-0.571651,0.305792,2.287821,-0.651855,-0.203613,0.054932,0.090934,-0.007670,-0.032445,0.999929,-0.002858,0.001529,0.011439,0.662403,0.166632,-0.727083,0.069331
44857,NaN,11.559769,-2.346688,0.150291,-0.186247,-3.836080,1.340886,-0.873591,-0.009947,2.136336,-0.652344,-0.190918,0.056885,0.115839,-0.022223,0.001608,0.999933,-0.004368,-0.000050,0.010681,0.662315,0.155216,-0.729144,0.074806
44858,NaN,14.371047,-2.923869,0.778070,-0.919886,-4.704156,4.068932,-1.084331,-0.089504,1.860845,-0.659180,-0.184326,0.052490,0.143970,-0.027857,0.007999,0.999942,-0.005422,-0.000448,0.009304,0.662098,0.144848,-0.731247,0.076962
44859,NaN,15.679324,-4.090831,-2.323453,2.145060,-4.740824,5.708049,-0.959394,-0.041588,1.546981,-0.659424,-0.171631,0.052246,0.157109,-0.039805,-0.023009,0.999959,-0.004797,-0.000208,0.007735,0.662000,0.135303,-0.732823,0.080126
44860,NaN,17.248804,-2.761679,-2.705138,1.866311,-3.323553,7.448058,-0.680815,-0.012044,1.259211,-0.657715,-0.163086,0.056396,0.172659,-0.026622,-0.026949,0.999974,-0.003404,-0.000060,0.006296,0.661898,0.128419,-0.733967,0.081810
44861,NaN,22.632082,1.117719,1.178648,-3.548679,-0.904958,12.580003,-0.400544,0.033826,1.058252,-0.657959,-0.154297,0.054199,0.226259,0.012398,0.011724,0.999984,-0.002003,0.000169,0.005291,0.661784,0.122462,-0.734677,0.085414
44862,NaN,23.959269,3.746293,2.572685,-5.813949,1.347625,13.832137,-0.095580,0.129927,0.905727,-0.664551,-0.154297,0.052002,0.239436,0.038560,0.025553,0.999989,-0.000478,0.000650,0.004529,0.661928,0.118742,-0.734833,0.088160
44863,NaN,22.894046,3.538545,3.374012,-6.448616,1.247272,12.657278,0.229721,0.184010,0.830487,-0.660400,-0.143555,0.051758,0.228822,0.036297,0.033571,0.999990,0.001149,0.000920,0.004152,0.662071,0.115724,-0.734539,0.093398
44864,NaN,20.341596,4.342007,2.861023,-5.964704,2.443115,10.169078,0.670623,0.279356,0.733221,-0.660645,-0.137207,0.049561,0.203295,0.044070,0.028473,0.999987,0.003353,0.001397,0.003666,0.662360,0.115099,-0.733713,0.098471
44865,NaN,18.724746,6.159700,1.809770,-5.382877,4.707995,8.645157,1.051505,0.341582,0.560728,-0.660645,-0.137207,0.047363,0.187105,0.062027,0.018103,0.999981,0.005257,0.001708,0.002804,0.662739,0.115814,-0.732223,0.105898
44866,NaN,18.599945,8.823530,0.147707,-4.674317,7.820226,8.648855,1.391905,0.328695,0.349986,-0.660889,-0.135010,0.047363,0.185847,0.088549,0.001787,0.999973,0.006959,0.001643,0.001750,0.662935,0.118947,-0.730577,0.112364
44867,NaN,18.555448,12.256661,-1.445437,-4.410241,11.645425,8.668422,1.769718,0.351401,0.104601,-0.658691,-0.130859,0.040771,0.185466,0.122787,-0.013694,0.999959,0.008848,0.001757,0.000523,0.663134,0.123786,-0.728241,0.120810
44868,NaN,17.852419,15.246822,-2.724414,-4.355603,14.877785,8.027518,2.088073,0.535645,-0.157018,-0.658936,-0.124268,0.036377,0.178573,0.152605,-0.026130,0.999942,0.010440,0.002678,-0.000785,0.663850,0.130929,-0.725062,0.128241
44869,NaN,15.462458,17.348166,-2.491150,-5.368526,16.758055,5.568921,2.113030,0.827165,-0.374311,-0.656738,-0.128662,0.030029,0.154849,0.173447,-0.023719,0.999934,0.010565,0.004136,-0.001872,0.665739,0.138416,-0.720429,0.136437
44870,NaN,12.014064,16.670990,-3.231558,-4.365254,16.401185,2.214183,1.781072,0.994108,-0.354827,-0.658936,-0.122070,0.025635,0.120279,0.166779,-0.031428,0.999946,0.008905,0.004970,-0.001774,0.668295,0.144916,-0.715619,0.142377
44871,NaN,9.378479,12.720401,-4.726785,-1.387776,13.428082,-0.332887,1.205870,1.128896,0.151654,-0.661133,-0.122070,0.017090,0.093422,0.127559,-0.047027,0.999966,0.006029,0.005644,0.000758,0.671421,0.147359,-0.710820,0.149042
44872,NaN,8.074686,11.336421,-4.690525,-0.799503,12.250645,-1.750797,0.284404,1.311332,1.143898,-0.657227,-0.109375,0.008301,0.079787,0.113889,-0.047269,0.999961,0.001422,0.006557,0.005719,0.674994,0.143244,-0.707019,0.154879
44873,NaN,6.593063,13.601743,-5.025821,-1.311213,14.603898,-3.589716,-0.238196,1.544486,2.340550,-0.655518,-0.094238,-0.004639,0.063942,0.136713,-0.050920,0.999901,-0.001191,0.007722,0.011702,0.678808,0.132769,-0.703378,0.163866
44874,NaN,4.134659,16.344945,-5.344651,-1.936257,17.301667,-6.700971,-0.518667,1.640140,3.448013,-0.663086,-0.062012,-0.026611,0.038080,0.163985,-0.054193,0.999814,-0.002593,0.008200,0.017239,0.681969,0.117493,-0.700392,0.174828
44875,NaN,4.252669,16.096011,-5.783457,-1.332872,17.387994,-7.273248,-0.610494,1.296921,4.048423,-0.661865,-0.031982,-0.035645,0.038881,0.161594,-0.058587,0.999769,-0.003052,0.006484,0.020241,0.683203,0.099958,-0.698541,0.187837
44876,NaN,5.728151,13.387389,-5.976889,-0.071605,15.311757,-6.170838,-0.322213,1.100276,4.267530,-0.660889,-0.001953,-0.042480,0.054079,0.134954,-0.060289,0.999756,-0.001611,0.005501,0.021336,0.683031,0.082873,-0.697044,0.201818
44877,NaN,5.359306,11.659452,-4.106799,-1.115578,13.090590,-6.830002,0.462534,0.841091,4.070443,-0.661621,0.021729,-0.055664,0.051032,0.117745,-0.041015,0.999781,0.002313,0.004205,0.020351,0.681523,0.069344,-0.695112,0.218029
44878,NaN,8.954616,10.908252,-5.807125,0.364881,13.985577,-3.718485,1.486673,0.551607,3.527760,-0.658203,0.047363,-0.060303,0.087440,0.111066,-0.057494,0.999813,0.007433,0.002758,0.017638,0.678950,0.061513,-0.692700,0.235392
44879,NaN,7.764370,13.959582,-7.833464,0.724809,17.407747,-6.218327,2.732352,0.959723,2.957312,-0.654541,0.066650,-0.071289,0.075187,0.141776,-0.076772,0.999786,0.013661,0.004798,0.014786,0.677814,0.059394,-0.686906,0.255345
44880,NaN,3.224222,15.438329,-10.353296,2.161091,18.645720,-11.691782,3.771292,1.456147,2.362988,-0.646484,0.083740,-0.097168,0.029659,0.156662,-0.100815,0.999726,0.018855,0.007280,0.011814,0.678489,0.062161,-0.677666,0.276691
44881,NaN,2.661431,13.947632,-9.707227,1.628108,16.941305,-12.287985,4.597984,1.773902,1.761605,-0.640137,0.092529,-0.118896,0.024528,0.141884,-0.094052,0.999658,0.022987,0.008868,0.008807,0.680409,0.069336,-0.665618,0.298646
44882,NaN,6.201647,12.673738,-8.851064,0.594957,16.618880,-8.899538,4.788190,1.657319,1.295020,-0.638428,0.101074,-0.135986,0.060466,0.129210,-0.085942,0.999658,0.023938,0.008286,0.006474,0.682094,0.078794,-0.653048,0.319482
44883,NaN,10.829521,12.273148,-8.608825,-0.319486,17.778460,-4.733438,4.949188,1.378718,0.993926,-0.634033,0.103271,-0.148926,0.107094,0.125358,-0.083749,0.999658,0.024743,0.006893,0.004969,0.682841,0.090255,-0.640731,0.339185
44884,NaN,16.597947,13.348749,-9.193514,-1.439472,21.006456,-0.075625,5.026528,1.348557,0.677935,-0.629639,0.103271,-0.163818,0.164911,0.136320,-0.089647,0.999656,0.025130,0.006742,0.003389,0.683502,0.102904,-0.627684,0.358117
44885,NaN,15.542110,13.748879,-8.253509,-2.999670,20.391838,-1.218840,4.885860,1.649000,0.036022,-0.623047,0.096924,-0.187256,0.154727,0.139499,-0.080421,0.999668,0.024427,0.008244,0.000180,0.685904,0.116644,-0.613351,0.373806
44886,NaN,12.567254,12.265809,-5.578324,-4.412186,16.549008,-3.018903,4.312150,1.573150,-0.702576,-0.626953,0.086182,-0.204346,0.125675,0.123395,-0.054116,0.999730,0.021559,0.007865,-0.003513,0.689334,0.130594,-0.599319,0.385461
44887,NaN,10.463328,10.995859,-3.379602,-5.372771,13.368810,-3.963502,3.742059,1.229705,-1.046667,-0.620117,0.075439,-0.223389,0.105007,0.110024,-0.032383,0.999792,0.018709,0.006148,-0.005233,0.692489,0.144511,-0.587385,0.393133
44888,NaN,10.832721,8.472559,-0.942725,-5.403733,10.109675,-2.156920,3.249607,0.949526,-1.258715,-0.621582,0.062744,-0.236084,0.108816,0.084186,-0.008572,0.999837,0.016247,0.004747,-0.006293,0.695283,0.157549,-0.576702,0.398966
44889,NaN,10.767872,5.098853,0.895100,-4.129960,6.555997,-0.718440,2.655663,0.681486,-1.457821,-0.623535,0.052002,-0.246582,0.108077,0.050080,0.009252,0.999879,0.013278,0.003407,-0.007289,0.698013,0.170025,-0.568155,0.401334
44890,NaN,10.326024,2.367102,2.200648,-2.819658,3.659305,-0.028654,1.962398,0.137224,-1.770045,-0.629395,0.039307,-0.259277,0.103478,0.022539,0.022160,0.999912,0.009812,0.000686,-0.008850,0.700217,0.181593,-0.562182,0.400838
44891,NaN,10.082809,3.123192,2.848106,-3.679183,3.388317,-0.091281,1.308715,-0.590330,-2.113143,-0.633301,0.026367,-0.254883,0.101064,0.029976,0.028978,0.999918,0.006543,-0.002952,-0.010565,0.701560,0.193774,-0.559980,0.395838
44892,NaN,8.725435,5.208646,3.116435,-5.429812,3.800848,-1.503694,0.367347,-1.440801,-2.486505,-0.641357,0.011230,-0.250488,0.087664,0.050940,0.031889,0.999895,0.001837,-0.007204,-0.012432,0.702010,0.204837,-0.561838,0.386732
44893,NaN,7.853062,5.660287,2.810026,-5.556325,3.809802,-2.315198,-0.908520,-2.388171,-2.968445,-0.658447,0.004883,-0.239746,0.079019,0.055562,0.028788,0.999808,-0.004542,-0.011940,-0.014841,0.701830,0.215123,-0.569081,0.370544
44894,NaN,8.190432,3.789499,1.960813,-3.479343,3.102683,-1.840983,-2.093341,-3.111116,-3.419942,-0.670410,-0.020752,-0.220215,0.082224,0.036702,0.020497,0.999678,-0.010466,-0.015554,-0.017098,0.701333,0.223185,-0.580014,0.349148
44895,NaN,8.580571,2.141943,0.937439,-1.466710,2.514463,-1.409944,-2.793333,-3.573136,-3.863839,-0.693604,-0.035889,-0.196533,0.086018,0.019901,0.010625,0.999556,-0.013965,-0.017863,-0.019316,0.700505,0.231337,-0.593009,0.322670
44896,NaN,9.154415,1.589552,-0.301971,-0.094424,2.687998,-0.915212,-3.059255,-3.836643,-4.327867,-0.708008,-0.059326,-0.172607,0.091897,0.013879,-0.001481,0.999465,-0.015294,-0.019180,-0.021635,0.699270,0.239501,-0.606058,0.293860
44897,NaN,9.759069,1.858306,-1.045788,0.407293,2.919677,-0.269914,-3.087788,-3.981177,-4.801986,-0.717529,-0.093750,-0.150635,0.098183,0.016086,-0.008768,0.999395,-0.015436,-0.019902,-0.024005,0.697502,0.249537,-0.618501,0.262066
44898,NaN,11.331095,1.246908,-1.002779,1.054388,1.862074,1.426764,-3.064013,-4.145823,-5.304378,-0.724609,-0.138916,-0.117920,0.113764,0.009324,-0.007831,0.999316,-0.015317,-0.020724,-0.026516,0.694975,0.260497,-0.629933,0.228771
44899,NaN,13.052689,0.399046,-1.391920,2.180968,0.571265,3.122094,-3.116594,-4.218463,-5.786988,-0.736084,-0.183838,-0.087402,0.130821,0.000019,-0.011182,0.999238,-0.015579,-0.021087,-0.028928,0.691771,0.273041,-0.640206,0.192454
44900,NaN,13.974147,-0.409342,-1.293133,2.782436,-1.222715,3.890539,-3.133441,-4.295407,-6.256880,-0.726074,-0.231201,-0.056641,0.139752,-0.008636,-0.009818,0.999157,-0.015663,-0.021471,-0.031276,0.687737,0.286113,-0.648996,0.154790
44901,NaN,15.536602,-2.020130,-1.112779,3.793136,-4.047042,4.877388,-3.052369,-4.252282,-6.703064,-0.717529,-0.293457,-0.031982,0.154755,-0.025528,-0.007470,0.999096,-0.015257,-0.021255,-0.033505,0.682762,0.300831,-0.655847,0.114898
44902,NaN,15.459004,-5.047338,0.467374,4.091612,-8.523727,3.420742,-2.810130,-4.113897,-6.962124,-0.691895,-0.349121,-0.000977,0.152561,-0.055706,0.008585,0.999084,-0.014046,-0.020563,-0.034800,0.676876,0.316134,-0.660435,0.075658
44903,NaN,15.434222,-8.026120,1.462980,4.607937,-12.498182,1.463810,-2.467461,-3.996884,-6.967397,-0.666504,-0.398682,0.014893,0.151081,-0.085349,0.018704,0.999118,-0.012334,-0.019979,-0.034827,0.669469,0.332337,-0.663326,0.036913
44904,NaN,18.134938,-11.014299,2.277834,5.373371,-17.282026,1.483045,-2.182542,-3.966387,-6.643015,-0.630371,-0.450195,0.032959,0.177050,-0.115789,0.027562,0.999192,-0.010910,-0.019827,-0.033206,0.660632,0.347507,-0.665435,0.000850
44905,NaN,22.067304,-13.776262,2.452737,6.485513,-22.288159,2.171720,-2.101880,-3.851138,-6.051777,-0.594482,-0.497314,0.048828,0.215832,-0.144046,0.030207,0.999302,-0.010507,-0.019251,-0.030252,0.650889,0.360649,-0.667209,-0.033276
44906,NaN,24.903446,-17.495122,1.962154,8.269028,-27.251820,1.083677,-1.995987,-3.445035,-5.313731,-0.563477,-0.523193,0.057861,0.243867,-0.181241,0.025640,0.999449,-0.009978,-0.017222,-0.026564,0.641760,0.371091,-0.668144,-0.063394
44907,NaN,26.313646,-20.089547,2.923670,7.969591,-31.048355,-1.051632,-1.791505,-2.735685,-4.381671,-0.538818,-0.546875,0.056152,0.258207,-0.206295,0.034623,0.999626,-0.008956,-0.013677,-0.021906,0.634219,0.378989,-0.668036,-0.088669
44908,NaN,26.051345,-22.910716,2.918978,8.451196,-33.329744,-4.369506,-1.610622,-2.019490,-3.208796,-0.517090,-0.555420,0.056396,0.256471,-0.232985,0.033659,0.999788,-0.008053,-0.010097,-0.016043,0.628975,0.383608,-0.667510,-0.108009
44909,NaN,24.537816,-27.968075,2.273893,10.256984,-35.835069,-9.598150,-1.335875,-1.316642,-1.939070,-0.510254,-0.566162,0.052490,0.242487,-0.281874,0.026220,0.999909,-0.006679,-0.006583,-0.009695,0.626033,0.384984,-0.667267,-0.120927
44910,NaN,21.090665,-30.563676,2.035939,10.664730,-35.335360,-14.367950,-1.015465,-0.830090,-0.670938,-0.503662,-0.570557,0.052490,0.209789,-0.306230,0.022785,0.999973,-0.005077,-0.004150,-0.003355,0.624803,0.383517,-0.667948,-0.127988
44911,NaN,17.951959,-30.451559,1.626115,10.426424,-33.129107,-16.591915,-0.569665,-0.520247,0.506785,-0.503906,-0.562012,0.054443,0.180246,-0.304011,0.017596,0.999989,-0.002848,-0.002601,0.002534,0.624552,0.379382,-0.670381,-0.128819
44912,NaN,15.077601,-29.456678,2.366129,9.004313,-30.882773,-17.923505,-0.088638,-0.209119,1.472041,-0.510498,-0.557617,0.056641,0.152914,-0.293436,0.023951,0.999972,-0.000443,-0.001046,0.007360,0.624957,0.374010,-0.673756,-0.124891
44913,NaN,12.795478,-26.097422,3.090118,7.000662,-27.441728,-17.041535,0.402495,0.108351,2.185551,-0.524170,-0.536133,0.056152,0.130813,-0.259617,0.030307,0.999938,0.002012,0.000542,0.010928,0.626022,0.367472,-0.677986,-0.115740
44914,NaN,16.814536,-14.902131,2.857329,3.526906,-22.108650,-6.392008,0.843623,0.408121,2.747247,-0.535400,-0.527588,0.060303,0.170229,-0.146810,0.027605,0.999895,0.004218,0.002041,0.013736,0.627387,0.360981,-0.682178,-0.103497
44915,NaN,21.514252,8.758142,16.215547,-17.240742,-11.879179,9.269400,0.735857,1.353006,3.021274,-0.559570,-0.506104,0.053467,0.214885,0.090235,0.161030,0.999856,0.003679,0.006765,0.015106,0.632316,0.353061,-0.683931,-0.088105
44916,NaN,43.190131,55.484843,6.567247,-24.098905,14.835500,54.878810,-2.177361,1.914645,4.681724,-0.581787,-0.484619,0.029297,0.419311,0.565404,0.055500,0.999621,-0.010885,0.009572,0.023406,0.644534,0.330863,-0.684929,-0.077314
44917,NaN,32.539867,11.060813,-7.730850,4.834245,-6.291463,24.507149,-4.470874,-0.741246,4.795590,-0.597900,-0.456543,0.011719,0.322940,0.116623,-0.078671,0.999456,-0.022350,-0.003706,0.023974,0.651188,0.299212,-0.693140,-0.077346
44918,NaN,20.183035,-49.102037,-10.351303,25.000304,-47.762910,-14.083795,-1.823126,-2.551868,5.472123,-0.625244,-0.415771,0.028076,0.216437,-0.486131,-0.096367,0.999503,-0.009114,-0.012757,0.027356,0.646871,0.273162,-0.708587,-0.069604
44919,NaN,20.578134,-16.271593,10.052315,-5.111843,-25.693495,0.320416,1.154349,0.598787,7.410207,-0.652344,-0.372803,0.016602,0.211931,-0.155513,0.098983,0.999293,0.005770,0.002993,0.037042,0.649700,0.250118,-0.716776,-0.039534
44920,NaN,-9.662297,-8.020609,3.688576,-0.657145,-4.388598,-22.123305,1.261759,0.952431,5.874295,-0.673096,-0.332031,0.011719,-0.094032,-0.083226,0.036819,0.999537,0.006308,0.004761,0.029367,0.652402,0.233220,-0.720947,-0.014700
44921,NaN,7.205820,-7.908863,-10.495126,12.085469,-6.547080,-3.839763,-0.580797,-0.073303,5.191943,-0.685059,-0.300049,0.015381,0.074122,-0.077486,-0.104698,0.999659,-0.002904,-0.000366,0.025957,0.653132,0.212002,-0.726961,0.001334
44922,NaN,12.294103,-13.102337,-4.000297,7.075701,-14.400885,-0.795274,0.102282,0.261181,4.491134,-0.694824,-0.270020,0.014893,0.125789,-0.128199,-0.040232,0.999747,0.000511,0.001306,0.022454,0.653782,0.195937,-0.730684,0.016671
44923,NaN,11.666125,-11.554633,2.564156,0.333935,-14.283953,-1.327047,0.925875,0.523901,3.794215,-0.706543,-0.239990,0.014404,0.118892,-0.113421,0.024804,0.999806,0.004629,0.002619,0.018970,0.654392,0.184395,-0.732530,0.034199
44924,NaN,9.820098,-9.388843,0.295220,1.989062,-10.883661,-1.923343,1.470497,1.026820,3.118668,-0.713379,-0.224854,0.009766,0.099660,-0.092358,0.001760,0.999838,0.007352,0.005134,0.015592,0.656162,0.177557,-0.731676,0.050754
44925,NaN,10.316661,-4.980006,-1.091476,1.898005,-6.117422,-0.252937,1.325011,1.021177,2.750855,-0.720703,-0.205566,0.003174,0.103779,-0.048299,-0.011767,0.999870,0.006625,0.005106,0.013754,0.657968,0.170916,-0.730345,0.066804
44926,NaN,7.839593,1.330453,0.455414,-1.487586,-0.079500,-1.988723,0.091060,0.370160,2.401592,-0.723389,-0.186279,0.004883,0.078237,0.014243,0.004416,0.999926,0.000455,0.001851,0.012008,0.658394,0.162287,-0.731095,0.075374
44927,NaN,11.953908,-2.243164,-1.116592,0.776330,-3.250664,1.934630,-0.802759,-0.187782,2.156198,-0.726074,-0.171387,0.002441,0.119782,-0.021185,-0.010967,0.999933,-0.004014,-0.000939,0.010781,0.657503,0.151206,-0.733709,0.080611
44928,NaN,15.118055,-3.464327,-0.707033,0.361240,-4.670625,4.989485,-0.777262,-0.314918,1.908025,-0.726318,-0.162598,0.002441,0.151513,-0.033225,-0.006701,0.999946,-0.003886,-0.001575,0.009540,0.656133,0.141747,-0.736459,0.083816
44929,NaN,16.311384,-4.005751,-1.441250,0.941084,-4.816276,6.314826,-0.731234,-0.319092,1.525094,-0.729004,-0.149902,0.006592,0.163436,-0.038864,-0.014008,0.999963,-0.003656,-0.001595,0.007625,0.654790,0.133267,-0.738854,0.087092
44930,NaN,16.970968,-4.550316,-3.815927,3.141445,-4.496753,7.310036,-0.440884,-0.266006,1.149048,-0.733643,-0.141357,0.010742,0.170018,-0.044611,-0.037834,0.999980,-0.002204,-0.001330,0.005745,0.653591,0.127668,-0.740666,0.089072
44931,NaN,22.275943,0.337718,-0.638543,-2.076227,-0.959674,12.357199,-0.095573,-0.165278,0.952000,-0.733643,-0.136963,0.004150,0.222745,0.004434,-0.006203,0.999988,-0.000478,-0.000826,0.004760,0.652564,0.123311,-0.741841,0.092881
44932,NaN,26.240344,5.094162,2.779649,-7.296359,2.510263,15.930079,-0.050904,0.039028,0.843387,-0.738281,-0.130615,0.006104,0.262191,0.052055,0.027732,0.999991,-0.000255,0.000195,0.004217,0.652345,0.119973,-0.742249,0.095493
44933,NaN,24.403835,5.416520,1.769677,-6.263878,3.467267,14.203072,0.068919,0.141309,0.727143,-0.729736,-0.130615,-0.000244,0.243852,0.055046,0.017543,0.999993,0.000345,0.000707,0.003636,0.652457,0.116923,-0.742135,0.099325
44934,NaN,21.055357,6.141820,1.072749,-5.441275,4.672269,10.942110,0.401511,0.175336,0.656520,-0.734131,-0.126221,0.006104,0.210360,0.062087,0.010667,0.999992,0.002008,0.000877,0.003283,0.652544,0.115683,-0.741739,0.103085
44935,NaN,18.806053,7.681676,0.520448,-5.163484,6.531605,8.724365,0.848635,0.200425,0.512089,-0.734619,-0.113281,0.001709,0.187868,0.077275,0.005343,0.999987,0.004243,0.001002,0.002560,0.652536,0.116035,-0.740834,0.109079
44936,NaN,18.162555,9.773960,0.415938,-5.715545,8.626863,8.033615,1.289253,0.242408,0.360436,-0.730225,-0.113281,-0.000488,0.181454,0.098038,0.004571,0.999977,0.006446,0.001212,0.001802,0.652477,0.118746,-0.739529,0.115196
44938,NaN,16.287202,12.735221,0.074006,-12.675920,23.185457,21.992674,1.766639,0.446690,0.126138,-0.732178,-0.115479,-0.019775,0.325438,0.255053,0.004530,0.999833,0.017665,0.004467,0.001261,0.653470,0.128482,-0.734455,0.130557
44939,NaN,12.882435,14.517770,-0.819135,-5.988471,13.575623,2.726541,1.850107,0.831617,-0.114548,-0.725586,-0.119873,-0.023926,0.128876,0.145175,-0.007384,0.999948,0.009250,0.004158,-0.000573,0.655378,0.134372,-0.730417,0.137532
44940,NaN,11.059270,13.679636,-1.787499,-4.725898,13.161135,1.007873,1.546911,0.960445,-0.146469,-0.728027,-0.111084,-0.026123,0.110609,0.136851,-0.017348,0.999958,0.007734,0.004802,-0.000732,0.658000,0.139135,-0.725881,0.144135
44941,NaN,10.564201,10.484703,-3.168449,-2.224661,10.778573,0.696512,1.075718,1.013832,0.155880,-0.728027,-0.113281,-0.034668,0.105400,0.105100,-0.031654,0.999972,0.005379,0.005069,0.000779,0.660802,0.141348,-0.721856,0.149282
44942,NaN,10.143815,9.267098,-2.829076,-2.010475,9.621584,0.195345,0.452803,1.061604,0.852852,-0.728271,-0.104736,-0.045654,0.100890,0.093167,-0.028617,0.999974,0.002264,0.005308,0.004264,0.663739,0.138861,-0.718401,0.155139
44943,NaN,8.721219,10.317077,-2.431294,-2.630528,10.560418,-1.448238,-0.263608,1.208202,1.733033,-0.732910,-0.093994,-0.056396,0.086165,0.103888,-0.024972,0.999943,-0.001318,0.006041,0.008665,0.666881,0.130790,-0.715756,0.160802
44944,NaN,6.461771,12.306441,-2.509262,-3.086013,12.543446,-4.101110,-0.791245,1.358600,2.666595,-0.729248,-0.076904,-0.069580,0.062796,0.123808,-0.026012,0.999880,-0.003956,0.006793,0.013332,0.670101,0.117440,-0.713341,0.168276
44945,NaN,4.888076,14.771116,-2.231194,-4.023669,14.790472,-6.337243,-1.116247,1.470405,3.435633,-0.732178,-0.048828,-0.082764,0.046166,0.148391,-0.023485,0.999810,-0.005581,0.007352,0.017177,0.672983,0.100161,-0.711232,0.176665
44946,NaN,4.223839,16.685785,-1.902997,-4.774872,16.528842,-7.856356,-1.435679,1.417936,3.953837,-0.729004,-0.014648,-0.098389,0.038789,0.167504,-0.020514,0.999754,-0.007178,0.007089,0.019768,0.675141,0.080004,-0.709373,0.185944
44947,NaN,3.566314,16.899356,-0.749783,-5.591162,16.348332,-9.277599,-1.520063,1.291068,4.258804,-0.732422,0.017578,-0.103271,0.032000,0.169636,-0.009000,0.999724,-0.007600,0.006455,0.021292,0.676181,0.058520,-0.707930,0.195422
44948,NaN,6.019332,12.511741,1.070903,-5.744270,12.290442,-6.676012,-1.284171,1.017527,4.232619,-0.733398,0.045410,-0.114258,0.057578,0.126418,0.009603,0.999743,-0.006420,0.005087,0.021161,0.675912,0.038292,-0.706653,0.205713
44949,NaN,10.960320,7.630092,1.061552,-4.447237,9.247711,-1.201715,-0.443349,0.876939,4.148464,-0.729980,0.077637,-0.116943,0.108034,0.078575,0.009967,0.999773,-0.002217,0.004384,0.020741,0.674674,0.021200,-0.704773,0.218315
44950,NaN,11.446428,7.408016,-0.746042,-2.745146,10.143899,-1.094999,0.784140,1.099621,3.784866,-0.718018,0.103271,-0.127930,0.112993,0.076258,-0.007788,0.999798,0.003920,0.005498,0.018923,0.674274,0.009483,-0.700321,0.234127
44951,NaN,7.451348,10.433421,-5.217815,0.707368,13.390470,-6.381388,2.085664,1.491175,3.242154,-0.720703,0.118408,-0.143066,0.072417,0.106060,-0.051623,0.999786,0.010428,0.007455,0.016210,0.675455,0.003388,-0.692849,0.252408
44952,NaN,3.348216,13.022232,-7.167788,1.678331,15.021152,-11.729227,3.397477,1.757123,2.764681,-0.712646,0.137695,-0.162598,0.031049,0.131858,-0.069727,0.999722,0.016986,0.008785,0.013822,0.677879,0.003273,-0.682370,0.273571
44953,NaN,2.033199,13.085654,-7.398684,1.449400,14.639533,-13.506081,4.446018,1.869874,2.153105,-0.704102,0.139893,-0.181885,0.018236,0.132664,-0.071228,0.999651,0.022228,0.009348,0.010764,0.681001,0.008411,-0.669741,0.295999
44954,NaN,5.451077,12.078654,-7.373064,0.970283,15.119822,-10.422670,5.028541,1.805880,1.574211,-0.699951,0.146240,-0.197021,0.052898,0.123018,-0.071139,0.999612,0.025139,0.009028,0.007870,0.684305,0.017803,-0.655910,0.318106
44955,NaN,9.458153,11.467201,-6.949484,-0.000695,16.140892,-6.866884,5.350728,1.718990,1.233628,-0.697266,0.133545,-0.224609,0.093280,0.117068,-0.067189,0.999586,0.026750,0.008594,0.006167,0.687216,0.029296,-0.641350,0.339921
44956,NaN,15.282378,11.241134,-7.453564,-0.368415,18.803335,-1.955987,5.487646,1.593387,0.920647,-0.695312,0.137939,-0.248291,0.151714,0.115122,-0.072613,0.999581,0.027434,0.007966,0.004603,0.689729,0.042722,-0.626437,0.360591
44957,NaN,18.490021,12.790266,-8.681831,-0.930309,22.117688,-0.286359,5.327605,1.836998,0.401697,-0.688477,0.129395,-0.260986,0.183853,0.130554,-0.085056,0.999601,0.026634,0.009184,0.002008,0.693337,0.056481,-0.610327,0.378938
44959,NaN,12.555079,11.791815,-7.214802,-4.030896,35.840655,-0.122439,4.497064,1.545365,-0.781233,-0.697998,0.095215,-0.290527,0.250807,0.240161,-0.137436,0.998839,0.044953,0.015448,-0.007809,0.702434,0.086801,-0.581541,0.401075
44960,NaN,11.966047,9.103347,-5.380573,-2.111804,14.695412,-3.931621,3.916657,0.871563,-1.402223,-0.688721,0.075928,-0.303223,0.120069,0.091230,-0.052543,0.999774,0.019582,0.004357,-0.007011,0.705913,0.102842,-0.569881,0.407855
44961,NaN,13.321335,4.979340,-2.130048,-1.650638,10.553004,-0.184847,3.656114,0.681929,-1.742875,-0.690430,0.062988,-0.309326,0.133571,0.049014,-0.020855,0.999789,0.018279,0.003409,-0.008714,0.709431,0.119701,-0.559195,0.411924
44962,NaN,14.341682,-0.010939,-0.479624,0.978628,6.683355,2.847529,3.323380,0.457304,-2.216045,-0.695801,0.037354,-0.311035,0.143393,-0.001615,-0.005143,0.999798,0.016616,0.002286,-0.011079,0.713131,0.136696,-0.549285,0.413575
44963,NaN,11.035280,-0.073884,1.321068,-0.095977,3.835642,0.617909,2.980982,0.112680,-2.679140,-0.703613,0.011719,-0.315186,0.110335,-0.002413,0.013121,0.999799,0.014904,0.000563,-0.013395,0.716825,0.154835,-0.540997,0.411717
44964,NaN,7.554334,3.260756,3.302449,-3.963238,2.866264,-2.418477,1.967455,-0.881521,-3.167468,-0.715576,-0.014160,-0.312500,0.075896,0.031078,0.033669,0.999816,0.009837,-0.004407,-0.015836,0.719296,0.172219,-0.537552,0.404959
