// Start Time: Unknown
// Update Rate: 100.0Hz
// Filter Profile: human (46.1)
// Firmware Version: 4.4.0
PacketCounter,SampleTimeFine,Acc_X,Acc_Y,Acc_Z,FreeAcc_X,FreeAcc_Y,FreeAcc_Z,Gyr_X,Gyr_Y,Gyr_Z,Mag_X,Mag_Y,Mag_Z,VelInc_X,VelInc_Y,VelInc_Z,OriInc_q0,OriInc_q1,OriInc_q2,OriInc_q3,Quat_q0,Quat_q1,Quat_q2,Quat_q3
09588,NaN,10.635378,-0.883342,0.163827,0.000000,0.000000,0.860559,-0.395017,-0.068179,-0.457211,-0.584229,0.327881,0.021484,0.106333,-0.009073,0.001692,0.999995,-0.001975,-0.000341,-0.002286,0.492077,-0.546776,-0.439440,-0.515546
09589,NaN,10.649269,-0.728436,0.328351,-0.000000,-0.000000,0.866505,-0.304700,0.030192,-0.485749,-0.588623,0.327637,0.030029,0.106475,-0.007538,0.003279,0.999996,-0.001523,0.000151,-0.002429,0.476720,-0.551854,-0.424389,-0.536740
09590,NaN,9.769898,0.054607,0.125349,0.781213,-0.244667,-0.076199,-0.226280,0.142827,-0.529393,-0.581787,0.319092,0.023926,0.097701,0.000289,0.001183,0.999996,-0.001131,0.000714,-0.002647,0.482298,-0.549726,-0.430458,-0.529052
09591,NaN,9.120702,0.482890,0.179922,1.111013,-0.245516,-0.748591,-0.147789,0.217795,-0.611271,-0.585938,0.312744,0.030273,0.091223,0.004551,0.001696,0.999994,-0.000739,0.001089,-0.003056,0.480741,-0.548188,-0.431219,-0.531439
09592,NaN,9.299766,0.060749,-0.018902,0.601267,-0.384060,-0.540131,-0.075600,0.244536,-0.673876,-0.585693,0.308350,0.028320,0.092999,0.000294,-0.000303,0.999994,-0.000378,0.001223,-0.003369,0.478793,-0.546151,-0.432670,-0.534109
09593,NaN,9.716075,-0.156288,-0.740999,0.221608,-1.085485,-0.130340,-0.048908,0.203191,-0.674263,-0.592285,0.306396,0.043213,0.097147,-0.001892,-0.007508,0.999994,-0.000245,0.001016,-0.003371,0.477296,-0.544263,-0.433892,-0.536381
09594,NaN,10.164572,0.876378,-1.166110,1.098046,-1.669382,0.259722,-0.066867,0.142763,-0.653938,-0.585449,0.295654,0.043457,0.101665,0.008427,-0.011737,0.999994,-0.000334,0.000714,-0.003270,0.474385,-0.542771,-0.436537,-0.538324
09595,NaN,10.296151,1.249091,-1.019413,1.428030,-1.598212,0.386148,-0.102876,0.165009,-0.608919,-0.598145,0.291260,0.049805,0.102990,0.012172,-0.010285,0.999995,-0.000514,0.000825,-0.003045,0.472825,-0.541239,-0.437519,-0.540438
09596,NaN,9.894459,0.559371,-1.101359,0.562596,-1.421782,0.040634,-0.120790,0.161524,-0.559978,-0.595703,0.282715,0.050049,0.098951,0.005310,-0.011097,0.999996,-0.000604,0.000808,-0.002800,0.465691,-0.540176,-0.444428,-0.542057
09597,NaN,9.662907,0.147047,-1.223936,0.076024,-1.472633,-0.183733,-0.071429,0.154281,-0.510430,-0.602051,0.280518,0.052246,0.096623,0.001219,-0.012314,0.999996,-0.000357,0.000771,-0.002552,0.464456,-0.538788,-0.445252,-0.543819
09598,NaN,9.535820,0.478072,-1.002910,0.298205,-1.114537,-0.281950,-0.025545,0.169297,-0.442568,-0.593262,0.276367,0.052246,0.095360,0.004568,-0.010110,0.999997,-0.000128,0.000846,-0.002213,0.455903,-0.539398,-0.454226,-0.543030
09599,NaN,9.445310,0.898459,-0.655940,0.731013,-0.853771,-0.368751,-0.062106,0.166206,-0.369730,-0.601807,0.274170,0.058594,0.094464,0.008808,-0.006641,0.999998,-0.000311,0.000831,-0.001849,0.455108,-0.538247,-0.454675,-0.544461
09600,NaN,9.203457,0.864774,-0.467313,0.601832,-0.470046,-0.588447,-0.143904,0.143842,-0.298626,-0.603760,0.263428,0.063232,0.092044,0.008507,-0.004745,0.999998,-0.000720,0.000719,-0.001493,0.446245,-0.539315,-0.463270,-0.543494
09601,NaN,8.911543,0.745474,-0.433618,0.469368,-0.428589,-0.882104,-0.222290,0.100144,-0.230416,-0.603516,0.261230,0.065186,0.089122,0.007347,-0.004389,0.999999,-0.001111,0.000501,-0.001152,0.445251,-0.539004,-0.463063,-0.544792
09602,NaN,8.720343,0.621603,-0.517026,0.227509,-0.353039,-1.065021,-0.285079,0.056837,-0.165150,-0.599365,0.261230,0.063232,0.087207,0.006137,-0.005204,0.999999,-0.001425,0.000284,-0.000826,0.437524,-0.539752,-0.469550,-0.544760
09603,NaN,8.476282,0.727726,-0.560815,0.318545,-0.425485,-1.303344,-0.336275,0.026913,-0.101435,-0.610107,0.261230,0.071777,0.084766,0.007225,-0.005632,0.999998,-0.001681,0.000135,-0.000507,0.436403,-0.540175,-0.468848,-0.545843
09604,NaN,8.160869,0.893375,-0.662381,0.402216,-0.467512,-1.599509,-0.387605,-0.002079,-0.029183,-0.605469,0.254883,0.067627,0.081610,0.008909,-0.006640,0.999998,-0.001938,-0.000010,-0.000146,0.430300,-0.541330,-0.473004,-0.545959
09605,NaN,7.825408,1.006376,-0.816748,0.496239,-0.655338,-1.923381,-0.455957,-0.050261,0.038142,-0.607666,0.254883,0.082520,0.078254,0.010060,-0.008171,0.999997,-0.002280,-0.000251,0.000191,0.429050,-0.542537,-0.471763,-0.546818
09606,NaN,7.685397,1.049001,-0.929871,0.469145,-0.700132,-2.046085,-0.544119,-0.113372,0.088489,-0.594971,0.259033,0.080322,0.076855,0.010499,-0.009284,0.999996,-0.002721,-0.000567,0.000442,0.423229,-0.544359,-0.474668,-0.547029
09607,NaN,7.557940,0.893335,-0.974894,0.317807,-0.716478,-2.180088,-0.628314,-0.179450,0.128323,-0.609863,0.252686,0.088867,0.075582,0.008951,-0.009709,0.999994,-0.003142,-0.000897,0.000642,0.421441,-0.546481,-0.472977,-0.547757
09608,NaN,7.532723,0.711013,-1.237371,0.047605,-0.857134,-2.194185,-0.692013,-0.251685,0.146120,-0.603516,0.256836,0.086670,0.075338,0.007123,-0.012304,0.999993,-0.003460,-0.001258,0.000731,0.415454,-0.549188,-0.475139,-0.547753
09609,NaN,7.675821,0.745293,-1.434991,0.037952,-1.031842,-2.036653,-0.710000,-0.311747,0.150681,-0.603516,0.256836,0.093262,0.076775,0.007460,-0.014257,0.999992,-0.003550,-0.001559,0.000753,0.413173,-0.551870,-0.473425,-0.548266
09610,NaN,7.809538,0.657890,-1.593205,-0.112034,-1.062613,-1.886890,-0.687493,-0.352383,0.149021,-0.603760,0.263428,0.091064,0.078118,0.006583,-0.015817,0.999992,-0.003437,-0.001762,0.000745,0.407434,-0.555403,-0.475375,-0.547306
09611,NaN,7.945142,0.604334,-1.729905,-0.195254,-1.148906,-1.742687,-0.625391,-0.373574,0.150503,-0.603760,0.259033,0.095215,0.079479,0.006049,-0.017170,0.999993,-0.003127,-0.001868,0.000753,0.405219,-0.558053,-0.474003,-0.547445
09612,NaN,8.152790,0.544190,-1.692424,-0.261772,-0.973973,-1.529499,-0.535646,-0.383303,0.144364,-0.601562,0.261230,0.084473,0.081556,0.005456,-0.016783,0.999994,-0.002678,-0.001917,0.000722,0.400215,-0.561847,-0.476138,-0.545388
09613,NaN,8.325044,0.308221,-1.597019,-0.467238,-0.782729,-1.379374,-0.434902,-0.386559,0.135831,-0.612305,0.263428,0.099609,0.083279,0.003104,-0.015816,0.999996,-0.002175,-0.001933,0.000679,0.398442,-0.564092,-0.475342,-0.545064
09614,NaN,8.445390,0.152861,-1.553143,-0.600935,-0.587006,-1.265498,-0.320855,-0.374822,0.125349,-0.606201,0.271973,0.093018,0.084482,0.001557,-0.015376,0.999997,-0.001604,-0.001874,0.000627,0.394686,-0.567607,-0.477530,-0.542227
09615,NaN,8.533553,0.061353,-1.361194,-0.634958,-0.341508,-1.201168,-0.210545,-0.353541,0.107415,-0.612793,0.276123,0.094971,0.085359,0.000645,-0.013462,0.999998,-0.001053,-0.001768,0.000537,0.393535,-0.569236,-0.477351,-0.541514
09616,NaN,8.616892,-0.122344,-1.346274,-0.785541,-0.186230,-1.127849,-0.096978,-0.331702,0.091582,-0.612793,0.278320,0.086426,0.086192,-0.001190,-0.013319,0.999998,-0.000485,-0.001659,0.000458,0.391317,-0.572163,-0.479307,-0.538298
09617,NaN,8.832249,-0.038529,-1.230879,-0.671840,-0.041508,-0.920442,0.003447,-0.304312,0.076679,-0.615234,0.280518,0.094971,0.088341,-0.000351,-0.012174,0.999999,0.000017,-0.001522,0.000383,0.390803,-0.573159,-0.479692,-0.537269
09618,NaN,8.920901,0.105692,-1.143329,-0.476784,0.089079,-0.831288,0.069866,-0.279892,0.062084,-0.613037,0.282715,0.077881,0.089225,0.001089,-0.011308,0.999999,0.000349,-0.001399,0.000310,0.389953,-0.575441,-0.481289,-0.534009
09619,NaN,8.923037,0.187575,-0.941093,-0.337362,0.287199,-0.849146,0.091037,-0.257851,0.057555,-0.617676,0.291260,0.090576,0.089242,0.001906,-0.009295,0.999999,0.000455,-0.001289,0.000288,0.389747,-0.576090,-0.481869,-0.532935
09620,NaN,8.988277,0.134294,-0.717269,-0.302792,0.571750,-0.818077,0.083975,-0.236883,0.053736,-0.615479,0.291260,0.075439,0.089891,0.001370,-0.007066,0.999999,0.000420,-0.001184,0.000269,0.389372,-0.577965,-0.482713,-0.530410
09621,NaN,9.130738,0.311314,-0.448953,-0.061721,0.828319,-0.703412,0.062163,-0.209220,0.046319,-0.622070,0.297607,0.075439,0.091311,0.003136,-0.004393,0.999999,0.000311,-0.001046,0.000232,0.389169,-0.578510,-0.483151,-0.529565
09622,NaN,9.329550,0.613487,-0.094146,0.341312,1.152255,-0.540065,0.004303,-0.165694,0.053766,-0.622314,0.299805,0.066650,0.093295,0.006160,-0.000864,1.000000,0.000022,-0.000828,0.000269,0.388694,-0.580274,-0.482577,-0.528506
09623,NaN,9.421038,0.692475,0.196437,0.494294,1.438094,-0.487366,-0.070611,-0.122500,0.079311,-0.626709,0.304199,0.062500,0.094206,0.006963,0.002020,1.000000,-0.000353,-0.000612,0.000397,0.388403,-0.580926,-0.482398,-0.528166
09624,NaN,9.333910,0.619419,0.326697,0.483389,1.557306,-0.595670,-0.162830,-0.069209,0.111307,-0.624512,0.306396,0.053711,0.093334,0.006249,0.003294,0.999999,-0.000814,-0.000346,0.000557,0.387531,-0.582740,-0.479908,-0.529076
09625,NaN,9.444693,-0.525968,0.110322,-0.668087,1.641772,-0.520257,-0.266065,-0.036472,0.160807,-0.631348,0.319092,0.055664,0.094451,-0.005182,0.001127,0.999999,-0.001330,-0.000182,0.000804,0.387093,-0.583738,-0.478805,-0.529296
09626,NaN,10.563187,-0.429451,-0.984758,-0.833259,0.707027,0.748602,-0.250391,-0.110051,0.253170,-0.627197,0.319336,0.047119,0.105643,-0.004173,-0.009784,0.999998,-0.001252,-0.000550,0.001266,0.387094,-0.585483,-0.475625,-0.530234
09627,NaN,11.814918,1.198334,0.487664,1.124232,1.889284,1.867753,-0.371885,0.071279,0.289326,-0.627197,0.323486,0.049316,0.118133,0.012163,0.004812,0.999997,-0.001859,0.000356,0.001447,0.386941,-0.586700,-0.473653,-0.530766
09628,NaN,9.981208,3.738564,-0.731496,3.320259,-0.253926,0.338556,-0.561464,0.015695,0.337557,-0.627441,0.327881,0.040527,0.099748,0.037533,-0.007428,0.999995,-0.002807,0.000078,0.001688,0.387293,-0.588056,-0.469716,-0.532505
09629,NaN,10.711685,2.958331,-0.854199,2.555501,-0.095683,1.035432,-0.804780,-0.071560,0.395801,-0.625488,0.336426,0.046875,0.107061,0.029761,-0.008623,0.999990,-0.004024,-0.000358,0.001979,0.385808,-0.590729,-0.466543,-0.533413
09630,NaN,11.235103,2.654278,-2.579417,1.778922,-1.644139,1.765668,-0.944491,-0.131444,0.396998,-0.625732,0.340576,0.036133,0.112315,0.026644,-0.025846,0.999987,-0.004722,-0.000657,0.001985,0.383478,-0.592796,-0.462453,-0.536353
09631,NaN,12.388772,2.303257,-3.057739,1.323744,-1.860126,2.951481,-0.807804,-0.074886,0.414020,-0.634277,0.340576,0.044678,0.123851,0.023165,-0.030624,0.999990,-0.004039,-0.000374,0.002070,0.382017,-0.595496,-0.459199,-0.537200
09632,NaN,14.065486,2.270025,-4.584905,0.815289,-3.097510,4.807602,-0.658289,-0.017740,0.462369,-0.630371,0.349365,0.038086,0.140606,0.022874,-0.045912,0.999992,-0.003291,-0.000089,0.002312,0.380017,-0.597085,-0.456244,-0.539367
09633,NaN,13.989451,3.555680,-3.594522,2.371043,-2.579420,4.643892,-0.512497,0.017039,0.464425,-0.643311,0.351318,0.046631,0.139809,0.035789,-0.036049,0.999994,-0.002562,0.000085,0.002322,0.379777,-0.599069,-0.453440,-0.539702
09634,NaN,11.318295,0.434582,0.252798,0.535967,1.620778,1.387403,-0.244945,0.243013,0.510856,-0.639160,0.357910,0.048584,0.113174,0.004638,0.002385,0.999995,-0.001225,0.001215,0.002554,0.378793,-0.599609,-0.451813,-0.541156
09635,NaN,7.522233,-2.072014,0.950371,-1.619927,2.501329,-2.539490,0.041706,0.357117,0.552255,-0.649902,0.357910,0.050781,0.075296,-0.020514,0.009365,0.999995,0.000209,0.001786,0.002761,0.381217,-0.599808,-0.449591,-0.541084
09636,NaN,7.216547,-2.640368,0.606310,-2.258529,2.277942,-2.803585,0.126001,0.357368,0.550823,-0.643555,0.362061,0.046387,0.072248,-0.026209,0.005918,0.999994,0.000630,0.001787,0.002754,0.382780,-0.599322,-0.447795,-0.542008
09637,NaN,9.167109,-0.031304,0.982664,0.398071,2.032184,-0.828593,0.014210,0.315950,0.599847,-0.652588,0.368652,0.048340,0.091687,-0.000039,0.009682,0.999994,0.000071,0.001580,0.002999,0.385153,-0.599778,-0.445428,-0.541772
09638,NaN,11.885474,2.248962,0.620472,2.534385,1.236072,1.966774,-0.291842,0.240368,0.629834,-0.654785,0.375000,0.043945,0.118790,0.022873,0.006029,0.999993,-0.001459,0.001202,0.003149,0.386309,-0.600553,-0.441835,-0.543031
09639,NaN,13.227654,2.235220,-1.359419,1.990951,-0.540885,3.512401,-0.479914,0.242503,0.598906,-0.655029,0.379395,0.046143,0.132192,0.022715,-0.013809,0.999992,-0.002400,0.001213,0.002995,0.387027,-0.602140,-0.438261,-0.543658
09640,NaN,10.733595,0.486026,-1.826982,0.139953,-0.770990,1.057901,-0.377703,0.293503,0.648678,-0.659424,0.383545,0.039551,0.107293,0.005174,-0.018437,0.999992,-0.001889,0.001468,0.003243,0.387594,-0.602765,-0.434316,-0.545724
09641,NaN,9.959335,-0.510159,-1.153079,-0.557662,0.053934,0.210478,-0.226969,0.348499,0.685513,-0.659668,0.389893,0.050293,0.099590,-0.004773,-0.011699,0.999992,-0.001135,0.001742,0.003428,0.389534,-0.603737,-0.430952,-0.545935
09642,NaN,9.961157,-0.416723,-0.234317,-0.142708,0.824018,0.124785,-0.164972,0.372792,0.668419,-0.657715,0.398682,0.037354,0.099620,-0.003836,-0.002526,0.999992,-0.000825,0.001864,0.003342,0.391078,-0.603958,-0.427490,-0.547306
09643,NaN,10.242571,-0.082975,-0.001181,0.308961,0.903586,0.385585,-0.190243,0.339261,0.633208,-0.664307,0.398682,0.050049,0.102427,-0.000506,-0.000185,0.999993,-0.000951,0.001696,0.003166,0.392959,-0.604751,-0.424391,-0.547496
09644,NaN,10.132394,-0.460282,-0.314757,-0.125473,0.659975,0.312758,-0.213799,0.312067,0.586929,-0.660156,0.405029,0.045654,0.101332,-0.004309,-0.003301,0.999994,-0.001069,0.001560,0.002935,0.394195,-0.605061,-0.420995,-0.548885
09645,NaN,9.921129,-1.123733,-0.433162,-0.755630,0.709496,0.127360,-0.179607,0.284610,0.542021,-0.664551,0.407227,0.054199,0.099235,-0.010972,-0.004463,0.999995,-0.000898,0.001423,0.002710,0.395736,-0.605772,-0.418299,-0.549053
09646,NaN,9.969566,-1.324420,-0.247841,-0.853449,0.899176,0.170829,-0.118883,0.282563,0.486832,-0.662598,0.409424,0.043457,0.099724,-0.013003,-0.002612,0.999996,-0.000594,0.001413,0.002434,0.397146,-0.605836,-0.415423,-0.550147
09647,NaN,10.106825,-1.202975,0.063258,-0.593777,1.118048,0.286631,-0.048902,0.286812,0.425818,-0.671387,0.419922,0.047607,0.101094,-0.011814,0.000491,0.999997,-0.000245,0.001434,0.002129,0.398764,-0.606026,-0.413427,-0.550270
09648,NaN,10.049390,-0.920835,0.226663,-0.253742,1.114788,0.216382,0.021335,0.269616,0.375243,-0.666992,0.417969,0.043457,0.100514,-0.009020,0.002130,0.999997,0.000107,0.001348,0.001876,0.400519,-0.605677,-0.411152,-0.551084
09649,NaN,9.721393,-0.694435,0.373689,0.016264,1.122420,-0.124182,0.018180,0.213730,0.345061,-0.669434,0.419922,0.043213,0.097230,-0.006777,0.003632,0.999998,0.000091,0.001069,0.001725,0.401963,-0.605760,-0.409728,-0.551002
09650,NaN,9.831670,-0.956361,0.572672,-0.135337,1.356964,-0.012456,-0.011928,0.154632,0.320279,-0.669434,0.422119,0.047607,0.098336,-0.009406,0.005651,0.999998,-0.000060,0.000773,0.001601,0.403317,-0.605685,-0.407627,-0.551654
09651,NaN,9.783742,-1.098874,0.690119,-0.208805,1.491425,-0.058849,-0.024786,0.117471,0.274920,-0.669678,0.428711,0.053955,0.097856,-0.010853,0.006845,0.999999,-0.000124,0.000587,0.001375,0.404239,-0.605970,-0.406488,-0.551505
09652,NaN,9.825530,-1.196843,0.496675,-0.344964,1.305956,0.005438,-0.036736,0.072381,0.240055,-0.673828,0.426514,0.051758,0.098271,-0.011850,0.004933,0.999999,-0.000184,0.000362,0.001200,0.405220,-0.606009,-0.404561,-0.552159
09653,NaN,9.965291,-1.303278,0.408405,-0.447594,1.253418,0.157314,-0.042174,0.047462,0.191942,-0.671875,0.428711,0.049561,0.099666,-0.012936,0.004063,0.999999,-0.000211,0.000237,0.000960,0.405718,-0.606351,-0.403767,-0.551999
09654,NaN,9.932434,-1.437201,0.293907,-0.599960,1.157872,0.142439,-0.046833,0.031765,0.135760,-0.669678,0.426514,0.043213,0.099335,-0.014304,0.002927,1.000000,-0.000234,0.000159,0.000679,0.406381,-0.606345,-0.402095,-0.552739
09655,NaN,9.936375,-1.441901,0.247581,-0.610274,1.110832,0.150522,-0.029803,0.015188,0.082343,-0.671875,0.428711,0.055908,0.099370,-0.014378,0.002470,1.000000,-0.000149,0.000076,0.000412,0.406548,-0.606529,-0.401732,-0.552677
09656,NaN,9.921033,-1.374830,0.280420,-0.529414,1.090565,0.133471,-0.017487,-0.002410,0.029961,-0.667480,0.428711,0.051758,0.099212,-0.013733,0.002807,1.000000,-0.000087,-0.000012,0.000150,0.407010,-0.606402,-0.400457,-0.553401
09657,NaN,9.852723,-1.425136,0.487526,-0.508436,1.300908,0.056151,-0.010241,-0.024966,-0.017939,-0.671875,0.428711,0.053955,0.098525,-0.014260,0.004888,1.000000,-0.000051,-0.000125,-0.000090,0.406880,-0.606456,-0.400534,-0.553383
09658,NaN,9.870352,-1.216979,0.438187,-0.327476,1.161808,0.068601,-0.006117,-0.044733,-0.061792,-0.665527,0.430664,0.049561,0.098699,-0.012200,0.004404,1.000000,-0.000031,-0.000224,-0.000309,0.407074,-0.606287,-0.399582,-0.554113
09659,NaN,9.894413,-0.983865,0.142433,-0.216147,0.812291,0.095953,-0.007621,-0.066102,-0.105872,-0.674072,0.430664,0.047363,0.098938,-0.009891,0.001457,1.000000,-0.000038,-0.000331,-0.000529,0.406626,-0.606274,-0.400016,-0.554143
09660,NaN,9.889723,-0.875346,-0.101347,-0.203957,0.531936,0.099858,-0.014661,-0.091521,-0.138961,-0.665283,0.426514,0.045410,0.098892,-0.008822,-0.000968,1.000000,-0.000073,-0.000458,-0.000695,0.406465,-0.606135,-0.399344,-0.554897
09661,NaN,9.813167,-1.079578,-0.298059,-0.478918,0.431998,0.043100,0.006113,-0.121800,-0.166927,-0.667480,0.428467,0.056152,0.098124,-0.010878,-0.002921,0.999999,0.000031,-0.000609,-0.000835,0.405777,-0.606126,-0.400115,-0.554855
09662,NaN,9.932785,-0.988774,-0.089549,-0.321897,0.593936,0.146704,0.049780,-0.134556,-0.205426,-0.665283,0.424316,0.043213,0.099318,-0.009990,-0.000831,0.999999,0.000249,-0.000673,-0.001027,0.405503,-0.605896,-0.399968,-0.555412
09663,NaN,9.995529,-1.159683,-0.046598,-0.479383,0.716023,0.213033,0.102797,-0.139015,-0.244158,-0.671387,0.417969,0.052002,0.099941,-0.011719,-0.000403,0.999999,0.000514,-0.000695,-0.001221,0.404858,-0.605584,-0.401274,-0.555280
09664,NaN,9.928859,-1.172562,-0.022675,-0.501695,0.739690,0.145161,0.125429,-0.147681,-0.283655,-0.669434,0.424316,0.051758,0.099272,-0.011866,-0.000161,0.999999,0.000627,-0.000738,-0.001418,0.404544,-0.605125,-0.401621,-0.555758
09665,NaN,9.941354,-1.096063,-0.227107,-0.524180,0.544944,0.162864,0.148601,-0.152560,-0.326450,-0.671387,0.419922,0.049805,0.099397,-0.011121,-0.002203,0.999998,0.000743,-0.000763,-0.001632,0.403780,-0.604592,-0.403330,-0.555658
09666,NaN,10.060562,-1.021275,-0.717579,-0.639051,0.067091,0.304616,0.160457,-0.139016,-0.371311,-0.660645,0.415771,0.049805,0.100591,-0.010394,-0.007114,0.999998,0.000802,-0.000695,-0.001857,0.403327,-0.603908,-0.404036,-0.556217
09667,NaN,10.031478,-0.977074,-1.052499,-0.747262,-0.239821,0.290625,0.160779,-0.108371,-0.417131,-0.664795,0.409180,0.049805,0.100300,-0.009972,-0.010479,0.999997,0.000804,-0.000542,-0.002086,0.402432,-0.603041,-0.405960,-0.556405
09668,NaN,9.921637,-0.907057,-1.143268,-0.748467,-0.348935,0.181640,0.117976,-0.092198,-0.450878,-0.668945,0.409424,0.041260,0.099201,-0.009287,-0.011392,0.999997,0.000590,-0.000461,-0.002254,0.401697,-0.602212,-0.406800,-0.557220
09669,NaN,10.010060,-0.836246,-1.237488,-0.751232,-0.435731,0.270842,0.092525,-0.065097,-0.498410,-0.666748,0.405029,0.050049,0.100083,-0.008606,-0.012346,0.999997,0.000463,-0.000325,-0.002492,0.400453,-0.601192,-0.408688,-0.557835
09670,NaN,9.947516,-0.744699,-1.144152,-0.675103,-0.375962,0.198275,0.062916,-0.028428,-0.542442,-0.664307,0.398682,0.045898,0.099456,-0.007713,-0.011430,0.999996,0.000315,-0.000142,-0.002712,0.399396,-0.600166,-0.409649,-0.558991
09671,NaN,10.120430,-0.575303,-1.015970,-0.517153,-0.286244,0.357692,0.045062,-0.004696,-0.577276,-0.668213,0.390137,0.043701,0.101187,-0.006043,-0.010159,0.999996,0.000225,-0.000023,-0.002886,0.397907,-0.598904,-0.411515,-0.560035
09672,NaN,10.151816,-0.314488,-0.838178,-0.258854,-0.201747,0.373224,0.045646,0.037145,-0.613853,-0.666260,0.394287,0.037354,0.101506,-0.003455,-0.008401,0.999995,0.000228,0.000186,-0.003069,0.396692,-0.597619,-0.412611,-0.561462
09673,NaN,9.932286,-0.385210,-0.747670,-0.361264,-0.086056,0.148209,0.033488,0.058269,-0.644747,-0.667969,0.379395,0.043945,0.099308,-0.004171,-0.007506,0.999995,0.000167,0.000291,-0.003224,0.395100,-0.596055,-0.414514,-0.562843
09674,NaN,10.164243,-0.328615,-0.720926,-0.349321,-0.062616,0.376190,0.025730,0.056283,-0.669999,-0.661133,0.372803,0.037598,0.101629,-0.003626,-0.007238,0.999994,0.000129,0.000281,-0.003350,0.393654,-0.594650,-0.415752,-0.564427
09675,NaN,10.206627,-0.192397,-0.504241,-0.214086,0.113250,0.405308,0.019347,0.076635,-0.703061,-0.667480,0.366455,0.041992,0.102057,-0.002282,-0.005082,0.999994,0.000097,0.000383,-0.003515,0.391884,-0.592930,-0.417744,-0.565995
09676,NaN,10.164507,0.018549,-0.384241,-0.038570,0.158971,0.357758,-0.017410,0.080394,-0.734051,-0.660889,0.362061,0.040039,0.101643,-0.000188,-0.003883,0.999993,-0.000087,0.000402,-0.003670,0.390129,-0.591411,-0.419039,-0.567837
09677,NaN,9.868754,0.198382,-0.366672,0.062488,0.116312,0.063963,-0.018233,0.075119,-0.752832,-0.665039,0.355713,0.040039,0.098693,0.001612,-0.003704,0.999993,-0.000091,0.000376,-0.003764,0.388093,-0.589652,-0.421064,-0.569562
09678,NaN,9.755138,0.281795,-0.246579,0.117547,0.205390,-0.053258,-0.010784,0.047168,-0.763544,-0.668945,0.347168,0.031494,0.097561,0.002445,-0.002489,0.999993,-0.000054,0.000236,-0.003818,0.386146,-0.588133,-0.422559,-0.571345
09679,NaN,9.746048,0.602653,-0.089038,0.402238,0.264967,-0.059529,-0.035662,0.011436,-0.762957,-0.670654,0.332275,0.038086,0.097482,0.005655,-0.000897,0.999993,-0.000178,0.000057,-0.003815,0.383883,-0.586553,-0.424675,-0.572923
09680,NaN,9.741164,0.677036,-0.088966,0.407948,0.256586,-0.059542,-0.063428,-0.016512,-0.762950,-0.664062,0.332275,0.029541,0.097437,0.006398,-0.000884,0.999993,-0.000317,-0.000083,-0.003815,0.381591,-0.585283,-0.426167,-0.574643
09681,NaN,9.881371,0.650883,-0.215307,0.267109,0.184773,0.087088,-0.129393,-0.058761,-0.757248,-0.670166,0.321533,0.038330,0.098838,0.006133,-0.002128,0.999993,-0.000647,-0.000294,-0.003786,0.378908,-0.584081,-0.428120,-0.576187
09682,NaN,9.782171,0.605847,-0.245785,0.153675,0.189647,-0.011755,-0.165610,-0.082291,-0.756887,-0.663574,0.317139,0.031982,0.097845,0.005686,-0.002422,0.999992,-0.000828,-0.000411,-0.003784,0.376144,-0.583167,-0.429455,-0.577928
09683,NaN,9.585896,0.495989,-0.320376,-0.034825,0.178655,-0.210372,-0.153027,-0.099260,-0.765267,-0.665527,0.310791,0.036377,0.095879,0.004591,-0.003160,0.999992,-0.000765,-0.000496,-0.003826,0.373270,-0.582094,-0.431427,-0.579402
09684,NaN,9.597762,0.643990,-0.368056,0.023779,0.111628,-0.187007,-0.133379,-0.121183,-0.772810,-0.671631,0.304443,0.036377,0.096004,0.006067,-0.003627,0.999992,-0.000667,-0.000606,-0.003864,0.370434,-0.581176,-0.432993,-0.580973
09685,NaN,9.707162,0.794140,-0.310486,0.112967,0.158793,-0.070122,-0.112345,-0.149441,-0.771163,-0.667236,0.295654,0.042969,0.097104,0.007565,-0.003037,0.999992,-0.000562,-0.000747,-0.003856,0.367542,-0.580144,-0.435181,-0.582206
09686,NaN,9.648358,0.703985,-0.228877,-0.000727,0.295933,-0.140525,-0.100356,-0.166087,-0.777072,-0.660400,0.289307,0.036621,0.096512,0.006664,-0.002212,0.999992,-0.000502,-0.000830,-0.003885,0.364661,-0.579262,-0.436959,-0.583562
09687,NaN,9.676735,0.538892,-0.325832,-0.255957,0.307814,-0.123776,-0.078958,-0.175608,-0.779865,-0.664307,0.278564,0.043213,0.096790,0.005010,-0.003175,0.999992,-0.000395,-0.000878,-0.003899,0.361771,-0.578210,-0.439304,-0.584643
09688,NaN,9.651359,1.075949,-0.227617,0.219969,0.243542,-0.104442,-0.032979,-0.168752,-0.765400,-0.657715,0.274170,0.041260,0.096556,0.010390,-0.002196,0.999992,-0.000165,-0.000844,-0.003827,0.359088,-0.577230,-0.441241,-0.585805
09689,NaN,9.438916,1.351785,-0.451855,0.349539,-0.040146,-0.273275,-0.033681,-0.174435,-0.752259,-0.664062,0.267822,0.041260,0.094443,0.013162,-0.004438,0.999993,-0.000168,-0.000872,-0.003761,0.356401,-0.576137,-0.443623,-0.586722
09690,NaN,9.389541,1.443505,-0.690558,0.295448,-0.264292,-0.296044,-0.025399,-0.187378,-0.721730,-0.655029,0.257080,0.035156,0.093953,0.014095,-0.006819,0.999993,-0.000127,-0.000937,-0.003609,0.353802,-0.575257,-0.445524,-0.587718
09691,NaN,9.598741,1.839032,-0.743440,0.568163,-0.391903,-0.035481,-0.022486,-0.183653,-0.685054,-0.659180,0.254883,0.043701,0.096056,0.018061,-0.007348,0.999994,-0.000112,-0.000918,-0.003425,0.351313,-0.574306,-0.447750,-0.588448
09692,NaN,9.445129,2.141907,-0.832316,0.778640,-0.563452,-0.139689,-0.051081,-0.169726,-0.629510,-0.654785,0.252930,0.037354,0.094525,0.021120,-0.008248,0.999995,-0.000255,-0.000849,-0.003148,0.348932,-0.573576,-0.449359,-0.589350
09693,NaN,9.231110,2.166640,-1.160469,0.653804,-0.864734,-0.321697,-0.076726,-0.159303,-0.592559,-0.652344,0.239990,0.046143,0.092384,0.021388,-0.011539,0.999995,-0.000384,-0.000797,-0.002963,0.346607,-0.572845,-0.451108,-0.590097
09694,NaN,9.303755,2.045288,-1.243400,0.457605,-0.862537,-0.255728,-0.089089,-0.152245,-0.536899,-0.654297,0.235596,0.035400,0.093101,0.020197,-0.012372,0.999996,-0.000445,-0.000761,-0.002684,0.344420,-0.572268,-0.452433,-0.590922
09695,NaN,9.462532,2.147368,-1.039445,0.567002,-0.661930,-0.093053,-0.101674,-0.142513,-0.483603,-0.658691,0.235596,0.041748,0.094684,0.021240,-0.010338,0.999997,-0.000508,-0.000713,-0.002418,0.342377,-0.571769,-0.453760,-0.591575
09696,NaN,9.467065,2.150748,-1.128943,0.496910,-0.721313,-0.078306,-0.132695,-0.119144,-0.444700,-0.649902,0.233643,0.041992,0.094725,0.021289,-0.011247,0.999997,-0.000663,-0.000596,-0.002223,0.340411,-0.571327,-0.454742,-0.592381
09697,NaN,9.534270,2.211431,-1.302147,0.444093,-0.872944,0.012226,-0.136874,-0.092944,-0.407074,-0.656250,0.227051,0.041992,0.095393,0.021911,-0.012992,0.999998,-0.000684,-0.000465,-0.002035,0.338603,-0.570908,-0.455656,-0.593119
09698,NaN,9.509969,2.434089,-1.353327,0.597671,-0.983990,0.029580,-0.155497,-0.077921,-0.356036,-0.651855,0.227051,0.037598,0.095148,0.024161,-0.013515,0.999998,-0.000777,-0.000390,-0.001780,0.336932,-0.570540,-0.456345,-0.593894
09699,NaN,9.472607,2.539056,-1.346713,0.670309,-1.003795,0.012470,-0.198702,-0.080209,-0.303964,-0.649414,0.216309,0.046387,0.094770,0.025233,-0.013454,0.999998,-0.000994,-0.000401,-0.001520,0.335279,-0.570418,-0.456756,-0.594630
09700,NaN,9.530166,2.527821,-1.352099,0.622267,-0.983437,0.071021,-0.227666,-0.081010,-0.250768,-0.653809,0.218506,0.041992,0.095339,0.025143,-0.013511,0.999998,-0.001138,-0.000405,-0.001254,0.333718,-0.570366,-0.457050,-0.595333
09701,NaN,9.410388,2.312540,-1.224502,0.464581,-0.791851,-0.088504,-0.230320,-0.068409,-0.205101,-0.653564,0.214355,0.046387,0.094132,0.023015,-0.012239,0.999999,-0.001152,-0.000342,-0.001026,0.332294,-0.570484,-0.457062,-0.596006
09702,NaN,9.508085,1.982463,-1.080612,0.183825,-0.516305,-0.055578,-0.195941,-0.071653,-0.149537,-0.651123,0.207764,0.048584,0.095100,0.019743,-0.010791,0.999999,-0.000980,-0.000358,-0.000748,0.331160,-0.570537,-0.457238,-0.596451
09703,NaN,9.834764,2.205350,-0.511962,0.548720,-0.023843,0.264345,-0.117757,-0.032816,-0.098015,-0.653564,0.209961,0.055176,0.098359,0.022002,-0.005116,1.000000,-0.000589,-0.000164,-0.000490,0.330457,-0.570606,-0.457220,-0.596789
09704,NaN,9.903193,2.381291,-0.083939,0.851981,0.321268,0.332348,-0.048294,0.003009,-0.073008,-0.653320,0.209961,0.050781,0.099041,0.023777,-0.000847,1.000000,-0.000241,0.000015,-0.000365,0.330152,-0.570346,-0.457523,-0.596974
09705,NaN,10.050513,2.096511,-0.098989,0.560017,0.430110,0.430327,0.022489,0.027889,-0.039525,-0.653564,0.212158,0.052979,0.100509,0.020945,-0.001002,1.000000,0.000112,0.000139,-0.000198,0.330163,-0.570135,-0.457656,-0.597068
09706,NaN,10.126164,1.776374,-0.096819,0.250872,0.557539,0.450367,0.100383,0.052958,-0.004926,-0.644775,0.209961,0.050781,0.101262,0.017762,-0.000986,1.000000,0.000502,0.000265,-0.000025,0.330619,-0.569595,-0.458135,-0.596963
09707,NaN,9.948219,1.866940,-0.234397,0.304644,0.370825,0.300529,0.154935,0.079528,0.014699,-0.657715,0.207764,0.046631,0.099480,0.018679,-0.002369,1.000000,0.000775,0.000398,0.000073,0.331287,-0.569135,-0.458424,-0.596810
09708,NaN,9.820951,1.690379,-0.486486,0.061440,0.179933,0.162731,0.192755,0.097889,0.013569,-0.655762,0.212158,0.048584,0.098206,0.016915,-0.004897,0.999999,0.000964,0.000489,0.000068,0.332172,-0.568344,-0.459025,-0.596609
09709,NaN,9.677152,1.697315,-0.782264,-0.023535,-0.121701,0.042500,0.219073,0.115711,0.011405,-0.661865,0.205566,0.050781,0.096766,0.016987,-0.007860,0.999999,0.001095,0.000579,0.000057,0.333095,-0.567660,-0.459454,-0.596416
09710,NaN,9.718338,1.514800,-0.875520,-0.234346,-0.145975,0.058027,0.232978,0.120286,0.008224,-0.653320,0.207764,0.048584,0.097177,0.015162,-0.008796,0.999999,0.001165,0.000601,0.000041,0.334132,-0.566731,-0.460141,-0.596190
09711,NaN,9.781022,1.238932,-0.832901,-0.481823,-0.010026,0.069863,0.253822,0.121444,-0.006050,-0.657959,0.214355,0.052979,0.097806,0.012397,-0.008373,0.999999,0.001269,0.000607,-0.000030,0.335112,-0.565930,-0.460711,-0.595960
09712,NaN,9.827090,1.228768,-0.674577,-0.444878,0.137955,0.102940,0.282490,0.130595,-0.030369,-0.655762,0.212158,0.048584,0.098268,0.012282,-0.006793,0.999999,0.001412,0.000653,-0.000152,0.336188,-0.564831,-0.461605,-0.595705
09713,NaN,9.635896,1.280358,-0.544506,-0.329915,0.210125,-0.084723,0.308938,0.135339,-0.060948,-0.655518,0.205566,0.050781,0.096359,0.012783,-0.005491,0.999999,0.001545,0.000677,-0.000305,0.337191,-0.563767,-0.462469,-0.595476
09714,NaN,9.561557,1.277340,-0.442605,-0.295818,0.291516,-0.164974,0.312631,0.121466,-0.085761,-0.653320,0.207764,0.050781,0.095618,0.012739,-0.004464,0.999999,0.001563,0.000607,-0.000429,0.338151,-0.562551,-0.463576,-0.595221
09715,NaN,9.481178,1.263074,-0.245937,-0.237856,0.466794,-0.258940,0.297191,0.100651,-0.107457,-0.655273,0.203613,0.046631,0.094817,0.012583,-0.002488,0.999999,0.001486,0.000503,-0.000537,0.338900,-0.561499,-0.464591,-0.594997
09716,NaN,9.330167,1.395277,-0.157811,-0.076414,0.485318,-0.390249,0.260782,0.085769,-0.127381,-0.655273,0.203613,0.042236,0.093310,0.013895,-0.001600,0.999999,0.001304,0.000429,-0.000637,0.339496,-0.560405,-0.465671,-0.594844
09717,NaN,9.131144,1.529918,-0.173220,0.058324,0.403335,-0.561614,0.208644,0.061089,-0.143355,-0.655518,0.205566,0.048828,0.091322,0.015236,-0.001744,0.999999,0.001043,0.000305,-0.000717,0.339796,-0.559535,-0.466589,-0.594772
09718,NaN,9.173120,1.563632,-0.339448,0.011601,0.244675,-0.504289,0.141390,0.023572,-0.150876,-0.650879,0.201416,0.040283,0.091743,0.015570,-0.003394,0.999999,0.000707,0.000118,-0.000754,0.339841,-0.558780,-0.467456,-0.594775
09719,NaN,9.314162,1.552518,-0.483857,-0.082054,0.135881,-0.358967,0.069575,-0.012989,-0.159540,-0.657471,0.201416,0.048828,0.093154,0.015453,-0.004827,1.000000,0.000348,-0.000065,-0.000798,0.339531,-0.558327,-0.468130,-0.594848
09720,NaN,9.362564,1.491895,-0.593422,-0.197846,0.067160,-0.315750,0.011773,-0.045939,-0.175083,-0.648682,0.199219,0.040283,0.093640,0.014837,-0.005912,1.000000,0.000059,-0.000230,-0.000875,0.338975,-0.557951,-0.468780,-0.595006
09721,NaN,9.372441,1.682774,-0.599361,-0.038768,0.011072,-0.271621,-0.029830,-0.080661,-0.187205,-0.650879,0.197021,0.046631,0.093743,0.016739,-0.005958,0.999999,-0.000149,-0.000403,-0.000936,0.338146,-0.557802,-0.469350,-0.595168
09722,NaN,9.505719,1.632739,-0.683065,-0.149735,-0.021196,-0.144792,-0.048874,-0.100912,-0.196994,-0.648682,0.199219,0.038086,0.095077,0.016232,-0.006787,0.999999,-0.000244,-0.000505,-0.000985,0.337221,-0.557652,-0.469962,-0.595350
09723,NaN,9.586248,1.656321,-0.637695,-0.139604,0.038791,-0.064602,-0.053775,-0.109051,-0.201076,-0.652832,0.192871,0.046875,0.095883,0.016465,-0.006329,0.999999,-0.000269,-0.000545,-0.001005,0.336216,-0.557594,-0.470546,-0.595511
09724,NaN,9.650857,1.672009,-0.644748,-0.154214,0.051185,0.001787,-0.044220,-0.116753,-0.218243,-0.646484,0.199219,0.038086,0.096530,0.016613,-0.006395,0.999999,-0.000221,-0.000584,-0.001091,0.335198,-0.557445,-0.471245,-0.595672
09725,NaN,9.663822,1.764290,-0.546075,-0.053394,0.132303,0.024994,-0.018172,-0.117370,-0.224230,-0.646240,0.188477,0.049072,0.096661,0.017534,-0.005406,0.999999,-0.000091,-0.000587,-0.001121,0.334203,-0.557296,-0.472012,-0.595763
09726,NaN,9.712166,1.858300,-0.470507,0.034369,0.195794,0.084850,0.006167,-0.114646,-0.232324,-0.644043,0.186279,0.046875,0.097146,0.018470,-0.004649,0.999999,0.000031,-0.000573,-0.001162,0.333282,-0.557032,-0.472884,-0.595835
09727,NaN,9.654585,1.867281,-0.486572,0.028315,0.189334,0.030980,0.018797,-0.119733,-0.239780,-0.650635,0.188477,0.044678,0.096571,0.018557,-0.004806,0.999999,0.000094,-0.000599,-0.001199,0.332337,-0.556790,-0.473806,-0.595856
09728,NaN,9.573982,1.970189,-0.663643,0.055966,-0.002014,-0.015748,0.025516,-0.119110,-0.240804,-0.637451,0.184326,0.042725,0.095767,0.019587,-0.006577,0.999999,0.000128,-0.000596,-0.001204,0.331432,-0.556487,-0.474757,-0.595886
09729,NaN,9.637716,1.961581,-0.726468,-0.001824,-0.029677,0.049371,0.035754,-0.123854,-0.238731,-0.641846,0.184326,0.042725,0.096405,0.019502,-0.007201,0.999999,0.000179,-0.000619,-0.001194,0.330526,-0.556229,-0.475733,-0.595852
09730,NaN,9.660756,1.934513,-0.646113,-0.020271,0.076814,0.060693,0.048278,-0.122902,-0.231499,-0.635254,0.186279,0.034180,0.096634,0.019235,-0.006397,0.999999,0.000241,-0.000615,-0.001157,0.329703,-0.555921,-0.476733,-0.595797
09731,NaN,9.623134,2.023791,-0.626111,0.057998,0.080889,0.040357,0.053653,-0.116224,-0.241519,-0.639404,0.177734,0.042725,0.096259,0.020123,-0.006200,0.999999,0.000268,-0.000581,-0.001208,0.328855,-0.555602,-0.477755,-0.595744
09732,NaN,9.503719,2.147510,-0.703293,0.147566,-0.029199,-0.045169,0.054246,-0.122117,-0.229991,-0.639404,0.175781,0.040771,0.095066,0.021368,-0.006969,0.999999,0.000271,-0.000611,-0.001150,0.328053,-0.555284,-0.478764,-0.595673
09733,NaN,9.474101,2.323335,-0.818873,0.258709,-0.179343,-0.028624,0.028314,-0.124696,-0.216761,-0.637207,0.177734,0.047119,0.094771,0.023132,-0.008126,0.999999,0.000142,-0.000623,-0.001084,0.327188,-0.555089,-0.479654,-0.595614
09734,NaN,9.469958,2.349750,-0.879445,0.247099,-0.226909,-0.021760,0.000510,-0.126476,-0.203452,-0.633057,0.179932,0.034180,0.094729,0.023401,-0.008734,0.999999,0.000003,-0.000632,-0.001017,0.326312,-0.554921,-0.480454,-0.595607
09735,NaN,9.452017,2.402637,-1.009999,0.239575,-0.351095,-0.017143,-0.025136,-0.123794,-0.183923,-0.632812,0.171387,0.040771,0.094548,0.023938,-0.010044,0.999999,-0.000126,-0.000619,-0.000920,0.325397,-0.554888,-0.481090,-0.595624
09736,NaN,9.403640,2.616106,-1.044222,0.419363,-0.443770,-0.015237,-0.055616,-0.120471,-0.160746,-0.630371,0.169189,0.038574,0.094064,0.026083,-0.010393,0.999999,-0.000278,-0.000602,-0.000804,0.324518,-0.554878,-0.481621,-0.595684
09737,NaN,9.359333,2.758705,-1.333031,0.446240,-0.752171,-0.003528,-0.094125,-0.119472,-0.138811,-0.632568,0.169189,0.038574,0.093620,0.027516,-0.013287,0.999999,-0.000471,-0.000597,-0.000694,0.323556,-0.555052,-0.481919,-0.595804
09738,NaN,9.560096,2.729065,-1.341135,0.370796,-0.706725,0.187557,-0.095357,-0.121630,-0.103467,-0.626221,0.171387,0.038574,0.095623,0.027235,-0.013366,1.000000,-0.000477,-0.000608,-0.000517,0.322753,-0.555216,-0.482225,-0.595840
09739,NaN,9.868954,2.443675,-1.183928,0.101656,-0.408543,0.414347,-0.066049,-0.091524,-0.093289,-0.628418,0.169189,0.040771,0.098706,0.024387,-0.011802,1.000000,-0.000330,-0.000458,-0.000466,0.322071,-0.555369,-0.482435,-0.595895
09740,NaN,9.885463,2.236399,-0.899342,0.000218,-0.063169,0.362217,-0.015448,-0.053095,-0.081674,-0.626221,0.171387,0.032227,0.098866,0.022323,-0.008969,1.000000,-0.000077,-0.000265,-0.000408,0.321733,-0.555235,-0.482842,-0.595874
09741,NaN,9.710515,2.278203,-0.854151,0.078892,-0.054803,0.197540,0.025499,-0.023484,-0.084768,-0.628418,0.169189,0.045166,0.097116,0.022742,-0.008527,1.000000,0.000127,-0.000117,-0.000424,0.321494,-0.555059,-0.483191,-0.595884
09742,NaN,9.506305,2.402171,-0.895169,0.207479,-0.159420,0.029727,0.045885,-0.007363,-0.072058,-0.626221,0.169189,0.038574,0.095072,0.023990,-0.008943,1.000000,0.000229,-0.000037,-0.000360,0.321465,-0.554715,-0.483678,-0.595824
09743,NaN,9.485320,2.411726,-0.798188,0.249271,-0.071692,0.003500,0.047097,-0.004800,-0.050645,-0.632568,0.166992,0.036621,0.094859,0.024095,-0.007974,1.000000,0.000235,-0.000024,-0.000253,0.321433,-0.554531,-0.483967,-0.595779
09744,NaN,9.519070,2.386853,-0.851714,0.197354,-0.105284,0.035416,0.031378,-0.000368,-0.034721,-0.626221,0.169189,0.038574,0.095195,0.023853,-0.008513,1.000000,0.000157,-0.000002,-0.000174,0.321500,-0.554268,-0.484309,-0.595709
09745,NaN,9.434401,2.388582,-0.953259,0.176517,-0.212394,-0.037941,0.010293,0.001682,-0.018900,-0.630371,0.166992,0.040771,0.094346,0.023877,-0.009532,1.000000,0.000051,0.000008,-0.000094,0.321476,-0.554201,-0.484389,-0.595719
09746,NaN,9.384640,2.446089,-0.971424,0.229853,-0.254586,-0.072008,-0.020483,-0.003827,-0.003497,-0.628174,0.166992,0.036621,0.093847,0.024458,-0.009715,1.000000,-0.000102,-0.000019,-0.000017,0.321490,-0.554099,-0.484508,-0.595710
09747,NaN,9.371195,2.422733,-1.172398,0.140413,-0.436603,-0.073431,-0.042474,-0.012581,0.004449,-0.630371,0.165039,0.040771,0.093712,0.024227,-0.011723,1.000000,-0.000212,-0.000063,0.000022,0.321356,-0.554216,-0.484389,-0.595771
09748,NaN,9.504998,2.281158,-1.188522,-0.020253,-0.384409,0.026676,-0.057417,-0.013727,0.011684,-0.624023,0.166992,0.036621,0.095049,0.022814,-0.011885,1.000000,-0.000287,-0.000069,0.000058,0.321296,-0.554231,-0.484389,-0.595789
09749,NaN,9.652404,2.162281,-1.003476,-0.090583,-0.150981,0.128154,-0.053663,-0.007760,0.020336,-0.630371,0.165039,0.042969,0.096522,0.021630,-0.010037,1.000000,-0.000268,-0.000039,0.000102,0.321190,-0.554389,-0.484185,-0.595865
09750,NaN,9.746495,1.993962,-0.826049,-0.200997,0.083153,0.167548,-0.030603,0.012975,0.003856,-0.625977,0.165039,0.041016,0.097464,0.019940,-0.008270,1.000000,-0.000153,0.000065,0.000019,0.321243,-0.554269,-0.484243,-0.595901
09751,NaN,9.656130,1.990408,-0.654251,-0.129106,0.228731,0.064642,-0.011203,0.024288,-0.007388,-0.630371,0.166992,0.040771,0.096561,0.019900,-0.006555,1.000000,-0.000056,0.000121,-0.000037,0.321249,-0.554196,-0.484191,-0.596007
09752,NaN,9.541799,2.128935,-0.734143,-0.012044,0.090307,-0.009170,-0.002618,0.025825,-0.014484,-0.628174,0.166992,0.038818,0.095419,0.021282,-0.007354,1.000000,-0.000013,0.000129,-0.000072,0.321345,-0.553967,-0.484338,-0.596049
09753,NaN,9.442639,2.243525,-0.768151,0.096936,0.004737,-0.077316,-0.015481,0.015302,-0.019795,-0.625977,0.165039,0.041016,0.094428,0.022425,-0.007690,1.000000,-0.000077,0.000077,-0.000099,0.321281,-0.553898,-0.484322,-0.596161
09754,NaN,9.461484,2.268714,-0.812132,0.098170,-0.041661,-0.049751,-0.039877,0.003062,-0.014439,-0.623779,0.162842,0.041016,0.094616,0.022679,-0.008127,1.000000,-0.000199,0.000015,-0.000072,0.321218,-0.553799,-0.484389,-0.596233
09755,NaN,9.514096,2.231146,-0.914226,0.016649,-0.116714,0.001483,-0.060321,-0.013041,-0.011801,-0.628174,0.166992,0.047363,0.095143,0.022303,-0.009143,1.000000,-0.000302,-0.000065,-0.000059,0.320984,-0.553906,-0.484262,-0.596362
09756,NaN,9.527984,2.174383,-0.872481,-0.026342,-0.056201,-0.001073,-0.083581,-0.012070,-0.016043,-0.628174,0.165039,0.040771,0.095282,0.021733,-0.008728,1.000000,-0.000418,-0.000060,-0.000080,0.320760,-0.553919,-0.484227,-0.596499
09757,NaN,9.512836,2.204808,-0.942232,-0.022545,-0.133290,-0.003266,-0.084345,-0.012824,-0.017252,-0.630371,0.162842,0.041016,0.095131,0.022036,-0.009426,1.000000,-0.000422,-0.000064,-0.000086,0.320444,-0.554050,-0.484044,-0.596696
09758,NaN,9.512368,2.207119,-0.941540,-0.023339,-0.132642,-0.003259,-0.082722,-0.011362,-0.014792,-0.628174,0.162842,0.041016,0.095126,0.022060,-0.009419,1.000000,-0.000414,-0.000057,-0.000074,0.320224,-0.554068,-0.484002,-0.596831
09759,NaN,9.546456,2.208075,-0.939940,-0.030365,-0.126210,0.029927,-0.079229,-0.009439,-0.013508,-0.632568,0.166992,0.047363,0.095466,0.022071,-0.009404,1.000000,-0.000396,-0.000047,-0.000068,0.319942,-0.554190,-0.483818,-0.597019
09760,NaN,9.613030,2.197198,-0.865117,-0.029039,-0.041954,0.085992,-0.068313,-0.008171,-0.014766,-0.625977,0.160645,0.041016,0.096132,0.021962,-0.008655,1.000000,-0.000342,-0.000041,-0.000074,0.319767,-0.554180,-0.483810,-0.597128
09761,NaN,9.625289,2.102837,-0.804090,-0.098788,0.047741,0.071776,-0.055445,-0.002681,-0.020445,-0.632568,0.165039,0.045166,0.096255,0.021016,-0.008045,1.000000,-0.000277,-0.000013,-0.000102,0.319546,-0.554226,-0.483706,-0.597287
09762,NaN,9.622736,2.094981,-0.730586,-0.083433,0.119057,0.061452,-0.039606,0.004254,-0.030782,-0.628174,0.165039,0.036621,0.096230,0.020934,-0.007312,1.000000,-0.000198,0.000021,-0.000154,0.319428,-0.554103,-0.483799,-0.597390
09763,NaN,9.552055,2.124028,-0.653593,-0.020345,0.170569,-0.007029,-0.028460,0.003273,-0.034591,-0.630371,0.162842,0.042969,0.095524,0.021223,-0.006541,1.000000,-0.000142,0.000016,-0.000173,0.319254,-0.554054,-0.483804,-0.597524
09764,NaN,9.536567,2.155969,-0.723144,-0.017136,0.094030,-0.009212,-0.014681,0.002245,-0.037275,-0.625977,0.165039,0.038818,0.095370,0.021541,-0.007234,1.000000,-0.000073,0.000011,-0.000186,0.319175,-0.553889,-0.483979,-0.597577
09765,NaN,9.540370,2.242364,-0.809033,0.027316,-0.012837,0.020952,-0.016260,0.000765,-0.039718,-0.630127,0.160645,0.041016,0.095408,0.022404,-0.008093,1.000000,-0.000081,0.000004,-0.000199,0.319014,-0.553816,-0.484039,-0.597682
09766,NaN,9.541456,2.257174,-0.881124,0.010649,-0.083045,0.031275,-0.015996,-0.001504,-0.042257,-0.630371,0.166992,0.047363,0.095419,0.022551,-0.008812,1.000000,-0.000080,-0.000008,-0.000211,0.318905,-0.553656,-0.484224,-0.597739
09767,NaN,9.556352,2.209518,-0.888146,-0.042293,-0.070415,0.035556,-0.008028,0.000852,-0.041031,-0.630371,0.162842,0.047363,0.095568,0.022075,-0.008883,1.000000,-0.000040,0.000004,-0.000205,0.318762,-0.553567,-0.484312,-0.597826
09768,NaN,9.537060,2.193461,-0.866612,-0.050465,-0.046436,0.011421,-0.003456,0.003769,-0.043234,-0.621826,0.164795,0.038818,0.095375,0.021914,-0.008668,1.000000,-0.000017,0.000019,-0.000216,0.318696,-0.553372,-0.484525,-0.597869
09769,NaN,9.539324,2.272942,-0.904299,0.004734,-0.106127,0.034720,0.001817,0.003672,-0.040977,-0.630127,0.160645,0.049561,0.095398,0.022710,-0.009045,1.000000,0.000009,0.000018,-0.000205,0.318588,-0.553259,-0.484638,-0.597940
09770,NaN,9.588356,2.251251,-0.856974,-0.012151,-0.045678,0.073508,0.002965,0.005897,-0.045529,-0.628174,0.162842,0.041016,0.095888,0.022491,-0.008572,1.000000,0.000015,0.000029,-0.000228,0.318535,-0.553046,-0.484870,-0.597977
09771,NaN,9.636631,2.226481,-0.785489,-0.023194,0.037823,0.108849,0.011513,0.006231,-0.051542,-0.625977,0.160645,0.047363,0.096372,0.022240,-0.007857,1.000000,0.000058,0.000031,-0.000258,0.318428,-0.552883,-0.485037,-0.598049
09772,NaN,9.583546,2.246308,-0.759634,0.008659,0.049100,0.059740,0.014187,0.007432,-0.051488,-0.634766,0.165039,0.045166,0.095841,0.022439,-0.007598,1.000000,0.000071,0.000037,-0.000257,0.318390,-0.552637,-0.485312,-0.598074
