// Start Time: Unknown
// Update Rate: 100.0Hz
// Filter Profile: human (46.1)
// Firmware Version: 4.4.0
PacketCounter,SampleTimeFine,Acc_X,Acc_Y,Acc_Z,FreeAcc_X,FreeAcc_Y,FreeAcc_Z,Gyr_X,Gyr_Y,Gyr_Z,Mag_X,Mag_Y,Mag_Z,VelInc_X,VelInc_Y,VelInc_Z,OriInc_q0,OriInc_q1,OriInc_q2,OriInc_q3,Quat_q0,Quat_q1,Quat_q2,Quat_q3
25530,NaN,9.575745,2.520104,-0.434977,-0.000000,0.000000,0.098670,0.136992,-0.014591,0.027624,-0.911133,0.004639,0.136230,0.095754,0.025217,-0.004326,1.000000,0.000685,-0.000073,0.000138,0.301360,-0.548554,-0.470010,-0.622383
25531,NaN,9.460527,2.514981,-0.522754,0.000000,0.000000,-0.009628,0.100353,-0.024988,0.018302,-0.915283,0.000244,0.140381,0.094604,0.025161,-0.005203,1.000000,0.000502,-0.000125,0.000092,0.303668,-0.546957,-0.476840,-0.617453
25532,NaN,9.444898,2.628553,-0.466521,0.116642,-0.040763,0.001474,0.022665,-0.058428,0.005408,-0.915283,0.000244,0.134033,0.094450,0.026289,-0.004635,1.000000,0.000113,-0.000292,0.000027,0.302156,-0.548044,-0.473289,-0.619957
25533,NaN,9.384775,2.625534,-0.403464,0.153404,0.015456,-0.060435,-0.038541,-0.074254,-0.020514,-0.913086,0.000244,0.138428,0.093852,0.026245,-0.004005,1.000000,-0.000193,-0.000371,-0.000103,0.301811,-0.548284,-0.473338,-0.619876
25534,NaN,9.255494,2.604614,-0.494771,0.126586,-0.073680,-0.186083,-0.079383,-0.070676,-0.019942,-0.913330,0.002441,0.136230,0.092559,0.026035,-0.004925,1.000000,-0.000397,-0.000353,-0.000100,0.301363,-0.548571,-0.473254,-0.619903
25535,NaN,9.115209,2.751675,-0.515502,0.280252,-0.164028,-0.282784,-0.095732,-0.053178,0.004566,-0.913086,-0.001953,0.136230,0.091153,0.027516,-0.005144,1.000000,-0.000479,-0.000266,0.000023,0.300989,-0.548891,-0.473025,-0.619977
25536,NaN,9.076190,3.011671,-0.562451,0.505448,-0.308862,-0.251680,-0.082889,-0.041039,0.068592,-0.908936,0.002441,0.131836,0.090753,0.030146,-0.005618,1.000000,-0.000414,-0.000205,0.000343,0.300873,-0.549303,-0.472644,-0.619959
25537,NaN,9.086301,3.434198,-0.756564,0.813212,-0.646485,-0.125185,-0.066101,-0.019858,0.163688,-0.917480,0.002441,0.134033,0.090836,0.034414,-0.007568,1.000000,-0.000331,-0.000099,0.000818,0.301152,-0.549851,-0.472020,-0.619814
25538,NaN,9.097898,3.841769,-0.900456,1.135037,-0.937668,-0.005844,-0.062355,-0.004926,0.271660,-0.915527,0.006592,0.134033,0.090927,0.038538,-0.009014,0.999999,-0.000312,-0.000025,0.001358,0.301782,-0.550587,-0.471111,-0.619545
25539,NaN,9.202598,4.100473,-1.051973,1.311180,-1.174706,0.162736,-0.081721,0.029322,0.389706,-0.911133,0.006592,0.135986,0.091944,0.041180,-0.010550,0.999998,-0.000409,0.000147,0.001949,0.302833,-0.551536,-0.469740,-0.619229
25540,NaN,9.398222,4.295157,-1.026490,1.490203,-1.220786,0.391104,-0.104116,0.066758,0.522780,-0.909180,0.010986,0.129639,0.093866,0.043192,-0.010319,0.999996,-0.000521,0.000334,0.002614,0.304224,-0.552674,-0.467958,-0.618882
25541,NaN,9.566464,4.555321,-1.159858,1.684496,-1.455473,0.611183,-0.125360,0.134261,0.671908,-0.918213,0.019531,0.140137,0.095503,0.045867,-0.011691,0.999994,-0.000627,0.000671,0.003360,0.306269,-0.554018,-0.465506,-0.618521
25542,NaN,9.636656,4.853030,-1.188751,1.982864,-1.632999,0.733924,-0.129915,0.190233,0.835716,-0.909668,0.025879,0.129395,0.096151,0.048925,-0.012011,0.999991,-0.000650,0.000951,0.004179,0.308727,-0.555488,-0.462677,-0.618103
25543,NaN,9.811389,4.959821,-1.398882,2.038122,-1.907558,0.912341,-0.092877,0.252461,1.007217,-0.916748,0.041016,0.129150,0.097845,0.050085,-0.014136,0.999986,-0.000464,0.001262,0.005036,0.312162,-0.557173,-0.459197,-0.617456
25544,NaN,9.869132,4.636801,-1.320363,1.853078,-1.773598,0.867296,-0.018699,0.331007,1.155692,-0.914795,0.049561,0.120361,0.098399,0.046936,-0.013371,0.999982,-0.000093,0.001655,0.005778,0.316059,-0.558685,-0.455732,-0.616674
25545,NaN,9.869469,3.914303,-1.216394,1.349336,-1.485960,0.683850,0.079687,0.410334,1.280966,-0.919434,0.060303,0.122314,0.098416,0.039779,-0.012350,0.999977,0.000398,0.002052,0.006405,0.321159,-0.560200,-0.451740,-0.615600
25546,NaN,9.760401,3.552938,-0.949583,1.248742,-1.195792,0.473193,0.181325,0.471954,1.366386,-0.909180,0.073242,0.117920,0.097335,0.036204,-0.009693,0.999973,0.000907,0.002360,0.006832,0.326398,-0.561349,-0.448193,-0.614390
25547,NaN,9.386601,2.668881,-0.965038,0.612589,-1.002068,-0.077115,0.271829,0.549204,1.361416,-0.918213,0.085938,0.113525,0.093654,0.027340,-0.009871,0.999972,0.001359,0.002746,0.006807,0.332565,-0.562254,-0.444298,-0.613083
25548,NaN,9.404555,1.047324,-0.944684,-0.760838,-0.441337,-0.343806,0.363038,0.523101,1.343467,-0.905762,0.098877,0.104736,0.093947,0.011122,-0.009673,0.999972,0.001815,0.002615,0.006717,0.338223,-0.562827,-0.441348,-0.611590
25549,NaN,9.673033,1.527930,-0.704122,-0.161749,-0.475672,-0.007394,0.390637,0.551488,1.349252,-0.919189,0.114014,0.104492,0.096604,0.015945,-0.007277,0.999972,0.001953,0.002757,0.006746,0.344656,-0.563441,-0.437801,-0.609981
25550,NaN,9.330756,1.701510,-0.271814,0.299007,-0.251706,-0.332304,0.405014,0.624418,1.339671,-0.915283,0.124756,0.095703,0.093182,0.017645,-0.002974,0.999971,0.002025,0.003122,0.006698,0.350624,-0.563638,-0.434771,-0.608563
25551,NaN,8.898838,2.032770,-0.036807,0.840577,-0.281770,-0.727789,0.382234,0.657915,1.360123,-0.911133,0.133301,0.091309,0.088846,0.020933,-0.000621,0.999970,0.001911,0.003290,0.006801,0.357259,-0.563906,-0.430935,-0.607184
25552,NaN,8.176095,2.280028,0.141107,1.296890,-0.326409,-1.429542,0.300805,0.649239,1.417303,-0.905273,0.152588,0.073975,0.081601,0.023377,0.001181,0.999968,0.001504,0.003246,0.007086,0.363151,-0.564296,-0.427313,-0.605884
25553,NaN,8.480515,1.407221,-0.111676,0.463806,-0.312528,-1.233785,0.135490,0.557635,1.476665,-0.910156,0.165283,0.080078,0.084695,0.014699,-0.001343,0.999969,0.000677,0.002788,0.007383,0.369187,-0.565498,-0.422531,-0.604467
25554,NaN,9.226306,1.109292,0.055462,0.280262,-0.104279,-0.524685,-0.018463,0.510115,1.553495,-0.904053,0.178223,0.075684,0.092174,0.011809,0.000318,0.999967,-0.000092,0.002551,0.007767,0.374212,-0.567068,-0.417811,-0.603185
25555,NaN,9.366480,1.722463,0.234052,1.023288,-0.261849,-0.345123,-0.073419,0.496805,1.608934,-0.904785,0.195312,0.075439,0.093528,0.017978,0.002102,0.999964,-0.000367,0.002484,0.008045,0.379880,-0.569048,-0.412084,-0.601716
25556,NaN,9.454248,1.838244,0.187652,1.219248,-0.434227,-0.267019,-0.055423,0.459761,1.650373,-0.900879,0.210449,0.064453,0.094390,0.019162,0.001654,0.999963,-0.000277,0.002299,0.008252,0.384892,-0.570946,-0.407031,-0.600170
25557,NaN,9.517671,0.699308,0.158468,0.282115,-0.133694,-0.273270,-0.019936,0.384584,1.682481,-0.903564,0.225342,0.062256,0.095116,0.007794,0.001401,0.999963,-0.000100,0.001923,0.008412,0.390652,-0.573233,-0.401413,-0.598049
25558,NaN,9.381416,-1.003549,0.225118,-1.150174,0.487111,-0.458199,0.018818,0.318085,1.666469,-0.895508,0.238281,0.057617,0.093897,-0.009254,0.002101,0.999964,0.000094,0.001590,0.008332,0.395529,-0.575313,-0.396853,-0.595886
25559,NaN,10.615695,-1.214731,0.304310,-1.206663,0.530472,0.794909,0.040721,0.297925,1.637266,-0.895752,0.251221,0.057617,0.106256,-0.011278,0.002883,0.999965,0.000204,0.001490,0.008186,0.401102,-0.577573,-0.391662,-0.593403
25560,NaN,10.978437,0.576233,0.816746,0.776433,0.249410,1.180833,0.021823,0.327165,1.589498,-0.881348,0.268311,0.055176,0.109747,0.006634,0.007989,0.999967,0.000109,0.001636,0.007947,0.405898,-0.579501,-0.387102,-0.591251
25561,NaN,9.949446,-0.680938,0.485415,-0.376854,0.347778,0.158561,-0.020825,0.335776,1.516496,-0.890625,0.283203,0.054932,0.099550,-0.006054,0.004688,0.999970,-0.000104,0.001679,0.007582,0.410958,-0.581468,-0.381954,-0.589169
25562,NaN,8.873726,-2.082696,0.056460,-1.744998,0.440942,-0.877204,-0.047433,0.302916,1.444510,-0.877686,0.289795,0.048340,0.088885,-0.020185,0.000435,0.999973,-0.000237,0.001515,0.007222,0.415089,-0.583262,-0.377506,-0.587363
25563,NaN,8.461849,-3.106339,-0.272421,-2.723475,0.464577,-1.228281,-0.022160,0.295753,1.349353,-0.878418,0.309082,0.052490,0.084821,-0.030492,-0.002846,0.999976,-0.000111,0.001479,0.006747,0.419536,-0.584972,-0.372883,-0.585453
25564,NaN,8.913989,-3.191256,-0.220455,-2.673990,0.458255,-0.739074,-0.010031,0.317638,1.248476,-0.870117,0.317627,0.035156,0.089333,-0.031355,-0.002345,0.999979,-0.000050,0.001588,0.006242,0.423419,-0.586432,-0.368812,-0.583773
25565,NaN,9.972536,-2.598911,-0.050618,-1.918068,0.259498,0.309605,0.007257,0.330246,1.141731,-0.876953,0.330322,0.047852,0.099871,-0.025419,-0.000672,0.999982,0.000036,0.001651,0.005709,0.427374,-0.587548,-0.364780,-0.582301
25566,NaN,10.801604,-1.447389,0.032211,-0.678410,-0.214474,1.062200,0.060680,0.350500,1.052557,-0.870850,0.336914,0.041260,0.108091,-0.013905,0.000128,0.999985,0.000303,0.001752,0.005263,0.431081,-0.588534,-0.361257,-0.580767
25567,NaN,10.709015,-1.306250,0.091331,-0.442832,-0.281208,0.963275,0.099396,0.333993,0.997385,-0.873291,0.345459,0.041260,0.107155,-0.012529,0.000728,0.999986,0.000497,0.001670,0.004987,0.434867,-0.589144,-0.357886,-0.579412
25568,NaN,9.929986,-1.433133,0.356675,-0.433476,0.012408,0.217110,0.057451,0.278347,0.942037,-0.862549,0.347656,0.032715,0.099371,-0.013864,0.003424,0.999988,0.000287,0.001392,0.004710,0.438144,-0.590108,-0.354732,-0.577899
25569,NaN,8.963220,-2.404433,0.604734,-1.245075,0.627516,-0.618028,-0.046000,0.193969,0.870598,-0.867432,0.362549,0.030273,0.089742,-0.023652,0.005966,0.999990,-0.000230,0.000970,0.004353,0.440863,-0.591187,-0.351602,-0.576640
25570,NaN,8.202383,-2.992984,0.753736,-1.731235,1.014469,-1.281659,-0.108318,0.110472,0.773384,-0.856689,0.366943,0.036621,0.082143,-0.029608,0.007508,0.999992,-0.000542,0.000552,0.003867,0.443025,-0.592690,-0.348749,-0.575171
25571,NaN,7.967574,-3.641243,0.859589,-2.256818,1.344082,-1.411515,-0.110736,0.065403,0.667407,-0.859131,0.375488,0.036621,0.079799,-0.036142,0.008590,0.999994,-0.000554,0.000327,0.003337,0.444728,-0.593907,-0.346306,-0.574076
25572,NaN,8.265555,-4.095121,1.116133,-2.489188,1.694983,-1.022584,-0.049911,0.033792,0.549919,-0.856934,0.368896,0.036621,0.082770,-0.040721,0.011158,0.999996,-0.000250,0.000169,0.002750,0.446472,-0.595234,-0.344107,-0.572668
25573,NaN,8.221921,-4.096943,1.337170,-2.372859,1.888531,-1.039101,-0.006383,-0.024355,0.429309,-0.861572,0.381836,0.034424,0.082305,-0.040792,0.013383,0.999998,-0.000032,-0.000122,0.002147,0.447639,-0.596056,-0.342865,-0.571647
25574,NaN,9.342539,-4.315968,1.730755,-2.249347,2.203673,0.136699,0.007516,-0.102175,0.316034,-0.850830,0.379639,0.042969,0.093485,-0.043013,0.017354,0.999999,0.000038,-0.000511,0.001580,0.448911,-0.597299,-0.341610,-0.570100
25575,NaN,11.642011,-3.441760,1.797199,-1.122643,1.711775,2.287788,-0.015430,-0.158079,0.182167,-0.861816,0.386230,0.038574,0.116437,-0.034310,0.018067,0.999999,-0.000077,-0.000790,0.000911,0.449113,-0.598096,-0.341378,-0.569245
25576,NaN,13.643477,-2.124014,2.328386,0.581352,1.517434,4.095463,0.006136,-0.164849,0.061358,-0.853027,0.379639,0.036621,0.136422,-0.021199,0.023396,1.000000,0.000031,-0.000824,0.000307,0.449789,-0.599098,-0.340757,-0.568028
25577,NaN,14.697064,-1.864972,2.497135,1.020838,1.494513,5.101794,-0.058582,-0.175576,-0.058558,-0.861816,0.386230,0.042725,0.146943,-0.018685,0.025106,1.000000,-0.000293,-0.000878,-0.000293,0.449146,-0.599629,-0.341162,-0.567734
25578,NaN,14.620425,-2.496300,2.200253,0.343007,1.467078,5.105736,-0.031251,-0.174964,-0.203954,-0.855225,0.379639,0.047119,0.146159,-0.025109,0.022134,0.999999,-0.000156,-0.000875,-0.001020,0.449004,-0.600081,-0.341237,-0.567323
25579,NaN,14.270068,-3.101727,2.040895,-0.346266,1.617593,4.839410,0.020542,-0.213632,-0.386472,-0.859375,0.377441,0.047119,0.142618,-0.031295,0.020558,0.999998,0.000103,-0.001068,-0.001932,0.447602,-0.599981,-0.342935,-0.567514
25580,NaN,14.156044,-3.623215,2.053426,-0.866113,1.864044,4.799368,0.119991,-0.283208,-0.630915,-0.854980,0.373291,0.042969,0.141416,-0.036691,0.020713,0.999994,0.000600,-0.001416,-0.003155,0.446594,-0.599536,-0.344967,-0.567546
25581,NaN,14.178160,-3.746519,2.401529,-0.942744,2.310213,4.836417,0.249034,-0.357727,-0.926415,-0.865234,0.362549,0.053955,0.141563,-0.038151,0.024221,0.999987,0.001245,-0.001789,-0.004632,0.444086,-0.598390,-0.349247,-0.568105
25582,NaN,14.237597,-3.927815,3.016219,-0.990729,3.016020,4.923420,0.426383,-0.471940,-1.273726,-0.864746,0.345459,0.054199,0.142050,-0.040248,0.030413,0.999975,0.002132,-0.002360,-0.006369,0.441930,-0.596575,-0.354308,-0.568561
25583,NaN,14.517250,-4.283615,3.751843,-1.226330,3.945601,5.223849,0.618550,-0.582644,-1.708444,-0.870605,0.330322,0.058594,0.144689,-0.044190,0.037805,0.999954,0.003093,-0.002913,-0.008542,0.437864,-0.593812,-0.362436,-0.569476
25584,NaN,15.243547,-4.872447,4.600220,-1.670805,5.030969,5.971873,0.865406,-0.666100,-2.227364,-0.878418,0.306885,0.058838,0.151725,-0.050617,0.046292,0.999923,0.004327,-0.003330,-0.011137,0.433979,-0.589598,-0.371867,-0.570747
25585,NaN,16.278544,-4.124865,5.064255,-1.141721,5.368084,6.845886,1.151149,-0.687234,-2.800143,-0.895020,0.289795,0.061279,0.162009,-0.043813,0.050953,0.999880,0.005756,-0.003436,-0.014000,0.428048,-0.583785,-0.384855,-0.572588
25586,NaN,18.293866,-0.181630,5.060425,2.156741,4.172344,8.577674,1.459227,-0.666402,-3.370967,-0.891602,0.251221,0.061768,0.182699,-0.005269,0.051183,0.999826,0.007296,-0.003332,-0.016854,0.422791,-0.575772,-0.398618,-0.575186
25587,NaN,20.494015,5.694961,4.430875,6.867859,2.024567,10.699068,1.703260,-0.629363,-3.908478,-0.900879,0.212646,0.064453,0.205854,0.052549,0.045416,0.999768,0.008516,-0.003147,-0.019541,0.415097,-0.566059,-0.416008,-0.578109
25588,NaN,22.058829,10.842218,2.443734,10.293854,-1.008993,12.615424,1.724684,-0.652848,-4.475945,-0.901611,0.165283,0.069580,0.222854,0.103231,0.026068,0.999707,0.008623,-0.003264,-0.022378,0.406319,-0.554270,-0.433558,-0.582853
25589,NaN,20.475199,14.279650,1.034265,12.327655,-2.728176,11.743128,1.510533,-0.793162,-5.024123,-0.917480,0.128906,0.067871,0.208205,0.137507,0.012216,0.999648,0.007552,-0.003965,-0.025118,0.393996,-0.542427,-0.453344,-0.587383
25590,NaN,16.536577,13.603557,0.408133,10.935474,-2.689551,8.401058,1.230256,-0.974057,-5.454321,-0.915527,0.073242,0.066406,0.168967,0.131428,0.005716,0.999597,0.006150,-0.004870,-0.027268,0.378396,-0.529196,-0.472863,-0.594280
25591,NaN,13.703373,7.082893,-0.286840,4.164360,-1.263007,4.986844,1.210331,-0.737119,-5.782582,-0.917969,0.017578,0.084473,0.139013,0.066842,-0.001946,0.999557,0.006051,-0.003685,-0.028909,0.362500,-0.515191,-0.492947,-0.600147
25592,NaN,11.767317,2.574595,-4.368790,-1.503593,-3.933479,2.287698,1.260789,0.009049,-5.603238,-0.916260,-0.029541,0.080811,0.118336,0.022711,-0.043544,0.999588,0.006303,0.000045,-0.028012,0.347333,-0.497727,-0.510465,-0.609141
25593,NaN,10.983212,-1.853274,-5.681216,-6.241428,-4.100070,0.215229,1.152855,0.231887,-4.549228,-0.910400,-0.074707,0.079346,0.109312,-0.020695,-0.057054,0.999724,0.005764,0.001159,-0.022744,0.336833,-0.483268,-0.524759,-0.614511
25594,NaN,13.141377,-11.443692,-6.007572,-16.139543,-2.035735,-1.146587,0.922470,-0.376186,-2.688274,-0.903320,-0.093994,0.086182,0.129976,-0.115912,-0.060363,0.999897,0.004612,-0.001881,-0.013441,0.328321,-0.475298,-0.534333,-0.617079
25595,NaN,14.605943,-8.254589,-5.516197,-13.729735,-2.029280,1.108594,-0.084174,-0.756955,-0.734883,-0.907471,-0.096191,0.086182,0.145962,-0.083105,-0.054575,0.999986,-0.000421,-0.003785,-0.003674,0.323814,-0.475796,-0.537061,-0.616707
25596,NaN,3.086780,1.704236,-4.972476,-0.694850,-4.844120,-6.178157,-0.933934,-0.403865,0.998057,-0.901123,-0.091797,0.086182,0.030883,0.016964,-0.049742,0.999975,-0.004670,-0.002019,0.004990,0.323111,-0.481853,-0.531858,-0.616883
25597,NaN,-2.245601,7.749153,-2.767671,7.064134,-4.743205,-9.221687,-1.707598,-0.168285,1.331165,-0.905762,-0.083252,0.090332,-0.022946,0.077100,-0.028355,0.999941,-0.008538,-0.000841,0.006656,0.322623,-0.488635,-0.523632,-0.618837
25598,NaN,2.572280,-0.600334,-1.458031,-1.740982,-0.956859,-7.541955,-1.977590,-0.324095,1.533517,-0.901855,-0.074707,0.083740,0.025792,-0.005949,-0.014480,0.999920,-0.009888,-0.001620,0.007667,0.321063,-0.497137,-0.514067,-0.620894
25599,NaN,7.724551,-8.558326,-1.774361,-10.557937,1.505235,-5.088202,-1.591579,-0.192061,1.920103,-0.900146,-0.063965,0.090088,0.078080,-0.084974,-0.016991,0.999922,-0.007958,-0.000960,0.009600,0.322534,-0.505176,-0.504631,-0.621383
25600,NaN,5.655073,-6.367993,-1.140476,-7.693093,1.354038,-6.233274,-0.939804,0.147669,2.069912,-0.898682,-0.042480,0.089844,0.057198,-0.063143,-0.011149,0.999935,-0.004699,0.000738,0.010349,0.326806,-0.511967,-0.495834,-0.620674
25601,NaN,1.110789,0.506841,-0.709276,-0.041218,-0.715995,-8.596370,-0.711872,0.251748,1.928895,-0.901123,-0.033936,0.089600,0.011050,0.005150,-0.007125,0.999946,-0.003559,0.001259,0.009644,0.331561,-0.517095,-0.488259,-0.619906
25602,NaN,-0.819551,2.611093,-0.497421,2.428856,-1.349487,-9.940077,-0.727955,0.156306,1.667534,-0.897217,-0.019043,0.080811,-0.008417,0.026023,-0.005063,0.999958,-0.003640,0.000782,0.008338,0.335470,-0.522503,-0.481039,-0.618912
25603,NaN,-0.294839,1.183916,-0.849116,0.875099,-1.201559,-9.810768,-0.703364,0.075344,1.414820,-0.899902,-0.008301,0.087158,-0.003035,0.011788,-0.008532,0.999969,-0.003517,0.000377,0.007074,0.338165,-0.526828,-0.475036,-0.618416
25604,NaN,0.106281,-0.044371,-0.185524,-0.124655,-0.152227,-9.717968,-0.412684,0.173908,1.237911,-0.895752,-0.003906,0.086914,0.001064,-0.000441,-0.001855,0.999978,-0.002063,0.000870,0.006190,0.341608,-0.530420,-0.469986,-0.617310
25605,NaN,-0.836094,-0.271029,0.641284,0.131773,0.631057,-10.689130,-0.202459,0.286465,1.025571,-0.893799,0.006836,0.080566,-0.008338,-0.002747,0.006428,0.999985,-0.001012,0.001432,0.005128,0.344889,-0.532275,-0.466156,-0.616793
25606,NaN,-1.450998,0.336456,0.757163,0.841084,0.504686,-11.165370,-0.018878,0.366925,0.784707,-0.898438,0.013184,0.078125,-0.014509,0.003308,0.007598,0.999991,-0.000094,0.001835,0.003924,0.348421,-0.533463,-0.463164,-0.616035
25607,NaN,-2.576527,1.369653,0.617728,1.951069,-0.026709,-12.068482,0.023060,0.431197,0.606574,-0.896240,0.015381,0.075928,-0.025793,0.013618,0.006234,0.999993,0.000115,0.002156,0.003033,0.351331,-0.533488,-0.460874,-0.616079
25608,NaN,-3.385300,1.433063,0.417515,2.079353,-0.267201,-12.861146,0.039313,0.405832,0.431461,-0.892090,0.019531,0.067383,-0.033875,0.014257,0.004247,0.999996,0.000197,0.002029,0.002157,0.353939,-0.533514,-0.458955,-0.615996
25609,NaN,-3.017248,1.221099,0.819520,1.944319,0.215901,-12.540228,0.065197,0.279900,0.254243,-0.894531,0.023926,0.069580,-0.030176,0.012170,0.008241,0.999998,0.000326,0.001399,0.001271,0.355522,-0.533110,-0.457992,-0.616150
25610,NaN,-2.115691,1.028113,1.161117,1.713364,0.654496,-11.688154,0.015235,0.172607,0.116753,-0.892334,0.023926,0.075928,-0.021153,0.010268,0.011630,0.999999,0.000076,0.000863,0.000584,0.356461,-0.533045,-0.457317,-0.616165
25611,NaN,-1.259439,0.968266,1.186757,1.513851,0.742189,-10.856492,-0.045887,0.097146,0.030846,-0.901123,0.028320,0.069336,-0.012590,0.009683,0.011871,1.000000,-0.000229,0.000486,0.000154,0.356640,-0.532889,-0.456931,-0.616482
25612,NaN,-0.677007,0.997371,1.276817,1.467686,0.844880,-10.276825,-0.114484,0.053391,-0.025810,-0.892334,0.026123,0.067383,-0.006765,0.009982,0.012764,1.000000,-0.000572,0.000267,-0.000129,0.356476,-0.532983,-0.456462,-0.616843
25613,NaN,-0.468509,1.199911,0.751375,1.444734,0.290051,-10.041736,-0.244953,-0.010223,-0.038813,-0.901123,0.028320,0.067139,-0.004683,0.012009,0.007499,0.999999,-0.001225,-0.000051,-0.000194,0.355664,-0.533354,-0.455839,-0.617452
25614,NaN,-0.585372,2.012104,0.283411,2.060344,-0.430862,-10.014881,-0.340105,-0.044557,0.004286,-0.899170,0.034668,0.069336,-0.005855,0.020126,0.002799,0.999999,-0.001701,-0.000223,0.000021,0.354727,-0.534129,-0.454782,-0.618101
25615,NaN,-0.952839,2.688277,0.101316,2.685776,-0.857477,-10.255762,-0.582887,-0.132933,0.042953,-0.905518,0.032471,0.073486,-0.009535,0.026884,0.000928,0.999996,-0.002914,-0.000665,0.000215,0.352983,-0.535661,-0.453110,-0.619001
25616,NaN,-0.524140,3.248949,0.740006,3.341757,-0.450190,-9.723698,-0.842731,-0.213406,0.079303,-0.903320,0.034668,0.069336,-0.005262,0.032518,0.007257,0.999990,-0.004214,-0.001067,0.000397,0.350438,-0.537910,-0.450688,-0.620263
25617,NaN,-0.026101,3.435807,1.477399,3.684657,0.165224,-9.192990,-1.076746,-0.176129,0.140815,-0.906006,0.043213,0.082031,-0.000298,0.034437,0.014588,0.999985,-0.005384,-0.000881,0.000704,0.347561,-0.540644,-0.447282,-0.621968
25618,NaN,0.028893,2.675502,1.760047,3.086596,0.663622,-9.274820,-1.262708,-0.150550,0.236778,-0.901855,0.049561,0.079834,0.000244,0.026866,0.017431,0.999979,-0.006313,-0.000753,0.001184,0.344381,-0.543603,-0.443083,-0.624159
25619,NaN,-0.589885,1.964013,1.093140,2.301405,0.240463,-10.026916,-1.392346,-0.180873,0.283629,-0.906250,0.056152,0.086182,-0.005937,0.019707,0.010789,0.999974,-0.006962,-0.000904,0.001418,0.341056,-0.547172,-0.438279,-0.626255
25620,NaN,1.959231,-15.638844,2.427307,-13.505310,8.445573,-10.572138,-1.586515,-0.566471,0.414667,-0.906494,0.062500,0.094482,0.019845,-0.156148,0.025568,0.999962,-0.007932,-0.002832,0.002073,0.336551,-0.552208,-0.433270,-0.627755
25621,NaN,25.524479,-56.019757,-9.987262,-58.385014,14.844062,6.313305,-0.286971,-2.189637,2.272704,-0.907715,0.094482,0.115479,0.262656,-0.557381,-0.096223,0.999874,-0.001435,-0.010948,0.011363,0.338091,-0.564409,-0.429736,-0.618436
25622,NaN,37.642105,-11.957857,5.403735,-12.712082,11.807162,26.073041,0.263851,0.136823,5.041065,-0.896729,0.148193,0.101807,0.379313,-0.110112,0.053629,0.999681,0.001319,0.000684,0.025203,0.355796,-0.575123,-0.414722,-0.608809
25623,NaN,26.850000,-0.430440,5.646230,0.228524,6.029446,16.952410,0.190664,1.408112,5.780763,-0.898438,0.201904,0.086182,0.268864,0.003411,0.054571,0.999557,0.000953,0.007040,0.028900,0.376685,-0.582222,-0.396005,-0.601919
25624,NaN,20.484407,22.456541,-1.615362,19.464875,-10.725613,10.983688,0.293187,1.967511,3.474698,-0.888428,0.225342,0.070801,0.200732,0.228102,-0.017809,0.999800,0.001466,0.009837,0.017372,0.393300,-0.583396,-0.381167,-0.599729
25625,NaN,15.264375,17.008129,3.999309,17.073263,-3.815432,5.425128,-1.409477,1.424875,1.482063,-0.886719,0.238281,0.066406,0.151651,0.171479,0.037705,0.999922,-0.007047,0.007124,0.007410,0.396303,-0.584668,-0.369798,-0.603619
25626,NaN,-0.640290,-6.597104,-6.167710,-8.574741,-2.813056,-10.541539,-1.005506,0.689362,2.143478,-0.878906,0.259766,0.057373,-0.005905,-0.066345,-0.061323,0.999924,-0.005027,0.003447,0.010717,0.401777,-0.588763,-0.358204,-0.603012
25627,NaN,-3.357757,-2.901300,-2.921530,-3.941616,-1.207825,-13.164074,0.195718,-0.057967,1.697981,-0.885986,0.274658,0.063721,-0.033321,-0.029268,-0.029254,0.999963,0.000979,-0.000290,0.008490,0.407340,-0.591558,-0.353910,-0.599066
25628,NaN,9.647150,15.207564,-4.211646,12.399005,-10.869360,-1.434612,-0.174497,-0.240342,1.429885,-0.875488,0.287598,0.059326,0.095432,0.152724,-0.042134,0.999973,-0.000872,-0.001202,0.007149,0.411411,-0.595652,-0.348732,-0.595252
25629,NaN,29.251467,14.457227,-6.741964,11.793611,-14.358580,17.843167,-0.726666,-0.546489,1.204722,-0.880615,0.304688,0.080322,0.291821,0.146087,-0.067151,0.999972,-0.003633,-0.002732,0.006024,0.411853,-0.600852,-0.344108,-0.592405
25630,NaN,34.696236,8.747222,-10.625380,5.587934,-15.881600,23.500795,-1.026226,-0.423357,0.839682,-0.870117,0.311035,0.075928,0.346817,0.088384,-0.105972,0.999976,-0.005131,-0.002117,0.004198,0.410620,-0.605962,-0.339390,-0.590775
25631,NaN,56.814454,17.610316,6.234589,22.911494,-6.590394,45.036283,-1.037973,0.396449,1.576863,-0.870361,0.321777,0.082275,0.566852,0.180892,0.060291,0.999953,-0.005190,0.001982,0.007884,0.412772,-0.609565,-0.330728,-0.590482
25632,NaN,36.197284,24.094364,-3.812204,22.825927,-17.363318,23.092451,-0.686640,1.202158,1.334037,-0.864258,0.328125,0.073730,0.360114,0.243212,-0.041123,0.999954,-0.003433,0.006011,0.006670,0.416039,-0.609673,-0.322875,-0.592420
25633,NaN,17.201704,-8.709687,-14.722028,-12.780939,-10.978731,7.640313,-0.921646,0.540769,1.828696,-0.864746,0.347412,0.079834,0.172410,-0.086200,-0.147287,0.999944,-0.004608,0.002704,0.009143,0.419482,-0.612902,-0.313440,-0.591728
25634,NaN,21.844289,-6.886461,-8.944546,-7.855951,-7.289741,12.317325,-0.357929,0.408072,1.452583,-0.858887,0.362549,0.068848,0.218753,-0.067437,-0.089770,0.999970,-0.001790,0.002040,0.007263,0.422283,-0.614907,-0.308445,-0.590278
25635,NaN,14.039954,-2.705964,0.084490,-0.714843,-0.456267,4.460635,0.822440,0.650755,0.999696,-0.854736,0.368896,0.064453,0.140534,-0.026359,0.000278,0.999974,0.004112,0.003254,0.004998,0.428740,-0.612772,-0.306429,-0.588892
25636,NaN,5.927039,-5.534904,4.386706,-2.190723,5.558781,-2.790747,1.332716,0.473407,0.722384,-0.845947,0.364746,0.058105,0.059574,-0.055424,0.043357,0.999968,0.006664,0.002367,0.003612,0.434611,-0.610066,-0.308380,-0.586374
25637,NaN,2.681612,-8.240502,6.110399,-4.295282,8.614584,-5.366144,1.381065,0.030070,0.403058,-0.854980,0.375488,0.051514,0.026992,-0.082770,0.060529,0.999974,0.006905,0.000150,0.002015,0.440026,-0.607578,-0.311138,-0.583454
25638,NaN,1.711225,-6.982870,7.781200,-2.692929,9.670430,-6.426645,1.315256,-0.265806,0.149034,-0.848389,0.373291,0.049561,0.017062,-0.070326,0.077373,0.999977,0.006576,-0.001329,0.000745,0.443305,-0.606046,-0.315998,-0.579943
25639,NaN,1.026853,-9.117385,9.754106,-4.017563,12.368532,-6.619073,1.422330,-0.325298,-0.139928,-0.854980,0.375488,0.047363,0.010046,-0.091872,0.096906,0.999973,0.007112,-0.001626,-0.000700,0.446668,-0.603596,-0.321272,-0.577013
25640,NaN,2.145886,-9.555151,11.137555,-3.927813,13.603783,-5.402008,1.777932,-0.154198,-0.422111,-0.850586,0.371094,0.034424,0.021170,-0.096582,0.110536,0.999958,0.008890,-0.000771,-0.002111,0.450192,-0.599600,-0.328384,-0.574431
25641,NaN,2.040404,-6.120667,11.859168,-0.799499,12.934670,-6.029275,2.017664,0.102970,-0.558728,-0.856934,0.368896,0.041016,0.020292,-0.062456,0.117955,0.999945,0.010088,0.000515,-0.002794,0.454765,-0.593809,-0.335617,-0.572662
25642,NaN,2.287175,-2.163878,11.781215,2.609942,11.408038,-6.384495,1.466338,0.150324,-0.491308,-0.847900,0.362549,0.023926,0.022906,-0.022558,0.117632,0.999970,0.007332,0.000752,-0.002457,0.457993,-0.589218,-0.340779,-0.571782
25643,NaN,3.468950,1.237422,10.646890,5.371748,9.050080,-5.792575,0.296873,-0.020671,-0.317193,-0.852295,0.364746,0.036865,0.034698,0.012161,0.106491,0.999998,0.001484,-0.000103,-0.001586,0.457909,-0.588051,-0.342621,-0.571950
25644,NaN,4.296569,0.709223,6.061715,3.331406,4.865200,-5.236744,-0.895523,-0.309493,-0.225181,-0.860840,0.358398,0.032471,0.042880,0.007315,0.060651,0.999988,-0.004478,-0.001547,-0.001126,0.454330,-0.590307,-0.341009,-0.573441
25645,NaN,6.083767,-0.253631,1.284736,0.918988,0.578361,-3.685054,-1.734735,-0.622708,-0.137086,-0.864990,0.356201,0.047607,0.060796,-0.002465,0.013058,0.999957,-0.008674,-0.003113,-0.000685,0.447720,-0.595770,-0.337853,-0.574857
25646,NaN,9.236524,-0.746047,-1.778092,-0.348847,-2.366071,-0.685208,-1.977139,-0.722219,-0.081976,-0.854248,0.356201,0.053955,0.092425,-0.007671,-0.017372,0.999945,-0.009886,-0.003611,-0.000410,0.440577,-0.601724,-0.333648,-0.576627
25647,NaN,11.878206,-1.063987,-3.400599,-1.002283,-3.902864,1.915468,-1.606764,-0.740799,-0.126888,-0.858643,0.351807,0.075439,0.118900,-0.010986,-0.033478,0.999961,-0.008034,-0.003704,-0.000634,0.434108,-0.607160,-0.331029,-0.577344
25648,NaN,14.267294,-1.396577,-3.889917,-1.255027,-4.341719,4.336889,-1.013846,-0.658452,-0.218044,-0.858643,0.354004,0.071045,0.142784,-0.014317,-0.038357,0.999981,-0.005069,-0.003292,-0.001090,0.429480,-0.610611,-0.329901,-0.577812
25649,NaN,13.994895,-1.652536,-3.555960,-1.386287,-3.807298,4.144927,-0.287554,-0.445666,-0.204677,-0.862793,0.349609,0.082031,0.140011,-0.016719,-0.035224,0.999996,-0.001438,-0.002228,-0.001023,0.427258,-0.612173,-0.330664,-0.577371
25650,NaN,13.254524,-0.144200,-2.513355,0.324381,-3.380635,3.244347,0.410155,-0.246565,-0.123000,-0.856201,0.349609,0.077637,0.132575,-0.001472,-0.024973,0.999997,0.002051,-0.001233,-0.000615,0.427861,-0.611622,-0.332590,-0.576401
25651,NaN,12.775204,1.596200,-1.359438,2.333556,-2.983775,2.566865,0.639819,-0.136999,-0.025993,-0.862793,0.349609,0.088379,0.127763,0.015989,-0.013456,0.999995,0.003199,-0.000685,-0.000130,0.429496,-0.610598,-0.334818,-0.574978
25652,NaN,12.326429,1.719750,-0.237625,2.873530,-1.960007,2.139550,0.571821,-0.103501,0.096906,-0.849854,0.351807,0.073486,0.123257,0.017264,-0.002263,0.999996,0.002859,-0.000518,0.000485,0.431322,-0.609710,-0.336332,-0.573669
25653,NaN,10.338598,0.685135,-0.183626,1.751539,-1.319364,0.315544,0.476262,-0.049909,0.209342,-0.863037,0.355957,0.083984,0.103379,0.006964,-0.001794,0.999997,0.002381,-0.000250,0.001047,0.433273,-0.609172,-0.337180,-0.572270
25654,NaN,8.559412,-1.005583,-0.913746,-0.266963,-1.171861,-1.229851,0.412808,-0.019819,0.266012,-0.850098,0.354004,0.075439,0.085608,-0.009923,-0.009150,0.999997,0.002064,-0.000099,0.001330,0.435197,-0.608637,-0.337624,-0.571117
25655,NaN,7.786738,-1.806492,-1.901516,-1.460383,-1.709912,-1.909784,0.341774,0.017126,0.272554,-0.852295,0.358154,0.075439,0.077890,-0.017926,-0.019053,0.999998,0.001709,0.000086,0.001363,0.437027,-0.608300,-0.337746,-0.570006
25656,NaN,5.906384,-2.121566,-1.918429,-1.965878,-1.455363,-3.723025,0.281388,0.036646,0.262485,-0.850342,0.362549,0.073242,0.059088,-0.021111,-0.019225,0.999998,0.001407,0.000183,0.001312,0.438615,-0.607926,-0.337727,-0.569195
25657,NaN,3.816006,-3.564567,-1.967244,-3.543741,-0.769275,-5.571440,0.183185,-0.038670,0.249213,-0.852539,0.364502,0.073242,0.038208,-0.035580,-0.019698,0.999999,0.000916,-0.000193,0.001246,0.439799,-0.608051,-0.337589,-0.568229
25658,NaN,4.253877,-4.163897,-1.265177,-3.745867,0.059523,-5.016950,0.111623,-0.107543,0.260461,-0.848389,0.366699,0.071045,0.042600,-0.041576,-0.012652,0.999999,0.000558,-0.000538,0.001302,0.440648,-0.608539,-0.337381,-0.567172
25659,NaN,6.190935,-4.129120,-0.972387,-3.333936,0.138870,-3.090456,0.077980,-0.150933,0.241344,-0.854980,0.371094,0.075195,0.061966,-0.041213,-0.009693,0.999999,0.000390,-0.000755,0.001207,0.441298,-0.609198,-0.337213,-0.566057
25660,NaN,9.001185,-2.464324,-0.539996,-1.257629,-0.347791,-0.556166,0.051174,-0.173386,0.171862,-0.846191,0.368896,0.075195,0.090038,-0.024565,-0.005328,0.999999,0.000256,-0.000867,0.000859,0.441660,-0.609915,-0.337192,-0.565015
25661,NaN,12.573285,-1.704025,-0.874713,-0.199666,-1.246767,2.842825,-0.074447,-0.179114,0.055512,-0.852783,0.373291,0.079590,0.125745,-0.017009,-0.008628,0.999999,-0.000372,-0.000896,0.000278,0.441272,-0.610675,-0.337221,-0.564479
25662,NaN,15.627940,-1.057801,-0.923456,0.787137,-1.777374,5.757332,-0.127110,-0.126586,-0.138693,-0.848389,0.368896,0.068848,0.156278,-0.010692,-0.009129,0.999999,-0.000636,-0.000633,-0.000693,0.440261,-0.611170,-0.337538,-0.564544
25663,NaN,15.380826,-1.420786,-0.736625,0.472244,-1.413252,5.579212,-0.117547,-0.106313,-0.298548,-0.850586,0.373047,0.085938,0.153791,-0.014442,-0.007276,0.999999,-0.000588,-0.000532,-0.001493,0.438864,-0.611221,-0.338365,-0.565082
25664,NaN,15.201823,-2.947766,0.686068,-0.422671,0.541536,5.672244,-0.028442,-0.142653,-0.444056,-0.852295,0.360352,0.088135,0.151947,-0.029814,0.006973,0.999997,-0.000142,-0.000713,-0.002220,0.437282,-0.611002,-0.339978,-0.565575
25665,NaN,15.632072,-2.322676,2.432459,0.817236,1.926905,6.039489,0.106853,-0.165698,-0.657671,-0.863281,0.364502,0.090332,0.156223,-0.023754,0.024441,0.999994,0.000534,-0.000828,-0.003288,0.435449,-0.610112,-0.342663,-0.566330
25666,NaN,15.930516,-1.609511,3.650737,1.882763,2.831291,6.253952,0.053024,-0.255714,-0.878066,-0.854004,0.347412,0.090576,0.159186,-0.016804,0.036707,0.999990,0.000265,-0.001279,-0.004390,0.432569,-0.609349,-0.346007,-0.567325
25667,NaN,16.173802,-1.947888,4.202717,1.687732,3.565341,6.542302,0.002849,-0.393448,-1.118034,-0.864502,0.338867,0.092773,0.161543,-0.020383,0.042345,0.999982,0.000014,-0.001967,-0.005590,0.428702,-0.608511,-0.350279,-0.568537
25668,NaN,16.796189,-2.135092,4.473206,1.520305,4.003653,7.167704,0.043026,-0.531772,-1.449365,-0.859619,0.321777,0.097412,0.167682,-0.022576,0.045173,0.999970,0.000215,-0.002659,-0.007247,0.423697,-0.607408,-0.355883,-0.569986
25669,NaN,18.010636,-2.752528,4.749093,0.942819,4.648063,8.408405,0.218111,-0.679803,-1.863324,-0.874268,0.306641,0.104004,0.179676,-0.029253,0.048071,0.999950,0.001091,-0.003399,-0.009316,0.417803,-0.605534,-0.363598,-0.571459
25670,NaN,19.581684,-3.231412,5.418191,0.542250,5.665214,9.956716,0.612728,-0.748689,-2.374085,-0.873535,0.287354,0.104248,0.195209,-0.034801,0.054809,0.999918,0.003064,-0.003743,-0.011870,0.411434,-0.601984,-0.373959,-0.573142
25671,NaN,21.556971,-0.242082,6.076556,3.165994,5.442710,11.681424,1.217579,-0.650570,-2.908824,-0.879150,0.259521,0.108887,0.215301,-0.005926,0.061437,0.999870,0.006088,-0.003253,-0.014543,0.405476,-0.595824,-0.387505,-0.574824
25672,NaN,22.489206,4.238751,5.915158,6.627734,4.055454,12.509497,1.745024,-0.528903,-3.402612,-0.880127,0.225342,0.103027,0.225406,0.038034,0.060092,0.999814,0.008725,-0.002644,-0.017012,0.399829,-0.586955,-0.403460,-0.576923
25673,NaN,21.230001,9.278862,4.668482,10.137916,1.628563,11.473219,2.077470,-0.425575,-3.843051,-0.893799,0.190918,0.103516,0.213923,0.088194,0.048071,0.999759,0.010387,-0.002128,-0.019214,0.393868,-0.576133,-0.421496,-0.579034
25674,NaN,18.391059,12.334585,2.923762,11.748174,-0.536669,9.174742,2.190124,-0.380865,-4.254963,-0.896729,0.148193,0.101807,0.186416,0.119065,0.030911,0.999712,0.010950,-0.001904,-0.021273,0.386851,-0.563401,-0.440634,-0.582037
25675,NaN,15.647015,13.820515,1.660860,12.242548,-1.721708,7.088702,2.111836,-0.332502,-4.672666,-0.901855,0.107422,0.104736,0.159609,0.134313,0.018304,0.999670,0.010558,-0.001662,-0.023361,0.378324,-0.549798,-0.460451,-0.585301
25676,NaN,14.036829,11.188990,0.215516,8.771082,-1.932453,5.728575,1.856336,-0.035751,-5.149418,-0.902100,0.058105,0.096680,0.143186,0.108201,0.003196,0.999625,0.009281,-0.000179,-0.025744,0.367743,-0.533712,-0.480053,-0.591156
25677,NaN,15.408987,7.601677,-3.709693,3.317252,-4.266539,6.911995,1.514729,0.412595,-5.329828,-0.906982,0.008789,0.093262,0.155971,0.072156,-0.036861,0.999614,0.007573,0.002063,-0.026646,0.356861,-0.516702,-0.497820,-0.598201
25678,NaN,14.346201,6.562790,-6.810908,1.027271,-6.897168,5.891320,1.518408,0.925076,-4.564009,-0.899170,-0.025391,0.078857,0.144602,0.062855,-0.068292,0.999700,0.007591,0.004625,-0.022818,0.348765,-0.498933,-0.512608,-0.605526
25679,NaN,11.405003,-2.980062,-9.322835,-8.143133,-7.354783,0.456627,0.756527,0.705102,-2.792343,-0.906982,-0.048828,0.076904,0.113293,-0.031032,-0.093744,0.999889,0.003782,0.003525,-0.013961,0.343945,-0.488255,-0.520591,-0.610158
25680,NaN,11.518471,-18.325381,-10.675448,-22.865819,-5.308376,-4.206044,0.068681,0.165123,-0.428959,-0.893799,-0.053223,0.070557,0.114703,-0.183463,-0.106912,0.999997,0.000343,0.000826,-0.002145,0.342805,-0.485876,-0.521872,-0.611603
25681,NaN,8.791399,-8.557521,-9.208361,-12.644602,-6.301086,-3.835869,-0.248074,0.341904,1.509678,-0.900879,-0.038086,0.070312,0.088400,-0.085023,-0.092129,0.999969,-0.001240,0.001710,0.007548,0.347678,-0.489167,-0.516857,-0.610487
25682,NaN,1.724272,1.596099,-4.380460,-0.022115,-4.487711,-7.675290,-0.461748,0.856486,2.441807,-0.893066,-0.016846,0.055176,0.016859,0.016067,-0.043914,0.999914,-0.002309,0.004282,0.012209,0.356014,-0.493392,-0.508165,-0.609579
25683,NaN,-0.036737,8.179662,-1.368824,7.343778,-3.259651,-7.758228,-1.048163,0.843994,2.560416,-0.902100,0.000488,0.056885,-0.001473,0.081709,-0.014112,0.999895,-0.005241,0.004220,0.012802,0.363317,-0.499125,-0.497113,-0.609716
25684,NaN,2.295656,6.216004,-0.499915,5.193011,-1.930800,-6.143932,-1.713526,0.610315,2.519430,-0.900635,0.015381,0.043945,0.022155,0.062396,-0.005602,0.999879,-0.008567,0.003051,0.012597,0.367961,-0.506333,-0.484762,-0.610931
25685,NaN,2.445140,3.876660,-0.638325,2.973453,-1.568773,-6.632987,-1.836673,0.495506,2.588665,-0.901367,0.036865,0.043457,0.023931,0.039017,-0.006801,0.999871,-0.009183,0.002477,0.012943,0.372349,-0.514393,-0.471640,-0.611811
25686,NaN,0.586606,4.509977,-0.630284,3.953498,-1.878861,-8.427221,-1.699949,0.313973,2.337844,-0.897461,0.051758,0.043213,0.005328,0.045108,-0.006695,0.999894,-0.008499,0.001570,0.011689,0.375501,-0.521770,-0.460199,-0.612349
25687,NaN,-0.559448,5.357015,-0.363743,5.012795,-1.979822,-9.506914,-1.780479,0.092832,1.845593,-0.900146,0.064697,0.045166,-0.006090,0.053480,-0.004111,0.999918,-0.008902,0.000464,0.009228,0.376665,-0.529017,-0.449738,-0.613189
25688,NaN,-1.966064,5.820142,-0.263696,5.657220,-2.145916,-10.907279,-2.074976,-0.067099,1.276507,-0.898193,0.071045,0.045166,-0.020030,0.058043,-0.003246,0.999926,-0.010375,-0.000335,0.006382,0.374520,-0.535741,-0.440504,-0.615364
25689,NaN,-4.317524,5.364913,-0.954569,5.275371,-2.777500,-13.388825,-2.203795,-0.214930,0.724482,-0.913330,0.075439,0.051514,-0.043358,0.053382,-0.010181,0.999932,-0.011019,-0.001075,0.003622,0.370323,-0.542073,-0.432173,-0.618259
25690,NaN,-5.948441,4.382214,-1.327181,4.384113,-2.901006,-15.171004,-2.189210,-0.407058,0.132365,-0.900391,0.073242,0.060059,-0.059486,0.043633,-0.013871,0.999938,-0.010946,-0.002035,0.000662,0.363495,-0.547368,-0.426242,-0.621753
25691,NaN,-5.811570,2.835571,-1.519099,2.814675,-2.591378,-15.242614,-1.970718,-0.592548,-0.448128,-0.904541,0.066895,0.072998,-0.058006,0.028333,-0.015642,0.999945,-0.009853,-0.002963,-0.002241,0.355400,-0.551792,-0.422413,-0.625127
25692,NaN,-5.315175,1.826420,-1.086528,1.983198,-1.864253,-14.848414,-1.514748,-0.530181,-0.891592,-0.904297,0.060303,0.071045,-0.053041,0.018417,-0.011145,0.999958,-0.007574,-0.002651,-0.004458,0.346862,-0.553945,-0.421573,-0.628577
25693,NaN,-4.736185,1.452825,-0.933076,1.636463,-1.613310,-14.299519,-1.054017,-0.488148,-1.184837,-0.914551,0.047607,0.077637,-0.047252,0.014759,-0.009524,0.999966,-0.005270,-0.002441,-0.005924,0.339152,-0.554775,-0.422392,-0.631494
25694,NaN,-3.386272,1.176609,-1.022346,1.170877,-1.572994,-12.983013,-0.627083,-0.432679,-1.382552,-0.914307,0.039062,0.084229,-0.033758,0.011967,-0.010334,0.999969,-0.003135,-0.002163,-0.006913,0.331677,-0.553960,-0.425495,-0.634092
25695,NaN,-1.797183,0.553209,-1.052312,0.358074,-1.285422,-11.504632,-0.287164,-0.363096,-1.521811,-0.922607,0.026123,0.086426,-0.017910,0.005653,-0.010564,0.999968,-0.001436,-0.001815,-0.007609,0.325247,-0.552317,-0.429407,-0.636215
25696,NaN,0.083450,-0.669701,-0.631409,-0.876527,-0.286430,-9.874273,0.134504,-0.331619,-1.546323,-0.917969,0.015381,0.090820,0.000793,-0.006699,-0.006317,0.999969,0.000673,-0.001658,-0.007732,0.319524,-0.549514,-0.435155,-0.637635
25697,NaN,1.289933,-1.005119,0.128120,-1.090969,0.629932,-8.762198,0.353787,-0.238648,-1.499095,-0.928223,0.004639,0.093262,0.012822,-0.010150,0.001279,0.999970,0.001769,-0.001193,-0.007495,0.315161,-0.546416,-0.440789,-0.638599
25698,NaN,1.807577,-0.192465,0.156846,-0.486707,0.371528,-8.093966,0.632023,-0.075612,-1.407522,-0.923584,-0.006104,0.091309,0.018061,-0.002057,0.001569,0.999970,0.003160,-0.000378,-0.007038,0.311793,-0.542263,-0.447242,-0.639304
25699,NaN,1.828291,0.582727,1.005550,0.520410,0.844198,-7.886610,0.667301,0.080605,-1.277149,-0.927734,-0.012451,0.095459,0.018324,0.005677,0.010067,0.999974,0.003336,0.000403,-0.006386,0.309666,-0.538079,-0.452719,-0.640018
25700,NaN,1.363737,0.705010,0.239167,0.398416,0.066837,-8.312425,0.468702,0.142124,-1.151622,-0.931885,-0.016846,0.091309,0.013679,0.006966,0.002398,0.999980,0.002343,0.000711,-0.005758,0.307086,-0.534056,-0.457509,-0.641224
25701,NaN,1.580658,0.807250,0.277292,0.435794,0.090600,-8.072322,0.274969,0.058091,-0.957968,-0.937988,-0.025391,0.104248,0.015846,0.007993,0.002779,0.999988,0.001375,0.000290,-0.004790,0.304851,-0.531232,-0.460872,-0.642226
25702,NaN,1.756439,1.379336,-0.026236,0.757188,-0.384372,-7.746958,-0.124454,-0.077297,-0.746001,-0.933594,-0.025391,0.093506,0.017616,0.013728,-0.000264,0.999993,-0.000622,-0.000386,-0.003730,0.301463,-0.529758,-0.462945,-0.643551
25703,NaN,1.550934,1.710128,0.390528,1.256317,-0.150891,-7.842577,-0.545353,-0.236076,-0.523616,-0.942139,-0.029541,0.104248,0.015549,0.017071,0.003877,0.999992,-0.002727,-0.001180,-0.002618,0.297758,-0.530106,-0.462948,-0.644986
25704,NaN,1.366136,1.070335,1.082458,1.023166,0.708694,-8.189563,-1.118932,-0.416339,-0.285918,-0.935791,-0.027588,0.104248,0.013654,0.010744,0.010793,0.999981,-0.005595,-0.002082,-0.001430,0.292448,-0.532244,-0.461073,-0.646995
25705,NaN,1.615959,-0.820187,-0.066273,-1.161114,0.462385,-8.498761,-1.462783,-0.542163,-0.058052,-0.944336,-0.027588,0.121338,0.016159,-0.008211,-0.000559,0.999970,-0.007314,-0.002711,-0.000290,0.287081,-0.535970,-0.457292,-0.649003
25706,NaN,2.481629,-19.905118,0.481289,-17.533380,9.178124,-13.119777,-1.589315,-0.859582,0.221688,-0.946777,-0.023193,0.121338,0.025011,-0.198976,0.006501,0.999959,-0.007946,-0.004298,0.001108,0.281079,-0.541388,-0.453050,-0.650108
25707,NaN,32.925270,-63.752374,-16.076645,-69.908427,17.678302,4.566123,-0.172633,-2.728029,2.320543,-0.941650,0.010986,0.148682,0.338767,-0.633766,-0.155641,0.999839,-0.000863,-0.013639,0.011602,0.281902,-0.555650,-0.449988,-0.639762
25708,NaN,42.595661,-6.788143,10.744254,-9.665040,17.821635,29.740940,0.553474,0.996084,5.023267,-0.937012,0.064697,0.128662,0.428014,-0.057441,0.105146,0.999668,0.002767,0.004980,0.025114,0.301759,-0.563130,-0.436089,-0.633760
25709,NaN,44.347913,-10.388412,1.375719,-15.634247,9.799728,31.846143,0.301092,1.194341,5.893993,-0.945557,0.126709,0.129883,0.446354,-0.090775,0.010954,0.999547,0.001505,0.005971,0.029466,0.323721,-0.571471,-0.418471,-0.627301
25710,NaN,21.208890,41.007611,-2.246700,32.780227,-18.907411,16.723810,0.248043,1.880040,3.756196,-0.930908,0.144043,0.093262,0.204118,0.413989,-0.023899,0.999779,0.001240,0.009400,0.018780,0.340441,-0.573235,-0.404969,-0.625700
25711,NaN,8.168749,32.626467,2.108488,28.984929,-12.698907,1.768696,-3.038132,0.812428,2.310186,-0.936523,0.176025,0.109863,0.077981,0.327446,0.015795,0.999810,-0.015190,0.004062,0.011550,0.340515,-0.580420,-0.387404,-0.630143
25712,NaN,6.162510,-14.009923,-2.700993,-14.026278,4.468156,-4.831009,-2.795587,-0.764233,2.871033,-0.924072,0.193115,0.109619,0.063729,-0.139552,-0.024816,0.999792,-0.013977,-0.003821,0.014354,0.339875,-0.593038,-0.371545,-0.628288
25713,NaN,7.796304,-8.464106,-3.324370,-9.408218,1.332502,-2.520467,-0.227775,0.282506,2.844946,-0.929443,0.221191,0.113525,0.079110,-0.083559,-0.033259,0.999897,-0.001139,0.001412,0.014224,0.348600,-0.597749,-0.361897,-0.624664
25714,NaN,12.819570,5.954413,-3.640209,2.973596,-6.248747,3.038236,1.124224,0.855628,2.331191,-0.921631,0.244629,0.091797,0.127332,0.061237,-0.036607,0.999907,0.005621,0.004278,0.011656,0.360833,-0.597414,-0.356849,-0.620930
25715,NaN,29.599886,16.600549,-3.199551,12.477226,-11.621316,19.703285,0.570225,0.237380,1.978213,-0.926270,0.257568,0.097900,0.294299,0.169013,-0.031866,0.999946,0.002851,0.001187,0.009891,0.369056,-0.599134,-0.352284,-0.617035
25716,NaN,39.237987,7.409229,-3.059168,4.919415,-7.725234,29.173963,-0.081785,0.251763,1.627965,-0.911865,0.279053,0.089111,0.391721,0.077270,-0.031116,0.999966,-0.000409,0.001259,0.008140,0.374228,-0.601434,-0.346803,-0.614783
25717,NaN,20.704980,-0.090336,-0.927298,-0.301861,-1.826956,10.829952,0.506107,0.732506,2.018536,-0.912598,0.298340,0.086670,0.207009,0.001211,-0.010030,0.999939,0.002530,0.003662,0.010092,0.383176,-0.601688,-0.340918,-0.612309
25718,NaN,18.891024,-0.671939,1.820628,0.686236,0.664085,9.153489,1.052204,0.968547,1.538713,-0.904297,0.306885,0.071533,0.189040,-0.005358,0.017260,0.999945,0.005261,0.004843,0.007693,0.392604,-0.599372,-0.337842,-0.610310
25719,NaN,14.435749,-1.132079,2.389217,0.532298,1.447966,4.781698,0.997708,1.109371,1.289119,-0.908936,0.317627,0.062988,0.144556,-0.010506,0.023037,0.999951,0.004988,0.005547,0.006445,0.401356,-0.596165,-0.334850,-0.609406
25720,NaN,7.696367,-2.920290,3.029041,-0.942614,3.263540,-1.725867,0.571227,0.942797,1.110501,-0.896484,0.330566,0.047852,0.077266,-0.028860,0.029844,0.999969,0.002856,0.004714,0.005552,0.407926,-0.594057,-0.331558,-0.608902
25721,NaN,5.864929,-4.507406,2.760657,-2.524970,3.827895,-3.385691,0.136124,0.771529,0.953625,-0.903076,0.334717,0.049805,0.058969,-0.044812,0.027349,0.999981,0.000681,0.003858,0.004768,0.412479,-0.592989,-0.327582,-0.609028
25722,NaN,5.747314,-4.340757,3.502562,-2.020167,4.359526,-3.405300,-0.036001,0.686628,0.773379,-0.890381,0.345459,0.043213,0.057760,-0.043178,0.034835,0.999987,-0.000180,0.003433,0.003867,0.415794,-0.592302,-0.323866,-0.609429
25723,NaN,5.611710,-3.219006,3.584162,-0.967722,3.895663,-3.600884,-0.139969,0.624588,0.562563,-0.901367,0.349854,0.041016,0.056319,-0.032007,0.035688,0.999991,-0.000700,0.003123,0.002813,0.418075,-0.591586,-0.320493,-0.610347
25724,NaN,6.480873,-2.591794,3.500108,-0.380477,3.382555,-2.785373,-0.319171,0.519560,0.462963,-0.890625,0.354004,0.030273,0.064959,-0.025712,0.034874,0.999993,-0.001596,0.002598,0.002315,0.419345,-0.591473,-0.317092,-0.611361
25725,NaN,7.345466,-2.574750,3.666853,-0.215180,3.361038,-1.895120,-0.433233,0.401607,0.403711,-0.899414,0.354004,0.032471,0.073580,-0.025520,0.036576,0.999994,-0.002166,0.002008,0.002019,0.419906,-0.591781,-0.313750,-0.612402
25726,NaN,7.308401,-3.702590,3.433058,-1.290968,3.634171,-1.810574,-0.402663,0.333621,0.331870,-0.888672,0.358398,0.028076,0.073202,-0.036835,0.034283,0.999995,-0.002013,0.001668,0.001659,0.420251,-0.592170,-0.310819,-0.613282
25727,NaN,7.431737,-3.716062,3.100064,-1.422805,3.304347,-1.706700,-0.342013,0.240667,0.287309,-0.893311,0.362549,0.032227,0.074408,-0.037001,0.030974,0.999997,-0.001710,0.001203,0.001437,0.420466,-0.592586,-0.308434,-0.613937
25728,NaN,8.723686,-2.000544,2.533242,-0.075369,1.809083,-0.688892,-0.389441,0.134347,0.239181,-0.886719,0.364746,0.028076,0.087278,-0.019852,0.025313,0.999997,-0.001947,0.000672,0.001196,0.420274,-0.593403,-0.306175,-0.614409
25729,NaN,11.380886,-0.233993,1.750023,1.287672,-0.113885,1.631557,-0.529300,0.066069,0.212367,-0.897461,0.362549,0.034424,0.113817,-0.002173,0.017469,0.999996,-0.002646,0.000330,0.001062,0.419430,-0.594626,-0.303800,-0.614984
25730,NaN,12.794666,0.496562,0.601289,1.491716,-1.694073,2.805412,-0.590052,0.010186,0.212671,-0.884766,0.369141,0.036621,0.127942,0.005119,0.005991,0.999995,-0.002950,0.000051,0.001063,0.418361,-0.596185,-0.301254,-0.615454
25731,NaN,12.743885,-0.773638,-0.114274,0.059261,-1.725612,2.837880,-0.561936,-0.022166,0.227763,-0.893311,0.366943,0.042969,0.127448,-0.007594,-0.001107,0.999995,-0.002810,-0.000111,0.001139,0.417325,-0.597760,-0.298912,-0.615771
25732,NaN,12.101663,-0.779551,-0.227516,-0.010545,-1.724037,2.193028,-0.542482,-0.096846,0.234380,-0.882812,0.371094,0.036377,0.121027,-0.007660,-0.002196,0.999996,-0.002712,-0.000484,0.001172,0.416273,-0.599576,-0.296692,-0.615792
25733,NaN,11.369407,-0.693318,-0.279058,0.021261,-1.693136,1.454732,-0.485420,-0.117856,0.236452,-0.893555,0.369141,0.049316,0.113704,-0.006805,-0.002707,0.999996,-0.002427,-0.000589,0.001182,0.415343,-0.601288,-0.294753,-0.615681
25734,NaN,10.237810,-1.649036,-0.078292,-0.750951,-0.877608,0.492844,-0.458094,-0.151468,0.251991,-0.885254,0.377686,0.044922,0.102399,-0.016363,-0.000668,0.999996,-0.002290,-0.000757,0.001260,0.414503,-0.603117,-0.292875,-0.615355
25735,NaN,9.690609,-2.013019,0.200345,-0.931496,-0.366403,0.036081,-0.436817,-0.185157,0.239723,-0.889404,0.375488,0.053467,0.096928,-0.020009,0.002137,0.999996,-0.002184,-0.000926,0.001199,0.413624,-0.604932,-0.291213,-0.614953
25736,NaN,9.661571,-2.935057,0.551777,-1.516288,0.401421,0.177539,-0.412501,-0.146047,0.200651,-0.883057,0.375488,0.055664,0.096641,-0.029242,0.005649,0.999997,-0.002063,-0.000730,0.001003,0.412767,-0.606574,-0.289620,-0.614663
25737,NaN,8.742507,-3.417599,1.657401,-1.413057,1.738740,-0.547786,-0.341878,-0.081554,0.136292,-0.887451,0.377686,0.057861,0.087442,-0.034088,0.016668,0.999998,-0.001709,-0.000408,0.000681,0.412004,-0.607718,-0.288345,-0.614645
25738,NaN,7.722767,-3.203593,2.451685,-0.881049,2.478350,-1.506281,-0.323144,-0.068033,0.075028,-0.883057,0.375488,0.055664,0.077231,-0.031967,0.024595,0.999999,-0.001616,-0.000340,0.000375,0.411144,-0.608760,-0.287220,-0.614716
25739,NaN,7.413731,-3.366048,2.987881,-0.748390,3.074995,-1.737703,-0.441739,-0.111160,0.017215,-0.889648,0.384033,0.062012,0.074124,-0.033588,0.029994,0.999997,-0.002209,-0.000556,0.000086,0.409666,-0.610025,-0.286059,-0.614991
25740,NaN,8.179394,-3.506671,2.998246,-0.778540,3.049405,-0.964882,-0.448622,-0.085792,-0.055328,-0.883057,0.377441,0.068604,0.081771,-0.035022,0.030096,0.999997,-0.002243,-0.000429,-0.000277,0.408017,-0.611177,-0.284946,-0.615460
25741,NaN,9.239164,-2.875162,2.541310,-0.381170,2.196429,-0.059876,-0.430032,-0.069715,-0.137048,-0.885010,0.373291,0.070801,0.092363,-0.028760,0.025507,0.999997,-0.002150,-0.000349,-0.000685,0.406155,-0.612063,-0.284204,-0.616154
25742,NaN,10.809902,-2.872875,0.940116,-1.092083,0.622725,1.341266,-0.455516,-0.083223,-0.271781,-0.886963,0.368896,0.066406,0.108056,-0.028854,0.009512,0.999996,-0.002278,-0.000416,-0.001359,0.403815,-0.612907,-0.283681,-0.617093
25743,NaN,12.170479,-2.781717,0.061079,-1.394323,-0.330807,2.589264,-0.419247,-0.104802,-0.417348,-0.889160,0.366943,0.075195,0.121646,-0.028070,0.000733,0.999995,-0.002096,-0.000524,-0.002087,0.401066,-0.613473,-0.283898,-0.618222
25744,NaN,12.576020,-2.853072,-0.527023,-1.776687,-0.797645,2.945866,-0.261597,-0.097403,-0.588797,-0.880127,0.358154,0.068848,0.125678,-0.028908,-0.005171,0.999995,-0.001308,-0.000487,-0.002944,0.398322,-0.613516,-0.284969,-0.619459
25745,NaN,12.655071,-3.608384,0.194267,-2.087972,0.256427,3.178954,-0.069929,-0.137721,-0.767916,-0.899658,0.356201,0.081543,0.126410,-0.036569,0.002042,0.999992,-0.000350,-0.000689,-0.003840,0.395504,-0.612975,-0.287402,-0.620676
25746,NaN,12.726327,-3.741279,1.628696,-1.512734,1.602275,3.368817,0.108857,-0.193188,-0.986719,-0.894775,0.343262,0.075439,0.127061,-0.038049,0.016389,0.999987,0.000544,-0.000966,-0.004934,0.392515,-0.612007,-0.291019,-0.621842
25747,NaN,13.300030,-3.567902,2.960337,-0.740580,2.663662,3.998105,0.241843,-0.287425,-1.238417,-0.903076,0.334717,0.079834,0.132733,-0.036537,0.029750,0.999979,0.001209,-0.001437,-0.006192,0.388952,-0.610603,-0.296139,-0.623043
25748,NaN,14.034508,-2.784039,3.790225,0.250866,3.005871,4.678036,0.346988,-0.404214,-1.535997,-0.898438,0.321777,0.077881,0.140048,-0.028983,0.038136,0.999967,0.001735,-0.002021,-0.007680,0.384649,-0.608967,-0.302536,-0.624240
25749,NaN,14.664773,-2.318288,4.559750,0.883279,3.537656,5.284274,0.437485,-0.563301,-1.852248,-0.918945,0.296143,0.086670,0.146295,-0.024639,0.045957,0.999951,0.002187,-0.002816,-0.009261,0.379303,-0.607043,-0.310631,-0.625409
25750,NaN,15.529037,-2.245857,5.222655,1.076632,4.227918,6.137966,0.589066,-0.717787,-2.221299,-0.912109,0.281006,0.091309,0.154838,-0.024335,0.052713,0.999928,0.002945,-0.003589,-0.011106,0.373045,-0.604737,-0.320374,-0.626491
25751,NaN,16.699762,-2.647183,5.509753,0.579234,4.911772,7.268404,0.802400,-0.854243,-2.663194,-0.926025,0.251221,0.095947,0.166386,-0.028913,0.055696,0.999894,0.004012,-0.004271,-0.013315,0.365695,-0.601576,-0.332519,-0.627538
25752,NaN,18.042568,-2.146727,5.780088,0.722194,5.208550,8.513918,1.167461,-0.899199,-3.182998,-0.925049,0.221191,0.092041,0.179788,-0.024672,0.058472,0.999846,0.005837,-0.004496,-0.015914,0.357713,-0.596929,-0.347122,-0.628668
25753,NaN,20.198684,1.709201,5.499739,3.282400,3.470849,10.638980,1.755204,-0.807005,-3.741331,-0.932129,0.180420,0.101318,0.202029,0.012825,0.055938,0.999778,0.008775,-0.004035,-0.018705,0.349686,-0.589690,-0.365191,-0.629779
25754,NaN,22.153805,7.238662,4.239563,6.649386,0.325019,12.919105,2.209326,-0.693625,-4.366358,-0.933350,0.148193,0.105957,0.222890,0.067050,0.043928,0.999695,0.011046,-0.003468,-0.021830,0.341127,-0.579883,-0.385866,-0.631249
25755,NaN,23.264563,12.116980,1.785808,8.809454,-3.227600,14.744479,2.319668,-0.753359,-5.074524,-0.948730,0.094727,0.113037,0.235543,0.114993,0.020099,0.999604,0.011597,-0.003766,-0.025369,0.330223,-0.568273,-0.409049,-0.633007
25756,NaN,21.177501,15.464704,-0.728862,9.948295,-6.059475,13.687772,2.143633,-0.892123,-5.865110,-0.944580,0.038818,0.111816,0.216214,0.148409,-0.004718,0.999503,0.010716,-0.004460,-0.029321,0.315721,-0.555288,-0.433552,-0.635616
25757,NaN,18.313283,12.955234,-2.863266,6.330036,-6.155346,11.002471,1.956982,-0.843968,-6.512584,-0.946777,-0.020996,0.119141,0.187341,0.123764,-0.026618,0.999413,0.009783,-0.004219,-0.032557,0.298419,-0.540425,-0.458944,-0.638950
25758,NaN,19.372792,6.000096,-6.501814,-2.591696,-5.779288,10.517935,2.055114,-0.079497,-6.704122,-0.934082,-0.078857,0.115723,0.195634,0.054127,-0.064364,0.999385,0.010273,-0.000397,-0.033514,0.282053,-0.521854,-0.483345,-0.643811
25759,NaN,20.104636,-8.196206,-7.823297,-16.580154,-1.315195,6.182377,2.802505,0.743907,-5.654708,-0.938965,-0.124023,0.112061,0.198348,-0.086482,-0.080165,0.999495,0.014010,0.003719,-0.028269,0.272793,-0.501564,-0.505841,-0.646640
25760,NaN,17.674735,-29.196381,-10.959046,-35.446446,1.934302,-4.856300,3.402495,0.463596,-2.955598,-0.923340,-0.141113,0.116699,0.172164,-0.292605,-0.114968,0.999743,0.017011,0.002318,-0.014777,0.272818,-0.487852,-0.523384,-0.643149
25761,NaN,18.675928,-11.880313,-6.805824,-19.574709,-0.016296,2.559349,2.234153,0.706216,-0.233821,-0.929932,-0.134766,0.105957,0.186376,-0.118246,-0.070040,0.999931,0.011171,0.003531,-0.001169,0.279319,-0.481870,-0.530154,-0.639311
25762,NaN,-8.595026,8.063789,-3.765348,9.068416,-7.061042,-14.392406,0.855971,1.608993,1.875941,-0.926025,-0.119629,0.090820,-0.087000,0.079983,-0.036613,0.999914,0.004280,0.008045,0.009379,0.291767,-0.480735,-0.525850,-0.638160
25763,NaN,-5.591840,9.643922,-3.571895,9.412961,-6.802575,-11.277899,-0.471187,1.062098,2.156868,-0.933105,-0.100342,0.090332,-0.057143,0.095743,-0.035644,0.999925,-0.002356,0.005310,0.010784,0.300262,-0.483651,-0.517589,-0.638770
25764,NaN,6.304926,-6.217566,1.923565,-7.062284,4.333321,-6.145169,-1.191494,0.606772,2.752313,-0.933838,-0.081055,0.075195,0.063955,-0.061184,0.019409,0.999883,-0.005957,0.003034,0.013761,0.307788,-0.490731,-0.506057,-0.639027
25765,NaN,10.274800,-9.891127,-0.863871,-12.375075,3.130753,-3.394520,-0.185827,0.796904,3.004184,-0.934814,-0.053223,0.070312,0.104183,-0.097362,-0.008961,0.999879,-0.000929,0.003984,0.015020,0.318884,-0.495996,-0.496821,-0.636765
25766,NaN,2.814062,-2.068330,-0.789349,-2.940680,0.094159,-7.772416,0.457816,0.973827,2.704084,-0.933350,-0.033936,0.057373,0.028378,-0.020282,-0.008078,0.999894,0.002289,0.004869,0.013520,0.331126,-0.499029,-0.489802,-0.633577
25767,NaN,-2.228306,4.552823,-1.712490,4.230121,-3.148799,-10.716168,-0.240925,0.512570,2.002871,-0.931641,-0.016602,0.061279,-0.022781,0.045281,-0.017122,0.999946,-0.001205,0.002563,0.010014,0.338081,-0.502667,-0.483182,-0.632109
25768,NaN,-4.148028,5.257055,-2.999906,4.935813,-4.711316,-12.511228,-1.041265,-0.068342,1.363936,-0.927734,-0.008057,0.063477,-0.041826,0.052129,-0.030285,0.999963,-0.005206,-0.000342,0.006820,0.339646,-0.508097,-0.476443,-0.632044
25769,NaN,-3.717085,3.607042,-3.486140,3.077237,-4.663545,-12.598653,-1.338364,-0.557595,0.993015,-0.934326,-0.003906,0.071777,-0.037251,0.035651,-0.035205,0.999961,-0.006692,-0.002788,0.004965,0.338018,-0.514463,-0.470636,-0.632119
25770,NaN,-3.564588,3.346963,-3.486739,2.710003,-4.609847,-12.545851,-1.301399,-0.642174,0.779318,-0.925781,-0.001709,0.080322,-0.035663,0.033102,-0.035198,0.999966,-0.006507,-0.003211,0.003897,0.335560,-0.520681,-0.465575,-0.632084
25771,NaN,-5.516194,3.961384,-2.428709,4.004930,-3.992928,-14.288826,-1.218922,-0.596362,0.487564,-0.929932,-0.006104,0.084717,-0.055185,0.039330,-0.024692,0.999974,-0.006095,-0.002982,0.002438,0.332505,-0.525718,-0.461459,-0.632548
25772,NaN,-5.519377,4.114096,-1.618911,4.364602,-3.356557,-14.250397,-1.233924,-0.637483,0.168516,-0.925781,-0.003906,0.082520,-0.055176,0.040993,-0.016618,0.999976,-0.006170,-0.003187,0.000843,0.328185,-0.530291,-0.458255,-0.633316
25773,NaN,-4.073438,2.884628,-1.461362,2.944426,-2.721966,-13.124853,-1.176595,-0.748850,-0.091187,-0.930176,-0.006104,0.101807,-0.040666,0.028778,-0.014935,0.999976,-0.005883,-0.003744,-0.000456,0.323026,-0.534356,-0.456006,-0.634173
25774,NaN,-2.333603,1.212841,-0.885962,1.253389,-1.469827,-11.805209,-1.047165,-0.873730,-0.287683,-0.923584,-0.010498,0.106201,-0.023279,0.012115,-0.009025,0.999976,-0.005236,-0.004369,-0.001438,0.317214,-0.538239,-0.454961,-0.634575
25775,NaN,-0.893365,-0.071577,-0.592727,-0.104698,-0.598026,-10.699223,-0.931481,-0.963626,-0.416813,-0.925537,-0.014648,0.112793,-0.008906,-0.000725,-0.005967,0.999975,-0.004657,-0.004818,-0.002084,0.311158,-0.541798,-0.454662,-0.634758
25776,NaN,0.415248,-1.150293,-0.737619,-1.411598,-0.175197,-9.684748,-0.637358,-0.988449,-0.457657,-0.916504,-0.023193,0.123535,0.004162,-0.011536,-0.007319,0.999980,-0.003187,-0.004942,-0.002288,0.305654,-0.544992,-0.455474,-0.634115
25777,NaN,1.518935,-1.360770,-0.556533,-1.765475,0.209103,-8.669038,-0.182926,-0.898583,-0.427289,-0.923096,-0.025391,0.138672,0.015185,-0.013645,-0.005485,0.999987,-0.000915,-0.004493,-0.002136,0.301723,-0.547126,-0.457445,-0.632740
25778,NaN,1.879438,-0.191825,-0.186097,-0.658139,0.138402,-8.037470,0.279924,-0.732484,-0.342802,-0.914551,-0.023438,0.136475,0.018798,-0.001948,-0.001795,0.999991,0.001400,-0.003662,-0.001714,0.299659,-0.548385,-0.460395,-0.630488
25779,NaN,1.470478,1.139990,0.350368,0.830488,0.060590,-8.112322,0.424533,-0.582494,-0.243953,-0.920898,-0.027588,0.145020,0.014708,0.011374,0.003571,0.999993,0.002123,-0.002912,-0.001220,0.298684,-0.549006,-0.463290,-0.628286
25780,NaN,1.069586,1.975940,0.527194,1.732159,-0.145848,-8.294588,0.391715,-0.508368,-0.141755,-0.912598,-0.014893,0.149170,0.010696,0.019741,0.005338,0.999995,0.001959,-0.002542,-0.000709,0.298082,-0.549835,-0.465676,-0.626079
25781,NaN,1.113944,2.327133,1.053038,2.252129,0.214974,-8.185729,0.273417,-0.454345,0.007231,-0.916992,-0.016846,0.157715,0.011115,0.023257,0.010587,0.999996,0.001367,-0.002272,0.000036,0.297770,-0.550850,-0.467206,-0.624192
25782,NaN,1.069575,2.112258,1.311409,2.181401,0.534245,-8.302230,0.061652,-0.390172,0.143486,-0.910645,-0.012695,0.159912,0.010655,0.021126,0.013141,0.999998,0.000308,-0.001951,0.000717,0.297407,-0.552461,-0.467584,-0.622657
25783,NaN,1.023480,1.885370,1.647890,2.133651,0.922033,-8.428833,-0.128799,-0.334285,0.282159,-0.917236,-0.008301,0.166260,0.010181,0.018879,0.016484,0.999997,-0.000644,-0.001671,0.001411,0.297120,-0.554337,-0.466918,-0.621625
25784,NaN,1.093114,1.422257,2.067225,1.890627,1.488681,-8.508667,-0.270158,-0.275228,0.416844,-0.913330,0.002197,0.166260,0.010873,0.014273,0.020668,0.999996,-0.001351,-0.001376,0.002084,0.296916,-0.556716,-0.465317,-0.620797
25785,NaN,1.541054,0.594864,2.641238,1.316782,2.394285,-8.316589,-0.202781,-0.175157,0.591151,-0.917480,0.000244,0.172607,0.015370,0.006021,0.026420,0.999995,-0.001014,-0.000876,0.002956,0.297750,-0.558919,-0.463319,-0.619911
25786,NaN,1.801360,-0.475193,3.540897,0.710496,3.664220,-8.371402,-0.233463,-0.064992,0.776290,-0.916260,0.021484,0.170166,0.018020,-0.004641,0.035420,0.999992,-0.001167,-0.000325,0.003881,0.299214,-0.561424,-0.460469,-0.619066
25787,NaN,1.674538,-6.238180,4.251259,-4.058763,6.581556,-9.849624,-0.351049,-0.050040,0.922454,-0.925049,0.030273,0.180664,0.017022,-0.062229,0.042626,0.999988,-0.001755,-0.000250,0.004612,0.300938,-0.564207,-0.456881,-0.618358
25788,NaN,16.012167,-55.540745,-4.742037,-54.164777,20.350196,-5.867037,0.400903,-1.419842,2.032422,-0.913330,0.060059,0.180176,0.166090,-0.553645,-0.047366,0.999921,0.002004,-0.007099,0.010162,0.304927,-0.572818,-0.454332,-0.610313
25789,NaN,46.472010,-17.919297,3.501026,-20.928282,16.721223,32.316683,1.135345,0.144087,5.104827,-0.915283,0.120117,0.177246,0.469119,-0.167449,0.033700,0.999658,0.005676,0.000720,0.025521,0.323951,-0.582034,-0.442822,-0.600167
25790,NaN,18.576125,22.070526,3.104550,19.646929,-4.072200,11.139644,-0.631138,1.070250,5.732420,-0.903809,0.163086,0.167969,0.179494,0.226005,0.029366,0.999570,-0.003155,0.005350,0.028658,0.341682,-0.592663,-0.421864,-0.595009
25791,NaN,14.705886,46.034788,8.519810,44.440695,-10.560379,8.109779,-2.236079,1.365274,3.395905,-0.906738,0.186523,0.171875,0.139758,0.463669,0.079056,0.999770,-0.011180,0.006826,0.016978,0.347934,-0.599436,-0.402741,-0.597844
25792,NaN,17.572149,6.921300,-1.842258,4.785618,-3.708160,8.170854,-4.309830,0.257959,2.070803,-0.894287,0.197266,0.171875,0.174970,0.070605,-0.020160,0.999713,-0.021547,0.001290,0.010353,0.341646,-0.610285,-0.382900,-0.603505
25793,NaN,5.561873,-16.809935,-1.274411,-15.416389,7.232528,-4.798493,-1.387999,-0.100310,2.081239,-0.899658,0.222900,0.186523,0.057371,-0.167591,-0.011551,0.999922,-0.006940,-0.000502,0.010406,0.343446,-0.616886,-0.372523,-0.602265
25794,NaN,6.894718,-1.384918,-4.276927,-3.268245,-2.800095,-2.796742,0.748333,0.730884,1.465202,-0.897705,0.235840,0.164795,0.068888,-0.013184,-0.043071,0.999959,0.003742,0.003654,0.007326,0.351515,-0.616260,-0.368763,-0.600561
25795,NaN,14.282242,11.660101,-3.030842,8.972988,-7.868287,4.564116,1.287353,1.076272,1.551366,-0.902832,0.255127,0.153809,0.141748,0.117898,-0.030317,0.999935,0.006437,0.005381,0.007757,0.362077,-0.613577,-0.365954,-0.598750
25796,NaN,28.923590,17.322526,-7.911007,12.198900,-14.786352,19.027537,0.490881,0.340889,1.316811,-0.892334,0.263672,0.151611,0.287951,0.175318,-0.079173,0.999974,0.002454,0.001704,0.006584,0.368165,-0.614156,-0.362626,-0.596465
25797,NaN,59.751563,28.545979,1.729623,27.930228,-11.848775,49.072726,-0.818106,0.379062,1.743309,-0.894775,0.276611,0.157959,0.595027,0.290718,0.014985,0.999952,-0.004090,0.001895,0.008716,0.371496,-0.617654,-0.354139,-0.595886
25798,NaN,45.444119,37.664110,-9.101120,30.716881,-26.648849,33.922004,-0.945998,1.221490,1.862639,-0.889160,0.302490,0.140381,0.450336,0.380403,-0.095563,0.999927,-0.004730,0.006107,0.009313,0.376169,-0.619031,-0.343345,-0.597839
25799,NaN,9.263891,-20.002999,-11.109997,-22.298341,-0.386983,0.769751,-0.373900,0.718535,2.510062,-0.885498,0.319580,0.137939,0.094742,-0.199057,-0.111065,0.999913,-0.001869,0.003593,0.012550,0.383690,-0.621834,-0.333099,-0.595945
25800,NaN,20.998887,-6.465558,-6.701542,-7.300716,-3.890183,11.616294,1.337069,1.003006,2.148112,-0.877441,0.338867,0.118408,0.210323,-0.061943,-0.068490,0.999907,0.006685,0.005015,0.010740,0.395772,-0.619798,-0.328665,-0.592617
25801,NaN,12.302198,-0.560840,2.286167,1.634869,1.399354,2.526236,1.704375,1.321393,1.741644,-0.878174,0.353760,0.111816,0.123213,-0.004726,0.022005,0.999904,0.008522,0.006607,0.008708,0.408323,-0.615306,-0.325692,-0.590420
25802,NaN,7.625266,-4.969294,6.942226,-0.527523,7.718395,-1.376042,1.587360,1.103068,1.544196,-0.867676,0.368896,0.088135,0.077016,-0.049647,0.068605,0.999923,0.007937,0.005515,0.007721,0.419413,-0.611301,-0.323560,-0.587974
25803,NaN,6.309127,-5.829061,8.153972,-0.939219,9.164815,-2.370171,1.283152,0.891738,1.265487,-0.872559,0.381836,0.079346,0.063822,-0.058409,0.080882,0.999949,0.006416,0.004459,0.006327,0.428452,-0.607998,-0.321599,-0.585954
25804,NaN,4.605637,-5.366524,8.610504,-0.577556,9.466262,-3.964079,1.092040,0.845929,1.000891,-0.864014,0.388184,0.062012,0.046689,-0.053901,0.085615,0.999964,0.005460,0.004230,0.005004,0.435963,-0.604777,-0.320062,-0.584586
25805,NaN,2.589987,-4.311427,8.523259,0.039016,9.135945,-6.008197,0.874076,0.711135,0.741065,-0.872803,0.394775,0.063965,0.026363,-0.043389,0.084950,0.999977,0.004370,0.003556,0.003705,0.441876,-0.601959,-0.318840,-0.583723
25806,NaN,1.574393,-3.975052,7.727244,-0.153159,8.384320,-7.043316,0.391201,0.456092,0.535786,-0.855957,0.403320,0.055420,0.016027,-0.039859,0.077158,0.999992,0.001956,0.002280,0.002679,0.445270,-0.600607,-0.317403,-0.583319
25807,NaN,2.446829,-4.954133,5.938526,-1.682308,7.022802,-6.118575,-0.090653,0.214362,0.419214,-0.862549,0.403320,0.061768,0.024636,-0.049463,0.059381,0.999997,-0.000453,0.001072,0.002096,0.446534,-0.600841,-0.315422,-0.583186
25808,NaN,2.794570,-5.621109,3.432943,-3.263244,4.975636,-5.839560,-0.472567,0.008212,0.319056,-0.853760,0.403320,0.066162,0.028037,-0.056085,0.034461,0.999996,-0.002363,0.000041,0.001595,0.445997,-0.602366,-0.313029,-0.583314
25809,NaN,3.334346,-7.091068,1.525308,-5.289771,3.794132,-5.192040,-0.517292,-0.131726,0.205106,-0.864746,0.407471,0.066162,0.033406,-0.070837,0.015458,0.999996,-0.002586,-0.000659,0.001026,0.444804,-0.604216,-0.311216,-0.583281
25810,NaN,4.906830,-7.027948,0.370741,-5.503396,2.533980,-3.738319,-0.332958,-0.234689,0.054873,-0.856201,0.407471,0.070312,0.049083,-0.070260,0.003882,0.999998,-0.001665,-0.001173,0.000274,0.443540,-0.605735,-0.310503,-0.583049
25811,NaN,6.907253,-5.755365,0.219102,-4.166810,1.616998,-2.008501,-0.110314,-0.259814,-0.116560,-0.860352,0.405273,0.066162,0.069036,-0.057593,0.002312,0.999999,-0.000552,-0.001299,-0.000583,0.442437,-0.606549,-0.311131,-0.582705
25812,NaN,8.340748,-5.024364,0.624088,-3.163102,1.503991,-0.705848,0.106245,-0.217789,-0.271000,-0.854004,0.405273,0.068359,0.083332,-0.050360,0.006305,0.999998,0.000531,-0.001089,-0.001355,0.441607,-0.606549,-0.312617,-0.582539
25813,NaN,9.103196,-3.895145,1.026808,-1.910294,1.319014,-0.132528,0.256108,-0.178065,-0.387651,-0.868652,0.396729,0.076904,0.090947,-0.039141,0.010299,0.999997,0.001281,-0.000890,-0.001938,0.440950,-0.605888,-0.314952,-0.582467
25814,NaN,9.581390,-2.725845,1.086799,-0.816391,0.852120,0.138270,0.279793,-0.148184,-0.492610,-0.866211,0.390381,0.066406,0.095738,-0.027510,0.010901,0.999996,0.001399,-0.000741,-0.002463,0.440106,-0.604962,-0.317435,-0.582720
25815,NaN,9.785481,-2.178253,0.932146,-0.413289,0.492969,0.234959,0.235089,-0.157437,-0.555994,-0.868408,0.385986,0.072754,0.097786,-0.022065,0.009373,0.999995,0.001175,-0.000787,-0.002780,0.438920,-0.604011,-0.320167,-0.583106
25816,NaN,9.853855,-1.933370,0.592624,-0.377328,0.114077,0.238772,0.141623,-0.199811,-0.622067,-0.868164,0.381836,0.068604,0.098472,-0.019644,0.006011,0.999994,0.000708,-0.000999,-0.003110,0.437196,-0.603317,-0.322747,-0.583697
25817,NaN,9.890567,-1.997383,0.267572,-0.620183,-0.111498,0.261386,0.074027,-0.245561,-0.681883,-0.878906,0.381836,0.077148,0.098833,-0.020312,0.002790,0.999993,0.000370,-0.001228,-0.003409,0.435005,-0.602761,-0.325576,-0.584338
25818,NaN,9.764044,-2.121935,0.147616,-0.850174,-0.103825,0.143560,0.031640,-0.256348,-0.746619,-0.870117,0.373291,0.072998,0.097558,-0.021584,0.001598,0.999992,0.000158,-0.001282,-0.003733,0.432485,-0.602262,-0.328322,-0.585186
25819,NaN,9.454262,-1.970212,0.205071,-0.778244,-0.024109,-0.184600,0.013357,-0.284939,-0.794468,-0.880615,0.366699,0.081543,0.094460,-0.020078,0.002184,0.999991,0.000067,-0.001425,-0.003972,0.429704,-0.601750,-0.331387,-0.586032
25820,NaN,9.329745,-1.801003,0.328723,-0.643024,0.088257,-0.327228,-0.028622,-0.300700,-0.836823,-0.874023,0.362549,0.077393,0.093216,-0.018400,0.003430,0.999990,-0.000143,-0.001503,-0.004184,0.426652,-0.601347,-0.334313,-0.587014
