// Start Time: Unknown
// Update Rate: 100.0Hz
// Filter Profile: human (46.1)
// Firmware Version: 4.4.0
PacketCounter,SampleTimeFine,Acc_X,Acc_Y,Acc_Z,FreeAcc_X,FreeAcc_Y,FreeAcc_Z,Gyr_X,Gyr_Y,Gyr_Z,Mag_X,Mag_Y,Mag_Z,VelInc_X,VelInc_Y,VelInc_Z,OriInc_q0,OriInc_q1,OriInc_q2,OriInc_q3,Quat_q0,Quat_q1,Quat_q2,Quat_q3
22528,NaN,-5.427602,0.661668,0.010098,0.000000,-0.000000,-4.344918,1.483551,0.771927,-0.440368,1.095947,-0.110596,-0.234375,-0.054260,0.006734,0.000360,0.999963,0.007418,0.003860,-0.002202,0.075901,0.704681,-0.011476,-0.705359
22529,NaN,-4.724812,0.695247,0.055656,0.000000,0.000000,-5.036695,1.342537,0.767287,-0.491914,1.096191,-0.114990,-0.219971,-0.047228,0.007064,0.000785,0.999967,0.006713,0.003836,-0.002460,0.129115,0.700875,0.023593,-0.701104
22530,NaN,-4.044599,0.681702,0.094946,-0.026564,-0.139813,-5.712431,1.157536,0.770049,-0.542536,1.098145,-0.110596,-0.207764,-0.040423,0.006920,0.001145,0.999972,0.005788,0.003850,-0.002713,0.102933,0.704704,0.009775,-0.701927
22531,NaN,-3.459908,0.619077,0.081947,-0.047064,-0.179072,-6.301772,0.960964,0.757404,-0.597425,1.096191,-0.110840,-0.199707,-0.034577,0.006290,0.000981,0.999977,0.004805,0.003787,-0.002987,0.097411,0.707811,0.008897,-0.699596
22532,NaN,-2.996548,0.449269,0.123871,-0.132227,-0.097077,-6.784570,0.753004,0.750617,-0.664239,1.100098,-0.106445,-0.187500,-0.029945,0.004587,0.001368,0.999980,0.003765,0.003753,-0.003321,0.092687,0.710996,0.008543,-0.697008
22533,NaN,-2.702413,0.226846,0.350674,-0.400311,0.032291,-7.107856,0.547810,0.736574,-0.747887,1.098145,-0.106445,-0.181396,-0.027002,0.002360,0.003613,0.999982,0.002739,0.003683,-0.003739,0.088100,0.713773,0.009634,-0.694748
22534,NaN,-2.601350,0.031894,0.468483,-0.554461,0.174996,-7.234044,0.347782,0.707050,-0.847833,1.100098,-0.102295,-0.171143,-0.025995,0.000421,0.004777,0.999983,0.001739,0.003535,-0.004239,0.083937,0.715998,0.011746,-0.692938
22535,NaN,-2.698854,0.020453,0.706418,-0.810467,0.138288,-7.146755,0.170161,0.674688,-0.962849,1.097900,-0.098145,-0.156982,-0.026963,0.000328,0.007155,0.999982,0.000851,0.003373,-0.004814,0.079951,0.718338,0.014886,-0.690925
22536,NaN,-2.838173,0.117238,0.819852,-0.917521,0.007507,-7.002150,-0.004998,0.641945,-1.076000,1.097656,-0.095947,-0.144775,-0.028348,0.001325,0.008290,0.999980,-0.000025,0.003210,-0.005380,0.075879,0.718905,0.019438,-0.690681
22537,NaN,-3.138554,0.339861,1.008114,-1.101089,-0.252587,-6.697249,-0.190890,0.611495,-1.194064,1.095459,-0.093994,-0.138672,-0.031333,0.003595,0.010174,0.999977,-0.000954,0.003057,-0.005970,0.072381,0.720812,0.024620,-0.688902
22538,NaN,-3.693100,0.707845,1.188654,-1.230872,-0.653785,-6.123493,-0.379401,0.580670,-1.316853,1.095215,-0.085449,-0.134766,-0.036849,0.007344,0.011980,0.999972,-0.001897,0.002903,-0.006584,0.069087,0.718915,0.031156,-0.690954
22539,NaN,-4.414562,1.030685,1.224725,-1.261676,-1.006158,-5.402930,-0.574666,0.567563,-1.433355,1.086426,-0.076904,-0.130859,-0.044035,0.010658,0.012342,0.999966,-0.002873,0.002838,-0.007167,0.066110,0.720430,0.038489,-0.689296
22540,NaN,-5.377579,1.272542,1.201400,-1.168580,-1.259269,-4.424836,-0.730744,0.559053,-1.552489,1.079834,-0.068359,-0.114502,-0.053641,0.013186,0.012116,0.999959,-0.003654,0.002795,-0.007762,0.065238,0.716073,0.045335,-0.693490
22541,NaN,-6.399469,1.303390,1.317209,-1.317226,-1.389768,-3.431524,-0.871100,0.539556,-1.668451,1.077393,-0.057861,-0.110596,-0.063847,0.013625,0.013286,0.999952,-0.004355,0.002698,-0.008342,0.062446,0.717247,0.054503,-0.691872
22542,NaN,-7.337173,1.201254,1.472461,-1.386851,-1.348709,-2.484590,-0.975117,0.526125,-1.781677,1.066406,-0.042969,-0.104736,-0.073221,0.012738,0.014856,0.999945,-0.004875,0.002631,-0.008908,0.063911,0.711390,0.060842,-0.697236
22543,NaN,-8.524853,0.974902,1.711577,-1.687269,-1.329443,-1.331181,-1.018921,0.521161,-1.885278,1.061768,-0.032227,-0.101074,-0.085106,0.010639,0.017285,0.999939,-0.005095,0.002606,-0.009426,0.060800,0.712264,0.071263,-0.695632
22544,NaN,-10.193641,0.714926,2.017108,-1.862003,-1.202776,0.364350,-1.030544,0.492367,-1.982237,1.052734,-0.019531,-0.091064,-0.101808,0.008263,0.020381,0.999935,-0.005153,0.002462,-0.009911,0.062551,0.705195,0.077433,-0.701991
22545,NaN,-12.595266,0.648807,2.739629,-2.582257,-1.593122,2.731384,-1.122130,0.433198,-2.088357,1.035400,-0.002441,-0.083252,-0.125815,0.007957,0.027627,0.999927,-0.005611,0.002166,-0.010442,0.059006,0.705504,0.088865,-0.700632
22546,NaN,-15.738029,1.036851,3.482732,-2.823930,-2.330428,5.918579,-1.319618,0.304669,-2.084238,1.024170,0.014648,-0.079346,-0.157206,0.012238,0.034990,0.999923,-0.006598,0.001523,-0.010421,0.061325,0.696123,0.095976,-0.708830
22547,NaN,-18.608041,1.480701,3.439935,-2.548583,-3.271147,8.709598,-1.464913,0.119512,-1.930822,1.013184,0.025146,-0.083740,-0.185904,0.016854,0.034392,0.999926,-0.007324,0.000598,-0.009654,0.059519,0.695120,0.107918,-0.708251
22548,NaN,-19.688930,1.414098,2.867075,-1.333735,-3.060083,9.852491,-1.381329,-0.123152,-1.676244,1.001953,0.044434,-0.075928,-0.196778,0.015988,0.028443,0.999941,-0.006907,-0.000616,-0.008381,0.065288,0.682899,0.111532,-0.718990
22549,NaN,-18.346716,0.457250,2.060823,-0.733383,-2.153226,8.514260,-1.231969,-0.361841,-1.372221,0.988770,0.054932,-0.086426,-0.183466,0.005957,0.020242,0.999956,-0.006160,-0.001809,-0.006861,0.064761,0.680401,0.120523,-0.719955
22550,NaN,-16.179495,-0.836723,0.878658,0.395788,-0.256199,6.405273,-1.041194,-0.477590,-1.168137,0.982178,0.067871,-0.092773,-0.161860,-0.007377,0.008440,0.999967,-0.005206,-0.002388,-0.005841,0.071688,0.669232,0.120116,-0.729768
22551,NaN,-14.770157,-2.387185,-0.673058,1.442142,1.581399,5.010490,-0.747494,-0.416423,-1.036500,0.960449,0.078613,-0.091064,-0.147808,-0.023132,-0.006951,0.999977,-0.003737,-0.002082,-0.005182,0.070655,0.666807,0.126160,-0.731068
22552,NaN,-14.438071,-3.893993,-1.213060,1.733526,3.262845,4.728279,-0.401503,-0.304941,-0.950550,0.962158,0.091309,-0.097412,-0.144545,-0.038278,-0.012274,0.999986,-0.002008,-0.001525,-0.004753,0.072492,0.660882,0.126252,-0.736234
22553,NaN,-15.518740,-4.739588,-0.942048,1.432896,3.811634,5.922596,-0.205712,-0.210360,-0.837615,0.951660,0.093506,-0.095459,-0.155374,-0.046755,-0.009536,0.999990,-0.001029,-0.001052,-0.004188,0.070220,0.659498,0.129700,-0.737096
22554,NaN,-17.250953,-4.570376,-0.342727,1.202349,3.212816,7.703936,-0.012317,-0.143340,-0.670418,0.940918,0.097656,-0.101807,-0.172659,-0.045125,-0.003548,0.999994,-0.000062,-0.000717,-0.003352,0.067184,0.657997,0.132869,-0.738154
22555,NaN,-18.884008,-3.405401,0.775697,0.712478,1.575016,9.313615,0.111296,-0.130158,-0.372639,0.929932,0.104248,-0.101807,-0.188908,-0.033706,0.007615,0.999998,0.000556,-0.000651,-0.001863,0.065529,0.657306,0.133640,-0.738780
22556,NaN,-19.842703,-2.244244,1.750665,0.229114,-0.069438,10.231687,0.044651,-0.120664,-0.026993,0.929932,0.108398,-0.108154,-0.198441,-0.022420,0.017382,1.000000,0.000223,-0.000603,-0.000135,0.063225,0.657577,0.136586,-0.738201
22557,NaN,-20.504088,-1.825887,2.018040,0.187516,-0.570063,10.862504,-0.031813,-0.109310,0.284136,0.927979,0.104248,-0.110107,-0.205026,-0.018547,0.020071,0.999999,-0.000159,-0.000547,0.001421,0.064453,0.657356,0.135734,-0.738448
22558,NaN,-21.569941,-2.105811,2.143822,0.096881,-0.430818,11.961069,-0.004670,-0.156062,0.560761,0.930176,0.102051,-0.105957,-0.215656,-0.021662,0.021270,0.999996,-0.000023,-0.000780,0.002804,0.065476,0.657800,0.135634,-0.737981
22559,NaN,-23.239154,-2.347039,1.953267,0.425085,-0.122846,13.621971,0.055658,-0.262921,0.782824,0.928223,0.093506,-0.115967,-0.232323,-0.024385,0.019221,0.999991,0.000278,-0.001315,0.003914,0.068359,0.657373,0.132766,-0.738621
22560,NaN,-24.790900,-2.496738,0.867279,1.587728,0.378608,15.065113,0.218412,-0.329153,0.955395,0.934814,0.091553,-0.122070,-0.247800,-0.026160,0.008237,0.999987,0.001092,-0.001646,0.004777,0.070747,0.657496,0.129656,-0.738839
22561,NaN,-26.476385,-3.801744,-1.472664,3.681696,2.455400,16.607567,0.784725,-0.237797,1.086379,0.937256,0.080811,-0.119873,-0.264534,-0.039396,-0.015194,0.999977,0.003924,-0.001189,0.005432,0.072333,0.657585,0.123099,-0.739728
22562,NaN,-29.570080,-6.612184,-2.593024,4.251511,5.495440,19.793847,1.863586,-0.174902,1.278357,0.943848,0.068115,-0.129883,-0.295248,-0.067763,-0.026815,0.999936,0.009318,-0.000874,0.006392,0.069855,0.660653,0.113225,-0.738808
22563,NaN,-33.530368,-8.610512,-2.336887,4.092847,7.635516,23.785000,2.643765,-0.311118,1.626327,0.959473,0.046875,-0.133545,-0.334552,-0.088504,-0.025049,0.999878,0.013218,-0.001556,0.008131,0.067297,0.661268,0.097965,-0.740675
22564,NaN,-33.907249,-8.417880,-4.171470,5.761912,8.038841,23.952622,2.823399,-0.297667,2.172860,0.975098,0.025635,-0.141113,-0.338072,-0.087250,-0.043436,0.999840,0.014116,-0.001488,0.010864,0.062576,0.666409,0.085280,-0.738045
22565,NaN,-30.689120,-7.570587,-4.463921,5.991565,8.073365,20.484664,2.509837,-0.071125,2.819408,0.984375,0.000000,-0.138672,-0.305773,-0.079452,-0.045730,0.999822,0.012548,-0.000356,0.014096,0.064636,0.668015,0.066587,-0.738339
22566,NaN,-28.024828,-7.417393,-3.027438,3.846217,7.894465,17.979159,1.473708,0.148899,3.337758,1.006348,-0.025635,-0.146240,-0.278984,-0.078612,-0.030635,0.999833,0.007368,0.000744,0.016688,0.066205,0.676603,0.058166,-0.731056
22567,NaN,-27.817711,-6.839526,-1.415901,2.175450,7.958748,17.654558,0.083106,0.191216,3.530404,1.022217,-0.057373,-0.143555,-0.276926,-0.073285,-0.013924,0.999844,0.000416,0.000956,0.017651,0.078762,0.678250,0.045974,-0.729150
22568,NaN,-28.204268,-5.377114,-1.249052,1.573567,6.736494,18.080261,-1.168023,0.072369,3.376299,1.040039,-0.078857,-0.151367,-0.281085,-0.058593,-0.012056,0.999840,-0.005840,0.000362,0.016881,0.088217,0.685500,0.049047,-0.721042
22569,NaN,-27.321845,-3.561123,-1.892587,2.267079,5.901796,17.070633,-2.278287,-0.113776,2.992586,1.052979,-0.091553,-0.153076,-0.272632,-0.039907,-0.018643,0.999823,-0.011391,-0.000569,0.014962,0.106826,0.684698,0.046945,-0.719426
22570,NaN,-25.540881,-2.746527,-3.890998,3.732714,5.507988,15.301047,-2.858147,-0.310155,2.554278,1.072510,-0.104492,-0.156982,-0.254965,-0.031279,-0.038877,0.999815,-0.014290,-0.001551,0.012771,0.119099,0.689044,0.058954,-0.712431
22571,NaN,-23.482380,-3.758705,-5.132077,4.472337,7.292661,12.961556,-2.593951,-0.570030,2.239628,1.083252,-0.106445,-0.173096,-0.234232,-0.040879,-0.051473,0.999849,-0.012969,-0.002850,0.011198,0.136163,0.686025,0.060130,-0.712189
22572,NaN,-20.815974,-5.393512,-4.402079,2.810033,8.396696,10.270848,-1.464900,-0.819180,2.117984,1.093994,-0.108643,-0.185303,-0.207389,-0.056459,-0.044464,0.999909,-0.007324,-0.004096,0.010590,0.142247,0.689796,0.068046,-0.706624
22573,NaN,-17.151513,-6.425737,-2.904548,1.057117,8.973818,6.381111,0.456500,-0.951903,2.061392,1.102783,-0.121338,-0.195312,-0.170700,-0.065952,-0.030008,0.999933,0.002282,-0.004759,0.010307,0.148270,0.687412,0.058642,-0.708549
22574,NaN,-12.613296,-6.274000,-1.318010,-0.532496,7.751997,2.011313,2.484812,-0.955679,1.914967,1.111328,-0.123535,-0.203369,-0.125458,-0.063768,-0.014569,0.999866,0.012424,-0.004778,0.009574,0.139415,0.693021,0.054145,-0.705233
22575,NaN,-8.631411,-4.284083,-0.468238,-0.609000,5.354501,-1.811079,3.681305,-0.951981,1.657354,1.111816,-0.140381,-0.209229,-0.085930,-0.043453,-0.005888,0.999785,0.018405,-0.004760,0.008286,0.132731,0.692530,0.034747,-0.708221
22576,NaN,-5.341908,-1.215584,-0.818602,0.519393,1.996405,-4.671940,4.584055,-0.834756,1.525812,1.112305,-0.155273,-0.215088,-0.053290,-0.012367,-0.008691,0.999700,0.022918,-0.004173,0.007628,0.114586,0.697849,0.024061,-0.706610
22577,NaN,-2.501339,0.796990,0.151740,-0.006994,-0.464891,-7.224529,4.872155,-0.756968,1.312849,1.110596,-0.163818,-0.219238,-0.025071,0.007767,0.001613,0.999675,0.024358,-0.003784,0.006564,0.102279,0.697897,0.001827,-0.708855
22578,NaN,0.993962,1.485644,0.784486,-0.588478,-1.685167,-10.602519,4.698855,-0.698329,1.016377,1.106934,-0.178711,-0.214844,0.009836,0.014716,0.008226,0.999705,0.023492,-0.003491,0.005081,0.082740,0.701519,-0.009539,-0.707767
22579,NaN,5.389156,0.652569,0.174560,-0.142549,-1.386178,-15.062176,4.241568,-0.505912,0.868846,1.109375,-0.193604,-0.214600,0.053858,0.006719,0.002023,0.999762,0.021206,-0.002529,0.004344,0.070894,0.701276,-0.027802,-0.708811
22580,NaN,12.029778,-0.164106,0.089032,-0.109673,-1.384201,-21.763472,3.581292,-0.216803,0.976859,1.103271,-0.201904,-0.218506,0.120303,-0.001071,0.000998,0.999827,0.017905,-0.001084,0.004884,0.056774,0.704115,-0.037544,-0.706816
22581,NaN,22.108869,-1.314026,0.977583,-1.032261,-1.854667,-31.880019,2.665971,0.037342,1.814022,1.099854,-0.223145,-0.209961,0.221198,-0.011263,0.009576,0.999870,0.013329,0.000187,0.009070,0.053798,0.704572,-0.053336,-0.705577
22582,NaN,26.385194,-1.880339,3.941800,-3.892715,-2.010630,-36.195419,2.096064,-0.247319,1.445753,1.095947,-0.231689,-0.211914,0.263932,-0.017310,0.039558,0.999918,0.010480,-0.001237,0.007229,0.048147,0.705426,-0.061858,-0.704436
22583,NaN,18.425216,1.344871,4.624149,-4.692783,-4.051646,-27.819373,0.766716,-0.402957,-0.286539,1.095703,-0.227539,-0.216064,0.184177,0.013006,0.046663,0.999990,0.003834,-0.002015,-0.001433,0.044308,0.704273,-0.063644,-0.705681
22584,NaN,13.479877,3.017833,3.796644,-3.977512,-4.766655,-22.723316,-0.336462,-0.688151,-1.346501,1.099121,-0.199951,-0.228760,0.134867,0.029335,0.038381,0.999970,-0.001682,-0.003441,-0.006732,0.037909,0.702304,-0.056573,-0.708613
22585,NaN,10.771606,2.880460,2.908917,-3.115718,-4.126670,-20.110578,-1.257555,-0.718137,-1.933483,1.102295,-0.172119,-0.243652,0.107884,0.027946,0.029299,0.999927,-0.006288,-0.003591,-0.009667,0.035269,0.700017,-0.045460,-0.711805
22586,NaN,7.178747,3.315717,1.832577,-2.017138,-3.995648,-16.583990,-1.885472,-0.618356,-2.468075,1.100830,-0.129639,-0.246338,0.072134,0.032441,0.018240,0.999875,-0.009427,-0.003092,-0.012340,0.031020,0.697415,-0.030729,-0.715336
22587,NaN,3.638616,3.769567,1.182503,-1.239361,-4.034703,-13.133955,-2.127790,-0.507579,-2.951433,1.106201,-0.095703,-0.259277,0.036909,0.037277,0.011520,0.999831,-0.010638,-0.002538,-0.014756,0.027801,0.695606,-0.012901,-0.717769
22588,NaN,0.980590,3.843073,0.704308,-0.629860,-3.897010,-10.613666,-1.974188,-0.439526,-3.428402,1.106689,-0.049072,-0.260010,0.010449,0.038322,0.006687,0.999802,-0.009870,-0.002197,-0.017141,0.021184,0.693283,0.004948,-0.720337
22589,NaN,-0.781027,3.897028,0.307532,-0.097800,-3.901535,-9.001597,-1.811409,-0.191740,-3.430671,1.109375,-0.006592,-0.266846,-0.007143,0.039122,0.002714,0.999811,-0.009056,-0.000959,-0.017152,0.015108,0.692185,0.023342,-0.721184
22590,NaN,-1.956441,3.390049,0.324504,-0.038439,-3.451138,-7.938638,-1.538035,0.086535,-3.111408,1.109863,0.040039,-0.261475,-0.019032,0.034223,0.002991,0.999849,-0.007690,0.000433,-0.015556,0.008963,0.691543,0.038659,-0.721244
22591,NaN,-2.622397,2.701734,1.328986,-1.016125,-2.932352,-7.300703,-1.275566,0.237955,-2.816592,1.106689,0.072021,-0.258057,-0.025824,0.027467,0.013147,0.999880,-0.006378,0.001190,-0.014082,0.003169,0.691717,0.053004,-0.720214
22592,NaN,-3.066534,2.149773,2.388070,-2.067119,-2.584610,-6.850667,-1.130956,0.227818,-2.588496,1.101562,0.104004,-0.262695,-0.030355,0.022027,0.023792,0.999900,-0.005655,0.001139,-0.012942,-0.002067,0.691485,0.065166,-0.719443
22593,NaN,-3.580811,2.081144,3.255941,-2.891093,-2.747172,-6.370633,-0.866314,0.082880,-2.472923,1.102539,0.137939,-0.263184,-0.035533,0.021393,0.032482,0.999914,-0.004331,0.000414,-0.012364,-0.007995,0.690927,0.076826,-0.718786
22594,NaN,-4.044035,2.154254,3.627146,-3.209511,-3.005205,-5.963315,-0.522619,-0.122778,-2.397812,1.097656,0.156982,-0.265625,-0.040200,0.022120,0.036189,0.999925,-0.002613,-0.000614,-0.011989,-0.014976,0.689174,0.085662,-0.719359
22595,NaN,-4.369766,2.024230,3.508639,-3.060443,-3.015365,-5.684373,-0.372150,-0.317059,-2.276451,1.092285,0.184570,-0.266113,-0.043519,0.020803,0.034979,0.999932,-0.001861,-0.001585,-0.011382,-0.021745,0.687040,0.094862,-0.720072
22596,NaN,-4.585523,1.830809,2.708292,-2.242320,-2.859690,-5.510731,-0.348214,-0.439872,-2.127875,1.087158,0.214355,-0.270752,-0.045716,0.018842,0.026950,0.999939,-0.001741,-0.002199,-0.010639,-0.028768,0.684026,0.101592,-0.721775
22597,NaN,-4.934507,1.487669,1.556413,-1.072741,-2.558722,-5.198999,-0.382519,-0.503423,-1.960759,1.086670,0.231445,-0.281250,-0.049235,0.015389,0.015411,0.999947,-0.001913,-0.002517,-0.009804,-0.034279,0.681233,0.109746,-0.722982
22598,NaN,-5.460076,1.130414,0.216695,0.299945,-2.247914,-4.714336,-0.541537,-0.541965,-1.789568,1.081787,0.248535,-0.275391,-0.054502,0.011798,0.001988,0.999953,-0.002708,-0.002710,-0.008948,-0.039368,0.677992,0.116023,-0.724787
22599,NaN,-5.972616,1.099565,-1.089100,1.677215,-2.259423,-4.321926,-0.746939,-0.535234,-1.600582,1.076904,0.269775,-0.286133,-0.059606,0.011432,-0.011093,0.999957,-0.003735,-0.002676,-0.008003,-0.042324,0.675242,0.124256,-0.725822
22600,NaN,-6.229412,1.494182,-1.652148,2.350255,-2.687017,-4.242828,-0.937877,-0.532380,-1.359068,1.069824,0.284668,-0.286377,-0.062147,0.015286,-0.016758,0.999962,-0.004689,-0.002662,-0.006795,-0.043652,0.672408,0.131294,-0.727134
22601,NaN,-5.609797,2.283895,-1.562871,2.349538,-3.347587,-5.079676,-1.175857,-0.552748,-1.034881,1.069580,0.297363,-0.290771,-0.055935,0.023036,-0.015919,0.999966,-0.005879,-0.002764,-0.005174,-0.043097,0.669952,0.139165,-0.727970
22602,NaN,-3.919603,3.022579,-1.235674,2.019032,-3.677940,-6.910612,-1.420282,-0.503579,-0.651766,1.069092,0.312256,-0.292969,-0.039066,0.030264,-0.012670,0.999966,-0.007101,-0.002518,-0.003259,-0.038926,0.667790,0.146637,-0.728725
22603,NaN,-1.979895,3.244135,-0.902948,1.576946,-3.437693,-8.835500,-1.621341,-0.403463,-0.254590,1.067139,0.308105,-0.294922,-0.019739,0.032392,-0.009332,0.999964,-0.008107,-0.002017,-0.001273,-0.034143,0.666425,0.153468,-0.728807
22604,NaN,-0.270443,2.693583,-0.702146,1.170603,-2.489423,-10.316455,-1.795583,-0.253117,0.131807,1.060547,0.312256,-0.288818,-0.002713,0.026870,-0.007266,0.999959,-0.008978,-0.001266,0.000659,-0.025075,0.665698,0.160347,-0.728358
22605,NaN,1.025285,1.436657,-0.632737,0.770182,-0.972628,-11.218495,-1.900152,-0.093050,0.473062,1.071289,0.310059,-0.282715,0.010222,0.014330,-0.006459,0.999952,-0.009501,-0.000465,0.002365,-0.016952,0.665945,0.165697,-0.727169
22606,NaN,1.849893,-0.209047,-0.669207,0.398468,0.795322,-11.579698,-1.817083,0.053470,0.712067,1.075439,0.307861,-0.274414,0.018505,-0.002085,-0.006678,0.999952,-0.009085,0.000267,0.003560,-0.005757,0.666632,0.170918,-0.725504
22607,NaN,2.115277,-1.852036,-0.558161,-0.112822,2.372138,-11.417722,-1.531387,0.136363,0.798441,1.084473,0.295166,-0.274170,0.021223,-0.018478,-0.005454,0.999962,-0.007657,0.000682,0.003992,0.002127,0.667828,0.173801,-0.723736
22608,NaN,1.933305,-2.886905,-0.314488,-0.609971,3.224684,-10.995911,-1.089617,0.121447,0.767212,1.088867,0.286621,-0.267822,0.019442,-0.028811,-0.003000,0.999978,-0.005448,0.000607,0.003836,0.010352,0.668728,0.175981,-0.722306
22609,NaN,1.501853,-3.107442,-0.225730,-0.725705,3.301969,-10.542762,-0.501198,0.087949,0.674775,1.095947,0.269531,-0.269531,0.015122,-0.031029,-0.002186,0.999991,-0.002506,0.000440,0.003374,0.014387,0.669608,0.175538,-0.721529
22610,NaN,0.951448,-2.730152,0.024384,-0.823241,2.755911,-10.107269,0.064035,0.044942,0.588860,1.096191,0.256836,-0.275635,0.009595,-0.027273,0.000233,0.999996,0.000320,0.000225,0.002944,0.017067,0.670203,0.173649,-0.721376
22611,NaN,0.423099,-1.935873,0.027367,-0.562883,1.899973,-9.787897,0.493368,0.047425,0.529412,1.105469,0.237793,-0.270996,0.004282,-0.019348,0.000225,0.999993,0.002467,0.000237,0.002647,0.017282,0.670871,0.170098,-0.721595
22612,NaN,-0.312429,-1.243442,0.583515,-0.842028,0.954956,-9.209955,0.714543,0.027341,0.454671,1.105957,0.224854,-0.279053,-0.003095,-0.012462,0.005791,0.999991,0.003573,0.000137,0.002273,0.016554,0.671389,0.165934,-0.722100
22613,NaN,-1.615943,-0.668183,1.111841,-1.077755,0.024930,-8.043015,0.678381,-0.023084,0.278656,1.110596,0.208008,-0.284912,-0.016151,-0.006742,0.011094,0.999993,0.003392,-0.000115,0.001393,0.015302,0.671589,0.162547,-0.722712
22614,NaN,-3.990948,0.145254,1.614915,-1.135058,-1.329878,-5.875711,0.482256,-0.087798,-0.102350,1.117432,0.195312,-0.284668,-0.039916,0.001434,0.016135,0.999997,0.002411,-0.000439,-0.000512,0.013019,0.671212,0.160789,-0.723500
22615,NaN,-7.202514,1.644960,2.360565,-1.175651,-3.586409,-3.037017,0.068020,-0.194686,-0.601829,1.115723,0.182373,-0.288574,-0.071998,0.016658,0.023541,0.999995,0.000340,-0.000973,-0.003009,0.010770,0.670025,0.162549,-0.724243
22616,NaN,-11.086947,4.286843,2.943800,-0.690974,-7.072877,0.160239,-0.611892,-0.112004,-0.755366,1.113770,0.176025,-0.288330,-0.110723,0.043376,0.029244,0.999988,-0.003059,-0.000560,-0.003777,0.009874,0.668915,0.166797,-0.724317
22617,NaN,-17.312097,6.739761,4.869917,-1.224845,-11.282670,5.680768,-1.270358,-0.026390,-0.605317,1.118408,0.169678,-0.282227,-0.172922,0.068229,0.048245,0.999975,-0.006352,-0.000132,-0.003027,0.011952,0.668235,0.173417,-0.723357
22618,NaN,-24.336848,5.996870,2.311543,1.920434,-11.489293,12.500854,-1.955238,0.303943,-0.382164,1.110107,0.163330,-0.277832,-0.243218,0.060658,0.022894,0.999949,-0.009776,0.001520,-0.001911,0.017751,0.668627,0.181593,-0.720866
22619,NaN,-36.081081,1.162710,1.994705,2.165591,-9.540650,24.993349,-1.684007,0.308164,-0.114503,1.095703,0.152832,-0.267578,-0.360773,0.012004,0.020403,0.999963,-0.008420,0.001541,-0.000573,0.022688,0.669459,0.188067,-0.718290
22620,NaN,-32.949929,-2.767144,-1.108041,3.831823,-4.190740,22.780686,-0.728968,-1.060324,-0.260175,1.089355,0.148682,-0.285889,-0.329470,-0.027287,-0.012727,0.999978,-0.003645,-0.005302,-0.001301,0.028364,0.664823,0.192415,-0.721237
22621,NaN,-20.924615,-4.721922,-5.090716,5.991750,1.461773,11.353391,0.683054,-1.399829,-0.522404,1.068359,0.146729,-0.302490,-0.209004,-0.046496,-0.052530,0.999966,0.003415,-0.006999,-0.002612,0.025555,0.659346,0.191483,-0.726597
22622,NaN,-15.487786,-6.924757,-4.303737,4.181554,4.445127,6.591292,1.586000,-1.156729,-0.944938,1.053467,0.142578,-0.312500,-0.154947,-0.068167,-0.044477,0.999941,0.007930,-0.005784,-0.004725,0.022637,0.653901,0.190888,-0.731753
22623,NaN,-14.444985,-6.792170,-2.947777,3.084322,4.011291,5.610344,1.601311,-0.733882,-1.012953,1.036621,0.140381,-0.322754,-0.144680,-0.066948,-0.030547,0.999948,0.008006,-0.003669,-0.005065,0.014395,0.650397,0.188248,-0.735757
22624,NaN,-17.747041,-3.856041,-1.790567,3.445924,0.152097,8.107472,1.374919,-0.316318,-0.728909,1.028320,0.136230,-0.324951,-0.177580,-0.037788,-0.018448,0.999968,0.006875,-0.001582,-0.003645,0.012111,0.648269,0.188174,-0.737693
22625,NaN,-20.780502,-0.543412,0.155996,3.047391,-4.279923,10.300583,1.009286,-0.146133,-0.475937,1.017822,0.136230,-0.326904,-0.207818,-0.004947,0.001382,0.999984,0.005046,-0.000731,-0.002380,0.007222,0.647333,0.185982,-0.739134
22626,NaN,-19.883492,0.931335,1.712770,1.873303,-5.892947,9.185148,0.340777,-0.171463,-0.342565,1.005127,0.136230,-0.324951,-0.198833,0.009625,0.016973,0.999997,0.001704,-0.000857,-0.001713,0.010414,0.645998,0.189066,-0.739481
22627,NaN,-17.022771,0.180909,1.471761,1.477614,-4.508737,6.602589,-0.002318,-0.178004,-0.223025,0.996338,0.140625,-0.322998,-0.170239,0.001999,0.014566,0.999999,-0.000012,-0.000890,-0.001115,0.009765,0.645128,0.189786,-0.740065
22628,NaN,-15.057893,-2.107261,1.749006,0.313642,-1.986466,5.359500,0.050623,-0.099927,-0.045953,0.994385,0.142822,-0.322998,-0.150592,-0.021042,0.017409,1.000000,0.000253,-0.000500,-0.000230,0.015648,0.644205,0.193250,-0.739871
22629,NaN,-14.218478,-4.429490,2.324308,-0.996861,0.183748,5.225942,0.067984,-0.021084,0.115197,0.981689,0.138672,-0.321045,-0.142162,-0.044385,0.023213,1.000000,0.000340,-0.000105,0.000576,0.015876,0.644244,0.192625,-0.739996
22630,NaN,-13.847617,-5.431062,2.607782,-1.648587,1.149939,5.154381,0.000240,0.012682,0.265579,0.975342,0.140625,-0.319092,-0.138402,-0.054494,0.026087,0.999999,0.000001,0.000063,0.001328,0.022108,0.644070,0.194713,-0.739440
22631,NaN,-13.316544,-5.399268,2.572346,-1.714312,1.292695,4.626468,0.011105,0.027409,0.401076,0.973145,0.142822,-0.319092,-0.133053,-0.054261,0.025739,0.999998,0.000056,0.000137,0.002005,0.023529,0.644562,0.193383,-0.739317
22632,NaN,-12.500661,-4.996862,2.588862,-1.803948,1.154170,3.728017,-0.068910,0.044080,0.485082,0.970947,0.140625,-0.319092,-0.124879,-0.050263,0.025933,0.999997,-0.000345,0.000220,0.002425,0.029136,0.644830,0.194040,-0.738711
22633,NaN,-11.569551,-4.354804,2.452511,-1.680127,0.851443,2.648672,-0.380073,0.081152,0.565354,0.967041,0.134277,-0.312744,-0.115562,-0.043828,0.024655,0.999994,-0.001900,0.000406,0.002827,0.032371,0.645620,0.193631,-0.737993
22634,NaN,-10.759645,-3.633872,2.495562,-1.701190,0.383585,1.683452,-0.820411,0.126353,0.642543,0.962646,0.136475,-0.306885,-0.107463,-0.036581,0.025173,0.999986,-0.004102,0.000632,0.003213,0.039554,0.646307,0.195748,-0.736481
22635,NaN,-10.226922,-2.862621,2.718707,-1.819929,-0.271688,0.994233,-1.392107,0.161042,0.711512,0.954102,0.140869,-0.300781,-0.102145,-0.028799,0.027469,0.999969,-0.006960,0.000805,0.003558,0.046515,0.647302,0.198601,-0.734435
22636,NaN,-10.250617,-2.175022,2.577163,-1.529822,-0.838100,0.836465,-1.891812,0.195399,0.756983,0.956299,0.140625,-0.300781,-0.102398,-0.021892,0.026078,0.999948,-0.009459,0.000977,0.003785,0.056568,0.648089,0.203680,-0.731639
22637,NaN,-10.888240,-1.439464,2.341324,-1.022944,-1.528274,1.265458,-2.284213,0.167499,0.734729,0.949707,0.145020,-0.296631,-0.108809,-0.014525,0.023670,0.999928,-0.011421,0.000837,0.003674,0.066483,0.648757,0.209688,-0.728509
22638,NaN,-12.095826,-0.783842,1.498219,0.119671,-1.973335,2.239674,-2.490104,0.147485,0.694824,0.951660,0.151367,-0.288574,-0.120919,-0.008070,0.015171,0.999916,-0.012450,0.000737,0.003474,0.077847,0.648940,0.216781,-0.725137
22639,NaN,-13.226703,-1.124804,0.808680,0.712567,-1.540225,3.377620,-2.509793,0.171179,0.635946,0.951416,0.157715,-0.280518,-0.132224,-0.011565,0.008344,0.999916,-0.012549,0.000856,0.003180,0.088104,0.649218,0.223865,-0.721552
22640,NaN,-13.449521,-2.046920,0.619263,0.445132,-0.638161,3.783520,-2.631460,0.161843,0.541938,0.951416,0.161865,-0.272461,-0.134434,-0.020749,0.006573,0.999909,-0.013157,0.000809,0.002710,0.099477,0.648947,0.232009,-0.717735
22641,NaN,-13.187465,-3.085663,0.813158,-0.325379,0.218449,3.749655,-2.736117,0.163797,0.406492,0.944580,0.172607,-0.270752,-0.131805,-0.031008,0.008663,0.999904,-0.013680,0.000819,0.002032,0.109614,0.648584,0.240568,-0.713758
22642,NaN,-13.289844,-3.870519,1.900778,-1.735383,0.302897,4.047654,-2.915709,0.117737,0.202186,0.939697,0.189453,-0.269043,-0.132848,-0.038556,0.019649,0.999893,-0.014578,0.000589,0.001011,0.120536,0.647348,0.250670,-0.709631
22643,NaN,-14.236732,-3.828017,2.997697,-2.608185,-0.555528,4.993094,-3.062524,0.046477,-0.021728,0.947998,0.197998,-0.250732,-0.142364,-0.037799,0.030591,0.999883,-0.015312,0.000232,-0.000109,0.130299,0.645564,0.261605,-0.705572
22644,NaN,-15.541791,-2.991230,3.997034,-2.863814,-2.136492,6.115354,-3.151139,-0.029591,-0.137106,0.938965,0.212891,-0.242676,-0.155444,-0.029171,0.040411,0.999876,-0.015755,-0.000148,-0.000686,0.140286,0.643001,0.273016,-0.701664
22645,NaN,-16.701221,-1.857779,5.112893,-2.967739,-4.035242,7.022696,-3.293182,-0.160369,-0.109089,0.940674,0.223389,-0.238770,-0.167063,-0.017643,0.051291,0.999864,-0.016465,-0.000802,-0.000545,0.150690,0.639892,0.284770,-0.697665
22646,NaN,-17.503816,-1.395376,5.421515,-2.741624,-4.853347,7.698710,-3.399717,-0.269058,-0.021927,0.944580,0.238281,-0.232910,-0.175113,-0.013013,0.054206,0.999855,-0.016998,-0.001345,-0.000110,0.161836,0.636131,0.296058,-0.693900
22647,NaN,-18.353920,-1.804802,4.485530,-2.038715,-4.219599,8.579723,-3.333067,-0.273495,0.074440,0.939941,0.250977,-0.220947,-0.183594,-0.017368,0.044897,0.999860,-0.016665,-0.001367,0.000372,0.173077,0.632507,0.307121,-0.689678
22648,NaN,-20.639631,-2.513791,2.720456,-0.777349,-2.948393,10.933804,-2.938450,-0.119799,0.334254,0.946045,0.257324,-0.218994,-0.206371,-0.025081,0.027450,0.999890,-0.014692,-0.000599,0.001671,0.183713,0.629792,0.315574,-0.685583
22649,NaN,-24.807864,-3.925493,-0.092740,0.878263,-0.619236,15.280926,-2.047788,-0.032583,0.812879,0.954346,0.261475,-0.212891,-0.247916,-0.040270,-0.000559,0.999939,-0.010239,-0.000163,0.004064,0.192988,0.629044,0.319985,-0.681666
22650,NaN,-29.700483,-5.703864,-4.107364,3.042876,2.928203,20.414342,-0.710305,0.078167,1.360999,0.960938,0.252930,-0.212646,-0.296623,-0.059203,-0.040750,0.999970,-0.003551,0.000391,0.006805,0.199968,0.630529,0.317877,-0.679265
22651,NaN,-34.128120,-5.935715,-3.499003,2.575712,2.506756,24.817402,0.092231,0.025751,2.086017,0.967773,0.236084,-0.202148,-0.340642,-0.062896,-0.034975,0.999945,0.000461,0.000129,0.010430,0.206710,0.633990,0.310996,-0.677207
22652,NaN,-35.349581,-3.395647,-4.417456,4.512215,1.834981,25.639006,-0.397212,-0.132057,2.832181,0.983398,0.212646,-0.207764,-0.352938,-0.039045,-0.044334,0.999898,-0.001986,-0.000660,0.014160,0.218184,0.637248,0.303226,-0.674065
22653,NaN,-33.298988,-0.598947,-5.261754,6.060398,1.461862,23.321221,-1.090607,-0.132874,3.800426,0.997559,0.174316,-0.205078,-0.332757,-0.012602,-0.052782,0.999804,-0.005453,-0.000664,0.019001,0.234626,0.641248,0.294589,-0.668558
22654,NaN,-32.184543,-1.573193,-5.008095,4.083856,3.139913,22.384263,-2.344325,-0.024510,4.679780,1.015625,0.142334,-0.200195,-0.321345,-0.023841,-0.049873,0.999658,-0.011720,-0.000123,0.023396,0.258872,0.644779,0.287978,-0.659025
22655,NaN,-31.694033,-6.858034,-5.176188,-0.875745,8.069020,22.002287,-3.400915,-0.054158,4.963931,1.029785,0.099854,-0.185059,-0.315080,-0.077284,-0.050582,0.999547,-0.017002,-0.000271,0.024816,0.286150,0.647054,0.282981,-0.647580
22656,NaN,-30.731949,-10.762270,-4.636366,-4.824340,11.583478,20.586014,-3.279944,-0.384513,4.732447,1.041260,0.070068,-0.188721,-0.304559,-0.115598,-0.045099,0.999584,-0.016397,-0.001922,0.023659,0.293087,0.655835,0.257804,-0.646157
22657,NaN,-27.531836,-8.568902,-4.485168,-4.341191,10.742517,16.966889,-2.213682,-0.852714,4.304899,1.049072,0.029541,-0.192139,-0.273190,-0.092083,-0.045024,0.999698,-0.011067,-0.004263,0.021522,0.315263,0.655187,0.249512,-0.639596
22658,NaN,-23.836752,-4.261316,-3.555421,-1.968729,7.783491,13.305424,-1.090281,-1.365139,3.809463,1.052246,-0.004395,-0.207764,-0.237247,-0.047338,-0.036927,0.999780,-0.005451,-0.006825,0.019046,0.318635,0.658769,0.224724,-0.643424
22659,NaN,-19.162096,-3.611832,-2.957864,-1.921034,7.110848,8.481674,-0.411467,-1.781827,3.112287,1.063721,-0.027588,-0.225830,-0.190754,-0.039154,-0.031202,0.999837,-0.002057,-0.008909,0.015561,0.331953,0.655772,0.212921,-0.643767
22660,NaN,-12.908653,-7.051058,-2.791907,-3.985579,8.944478,1.511536,0.670060,-2.045773,2.341979,1.062256,-0.048828,-0.243896,-0.127954,-0.071916,-0.029471,0.999874,0.003350,-0.010228,0.011709,0.337053,0.653405,0.198472,-0.648125
22661,NaN,-6.498342,-12.337420,-3.554215,-6.419754,12.326888,-6.086345,2.469044,-2.025628,1.574178,1.062988,-0.070068,-0.253662,-0.063637,-0.123422,-0.037715,0.999842,0.012345,-0.010128,0.007870,0.336045,0.652460,0.181883,-0.654437
22662,NaN,-0.540047,-16.437823,-2.184133,-9.142088,13.511177,-12.827254,4.326078,-1.994593,0.831984,1.063477,-0.086914,-0.275879,-0.004476,-0.163874,-0.025438,0.999708,0.021628,-0.009972,0.004160,0.322232,0.654611,0.159408,-0.665011
22663,NaN,6.689729,-18.421878,-0.380919,-10.596621,12.726937,-20.296518,6.251627,-1.786860,0.267704,1.062256,-0.110352,-0.287842,0.067208,-0.183902,-0.008962,0.999471,0.031253,-0.008933,0.001338,0.303917,0.658608,0.134785,-0.675057
22664,NaN,14.591886,-18.898381,2.338054,-11.497876,10.670064,-27.959009,9.259548,-1.477355,0.734663,1.059082,-0.148438,-0.285156,0.146479,-0.189292,0.015700,0.998894,0.046281,-0.007384,0.003672,0.269792,0.667996,0.094836,-0.687022
22665,NaN,15.268285,-11.502638,0.610228,-5.172702,5.831999,-27.274980,11.022006,-1.040007,0.605278,1.060547,-0.184570,-0.276123,0.153018,-0.114696,0.000569,0.998464,0.055082,-0.005197,0.003025,0.235155,0.678546,0.053425,-0.693846
22666,NaN,19.741058,0.390224,0.435621,0.057476,-5.512203,-28.777243,11.110701,-1.477979,0.217714,1.061523,-0.218750,-0.277588,0.197366,0.003813,0.006029,0.998429,0.055524,-0.007386,0.001088,0.189967,0.684966,0.007211,-0.703337
22667,NaN,20.728183,11.997350,2.903711,0.005715,-17.208758,-26.715246,8.878688,-1.720272,-1.044158,1.059570,-0.222900,-0.281738,0.207609,0.117392,0.036073,0.998964,0.044378,-0.008598,-0.005219,0.155764,0.686601,-0.022068,-0.709809
22668,NaN,12.580882,10.775164,2.440577,-1.091362,-13.697595,-19.375857,5.770421,-1.240002,-2.300576,1.067627,-0.212402,-0.275635,0.126864,0.105518,0.028256,0.999498,0.028847,-0.006199,-0.011501,0.121584,0.685647,-0.039574,-0.716617
22669,NaN,6.575170,4.190663,1.386579,-1.212324,-5.613096,-15.265146,4.615669,-0.915995,-2.752970,1.069336,-0.195312,-0.280029,0.066250,0.040658,0.015116,0.999628,0.023075,-0.004579,-0.013763,0.095673,0.685461,-0.047215,-0.720250
22670,NaN,3.247889,1.977347,1.357318,-1.445919,-2.581289,-12.559207,4.917831,-0.804545,-3.171822,1.072754,-0.174072,-0.282471,0.032727,0.018912,0.014177,0.999564,0.024586,-0.004022,-0.015857,0.062812,0.684347,-0.057632,-0.724156
22671,NaN,0.557466,2.704242,0.468171,-0.537518,-2.745827,-9.921795,4.960539,-0.838838,-3.587360,1.076172,-0.146484,-0.287109,0.006035,0.026809,0.005373,0.999523,0.024799,-0.004194,-0.017934,0.032582,0.683575,-0.063553,-0.726378
22672,NaN,-0.575729,4.247179,-1.399828,1.131596,-4.250396,-8.823945,4.186136,-0.788490,-3.805460,1.085938,-0.123047,-0.295654,-0.004891,0.042851,-0.013124,0.999592,0.020928,-0.003942,-0.019025,0.000457,0.681298,-0.068769,-0.728769
22673,NaN,-1.443861,5.262568,-1.507179,1.024150,-5.276441,-8.036472,2.982808,-0.574300,-3.797172,1.084473,-0.082764,-0.296387,-0.013392,0.053104,-0.014322,0.999704,0.014913,-0.002871,-0.018984,-0.023735,0.680316,-0.066684,-0.729493
22674,NaN,-2.224252,6.466743,-1.228504,0.456255,-6.490180,-7.375920,1.845886,-0.416593,-3.679082,1.089600,-0.046631,-0.301025,-0.021022,0.065172,-0.011730,0.999786,0.009229,-0.002083,-0.018394,-0.046182,0.678863,-0.063088,-0.730091
22675,NaN,-2.608335,7.370871,-0.894408,-0.096370,-7.415604,-7.180888,0.823668,-0.326117,-3.378040,1.088379,-0.010498,-0.303711,-0.024819,0.074171,-0.008680,0.999848,0.004118,-0.001631,-0.016889,-0.061405,0.678444,-0.054544,-0.730047
22676,NaN,-2.584046,7.873449,-0.560297,-0.586592,-7.931300,-7.419392,-0.208453,-0.297252,-2.912624,1.089600,0.019043,-0.304199,-0.024682,0.079094,-0.005723,0.999892,-0.001042,-0.001486,-0.014563,-0.072924,0.677572,-0.045480,-0.730417
22677,NaN,-2.280515,8.063188,-0.471802,-0.692911,-8.151387,-7.939461,-1.120053,-0.301530,-2.388858,1.086426,0.048828,-0.310791,-0.021833,0.080868,-0.005204,0.999912,-0.005600,-0.001508,-0.011944,-0.077916,0.677363,-0.033183,-0.730758
22678,NaN,-2.406182,7.475410,-0.711215,-0.266774,-7.662401,-7.971478,-1.943813,-0.311159,-1.861995,1.079102,0.076660,-0.319580,-0.023353,0.074900,-0.007876,0.999908,-0.009719,-0.001556,-0.009310,-0.078746,0.676812,-0.020888,-0.731634
22679,NaN,-3.036002,6.489787,-1.308078,0.661896,-6.858891,-7.454789,-2.655365,-0.276256,-1.463555,1.084473,0.104248,-0.315918,-0.029866,0.064936,-0.013984,0.999884,-0.013276,-0.001381,-0.007317,-0.075134,0.676921,-0.006111,-0.732185
22680,NaN,-3.933462,5.539041,-1.728164,1.432660,-6.063195,-6.599988,-3.268688,-0.210973,-1.118708,1.077393,0.123291,-0.314209,-0.039006,0.055316,-0.018227,0.999850,-0.016343,-0.001055,-0.005593,-0.067834,0.677007,0.008952,-0.732789
22681,NaN,-4.683821,4.536199,-2.145238,2.169711,-5.167083,-5.849343,-3.732853,-0.128838,-0.779202,1.083252,0.142334,-0.314453,-0.046648,0.045133,-0.022326,0.999818,-0.018663,-0.000644,-0.003896,-0.058036,0.677642,0.025308,-0.732661
22682,NaN,-4.835471,3.279649,-2.273963,2.536216,-3.879527,-5.590868,-4.019405,-0.033172,-0.462669,1.076172,0.163574,-0.308838,-0.048276,0.032442,-0.023402,0.999795,-0.020096,-0.000166,-0.002313,-0.044882,0.678266,0.041416,-0.732274
22683,NaN,-3.946265,1.901555,-1.996726,2.309972,-2.331361,-6.290803,-4.113135,0.047081,-0.197254,1.082031,0.180420,-0.294678,-0.039449,0.018639,-0.020344,0.999788,-0.020564,0.000235,-0.000986,-0.031656,0.679177,0.057124,-0.731063
22684,NaN,-2.537029,0.624322,-1.596094,1.814446,-0.825819,-7.489062,-3.947253,0.117249,0.048702,1.075439,0.184814,-0.288818,-0.025381,0.005921,-0.016065,0.999805,-0.019735,0.000586,0.000243,-0.016260,0.679907,0.071672,-0.729606
22685,NaN,-1.079189,-0.533801,-1.326106,1.348214,0.529352,-8.759110,-3.432159,0.173899,0.234601,1.081543,0.188965,-0.286621,-0.010797,-0.005577,-0.013157,0.999852,-0.017160,0.000869,0.001173,-0.003797,0.680804,0.083370,-0.727696
22686,NaN,0.095135,-1.775223,-0.770497,0.533448,1.860826,-9.731078,-2.724593,0.211709,0.348800,1.087891,0.195312,-0.276611,0.000974,-0.017853,-0.007463,0.999905,-0.013623,0.001059,0.001744,0.008599,0.681496,0.092595,-0.725889
22687,NaN,1.119052,-2.603009,-0.400202,-0.069627,2.742151,-10.627335,-1.954052,0.213171,0.417787,1.090088,0.193115,-0.274414,0.011241,-0.026044,-0.003760,0.999950,-0.009770,0.001066,0.002089,0.016675,0.682344,0.098268,-0.724204
22688,NaN,1.743415,-3.033390,-0.290131,-0.335638,3.205528,-11.204444,-1.009461,0.209279,0.467421,1.094238,0.193115,-0.272461,0.017502,-0.030307,-0.002767,0.999984,-0.005047,0.001046,0.002337,0.023243,0.683043,0.100731,-0.723025
22689,NaN,1.964060,-3.260536,-0.009584,-0.677076,3.393458,-11.398471,-0.056142,0.172989,0.439097,1.092529,0.180420,-0.274170,0.019712,-0.032562,-0.000104,0.999997,-0.000281,0.000865,0.002195,0.024935,0.683881,0.099454,-0.722353
22690,NaN,1.861712,-2.921441,0.097979,-0.710424,3.025695,-11.345921,0.726206,0.099636,0.341140,1.095215,0.163330,-0.275879,0.018667,-0.029186,0.000864,0.999992,0.003631,0.000498,0.001706,0.024578,0.684343,0.095802,-0.722422
22691,NaN,1.491146,-2.039690,0.300780,-0.715185,2.093488,-11.069697,1.339900,0.011917,0.220836,1.099609,0.161377,-0.278076,0.014934,-0.020400,0.002870,0.999977,0.006699,0.000060,0.001104,0.020785,0.684640,0.090205,-0.722979
22692,NaN,0.897590,-0.971617,0.360072,-0.552612,0.984648,-10.590133,1.779661,-0.071465,0.122721,1.100098,0.142090,-0.283691,0.008981,-0.009742,0.003517,0.999960,0.008898,-0.000357,0.000614,0.015627,0.684470,0.083233,-0.724106
22693,NaN,0.020350,-0.019121,0.177223,-0.179141,-0.002626,-9.822081,2.061397,-0.063025,0.006584,1.102783,0.127441,-0.285645,0.000203,-0.000209,0.001770,0.999947,0.010307,-0.000315,0.000033,0.008622,0.684369,0.075738,-0.725140
22694,NaN,-0.824572,0.620991,0.235862,-0.116069,-0.715662,-9.040988,2.204466,-0.048360,-0.092388,1.107422,0.114502,-0.295410,-0.008243,0.006187,0.002425,0.999939,0.011022,-0.000242,-0.000462,0.001069,0.684099,0.067872,-0.726224
22695,NaN,-1.572660,0.984600,0.493248,-0.306755,-1.165378,-8.318115,2.127246,-0.056211,-0.158143,1.112305,0.095459,-0.291016,-0.015720,0.009805,0.005033,0.999943,0.010636,-0.000281,-0.000791,-0.006762,0.683813,0.060684,-0.727098
22696,NaN,-2.970027,1.467055,0.936344,-0.643299,-1.800803,-6.950298,1.829703,-0.098431,-0.322269,1.106445,0.084961,-0.307373,-0.029681,0.014632,0.009483,0.999957,0.009148,-0.000492,-0.001611,-0.013809,0.683159,0.054964,-0.728067
22697,NaN,-5.253160,2.546734,1.229907,-0.749015,-3.116435,-4.780698,1.386160,-0.231979,-0.739233,1.112793,0.078613,-0.309082,-0.052452,0.025576,0.012415,0.999968,0.006931,-0.001160,-0.003696,-0.021170,0.681994,0.052457,-0.729167
22698,NaN,-8.230664,4.652165,1.707170,-0.944184,-5.577596,-2.047437,0.774802,-0.351118,-1.134960,1.117432,0.067871,-0.315186,-0.082071,0.046922,0.017109,0.999975,0.003874,-0.001756,-0.005675,-0.027385,0.680200,0.053360,-0.730569
22699,NaN,-11.889151,8.184264,2.530271,-1.368206,-9.619947,1.156328,-0.107873,-0.234719,-0.955289,1.109131,0.065674,-0.311035,-0.118528,0.082423,0.025119,0.999988,-0.000539,-0.001174,-0.004776,-0.030444,0.679093,0.057034,-0.731199
22700,NaN,-17.445222,10.239281,3.191173,-1.434153,-12.442460,6.388800,-1.061439,-0.082457,-0.439688,1.102783,0.063721,-0.317139,-0.174239,0.102943,0.031294,0.999983,-0.005307,-0.000412,-0.002198,-0.027361,0.678658,0.062357,-0.731291
22701,NaN,-24.920293,8.730493,1.524255,0.841845,-11.870495,13.808224,-2.119255,0.405504,-0.161387,1.096680,0.055176,-0.308838,-0.249102,0.087665,0.014820,0.999941,-0.010596,0.002027,-0.000807,-0.020885,0.680340,0.070594,-0.729189
22702,NaN,-38.214050,4.615290,0.805809,2.338406,-9.347465,27.462245,-2.786035,0.402553,0.104973,1.088135,0.057373,-0.302734,-0.382148,0.046066,0.008185,0.999901,-0.013930,0.002013,0.000525,-0.008931,0.681828,0.080685,-0.726994
22703,NaN,-32.422037,0.047709,-1.783800,4.173672,-3.809751,22.162820,-2.613267,-0.801281,-0.004011,1.075439,0.057373,-0.317139,-0.324145,0.000239,-0.019141,0.999907,-0.013066,-0.004006,-0.000020,0.000288,0.678966,0.090226,-0.728604
22704,NaN,-20.273172,-3.150290,-3.682579,4.884651,1.235253,10.413533,-2.234635,-0.959822,-0.173742,1.066895,0.063965,-0.319336,-0.202581,-0.031743,-0.037444,0.999926,-0.011173,-0.004799,-0.000869,0.010990,0.675060,0.099929,-0.730882
22705,NaN,-15.376650,-5.395967,-3.889882,4.369706,4.088159,5.836007,-1.848152,-0.603315,-0.422056,1.056152,0.068115,-0.319580,-0.153763,-0.053994,-0.038864,0.999951,-0.009241,-0.003017,-0.002110,0.015987,0.672509,0.108068,-0.731982
22706,NaN,-14.906501,-5.656722,-2.987188,3.332803,4.286601,5.472690,-1.527305,-0.272237,-0.491906,1.045166,0.078857,-0.325928,-0.149163,-0.056427,-0.029644,0.999967,-0.007636,-0.001361,-0.002460,0.023036,0.670867,0.116726,-0.731971
22707,NaN,-17.537405,-3.823048,-1.032212,1.992011,1.742487,7.970366,-1.449712,-0.013543,-0.310954,1.038574,0.083008,-0.325928,-0.175433,-0.038031,-0.010058,0.999973,-0.007248,-0.000068,-0.001555,0.026769,0.670450,0.123069,-0.731187
22708,NaN,-20.561004,-1.360652,0.669980,1.099959,-1.377469,10.728678,-1.628209,0.027363,-0.077018,1.032227,0.087402,-0.315918,-0.205614,-0.013472,0.006838,0.999967,-0.008141,0.000137,-0.000385,0.035365,0.670045,0.130868,-0.729838
22709,NaN,-20.518944,-0.149780,0.920698,1.122545,-2.610469,10.529941,-1.633126,-0.070905,0.099851,1.025635,0.089600,-0.320068,-0.205192,-0.001525,0.009147,0.999966,-0.008166,-0.000355,0.000499,0.041247,0.669539,0.136475,-0.728965
22710,NaN,-17.974673,-1.167466,0.511140,1.010607,-1.145851,8.142220,-1.294670,-0.095483,0.252966,1.019287,0.093750,-0.313965,-0.179734,-0.011869,0.005102,0.999978,-0.006473,-0.000477,0.001265,0.050159,0.668808,0.141998,-0.728022
22711,NaN,-15.130522,-3.460372,0.700683,-0.079832,1.361802,5.664287,-0.855903,-0.064386,0.333639,1.010742,0.091797,-0.312012,-0.151250,-0.034826,0.007107,0.999989,-0.004279,-0.000322,0.001668,0.054282,0.668588,0.143979,-0.727539
22712,NaN,-12.805413,-4.850182,0.997329,-0.780872,3.005074,3.561058,-0.560364,-0.014471,0.384097,1.008789,0.087402,-0.313965,-0.127961,-0.048719,0.010100,0.999994,-0.002802,-0.000072,0.001920,0.029018,0.674157,0.116851,-0.728709
22713,NaN,-11.281313,-4.528534,1.150073,-1.034429,2.879239,2.008395,-0.358882,0.023629,0.472960,1.008789,0.087402,-0.303711,-0.112704,-0.045531,0.011596,0.999996,-0.001794,0.000118,0.002365,0.031939,0.674463,0.116566,-0.728348
22714,NaN,-10.448640,-2.941879,1.551728,-1.215319,1.409947,0.993391,-0.222465,0.012008,0.590702,1.004883,0.078857,-0.307617,-0.104398,-0.029710,0.015556,0.999995,-0.001112,0.000060,0.002954,0.037558,0.674631,0.116641,-0.727913
22715,NaN,-10.230306,-0.840112,2.213823,-1.450329,-0.692247,0.564352,-0.248520,-0.031307,0.684061,1.000977,0.072510,-0.307617,-0.102277,-0.008723,0.022133,0.999993,-0.001243,-0.000157,0.003420,0.040905,0.674864,0.115230,-0.727741
22716,NaN,-10.347315,0.801610,2.065720,-0.947466,-2.183090,0.498117,-0.267023,-0.034613,0.754685,1.000977,0.072510,-0.309570,-0.103506,0.007653,0.020629,0.999992,-0.001335,-0.000173,0.003773,0.046889,0.674923,0.114632,-0.727420
22717,NaN,-10.885456,1.404273,1.601700,-0.332408,-2.630666,0.957598,-0.129592,0.041778,0.807418,0.999023,0.068359,-0.299316,-0.108907,0.013614,0.016031,0.999992,-0.000648,0.000209,0.004037,0.050240,0.675501,0.112386,-0.727010
22718,NaN,-11.638622,1.006939,0.533999,0.655233,-1.944684,1.700113,0.065308,0.105930,0.881328,0.995361,0.051270,-0.299072,-0.116426,0.009555,0.005405,0.999990,0.000327,0.000530,0.004407,0.055531,0.676173,0.110144,-0.726343
22719,NaN,-11.966859,-0.640312,-0.719463,1.481306,0.022698,2.101069,0.405883,0.151795,0.912268,0.984619,0.049316,-0.299072,-0.119643,-0.006934,-0.007118,0.999987,0.002029,0.000759,0.004561,0.057389,0.677331,0.105625,-0.725791
22720,NaN,-11.416622,-2.938781,-1.199641,1.340626,2.516934,1.688704,0.743787,0.160796,0.789410,0.989258,0.042969,-0.298828,-0.114059,-0.029793,-0.012015,0.999985,0.003719,0.000804,0.003947,0.060143,0.678351,0.101357,-0.725224
22721,NaN,-10.258792,-4.513951,-1.213995,0.913380,4.179589,0.617498,0.925420,0.169903,0.628586,0.985352,0.028076,-0.294678,-0.102456,-0.045405,-0.012263,0.999984,0.004627,0.000850,0.003143,0.059198,0.679552,0.095917,-0.724917
22722,NaN,-9.223076,-4.962003,-1.390480,0.907823,4.767144,-0.428124,1.126364,0.262078,0.513272,0.983398,0.025879,-0.292480,-0.092122,-0.049778,-0.014064,0.999980,0.005632,0.001310,0.002566,0.059219,0.680977,0.091155,-0.724192
22723,NaN,-8.667282,-4.176378,-0.695149,0.376206,3.908309,-1.001864,1.272068,0.375722,0.409023,0.979492,0.017334,-0.286133,-0.086600,-0.041896,-0.007055,0.999976,0.006360,0.001879,0.002045,0.056197,0.682884,0.085264,-0.723355
22724,NaN,-8.704089,-2.357540,0.279730,-0.229652,1.968369,-1.010979,1.076035,0.456222,0.335830,0.979736,0.008789,-0.275879,-0.086995,-0.023737,0.002868,0.999982,0.005380,0.002281,0.001679,0.055113,0.684958,0.081177,-0.721946
22725,NaN,-9.452580,-0.009606,1.322374,-0.798583,-0.531074,-0.316374,0.636925,0.489688,0.290543,0.977783,0.004639,-0.271729,-0.094493,-0.000276,0.013454,0.999991,0.003185,0.002448,0.001453,0.053783,0.687012,0.078015,-0.720441
22726,NaN,-10.769440,1.952601,2.727540,-1.799201,-2.735059,0.981524,0.066065,0.470697,0.203935,0.984131,0.004639,-0.273682,-0.107650,0.019407,0.027535,0.999997,0.000330,0.002353,0.001020,0.055433,0.688794,0.077892,-0.718626
22727,NaN,-12.008076,2.864938,3.754406,-2.622783,-3.860789,2.216966,-0.639671,0.411549,0.087424,0.981934,0.006836,-0.257324,-0.120016,0.028717,0.037699,0.999993,-0.003198,0.002058,0.000437,0.057791,0.690124,0.080001,-0.716930
22728,NaN,-13.186484,2.193922,4.362630,-3.312699,-3.387195,3.426716,-1.251974,0.371531,-0.013126,0.977539,0.013184,-0.259521,-0.131782,0.022221,0.043733,0.999979,-0.006260,0.001858,-0.000066,0.063263,0.690970,0.085184,-0.715053
22729,NaN,-14.518593,0.116220,3.805367,-3.171681,-1.356511,4.794955,-1.791895,0.370007,-0.175415,0.975098,0.023682,-0.253662,-0.145114,0.001632,0.038309,0.999958,-0.008959,0.001850,-0.000877,0.068668,0.691622,0.092308,-0.713038
22730,NaN,-16.752387,-1.860259,2.487188,-2.313780,0.700423,7.052750,-2.171773,0.425485,-0.313112,0.980957,0.036377,-0.251709,-0.167499,-0.018066,0.025426,0.999938,-0.010859,0.002127,-0.001566,0.076005,0.691988,0.101539,-0.710680
22731,NaN,-20.893409,-3.394543,0.726099,-0.983787,2.355878,11.212606,-2.245218,0.542521,-0.366369,0.976562,0.044922,-0.243652,-0.208974,-0.033474,0.008205,0.999932,-0.011226,0.002713,-0.001832,0.082193,0.692829,0.110981,-0.707754
22732,NaN,-27.939168,-4.666911,-0.678095,0.010966,3.582964,18.294111,-2.139706,0.658629,-0.297348,0.982422,0.053467,-0.231689,-0.279480,-0.046316,-0.005364,0.999936,-0.010698,0.003293,-0.001487,0.088894,0.693836,0.119866,-0.704501
22733,NaN,-35.465668,-6.215819,-2.871118,1.537822,5.279909,25.886648,-1.650116,0.607023,-0.094336,0.986572,0.059814,-0.229736,-0.354770,-0.062219,-0.027121,0.999961,-0.008250,0.003035,-0.000472,0.093921,0.695157,0.126269,-0.701421
22734,NaN,-36.451091,-8.190367,-3.634221,1.440933,7.327523,26.973183,-0.509295,0.339464,0.098073,0.999268,0.061768,-0.227539,-0.364531,-0.082174,-0.035514,0.999995,-0.002546,0.001697,0.000490,0.096096,0.696021,0.127788,-0.699993
22735,NaN,-31.972817,-8.485576,-2.029923,-0.353848,7.345970,22.502897,0.480429,0.247303,0.366972,1.003906,0.046875,-0.219238,-0.319597,-0.085394,-0.020109,0.999995,0.002402,0.001237,0.001835,0.095552,0.697348,0.124945,-0.699260
22736,NaN,-28.939750,-7.591075,-1.337471,-0.838763,6.542773,19.400439,1.345117,0.510436,0.797048,1.023193,0.040527,-0.216797,-0.289126,-0.076974,-0.013152,0.999966,0.006726,0.002552,0.003985,0.092838,0.700236,0.117360,-0.698053
22737,NaN,-28.962416,-6.727854,-0.706899,-1.329170,5.800573,19.327644,2.366542,0.792890,1.365895,1.028076,0.019043,-0.212402,-0.289183,-0.069174,-0.006733,0.999899,0.011832,0.003964,0.006829,0.088847,0.704832,0.104672,-0.695961
22738,NaN,-30.167010,-5.386822,-0.076598,-1.779916,4.737047,20.410368,2.926669,0.922622,1.972338,1.048096,-0.006348,-0.199707,-0.301121,-0.056834,-0.000193,0.999834,0.014633,0.004613,0.009861,0.083641,0.710278,0.087216,-0.693471
22739,NaN,-30.508167,-3.967482,0.310425,-2.102073,3.872866,20.635988,2.914186,0.822929,2.341273,1.063965,-0.038330,-0.190918,-0.304574,-0.043294,0.003745,0.999817,0.014570,0.004114,0.011706,0.081038,0.715241,0.069123,-0.690714
22740,NaN,-29.145256,-1.246080,0.546584,-1.964128,1.800127,19.241638,2.178205,0.522720,2.450207,1.077637,-0.068115,-0.182129,-0.291255,-0.016094,0.006065,0.999862,0.010891,0.002613,0.012250,0.079664,0.718635,0.051966,-0.688852
22741,NaN,-26.149046,3.199226,1.125482,-1.806220,-2.143751,16.405337,0.820540,0.237249,2.275814,1.086670,-0.081055,-0.179688,-0.261818,0.028967,0.011688,0.999926,0.004103,0.001186,0.011379,0.084488,0.720316,0.041051,-0.687256
22742,NaN,-23.011673,6.089419,1.884205,-1.990414,-4.808412,13.491171,-1.016923,-0.045620,1.889576,1.097168,-0.083252,-0.183838,-0.230683,0.058811,0.018487,0.999942,-0.005085,-0.000228,0.009448,0.092732,0.719961,0.036533,-0.686820
22743,NaN,-19.615445,4.528384,1.801038,-1.950526,-3.155898,10.055447,-2.166748,-0.400232,1.519784,1.105469,-0.078857,-0.187988,-0.196527,0.043980,0.017136,0.999910,-0.010833,-0.002001,0.007599,0.105817,0.717794,0.038312,-0.687100
22744,NaN,-14.984830,-0.359853,1.349559,-2.138999,1.519814,5.006480,-1.850800,-0.649966,1.291984,1.111816,-0.076904,-0.194092,-0.149864,-0.004445,0.013047,0.999931,-0.009254,-0.003250,0.006460,0.115438,0.714599,0.038584,-0.688864
22745,NaN,-9.576727,-3.689101,0.690706,-1.911101,4.482396,-0.754285,-0.575629,-0.725349,1.229623,1.118164,-0.074707,-0.202148,-0.095563,-0.037460,0.006668,0.999970,-0.002878,-0.003627,0.006148,0.121868,0.711984,0.035751,-0.690615
22746,NaN,-4.208957,-4.445482,0.882152,-1.960728,4.640398,-6.224218,0.942990,-0.784567,1.237658,1.116455,-0.085205,-0.208252,-0.041847,-0.044755,0.008446,0.999962,0.004715,-0.003923,0.006188,0.120916,0.709812,0.026277,-0.693438
22747,NaN,1.214451,-4.546565,1.017656,-1.837193,4.046519,-11.665051,2.309222,-1.047362,1.343444,1.112549,-0.095947,-0.216309,0.012398,-0.045497,0.009716,0.999897,0.011546,-0.005237,0.006717,0.117505,0.707679,0.012865,-0.696575
22748,NaN,6.638021,-4.026004,1.139708,-1.615457,2.715906,-16.994885,3.260892,-1.142743,1.823957,1.109131,-0.123535,-0.228027,0.066681,-0.039836,0.011126,0.999809,0.016303,-0.005713,0.009119,0.109845,0.705244,-0.007207,-0.700367
22749,NaN,11.302387,-2.705934,0.804708,-0.969692,0.553374,-21.408485,3.853501,-1.156604,2.273473,1.099365,-0.148926,-0.231689,0.113276,-0.025930,0.008195,0.999733,0.019266,-0.005783,0.011366,0.104149,0.703039,-0.029351,-0.702871
22750,NaN,14.201566,-0.968569,1.468489,-1.522373,-1.946764,-23.907581,4.273079,-1.488821,1.802343,1.095947,-0.167969,-0.243652,0.141984,-0.008732,0.015549,0.999703,0.021363,-0.007443,0.009011,0.092554,0.699026,-0.053121,-0.707089
22751,NaN,16.030744,1.550048,2.023842,-2.171342,-4.965615,-25.113097,3.953962,-1.508930,1.153066,1.092041,-0.182861,-0.245361,0.160056,0.016004,0.021760,0.999760,0.019768,-0.007544,0.005765,0.082390,0.695046,-0.071816,-0.710609
22752,NaN,15.411423,1.558579,1.717516,-2.162534,-4.870003,-24.458269,3.206628,-1.153799,0.539675,1.088135,-0.193359,-0.259521,0.153968,0.015714,0.018315,0.999851,0.016032,-0.005769,0.002698,0.070426,0.691288,-0.087116,-0.713843
22753,NaN,13.014834,0.356900,0.990155,-1.504625,-3.159084,-22.392362,2.675527,-0.890394,-0.350957,1.092285,-0.189209,-0.261719,0.130108,0.003203,0.010525,0.999899,0.013377,-0.004452,-0.001755,0.059532,0.689134,-0.095759,-0.715807
22754,NaN,9.670332,0.104649,-0.103064,-0.376378,-2.139077,-19.237011,2.487935,-0.736627,-1.291581,1.085693,-0.180664,-0.270020,0.096710,0.000432,-0.000667,0.999895,0.012439,-0.003683,-0.006458,0.044048,0.687036,-0.101911,-0.718092
22755,NaN,6.263326,0.716877,-1.035236,0.625395,-2.010283,-15.844381,2.434875,-0.619129,-2.054925,1.091064,-0.155029,-0.270508,0.062735,0.006648,-0.010075,0.999868,0.012174,-0.003096,-0.010274,0.027986,0.686305,-0.103718,-0.719337
22756,NaN,4.836035,1.266586,-1.237719,0.787785,-2.213088,-14.395690,2.303768,-0.560233,-2.554239,1.088135,-0.129639,-0.277100,0.048552,0.012187,-0.012099,0.999848,0.011518,-0.002801,-0.012771,0.008995,0.685133,-0.104641,-0.720807
22757,NaN,4.038408,2.010173,-0.969075,0.426784,-2.683215,-13.541684,1.919344,-0.471663,-2.927363,1.095703,-0.102051,-0.275391,0.040696,0.019599,-0.009405,0.999844,0.009596,-0.002358,-0.014636,-0.008377,0.684943,-0.101536,-0.721439
22758,NaN,2.464702,3.006611,-0.572303,-0.079356,-3.314574,-11.921688,1.442170,-0.398469,-3.138816,1.094727,-0.074463,-0.284180,0.025126,0.029714,-0.005458,0.999849,0.007210,-0.001992,-0.015693,-0.026066,0.684334,-0.097108,-0.722203
22759,NaN,0.804425,3.952576,-0.109876,-0.640387,-3.957675,-10.267799,1.076443,-0.433143,-3.257995,1.099854,-0.038330,-0.288818,0.008689,0.039393,-0.000868,0.999850,0.005382,-0.002166,-0.016289,-0.041719,0.684108,-0.089778,-0.722631
22760,NaN,-0.605068,4.689375,0.466265,-1.313270,-4.477595,-8.919298,0.789585,-0.542275,-3.315733,1.098877,-0.004395,-0.295654,-0.005285,0.046967,0.004833,0.999851,0.003948,-0.002711,-0.016578,-0.057486,0.682846,-0.082181,-0.723646
22761,NaN,-1.851712,5.422282,0.929076,-1.874523,-5.104087,-7.781728,0.519532,-0.739439,-3.347134,1.093262,0.031738,-0.304443,-0.017641,0.054499,0.009366,0.999850,0.002598,-0.003697,-0.016735,-0.071664,0.681292,-0.072410,-0.724887
22762,NaN,-2.656084,5.772369,1.053098,-2.051506,-5.489095,-7.140269,0.254238,-1.040219,-3.335718,1.087891,0.065918,-0.321289,-0.025648,0.058143,0.010470,0.999847,0.001271,-0.005201,-0.016678,-0.085491,0.678046,-0.062554,-0.727346
22763,NaN,-3.255126,5.956879,0.751475,-1.755803,-5.847912,-6.753225,-0.219538,-1.225895,-3.128385,1.086426,0.106201,-0.336426,-0.031659,0.060077,0.007253,0.999858,-0.001098,-0.006129,-0.015641,-0.096493,0.674562,-0.050619,-0.730132
22764,NaN,-4.009436,5.943600,0.295880,-1.214671,-6.087492,-6.213755,-0.991359,-1.235654,-2.763503,1.070557,0.138184,-0.347168,-0.039284,0.059995,0.002418,0.999873,-0.004957,-0.006178,-0.013817,-0.103684,0.670682,-0.038009,-0.733478
22765,NaN,-4.782059,5.709865,-0.572623,-0.160846,-6.225642,-5.688487,-1.810485,-1.239514,-2.478606,1.067383,0.170166,-0.355957,-0.047070,0.057628,-0.006540,0.999863,-0.009052,-0.006197,-0.012392,-0.106922,0.667453,-0.022412,-0.736595
22766,NaN,-5.138176,5.373280,-1.820334,1.304724,-6.254893,-5.598990,-2.622926,-1.148960,-2.242064,1.057861,0.204102,-0.366943,-0.050669,0.054056,-0.019203,0.999835,-0.013114,-0.005744,-0.011210,-0.106217,0.664355,-0.005450,-0.739811
22767,NaN,-5.510005,4.727686,-3.030696,2.814789,-5.906116,-5.443886,-3.291249,-0.887496,-1.889901,1.056885,0.233887,-0.367432,-0.054516,0.047284,-0.031328,0.999810,-0.016455,-0.004437,-0.009449,-0.102278,0.662744,0.013472,-0.741706
22768,NaN,-5.222659,3.654717,-3.383647,3.465491,-4.821636,-5.711326,-3.793077,-0.672363,-1.565152,1.051514,0.267822,-0.363770,-0.051826,0.036301,-0.034701,0.999784,-0.018964,-0.003362,-0.007825,-0.094477,0.661619,0.032596,-0.743150
22769,NaN,-4.593791,2.426654,-3.113053,3.396296,-3.418208,-6.143665,-4.330133,-0.366933,-1.077550,1.043945,0.297607,-0.350098,-0.045751,0.023831,-0.031734,0.999749,-0.021649,-0.001835,-0.005387,-0.084072,0.661958,0.052413,-0.742964
22770,NaN,-3.438672,1.454702,-2.488964,2.809280,-2.120482,-7.029533,-4.528299,-0.172738,-0.663643,1.047607,0.314697,-0.342285,-0.034318,0.014092,-0.025242,0.999738,-0.022640,-0.000864,-0.003318,-0.069964,0.662598,0.071379,-0.742276
22771,NaN,-2.128425,0.462936,-1.659755,1.893515,-0.820035,-8.012409,-4.440909,0.005150,-0.232090,1.047119,0.331543,-0.326172,-0.021280,0.004284,-0.016695,0.999753,-0.022203,0.000026,-0.001160,-0.056097,0.663923,0.088607,-0.740411
22772,NaN,-0.912361,-0.748375,-1.071512,1.122297,0.635619,-8.876318,-4.114824,0.136937,0.125789,1.053223,0.339844,-0.312012,-0.009126,-0.007708,-0.010552,0.999788,-0.020573,0.000685,0.000629,-0.040304,0.665215,0.103449,-0.738351
22773,NaN,0.046151,-1.994123,-0.453254,0.251769,2.003577,-9.487202,-3.572460,0.232978,0.420652,1.052979,0.344238,-0.301758,0.000499,-0.020017,-0.004176,0.999838,-0.017861,0.001165,0.002103,-0.026981,0.666903,0.115172,-0.735695
22774,NaN,0.646156,-3.149900,-0.141341,-0.342094,3.200253,-9.819170,-2.849749,0.246902,0.603547,1.065918,0.339844,-0.291504,0.006555,-0.031495,-0.000973,0.999893,-0.014248,0.001234,0.003018,-0.013855,0.668177,0.123686,-0.733519
22775,NaN,0.989834,-3.934977,0.010586,-0.724307,3.987835,-10.002285,-1.972585,0.233607,0.651073,1.068115,0.339844,-0.287354,0.010027,-0.039314,0.000482,0.999945,-0.009863,0.001168,0.003255,-0.005018,0.669535,0.128720,-0.731525
22776,NaN,0.732892,-4.234998,0.360454,-1.158036,4.153053,-9.698163,-1.110729,0.235745,0.674673,1.074707,0.329102,-0.291260,0.007476,-0.042304,0.003831,0.999978,-0.005554,0.001179,0.003373,0.002137,0.670569,0.130486,-0.730278
22777,NaN,0.205138,-3.962159,0.716163,-1.435365,3.722977,-9.235835,-0.366872,0.185194,0.671146,1.083984,0.310059,-0.286621,0.002191,-0.039601,0.007232,0.999992,-0.001834,0.000926,0.003356,0.005699,0.671672,0.129574,-0.729407
22778,NaN,-0.723115,-3.207792,1.062269,-1.553530,2.777478,-8.466078,0.233557,0.104746,0.649258,1.088623,0.297363,-0.286377,-0.007121,-0.032114,0.010589,0.999994,0.001168,0.000524,0.003246,0.007874,0.672230,0.126353,-0.729438
22779,NaN,-1.622778,-2.503528,1.296846,-1.561805,1.924913,-7.705965,0.666252,0.036421,0.577866,1.095459,0.278076,-0.288086,-0.016153,-0.025125,0.012888,0.999990,0.003331,0.000182,0.002889,0.007721,0.672745,0.121979,-0.729709
22780,NaN,-2.282169,-1.948714,1.304029,-1.394975,1.312609,-7.159899,1.015050,0.014210,0.473506,1.100342,0.263184,-0.302246,-0.022774,-0.019607,0.012943,0.999984,0.005075,0.000071,0.002368,0.006364,0.672876,0.116359,-0.730519
22781,NaN,-3.729152,-1.204311,1.655929,-1.467255,0.341835,-5.834087,1.287140,-0.039210,0.178410,1.107178,0.250488,-0.314209,-0.037284,-0.012183,0.016474,0.999979,0.006436,-0.000196,0.000892,0.002710,0.672861,0.111051,-0.731381
22782,NaN,-6.549379,0.316024,1.349337,-0.656732,-1.480101,-3.317077,1.361226,-0.031331,-0.301356,1.109863,0.233643,-0.318115,-0.065491,0.003167,0.013505,0.999976,0.006806,-0.000157,-0.001507,-0.002792,0.672339,0.106672,-0.732512
22783,NaN,-10.360252,2.567353,1.092496,0.250839,-4.230428,0.044278,1.302592,0.190366,-0.608471,1.105713,0.225098,-0.313721,-0.103513,0.025916,0.011192,0.999974,0.006513,0.000952,-0.003042,-0.009498,0.672674,0.103938,-0.732541
22784,NaN,-15.530237,4.831231,2.113925,-0.052529,-7.421362,4.813214,0.947646,0.459332,-0.422437,1.114990,0.203857,-0.319580,-0.155151,0.048538,0.021725,0.999984,0.004738,0.002297,-0.002112,-0.014139,0.673836,0.101490,-0.731741
22785,NaN,-22.342272,6.171164,1.072442,1.608251,-9.720562,11.195210,0.393742,0.725475,-0.121878,1.115479,0.188965,-0.313232,-0.223344,0.061825,0.011656,0.999991,0.001969,0.003627,-0.000609,-0.016277,0.676393,0.100405,-0.729484
22786,NaN,-37.607728,5.938944,1.020189,2.687091,-11.847548,26.285192,-0.099614,0.941975,0.318782,1.114258,0.165527,-0.308594,-0.376118,0.058796,0.011944,0.999988,-0.000498,0.004710,0.001594,-0.014337,0.679730,0.099390,-0.726556
22787,NaN,-35.549079,3.166371,0.214890,2.880090,-8.603422,24.705321,0.117904,-0.313163,0.366911,1.103760,0.157227,-0.314697,-0.355551,0.031010,0.001611,0.999997,0.000590,-0.001566,0.001835,-0.013246,0.678762,0.097734,-0.727705
22788,NaN,-20.810202,0.218442,-0.783514,2.521307,-3.177974,10.614423,0.339085,-0.800281,0.386618,1.091797,0.140137,-0.326660,-0.208072,0.001796,-0.008665,0.999989,0.001695,-0.004001,0.001933,-0.010947,0.675770,0.095248,-0.730851
22789,NaN,-16.365804,-2.583424,-1.501515,2.643978,0.374919,6.607922,0.305428,-0.404560,0.219625,1.085938,0.127441,-0.328613,-0.163599,-0.025991,-0.015386,0.999996,0.001527,-0.002023,0.001098,-0.010981,0.674375,0.093408,-0.732375
22790,NaN,-21.728712,-3.742083,-1.834837,3.360045,0.876836,12.037896,0.153519,0.075212,0.072032,1.077637,0.121094,-0.322266,-0.217281,-0.037485,-0.018295,1.000000,0.000768,0.000376,0.000360,-0.009498,0.674495,0.092715,-0.732373
22791,NaN,-32.368899,-2.244498,-1.129767,3.733527,-2.121241,22.368360,-0.040104,0.257856,0.238135,1.073486,0.116943,-0.320312,-0.323676,-0.022833,-0.010876,0.999998,-0.000201,0.001289,0.001191,-0.008607,0.675548,0.092043,-0.731498
22792,NaN,-32.193066,-0.754922,-0.304437,3.035376,-3.485397,22.057254,-0.058868,-0.081966,0.401553,1.067383,0.112793,-0.322266,-0.321913,-0.008196,-0.003174,0.999998,-0.000294,-0.000410,0.002008,-0.005023,0.675328,0.091159,-0.731845
22793,NaN,-23.309326,-0.926477,0.097445,1.873496,-2.082395,13.346429,-0.128693,-0.326214,0.482376,1.058594,0.116943,-0.320312,-0.233071,-0.009826,0.000600,0.999996,-0.000643,-0.001631,0.002412,-0.002672,0.674353,0.090006,-0.732899
22794,NaN,-17.268048,-1.870646,0.830740,0.527740,-0.331255,7.565043,-0.312833,-0.230401,0.663709,1.058838,0.112793,-0.318115,-0.172627,-0.019267,0.008138,0.999993,-0.001564,-0.001152,0.003319,0.002945,0.673740,0.089239,-0.733555
22795,NaN,-14.496380,-2.555603,1.778367,-0.749207,0.656405,4.980732,-0.522779,-0.082098,0.916718,1.052490,0.108398,-0.316162,-0.144852,-0.026174,0.017792,0.999986,-0.002614,-0.000410,0.004584,0.008109,0.673828,0.088062,-0.733577
22796,NaN,-13.638616,-2.596681,2.451169,-1.531662,0.847494,4.176487,-0.641396,0.006209,1.098299,1.050781,0.100098,-0.309814,-0.136240,-0.026636,0.024601,0.999980,-0.003207,0.000031,0.005491,0.016160,0.674225,0.086971,-0.733209
22797,NaN,-13.896101,-2.227593,2.570830,-1.618293,0.580293,4.389968,-0.636736,0.087165,1.178372,1.050781,0.102051,-0.299561,-0.138816,-0.023012,0.025841,0.999977,-0.003184,0.000436,0.005892,0.022592,0.674988,0.085334,-0.732529
22798,NaN,-14.287102,-1.750047,2.416357,-1.413039,0.278118,4.711307,-0.606020,0.090337,1.239838,1.044678,0.089355,-0.295410,-0.142748,-0.018312,0.024283,0.999976,-0.003030,0.000452,0.006199,0.030759,0.675665,0.083520,-0.731816
22799,NaN,-13.905041,-1.068565,2.241028,-1.211053,-0.173533,4.259089,-0.660722,0.034155,1.360462,1.045166,0.076660,-0.295166,-0.138970,-0.011557,0.022471,0.999971,-0.003304,0.000171,0.006802,0.037958,0.676235,0.081341,-0.731197
22800,NaN,-12.968558,-0.251130,2.125237,-1.074891,-0.710903,3.267822,-0.796394,0.000749,1.520665,1.047363,0.078857,-0.299316,-0.129662,-0.003413,0.021265,0.999963,-0.003982,0.000004,0.007603,0.047653,0.676554,0.079165,-0.730573
22801,NaN,-12.092553,0.350800,1.819821,-0.770698,-1.036756,2.352552,-0.982404,0.008312,1.647988,1.047607,0.065918,-0.292969,-0.120949,0.002601,0.018189,0.999954,-0.004912,0.000042,0.008240,0.056995,0.676970,0.077173,-0.729731
22802,NaN,-11.266367,0.325406,1.545716,-0.599207,-0.749674,1.523215,-1.186811,0.019561,1.671965,1.045654,0.061768,-0.290771,-0.112685,0.002404,0.015452,0.999947,-0.005934,0.000098,0.008360,0.068448,0.677159,0.075843,-0.728710
22803,NaN,-10.293899,-0.111916,1.271527,-0.525321,-0.105891,0.546105,-1.368999,0.030321,1.636518,1.043945,0.049072,-0.288574,-0.102924,-0.001874,0.012742,0.999943,-0.006845,0.000152,0.008182,0.079035,0.677381,0.075291,-0.727489
22804,NaN,-9.187244,-0.955895,1.159452,-0.718118,0.875551,-0.572563,-1.415222,0.029220,1.541847,1.046387,0.044678,-0.284424,-0.091794,-0.010184,0.011679,0.999945,-0.007076,0.000146,0.007709,0.090672,0.677296,0.075184,-0.726220
22805,NaN,-8.202517,-1.819272,1.133999,-1.009076,1.794768,-1.588539,-1.364193,0.041044,1.393998,1.048828,0.034180,-0.278076,-0.081894,-0.018686,0.011483,0.999952,-0.006821,0.000205,0.006970,0.100338,0.677317,0.075427,-0.724904
22806,NaN,-7.547897,-2.106637,1.312105,-1.346563,2.088546,-2.265873,-1.247027,0.039245,1.243643,1.042480,0.031982,-0.278076,-0.075344,-0.021453,0.013269,0.999961,-0.006235,0.000196,0.006218,0.110128,0.677087,0.075672,-0.723671
22807,NaN,-7.597687,-1.629821,1.748277,-1.681750,1.580221,-2.189575,-1.152633,-0.006606,1.120670,1.046875,0.027832,-0.280029,-0.075885,-0.016622,0.017575,0.999968,-0.005763,-0.000033,0.005603,0.118088,0.676828,0.076038,-0.722618
22808,NaN,-8.101500,-0.980725,1.833461,-1.586691,1.034460,-1.665929,-1.055253,-0.060730,0.998486,1.046875,0.029785,-0.275879,-0.080971,-0.010115,0.018363,0.999974,-0.005276,-0.000304,0.004992,0.126169,0.676139,0.076311,-0.721868
22809,NaN,-8.715075,-0.630829,1.590420,-1.239852,0.874607,-1.061835,-0.953673,-0.112436,0.876368,1.040771,0.023438,-0.271729,-0.087131,-0.006614,0.015886,0.999979,-0.004768,-0.000562,0.004382,0.132601,0.675450,0.076712,-0.721318
22810,NaN,-9.094099,-0.681569,1.165800,-0.840646,1.150355,-0.729960,-0.852679,-0.159444,0.786019,1.040771,0.017090,-0.277832,-0.090923,-0.007123,0.011615,0.999983,-0.004263,-0.000797,0.003930,0.139123,0.674374,0.076872,-0.721079
22811,NaN,-9.199203,-1.071873,0.824401,-0.639546,1.694133,-0.692685,-0.714029,-0.188515,0.738948,1.038818,0.017090,-0.273682,-0.091959,-0.011029,0.008196,0.999986,-0.003570,-0.000943,0.003695,0.144270,0.673470,0.076817,-0.720918
22812,NaN,-9.367715,-1.506092,0.663264,-0.622301,2.243948,-0.591006,-0.553363,-0.202577,0.717847,1.043213,0.010742,-0.275635,-0.093629,-0.015379,0.006580,0.999989,-0.002767,-0.001013,0.003589,0.149429,0.672384,0.076088,-0.720958
22813,NaN,-9.487445,-1.811152,0.559791,-0.623562,2.639119,-0.525538,-0.422648,-0.231876,0.665698,1.045410,0.010742,-0.275635,-0.094820,-0.018415,0.005527,0.999992,-0.002113,-0.001159,0.003328,0.153342,0.671478,0.075194,-0.721075
22814,NaN,-9.486949,-1.665934,0.387281,-0.415366,2.624412,-0.546235,-0.354548,-0.266698,0.605014,1.041260,0.004395,-0.273438,-0.094824,-0.016939,0.003776,0.999993,-0.001773,-0.001333,0.003025,0.157306,0.670254,0.074082,-0.721475
22815,NaN,-9.512063,-1.213874,0.125023,-0.017015,2.343019,-0.513324,-0.345803,-0.286850,0.553894,1.034912,0.004395,-0.279541,-0.095088,-0.012400,0.001135,0.999994,-0.001729,-0.001434,0.002769,0.160573,0.669146,0.073241,-0.721869
22816,NaN,-9.453886,-0.796631,0.121370,0.128911,2.006473,-0.540012,-0.404266,-0.293870,0.514275,1.041504,0.002197,-0.279541,-0.094520,-0.008207,0.001091,0.999994,-0.002021,-0.001469,0.002571,0.164266,0.667750,0.072607,-0.722395
22817,NaN,-9.418242,-0.560073,0.177199,0.160728,1.812831,-0.553316,-0.525116,-0.284339,0.478899,1.039307,0.002197,-0.279541,-0.094171,-0.005822,0.001653,0.999993,-0.002626,-0.001422,0.002394,0.167856,0.666459,0.072665,-0.722756
22818,NaN,-9.326644,-0.539990,0.343816,0.015642,1.778489,-0.634853,-0.673771,-0.279695,0.454985,1.037109,0.006592,-0.289795,-0.093259,-0.005601,0.003326,0.999991,-0.003369,-0.001398,0.002275,0.172144,0.664868,0.073232,-0.723156
22819,NaN,-9.367346,-0.730914,0.570285,-0.253202,1.929138,-0.602867,-0.770022,-0.284348,0.434682,1.037109,0.002441,-0.289795,-0.093665,-0.007491,0.005598,0.999989,-0.003850,-0.001422,0.002173,0.176383,0.663327,0.074320,-0.723439
22820,NaN,-9.430631,-1.126876,0.857121,-0.647956,2.250530,-0.568421,-0.784547,-0.306116,0.399751,1.032959,0.002441,-0.291748,-0.094297,-0.011424,0.008471,0.999989,-0.003923,-0.001531,0.001999,0.180768,0.661509,0.075466,-0.723902
22821,NaN,-9.436676,-1.593399,1.073945,-1.008806,2.639861,-0.606359,-0.722206,-0.353415,0.351304,1.037109,0.000244,-0.291748,-0.094357,-0.016061,0.010631,0.999990,-0.003611,-0.001767,0.001757,0.184565,0.659701,0.076592,-0.724475
22822,NaN,-9.301179,-1.935580,1.026749,-1.083368,2.981501,-0.798837,-0.627860,-0.406886,0.295162,1.033203,-0.003906,-0.302002,-0.093004,-0.019461,0.010139,0.999992,-0.003139,-0.002034,0.001476,0.187994,0.657601,0.077447,-0.725411
22823,NaN,-9.013372,-1.987540,0.857653,-0.946259,3.068608,-1.117005,-0.502934,-0.450130,0.244381,1.034912,0.002441,-0.302002,-0.090128,-0.019964,0.008424,0.999994,-0.002515,-0.002251,0.001222,0.190713,0.655584,0.078038,-0.726463
22824,NaN,-8.789981,-1.801395,0.663630,-0.684431,2.958714,-1.343529,-0.352855,-0.480293,0.210826,1.033203,-0.006104,-0.310059,-0.087896,-0.018095,0.006457,0.999995,-0.001764,-0.002401,0.001054,0.192861,0.653433,0.078136,-0.727822
22825,NaN,-8.505805,-1.550131,0.462462,-0.394869,2.779082,-1.622074,-0.197246,-0.484760,0.166752,1.026855,-0.006104,-0.312256,-0.085056,-0.015568,0.004434,0.999996,-0.000986,-0.002424,0.000834,0.194306,0.651539,0.077835,-0.729166
22826,NaN,-8.442918,-1.253076,0.195440,-0.005499,2.619522,-1.686853,-0.027680,-0.466333,0.122346,1.026611,0.000244,-0.318359,-0.084426,-0.012582,0.001759,0.999997,-0.000138,-0.002332,0.000612,0.194991,0.649721,0.077089,-0.730683
