// Start Time: Unknown
// Update Rate: 100.0Hz
// Filter Profile: human (46.1)
// Firmware Version: 4.4.0
PacketCounter,SampleTimeFine,Acc_X,Acc_Y,Acc_Z,FreeAcc_X,FreeAcc_Y,FreeAcc_Z,Gyr_X,Gyr_Y,Gyr_Z,Mag_X,Mag_Y,Mag_Z,VelInc_X,VelInc_Y,VelInc_Z,OriInc_q0,OriInc_q1,OriInc_q2,OriInc_q3,Quat_q0,Quat_q1,Quat_q2,Quat_q3
34484,NaN,-3.465667,5.260973,-0.300020,-0.000000,-0.000000,-3.506199,-1.719105,2.735282,4.411454,0.113037,-0.772705,0.322754,-0.035846,0.051802,-0.002963,0.999626,-0.008594,0.013675,0.022055,-0.423436,-0.039811,-0.722431,-0.545170
34485,NaN,-4.152309,4.238754,0.053466,0.000000,0.000000,-3.879216,-1.976580,2.548155,4.335638,0.077393,-0.782959,0.316650,-0.042421,0.041480,0.000658,0.999635,-0.009882,0.012739,0.021676,-0.454006,0.073015,-0.699372,-0.547199
34486,NaN,-5.123329,3.670797,0.398157,1.567710,-0.464074,-3.713210,-2.267743,2.265903,4.085591,0.043701,-0.789307,0.302246,-0.051923,0.035698,0.004159,0.999663,-0.011337,0.011328,0.020426,-0.410975,0.037936,-0.710382,-0.570104
34487,NaN,-6.393417,3.518563,0.167109,2.576934,-1.340836,-3.116436,-2.475787,1.846175,3.653459,0.010010,-0.797607,0.281982,-0.064546,0.034032,0.001839,0.999714,-0.012378,0.009230,0.018266,-0.393418,0.035299,-0.707608,-0.585890
34488,NaN,-8.073518,3.883674,-0.942309,3.178347,-2.968781,-1.924150,-2.565235,1.374771,3.146833,-0.012939,-0.803711,0.267578,-0.081396,0.037439,-0.009351,0.999770,-0.012825,0.006873,0.015733,-0.380134,0.034103,-0.703345,-0.599701
34489,NaN,-10.359648,3.889141,-2.598820,4.230178,-5.472770,-0.793537,-2.631408,1.029317,2.605786,-0.031738,-0.812012,0.245117,-0.104222,0.037195,-0.025950,0.999815,-0.013156,0.005146,0.013028,-0.368183,0.033021,-0.697726,-0.613620
34490,NaN,-13.277473,2.784087,-4.444560,6.160753,-8.483045,-0.124149,-2.726376,0.878551,1.829129,-0.044434,-0.812012,0.220459,-0.133213,0.026020,-0.044224,0.999856,-0.013631,0.004393,0.009145,-0.363412,0.042797,-0.693971,-0.620084
34491,NaN,-16.220812,1.581633,-6.032648,8.480220,-11.370645,0.226892,-3.067679,0.929944,0.886640,-0.050537,-0.820312,0.206299,-0.162552,0.014176,-0.059797,0.999862,-0.015338,0.004650,0.004433,-0.356729,0.048172,-0.686244,-0.632054
34492,NaN,-17.799584,0.739222,-7.651914,9.124044,-12.666246,1.686582,-3.276272,0.888703,0.145526,-0.054688,-0.826660,0.177734,-0.178339,0.006017,-0.075833,0.999856,-0.016381,0.004443,0.000728,-0.366965,0.091040,-0.691909,-0.615069
34493,NaN,-17.495548,-0.134870,-8.531608,9.283236,-13.530476,0.658461,-2.644603,0.626197,-0.355090,-0.048096,-0.831055,0.169678,-0.175225,-0.002161,-0.084743,0.999906,-0.013223,0.003131,-0.001775,-0.364652,0.099038,-0.684699,-0.623224
34494,NaN,-17.676590,-0.788858,-7.852762,9.051632,-11.029495,3.270390,-1.582440,0.546386,-0.908386,-0.039551,-0.831055,0.153320,-0.177015,-0.007703,-0.077983,0.999955,-0.007912,0.002732,-0.004542,-0.387748,0.174377,-0.706419,-0.565877
34495,NaN,-18.179596,-1.307186,-6.481516,10.183042,-9.868851,3.344893,-0.672884,0.517311,-1.574069,-0.020508,-0.831055,0.155518,-0.182059,-0.011857,-0.064303,0.999960,-0.003364,0.002587,-0.007870,-0.389772,0.182698,-0.704117,-0.564729
34496,NaN,-19.125364,-2.151065,-5.170888,9.586684,-5.895659,6.633101,0.069124,0.481015,-2.292796,-0.001465,-0.831055,0.157715,-0.191607,-0.019298,-0.051255,0.999931,0.000346,0.002405,-0.011464,-0.420287,0.273596,-0.720248,-0.479318
34497,NaN,-19.949139,-2.867120,-3.294694,10.857247,-4.184176,6.968976,0.537163,0.342594,-2.976440,0.034424,-0.831299,0.166016,-0.199944,-0.025610,-0.032676,0.999884,0.002686,0.001713,-0.014882,-0.426873,0.283975,-0.718101,-0.470605
34498,NaN,-19.953614,-2.656755,-1.514104,7.944745,0.608351,8.733566,0.790768,0.103484,-3.590982,0.061768,-0.824951,0.166016,-0.199977,-0.022920,-0.015133,0.999831,0.003954,0.000517,-0.017954,-0.465973,0.368165,-0.707510,-0.383085
34499,NaN,-19.367685,-1.700641,0.248829,6.946615,2.808228,8.127978,0.887679,-0.204457,-4.074152,0.097412,-0.816650,0.176270,-0.193972,-0.013067,0.002226,0.999782,0.004438,-0.001022,-0.020369,-0.476031,0.380036,-0.701080,-0.370746
34500,NaN,-18.263387,-0.187643,1.752731,2.668052,6.157981,7.262532,0.586182,-0.494667,-4.526356,0.137451,-0.810547,0.176270,-0.182657,0.002207,0.017078,0.999737,0.002931,-0.002473,-0.022630,-0.520344,0.438029,-0.666555,-0.305085
34501,NaN,-17.279435,2.069957,2.149494,-0.077497,7.463194,6.052830,-0.171222,-0.738634,-4.968608,0.179443,-0.800049,0.172363,-0.172287,0.025002,0.020838,0.999684,-0.000856,-0.003693,-0.024840,-0.529845,0.453767,-0.653281,-0.294251
34502,NaN,-16.888513,4.994768,0.202027,-5.851591,7.102036,5.202467,-0.670291,-0.892063,-5.298337,0.225586,-0.785400,0.166016,-0.167489,0.054402,0.001094,0.999634,-0.003351,-0.004460,-0.026488,-0.569337,0.482897,-0.612578,-0.259641
34503,NaN,-16.902602,8.077207,-1.191367,-10.056919,7.201739,4.303380,-0.660648,-1.012213,-5.380983,0.273926,-0.777100,0.156006,-0.166708,0.085237,-0.013038,0.999620,-0.003303,-0.005060,-0.026902,-0.577610,0.499759,-0.595616,-0.248693
34504,NaN,-16.766100,11.244754,-2.009799,-14.162817,7.289124,2.748104,-0.703501,-1.052988,-5.153720,0.309326,-0.760254,0.141357,-0.164581,0.116642,-0.021375,0.999648,-0.003517,-0.005264,-0.025766,-0.600784,0.505229,-0.570871,-0.240643
34505,NaN,-17.000942,15.080410,-2.942729,-18.610624,7.870823,0.990295,-0.464951,-0.892016,-4.707288,0.342529,-0.739014,0.141357,-0.166264,0.154677,-0.030531,0.999710,-0.002325,-0.004460,-0.023534,-0.607645,0.518841,-0.555576,-0.230014
34506,NaN,-18.138151,17.979370,-2.265434,-21.015839,9.286102,1.562289,0.407535,-0.678665,-4.113152,0.375977,-0.724365,0.145264,-0.177555,0.183518,-0.022890,0.999781,0.002038,-0.003393,-0.020564,-0.612876,0.505805,-0.555106,-0.245768
34507,NaN,-18.829765,19.291539,-1.614581,-22.454983,10.662919,0.738379,1.562021,-0.685262,-3.512825,0.400635,-0.701172,0.153076,-0.184816,0.196304,-0.015259,0.999809,0.007810,-0.003426,-0.017563,-0.622927,0.509830,-0.545936,-0.232355
34508,NaN,-18.956582,21.447313,-1.002221,-23.118361,11.551502,2.531411,2.801810,-0.831289,-2.744459,0.419189,-0.688477,0.169434,-0.186563,0.217166,-0.007772,0.999799,0.014008,-0.004156,-0.013721,-0.619484,0.475443,-0.565462,-0.265418
34509,NaN,-18.365921,23.391867,-0.566377,-24.518345,13.182917,0.665777,3.743611,-1.101764,-2.046267,0.437744,-0.671631,0.195801,-0.181234,0.235845,-0.002264,0.999757,0.018717,-0.005508,-0.010231,-0.634062,0.468056,-0.562016,-0.251051
34510,NaN,-15.889836,24.352868,-1.533185,-23.756071,11.996668,2.000807,4.037257,-1.349423,-1.541226,0.443848,-0.663330,0.218018,-0.156928,0.245001,-0.011459,0.999744,0.020185,-0.006747,-0.007705,-0.623601,0.416098,-0.592785,-0.294261
34511,NaN,-13.991438,25.067934,-3.047328,-24.721599,11.521882,-0.353314,3.637126,-1.420136,-1.112318,0.447510,-0.648438,0.234131,-0.138316,0.251962,-0.026885,0.999794,0.018184,-0.007100,-0.005561,-0.636885,0.405880,-0.591272,-0.282907
34512,NaN,-14.331990,25.061277,-4.039731,-23.349925,10.143123,4.388102,2.753606,-1.400749,-0.730025,0.455811,-0.640137,0.246338,-0.142131,0.251667,-0.037935,0.999874,0.013767,-0.007003,-0.003650,-0.613532,0.350118,-0.625019,-0.332185
34513,NaN,-14.322342,24.361572,-4.364195,-22.888719,9.880417,4.192263,1.845066,-1.598555,-0.312683,0.462158,-0.640137,0.250488,-0.142499,0.244235,-0.042532,0.999924,0.009225,-0.007993,-0.001563,-0.622230,0.342753,-0.622585,-0.328234
34514,NaN,-13.410508,22.662827,-4.378606,-19.144801,7.720243,7.113389,1.132043,-1.863239,0.282603,0.451172,-0.629395,0.250244,-0.134018,0.226687,-0.043752,0.999940,0.005660,-0.009316,0.001413,-0.589453,0.286088,-0.652578,-0.380580
34515,NaN,-12.503597,19.070680,-4.476086,-16.377844,5.675175,5.667060,0.720350,-2.099573,0.847086,0.455566,-0.637939,0.242188,-0.125368,0.190339,-0.045390,0.999929,0.003602,-0.010498,0.004235,-0.595680,0.277186,-0.648926,-0.383703
34516,NaN,-11.135393,15.146442,-4.498630,-11.271614,2.428187,5.701843,0.731122,-2.345183,1.227886,0.455811,-0.642090,0.240234,-0.111748,0.150945,-0.045743,0.999906,0.003655,-0.011726,0.006139,-0.561048,0.219359,-0.673029,-0.429113
34517,NaN,-9.595561,12.381202,-4.679111,-9.628137,0.905933,3.368319,1.004581,-2.577215,1.492889,0.445312,-0.644287,0.242432,-0.096269,0.123331,-0.047410,0.999877,0.005023,-0.012886,0.007464,-0.567550,0.205961,-0.669510,-0.432694
34518,NaN,-7.792461,10.515168,-4.960286,-7.457234,-0.633931,2.014511,1.394328,-2.804189,1.653157,0.441406,-0.652832,0.242432,-0.078093,0.104854,-0.049965,0.999843,0.006971,-0.014020,0.008265,-0.537550,0.150121,-0.688876,-0.462551
34519,NaN,-5.640673,8.976138,-5.280317,-7.372957,-1.125153,-0.612495,1.810634,-2.926422,1.675958,0.437256,-0.656982,0.246582,-0.056386,0.089767,-0.052816,0.999817,0.009053,-0.014631,0.008379,-0.545014,0.132687,-0.686330,-0.462931
34520,NaN,-3.346305,7.687331,-5.580827,-6.857104,-1.426271,-2.575047,2.161716,-2.983018,1.618825,0.428955,-0.659180,0.248535,-0.033258,0.077204,-0.055472,0.999798,0.010808,-0.014914,0.008094,-0.521184,0.080450,-0.704049,-0.475616
34521,NaN,-0.918570,6.779449,-5.956372,-7.645909,-1.111995,-5.060531,2.496666,-2.980318,1.546940,0.424561,-0.659180,0.252686,-0.008833,0.068463,-0.058845,0.999781,0.012482,-0.014901,0.007734,-0.528886,0.061395,-0.702688,-0.471953
34522,NaN,1.458189,6.023447,-6.135345,-8.133857,-0.327173,-6.685974,2.853182,-2.885885,1.469693,0.420410,-0.656982,0.264893,0.015009,0.061209,-0.060270,0.999767,0.014265,-0.014428,0.007348,-0.510182,0.011695,-0.720779,-0.469101
34523,NaN,3.489956,5.320331,-5.965917,-8.612518,0.659246,-8.605717,3.146022,-2.704907,1.452001,0.416260,-0.659180,0.277100,0.035303,0.054383,-0.058334,0.999758,0.015729,-0.013523,0.007259,-0.516584,-0.007909,-0.721169,-0.461513
34524,NaN,5.363327,4.900966,-5.637006,-8.936057,2.141379,-9.483775,3.348664,-2.491292,1.489802,0.416016,-0.656982,0.295654,0.053951,0.050338,-0.054864,0.999755,0.016742,-0.012455,0.007448,-0.499626,-0.055936,-0.739366,-0.447865
34525,NaN,7.448714,4.868864,-5.304792,-9.573366,3.822678,-10.837381,3.561333,-2.244182,1.623178,0.411865,-0.659180,0.313965,0.074666,0.050218,-0.051326,0.999746,0.017805,-0.011220,0.008115,-0.503164,-0.075843,-0.741093,-0.438014
34526,NaN,9.474279,5.028513,-4.205331,-9.497767,6.339000,-11.336374,3.685608,-1.945779,1.868869,0.405518,-0.657227,0.330322,0.094660,0.051922,-0.040185,0.999739,0.018426,-0.009728,0.009344,-0.484159,-0.122506,-0.757466,-0.420508
34527,NaN,11.065089,5.272326,-2.541025,-8.699477,8.663879,-12.247132,3.590338,-1.649572,2.033222,0.392822,-0.655029,0.346680,0.110304,0.054280,-0.023534,0.999753,0.017950,-0.008247,0.010165,-0.483813,-0.142335,-0.759589,-0.410719
34528,NaN,11.742689,5.722634,-0.455062,-7.051507,10.802203,-11.914725,3.241044,-1.369802,2.052251,0.388428,-0.650879,0.364990,0.116854,0.058482,-0.002808,0.999793,0.016204,-0.006849,0.010261,-0.460423,-0.181682,-0.770840,-0.401008
34529,NaN,11.745961,6.242560,1.492196,-5.111584,12.203289,-11.838212,2.714267,-1.147966,1.994911,0.377930,-0.652832,0.381348,0.116739,0.063376,0.016449,0.999842,0.013571,-0.005740,0.009974,-0.458309,-0.197892,-0.771705,-0.394034
34530,NaN,11.602320,6.533854,2.731763,-3.991386,12.935211,-11.040232,2.154984,-0.928252,2.043786,0.367432,-0.652832,0.395508,0.115219,0.066215,0.028564,0.999879,0.010774,-0.004641,0.010219,-0.430007,-0.222994,-0.776466,-0.403073
34531,NaN,11.359586,6.237646,3.468953,-2.970080,13.006378,-11.222158,1.613506,-0.710224,2.228205,0.354736,-0.655029,0.397461,0.112768,0.063351,0.035599,0.999899,0.008067,-0.003551,0.011141,-0.426431,-0.236522,-0.775628,-0.400768
34532,NaN,11.325219,5.751877,3.570048,-3.358502,12.735371,-10.595441,1.120502,-0.515031,2.438265,0.342041,-0.659180,0.403564,0.112448,0.058691,0.036317,0.999907,0.005602,-0.002575,0.012191,-0.391872,-0.247761,-0.774738,-0.429921
34533,NaN,11.090140,5.229547,3.246769,-3.333758,12.211871,-10.605908,0.785194,-0.324829,2.584312,0.327637,-0.669678,0.411865,0.110161,0.053594,0.032856,0.999907,0.003926,-0.001624,0.012921,-0.386566,-0.259986,-0.772516,-0.431501
34534,NaN,10.756843,4.479112,2.702221,-4.360031,11.138078,-9.814254,0.547168,-0.124504,2.655485,0.311035,-0.676025,0.418213,0.106945,0.046140,0.027214,0.999908,0.002736,-0.000622,0.013277,-0.345900,-0.260284,-0.767917,-0.472132
34535,NaN,10.235717,3.698187,2.143368,-4.422738,10.171503,-9.931199,0.329811,0.095033,2.612911,0.300781,-0.686768,0.424316,0.101873,0.038280,0.021448,0.999913,0.001649,0.000475,0.013064,-0.338907,-0.270640,-0.765393,-0.475468
34536,NaN,9.508779,3.504209,1.064979,-5.483452,8.501903,-8.598300,0.104598,0.295865,2.477268,0.281738,-0.688721,0.426514,0.094660,0.036211,0.010528,0.999922,0.000523,0.001479,0.012386,-0.294471,-0.262817,-0.758485,-0.518569
34537,NaN,8.695851,4.431373,-0.290399,-5.753641,7.354544,-6.959455,-0.047335,0.548975,2.337568,0.256592,-0.697021,0.428467,0.086424,0.045325,-0.003152,0.999928,-0.000237,0.002745,0.011688,-0.286369,-0.270171,-0.756044,-0.522875
34538,NaN,8.002015,6.150124,-1.348693,-6.196639,5.804529,-4.193179,-0.250974,0.863872,2.351637,0.239746,-0.699219,0.428467,0.079230,0.062419,-0.013908,0.999921,-0.001255,0.004319,0.011758,-0.240778,-0.259284,-0.747839,-0.561725
34539,NaN,7.105529,7.818436,-2.199022,-5.793744,4.838342,-2.101150,-0.563548,1.221928,2.402947,0.218994,-0.709717,0.426514,0.069973,0.078966,-0.022642,0.999905,-0.002818,0.006109,0.012014,-0.230167,-0.264134,-0.744541,-0.568256
34540,NaN,5.771491,9.104951,-2.967374,-5.059935,2.619898,-0.192935,-0.953491,1.537224,2.344563,0.197998,-0.715820,0.424561,0.056411,0.091572,-0.030546,0.999890,-0.004767,0.007686,0.011722,-0.187555,-0.253775,-0.734712,-0.600517
34541,NaN,4.110320,10.816574,-4.162899,-4.048479,0.634919,1.781204,-1.267613,1.725117,2.093949,0.175049,-0.724365,0.414307,0.039605,0.108317,-0.042661,0.999888,-0.006338,0.008625,0.010469,-0.176517,-0.255071,-0.729784,-0.609259
34542,NaN,2.271965,13.838855,-5.976083,-2.663571,-2.519179,4.983644,-1.396126,1.909248,1.941939,0.156250,-0.734863,0.412354,0.020799,0.138174,-0.060931,0.999883,-0.006980,0.009546,0.009709,-0.142795,-0.247368,-0.720089,-0.632369
34543,NaN,1.236165,19.248092,-9.229919,-2.262950,-5.861283,10.624960,-1.195634,2.124214,2.072360,0.128662,-0.734619,0.412109,0.009381,0.192032,-0.093558,0.999872,-0.005978,0.010621,0.010361,-0.130054,-0.247228,-0.715170,-0.640700
34544,NaN,0.712469,25.452976,-12.821314,-1.383957,-9.901716,16.883675,-0.724193,2.631528,2.728610,0.095215,-0.747314,0.414307,0.001960,0.254113,-0.129182,0.999814,-0.003621,0.013157,0.013642,-0.100704,-0.247596,-0.708794,-0.652814
34545,NaN,-0.055648,29.416452,-14.996784,0.136729,-12.797289,20.621849,-0.203109,3.175064,3.426897,0.059570,-0.751465,0.418457,-0.007977,0.293918,-0.150179,0.999727,-0.001015,0.015874,0.017133,-0.078491,-0.249208,-0.705293,-0.659011
34546,NaN,0.502321,29.589629,-15.702355,1.029786,-13.814041,20.687093,-0.015404,3.595070,3.798617,0.012939,-0.755371,0.418213,-0.003420,0.295873,-0.157035,0.999658,-0.000077,0.017973,0.018991,-0.052237,-0.258967,-0.702047,-0.661315
34547,NaN,-0.423803,28.681304,-15.747292,2.978937,-15.059000,19.081384,-0.513408,4.088036,3.877329,-0.027100,-0.759521,0.420166,-0.013017,0.286212,-0.158002,0.999600,-0.002567,0.020437,0.019384,-0.025713,-0.258824,-0.696116,-0.669158
34548,NaN,-3.229907,30.221197,-14.055451,7.912111,-15.259873,18.919891,-1.224194,4.322799,3.952056,-0.077881,-0.761475,0.409668,-0.041303,0.300590,-0.141570,0.999552,-0.006120,0.021611,0.019757,-0.006268,-0.272523,-0.689081,-0.671460
34549,NaN,-6.267033,32.243007,-13.257727,12.834994,-16.766562,18.620902,-2.069394,4.270050,4.071642,-0.126221,-0.769531,0.389160,-0.072054,0.319642,-0.134423,0.999511,-0.010345,0.021347,0.020355,0.019294,-0.272019,-0.676384,-0.684206
34550,NaN,-7.911740,29.791053,-13.824298,13.847271,-18.591675,14.752991,-2.677145,4.272127,4.224881,-0.179199,-0.769287,0.366455,-0.088343,0.294239,-0.140377,0.999459,-0.013383,0.021357,0.021121,0.032255,-0.287880,-0.663317,-0.689997
34551,NaN,-8.031024,24.052531,-13.930266,12.479533,-18.909777,8.172867,-2.659248,4.371200,4.309964,-0.221680,-0.767090,0.343750,-0.088505,0.236813,-0.140593,0.999441,-0.013294,0.021852,0.021546,0.057773,-0.287362,-0.646865,-0.704025
34552,NaN,-8.217626,18.079341,-13.202756,10.397596,-17.958983,1.929568,-2.087099,4.402063,4.346269,-0.270508,-0.764648,0.321045,-0.088964,0.177531,-0.131983,0.999467,-0.010434,0.022006,0.021727,0.067840,-0.303638,-0.634810,-0.707261
34553,NaN,-7.724674,13.253100,-11.435128,9.021716,-15.444578,-3.027613,-1.271018,4.378413,4.196318,-0.308838,-0.755859,0.308350,-0.082484,0.130114,-0.113416,0.999520,-0.006354,0.021889,0.020978,0.094612,-0.301760,-0.622156,-0.716179
34554,NaN,-7.330628,9.895534,-9.382548,7.685306,-12.898415,-6.045708,-0.649702,4.405726,3.894342,-0.351562,-0.747070,0.293701,-0.077257,0.097175,-0.092470,0.999563,-0.003248,0.022025,0.019469,0.102683,-0.316391,-0.614723,-0.715170
34555,NaN,-7.533648,7.902903,-7.910721,7.736089,-10.946457,-8.373206,-0.241734,4.438790,3.443482,-0.394043,-0.738525,0.275146,-0.078413,0.077602,-0.077484,0.999605,-0.001209,0.022191,0.017215,0.128214,-0.311103,-0.605890,-0.720884
34556,NaN,-8.131550,6.731410,-6.915924,7.806666,-9.913482,-9.890786,0.092139,4.424221,2.930176,-0.421875,-0.729736,0.264648,-0.083793,0.066130,-0.067293,0.999648,0.000461,0.022119,0.014649,0.134339,-0.320812,-0.601398,-0.719272
34557,NaN,-8.782498,5.881147,-6.363144,8.316954,-8.981189,-11.344006,0.325626,4.384499,2.402422,-0.447998,-0.710449,0.255859,-0.089889,0.057841,-0.061581,0.999686,0.001628,0.021920,0.012011,0.156642,-0.311950,-0.595582,-0.723486
34558,NaN,-9.498830,4.921244,-5.786169,8.414410,-8.308618,-12.652294,0.504866,4.309151,1.892978,-0.469238,-0.708252,0.247559,-0.096665,0.048445,-0.055668,0.999720,0.002524,0.021544,0.009464,0.160852,-0.316383,-0.593494,-0.722352
34559,NaN,-10.202767,3.526947,-5.137139,8.533954,-7.034299,-14.350573,0.681725,4.210392,1.362608,-0.484375,-0.701904,0.233154,-0.103315,0.034738,-0.049086,0.999749,0.003408,0.021050,0.006812,0.179305,-0.304594,-0.590266,-0.725712
34560,NaN,-11.147401,1.823008,-3.857127,8.513001,-5.454764,-16.154512,0.803487,4.060532,0.822666,-0.505859,-0.693115,0.224609,-0.112300,0.017918,-0.036224,0.999777,0.004017,0.020301,0.004113,0.181377,-0.303986,-0.590692,-0.725105
34561,NaN,-12.114362,-0.037927,-2.510812,8.568238,-3.359348,-18.079763,0.869322,3.853145,0.290271,-0.514160,-0.695312,0.214355,-0.121597,-0.000453,-0.022770,0.999804,0.004346,0.019264,0.001451,0.195096,-0.290027,-0.589792,-0.727988
34562,NaN,-12.880597,-1.997707,-1.462449,8.228643,-1.876888,-19.852075,0.992415,3.590196,-0.261920,-0.516357,-0.693115,0.206299,-0.129068,-0.019743,-0.012407,0.999826,0.004962,0.017950,-0.001310,0.194962,-0.284469,-0.592667,-0.727883
34563,NaN,-13.178549,-3.703435,-0.540230,7.731104,-0.232618,-21.119479,1.127381,3.269058,-0.796931,-0.520752,-0.690918,0.202148,-0.131999,-0.036486,-0.003453,0.999843,0.005637,0.016344,-0.003984,0.203322,-0.269067,-0.594623,-0.729854
34564,NaN,-12.890745,-4.968763,0.920070,7.160340,1.530379,-21.563567,1.098406,2.906590,-1.308272,-0.514160,-0.697266,0.198242,-0.129080,-0.048900,0.010806,0.999858,0.005492,0.014532,-0.006541,0.200801,-0.259056,-0.599659,-0.730054
34565,NaN,-12.322996,-5.874051,1.987201,6.500690,3.020629,-21.598975,0.611771,2.513472,-1.749333,-0.503418,-0.699463,0.194092,-0.123477,-0.057725,0.021245,0.999878,0.003059,0.012567,-0.008746,0.202720,-0.243992,-0.601561,-0.733142
34566,NaN,-11.766787,-5.913798,2.149907,6.323586,3.268909,-21.098481,0.218428,2.050919,-2.089736,-0.494629,-0.710205,0.182129,-0.118049,-0.057930,0.022645,0.999892,0.001092,0.010254,-0.010448,0.197093,-0.231667,-0.604656,-0.736122
34567,NaN,-11.048636,-5.631823,2.391273,6.158034,3.586713,-20.239276,0.068475,1.450034,-2.341908,-0.479248,-0.725098,0.182373,-0.110959,-0.055029,0.024697,0.999905,0.000342,0.007250,-0.011709,0.192919,-0.219161,-0.606134,-0.739833
34568,NaN,-10.316128,-5.278309,2.247532,6.025995,3.430833,-19.364757,-0.333124,1.024411,-2.684207,-0.464355,-0.733643,0.170410,-0.103740,-0.051355,0.023092,0.999895,-0.001666,0.005122,-0.013421,0.184207,-0.205965,-0.608108,-0.744211
34569,NaN,-9.789713,-4.374590,2.047327,6.301315,3.098289,-18.170406,-0.724843,0.596652,-2.972597,-0.440674,-0.744385,0.158447,-0.098470,-0.042210,0.020921,0.999879,-0.003624,0.002983,-0.014862,0.174192,-0.195350,-0.607849,-0.749677
34570,NaN,-9.301759,-3.351991,1.850144,6.655543,2.747189,-16.836108,-1.198747,0.226948,-3.226255,-0.414795,-0.754883,0.152588,-0.093520,-0.031902,0.018802,0.999851,-0.005993,0.001135,-0.016130,0.162217,-0.181732,-0.606922,-0.756508
34571,NaN,-8.587982,-2.802970,1.258875,6.478280,2.022263,-15.905944,-1.705643,-0.041173,-3.459881,-0.390869,-0.771973,0.138672,-0.086349,-0.026430,0.012801,0.999814,-0.008528,-0.000206,-0.017298,0.147427,-0.172740,-0.603535,-0.764312
34572,NaN,-7.834550,-2.885500,0.971815,5.992608,1.795553,-15.425732,-2.114976,-0.214361,-3.675882,-0.360840,-0.786865,0.116455,-0.078867,-0.027304,0.009928,0.999775,-0.010574,-0.001072,-0.018378,0.132950,-0.158470,-0.598769,-0.773749
34573,NaN,-7.092734,-3.421183,0.870197,5.329252,1.792259,-15.393584,-2.291558,-0.348960,-3.894523,-0.330811,-0.797607,0.106689,-0.071590,-0.032720,0.008958,0.999743,-0.011457,-0.001745,-0.019471,0.114991,-0.149644,-0.593068,-0.782723
34574,NaN,-6.783652,-3.804546,1.210035,5.199420,2.274834,-15.265913,-2.167715,-0.430438,-4.113781,-0.296631,-0.806396,0.086426,-0.068624,-0.036506,0.012354,0.999727,-0.010838,-0.002152,-0.020567,0.098917,-0.134102,-0.587329,-0.792008
34575,NaN,-6.804928,-3.602235,1.986026,5.615935,2.903012,-14.634501,-1.697261,-0.560645,-4.330267,-0.264648,-0.812744,0.082520,-0.068861,-0.034368,0.019964,0.999726,-0.008486,-0.002803,-0.021649,0.078959,-0.124409,-0.583628,-0.798540
34576,NaN,-7.092884,-2.279067,2.917405,6.558712,3.373084,-12.912345,-1.077144,-0.817713,-4.598031,-0.219727,-0.825684,0.072754,-0.071544,-0.020994,0.028999,0.999713,-0.005385,-0.004088,-0.022988,0.061358,-0.107690,-0.581282,-0.804208
34577,NaN,-8.527224,1.614347,2.092759,8.851172,1.135801,-9.589602,-0.399658,-1.021456,-4.916444,-0.179688,-0.825928,0.077148,-0.084946,0.018276,0.020458,0.999683,-0.001998,-0.005107,-0.024580,0.038388,-0.097598,-0.582451,-0.806072
34578,NaN,-11.812115,9.880593,0.620125,13.163986,-3.120524,-2.432787,1.066781,-1.638262,-4.844958,-0.139160,-0.834473,0.089600,-0.115731,0.101597,0.005784,0.999659,0.005333,-0.008190,-0.024222,0.019160,-0.081997,-0.587504,-0.804828
34579,NaN,-17.034143,24.181905,-0.068464,19.420171,-8.582024,10.778644,3.150785,-2.793141,-4.169567,-0.103027,-0.834717,0.126709,-0.165256,0.245295,0.000830,0.999561,0.015752,-0.013964,-0.020845,-0.004537,-0.080652,-0.601900,-0.794475
34580,NaN,-19.732426,37.219126,-0.899725,21.982560,-12.571805,23.860061,4.324290,-3.389415,-3.841450,-0.073486,-0.833008,0.163574,-0.190028,0.376013,-0.004156,0.999438,0.021617,-0.016944,-0.019204,-0.024852,-0.074737,-0.618749,-0.781631
34581,NaN,-16.349992,42.997451,-0.918809,17.638108,-12.427534,30.820232,3.927958,-2.966741,-3.650798,-0.042236,-0.818359,0.192139,-0.155538,0.432963,-0.003050,0.999531,0.019637,-0.014831,-0.018251,-0.046815,-0.075490,-0.634802,-0.767552
34582,NaN,-15.128673,44.145932,-1.004075,15.072957,-11.111941,32.940328,3.902322,-2.798092,-2.465237,-0.021240,-0.810059,0.226807,-0.145750,0.443389,-0.003466,0.999636,0.019509,-0.013989,-0.012325,-0.062748,-0.072669,-0.649251,-0.754490
34583,NaN,-15.448215,45.855937,-2.376260,14.637362,-11.354893,34.949945,4.085591,-3.034647,-0.724995,-0.021484,-0.799561,0.259277,-0.152528,0.459504,-0.016706,0.999670,0.020426,-0.015172,-0.003625,-0.073828,-0.083020,-0.663759,-0.739650
34584,NaN,-15.756652,38.611583,-3.702506,14.512471,-10.586888,28.003153,4.175505,-3.247781,0.724962,-0.017822,-0.786865,0.295898,-0.158425,0.386239,-0.031530,0.999644,0.020875,-0.016237,0.003624,-0.081328,-0.093876,-0.677726,-0.724749
34585,NaN,-13.618346,30.659066,-4.593155,12.597559,-9.580206,20.120708,3.874357,-3.704018,1.608388,-0.022461,-0.770020,0.326172,-0.137839,0.306333,-0.042538,0.999609,0.019369,-0.018518,0.008041,-0.086201,-0.114285,-0.689238,-0.710254
34586,NaN,-8.252806,26.647488,-5.832068,7.199166,-8.547194,16.403729,3.090289,-3.893255,1.887824,-0.027100,-0.757324,0.352539,-0.083941,0.266562,-0.055827,0.999647,0.015450,-0.019464,0.009438,-0.093778,-0.132028,-0.697984,-0.697562
34587,NaN,-4.938073,22.300709,-6.497380,3.987907,-7.787487,12.263555,2.255048,-3.655298,2.108906,-0.035889,-0.750977,0.373047,-0.050566,0.223199,-0.063375,0.999714,0.011274,-0.018275,0.010544,-0.097664,-0.153155,-0.702543,-0.688069
34588,NaN,-4.161375,18.080800,-6.147630,3.164296,-6.985128,8.165530,1.613244,-3.493086,2.209982,-0.046875,-0.736084,0.393066,-0.042547,0.180833,-0.060755,0.999754,0.008066,-0.017464,0.011049,-0.105057,-0.171615,-0.705616,-0.679425
34589,NaN,-3.832313,14.521849,-5.413237,2.964605,-6.211754,4.592092,1.238051,-3.386039,2.083519,-0.045166,-0.727539,0.403076,-0.038922,0.145149,-0.053889,0.999783,0.006190,-0.016929,0.010417,-0.108840,-0.191080,-0.706102,-0.673099
34590,NaN,-3.978102,10.808600,-4.862067,2.842288,-5.819837,0.880368,1.040045,-3.343719,1.944511,-0.055908,-0.723389,0.411133,-0.040017,0.107951,-0.048727,0.999799,0.005200,-0.016717,0.009722,-0.117849,-0.209119,-0.706900,-0.665337
34591,NaN,-2.865156,7.829790,-4.589241,1.569233,-5.171771,-1.979035,1.156956,-3.388991,1.697146,-0.054199,-0.710693,0.431396,-0.028538,0.078321,-0.045924,0.999804,0.005784,-0.016944,0.008485,-0.122949,-0.227030,-0.706838,-0.658574
34592,NaN,-1.537654,5.802276,-4.205826,0.187364,-4.187445,-3.800243,1.344665,-3.403835,1.403974,-0.045654,-0.710693,0.447754,-0.015070,0.058198,-0.041926,0.999808,0.006723,-0.017018,0.007019,-0.133803,-0.244376,-0.708367,-0.648531
34593,NaN,-0.216989,4.295640,-4.129874,-1.183695,-3.417576,-5.072096,1.563700,-3.359273,1.133497,-0.039795,-0.695801,0.464111,-0.001724,0.043267,-0.040993,0.999812,0.007818,-0.016795,0.005667,-0.140091,-0.260282,-0.709672,-0.639525
34594,NaN,1.050149,3.360549,-4.053216,-2.427728,-2.534698,-5.750192,1.827024,-3.279086,0.858570,-0.033691,-0.685303,0.482178,0.011015,0.034019,-0.040045,0.999815,0.009135,-0.016394,0.004293,-0.151392,-0.276190,-0.712598,-0.626900
34596,NaN,2.549288,2.531925,-4.424436,-8.020577,-3.507630,-2.515539,2.142123,-3.075734,0.574775,-0.020020,-0.651611,0.526611,0.053352,0.052797,-0.085756,0.999281,0.021416,-0.030750,0.005746,-0.163679,-0.302605,-0.719270,-0.603565
34597,NaN,4.553185,1.665208,-5.231761,-6.221192,-0.803159,-6.418298,2.456050,-2.699242,0.425547,-0.009766,-0.641113,0.551025,0.046194,0.017386,-0.051487,0.999831,0.012280,-0.013495,0.002128,-0.172953,-0.316421,-0.723926,-0.588129
34598,NaN,6.751025,0.965639,-5.160420,-7.925371,0.855708,-6.716113,2.627420,-2.312446,0.499445,-0.002197,-0.619873,0.565186,0.068074,0.010496,-0.050685,0.999844,0.013136,-0.011562,0.002497,-0.175672,-0.327250,-0.728750,-0.575301
34599,NaN,9.667108,0.210607,-4.288257,-9.567378,3.692595,-7.222258,2.569890,-1.798458,0.830388,0.001709,-0.607178,0.593506,0.097040,0.003052,-0.041976,0.999868,0.012849,-0.008992,0.004152,-0.179478,-0.340228,-0.733060,-0.560942
34600,NaN,12.834344,-0.620041,-2.577165,-10.815005,7.177174,-8.005900,2.414238,-1.285891,1.213742,-0.000977,-0.588135,0.617676,0.128539,-0.005116,-0.025012,0.999888,0.012071,-0.006429,0.006068,-0.176661,-0.350410,-0.736531,-0.550932
34601,NaN,15.260823,-0.553890,-0.027828,-10.613796,10.884516,-8.373703,2.248302,-0.876244,1.246462,-0.005615,-0.575439,0.627686,0.152638,-0.004589,0.000335,0.999908,0.011241,-0.004381,0.006232,-0.175059,-0.361582,-0.739510,-0.540128
34602,NaN,15.698177,0.836091,2.161188,-8.879470,12.980034,-7.697468,1.768042,-0.488000,1.068455,-0.010498,-0.560547,0.635498,0.156881,0.009005,0.022072,0.999944,0.008840,-0.002440,0.005342,-0.170773,-0.368376,-0.741885,-0.533613
34603,NaN,14.721440,3.030030,2.923580,-6.802199,13.191725,-6.050134,1.235675,-0.134657,0.797485,-0.017090,-0.550049,0.653809,0.147073,0.030705,0.029524,0.999973,0.006178,-0.000673,0.003987,-0.167490,-0.373493,-0.743488,-0.528843
34604,NaN,13.565176,4.673324,3.988021,-4.658249,13.329796,-5.082451,0.757975,0.156785,0.683744,-0.031982,-0.547852,0.653809,0.135523,0.047045,0.039952,0.999987,0.003790,0.000784,0.003419,-0.163683,-0.376249,-0.744338,-0.526883
34605,NaN,12.948893,4.366210,4.373931,-4.122407,13.051624,-5.508182,0.134043,0.351325,0.823722,-0.049316,-0.539307,0.653564,0.129384,0.044166,0.043541,0.999990,0.000670,0.001757,0.004119,-0.158821,-0.377499,-0.743541,-0.528599
34606,NaN,12.565852,2.693493,3.791229,-4.881238,12.090824,-6.728486,-0.498041,0.572214,0.935896,-0.059814,-0.539307,0.659668,0.125638,0.027617,0.037485,0.999982,-0.002490,0.002861,0.004679,-0.155158,-0.379063,-0.740900,-0.532263
34607,NaN,11.911672,1.112438,3.006830,-5.655196,10.771645,-7.774422,-0.941056,0.780321,0.877877,-0.078857,-0.543457,0.651367,0.119182,0.011787,0.029549,0.999972,-0.004705,0.003902,0.004389,-0.149243,-0.377163,-0.737583,-0.539858
34608,NaN,11.281100,0.387360,1.820361,-6.293960,9.363138,-7.957257,-1.191301,0.980233,0.753261,-0.095459,-0.547607,0.639160,0.112882,0.004405,0.017625,0.999963,-0.005956,0.004901,0.003766,-0.145837,-0.376391,-0.733652,-0.546641
34609,NaN,10.598252,0.515270,0.751019,-6.567679,8.018321,-7.420492,-1.405585,1.161191,0.690337,-0.114502,-0.553711,0.630859,0.106005,0.005568,0.006857,0.999952,-0.007028,0.005806,0.003452,-0.139122,-0.371876,-0.729580,-0.556836
34610,NaN,9.966395,1.282671,-0.842471,-6.874974,6.430689,-6.198421,-1.433054,1.295486,0.665700,-0.135498,-0.557861,0.618652,0.099563,0.013094,-0.009163,0.999948,-0.007165,0.006477,0.003328,-0.135201,-0.369681,-0.725216,-0.564906
34611,NaN,9.390174,3.108988,-2.721423,-7.025477,4.616049,-3.932272,-1.432489,1.358241,0.673070,-0.150146,-0.562012,0.606445,0.093608,0.031206,-0.028074,0.999946,-0.007162,0.006791,0.003365,-0.127571,-0.364574,-0.720960,-0.575351
34612,NaN,8.435873,6.643794,-4.364332,-6.067648,2.814520,-0.346536,-1.572011,1.496329,0.686803,-0.173096,-0.568359,0.592041,0.083798,0.066377,-0.044794,0.999935,-0.007860,0.007481,0.003434,-0.123060,-0.361718,-0.716094,-0.584146
34613,NaN,6.773135,11.258865,-5.354934,-3.845800,0.862672,3.817022,-1.830361,1.437412,0.413164,-0.188232,-0.566162,0.575684,0.067107,0.112228,-0.055061,0.999930,-0.009152,0.007187,0.002066,-0.116798,-0.355710,-0.710845,-0.595422
34614,NaN,5.489284,18.450022,-7.935285,-1.959013,-1.995184,10.819142,-1.609409,1.271624,0.012123,-0.200195,-0.584961,0.559570,0.054369,0.183855,-0.081181,0.999947,-0.008047,0.006358,0.000061,-0.115100,-0.351008,-0.706738,-0.603379
34615,NaN,4.287429,28.628274,-10.852291,0.747721,-5.371460,20.622156,-1.696603,1.946676,0.581665,-0.221191,-0.593506,0.547363,0.040969,0.285467,-0.111352,0.999912,-0.008483,0.009733,0.002908,-0.106865,-0.344780,-0.701557,-0.614430
34616,NaN,2.526277,35.486493,-13.780429,2.820602,-9.558647,27.013349,-1.635327,2.465181,1.343440,-0.250732,-0.595459,0.524658,0.021159,0.353872,-0.140978,0.999868,-0.008176,0.012325,0.006717,-0.096897,-0.340999,-0.695443,-0.625052
34617,NaN,4.191621,36.055025,-18.700399,-0.641221,-13.746401,28.628105,-1.808098,2.564579,1.952095,-0.275879,-0.601562,0.506348,0.035976,0.359208,-0.190742,0.999829,-0.009040,0.012822,0.009760,-0.083654,-0.338535,-0.687448,-0.637033
34618,NaN,4.176781,34.126100,-21.458245,-2.330222,-17.400148,26.711276,-2.242701,3.142534,2.778791,-0.311768,-0.605713,0.483643,0.033626,0.339327,-0.218966,0.999717,-0.011212,0.015711,0.013893,-0.067777,-0.337043,-0.676722,-0.651042
34619,NaN,0.897937,37.446618,-16.937854,4.444197,-17.414915,27.153133,-3.036007,3.524003,3.567058,-0.364258,-0.615967,0.450928,-0.000721,0.371882,-0.175082,0.999571,-0.015178,0.017617,0.017833,-0.050363,-0.338444,-0.661580,-0.667256
34620,NaN,-3.552898,40.839488,-11.399062,12.605114,-17.533372,26.841537,-4.171632,3.221609,4.067464,-0.408691,-0.622070,0.409912,-0.045710,0.405048,-0.121782,0.999446,-0.020854,0.016105,0.020334,-0.033172,-0.339912,-0.641228,-0.687158
34621,NaN,-5.437432,34.575953,-10.379704,12.386736,-18.664395,19.004643,-5.376396,3.165184,4.364296,-0.450684,-0.630127,0.369141,-0.063589,0.341500,-0.112059,0.999275,-0.026875,0.015822,0.021816,-0.020273,-0.345017,-0.615410,-0.708394
34622,NaN,-5.655494,26.265327,-10.889031,9.178488,-19.046544,10.011493,-5.747751,3.205825,4.532918,-0.495361,-0.623535,0.319580,-0.064254,0.258001,-0.115362,0.999202,-0.028731,0.016025,0.022659,-0.004258,-0.346751,-0.587074,-0.731498
34623,NaN,-4.958659,18.857805,-10.343143,5.954122,-17.204377,2.658272,-4.932810,3.245018,4.677088,-0.533691,-0.616699,0.268311,-0.055656,0.184711,-0.107149,0.999291,-0.024658,0.016221,0.023380,0.008617,-0.352149,-0.560835,-0.749254
34624,NaN,-4.105712,13.003783,-9.329951,3.707646,-14.493479,-2.805971,-3.585840,3.323372,4.640818,-0.580811,-0.601562,0.232910,-0.045601,0.127323,-0.094866,0.999432,-0.017926,0.016614,0.023200,0.028998,-0.352666,-0.538773,-0.764532
34625,NaN,-3.948963,8.751414,-8.044443,2.581130,-11.840270,-6.651515,-2.072468,3.524657,4.426539,-0.611328,-0.582275,0.197754,-0.042821,0.085756,-0.080604,0.999546,-0.010361,0.017621,0.022129,0.044902,-0.355933,-0.522698,-0.773358
34626,NaN,-4.657467,5.737886,-6.379034,2.930376,-9.309396,-9.635403,-0.801333,3.699529,3.990750,-0.643555,-0.567139,0.166748,-0.048875,0.056165,-0.063127,0.999622,-0.004006,0.018495,0.019951,0.068555,-0.352103,-0.511471,-0.780847
34627,NaN,-5.586700,3.906863,-5.148065,3.512914,-7.576670,-11.605718,0.199698,3.861088,3.375089,-0.665283,-0.545654,0.143799,-0.057495,0.038158,-0.050343,0.999671,0.000998,0.019303,0.016874,0.084446,-0.350523,-0.505338,-0.783987
34628,NaN,-6.267100,2.746871,-4.206873,4.141585,-6.154381,-12.891322,0.906018,3.997466,2.636731,-0.689209,-0.530762,0.120850,-0.063850,0.026818,-0.040678,0.999703,0.004530,0.019985,0.013182,0.106442,-0.341029,-0.502431,-0.787358
34629,NaN,-6.906639,2.079772,-3.798025,4.599435,-5.440283,-13.773574,1.325883,4.139167,1.927798,-0.699951,-0.524170,0.093994,-0.070028,0.020371,-0.036402,0.999717,0.006629,0.020694,0.009638,0.119303,-0.333744,-0.502715,-0.788454
34630,NaN,-7.468846,1.920150,-3.449424,5.316043,-4.856941,-14.229327,1.561797,4.178912,1.275801,-0.708740,-0.515625,0.069336,-0.075507,0.018982,-0.032773,0.999731,0.007808,0.020893,0.006378,0.137408,-0.319456,-0.504115,-0.790528
34631,NaN,-8.191992,2.061514,-2.696172,6.380931,-4.149114,-14.360602,1.657617,4.142209,0.708222,-0.713135,-0.515625,0.046875,-0.082525,0.020537,-0.025086,0.999745,0.008287,0.020709,0.003541,0.146358,-0.308303,-0.507490,-0.791191
34632,NaN,-8.913299,1.997718,-1.833856,7.400236,-3.074687,-14.563493,1.625184,4.058061,0.204701,-0.715088,-0.517578,0.022461,-0.089499,0.020024,-0.016362,0.999761,0.008125,0.020289,0.001023,0.159933,-0.291506,-0.510513,-0.792983
34633,NaN,-10.080304,1.353642,-0.927297,8.380245,-1.832834,-15.353668,1.323121,3.928663,-0.289553,-0.704102,-0.528320,-0.001953,-0.100938,0.013735,-0.007201,0.999784,0.006615,0.019642,-0.001448,0.164502,-0.278102,-0.514109,-0.794538
34634,NaN,-11.352775,0.242226,-0.324804,9.109263,-0.498538,-16.580752,0.879397,3.735606,-0.722627,-0.697510,-0.534424,-0.028320,-0.113552,0.002841,-0.001115,0.999809,0.004397,0.018677,-0.003613,0.172423,-0.260628,-0.515438,-0.797914
34635,NaN,-12.376405,-1.152561,0.035492,9.440902,0.595616,-17.875186,0.461095,3.397623,-1.054042,-0.688721,-0.547363,-0.050537,-0.123793,-0.010877,0.002432,0.999839,0.002305,0.016987,-0.005270,0.172337,-0.246905,-0.517012,-0.801271
34636,NaN,-12.894846,-2.748506,0.268321,9.247367,1.768611,-19.045651,0.228985,2.951975,-1.265589,-0.684326,-0.553467,-0.071045,-0.129061,-0.026673,0.004557,0.999870,0.001145,0.014759,-0.006328,0.175156,-0.231578,-0.516883,-0.805310
34638,NaN,-12.546227,-4.822337,1.085726,16.696353,7.053960,-29.780255,0.152136,2.108816,-1.471530,-0.655762,-0.581299,-0.096924,-0.251777,-0.092784,0.026875,0.999668,0.001521,0.021086,-0.014714,0.170490,-0.208360,-0.519120,-0.811193
34639,NaN,-10.848841,-6.013888,1.311156,6.620469,4.305961,-19.467000,0.082085,1.419325,-1.800385,-0.634521,-0.589844,-0.111084,-0.108927,-0.059165,0.013859,0.999934,0.000410,0.007096,-0.009002,0.166943,-0.197846,-0.520086,-0.813940
34640,NaN,-9.484392,-5.750898,1.104810,5.761045,3.912916,-18.515695,0.255941,1.041025,-1.955653,-0.621094,-0.606689,-0.118896,-0.095341,-0.056593,0.011471,0.999938,0.001280,0.005205,-0.009778,0.159642,-0.188160,-0.523421,-0.815562
34641,NaN,-8.446981,-4.774698,0.971582,5.455334,3.325285,-17.179606,0.459313,0.754287,-2.153513,-0.604004,-0.613281,-0.118652,-0.084940,-0.046857,0.009927,0.999932,0.002297,0.003771,-0.010767,0.153253,-0.179068,-0.526683,-0.816733
34642,NaN,-7.858870,-3.674045,0.679637,5.564759,2.527058,-16.006733,0.575912,0.501618,-2.439341,-0.577881,-0.632568,-0.118164,-0.079012,-0.035798,0.006890,0.999918,0.002879,0.002508,-0.012196,0.143764,-0.169108,-0.531823,-0.817251
34643,NaN,-7.523128,-2.725644,0.557699,5.795118,1.959335,-15.000297,0.658261,0.231182,-2.767349,-0.560547,-0.645264,-0.115967,-0.075593,-0.026230,0.005577,0.999898,0.003291,0.001156,-0.013836,0.133611,-0.160313,-0.536633,-0.817602
34644,NaN,-7.269057,-2.057681,0.711967,6.001670,1.742435,-14.116125,0.679047,-0.042785,-3.103737,-0.532471,-0.658203,-0.113525,-0.073000,-0.019469,0.007037,0.999874,0.003395,-0.000214,-0.015518,0.120606,-0.150008,-0.542682,-0.817587
34645,NaN,-6.904844,-1.974099,1.187655,5.889417,2.029128,-13.577921,0.707671,-0.325012,-3.427187,-0.502441,-0.675293,-0.108887,-0.069393,-0.018595,0.011697,0.999846,0.003538,-0.001625,-0.017135,0.106224,-0.141587,-0.548258,-0.817363
34646,NaN,-6.503147,-1.798195,2.298882,5.846326,2.868977,-12.709835,0.646537,-0.659942,-3.777154,-0.471924,-0.696777,-0.106445,-0.065432,-0.016822,0.022718,0.999811,0.003232,-0.003300,-0.018885,0.089177,-0.131320,-0.554425,-0.816955
34647,NaN,-6.169922,-1.364813,2.889495,5.866597,3.114341,-11.851735,0.394915,-0.946086,-4.194635,-0.441650,-0.718018,-0.101807,-0.062104,-0.012405,0.028576,0.999767,0.001974,-0.004730,-0.020972,0.069657,-0.123349,-0.559085,-0.816919
34648,NaN,-5.549361,-0.219297,1.850500,5.539917,1.612946,-10.797403,0.322928,-1.121645,-4.738340,-0.398682,-0.733154,-0.095215,-0.055628,-0.000906,0.018191,0.999702,0.001614,-0.005608,-0.023689,0.047669,-0.111682,-0.563844,-0.816905
34649,NaN,-6.361840,3.860162,1.711679,7.121290,-0.195514,-7.066679,-0.069632,-1.409667,-5.124415,-0.357910,-0.750244,-0.094727,-0.062720,0.040222,0.016659,0.999647,-0.000348,-0.007048,-0.025619,0.022708,-0.102969,-0.566559,-0.817247
34650,NaN,-10.076871,13.580426,0.993322,11.744381,-4.881308,1.373688,-0.923539,-1.826286,-4.959151,-0.317139,-0.765381,-0.096436,-0.097441,0.138289,0.008398,0.999640,-0.004617,-0.009130,-0.024793,-0.002657,-0.093273,-0.565401,-0.819521
34651,NaN,-15.524586,28.111568,1.881463,17.798885,-10.314366,14.914937,0.254243,-2.761074,-4.469486,-0.280762,-0.778320,-0.083740,-0.149157,0.284472,0.017088,0.999654,0.001271,-0.013804,-0.022345,-0.028658,-0.091922,-0.568296,-0.817172
34652,NaN,-18.222280,38.350079,5.924435,20.273471,-10.919126,26.345168,0.449803,-3.290324,-4.372096,-0.248535,-0.789062,-0.079346,-0.174736,0.387245,0.057197,0.999623,0.002249,-0.016450,-0.021858,-0.055686,-0.089686,-0.571638,-0.813687
34653,NaN,-16.689098,40.528425,9.200647,17.906367,-8.834436,30.271733,-0.601524,-2.619041,-4.371451,-0.218994,-0.791260,-0.079102,-0.159152,0.409090,0.088662,0.999671,-0.003007,-0.013094,-0.021855,-0.081209,-0.087648,-0.570234,-0.812746
34654,NaN,-17.621001,40.889916,8.919635,16.959387,-9.904777,31.127549,-0.890034,-2.136379,-3.519930,-0.195557,-0.791260,-0.081055,-0.169900,0.412313,0.085529,0.999778,-0.004450,-0.010681,-0.017598,-0.102658,-0.082369,-0.567485,-0.812796
34655,NaN,-20.402878,40.045055,5.882728,17.903537,-13.538513,29.565182,0.460509,-2.682060,-1.775807,-0.193359,-0.797852,-0.068604,-0.201236,0.402113,0.057041,0.999868,0.002302,-0.013410,-0.008879,-0.117285,-0.088454,-0.568637,-0.809365
34656,NaN,-21.755143,33.441264,2.616075,18.371713,-14.590328,22.560767,3.023724,-3.049357,-0.362614,-0.191162,-0.795654,-0.033936,-0.217362,0.334394,0.027901,0.999768,0.015117,-0.015246,-0.001813,-0.127703,-0.098021,-0.579710,-0.798762
34657,NaN,-15.524850,28.124173,-1.530305,11.850403,-14.240832,16.474932,5.087575,-3.775142,0.244003,-0.193359,-0.798096,0.013184,-0.155356,0.281370,-0.011078,0.999498,0.025434,-0.018873,0.001220,-0.135117,-0.117000,-0.597205,-0.781921
34658,NaN,-8.402455,26.473090,-3.525193,4.755777,-12.093660,14.983257,6.058016,-3.832893,0.342498,-0.199463,-0.798096,0.070312,-0.083885,0.265525,-0.028825,0.999356,0.030284,-0.019160,0.001712,-0.144651,-0.134093,-0.618622,-0.760527
34659,NaN,-4.599670,25.155907,-3.394142,1.852143,-9.090886,14.255229,6.053333,-3.471261,0.525678,-0.199707,-0.791992,0.125488,-0.046149,0.252327,-0.027111,0.999388,0.030260,-0.017353,0.002628,-0.149247,-0.153208,-0.638396,-0.739394
34660,NaN,-2.355416,22.626956,-2.048145,0.810675,-5.400151,12.363794,5.305327,-3.156437,0.615635,-0.195801,-0.785645,0.166260,-0.023987,0.226640,-0.014848,0.999519,0.026522,-0.015780,0.003078,-0.157066,-0.168922,-0.655892,-0.718750
34661,NaN,-1.881816,20.139749,-1.202910,1.280903,-3.420350,10.117414,4.043018,-2.887333,0.729063,-0.200195,-0.777344,0.202881,-0.019416,0.201519,-0.008233,0.999685,0.020213,-0.014435,0.003645,-0.160455,-0.184806,-0.667331,-0.703399
34662,NaN,-2.082521,16.982339,-0.887213,1.794573,-2.513368,7.038759,2.745217,-2.814660,0.876507,-0.204590,-0.775146,0.225342,-0.021464,0.169833,-0.006840,0.999797,0.013725,-0.014072,0.004382,-0.168615,-0.198530,-0.674675,-0.690629
34663,NaN,-2.134813,13.389629,-1.359151,1.712375,-2.636641,3.446267,1.663573,-2.809741,0.967001,-0.206787,-0.770996,0.237549,-0.021812,0.133900,-0.012782,0.999855,0.008317,-0.014048,0.004835,-0.173084,-0.212863,-0.676994,-0.682942
34664,NaN,-1.528395,9.911060,-2.412948,0.487617,-3.016792,0.038624,0.996656,-2.847340,0.837960,-0.202637,-0.764648,0.245605,-0.015358,0.099166,-0.023854,0.999877,0.004983,-0.014236,0.004190,-0.183195,-0.225167,-0.677692,-0.675628
34665,NaN,-0.140471,6.732759,-3.382072,-1.373798,-2.958892,-3.019649,0.709868,-2.970007,0.670588,-0.196289,-0.769043,0.264160,-0.001131,0.067443,-0.033600,0.999878,0.003549,-0.014849,0.003353,-0.190178,-0.238090,-0.676533,-0.670409
34666,NaN,1.417461,4.063006,-4.179288,-3.353009,-2.542203,-5.537565,0.656873,-3.102349,0.468859,-0.194336,-0.764648,0.270264,0.014724,0.040801,-0.041434,0.999872,0.003284,-0.015511,0.002344,-0.202773,-0.249895,-0.675724,-0.663198
34667,NaN,3.172274,2.237014,-4.489713,-5.096825,-1.565526,-7.206220,0.717324,-3.214419,0.246278,-0.185791,-0.762695,0.284424,0.032410,0.022569,-0.044299,0.999864,0.003586,-0.016071,0.001231,-0.211899,-0.262074,-0.674446,-0.656916
34668,NaN,4.804509,1.196824,-4.536724,-6.495091,-0.320738,-8.138108,0.812189,-3.270407,-0.003748,-0.168701,-0.764893,0.294922,0.048778,0.012149,-0.044524,0.999858,0.004061,-0.016351,-0.000019,-0.226322,-0.273314,-0.673969,-0.647954
34669,NaN,6.332491,0.860074,-4.831168,-7.844214,0.708327,-8.349433,1.001459,-3.189162,-0.200365,-0.165039,-0.750244,0.312988,0.064093,0.008775,-0.047250,0.999860,0.005007,-0.015945,-0.001002,-0.236323,-0.284060,-0.673786,-0.639901
34670,NaN,7.408708,1.020458,-5.171927,-8.802153,1.536459,-8.129348,1.292500,-2.997728,-0.226808,-0.150146,-0.752441,0.323486,0.074862,0.010449,-0.050534,0.999866,0.006462,-0.014988,-0.001134,-0.249534,-0.294499,-0.674837,-0.628966
34671,NaN,8.298090,1.180476,-5.164626,-9.336965,2.459543,-7.891884,1.790946,-2.751580,-0.157178,-0.141846,-0.746094,0.343750,0.083689,0.012194,-0.050390,0.999865,0.008954,-0.013757,-0.000786,-0.256648,-0.304810,-0.677179,-0.618588
34672,NaN,9.422063,1.010193,-4.424682,-9.457939,4.115288,-8.087010,2.269784,-2.481481,0.038774,-0.125244,-0.739746,0.364258,0.094757,0.010613,-0.042955,0.999859,0.011348,-0.012407,0.000194,-0.265293,-0.316020,-0.680916,-0.605066
34673,NaN,11.172307,0.282978,-3.284510,-9.701879,6.372168,-8.837671,2.508341,-2.205154,0.299660,-0.125488,-0.729248,0.390625,0.112071,0.003399,-0.031570,0.999859,0.012541,-0.011025,0.001498,-0.267900,-0.326988,-0.685013,-0.593351
34674,NaN,12.934255,-0.299067,-1.661128,-9.468654,8.968715,-9.601443,2.515697,-1.861498,0.613586,-0.115234,-0.720947,0.408936,0.129498,-0.002394,-0.015439,0.999873,0.012578,-0.009307,0.003068,-0.271473,-0.338636,-0.688820,-0.580651
34675,NaN,13.787492,-0.620593,0.045163,-8.570667,10.813049,-10.128277,2.386027,-1.505160,0.823777,-0.117432,-0.714600,0.418945,0.137891,-0.005651,0.001420,0.999892,0.011930,-0.007526,0.004119,-0.270203,-0.349039,-0.692238,-0.570937
34676,NaN,13.637718,0.148441,1.180553,-7.272630,11.595741,-9.593103,2.245107,-1.107097,0.775627,-0.117920,-0.704102,0.445312,0.136302,0.001875,0.012580,0.999914,0.011225,-0.005535,0.003878,-0.269959,-0.358313,-0.695632,-0.561097
34677,NaN,12.265616,1.829505,2.190579,-5.204576,11.353472,-8.200070,2.202707,-0.750341,0.611396,-0.122314,-0.695557,0.463623,0.122516,0.018424,0.022568,0.999928,0.011013,-0.003752,0.003057,-0.266894,-0.365486,-0.699657,-0.552873
34678,NaN,11.018344,3.233115,3.171685,-3.271523,11.142684,-7.156973,2.056244,-0.544760,0.586268,-0.116455,-0.680664,0.477783,0.110001,0.032323,0.032349,0.999939,0.010281,-0.002724,0.002931,-0.264333,-0.371630,-0.703454,-0.545134
34679,NaN,10.235967,3.828690,3.622314,-2.215829,10.876248,-6.754666,1.676382,-0.299206,0.703423,-0.118652,-0.678711,0.489990,0.102170,0.038340,0.036697,0.999958,0.008382,-0.001496,0.003517,-0.260348,-0.377113,-0.706295,-0.539585
34680,NaN,9.636000,3.946887,3.468400,-1.895201,10.327757,-6.618092,1.200812,-0.020970,0.824646,-0.125244,-0.674316,0.495850,0.096193,0.039656,0.034932,0.999973,0.006004,-0.000105,0.004123,-0.255835,-0.380788,-0.708000,-0.536921
34681,NaN,8.991952,4.051585,2.891660,-1.886281,9.490116,-6.346914,0.839790,0.247124,0.850852,-0.131836,-0.667969,0.503906,0.089782,0.040776,0.028976,0.999981,0.004199,0.001236,0.004254,-0.251078,-0.384197,-0.708942,-0.535494
34682,NaN,8.420924,4.416528,1.794538,-2.300686,8.422765,-5.641168,0.724126,0.444447,0.829328,-0.140381,-0.665771,0.508057,0.084065,0.044449,0.017919,0.999982,0.003621,0.002222,0.004147,-0.244947,-0.385374,-0.710010,-0.536072
34683,NaN,8.028191,4.956574,0.090870,-3.181073,7.176892,-4.578159,0.964122,0.628842,0.790224,-0.148926,-0.661621,0.518066,0.080088,0.049878,0.000897,0.999976,0.004821,0.003144,0.003951,-0.238739,-0.387659,-0.711829,-0.534812
34684,NaN,7.597508,6.000863,-1.017680,-3.430996,6.271188,-3.204534,1.511841,0.634328,0.841386,-0.157471,-0.659424,0.522217,0.075690,0.060403,-0.009962,0.999958,0.007559,0.003172,0.004207,-0.229752,-0.388895,-0.715226,-0.533317
34685,NaN,7.169435,7.469463,-1.716161,-3.121035,5.722275,-1.587629,2.103929,0.505045,0.626013,-0.164307,-0.642578,0.544434,0.071417,0.075095,-0.016554,0.999937,0.010519,0.002525,0.003130,-0.222178,-0.392172,-0.720158,-0.527457
34686,NaN,6.440032,12.422361,-2.817774,-1.669396,5.243236,3.356912,3.161395,0.360533,0.082289,-0.164795,-0.631836,0.560547,0.064301,0.124676,-0.026325,0.999873,0.015806,0.001803,0.000411,-0.212529,-0.392925,-0.728974,-0.518689
34687,NaN,4.996268,18.968990,-4.870060,0.553744,4.187901,9.950927,4.341117,0.905401,0.564118,-0.172119,-0.602295,0.592773,0.049217,0.190830,-0.044790,0.999750,0.021704,0.004527,0.002820,-0.199192,-0.397141,-0.739907,-0.505113
34688,NaN,3.402069,22.421814,-9.607308,0.481632,1.142467,14.782672,5.372951,1.070522,0.670911,-0.189697,-0.581055,0.622803,0.032769,0.226805,-0.090180,0.999619,0.026861,0.005352,0.003354,-0.180716,-0.399738,-0.753373,-0.489878
34689,NaN,4.784045,22.227980,-19.013249,-5.385495,-2.727359,19.201055,5.754299,1.050441,0.322861,-0.195068,-0.544922,0.655029,0.046499,0.227707,-0.183879,0.999571,0.028767,0.005251,0.001614,-0.164398,-0.403402,-0.767450,-0.470384
34690,NaN,5.054598,20.888987,-26.950974,-9.707395,-6.998600,22.510839,4.918719,1.726755,-0.332136,-0.206543,-0.523682,0.672852,0.048601,0.215358,-0.264691,0.999659,0.024591,0.008633,-0.001660,-0.146782,-0.399848,-0.781280,-0.456265
34691,NaN,2.717833,26.943977,-28.757063,-5.072353,-8.044567,28.525215,1.967310,3.150234,-0.416129,-0.229980,-0.517334,0.668701,0.023237,0.272203,-0.285289,0.999825,0.009836,0.015750,-0.002081,-0.131473,-0.392403,-0.788779,-0.454491
34692,NaN,-2.039371,35.424965,-29.656129,2.633081,-10.560751,35.130974,-1.193205,4.115680,0.433477,-0.259033,-0.536133,0.644287,-0.027284,0.352420,-0.298153,0.999768,-0.005966,0.020577,0.002167,-0.115351,-0.382978,-0.787896,-0.468233
34693,NaN,-6.788537,36.018555,-26.567588,8.196856,-13.438275,32.626695,-3.361453,4.576532,1.267190,-0.296631,-0.548828,0.617676,-0.076292,0.355206,-0.269993,0.999577,-0.016805,0.022879,0.006335,-0.100751,-0.375149,-0.779911,-0.490766
34694,NaN,-9.045155,28.179149,-21.238156,8.948630,-15.044658,22.127942,-4.175747,4.815527,1.595303,-0.325684,-0.565430,0.579102,-0.097842,0.276547,-0.215896,0.999460,-0.020875,0.024073,0.007975,-0.085619,-0.367158,-0.768685,-0.516709
34695,NaN,-7.401585,18.580028,-17.890246,5.138663,-14.851057,11.934121,-3.785794,4.715188,1.746237,-0.367676,-0.580078,0.536133,-0.079858,0.181713,-0.180531,0.999505,-0.018926,0.023572,0.008730,-0.069901,-0.359879,-0.757342,-0.540402
34696,NaN,-3.835067,10.029674,-16.677381,-0.533817,-13.956852,4.267673,-2.420021,4.875297,1.839998,-0.403809,-0.577637,0.515625,-0.043327,0.097894,-0.166952,0.999587,-0.012098,0.024373,0.009199,-0.051828,-0.353473,-0.748867,-0.558183
34697,NaN,-1.386607,4.321675,-14.534458,-3.501014,-12.112540,-1.279199,-0.675473,5.184529,1.779902,-0.435547,-0.573242,0.488770,-0.018010,0.042578,-0.145058,0.999619,-0.003377,0.025919,0.008898,-0.028631,-0.345352,-0.744898,-0.570121
34698,NaN,-0.972305,1.405279,-12.333748,-3.736476,-10.726211,-4.714744,0.556068,5.384636,1.495345,-0.469971,-0.562500,0.469971,-0.013144,0.014305,-0.122975,0.999606,0.002780,0.026920,0.007476,-0.005365,-0.337563,-0.744345,-0.576170
34699,NaN,-2.312870,0.581459,-10.662599,-1.886464,-10.303705,-6.710577,0.987884,5.412860,1.006817,-0.487305,-0.551758,0.459473,-0.026033,0.006213,-0.105918,0.999609,0.004939,0.027061,0.005033,0.019340,-0.325605,-0.745350,-0.581430
34700,NaN,-4.246291,1.005875,-9.658928,0.657051,-10.350632,-7.634764,0.919605,5.280537,0.492742,-0.516846,-0.549316,0.432861,-0.045017,0.010390,-0.095376,0.999638,0.004597,0.026399,0.002463,0.039238,-0.314985,-0.746454,-0.584851
34701,NaN,-5.828812,1.740987,-8.567015,3.131391,-9.907244,-8.257892,0.768218,4.990562,0.064382,-0.531982,-0.540771,0.410156,-0.060406,0.017716,-0.084113,0.999681,0.003841,0.024950,0.000322,0.059240,-0.300375,-0.747386,-0.589644
34702,NaN,-6.566461,2.290124,-7.272578,4.698170,-8.824027,-8.672577,0.517353,4.585764,-0.229864,-0.548828,-0.542725,0.391602,-0.067281,0.023163,-0.071136,0.999733,0.002587,0.022927,-0.001149,0.073155,-0.289530,-0.747881,-0.592870
34703,NaN,-6.610437,2.455477,-6.244356,5.393832,-7.680264,-9.020641,0.279452,4.169584,-0.449843,-0.561768,-0.542725,0.369141,-0.067331,0.024791,-0.061014,0.999779,0.001397,0.020846,-0.002249,0.087793,-0.275315,-0.747674,-0.597895
34704,NaN,-6.459890,1.971085,-5.043285,5.446816,-6.432208,-9.779885,0.059420,3.799790,-0.623610,-0.570068,-0.542480,0.344482,-0.065479,0.019929,-0.049188,0.999815,0.000297,0.018998,-0.003118,0.096466,-0.265548,-0.747324,-0.601403
34705,NaN,-6.296734,1.109659,-4.036796,5.237195,-5.365111,-10.791343,-0.299072,3.506334,-0.805507,-0.567871,-0.546631,0.328125,-0.063617,0.011293,-0.039273,0.999837,-0.001495,0.017531,-0.004027,0.106725,-0.252089,-0.745684,-0.607467
34706,NaN,-6.465600,0.264619,-3.532380,5.135140,-4.920856,-11.752385,-0.640986,3.244401,-0.998337,-0.573975,-0.555176,0.299805,-0.065204,0.002860,-0.034278,0.999851,-0.003205,0.016221,-0.004991,0.111000,-0.242762,-0.743820,-0.612763
34707,NaN,-7.008341,-0.323869,-3.008544,5.516897,-4.428143,-12.680388,-0.879189,3.007474,-1.114046,-0.571533,-0.563477,0.275391,-0.070542,-0.002976,-0.029013,0.999862,-0.004396,0.015037,-0.005570,0.117681,-0.229851,-0.740710,-0.620216
34708,NaN,-7.976877,-0.894810,-2.082247,6.273591,-3.664846,-13.809270,-1.087427,2.792711,-1.159606,-0.569336,-0.567627,0.252930,-0.080099,-0.008593,-0.019658,0.999871,-0.005437,0.013963,-0.005798,0.119072,-0.221241,-0.737835,-0.626478
34709,NaN,-9.119735,-1.561856,-0.888212,7.188026,-2.541015,-15.129368,-1.314459,2.569213,-1.172736,-0.560547,-0.573975,0.226562,-0.091390,-0.015136,-0.007608,0.999879,-0.006572,0.012846,-0.005863,0.123399,-0.209615,-0.733399,-0.634791
34710,NaN,-10.323662,-2.276429,0.439372,8.127600,-1.344591,-16.451969,-1.598271,2.239647,-1.150475,-0.558350,-0.582520,0.210205,-0.103306,-0.022128,0.005729,0.999889,-0.007991,0.011198,-0.005752,0.122186,-0.202501,-0.729186,-0.642146
34711,NaN,-11.473160,-2.829464,1.625165,9.089704,-0.114126,-17.535185,-1.869916,1.808547,-1.110600,-0.558105,-0.590820,0.179688,-0.114731,-0.027497,0.017549,0.999900,-0.009349,0.009042,-0.005553,0.123300,-0.193760,-0.723133,-0.651409
34712,NaN,-12.143988,-3.176970,2.454060,9.714635,0.722692,-18.100578,-2.066705,1.256354,-1.002378,-0.551514,-0.595215,0.165527,-0.121437,-0.030900,0.025626,0.999914,-0.010333,0.006282,-0.005012,0.118567,-0.189830,-0.717795,-0.659300
34713,NaN,-12.125726,-3.376746,2.654183,9.724593,1.109342,-18.159978,-2.177553,0.731219,-0.954757,-0.544922,-0.601562,0.145264,-0.121317,-0.032894,0.027347,0.999923,-0.010887,0.003656,-0.004774,0.115959,-0.185261,-0.711038,-0.668324
34714,NaN,-11.241912,-3.560184,2.595410,8.973955,1.169862,-17.805706,-2.103700,0.175645,-0.910448,-0.540527,-0.605713,0.128906,-0.112556,-0.034813,0.026422,0.999934,-0.010518,0.000878,-0.004552,0.107793,-0.184277,-0.706020,-0.675247
34715,NaN,-9.692668,-3.372656,1.906111,7.668901,0.730962,-16.855980,-1.962581,-0.305697,-0.920462,-0.527832,-0.610107,0.116699,-0.097109,-0.033092,0.019240,0.999940,-0.009813,-0.001528,-0.004602,0.101782,-0.183098,-0.700368,-0.682349
34716,NaN,-8.061605,-3.059941,1.179601,6.330538,0.149910,-15.783032,-1.635075,-0.693086,-1.009185,-0.516846,-0.616455,0.106689,-0.080810,-0.030096,0.011764,0.999948,-0.008175,-0.003465,-0.005046,0.090837,-0.183624,-0.697340,-0.686839
34717,NaN,-6.867236,-2.723632,1.019419,5.416987,0.118625,-14.936893,-1.287504,-0.989957,-1.203671,-0.510498,-0.620605,0.094482,-0.068884,-0.026757,0.010027,0.999949,-0.006437,-0.004950,-0.006018,0.082055,-0.183395,-0.694441,-0.690930
34718,NaN,-6.157904,-2.114619,1.618608,5.167893,0.704154,-14.032510,-1.109231,-1.231270,-1.479867,-0.493408,-0.626953,0.094727,-0.061831,-0.020601,0.015921,0.999938,-0.005546,-0.006156,-0.007399,0.068216,-0.183356,-0.693688,-0.693199
34719,NaN,-6.084957,-1.140225,2.515505,5.666642,1.497415,-13.021915,-1.163014,-1.474019,-1.791962,-0.486572,-0.637695,0.090820,-0.061131,-0.010711,0.024769,0.999916,-0.005815,-0.007370,-0.008960,0.055810,-0.182622,-0.691748,-0.696433
34720,NaN,-6.537405,-0.137196,4.046399,6.810052,2.737347,-12.105055,-1.399615,-1.852681,-2.182506,-0.465088,-0.648438,0.087158,-0.065753,-0.000375,0.039861,0.999873,-0.006998,-0.009263,-0.010912,0.037301,-0.181805,-0.690457,-0.699161
34721,NaN,-6.187704,0.899834,3.093591,6.697660,1.674114,-10.812951,-1.350751,-2.281122,-2.741787,-0.445557,-0.659180,0.083252,-0.062091,0.010054,0.030163,0.999818,-0.006753,-0.011405,-0.013708,0.018596,-0.180524,-0.688531,-0.702133
34722,NaN,-5.059797,1.957251,0.534399,5.362735,-0.786659,-9.233242,-0.647814,-2.581408,-3.362625,-0.411133,-0.678467,0.089844,-0.050322,0.020436,0.004628,0.999770,-0.003239,-0.012906,-0.016812,-0.005624,-0.177342,-0.690378,-0.701353
34723,NaN,-4.715202,4.320551,-2.449645,4.705832,-3.798358,-6.600245,0.067143,-2.902517,-3.816808,-0.381104,-0.687012,0.094238,-0.045954,0.044099,-0.025154,0.999713,0.000336,-0.014511,-0.019082,-0.028977,-0.174287,-0.693722,-0.698237
34724,NaN,-6.360654,11.125439,-7.545061,5.682143,-9.379810,0.229612,0.627628,-3.294735,-3.784684,-0.361816,-0.695557,0.104736,-0.060233,0.112654,-0.076109,0.999680,0.003138,-0.016472,-0.018921,-0.056051,-0.171868,-0.699393,-0.691497
34725,NaN,-10.193965,22.680478,-10.483333,9.375293,-13.434312,11.628328,0.821999,-3.750884,-3.312142,-0.327637,-0.704346,0.119385,-0.096183,0.228863,-0.105735,0.999679,0.004110,-0.018752,-0.016559,-0.079905,-0.173420,-0.703809,-0.684247
34726,NaN,-14.284781,37.251426,-10.797241,13.312667,-14.966468,26.336442,-0.741934,-3.667377,-3.615610,-0.301758,-0.719238,0.115479,-0.134060,0.374581,-0.111872,0.999662,-0.003709,-0.018335,-0.018076,-0.109440,-0.172313,-0.703606,-0.680639
34727,NaN,-15.302717,46.772521,-5.616097,14.938701,-10.831095,36.146873,-2.540509,-3.069180,-4.163968,-0.267578,-0.729980,0.097412,-0.142311,0.469980,-0.064361,0.999585,-0.012701,-0.015344,-0.020817,-0.136560,-0.166638,-0.696581,-0.684367
34728,NaN,-18.156548,41.931688,-2.523639,15.925646,-9.852495,31.937898,-3.049377,-2.282430,-3.716460,-0.244141,-0.734375,0.077148,-0.173386,0.422119,-0.033669,0.999646,-0.015245,-0.011411,-0.018580,-0.164052,-0.158623,-0.688418,-0.688481
34729,NaN,-21.555150,31.618427,1.476969,19.212507,-8.390184,22.232452,-1.002479,-2.246663,-2.456777,-0.227051,-0.734375,0.083496,-0.211782,0.318862,0.010783,0.999849,-0.005012,-0.011233,-0.012283,-0.181026,-0.157044,-0.684972,-0.688026
34730,NaN,-21.153695,25.753953,2.709371,18.762130,-7.254886,16.897384,2.220745,-3.139060,-1.121062,-0.220703,-0.734375,0.116211,-0.210511,0.258424,0.026650,0.999799,0.011103,-0.015694,-0.005605,-0.198670,-0.164845,-0.691383,-0.674794
34731,NaN,-14.947458,26.012240,0.420115,12.287487,-5.852911,16.926114,4.923230,-4.096898,-0.081636,-0.214844,-0.724121,0.156982,-0.149500,0.260025,0.007541,0.999487,0.024612,-0.020481,-0.000408,-0.208960,-0.183178,-0.703638,-0.653969
34732,NaN,-6.963793,27.281327,-1.927612,4.607610,-2.479494,17.916974,6.329356,-4.406619,0.488862,-0.215088,-0.709229,0.213867,-0.069985,0.273103,-0.012175,0.999254,0.031639,-0.022028,0.002444,-0.222132,-0.204492,-0.719273,-0.625689
34733,NaN,-1.944432,25.830745,-3.994538,0.181307,-0.294294,16.391297,6.172838,-4.029995,0.852274,-0.209473,-0.692383,0.258789,-0.019845,0.259300,-0.032349,0.999312,0.030857,-0.020145,0.004260,-0.227507,-0.226863,-0.732744,-0.599884
34734,NaN,-0.725236,22.424484,-6.051861,-1.573181,-0.566285,13.362763,5.093801,-3.610010,1.130014,-0.211914,-0.677734,0.299316,-0.007500,0.225649,-0.054917,0.999497,0.025465,-0.018047,0.005649,-0.236625,-0.246457,-0.742440,-0.576238
34735,NaN,-0.319813,19.168526,-7.712901,-2.624930,-1.489905,10.628982,3.864038,-3.433231,1.287858,-0.212402,-0.662842,0.323486,-0.003157,0.193108,-0.073461,0.999645,0.019318,-0.017164,0.006439,-0.240827,-0.265599,-0.747665,-0.558978
34736,NaN,-0.509530,15.371516,-8.145949,-3.020288,-2.200240,7.184895,2.780178,-3.221905,1.212999,-0.202148,-0.654541,0.343994,-0.004742,0.154799,-0.079391,0.999755,0.013900,-0.016108,0.006065,-0.250733,-0.281652,-0.749695,-0.543841
34737,NaN,-0.873113,11.688644,-7.262887,-2.537286,-2.463468,3.514877,1.975151,-3.152280,1.096651,-0.200439,-0.639648,0.354004,-0.008241,0.117551,-0.071603,0.999812,0.009875,-0.015760,0.005483,-0.256752,-0.296742,-0.749435,-0.533263
34738,NaN,-0.050797,9.252393,-6.259862,-2.841510,-1.551355,0.878944,1.447658,-3.260079,0.887322,-0.192383,-0.626953,0.372070,0.000093,0.092973,-0.061928,0.999831,0.007238,-0.016299,0.004436,-0.269267,-0.310061,-0.747406,-0.522246
34739,NaN,1.468284,7.841827,-5.505035,-3.529740,-0.132931,-0.786299,1.028238,-3.367779,0.761072,-0.184082,-0.625000,0.378174,0.015303,0.078757,-0.054392,0.999838,0.005141,-0.016838,0.003805,-0.278240,-0.323018,-0.744263,-0.514115
34740,NaN,3.083426,6.302666,-5.212041,-4.645553,1.135830,-2.496840,0.666639,-3.438110,0.710080,-0.171631,-0.614502,0.388428,0.031497,0.063310,-0.051372,0.999840,0.003333,-0.017190,0.003550,-0.292697,-0.335006,-0.739495,-0.505219
34741,NaN,4.797338,4.650780,-5.457450,-6.151038,2.139253,-4.154836,0.350865,-3.430755,0.638373,-0.161133,-0.612305,0.390381,0.048750,0.046757,-0.053661,0.999846,0.001754,-0.017153,0.003192,-0.303150,-0.346478,-0.734186,-0.499022
34742,NaN,6.534072,2.885989,-5.771363,-7.697159,3.230889,-5.986438,0.039367,-3.307017,0.597121,-0.153076,-0.604004,0.392334,0.066196,0.029068,-0.056618,0.999859,0.000197,-0.016534,0.002985,-0.317843,-0.356640,-0.727587,-0.492343
34743,NaN,8.469937,1.260055,-5.957204,-9.129013,4.597865,-7.732198,-0.223067,-3.063331,0.641170,-0.142578,-0.601807,0.392334,0.085558,0.012808,-0.058280,0.999877,-0.001115,-0.015316,0.003206,-0.327781,-0.366100,-0.720945,-0.488640
34744,NaN,10.238461,-0.329655,-5.707827,-9.994355,6.130826,-9.635550,-0.221934,-2.657496,0.742215,-0.136719,-0.589111,0.388184,0.103142,-0.002977,-0.055708,0.999904,-0.001110,-0.013287,0.003711,-0.339417,-0.374660,-0.714055,-0.484304
34745,NaN,12.018767,-1.940590,-4.848877,-10.293342,7.898701,-11.650623,0.001686,-2.163391,0.901981,-0.134766,-0.580566,0.387939,0.120789,-0.018862,-0.047185,0.999931,0.000008,-0.010817,0.004510,-0.344945,-0.383081,-0.708659,-0.481731
34746,NaN,14.391287,-3.935601,-3.991697,-10.854814,10.112084,-14.107201,0.413700,-1.708868,1.036956,-0.139160,-0.576416,0.391846,0.144449,-0.038527,-0.038765,0.999948,0.002068,-0.008544,0.005185,-0.350388,-0.391418,-0.704192,-0.477633
34747,NaN,16.103671,-5.040777,-3.064070,-10.894919,11.951718,-15.520251,0.982340,-1.261084,1.214802,-0.146240,-0.557129,0.399658,0.161528,-0.049280,-0.029867,0.999950,0.004912,-0.006305,0.006074,-0.350001,-0.400393,-0.701926,-0.473798
34748,NaN,15.656489,-4.142728,-2.045729,-9.448797,12.339749,-14.804438,1.517449,-0.922357,1.380125,-0.150635,-0.546631,0.407715,0.156938,-0.040192,-0.020042,0.999937,0.007587,-0.004612,0.006900,-0.348711,-0.409906,-0.700740,-0.468340
34749,NaN,14.567072,-1.719505,-1.905350,-8.165763,12.089432,-12.251372,1.983738,-0.692530,1.406659,-0.162109,-0.525391,0.417480,0.145851,-0.015983,-0.018711,0.999920,0.009918,-0.003463,0.007033,-0.343763,-0.419866,-0.701249,-0.462373
34750,NaN,14.009012,0.768396,-1.849762,-7.080871,12.251931,-9.710076,2.336124,-0.423940,1.416413,-0.168945,-0.508301,0.431641,0.140069,0.008889,-0.018102,0.999904,0.011680,-0.002120,0.007082,-0.338050,-0.429579,-0.702664,-0.455465
34751,NaN,13.879404,2.159204,-1.249616,-5.961109,12.703759,-8.421182,2.368456,-0.058944,1.476184,-0.177979,-0.493408,0.429199,0.138633,0.022761,-0.012190,0.999903,0.011842,-0.000295,0.007381,-0.329789,-0.438845,-0.704730,-0.449456
34752,NaN,13.319267,2.529966,-0.787503,-5.111996,12.453399,-8.023803,2.054971,0.359967,1.498945,-0.199707,-0.478516,0.438965,0.132984,0.026378,-0.007847,0.999918,0.010275,0.001800,0.007495,-0.320986,-0.446350,-0.706516,-0.445618
34753,NaN,12.277259,2.301649,-0.464892,-4.443080,11.558343,-8.108165,1.536375,0.754772,1.427951,-0.210449,-0.467773,0.432617,0.122586,0.023929,-0.004930,0.999938,0.007682,0.003774,0.007140,-0.311703,-0.452134,-0.707931,-0.444128
34754,NaN,11.515033,2.396693,-0.638921,-4.253054,10.784733,-7.727893,1.040955,1.051481,1.335849,-0.231934,-0.463623,0.434570,0.114951,0.024770,-0.006866,0.999950,0.005205,0.005257,0.006679,-0.302527,-0.455687,-0.708857,-0.445363
34755,NaN,10.645720,2.575884,-1.149165,-4.283652,9.790227,-7.150751,0.589424,1.335552,1.181371,-0.247070,-0.450684,0.419922,0.106223,0.026422,-0.012124,0.999956,0.002947,0.006678,0.005907,-0.293820,-0.457755,-0.709479,-0.448073
34756,NaN,9.326164,2.809296,-1.969672,-4.394748,8.239689,-6.415609,0.203814,1.585668,0.945452,-0.268311,-0.450684,0.411621,0.092967,0.028553,-0.020406,0.999957,0.001019,0.007928,0.004727,-0.285135,-0.457326,-0.710165,-0.453008
34757,NaN,7.830634,3.831576,-2.715936,-4.044409,6.669639,-5.065851,-0.332239,1.694851,0.647969,-0.272461,-0.454834,0.391357,0.077947,0.038523,-0.027885,0.999957,-0.001661,0.008474,0.003240,-0.278411,-0.455278,-0.710329,-0.458957
34758,NaN,6.299578,6.915689,-3.829786,-3.194237,5.205277,-1.758035,-1.090681,1.653010,0.156801,-0.282715,-0.463135,0.366943,0.062620,0.068994,-0.039193,0.999951,-0.005453,0.008265,0.000784,-0.273990,-0.449997,-0.709843,-0.467499
34759,NaN,4.879769,12.203117,-5.866281,-2.375137,3.761656,3.874626,-1.635161,1.556642,-0.408242,-0.278320,-0.469482,0.354736,0.048582,0.121445,-0.060036,0.999934,-0.008176,0.007783,-0.002041,-0.273094,-0.442623,-0.709037,-0.476204
34760,NaN,2.944735,18.494265,-10.014527,-2.851326,1.046143,11.205437,-1.677297,1.245975,-1.140594,-0.275879,-0.475830,0.332275,0.029867,0.183924,-0.101876,0.999929,-0.008386,0.006230,-0.005703,-0.274372,-0.432837,-0.709302,-0.484007
34761,NaN,2.551798,27.876441,-17.416570,-5.671158,-1.374800,22.635421,-0.880170,1.765028,-0.371587,-0.273926,-0.473633,0.318115,0.024489,0.277948,-0.175609,0.999950,-0.004401,0.008825,-0.001858,-0.270917,-0.426002,-0.710373,-0.490404
34762,NaN,1.879436,29.153341,-19.475848,-6.366412,-3.296064,24.557267,0.492314,2.992469,1.086240,-0.278564,-0.462891,0.311768,0.014300,0.292098,-0.194276,0.999870,0.002461,0.014962,0.005431,-0.255878,-0.422802,-0.713293,-0.496969
34763,NaN,6.285508,25.525395,-21.207745,-10.539156,-1.610159,22.234937,1.682615,3.308990,1.217686,-0.289795,-0.446045,0.309326,0.057796,0.257394,-0.210902,0.999809,0.008413,0.016544,0.006088,-0.237461,-0.420978,-0.719008,-0.499417
34764,NaN,8.037092,21.657121,-22.584601,-12.999909,-2.180842,19.679527,2.326944,3.953624,1.193708,-0.304932,-0.430908,0.306885,0.074615,0.219648,-0.224815,0.999719,0.011634,0.019766,0.005968,-0.214678,-0.417878,-0.726864,-0.500960
34765,NaN,0.823682,25.479329,-21.733423,-5.770718,-7.807973,22.246635,1.777910,4.595304,0.854236,-0.309814,-0.414062,0.300537,0.002182,0.256730,-0.215154,0.999687,0.008889,0.022974,0.004271,-0.192073,-0.411234,-0.734248,-0.504851
34766,NaN,-5.576731,29.352802,-20.280567,1.718319,-12.224244,24.120451,0.321991,4.998216,0.867429,-0.316895,-0.396973,0.281738,-0.062077,0.293592,-0.200834,0.999677,0.001610,0.024988,0.004337,-0.170246,-0.402006,-0.737897,-0.514699
34767,NaN,-7.773283,27.157384,-18.082256,4.504612,-13.720576,20.456520,-1.170295,5.256176,1.209390,-0.331787,-0.392578,0.261230,-0.084111,0.270022,-0.180251,0.999619,-0.005851,0.026278,0.006046,-0.150046,-0.391776,-0.736659,-0.530407
34768,NaN,-6.025904,23.772693,-15.211265,4.398339,-11.972178,16.072021,-2.289548,5.230459,1.646354,-0.346924,-0.379639,0.242432,-0.066200,0.235449,-0.153137,0.999559,-0.011446,0.026148,0.008231,-0.130639,-0.382258,-0.731005,-0.549950
34769,NaN,-3.695689,20.638660,-12.440939,3.581076,-9.784582,12.225869,-3.114997,5.146001,2.052813,-0.360107,-0.368896,0.229980,-0.042297,0.204010,-0.126557,0.999495,-0.015572,0.025726,0.010262,-0.112092,-0.373368,-0.721520,-0.572224
34770,NaN,-1.973100,17.723442,-10.218798,2.728897,-8.236232,8.816412,-3.537061,5.093000,2.402714,-0.373291,-0.358154,0.205078,-0.024489,0.175122,-0.104715,0.999447,-0.017682,0.025460,0.012011,-0.093478,-0.365541,-0.709435,-0.595267
34771,NaN,-1.545649,14.099377,-8.334213,2.215877,-7.517601,4.648949,-3.567321,5.084368,2.634260,-0.392578,-0.347412,0.186523,-0.019452,0.139244,-0.085376,0.999431,-0.017833,0.025417,0.013169,-0.074090,-0.357863,-0.695989,-0.618097
34772,NaN,-1.967543,10.362967,-7.241216,1.808389,-7.490122,0.399046,-3.357870,4.953794,2.641190,-0.412109,-0.332520,0.167725,-0.022844,0.102113,-0.073596,0.999465,-0.016786,0.024765,0.013204,-0.054922,-0.350616,-0.682449,-0.638996
34773,NaN,-2.459499,7.403874,-6.361686,1.639029,-7.278077,-3.055796,-2.951678,4.688299,2.443895,-0.429443,-0.323730,0.146973,-0.026988,0.072775,-0.064083,0.999542,-0.014756,0.023438,0.012218,-0.036286,-0.342991,-0.669721,-0.657659
34774,NaN,-3.035219,5.291803,-5.451470,1.856323,-6.807560,-5.673568,-2.384310,4.327236,2.094927,-0.438232,-0.311035,0.138672,-0.032078,0.051939,-0.054456,0.999640,-0.011920,0.021634,0.010473,-0.019370,-0.335558,-0.658974,-0.672888
34775,NaN,-3.768968,4.066516,-5.283079,2.180855,-6.931920,-7.396869,-1.773812,3.912982,1.660756,-0.451416,-0.300293,0.124023,-0.039052,0.039878,-0.052432,0.999735,-0.008868,0.019563,0.008303,-0.003882,-0.327590,-0.650435,-0.685276
34776,NaN,-4.767169,3.790122,-5.753536,2.818918,-7.742792,-8.299698,-1.172854,3.538130,1.236479,-0.464355,-0.293945,0.115723,-0.048914,0.037266,-0.056897,0.999807,-0.005864,0.017690,0.006182,0.009464,-0.319754,-0.644519,-0.694451
34777,NaN,-6.195454,3.771834,-6.359490,3.900271,-8.798120,-9.159840,-0.597273,3.285252,0.851931,-0.470947,-0.287354,0.113525,-0.063149,0.037263,-0.062676,0.999852,-0.002986,0.016425,0.004259,0.022032,-0.311059,-0.640842,-0.701482
34778,NaN,-7.870515,2.998260,-6.896437,4.937527,-9.653197,-10.773049,-0.010420,3.159812,0.454075,-0.485840,-0.281006,0.101074,-0.079849,0.029799,-0.067710,0.999873,-0.000052,0.015798,0.002270,0.033147,-0.301760,-0.639906,-0.705948
34779,NaN,-9.747326,1.282012,-6.755575,6.065853,-9.669786,-13.273978,0.505144,3.121029,0.018702,-0.488037,-0.283203,0.096924,-0.098512,0.012979,-0.065991,0.999875,0.002526,0.015604,0.000094,0.043936,-0.290669,-0.641073,-0.708947
34780,NaN,-11.675492,-0.956919,-6.158661,7.201608,-9.101937,-16.171873,0.773399,3.085695,-0.404384,-0.490234,-0.282959,0.086670,-0.117706,-0.009098,-0.059811,0.999871,0.003867,0.015428,-0.002022,0.052803,-0.278607,-0.643942,-0.710584
34781,NaN,-13.431021,-3.179388,-5.236993,8.342123,-8.096454,-18.910348,1.056299,2.982176,-0.746434,-0.498535,-0.285156,0.084717,-0.135190,-0.031020,-0.050524,0.999868,0.005281,0.014910,-0.003732,0.061196,-0.265278,-0.647871,-0.711439
34782,NaN,-14.908185,-5.172251,-3.225588,9.656205,-6.010003,-21.215907,1.337586,2.775721,-1.014602,-0.496338,-0.285156,0.076660,-0.149773,-0.050756,-0.030522,0.999868,0.006688,0.013878,-0.005073,0.067525,-0.252037,-0.653396,-0.710627
34783,NaN,-15.905864,-6.465272,-0.581793,10.957649,-3.266138,-22.633964,1.364866,2.441089,-1.257137,-0.496094,-0.297852,0.068604,-0.159519,-0.063618,-0.004309,0.999882,0.006824,0.012205,-0.006285,0.072724,-0.238752,-0.658937,-0.709585
34784,NaN,-16.371594,-6.428458,1.775656,12.187149,-0.889717,-22.586834,1.020983,1.992613,-1.474666,-0.495850,-0.304199,0.060547,-0.163999,-0.063171,0.019065,0.999910,0.005105,0.009963,-0.007373,0.074373,-0.226720,-0.663919,-0.708716
34785,NaN,-16.181242,-5.051680,2.994432,13.042057,0.373575,-21.041017,0.561949,1.377314,-1.648199,-0.487061,-0.310547,0.056641,-0.162011,-0.049268,0.030920,0.999938,0.002810,0.006886,-0.008241,0.073716,-0.216130,-0.667233,-0.708981
34786,NaN,-15.022347,-3.011345,3.770331,13.138300,1.221090,-18.463834,0.279822,0.645393,-1.771393,-0.482666,-0.319092,0.048584,-0.150360,-0.028835,0.038147,0.999955,0.001399,0.003227,-0.008857,0.068938,-0.207978,-0.670239,-0.709064
34787,NaN,-13.089505,-1.191493,4.270993,12.307641,1.908509,-15.801856,-0.250145,-0.016874,-1.894568,-0.476074,-0.325439,0.052734,-0.131003,-0.010621,0.042713,0.999954,-0.001251,-0.000084,-0.009473,0.061880,-0.201750,-0.671305,-0.710505
34788,NaN,-11.061606,0.058472,4.094198,10.989434,1.916958,-13.643620,-1.045474,-0.523676,-2.088462,-0.467285,-0.333984,0.044922,-0.110707,0.001953,0.040644,0.999928,-0.005227,-0.002618,-0.010442,0.050645,-0.196928,-0.670140,-0.713839
34789,NaN,-9.352957,0.916678,3.632791,9.704388,1.599463,-11.997606,-1.949789,-0.942225,-2.347153,-0.456299,-0.346680,0.034912,-0.093580,0.010616,0.035788,0.999873,-0.009749,-0.004711,-0.011735,0.037164,-0.192879,-0.665653,-0.719946
34790,NaN,-8.076843,1.247737,3.042295,8.569330,1.082688,-11.009855,-2.835170,-1.258698,-2.621502,-0.436768,-0.357422,0.026855,-0.080780,0.013961,0.029724,0.999794,-0.014175,-0.006293,-0.013107,0.019773,-0.189068,-0.658351,-0.728311
34791,NaN,-6.885661,1.169855,2.606052,7.385392,0.758452,-10.479158,-3.532764,-1.454787,-2.954086,-0.426025,-0.365967,0.012695,-0.068855,0.013167,0.025336,0.999708,-0.017662,-0.007273,-0.014769,0.000862,-0.184921,-0.648238,-0.738641
34792,NaN,-5.788085,0.530375,2.772961,6.307163,1.103030,-10.496057,-3.916940,-1.516753,-3.317527,-0.406494,-0.378662,0.000732,-0.057984,0.006801,0.027167,0.999642,-0.019582,-0.007583,-0.016586,-0.020949,-0.179519,-0.636843,-0.749510
34793,NaN,-4.715548,-0.361708,2.289792,5.051153,0.951501,-10.901081,-3.781472,-1.485479,-3.764440,-0.385010,-0.387207,-0.017334,-0.047376,-0.002297,0.022598,0.999617,-0.018905,-0.007426,-0.018820,-0.043192,-0.172620,-0.625659,-0.759531
34794,NaN,-3.866645,0.382140,0.626761,3.874928,-0.640998,-10.058715,-2.940817,-1.539212,-4.348606,-0.361328,-0.400146,-0.029297,-0.038616,0.004750,0.005905,0.999626,-0.014702,-0.007695,-0.021740,-0.068024,-0.163896,-0.617849,-0.766011
34795,NaN,-5.547423,6.740059,-1.770685,5.075494,-4.937034,-4.410472,-1.508929,-1.931022,-4.746155,-0.335449,-0.410889,-0.035156,-0.053679,0.068550,-0.018745,0.999643,-0.007544,-0.009654,-0.023728,-0.093400,-0.156045,-0.615088,-0.767198
34796,NaN,-8.255144,16.673773,-3.183613,6.962798,-9.353858,5.028020,1.032699,-2.473250,-4.661892,-0.307617,-0.419434,-0.024658,-0.078238,0.168760,-0.031954,0.999639,0.005163,-0.012365,-0.023307,-0.119016,-0.151354,-0.621444,-0.759430
34797,NaN,-8.455516,23.205195,-2.203818,6.703952,-9.399948,12.127955,2.567506,-2.682226,-4.724161,-0.279785,-0.432373,-0.011963,-0.078761,0.234225,-0.020123,0.999549,0.012836,-0.013409,-0.023617,-0.143311,-0.148305,-0.632895,-0.746265
34798,NaN,-6.518702,28.702077,-2.547038,3.570711,-8.806078,18.155769,3.035691,-2.165008,-5.201716,-0.256104,-0.445312,0.004639,-0.057439,0.288931,-0.021744,0.999488,0.015176,-0.010823,-0.026004,-0.168274,-0.141792,-0.646339,-0.730633
34799,NaN,-8.422116,32.446680,-2.789373,3.836231,-8.762654,22.430481,3.870025,-1.609730,-5.176438,-0.232422,-0.456055,0.021240,-0.075585,0.326964,-0.022214,0.999446,0.019347,-0.008047,-0.025877,-0.189569,-0.134108,-0.662436,-0.712220
34800,NaN,-14.343477,32.491457,-3.095320,8.120815,-9.742644,23.499497,6.112832,-1.891073,-3.950604,-0.213379,-0.456055,0.050049,-0.136731,0.328429,-0.022263,0.999293,0.030557,-0.009453,-0.019748,-0.206696,-0.133294,-0.684721,-0.686052
34801,NaN,-17.159033,35.589434,-3.642703,9.929992,-9.085464,27.504190,8.147292,-2.667852,-2.344701,-0.196289,-0.460693,0.086914,-0.167016,0.359020,-0.024090,0.999013,0.040723,-0.013335,-0.011720,-0.218257,-0.142687,-0.710793,-0.653282
34802,NaN,-14.645215,37.821464,-4.619086,7.623587,-5.760301,29.864737,8.564950,-3.299086,-1.050848,-0.192383,-0.450195,0.129883,-0.143847,0.380557,-0.032311,0.998933,0.042810,-0.016490,-0.005252,-0.228167,-0.158829,-0.735237,-0.618175
34803,NaN,-9.029997,34.824088,-5.229614,3.667338,-1.531898,26.317078,7.492723,-3.688314,-0.171419,-0.192871,-0.433105,0.170410,-0.089177,0.349991,-0.040855,0.999128,0.037453,-0.018436,-0.000857,-0.236125,-0.177984,-0.753682,-0.586967
34804,NaN,-4.032431,29.382033,-6.564975,-0.279032,0.545437,20.552962,5.843668,-3.842400,0.503226,-0.191162,-0.420654,0.192627,-0.039906,0.295485,-0.057801,0.999385,0.029212,-0.019208,0.002516,-0.244861,-0.197907,-0.765390,-0.561297
34805,NaN,-1.018550,23.669893,-8.346721,-3.227359,0.388517,15.093388,4.282068,-3.801985,1.042990,-0.189453,-0.407959,0.212891,-0.009901,0.238364,-0.078565,0.999577,0.021407,-0.019007,0.005214,-0.252161,-0.217705,-0.771402,-0.542180
34806,NaN,-0.011998,19.485940,-9.593312,-4.632568,-0.475212,11.400718,3.104797,-3.692735,1.330525,-0.187744,-0.395264,0.229004,0.000311,0.196318,-0.092890,0.999687,0.015522,-0.018462,0.006652,-0.260291,-0.236678,-0.773434,-0.527287
34807,NaN,-0.136828,16.259903,-9.769789,-4.681748,-1.248031,8.527364,2.413134,-3.500978,1.412215,-0.187988,-0.386719,0.243164,-0.000834,0.163755,-0.095744,0.999749,0.012065,-0.017503,0.007060,-0.267204,-0.254428,-0.773382,-0.515508
34808,NaN,-1.014412,12.996774,-9.259839,-3.950554,-2.225841,5.520918,2.146962,-3.317015,1.424759,-0.188477,-0.369873,0.259277,-0.009552,0.130883,-0.091358,0.999779,0.010734,-0.016584,0.007123,-0.274382,-0.271296,-0.772454,-0.504408
34809,NaN,-1.366584,9.620331,-8.662183,-3.691574,-2.959137,2.314137,2.333994,-3.267110,1.290810,-0.191162,-0.352783,0.271240,-0.012886,0.097122,-0.085707,0.999778,0.011669,-0.016334,0.006454,-0.280535,-0.287641,-0.771944,-0.492610
34810,NaN,-0.644538,6.896994,-8.103507,-4.206834,-2.743230,-0.409558,2.746539,-3.287009,1.139082,-0.176758,-0.342285,0.291748,-0.005520,0.070042,-0.080174,0.999754,0.013732,-0.016434,0.005695,-0.287106,-0.303920,-0.772226,-0.478404
34811,NaN,0.587670,5.033229,-7.713362,-5.039003,-1.948083,-2.330901,3.122968,-3.287766,1.077897,-0.170898,-0.327637,0.307861,0.006859,0.051563,-0.076227,0.999728,0.015613,-0.016437,0.005389,-0.292415,-0.320325,-0.773137,-0.462757
34812,NaN,1.989619,3.878811,-7.497986,-5.943036,-0.823374,-3.550681,3.428184,-3.284889,1.081953,-0.165039,-0.310547,0.327881,0.020902,0.040173,-0.073961,0.999704,0.017139,-0.016423,0.005409,-0.297636,-0.337035,-0.774266,-0.445345
34813,NaN,3.244088,3.352962,-7.153535,-6.445853,0.505506,-4.234162,3.680637,-3.261808,1.085178,-0.161621,-0.289551,0.345947,0.033408,0.035011,-0.070360,0.999683,0.018401,-0.016307,0.005425,-0.301566,-0.353847,-0.775543,-0.427063
34814,NaN,4.560976,3.155338,-6.741132,-6.764840,2.062676,-4.697242,3.740507,-3.178767,1.096246,-0.156006,-0.268311,0.370117,0.046489,0.033051,-0.066068,0.999684,0.018701,-0.015892,0.005481,-0.305320,-0.370423,-0.776526,-0.408135
34815,NaN,5.952408,3.098110,-6.366065,-7.020426,3.708657,-5.069345,3.599539,-2.998060,1.161794,-0.152588,-0.245117,0.390381,0.060278,0.032458,-0.062185,0.999709,0.017996,-0.014989,0.005808,-0.307849,-0.386416,-0.776927,-0.390250
34816,NaN,7.385395,2.858426,-6.140760,-7.401415,5.252761,-5.565904,3.327973,-2.692804,1.267499,-0.142334,-0.230225,0.404297,0.074480,0.030060,-0.059916,0.999751,0.016638,-0.013463,0.006337,-0.309682,-0.401620,-0.776624,-0.373703
34817,NaN,8.911221,2.186938,-5.551932,-7.664447,6.794198,-6.635030,3.050232,-2.298464,1.391806,-0.138672,-0.215332,0.422607,0.089581,0.023324,-0.054143,0.999793,0.015250,-0.011492,0.006959,-0.309832,-0.415937,-0.775821,-0.359308
34818,NaN,10.378206,1.430765,-4.810480,-7.801424,8.255619,-7.846542,2.736031,-1.844462,1.517908,-0.137207,-0.198486,0.438721,0.104103,0.015744,-0.046937,0.999835,0.013679,-0.009222,0.007589,-0.308734,-0.429296,-0.774609,-0.346944
34819,NaN,11.614072,1.059746,-4.050964,-7.656593,9.619978,-8.697847,2.427363,-1.389587,1.597691,-0.141846,-0.185791,0.456787,0.116326,0.012010,-0.039562,0.999870,0.012136,-0.006948,0.007988,-0.306107,-0.441563,-0.773157,-0.336968
34820,NaN,12.533801,1.474495,-3.195908,-6.937352,10.979375,-8.916721,2.134162,-0.907438,1.615608,-0.142090,-0.175293,0.466797,0.125354,0.016093,-0.031223,0.999900,0.010670,-0.004537,0.008078,-0.302226,-0.452533,-0.771761,-0.329025
34821,NaN,12.908516,2.158834,-1.970902,-5.588858,11.973011,-9.050589,1.764163,-0.424325,1.614501,-0.144775,-0.162598,0.476807,0.128946,0.022801,-0.019238,0.999926,0.008821,-0.002122,0.008072,-0.297206,-0.462072,-0.770326,-0.323660
34822,NaN,12.866346,2.542410,-0.704550,-4.240243,12.423208,-9.384129,1.255975,0.015497,1.519298,-0.148926,-0.164551,0.491211,0.128465,0.026444,-0.006892,0.999951,0.006280,0.000077,0.007596,-0.291720,-0.469706,-0.768893,-0.321061
34823,NaN,12.304019,2.377359,0.422402,-3.153055,12.134458,-9.985752,0.748720,0.379905,1.350076,-0.159424,-0.162354,0.493164,0.122884,0.024588,0.004082,0.999968,0.003744,0.001900,0.006750,-0.286337,-0.475342,-0.767468,-0.321021
34824,NaN,11.299787,1.742503,1.158977,-2.518491,11.180866,-10.654389,0.330096,0.667943,1.132477,-0.165771,-0.162354,0.497070,0.112935,0.018046,0.011242,0.999977,0.001650,0.003340,0.005662,-0.281016,-0.479038,-0.766302,-0.323009
34825,NaN,10.147613,1.202501,1.468221,-2.145321,10.029389,-10.988808,-0.007360,0.913763,0.916762,-0.180420,-0.168701,0.503418,0.101485,0.012491,0.014218,0.999979,-0.000037,0.004569,0.004584,-0.276059,-0.481033,-0.765376,-0.326494
34826,NaN,9.068726,1.311519,1.125838,-1.954618,9.000493,-10.444093,-0.229056,1.129496,0.702676,-0.188721,-0.170898,0.507324,0.090702,0.013446,0.010731,0.999977,-0.001145,0.005647,0.003513,-0.270918,-0.481513,-0.764900,-0.331175
34827,NaN,8.293486,2.090883,0.535329,-1.703131,8.381995,-9.283176,-0.438357,1.342966,0.532318,-0.203369,-0.181396,0.497314,0.082912,0.021140,0.004750,0.999972,-0.002192,0.006715,0.002662,-0.265961,-0.480696,-0.764704,-0.336784
34828,NaN,7.987024,2.935084,-0.468237,-1.919398,8.069091,-7.855555,-0.648754,1.570382,0.388507,-0.213623,-0.191895,0.497559,0.079773,0.029489,-0.005404,0.999962,-0.003244,0.007852,0.001943,-0.260590,-0.478621,-0.764769,-0.343720
34829,NaN,7.867334,3.314682,-1.861618,-2.767369,7.625509,-6.566385,-0.803494,1.786406,0.238477,-0.226074,-0.198242,0.489258,0.078463,0.033163,-0.019451,0.999951,-0.004017,0.008932,0.001192,-0.255272,-0.475371,-0.765122,-0.351349
34830,NaN,7.236962,3.407604,-3.150197,-3.498076,6.596741,-5.552094,-1.023326,1.932562,0.026157,-0.236328,-0.208740,0.481201,0.072055,0.033921,-0.032373,0.999940,-0.005117,0.009663,0.000131,-0.249946,-0.470708,-0.765701,-0.360088
34831,NaN,6.417838,4.777774,-4.920846,-3.814465,5.566113,-3.278589,-1.423440,1.942517,-0.266110,-0.250244,-0.229980,0.471436,0.063757,0.047338,-0.050167,0.999927,-0.007117,0.009712,-0.001331,-0.246333,-0.464357,-0.766150,-0.369738
34832,NaN,5.810333,8.019989,-7.457506,-3.837119,4.929011,0.895644,-1.671749,1.830026,-0.612335,-0.256104,-0.244873,0.457275,0.057658,0.079393,-0.075770,0.999919,-0.008359,0.009150,-0.003062,-0.243970,-0.456498,-0.766684,-0.379847
34833,NaN,5.066780,12.887470,-11.531627,-4.183158,4.027329,7.246267,-1.582115,1.567458,-1.028714,-0.255859,-0.253174,0.443115,0.050416,0.127695,-0.116725,0.999925,-0.007910,0.007837,-0.005143,-0.243521,-0.447592,-0.767896,-0.388194
34834,NaN,5.106508,18.278289,-18.437336,-6.797184,2.827655,15.601847,-1.064885,1.407910,-1.317477,-0.263916,-0.270264,0.435303,0.050959,0.181461,-0.185701,0.999939,-0.005324,0.007039,-0.006587,-0.242661,-0.438443,-0.770455,-0.394058
34835,NaN,5.170946,22.604582,-25.129381,-9.726833,1.169586,22.946787,-0.672545,2.361864,-0.469084,-0.276123,-0.280762,0.420898,0.049260,0.225080,-0.252643,0.999922,-0.003363,0.011809,-0.002345,-0.235957,-0.431111,-0.772977,-0.401215
34836,NaN,7.270992,19.834722,-27.631855,-13.709013,0.358138,22.150866,0.424222,3.216164,0.001058,-0.286865,-0.278564,0.414795,0.068258,0.198935,-0.277019,0.999868,0.002121,0.016080,0.000005,-0.222133,-0.425055,-0.777554,-0.406688
34837,NaN,6.134041,18.389513,-25.942927,-12.061803,-1.125654,20.220146,0.980731,4.104537,0.291645,-0.299805,-0.271973,0.412598,0.055743,0.185252,-0.259705,0.999776,0.004903,0.020521,0.001458,-0.203464,-0.418816,-0.783326,-0.411821
34838,NaN,0.475597,22.599409,-24.181142,-4.856621,-4.497306,22.618349,0.658304,4.213766,0.312655,-0.314453,-0.278320,0.394287,-0.000683,0.226790,-0.241090,0.999771,0.003291,0.021067,0.001563,-0.184340,-0.411850,-0.788214,-0.418470
34839,NaN,-3.142659,27.543905,-24.293961,0.358071,-6.774100,26.417402,-0.504933,4.093601,0.405545,-0.343994,-0.282471,0.396240,-0.036957,0.274755,-0.242915,0.999785,-0.002524,0.020467,0.002028,-0.168375,-0.404308,-0.789939,-0.429164
34840,NaN,-3.510907,27.034321,-23.878064,1.081937,-8.158909,25.477946,-1.984099,4.309537,1.017896,-0.362549,-0.297119,0.371826,-0.041648,0.267761,-0.240595,0.999706,-0.009920,0.021546,0.005089,-0.152609,-0.397204,-0.787100,-0.446556
34841,NaN,-2.491050,22.772673,-21.352756,0.098253,-8.582678,20.301332,-3.085820,4.433719,1.615515,-0.381348,-0.303467,0.353516,-0.031507,0.224166,-0.216355,0.999603,-0.015427,0.022166,0.008077,-0.137639,-0.391130,-0.780086,-0.468550
34842,NaN,-0.681908,19.622606,-19.224716,-1.223846,-8.270314,16.359554,-3.746911,4.395493,2.128026,-0.402344,-0.307373,0.324707,-0.013156,0.192464,-0.195634,0.999526,-0.018732,0.021974,0.010638,-0.122320,-0.386301,-0.769885,-0.493038
34843,NaN,0.491845,16.952582,-17.167117,-1.999480,-8.128298,12.816499,-3.849460,4.473983,2.598789,-0.427734,-0.309326,0.298096,-0.001145,0.166191,-0.174911,0.999480,-0.019244,0.022366,0.012992,-0.106083,-0.382701,-0.757726,-0.517820
34844,NaN,0.363395,13.969660,-14.948154,-1.883675,-8.483117,8.709570,-3.599844,4.621802,2.878703,-0.446777,-0.309326,0.271484,-0.001844,0.136976,-0.151963,0.999467,-0.017996,0.023105,0.014391,-0.087544,-0.379483,-0.745047,-0.541511
34845,NaN,-0.368084,10.943999,-13.130100,-1.554327,-9.044893,4.608879,-3.108226,4.760836,2.970133,-0.470459,-0.300537,0.244629,-0.008435,0.107282,-0.132817,0.999486,-0.015538,0.023800,0.014848,-0.067641,-0.376082,-0.732711,-0.563136
34846,NaN,-1.077016,8.093902,-11.754105,-1.351781,-9.420499,0.873466,-2.393021,4.812674,2.902555,-0.489746,-0.289795,0.221924,-0.014768,0.079332,-0.118173,0.999534,-0.011963,0.024060,0.014511,-0.045944,-0.372157,-0.721925,-0.581560
34847,NaN,-1.550981,5.483193,-10.362622,-1.227565,-9.202879,-2.490317,-1.606188,4.766429,2.685646,-0.502686,-0.285400,0.197266,-0.018707,0.053763,-0.103640,0.999594,-0.008030,0.023829,0.013426,-0.023922,-0.367454,-0.713072,-0.596601
34848,NaN,-2.294877,3.296915,-9.259136,-0.895520,-9.027968,-5.392449,-0.911417,4.595534,2.315533,-0.517822,-0.276855,0.184814,-0.025446,0.032263,-0.092174,0.999659,-0.004557,0.022975,0.011576,-0.001984,-0.361764,-0.706556,-0.608195
34849,NaN,-3.349761,1.945580,-8.562090,-0.173216,-9.112047,-7.523558,-0.412036,4.331768,1.800754,-0.530762,-0.270264,0.168213,-0.035514,0.018967,-0.084906,0.999723,-0.002060,0.021657,0.009003,0.018029,-0.354831,-0.701905,-0.617332
34850,NaN,-4.754162,1.623141,-8.217326,1.166443,-9.507040,-8.811279,-0.061550,4.068745,1.224522,-0.537354,-0.263916,0.155762,-0.049298,0.015908,-0.081187,0.999774,-0.000308,0.020342,0.006122,0.036237,-0.346512,-0.699192,-0.624298
34851,NaN,-6.535559,1.609393,-7.996963,2.911095,-10.036887,-9.978323,0.311976,3.860697,0.686334,-0.543701,-0.266113,0.143555,-0.066938,0.015989,-0.078663,0.999807,0.001560,0.019302,0.003431,0.052388,-0.336719,-0.698154,-0.629648
34852,NaN,-8.269331,0.675120,-7.531355,4.249556,-10.152524,-11.912927,0.874858,3.774438,0.128773,-0.552002,-0.270264,0.133301,-0.084099,0.007022,-0.073705,0.999812,0.004374,0.018871,0.000644,0.067621,-0.325026,-0.699768,-0.632543
34853,NaN,-10.071338,-1.159528,-6.242979,5.431337,-9.379863,-14.737383,1.307076,3.790712,-0.384812,-0.558350,-0.265869,0.123047,-0.101895,-0.011000,-0.060579,0.999797,0.006535,0.018952,-0.001924,0.081757,-0.311166,-0.703115,-0.634131
34854,NaN,-12.228863,-3.228325,-4.749587,6.804862,-8.405241,-17.909046,1.482856,3.801729,-0.818627,-0.564697,-0.272217,0.114990,-0.123295,-0.031438,-0.045394,0.999783,0.007414,0.019007,-0.004093,0.094913,-0.295607,-0.707598,-0.634755
34855,NaN,-14.601152,-4.415077,-3.149245,8.829300,-7.237004,-20.407441,1.601983,3.694235,-1.165871,-0.564453,-0.278564,0.108887,-0.146817,-0.043057,-0.029133,0.999780,0.008009,0.018470,-0.005829,0.106609,-0.278915,-0.712507,-0.634960
34856,NaN,-16.958772,-4.549315,-0.994321,11.464522,-5.339529,-22.031954,1.571311,3.480590,-1.402450,-0.562012,-0.287109,0.094727,-0.170044,-0.044237,-0.007337,0.999793,0.007856,0.017402,-0.007012,0.116718,-0.262030,-0.717672,-0.634558
34857,NaN,-19.046183,-3.559396,1.771440,14.444595,-2.550154,-22.594885,1.164920,3.085264,-1.434264,-0.561768,-0.295410,0.084717,-0.190410,-0.034342,0.020450,0.999838,0.005824,0.015425,-0.007171,0.124725,-0.246355,-0.721340,-0.635154
34858,NaN,-20.051535,-1.691783,3.932691,16.712327,0.015806,-21.689766,0.523042,2.439517,-1.378280,-0.559326,-0.303955,0.076660,-0.200127,-0.015645,0.041728,0.999898,0.002615,0.012197,-0.006891,0.129631,-0.233342,-0.723321,-0.636831
34859,NaN,-19.376517,0.018127,4.893449,17.209577,1.636028,-19.839392,-0.130003,1.624526,-1.338822,-0.552734,-0.308105,0.070557,-0.193352,0.001509,0.050505,0.999944,-0.000650,0.008122,-0.006694,0.131063,-0.223380,-0.723385,-0.640029
34860,NaN,-16.941348,0.895709,4.670333,15.611682,2.107930,-17.651550,-0.830132,0.832403,-1.374986,-0.548096,-0.321045,0.064697,-0.169149,0.010316,0.047367,0.999959,-0.004151,0.004162,-0.006875,0.128429,-0.216321,-0.721879,-0.644672
34861,NaN,-14.111688,0.772119,3.753868,13.100459,1.709561,-16.079816,-1.428722,0.203623,-1.495337,-0.550049,-0.329346,0.062744,-0.141014,0.009044,0.037621,0.999946,-0.007143,0.001018,-0.007477,0.122770,-0.211154,-0.718731,-0.650974
34862,NaN,-12.152377,0.098754,2.670818,11.073797,0.879736,-15.417577,-1.958978,-0.256773,-1.679963,-0.534912,-0.333740,0.056885,-0.121542,0.002269,0.026534,0.999916,-0.009795,-0.001284,-0.008400,0.113863,-0.207159,-0.714386,-0.658614
34863,NaN,-11.018045,-0.468757,1.890169,9.847855,0.213130,-15.119135,-2.482670,-0.614947,-1.890456,-0.528076,-0.348633,0.052979,-0.110274,-0.003413,0.018610,0.999874,-0.012413,-0.003075,-0.009452,0.102834,-0.203801,-0.708437,-0.667838
34864,NaN,-10.049417,-0.725283,1.815913,8.993326,0.212203,-14.699677,-3.042249,-0.910027,-2.176277,-0.515137,-0.359375,0.042969,-0.100645,-0.005886,0.017798,0.999815,-0.015210,-0.004550,-0.010881,0.088707,-0.200654,-0.700972,-0.678607
34865,NaN,-9.010779,-0.550308,2.054033,8.295308,0.533283,-13.888394,-3.544692,-1.118780,-2.513710,-0.504150,-0.372070,0.031006,-0.090278,-0.004010,0.020116,0.999748,-0.017722,-0.005593,-0.012567,0.072657,-0.197144,-0.691796,-0.690850
34866,NaN,-7.701759,-0.405803,3.056593,7.476475,1.634020,-13.013697,-3.815775,-1.314270,-2.877390,-0.491211,-0.380615,0.018799,-0.077259,-0.002370,0.030115,0.999693,-0.019077,-0.006571,-0.014385,0.053817,-0.193024,-0.681832,-0.703528
34867,NaN,-6.317731,-0.918485,4.097019,6.406087,2.838810,-12.716857,-3.761294,-1.491370,-3.289871,-0.471680,-0.393311,0.010986,-0.063612,-0.007374,0.040647,0.999660,-0.018804,-0.007456,-0.016447,0.033490,-0.187983,-0.671955,-0.715554
34868,NaN,-4.633088,-2.370988,2.308460,4.199570,1.494399,-13.353847,-3.090690,-1.575506,-3.888997,-0.449951,-0.406250,0.005127,-0.046957,-0.022444,0.023070,0.999661,-0.015452,-0.007877,-0.019443,0.010767,-0.180945,-0.664667,-0.724818
34869,NaN,-3.557006,-2.940228,-0.098289,2.627448,-0.576677,-13.563321,-2.185905,-1.703633,-4.560477,-0.428223,-0.421143,0.005615,-0.036220,-0.028592,-0.000974,0.999644,-0.010928,-0.008517,-0.022800,-0.013425,-0.172001,-0.660734,-0.730525
34870,NaN,-4.200189,0.645984,-2.185797,3.462232,-3.268013,-10.219863,-1.490327,-2.004836,-4.998082,-0.400146,-0.438232,0.001953,-0.041604,0.007338,-0.022329,0.999610,-0.007451,-0.010023,-0.024987,-0.040173,-0.162569,-0.659249,-0.733041
34871,NaN,-7.206269,9.147462,-2.912063,7.102262,-5.984788,-2.210968,-0.963346,-2.512634,-5.150770,-0.367920,-0.455322,0.000244,-0.069301,0.093139,-0.030449,0.999578,-0.004816,-0.012561,-0.025750,-0.068121,-0.154522,-0.659128,-0.732825
34872,NaN,-10.323947,22.603092,-2.210666,10.772834,-7.954374,11.232417,0.202809,-3.248746,-4.968713,-0.348389,-0.466064,0.014893,-0.097208,0.228519,-0.023488,0.999559,0.001014,-0.016241,-0.024840,-0.097461,-0.149966,-0.662359,-0.727525
34873,NaN,-9.300827,35.320367,1.944060,10.594767,-4.737201,24.869595,0.827850,-3.379165,-5.041579,-0.318115,-0.483154,0.023438,-0.084397,0.355323,0.019434,0.999531,0.004139,-0.016893,-0.025204,-0.126346,-0.145879,-0.667198,-0.719446
34874,NaN,-10.311396,48.036134,3.318392,10.235262,-4.194285,38.166060,0.149987,-2.633018,-5.115022,-0.290527,-0.489746,0.027832,-0.091216,0.482771,0.032292,0.999586,0.000750,-0.013163,-0.025572,-0.154061,-0.138223,-0.669562,-0.713335
34875,NaN,-13.625328,49.680743,3.141137,11.063465,-5.123223,40.334104,0.335752,-2.600849,-4.086899,-0.277588,-0.494141,0.030029,-0.126466,0.499407,0.030561,0.999705,0.001679,-0.013003,-0.020432,-0.177090,-0.134019,-0.671388,-0.707047
34876,NaN,-14.557142,46.386888,1.770240,10.022965,-6.044706,37.406634,1.073094,-3.162967,-2.638757,-0.258545,-0.494141,0.050537,-0.139718,0.465642,0.017957,0.999774,0.005365,-0.015814,-0.013193,-0.197044,-0.137154,-0.674004,-0.698628
34877,NaN,-11.647187,41.847041,-1.361074,5.721819,-6.848352,32.719698,1.928118,-3.787814,-1.257270,-0.256592,-0.487793,0.070801,-0.113603,0.419310,-0.011741,0.999754,0.009640,-0.018938,-0.006286,-0.212854,-0.147996,-0.677709,-0.688115
34878,NaN,-6.465335,35.451343,-3.473000,0.618963,-5.531158,25.959426,2.514991,-3.999734,-0.284087,-0.256836,-0.483643,0.095459,-0.063497,0.355014,-0.031545,0.999720,0.012574,-0.019997,-0.001420,-0.226276,-0.163321,-0.682109,-0.675909
34879,NaN,-3.499475,28.449686,-4.381367,-1.592017,-4.321124,18.815653,2.823326,-3.898173,0.272371,-0.259033,-0.477295,0.127930,-0.034572,0.285037,-0.040469,0.999710,0.014115,-0.019489,0.001362,-0.236303,-0.180551,-0.686825,-0.663199
34880,NaN,-1.325776,23.105380,-5.120779,-3.193957,-3.402836,13.425732,2.891209,-3.827060,0.523768,-0.255371,-0.462646,0.148193,-0.012924,0.231730,-0.048110,0.999709,0.014455,-0.019133,0.002619,-0.245801,-0.198305,-0.691196,-0.650004
34881,NaN,0.225729,19.874061,-5.779168,-4.410085,-2.735965,10.223966,2.640199,-3.721493,0.670791,-0.257568,-0.456299,0.174561,0.002631,0.199488,-0.055115,0.999734,0.013200,-0.018606,0.003354,-0.253822,-0.215890,-0.694361,-0.637831
34882,NaN,0.412941,17.134965,-5.849255,-4.333190,-2.491370,7.594021,2.167794,-3.569022,0.737102,-0.251709,-0.447998,0.197021,0.004517,0.171986,-0.056552,0.999775,0.010838,-0.017844,0.003685,-0.262162,-0.232443,-0.695774,-0.627009
34883,NaN,0.755868,13.947538,-5.612675,-4.275865,-2.108398,4.465660,1.737190,-3.415491,0.660664,-0.258301,-0.435059,0.211182,0.008040,0.139981,-0.054778,0.999811,0.008685,-0.017076,0.003303,-0.269927,-0.247663,-0.695851,-0.617732
34884,NaN,1.351117,10.772696,-5.264491,-4.440044,-1.546452,1.299496,1.464101,-3.328943,0.500628,-0.250000,-0.428955,0.231445,0.014106,0.108142,-0.051623,0.999832,0.007320,-0.016644,0.002503,-0.278726,-0.261531,-0.695131,-0.608856
34885,NaN,1.947619,8.102692,-5.218685,-4.854595,-1.186569,-1.344990,1.311403,-3.290981,0.370484,-0.243896,-0.424805,0.249756,0.020175,0.081402,-0.051326,0.999841,0.006557,-0.016454,0.001852,-0.287300,-0.274604,-0.693951,-0.600403
34886,NaN,2.747301,6.099709,-5.677771,-5.794517,-0.927634,-3.289726,1.276541,-3.249678,0.251320,-0.239746,-0.418457,0.268066,0.028309,0.061391,-0.055931,0.999847,0.006382,-0.016248,0.001257,-0.296570,-0.286933,-0.692660,-0.591555
34887,NaN,3.857968,4.614097,-6.052615,-6.860606,-0.282902,-4.747733,1.286582,-3.177508,0.097841,-0.238037,-0.412109,0.278320,0.039509,0.046546,-0.059605,0.999853,0.006433,-0.015887,0.000489,-0.305418,-0.298516,-0.691521,-0.582586
34888,NaN,5.196240,3.514734,-6.150797,-7.818021,0.810381,-5.888213,1.248975,-3.063091,-0.030442,-0.223389,-0.405762,0.294678,0.052899,0.035519,-0.060482,0.999863,0.006245,-0.015315,-0.000152,-0.314649,-0.309109,-0.690446,-0.573352
34889,NaN,6.588781,2.722830,-5.607134,-8.229400,2.388426,-6.840892,1.089102,-2.905131,-0.112662,-0.212891,-0.403809,0.312988,0.066707,0.027492,-0.054957,0.999880,0.005445,-0.014525,-0.000563,-0.323302,-0.318705,-0.689098,-0.564842
34890,NaN,7.891151,2.216863,-4.637554,-8.151807,4.169300,-7.610252,0.882048,-2.684741,-0.133484,-0.208984,-0.393311,0.322998,0.079539,0.022317,-0.045212,0.999900,0.004410,-0.013423,-0.000667,-0.331843,-0.327131,-0.687429,-0.557052
34891,NaN,8.979105,1.699278,-3.469083,-7.719823,5.833342,-8.427792,0.758603,-2.390799,-0.093798,-0.200439,-0.391113,0.335205,0.090205,0.017079,-0.033549,0.999921,0.003793,-0.011954,-0.000469,-0.339076,-0.334682,-0.685685,-0.550320
34892,NaN,9.902628,1.087924,-2.357780,-7.198108,7.263531,-9.334343,0.648662,-2.157355,-0.039766,-0.194336,-0.386963,0.347656,0.099275,0.010934,-0.022472,0.999937,0.003243,-0.010787,-0.000199,-0.345719,-0.341479,-0.683883,-0.544220
34894,NaN,11.023858,0.924689,-1.159870,-13.088711,17.986785,-9.882902,0.480185,-1.859662,0.097208,-0.186035,-0.380615,0.365967,0.220838,0.018806,-0.019003,0.999815,0.004802,-0.018595,0.000972,-0.356225,-0.353841,-0.679620,-0.534806
34895,NaN,11.501029,1.517052,-0.312946,-5.738969,10.081279,-9.493041,0.345888,-1.557026,0.248390,-0.177734,-0.374512,0.375977,0.115011,0.015318,-0.002208,0.999967,0.001729,-0.007785,0.001242,-0.360327,-0.359401,-0.677354,-0.531213
34896,NaN,11.780162,1.962961,0.065082,-5.342903,10.660157,-9.148018,0.191672,-1.329883,0.365847,-0.181885,-0.374512,0.388184,0.117758,0.019844,0.001453,0.999976,0.000958,-0.006649,0.001829,-0.363527,-0.364490,-0.674805,-0.528804
34897,NaN,11.824709,2.105833,0.142805,-5.148866,10.821604,-9.000728,0.065865,-0.978907,0.507066,-0.177734,-0.374512,0.390381,0.118184,0.021357,0.002014,0.999985,0.000329,-0.004895,0.002535,-0.365376,-0.368878,-0.672295,-0.527683
34898,NaN,11.544785,1.836434,0.204528,-4.898599,10.598213,-9.198584,-0.038088,-0.638556,0.622417,-0.179932,-0.370117,0.390137,0.115383,0.018724,0.002410,0.999990,-0.000190,-0.003193,0.003112,-0.365967,-0.372563,-0.669885,-0.527749
34899,NaN,10.909233,1.589325,0.010387,-4.751565,9.933501,-9.278796,-0.113108,-0.274213,0.703630,-0.188721,-0.365967,0.392090,0.109035,0.016277,0.000244,0.999993,-0.000566,-0.001371,0.003518,-0.365172,-0.375435,-0.667781,-0.528929
34900,NaN,10.185558,1.684425,-0.166513,-4.546076,9.236109,-9.014228,-0.084908,0.042240,0.782284,-0.201416,-0.365967,0.390137,0.101788,0.017242,-0.001694,0.999992,-0.000425,0.000211,0.003911,-0.363139,-0.377759,-0.666173,-0.530699
34901,NaN,9.564339,2.243476,-0.392704,-4.400508,8.658515,-8.286617,-0.030340,0.329368,0.899262,-0.203369,-0.365967,0.396240,0.095535,0.022864,-0.004088,0.999989,-0.000152,0.001647,0.004496,-0.359579,-0.379846,-0.664982,-0.533122
34902,NaN,8.852242,3.264264,-0.851638,-4.372393,7.939939,-7.059235,-0.006202,0.580309,0.975292,-0.211914,-0.365723,0.394043,0.088337,0.033073,-0.008774,0.999984,-0.000031,0.002902,0.004876,-0.355077,-0.381507,-0.664158,-0.535973
34903,NaN,7.890457,5.030427,-1.748494,-4.517038,6.866391,-5.009610,0.010578,0.802632,1.015375,-0.220459,-0.363770,0.392090,0.078577,0.050705,-0.017798,0.999979,0.000053,0.004013,0.005077,-0.349479,-0.382780,-0.663647,-0.539367
34904,NaN,7.251627,7.455004,-3.061060,-5.060608,5.920474,-2.271490,0.026191,0.939217,1.066251,-0.229248,-0.357178,0.383789,0.071973,0.074939,-0.030940,0.999975,0.000131,0.004696,0.005331,-0.343448,-0.383803,-0.663314,-0.542912
34905,NaN,7.166068,10.579746,-4.097863,-5.479646,5.605100,1.079067,0.153711,0.856423,0.917348,-0.239746,-0.359375,0.379639,0.070998,0.106156,-0.041202,0.999980,0.000769,0.004282,0.004587,-0.337584,-0.384829,-0.663413,-0.545736
34906,NaN,8.099616,16.269519,-6.611650,-7.219554,5.732752,7.188030,0.509355,0.839612,0.868386,-0.254395,-0.361328,0.377441,0.080011,0.163212,-0.066039,0.999979,0.002547,0.004198,0.004342,-0.331463,-0.386252,-0.664547,-0.547101
34907,NaN,8.557564,22.183010,-8.890081,-8.292138,5.385396,13.566050,0.828994,1.589891,1.579441,-0.269775,-0.348633,0.371094,0.083113,0.222861,-0.088646,0.999929,0.004145,0.007949,0.007897,-0.319945,-0.388551,-0.666345,-0.550134
34908,NaN,6.893797,27.325391,-9.767899,-6.917710,3.540789,18.982571,1.292228,2.135584,1.935719,-0.282715,-0.342041,0.370850,0.065250,0.274524,-0.096618,0.999875,0.006461,0.010677,0.009678,-0.304977,-0.391127,-0.669485,-0.552991
34909,NaN,5.442553,29.959590,-11.273962,-6.184528,1.196351,22.038839,1.946655,2.583934,2.202789,-0.303955,-0.337646,0.372803,0.049676,0.301243,-0.110475,0.999809,0.009733,0.012919,0.011013,-0.286019,-0.394297,-0.674378,-0.554921
34910,NaN,2.787727,25.308303,-10.615579,-4.231364,-1.513291,17.402459,2.942546,2.818138,2.299465,-0.329590,-0.327148,0.372559,0.023489,0.254899,-0.102766,0.999726,0.014711,0.014089,0.011496,-0.264280,-0.398313,-0.681868,-0.553678
34911,NaN,1.237721,22.493592,-9.999267,-2.488068,-3.011084,14.520685,3.194744,2.998262,2.437925,-0.349365,-0.312012,0.368164,0.008157,0.226613,-0.096525,0.999686,0.015972,0.014990,0.012188,-0.240487,-0.402444,-0.689630,-0.551920
34912,NaN,-0.116456,28.333131,-10.551584,0.666113,-4.467834,20.079974,2.118415,3.196295,2.769745,-0.370605,-0.305664,0.359619,-0.006752,0.284359,-0.102429,0.999720,0.010591,0.015980,0.013847,-0.217515,-0.405590,-0.693566,-0.554212
34913,NaN,-1.451915,34.302190,-11.758343,3.519327,-6.747765,25.668419,0.214214,3.359355,3.117705,-0.394287,-0.292725,0.349121,-0.021832,0.342845,-0.116890,0.999737,0.001071,0.016795,0.015587,-0.196383,-0.407226,-0.691342,-0.563602
34915,NaN,-0.731199,28.790505,-12.294317,3.173943,-17.581652,50.183344,-2.372021,3.491719,3.622889,-0.447754,-0.277588,0.305664,-0.044193,0.568536,-0.258235,0.998453,-0.023708,0.034899,0.036210,-0.161219,-0.407286,-0.669033,-0.600434
34916,NaN,1.405763,19.748417,-11.732019,-2.132081,-8.572165,11.433777,-3.482385,3.531686,3.996970,-0.467041,-0.277344,0.283203,0.008021,0.195600,-0.120914,0.999493,-0.017409,0.017655,0.019981,-0.144154,-0.407043,-0.653004,-0.622191
34917,NaN,1.966530,14.414772,-9.833937,-2.912493,-7.462890,5.810372,-3.147441,3.656832,4.062824,-0.488770,-0.258057,0.260254,0.014924,0.142908,-0.100897,0.999503,-0.015735,0.018281,0.020311,-0.125934,-0.406444,-0.637272,-0.642518
34918,NaN,1.057601,10.681500,-7.823993,-2.099597,-6.889130,1.345614,-2.366907,3.758547,3.962666,-0.508301,-0.245117,0.231201,0.006982,0.106040,-0.079652,0.999557,-0.011833,0.018790,0.019810,-0.105738,-0.405331,-0.623791,-0.659857
34919,NaN,-0.187482,8.182264,-6.340273,-0.985642,-6.630734,-1.924778,-1.391861,3.758885,3.742297,-0.525635,-0.232422,0.216553,-0.004598,0.081310,-0.063900,0.999624,-0.006958,0.018792,0.018709,-0.084475,-0.403697,-0.613384,-0.673538
34920,NaN,-1.223610,6.486626,-5.522289,-0.154834,-6.558704,-4.243771,-0.483089,3.773784,3.415196,-0.541016,-0.219482,0.199951,-0.014380,0.064500,-0.055121,0.999673,-0.002415,0.018867,0.017074,-0.062124,-0.401135,-0.606374,-0.683771
34921,NaN,-1.853459,5.294658,-5.299618,0.198843,-6.612283,-5.840103,0.215104,3.768261,2.995820,-0.552002,-0.204590,0.179199,-0.020319,0.052708,-0.052568,0.999710,0.001075,0.018839,0.014978,-0.040034,-0.397270,-0.602110,-0.691402
34922,NaN,-2.195475,4.330351,-5.344235,0.274442,-6.660313,-7.039858,0.720120,3.810707,2.500501,-0.571533,-0.191650,0.166748,-0.023506,0.043207,-0.052849,0.999734,0.003600,0.019052,0.012501,-0.018284,-0.391673,-0.600370,-0.697004
34923,NaN,-2.459277,3.645474,-5.153321,0.531704,-6.483794,-7.924741,1.110381,3.860596,1.949828,-0.578125,-0.180908,0.147949,-0.025934,0.036490,-0.050839,0.999751,0.005551,0.019301,0.009748,0.002253,-0.384061,-0.600639,-0.701231
34924,NaN,-2.910238,3.057982,-4.782766,1.040018,-6.209759,-8.789766,1.420984,3.881821,1.421810,-0.586914,-0.174561,0.129395,-0.030238,0.030704,-0.047030,0.999761,0.007104,0.019408,0.007108,0.021785,-0.374625,-0.602854,-0.704094
34925,NaN,-3.639750,2.431566,-4.182003,1.811140,-5.776115,-9.809523,1.658696,3.879703,0.935221,-0.589111,-0.176514,0.115234,-0.037311,0.024484,-0.040900,0.999767,0.008293,0.019397,0.004676,0.039848,-0.363503,-0.606393,-0.706092
34926,NaN,-4.803326,1.895961,-2.928397,3.199194,-4.865280,-10.966499,1.644444,3.786515,0.521156,-0.595459,-0.176514,0.094727,-0.048624,0.019068,-0.028211,0.999784,0.008222,0.018931,0.002606,0.056276,-0.351321,-0.610527,-0.707576
34927,NaN,-6.330664,1.486802,-2.123797,4.660321,-4.401180,-12.200919,1.269637,3.655405,0.191888,-0.601562,-0.178467,0.076172,-0.063694,0.014937,-0.019981,0.999812,0.006348,0.018276,0.000959,0.070308,-0.338536,-0.613552,-0.709932
34928,NaN,-8.268186,0.950613,-1.934378,6.110777,-4.485505,-13.754621,1.045464,3.562573,-0.143011,-0.603760,-0.180664,0.060059,-0.083001,0.009661,-0.017817,0.999827,0.005227,0.017812,-0.000715,0.082564,-0.325038,-0.616311,-0.712527
34929,NaN,-10.431721,-0.049939,-1.098548,7.757069,-3.808595,-15.757545,1.028994,3.453870,-0.510570,-0.605469,-0.191162,0.039795,-0.104487,-0.000182,-0.009183,0.999834,0.005145,0.017268,-0.002553,0.093022,-0.310665,-0.619292,-0.715061
34930,NaN,-12.811658,-1.395158,0.171270,9.544701,-2.589674,-18.076617,0.843028,3.187259,-0.874098,-0.607422,-0.195312,0.027588,-0.128128,-0.013404,0.003697,0.999855,0.004215,0.015936,-0.004370,0.101065,-0.296134,-0.622255,-0.717558
34931,NaN,-14.666097,-2.670158,0.787624,10.761083,-1.811250,-19.998366,0.605593,2.765617,-1.159568,-0.600586,-0.208008,0.011475,-0.146686,-0.025879,0.009825,0.999883,0.003028,0.013828,-0.005798,0.106369,-0.282247,-0.624686,-0.720270
34932,NaN,-15.599241,-3.663661,1.128382,11.322018,-1.176443,-21.146154,0.459266,2.194431,-1.350625,-0.600098,-0.222900,-0.002686,-0.156099,-0.035611,0.012914,0.999914,0.002296,0.010972,-0.006753,0.108904,-0.269854,-0.627180,-0.722471
34933,NaN,-15.194967,-4.085767,0.546855,10.837608,-1.370986,-21.150144,0.484949,1.554628,-1.485417,-0.586914,-0.237793,-0.010498,-0.152199,-0.039743,0.006554,0.999939,0.002425,0.007773,-0.007427,0.109036,-0.259283,-0.630063,-0.723812
34934,NaN,-13.773286,-4.148054,0.099296,9.705333,-1.453776,-20.329673,0.446927,0.912952,-1.658142,-0.580078,-0.252686,-0.010254,-0.138064,-0.040340,0.001532,0.999953,0.002235,0.004565,-0.008291,0.106289,-0.250483,-0.633445,-0.724368
34935,NaN,-11.851399,-3.439492,-0.382584,8.471661,-1.715352,-18.628360,0.040115,0.276037,-1.880143,-0.571045,-0.269775,-0.013916,-0.118835,-0.033278,-0.003669,0.999955,0.000201,0.001380,-0.009401,0.100374,-0.243479,-0.635781,-0.725552
34936,NaN,-10.202097,-1.844768,-0.092647,7.991493,-1.482239,-16.249257,-0.770810,-0.322392,-2.141070,-0.566406,-0.280273,-0.021973,-0.102209,-0.017358,-0.001023,0.999934,-0.003854,-0.001612,-0.010705,0.090360,-0.238184,-0.635846,-0.728563
34937,NaN,-9.136505,0.455050,0.062211,8.195821,-1.643203,-13.528914,-1.870570,-0.818371,-2.425573,-0.555176,-0.301514,-0.025635,-0.091302,0.005661,0.000199,0.999874,-0.009352,-0.004092,-0.012127,0.076658,-0.234252,-0.632221,-0.734538
34938,NaN,-8.644881,2.995400,0.617713,8.964061,-1.674672,-10.771846,-3.082071,-1.247091,-2.690438,-0.535645,-0.316406,-0.027344,-0.086069,0.031198,0.005165,0.999771,-0.015409,-0.006235,-0.013451,0.058863,-0.231407,-0.624513,-0.743619
34939,NaN,-8.257456,5.141193,2.108668,9.779531,-0.949773,-8.231683,-4.678390,-1.670682,-2.991730,-0.520264,-0.329346,-0.037354,-0.081954,0.053104,0.019171,0.999580,-0.023389,-0.008352,-0.014957,0.037061,-0.229540,-0.610821,-0.756859
34940,NaN,-6.963105,6.774699,3.636696,9.501705,-0.167269,-5.659833,-6.607999,-2.168521,-3.346641,-0.509277,-0.342041,-0.055420,-0.068844,0.070038,0.033328,0.999255,-0.033032,-0.010840,-0.016729,0.009747,-0.228495,-0.589718,-0.774550
34941,NaN,-3.555252,6.618081,3.412396,6.106338,-0.120837,-4.269099,-8.280411,-2.494146,-3.637658,-0.489990,-0.352783,-0.077637,-0.034724,0.068141,0.030893,0.998900,-0.041387,-0.012466,-0.018182,-0.021182,-0.227565,-0.561299,-0.795430
34942,NaN,-0.793513,6.590563,3.438162,3.320922,0.058695,-3.118851,-9.350645,-2.332997,-3.984909,-0.470703,-0.361084,-0.104004,-0.006976,0.067559,0.031163,0.998641,-0.046732,-0.011660,-0.019916,-0.054647,-0.224225,-0.527731,-0.817457
34943,NaN,-0.722207,9.050942,3.725855,3.258730,-1.420859,-0.668727,-8.679632,-1.788907,-4.431325,-0.451416,-0.369629,-0.130371,-0.005501,0.092145,0.033228,0.998773,-0.043380,-0.008941,-0.022148,-0.087159,-0.217187,-0.496110,-0.836127
34944,NaN,-2.089858,10.710863,6.201870,5.055045,-1.423394,1.584738,-6.057210,-1.408369,-4.807753,-0.427490,-0.386719,-0.148438,-0.018708,0.109385,0.058591,0.999228,-0.030278,-0.007040,-0.024033,-0.117729,-0.208168,-0.475081,-0.846820
34945,NaN,-2.554386,12.617652,11.922566,7.487248,1.234395,6.006502,-2.912555,-1.601432,-4.946991,-0.412354,-0.395264,-0.152344,-0.023328,0.128488,0.117173,0.999556,-0.014561,-0.008006,-0.024731,-0.145484,-0.201381,-0.466755,-0.848776
34946,NaN,-3.276140,17.076143,16.789847,9.588572,1.983888,12.285247,-0.518367,-1.912272,-5.038646,-0.377686,-0.416748,-0.147705,-0.030039,0.171975,0.167158,0.999634,-0.002592,-0.009560,-0.025190,-0.172306,-0.197089,-0.468097,-0.844009
34947,NaN,-6.427487,24.867652,16.633575,10.821953,-3.255651,18.623414,1.603451,-2.370810,-4.925415,-0.360107,-0.437988,-0.124756,-0.060129,0.248851,0.167601,0.999594,0.008016,-0.011852,-0.024624,-0.197017,-0.196857,-0.477492,-0.833326
34948,NaN,-9.002022,35.000730,14.186667,9.775634,-10.113092,26.371988,3.524637,-2.985296,-4.373112,-0.344727,-0.453125,-0.099854,-0.084542,0.349338,0.146738,0.999494,0.017620,-0.014924,-0.021862,-0.219383,-0.202016,-0.493275,-0.817154
34949,NaN,-12.679546,38.857498,10.547308,10.068829,-14.929066,28.363591,4.863085,-3.505066,-3.136313,-0.331543,-0.465820,-0.066895,-0.122642,0.387837,0.112737,0.999428,0.024311,-0.017522,-0.015679,-0.235831,-0.213807,-0.512190,-0.797704
34950,NaN,-9.059508,37.615794,7.667548,6.045815,-12.765383,27.011659,5.552965,-4.085218,-2.272779,-0.320557,-0.474609,-0.031982,-0.088013,0.374880,0.085282,0.999341,0.027759,-0.020422,-0.011361,-0.249948,-0.230458,-0.531598,-0.775770
34951,NaN,-4.600498,32.600264,6.313119,3.198728,-7.880044,22.610672,5.137885,-4.091421,-1.666702,-0.310059,-0.476807,0.005127,-0.044689,0.324629,0.070560,0.999426,0.025685,-0.020453,-0.008332,-0.261250,-0.248170,-0.548035,-0.754863
34952,NaN,-1.277215,26.999643,5.258269,1.400569,-3.810828,17.421037,4.166310,-3.962832,-1.358671,-0.303467,-0.481201,0.037842,-0.012056,0.268910,0.057949,0.999564,0.020829,-0.019811,-0.006792,-0.272676,-0.264508,-0.560026,-0.736243
34953,NaN,0.503326,23.668011,4.474792,0.504558,-1.604579,14.220044,3.123585,-3.916008,-1.111009,-0.299072,-0.483398,0.062500,0.005420,0.235912,0.048540,0.999671,0.015616,-0.019578,-0.005554,-0.283537,-0.279969,-0.567479,-0.720549
34954,NaN,1.047721,21.259457,3.288315,-0.136132,-1.015704,11.700231,2.019261,-3.759057,-0.971203,-0.284424,-0.481445,0.080811,0.010861,0.212195,0.035229,0.999761,0.010096,-0.018794,-0.004856,-0.295520,-0.293332,-0.570626,-0.707820
34955,NaN,0.336526,18.694233,1.493979,-0.626907,-1.952729,8.831606,0.888027,-3.504991,-0.895379,-0.275879,-0.481445,0.101318,0.003930,0.186857,0.015835,0.999827,0.004440,-0.017524,-0.004477,-0.307362,-0.304428,-0.569815,-0.698687
34956,NaN,-0.076773,15.420582,-0.119915,-1.381409,-2.562677,5.331202,-0.045290,-3.231392,-0.880213,-0.273682,-0.485840,0.105469,-0.000069,0.154207,-0.001239,0.999860,-0.000226,-0.016156,-0.004401,-0.320354,-0.312878,-0.565916,-0.692257
34957,NaN,0.139814,12.955458,-0.894427,-2.033299,-2.371283,2.793010,-0.704366,-3.022324,-0.965934,-0.261230,-0.479492,0.113770,0.002163,0.129513,-0.009372,0.999868,-0.003522,-0.015111,-0.004829,-0.333335,-0.319421,-0.560085,-0.687868
34958,NaN,0.764121,11.424125,-1.544601,-2.944698,-1.897408,1.196647,-1.035728,-2.836020,-1.167873,-0.256836,-0.483643,0.109619,0.008531,0.114112,-0.015920,0.999869,-0.005178,-0.014179,-0.005839,-0.347550,-0.323910,-0.553558,-0.684006
34959,NaN,1.525084,9.988591,-2.613159,-4.252383,-1.502061,-0.400824,-1.178319,-2.626369,-1.389666,-0.243896,-0.485840,0.115967,0.016290,0.099620,-0.026510,0.999872,-0.005891,-0.013131,-0.006948,-0.361462,-0.326942,-0.547156,-0.680496
34960,NaN,2.604797,8.277464,-3.927167,-5.853469,-0.836742,-2.345718,-1.184997,-2.393413,-1.637262,-0.229004,-0.490234,0.118164,0.027194,0.082322,-0.039439,0.999877,-0.005925,-0.011967,-0.008186,-0.376061,-0.328193,-0.541394,-0.676580
34961,NaN,3.605022,6.654841,-5.131104,-7.242197,-0.137447,-4.232604,-1.004075,-2.129711,-1.849495,-0.216064,-0.494629,0.124268,0.037208,0.065950,-0.051251,0.999888,-0.005020,-0.010648,-0.009247,-0.389715,-0.328452,-0.536979,-0.672232
34962,NaN,4.574549,5.457085,-5.989993,-8.305785,0.692235,-5.675628,-0.620032,-1.880389,-2.023697,-0.197021,-0.499023,0.124512,0.046855,0.053915,-0.059631,0.999900,-0.003100,-0.009402,-0.010118,-0.403049,-0.327873,-0.534514,-0.666593
34963,NaN,5.698726,4.587925,-6.565236,-9.172700,1.756796,-6.747275,-0.024254,-1.607342,-2.113054,-0.186279,-0.501221,0.134766,0.057993,0.045262,-0.065194,0.999912,-0.000121,-0.008036,-0.010565,-0.414418,-0.327491,-0.534622,-0.659687
34964,NaN,6.868262,3.380051,-6.461693,-9.328515,3.173341,-8.008216,0.768219,-1.340321,-2.032017,-0.171387,-0.501221,0.149170,0.069453,0.033344,-0.064025,0.999919,0.003841,-0.006701,-0.010160,-0.423814,-0.327840,-0.537710,-0.650977
34965,NaN,8.188759,1.649804,-5.638025,-8.752662,4.991590,-9.618583,1.711132,-1.128893,-1.852597,-0.156494,-0.503418,0.167725,0.082355,0.016216,-0.055777,0.999905,0.008555,-0.005644,-0.009263,-0.430059,-0.330114,-0.543884,-0.640519
34966,NaN,9.444934,-0.036390,-4.385657,-7.753788,6.825901,-11.126826,2.542943,-0.976211,-1.608268,-0.145752,-0.510010,0.184326,0.094658,-0.000571,-0.043401,0.999875,0.012714,-0.004881,-0.008041,-0.433913,-0.334123,-0.552584,-0.628277
34967,NaN,10.705005,-1.293885,-3.252002,-6.956959,8.505902,-12.281853,3.131120,-0.844693,-1.332365,-0.131348,-0.499512,0.206543,0.107100,-0.013146,-0.032272,0.999846,0.015655,-0.004223,-0.006661,-0.435160,-0.339822,-0.562740,-0.615208
34968,NaN,11.699894,-1.829791,-1.842495,-5.935428,9.989230,-12.747971,3.503323,-0.839234,-1.170043,-0.118408,-0.503662,0.227295,0.116967,-0.018661,-0.018259,0.999821,0.017516,-0.004196,-0.005850,-0.435297,-0.346546,-0.573642,-0.601129
34969,NaN,12.718396,-1.265206,-1.212802,-5.765167,11.201628,-12.285477,3.718725,-0.788469,-1.067950,-0.110352,-0.489014,0.245361,0.127162,-0.013109,-0.011868,0.999805,0.018592,-0.003942,-0.005339,-0.434265,-0.353862,-0.584853,-0.586636
34970,NaN,13.015350,0.264425,-0.604539,-5.383961,11.822907,-10.844739,3.728829,-0.626594,-0.888045,-0.104004,-0.491211,0.263916,0.130182,0.002173,-0.005594,0.999811,0.018643,-0.003133,-0.004440,-0.432148,-0.361056,-0.595933,-0.572495
34971,NaN,13.176235,2.404119,0.039264,-4.873099,12.435108,-8.806165,3.481991,-0.433304,-0.694867,-0.089355,-0.482910,0.280029,0.131843,0.023568,0.001091,0.999840,0.017409,-0.002166,-0.003474,-0.429097,-0.367675,-0.606135,-0.559725
34972,NaN,13.042737,4.251055,0.964667,-3.893690,12.897795,-7.056151,3.035133,-0.163627,-0.475215,-0.079102,-0.476562,0.302490,0.130519,0.042047,0.010394,0.999882,0.015175,-0.000818,-0.002376,-0.425336,-0.373135,-0.615093,-0.549109
34973,NaN,12.724477,5.119130,1.673483,-3.016607,13.009721,-6.268043,2.321926,0.205947,-0.216235,-0.070557,-0.474609,0.318848,0.127317,0.050856,0.017195,0.999931,0.011609,0.001030,-0.001081,-0.420958,-0.376799,-0.622280,-0.541835
34974,NaN,12.031088,5.128423,1.935890,-2.475601,12.486816,-6.242501,1.556719,0.541138,0.036419,-0.068359,-0.476562,0.329102,0.120354,0.051155,0.019432,0.999966,0.007784,0.002706,0.000182,-0.416205,-0.378735,-0.627518,-0.538102
34975,NaN,11.248183,5.081256,1.848057,-2.289758,11.724409,-6.200053,0.837807,0.817269,0.241049,-0.068359,-0.476807,0.335449,0.112495,0.050871,0.018234,0.999982,0.004189,0.004086,0.001205,-0.411421,-0.379011,-0.631019,-0.537493
34976,NaN,10.598091,5.895103,0.876912,-2.982738,10.849359,-5.204600,0.204560,1.048884,0.391395,-0.059814,-0.483154,0.345703,0.105910,0.059150,0.008274,0.999984,0.001023,0.005244,0.001957,-0.406590,-0.377912,-0.632902,-0.539725
34977,NaN,9.397230,7.393347,-0.847504,-4.150570,9.232329,-3.392189,-0.306164,1.222024,0.429104,-0.057617,-0.483154,0.351807,0.093759,0.074121,-0.009162,0.999978,-0.001531,0.006110,0.002146,-0.402157,-0.375322,-0.633748,-0.543843
34978,NaN,8.350521,9.834661,-2.168527,-4.984818,7.966337,-0.711027,-0.853183,1.219249,0.259780,-0.061523,-0.495850,0.354004,0.083241,0.098360,-0.022613,0.999971,-0.004266,0.006096,0.001299,-0.399045,-0.371210,-0.633273,-0.549483
34979,NaN,8.271213,14.119027,-4.425164,-7.065289,7.368605,3.719529,-1.225103,1.148726,0.004724,-0.065674,-0.498047,0.364258,0.082450,0.140916,-0.045589,0.999965,-0.006125,0.005744,0.000024,-0.397678,-0.365593,-0.632181,-0.555465
34980,NaN,6.979144,19.779396,-5.125956,-7.286890,6.296133,9.512227,-1.323898,1.741109,0.614886,-0.073730,-0.510742,0.366455,0.068726,0.197659,-0.053170,0.999935,-0.006619,0.008705,0.003074,-0.392657,-0.360178,-0.630694,-0.564195
34981,NaN,2.833070,24.024895,-4.373426,-4.986021,2.911824,14.082622,-1.320882,2.195854,1.160398,-0.088135,-0.519287,0.366699,0.026443,0.240109,-0.045618,0.999901,-0.006604,0.010979,0.005802,-0.384823,-0.354996,-0.629140,-0.574519
34982,NaN,0.379471,29.340151,-6.833023,-6.101791,-0.516819,19.685484,-0.870038,2.447643,1.526071,-0.109131,-0.523438,0.380859,0.000711,0.293114,-0.069627,0.999887,-0.004350,0.012238,0.007630,-0.373971,-0.351196,-0.628469,-0.584666
34983,NaN,2.392338,32.854118,-11.220494,-10.660805,-1.332801,23.285796,0.116276,2.837441,1.952432,-0.136475,-0.527588,0.389160,0.019121,0.328809,-0.112308,0.999852,0.000581,0.014187,0.009762,-0.359112,-0.349184,-0.630605,-0.592829
34984,NaN,5.049781,32.078682,-14.400637,-14.083977,-1.596505,22.758157,1.224719,3.273703,2.587864,-0.172607,-0.527344,0.403320,0.043990,0.322261,-0.142791,0.999764,0.006123,0.016367,0.012938,-0.338545,-0.349885,-0.635391,-0.599371
34985,NaN,3.536317,31.817459,-13.163254,-11.174019,-3.277044,22.780057,1.886452,3.699205,3.493591,-0.210938,-0.520996,0.419434,0.027380,0.319926,-0.129176,0.999632,0.009431,0.018494,0.017466,-0.312927,-0.352944,-0.640972,-0.605526
34986,NaN,-0.262444,34.297200,-9.445952,-4.491206,-5.450682,25.050883,1.183862,3.992566,3.724169,-0.259521,-0.522705,0.415039,-0.010873,0.343371,-0.092265,0.999610,0.005919,0.019960,0.018618,-0.286165,-0.354611,-0.643996,-0.614516
34987,NaN,-3.416292,34.206248,-7.972281,-0.332115,-8.329222,24.474101,-0.326464,4.190000,3.811191,-0.312500,-0.522461,0.404541,-0.042337,0.341178,-0.079450,0.999598,-0.001632,0.020947,0.019053,-0.261455,-0.353381,-0.641985,-0.628187
34988,NaN,-3.344634,28.451847,-7.730207,-0.062449,-9.180628,18.400437,-1.471617,4.243548,3.878090,-0.356934,-0.524414,0.385986,-0.040605,0.283202,-0.078578,0.999560,-0.007357,0.021215,0.019388,-0.237654,-0.350504,-0.635819,-0.645292
34989,NaN,-2.304232,22.809168,-6.965362,-0.366108,-8.634298,12.531504,-1.996123,4.239551,3.983635,-0.401123,-0.528320,0.359375,-0.029070,0.226846,-0.071348,0.999527,-0.009979,0.021194,0.019915,-0.214738,-0.346935,-0.627150,-0.663481
34990,NaN,-2.428191,18.237975,-5.656175,0.467093,-8.250900,7.569133,-1.998109,4.120018,4.074860,-0.447754,-0.532471,0.330566,-0.029165,0.181245,-0.057809,0.999530,-0.009989,0.020597,0.020371,-0.191206,-0.343804,-0.617658,-0.680983
34991,NaN,-3.148654,14.690306,-4.221714,1.822713,-7.844108,3.552799,-1.677910,4.051141,4.053883,-0.481934,-0.523682,0.297607,-0.035313,0.145856,-0.042754,0.999554,-0.008388,0.020253,0.020266,-0.167722,-0.340756,-0.608589,-0.696688
34992,NaN,-4.566461,11.562242,-2.814032,3.641601,-7.515217,-0.185336,-1.236357,4.032462,3.953669,-0.522217,-0.521240,0.266602,-0.048500,0.114509,-0.027892,0.999582,-0.006181,0.020160,0.019766,-0.143293,-0.337618,-0.600776,-0.710316
34993,NaN,-5.736863,8.501478,-1.744075,4.943195,-6.856759,-3.749724,-0.822830,3.963525,3.707894,-0.554199,-0.512451,0.239746,-0.059265,0.083858,-0.016625,0.999623,-0.004114,0.019815,0.018537,-0.119584,-0.333947,-0.594222,-0.721858
34994,NaN,-6.314734,5.939794,-1.270514,5.400686,-6.113994,-6.617296,-0.452863,3.731458,3.293743,-0.580078,-0.501709,0.212891,-0.064338,0.058318,-0.011645,0.999688,-0.002264,0.018655,0.016467,-0.096979,-0.329935,-0.589249,-0.731111
34995,NaN,-6.267169,4.345042,-1.283527,5.197410,-5.526057,-8.314351,-0.060484,3.486721,2.824053,-0.597412,-0.493164,0.187988,-0.063488,0.042554,-0.011746,0.999748,-0.000302,0.017432,0.014119,-0.076488,-0.325382,-0.585925,-0.738219
34996,NaN,-6.047110,3.661081,-1.629451,4.844404,-5.348246,-9.072690,0.272426,3.204307,2.328041,-0.610107,-0.488770,0.165527,-0.061142,0.035923,-0.015269,0.999803,0.001362,0.016020,0.011639,-0.057783,-0.320445,-0.584376,-0.743291
34997,NaN,-5.649323,3.691330,-2.477554,4.263042,-5.745768,-9.115352,0.558794,2.989704,1.859358,-0.627197,-0.486572,0.148926,-0.057194,0.036451,-0.023822,0.999841,0.002794,0.014948,0.009296,-0.041261,-0.314862,-0.584258,-0.746862
34998,NaN,-5.526549,3.950594,-3.182338,4.073402,-6.248986,-9.019134,0.793413,2.850471,1.454218,-0.629395,-0.484375,0.136719,-0.055996,0.039224,-0.030873,0.999864,0.003967,0.014252,0.007271,-0.026055,-0.308602,-0.585575,-0.749124
34999,NaN,-5.898023,3.869519,-3.191325,4.536289,-6.255191,-9.328652,0.959912,2.734001,1.102191,-0.633789,-0.475830,0.124268,-0.059620,0.038518,-0.030916,0.999880,0.004799,0.013669,0.005511,-0.012466,-0.301662,-0.587769,-0.750581
35000,NaN,-6.629488,3.194678,-3.058564,5.153050,-6.060723,-10.281817,1.052856,2.616324,0.780825,-0.638184,-0.477783,0.115967,-0.066810,0.031844,-0.029546,0.999893,0.005264,0.013081,0.003904,-0.000131,-0.294174,-0.590800,-0.751277
35001,NaN,-7.486452,2.013053,-2.756873,5.749876,-5.576668,-11.692867,1.217616,2.523024,0.464262,-0.642334,-0.475586,0.109863,-0.075250,0.020120,-0.026499,0.999899,0.006088,0.012615,0.002321,0.010829,-0.286024,-0.594646,-0.751311
35002,NaN,-8.676008,0.507588,-1.856933,6.726568,-4.541754,-13.432179,1.386583,2.384456,0.134864,-0.640137,-0.479980,0.099854,-0.086976,0.005141,-0.017498,0.999905,0.006933,0.011922,0.000674,0.020457,-0.277356,-0.599651,-0.750382
35003,NaN,-9.808254,-1.094340,-0.804006,7.630642,-3.304869,-15.187968,1.532852,2.181948,-0.205979,-0.637939,-0.484131,0.097656,-0.098174,-0.010786,-0.007052,0.999911,0.007664,0.010909,-0.001030,0.028321,-0.268354,-0.605424,-0.748763
