// Start Time: Unknown
// Update Rate: 100.0Hz
// Filter Profile: human (46.1)
// Firmware Version: 4.4.0
PacketCounter,SampleTimeFine,Acc_X,Acc_Y,Acc_Z,FreeAcc_X,FreeAcc_Y,FreeAcc_Z,Gyr_X,Gyr_Y,Gyr_Z,Mag_X,Mag_Y,Mag_Z,VelInc_X,VelInc_Y,VelInc_Z,OriInc_q0,OriInc_q1,OriInc_q2,OriInc_q3,Quat_q0,Quat_q1,Quat_q2,Quat_q3
20738,NaN,9.336310,3.420436,-0.626880,-0.000000,0.000000,0.150195,-0.151547,-0.065538,0.154135,-0.912109,0.034668,0.114258,0.093339,0.034272,-0.006264,0.999999,-0.000758,-0.000328,0.000771,0.335743,-0.473115,-0.554617,-0.596522
20739,NaN,9.390141,3.801214,-0.923748,-0.000000,0.000000,0.359689,-0.185170,-0.057270,0.263750,-0.920898,0.036621,0.122803,0.093854,0.038127,-0.009246,0.999999,-0.000926,-0.000286,0.001319,0.336435,-0.454250,-0.582325,-0.584265
20740,NaN,9.438805,4.554461,-1.248245,0.770406,-0.579081,0.697464,-0.223153,-0.017830,0.400842,-0.908203,0.043213,0.120605,0.094298,0.045720,-0.012525,0.999997,-0.001116,-0.000089,0.002004,0.336835,-0.464876,-0.567528,-0.590207
20741,NaN,9.349860,4.933209,-1.693261,1.119893,-1.097659,0.778077,-0.266916,0.041973,0.534316,-0.923340,0.047363,0.122559,0.093363,0.049559,-0.017018,0.999996,-0.001335,0.000210,0.002672,0.337909,-0.466716,-0.565425,-0.590159
20742,NaN,9.658068,4.650800,-2.050020,0.750356,-1.401797,0.984640,-0.268741,0.110796,0.682947,-0.910645,0.051758,0.118164,0.096410,0.046810,-0.020616,0.999993,-0.001344,0.000554,0.003415,0.339604,-0.468774,-0.562851,-0.590016
20743,NaN,9.839273,4.442699,-2.064935,0.568179,-1.406142,1.073634,-0.208812,0.218714,0.859361,-0.924072,0.064697,0.120117,0.098178,0.044827,-0.020803,0.999990,-0.001044,0.001094,0.004297,0.342261,-0.470896,-0.559844,-0.589651
20744,NaN,9.385442,4.630354,-2.017745,0.986437,-1.493762,0.694098,-0.166626,0.341572,1.014956,-0.915527,0.068848,0.115967,0.093583,0.046762,-0.020376,0.999985,-0.000833,0.001708,0.005075,0.345785,-0.473010,-0.556397,-0.589165
20745,NaN,8.761724,4.683413,-2.238591,1.295483,-1.853411,0.116999,-0.112699,0.417813,1.193143,-0.918213,0.083984,0.117676,0.087289,0.047343,-0.022595,0.999980,-0.000563,0.002089,0.005966,0.350189,-0.475284,-0.552510,-0.588392
20746,NaN,8.840345,4.421367,-1.882929,1.202975,-1.520483,0.060754,-0.053688,0.463485,1.365858,-0.914307,0.096680,0.106934,0.088055,0.044811,-0.019046,0.999974,-0.000268,0.002317,0.006829,0.355265,-0.477774,-0.548366,-0.587209
20747,NaN,9.311521,3.821206,-1.445640,0.708939,-1.022831,0.279142,0.006384,0.508835,1.482427,-0.921143,0.105469,0.104492,0.092791,0.038901,-0.014692,0.999969,0.000032,0.002544,0.007412,0.361016,-0.480319,-0.543922,-0.585755
20748,NaN,9.669551,2.890898,-0.808374,-0.019837,-0.293916,0.307682,0.059693,0.534052,1.560734,-0.915283,0.126709,0.095703,0.096444,0.029665,-0.008333,0.999966,0.000298,0.002670,0.007804,0.367019,-0.482870,-0.539516,-0.584001
20749,NaN,9.844501,1.236902,-0.292965,-1.403706,0.398724,0.005576,0.077528,0.543225,1.579135,-0.926514,0.139648,0.095459,0.098335,0.013147,-0.003192,0.999965,0.000388,0.002716,0.007896,0.373270,-0.485384,-0.534914,-0.582185
20750,NaN,9.127244,0.149689,0.158898,-2.050175,0.875872,-0.959329,0.103172,0.518809,1.576820,-0.911865,0.154541,0.088867,0.091261,0.002216,0.001353,0.999965,0.000516,0.002594,0.007884,0.379367,-0.487909,-0.530524,-0.580146
20751,NaN,9.026937,-0.404672,0.544929,-2.366746,1.264473,-1.167221,0.127122,0.504732,1.563329,-0.916748,0.169678,0.084229,0.090311,-0.003344,0.005219,0.999966,0.000636,0.002524,0.007817,0.385538,-0.490334,-0.526104,-0.578055
20752,NaN,8.905620,-0.282415,1.474959,-1.947479,2.089856,-1.245108,0.135969,0.542884,1.540937,-0.908203,0.174072,0.080078,0.089114,-0.002148,0.014506,0.999966,0.000680,0.002714,0.007705,0.391768,-0.492651,-0.521646,-0.575932
20753,NaN,8.380095,0.379881,1.816788,-1.028961,2.229754,-1.588395,0.152747,0.566127,1.515978,-0.915527,0.195312,0.077637,0.083820,0.004420,0.017934,0.999967,0.000764,0.002831,0.007580,0.397973,-0.494660,-0.517226,-0.573940
20754,NaN,8.281910,1.089360,1.797809,-0.206447,2.035201,-1.516744,0.053475,0.541694,1.540459,-0.903076,0.208252,0.064453,0.082780,0.011527,0.017757,0.999967,0.000267,0.002708,0.007702,0.404090,-0.497098,-0.512292,-0.571980
20755,NaN,8.641905,1.107212,1.035433,-0.247281,1.234745,-1.129770,-0.145679,0.440236,1.588978,-0.907715,0.223389,0.068604,0.086350,0.011766,0.010156,0.999966,-0.000728,0.002201,0.007945,0.409386,-0.500187,-0.507019,-0.570217
20756,NaN,9.860147,1.298294,0.123953,-0.253766,0.286635,0.125849,-0.394583,0.339585,1.644392,-0.897461,0.238281,0.066162,0.098492,0.013795,0.001046,0.999963,-0.001973,0.001698,0.008222,0.414220,-0.504225,-0.500766,-0.568694
20757,NaN,11.376777,0.578011,-0.756098,-1.156249,-0.484513,1.534657,-0.489707,0.313185,1.644694,-0.902344,0.253174,0.070312,0.113703,0.006697,-0.007755,0.999962,-0.002449,0.001566,0.008223,0.418430,-0.508447,-0.494560,-0.567282
20758,NaN,12.482910,1.253493,-1.386685,-0.555167,-1.262819,2.733657,-0.409826,0.344754,1.626490,-0.891846,0.261963,0.057373,0.124698,0.013521,-0.014109,0.999963,-0.002049,0.001724,0.008132,0.423087,-0.512474,-0.488229,-0.565685
20759,NaN,11.497728,0.806786,-1.603716,-0.733955,-1.504387,1.703202,-0.245312,0.415492,1.609137,-0.894531,0.276855,0.065674,0.114874,0.008973,-0.016287,0.999965,-0.001227,0.002077,0.008046,0.428009,-0.515728,-0.482516,-0.563925
20760,NaN,10.470995,-0.655833,-1.417547,-1.859475,-1.165649,0.544069,-0.115279,0.404963,1.621696,-0.888672,0.289795,0.050537,0.104730,-0.005717,-0.014384,0.999965,-0.000576,0.002025,0.008108,0.433437,-0.518960,-0.476908,-0.561580
20761,NaN,9.591228,-1.507280,-0.544554,-2.322344,-0.233764,-0.372874,-0.007079,0.380181,1.592894,-0.891357,0.311279,0.054443,0.096018,-0.014309,-0.005627,0.999966,-0.000035,0.001901,0.007964,0.438784,-0.521689,-0.471915,-0.559112
20762,NaN,9.569752,-2.799461,0.462746,-3.269173,0.915361,-0.426326,0.119721,0.387605,1.543316,-0.881104,0.326172,0.045654,0.095918,-0.027258,0.004425,0.999968,0.000599,0.001938,0.007716,0.444606,-0.524368,-0.467057,-0.556077
20763,NaN,9.889584,-2.664356,1.282577,-2.884319,1.631840,-0.037029,0.193143,0.421330,1.444836,-0.879395,0.339111,0.045654,0.099112,-0.025940,0.012592,0.999971,0.000966,0.002107,0.007224,0.450101,-0.526126,-0.462856,-0.553503
20764,NaN,10.106361,-2.225238,1.519251,-2.276056,1.714708,0.250906,0.246918,0.472374,1.326325,-0.873291,0.345459,0.032715,0.101244,-0.021600,0.014927,0.999974,0.001235,0.002362,0.006632,0.456056,-0.527866,-0.458384,-0.550686
20765,NaN,9.430784,-2.455216,1.412409,-2.392346,1.586089,-0.393438,0.242115,0.506720,1.227129,-0.873779,0.358398,0.038818,0.094492,-0.023990,0.013856,0.999977,0.001211,0.002534,0.006136,0.461225,-0.528719,-0.454646,-0.548657
20766,NaN,8.096481,-3.098034,1.276180,-2.915560,1.520799,-1.690790,0.135505,0.429111,1.119146,-0.865479,0.369141,0.032227,0.081164,-0.030535,0.012567,0.999982,0.000678,0.002146,0.005596,0.466361,-0.530335,-0.450236,-0.546388
20767,NaN,7.377296,-3.964658,1.307159,-3.689551,1.667129,-2.365614,0.041850,0.310461,0.998491,-0.867920,0.379639,0.027832,0.073990,-0.039280,0.012949,0.999986,0.000209,0.001552,0.004992,0.469893,-0.531630,-0.446973,-0.544781
20768,NaN,7.005504,-3.965910,1.578463,-3.562297,1.909884,-2.674129,0.044422,0.197940,0.869964,-0.853027,0.384033,0.025635,0.070242,-0.039357,0.015706,0.999990,0.000222,0.000990,0.004350,0.473827,-0.533651,-0.443180,-0.542491
20769,NaN,6.918000,-4.108831,1.803302,-3.615486,2.136609,-2.716493,0.025732,0.083133,0.744108,-0.859619,0.390381,0.029785,0.069340,-0.040833,0.017999,0.999993,0.000129,0.000416,0.003721,0.476095,-0.535009,-0.441064,-0.540889
20770,NaN,6.717814,-4.316375,1.966904,-3.725312,2.320371,-2.858081,-0.035370,-0.038551,0.610940,-0.851318,0.394775,0.027832,0.067306,-0.042955,0.019690,0.999995,-0.000177,-0.000193,0.003055,0.478766,-0.537313,-0.438054,-0.538690
20771,NaN,6.388350,-5.039250,1.916868,-4.419576,2.402796,-3.136370,-0.091811,-0.171408,0.470727,-0.860107,0.401123,0.027588,0.063985,-0.050233,0.019247,0.999997,-0.000459,-0.000857,0.002354,0.479410,-0.539024,-0.436951,-0.537302
20772,NaN,6.159443,-5.764765,1.977936,-5.070790,2.591663,-3.281704,-0.120267,-0.300218,0.304703,-0.851318,0.398926,0.031982,0.061652,-0.057542,0.019907,0.999998,-0.000601,-0.001501,0.001524,0.480827,-0.541718,-0.434693,-0.535154
20773,NaN,6.596529,-5.647906,1.943813,-4.919580,2.548115,-2.848768,-0.131482,-0.437861,0.096020,-0.855957,0.407471,0.040283,0.065950,-0.056435,0.019620,0.999997,-0.000657,-0.002189,0.000480,0.479775,-0.543413,-0.435132,-0.534021
20774,NaN,8.702550,-4.839986,2.245953,-3.901170,2.658779,-0.761965,-0.213863,-0.558745,-0.100158,-0.847168,0.401123,0.042725,0.086938,-0.048419,0.022754,0.999995,-0.001069,-0.002794,-0.000501,0.479646,-0.546302,-0.433993,-0.532113
20775,NaN,12.289906,-4.196167,2.597343,-3.011745,2.845720,2.766116,-0.280940,-0.610466,-0.321055,-0.857910,0.394775,0.055664,0.122751,-0.042122,0.026407,0.999993,-0.001405,-0.003052,-0.001605,0.476696,-0.547900,-0.435584,-0.531821
20776,NaN,15.887569,-2.969495,2.913502,-1.494551,2.901659,6.282860,-0.266545,-0.530664,-0.533812,-0.857666,0.390381,0.051270,0.158718,-0.030079,0.029596,0.999992,-0.001333,-0.002653,-0.002669,0.475421,-0.549821,-0.435358,-0.531164
20777,NaN,17.359443,-1.973794,3.318410,-0.444744,3.194752,7.675939,-0.278845,-0.418295,-0.720311,-0.862061,0.392578,0.064209,0.173452,-0.020316,0.033575,0.999990,-0.001394,-0.002091,-0.003602,0.471826,-0.550022,-0.437588,-0.532328
20778,NaN,17.761902,-1.905491,2.714054,-0.459875,2.617196,8.059595,-0.380883,-0.413717,-0.899212,-0.854980,0.373291,0.066650,0.177474,-0.019801,0.027545,0.999986,-0.001904,-0.002069,-0.004496,0.469777,-0.551090,-0.437363,-0.533219
20779,NaN,17.933553,-2.153455,1.878301,-0.994354,1.949770,8.214616,-0.444289,-0.454248,-1.086637,-0.867676,0.364746,0.071045,0.179172,-0.022466,0.019239,0.999980,-0.002221,-0.002271,-0.005433,0.464653,-0.550958,-0.440231,-0.535481
20780,NaN,18.527023,-2.200087,1.532167,-1.179499,1.681355,8.794161,-0.330905,-0.509387,-1.288861,-0.867188,0.351807,0.077637,0.185084,-0.023168,0.015831,0.999975,-0.001655,-0.002547,-0.006444,0.460949,-0.550919,-0.441844,-0.537390
20781,NaN,19.412290,-2.014689,1.719354,-1.178410,1.982488,9.643013,-0.027649,-0.619211,-1.558779,-0.877441,0.341064,0.084229,0.193904,-0.021656,0.017797,0.999965,-0.000138,-0.003096,-0.007794,0.455300,-0.549184,-0.447475,-0.539319
20782,NaN,21.296530,-1.414527,2.777279,-0.585033,3.035763,11.487097,0.455071,-0.721670,-1.958598,-0.872314,0.317383,0.084473,0.212711,-0.016294,0.028505,0.999943,0.002275,-0.003608,-0.009793,0.451555,-0.546415,-0.453399,-0.540331
20783,NaN,22.736540,0.271106,4.171142,0.844672,4.361619,12.873225,1.124227,-0.730086,-2.514921,-0.886719,0.291748,0.091309,0.227219,-0.000384,0.042545,0.999898,0.005621,-0.003650,-0.012574,0.446130,-0.540094,-0.464909,-0.541411
20784,NaN,23.168765,4.923565,4.676522,4.923815,4.298577,13.427895,1.711202,-0.626395,-3.031953,-0.887695,0.261719,0.083008,0.232246,0.045311,0.047891,0.999844,0.008556,-0.003132,-0.015159,0.442216,-0.531241,-0.476921,-0.542931
20785,NaN,21.709960,8.388847,3.678656,7.487178,3.132587,12.307099,2.034626,-0.605637,-3.498896,-0.899658,0.231689,0.087891,0.218404,0.079691,0.038272,0.999791,0.010172,-0.003028,-0.017493,0.436584,-0.519933,-0.492977,-0.544094
20786,NaN,19.136266,10.633304,1.814091,8.880700,1.217679,10.240486,2.276244,-0.576114,-3.893151,-0.896240,0.199707,0.077637,0.193326,0.102363,0.019876,0.999742,0.011380,-0.002880,-0.019464,0.430668,-0.506808,-0.508289,-0.547095
20787,NaN,15.383461,10.535751,0.666110,8.362744,0.359074,6.859801,2.207624,-0.585647,-4.168775,-0.909912,0.158936,0.086670,0.155962,0.102036,0.008254,0.999718,0.011037,-0.002928,-0.020842,0.423247,-0.492919,-0.526009,-0.548823
20788,NaN,13.000515,7.027736,-0.023050,4.551724,0.119057,4.245464,2.105394,-0.459332,-4.412638,-0.910645,0.115967,0.087402,0.131512,0.067382,0.000790,0.999699,0.010526,-0.002296,-0.022061,0.414096,-0.477706,-0.541849,-0.553824
20789,NaN,12.029083,5.378846,-1.678613,2.434481,-1.262000,3.183545,1.883501,-0.029547,-4.475206,-0.919922,0.073242,0.087891,0.121459,0.051234,-0.016278,0.999705,0.009417,-0.000148,-0.022374,0.405998,-0.461623,-0.557655,-0.557755
20790,NaN,8.465972,5.140467,-4.519813,2.422422,-4.248459,-0.086509,1.414894,0.515056,-4.105795,-0.916504,0.041016,0.071289,0.085579,0.049973,-0.045061,0.999761,0.007074,0.002575,-0.020527,0.398024,-0.445364,-0.568563,-0.565654
20791,NaN,3.412112,2.444672,-5.906329,1.030189,-5.789350,-5.578838,1.001582,0.723260,-3.174809,-0.921875,0.009033,0.071777,0.034293,0.024199,-0.059065,0.999855,0.005008,0.003616,-0.015873,0.393271,-0.432232,-0.576945,-0.570656
20792,NaN,4.368307,-6.448389,-6.574206,-7.785868,-6.182093,-7.566683,0.551408,0.041179,-1.813132,-0.915039,-0.001709,0.069824,0.043084,-0.064695,-0.065929,0.999955,0.002757,0.000206,-0.009066,0.388179,-0.425753,-0.581198,-0.574683
20793,NaN,10.789366,-9.775026,-6.608694,-13.093631,-5.817890,-2.717269,0.088165,-0.628662,-0.390200,-0.919189,-0.008301,0.078369,0.107910,-0.097932,-0.065791,0.999993,0.000441,-0.003143,-0.001951,0.385412,-0.426246,-0.583500,-0.573846
20794,NaN,9.380142,1.112337,-4.811654,-2.322330,-4.302328,-0.406680,-0.214498,-0.220272,0.505610,-0.914795,-0.006104,0.074219,0.093826,0.011309,-0.048025,0.999996,-0.001072,-0.001101,0.002528,0.385186,-0.429450,-0.581427,-0.573713
20795,NaN,0.102410,8.394336,-2.130704,7.775552,-2.372201,-6.824664,-0.530114,0.313742,0.588702,-0.921387,-0.003906,0.080566,0.000743,0.083889,-0.021531,0.999991,-0.002651,0.001569,0.002944,0.386640,-0.431273,-0.578036,-0.574794
20796,NaN,-0.488526,3.158448,-0.834758,3.095042,-0.978817,-9.201249,-0.598263,0.263804,0.352813,-0.913086,0.000488,0.076172,-0.004952,0.031551,-0.008435,0.999993,-0.002991,0.001319,0.001764,0.386594,-0.433108,-0.574462,-0.577023
20797,NaN,3.532175,-4.183923,-0.872613,-5.145285,-0.511976,-7.810986,-0.334065,0.114946,0.408904,-0.917480,0.002441,0.076172,0.035402,-0.041781,-0.008677,0.999996,-0.001670,0.000575,0.002045,0.387373,-0.434588,-0.572392,-0.577444
20798,NaN,2.581977,-3.378887,-1.467894,-4.107880,-1.183992,-8.412101,0.183691,0.171327,0.388558,-0.923828,0.006836,0.067383,0.025873,-0.033725,-0.014732,0.999997,0.000918,0.000857,0.001943,0.389008,-0.435232,-0.571377,-0.576866
20799,NaN,-1.805922,1.931548,-0.446177,2.377438,-0.615024,-10.890107,0.247828,0.143414,0.081573,-0.921631,0.000488,0.076172,-0.018070,0.019314,-0.004425,0.999999,0.001239,0.000717,0.000408,0.390184,-0.434562,-0.571639,-0.576317
20800,NaN,-4.447970,4.592788,-0.362882,5.742186,-0.770298,-12.541007,-0.051859,-0.059955,-0.309018,-0.919189,-0.003906,0.073975,-0.044408,0.045996,-0.003654,0.999999,-0.000259,-0.000300,-0.001545,0.389107,-0.434333,-0.571798,-0.577059
20801,NaN,-4.177941,2.886552,-0.278555,4.059728,-0.611828,-12.814205,-0.247661,-0.300016,-0.654023,-0.927490,-0.012451,0.076172,-0.041680,0.028998,-0.002884,0.999993,-0.001238,-0.001500,-0.003270,0.385814,-0.433799,-0.573088,-0.578391
20802,NaN,-2.730559,1.766265,0.361427,2.586391,0.132475,-11.812492,-0.350477,-0.426730,-0.827332,-0.916504,-0.020996,0.074219,-0.027240,0.017782,0.003525,0.999988,-0.001752,-0.002134,-0.004137,0.381480,-0.433342,-0.574455,-0.580249
20803,NaN,-2.339655,1.470077,0.110673,2.177445,-0.099666,-11.514474,-0.428666,-0.487632,-0.923425,-0.922852,-0.027588,0.091553,-0.023331,0.014811,0.001018,0.999984,-0.002143,-0.002438,-0.004617,0.376457,-0.432907,-0.576138,-0.582183
20804,NaN,-1.702626,1.420477,0.074332,1.923416,-0.112258,-10.912697,-0.508405,-0.569343,-0.992679,-0.916016,-0.036133,0.087402,-0.016957,0.014291,0.000659,0.999980,-0.002542,-0.002847,-0.004963,0.370811,-0.432641,-0.577785,-0.584367
20805,NaN,-0.488406,1.036869,-0.192415,1.123427,-0.288112,-9.887155,-0.623233,-0.640983,-0.986025,-0.928711,-0.046875,0.104736,-0.004827,0.010386,-0.001972,0.999978,-0.003116,-0.003205,-0.004930,0.364713,-0.432803,-0.579278,-0.586603
20806,NaN,0.642128,0.127019,0.200081,-0.097601,0.240028,-9.179163,-0.676086,-0.622989,-0.898111,-0.924072,-0.055420,0.098389,0.006421,0.001248,0.002017,0.999979,-0.003380,-0.003115,-0.004491,0.358778,-0.433200,-0.580355,-0.588901
20807,NaN,1.290522,-1.102787,0.319773,-1.465272,0.505111,-9.050028,-0.713895,-0.590819,-0.760848,-0.930176,-0.061768,0.111328,0.012854,-0.011065,0.003275,0.999982,-0.003569,-0.002954,-0.003804,0.353261,-0.433996,-0.580955,-0.591054
20808,NaN,1.544903,-1.570852,0.346909,-1.989902,0.606373,-9.008198,-0.651487,-0.503077,-0.615201,-0.921631,-0.061768,0.113525,0.015392,-0.015744,0.003559,0.999987,-0.003257,-0.002515,-0.003076,0.348442,-0.434957,-0.581235,-0.592930
20809,NaN,1.465311,-1.478860,0.318806,-1.878687,0.578920,-9.056933,-0.552423,-0.371159,-0.489201,-0.934570,-0.063965,0.117676,0.014611,-0.014815,0.003256,0.999991,-0.002762,-0.001856,-0.002446,0.344700,-0.435585,-0.581308,-0.594583
20810,NaN,1.473035,-1.416768,0.846457,-1.760980,1.109539,-9.063412,-0.443189,-0.251550,-0.347507,-0.927979,-0.066162,0.115723,0.014695,-0.014174,0.008514,0.999995,-0.002216,-0.001258,-0.001738,0.341915,-0.436324,-0.581082,-0.595868
20811,NaN,1.888453,-1.738382,1.057387,-2.186375,1.398065,-8.827059,-0.354476,-0.155836,-0.173881,-0.934570,-0.066162,0.122070,0.018861,-0.017381,0.010619,0.999998,-0.001772,-0.000779,-0.000869,0.340161,-0.436879,-0.580676,-0.596861
20812,NaN,2.014997,-1.894582,1.407999,-2.327946,1.781343,-8.793082,-0.296015,-0.043983,0.003663,-0.932373,-0.063965,0.115479,0.020147,-0.018925,0.014112,0.999999,-0.001480,-0.000220,0.000018,0.339412,-0.437866,-0.579644,-0.597566
20813,NaN,2.005308,-1.978423,1.819888,-2.341668,2.201035,-8.853815,-0.246067,0.049567,0.200817,-0.937012,-0.055420,0.115479,0.020077,-0.019742,0.018218,0.999999,-0.001230,0.000248,0.001004,0.339607,-0.438708,-0.578390,-0.598053
20814,NaN,2.012106,-1.984297,2.505834,-2.248429,2.885436,-8.872472,-0.252582,0.132022,0.397311,-0.935059,-0.049072,0.119629,0.020177,-0.019771,0.025070,0.999997,-0.001263,0.000660,0.001987,0.340727,-0.440348,-0.576150,-0.598373
20815,NaN,1.864416,-1.793612,2.807930,-1.966445,3.151635,-8.930759,-0.329887,0.203615,0.565570,-0.943848,-0.046875,0.115234,0.018723,-0.017837,0.028090,0.999994,-0.001649,0.001018,0.002828,0.342268,-0.441919,-0.573573,-0.598811
20816,NaN,3.499246,-3.131362,3.674726,-3.663138,4.317135,-7.942569,-0.356258,0.228001,0.653081,-0.935303,-0.038330,0.104492,0.035136,-0.031134,0.036763,0.999992,-0.001781,0.001140,0.003265,0.344191,-0.444332,-0.570094,-0.599244
20817,NaN,21.314267,-49.887982,-0.652822,-53.764097,7.153008,-8.497251,-0.204328,-0.803672,1.484454,-0.947021,-0.012451,0.123291,0.216860,-0.497285,-0.005153,0.999964,-0.001022,-0.004018,0.007422,0.345873,-0.451299,-0.567552,-0.595471
20818,NaN,43.896385,-16.755690,-0.928708,-30.149759,5.318849,25.835888,0.228054,0.395286,4.576297,-0.946777,0.039062,0.103271,0.442624,-0.157445,-0.010343,0.999736,0.001140,0.001976,0.022879,0.361792,-0.464705,-0.555527,-0.586980
20819,NaN,16.440232,3.971274,3.950914,-0.281467,4.763513,6.885029,-0.484617,1.133459,5.533651,-0.939697,0.086182,0.106934,0.163438,0.044338,0.038477,0.999598,-0.002423,0.005667,0.027665,0.379899,-0.477429,-0.538981,-0.580722
20820,NaN,10.211152,27.807558,-7.414650,23.245288,-10.677358,6.859595,-1.896583,1.200582,4.457709,-0.937012,0.131104,0.089111,0.095434,0.279529,-0.077379,0.999689,-0.009482,0.006002,0.022286,0.392697,-0.491869,-0.518033,-0.579220
20821,NaN,19.765738,24.432579,1.565550,19.974204,-1.640832,14.442330,-3.082745,0.504781,2.588535,-0.941650,0.146240,0.088867,0.194504,0.247054,0.011368,0.999794,-0.015413,0.002524,0.012942,0.393830,-0.503056,-0.501647,-0.583251
20822,NaN,17.536368,-8.033411,-4.522104,-11.586937,-2.143955,6.113297,-1.793302,0.366614,2.837298,-0.925537,0.174072,0.094971,0.176401,-0.078240,-0.044836,0.999857,-0.008966,0.001833,0.014186,0.399233,-0.513747,-0.487043,-0.582637
20823,NaN,11.023618,-3.929204,-7.397152,-6.881557,-6.117008,0.526156,0.883729,0.618555,2.586718,-0.928467,0.195312,0.083984,0.110499,-0.037536,-0.074481,0.999902,0.004418,0.003093,0.012933,0.410498,-0.516424,-0.481696,-0.576859
20824,NaN,7.340666,7.618439,-2.734827,6.023466,-4.032344,-1.635972,1.112440,0.772832,1.871736,-0.924805,0.218994,0.066406,0.072583,0.077018,-0.027203,0.999933,0.005562,0.003864,0.009358,0.421380,-0.517730,-0.477234,-0.571526
20825,NaN,10.821142,9.589189,-5.728057,7.195093,-7.327819,1.865861,0.299501,0.347126,1.599603,-0.929688,0.234131,0.070557,0.107340,0.096839,-0.057323,0.999965,0.001497,0.001736,0.007998,0.427533,-0.519900,-0.473206,-0.568326
20826,NaN,13.768418,-1.662255,-4.044993,-3.537834,-3.594330,3.724516,-0.229695,0.027973,1.444226,-0.919189,0.242676,0.063965,0.137794,-0.015674,-0.040451,0.999973,-0.001148,0.000140,0.007221,0.431643,-0.524811,-0.467865,-0.565120
20827,NaN,22.639279,4.146102,-3.746807,1.755525,-4.424215,13.015000,0.073061,0.064700,1.226620,-0.923828,0.253418,0.070068,0.226121,0.042862,-0.037526,0.999981,0.000365,0.000323,0.006133,0.435436,-0.527325,-0.464709,-0.562467
20828,NaN,39.229453,17.249233,8.722946,16.407776,5.127336,30.399604,-0.218508,0.686395,1.519676,-0.913818,0.270508,0.061523,0.391264,0.175562,0.085695,0.999965,-0.001093,0.003432,0.007598,0.441162,-0.530363,-0.458030,-0.560625
20829,NaN,35.034963,24.407992,1.566003,22.652676,-3.702696,26.225720,-0.939617,0.719146,0.846479,-0.922607,0.279053,0.063477,0.349363,0.245626,0.013251,0.999974,-0.004698,0.003596,0.004232,0.442671,-0.532339,-0.451558,-0.562808
20830,NaN,9.895414,-10.672993,-5.958053,-12.020655,-3.820188,-0.419132,-1.317315,0.376944,1.004693,-0.914307,0.285400,0.059082,0.099378,-0.106622,-0.059065,0.999964,-0.006586,0.001885,0.005023,0.442857,-0.536742,-0.444273,-0.564277
20831,NaN,9.229619,-10.655991,-3.892083,-11.495869,-1.738307,-0.941002,-0.515100,0.332112,0.836383,-0.912109,0.287598,0.065430,0.092677,-0.106273,-0.038801,0.999987,-0.002575,0.001661,0.004182,0.444559,-0.538791,-0.439838,-0.564459
20832,NaN,4.191403,-3.472445,-1.723118,-3.849495,-1.050102,-5.729371,0.016135,0.419850,0.457385,-0.908203,0.293945,0.052490,0.041957,-0.034627,-0.017322,0.999995,0.000081,0.002099,0.002287,0.447007,-0.539196,-0.437564,-0.563907
20833,NaN,4.712085,-7.190573,1.333236,-6.817125,2.690176,-5.124922,0.420696,0.237761,0.358694,-0.916748,0.298340,0.058838,0.047265,-0.071849,0.013125,0.999995,0.002103,0.001189,0.001793,0.449663,-0.538363,-0.437254,-0.562829
20834,NaN,8.422098,-4.628673,6.563578,-3.254198,7.081570,-1.169874,0.627805,0.201359,0.293275,-0.908203,0.298340,0.046143,0.084355,-0.046369,0.065405,0.999993,0.003139,0.001007,0.001466,0.452898,-0.537755,-0.437453,-0.560658
20835,NaN,9.181616,-0.432225,8.796805,1.273247,8.338816,-0.288219,0.477514,0.211890,0.110166,-0.912598,0.298340,0.050293,0.091912,-0.004481,0.087860,0.999996,0.002388,0.001059,0.000551,0.454946,-0.536315,-0.438019,-0.559938
20836,NaN,9.950898,-1.087446,9.709145,0.803531,9.313105,0.535776,0.226018,0.211702,0.038631,-0.906006,0.298340,0.039551,0.099614,-0.010965,0.096974,0.999999,0.001130,0.001059,0.000193,0.456485,-0.535904,-0.437417,-0.559549
20837,NaN,8.985480,-1.098931,7.845985,0.414128,7.513121,-0.491344,-0.073508,0.209495,-0.063785,-0.916992,0.300537,0.043701,0.089933,-0.010989,0.078370,0.999999,-0.000368,0.001047,-0.000319,0.456560,-0.535341,-0.436909,-0.560422
20838,NaN,8.397944,-1.375083,2.622504,-0.887293,2.468324,-1.303049,-0.406180,0.022765,-0.191439,-0.906006,0.296143,0.041748,0.083969,-0.013778,0.026243,0.999997,-0.002031,0.000114,-0.000957,0.455395,-0.536262,-0.435270,-0.561764
20839,NaN,9.883542,-0.694165,-0.485494,-0.888317,-0.762964,0.037728,-0.574404,-0.142928,-0.205963,-0.918945,0.298340,0.050293,0.098832,-0.007057,-0.004764,0.999995,-0.002872,-0.000715,-0.001030,0.452956,-0.537516,-0.434537,-0.563103
20840,NaN,10.908179,-0.255869,-1.058846,-0.596143,-1.445705,1.037632,-0.513667,-0.181866,-0.203152,-0.912598,0.298340,0.043945,0.109089,-0.002697,-0.010482,0.999996,-0.002568,-0.000909,-0.001016,0.450997,-0.539229,-0.433096,-0.564147
20841,NaN,10.898848,-0.496733,-0.691487,-0.772771,-1.009131,1.045221,-0.338032,-0.161179,-0.210740,-0.918701,0.289795,0.054688,0.108989,-0.005094,-0.006818,0.999998,-0.001690,-0.000806,-0.001054,0.449134,-0.539984,-0.433077,-0.564925
20842,NaN,10.433563,-0.158761,-0.266700,-0.345595,-0.637077,0.600295,-0.270192,-0.161277,-0.224932,-0.909912,0.283447,0.048340,0.104336,-0.001708,-0.002581,0.999998,-0.001351,-0.000806,-0.001125,0.447782,-0.541047,-0.432409,-0.565493
20843,NaN,9.757386,-0.385174,0.094836,-0.494892,-0.184997,-0.061548,-0.307350,-0.184210,-0.237803,-0.918701,0.287598,0.061035,0.097568,-0.003966,0.001044,0.999998,-0.001537,-0.000921,-0.001189,0.445872,-0.541737,-0.432599,-0.566196
20844,NaN,9.715557,-0.640040,0.377646,-0.679614,0.167514,-0.093927,-0.342316,-0.188189,-0.242983,-0.905518,0.283203,0.061279,0.097144,-0.006512,0.003879,0.999997,-0.001712,-0.000941,-0.001215,0.444168,-0.542975,-0.431906,-0.566877
20845,NaN,9.570836,-0.357311,0.392994,-0.416045,0.145525,-0.237267,-0.359561,-0.171026,-0.243867,-0.920654,0.283203,0.069824,0.095700,-0.003683,0.004018,0.999997,-0.001798,-0.000855,-0.001219,0.442123,-0.543727,-0.431932,-0.567735
20846,NaN,9.761675,-0.606895,0.199203,-0.709969,0.025211,-0.055969,-0.335661,-0.131058,-0.239722,-0.914062,0.281250,0.063477,0.097608,-0.006183,0.002066,0.999998,-0.001678,-0.000655,-0.001199,0.440537,-0.544802,-0.431160,-0.568524
20847,NaN,10.100712,-0.803889,0.014849,-0.971085,-0.100137,0.272835,-0.261292,-0.061024,-0.227008,-0.918213,0.274658,0.069824,0.100998,-0.008153,0.000190,0.999998,-0.001306,-0.000305,-0.001135,0.439040,-0.545057,-0.431173,-0.569426
20848,NaN,10.360976,0.074460,-0.586268,-0.275357,-0.902396,0.522152,-0.196849,-0.008231,-0.209252,-0.913818,0.272705,0.059326,0.103611,0.000630,-0.005859,0.999999,-0.000984,-0.000041,-0.001046,0.438301,-0.545437,-0.430482,-0.570154
20849,NaN,10.506309,0.521674,-0.878003,0.062669,-1.296597,0.663019,-0.131458,0.052055,-0.169200,-0.920410,0.279053,0.069824,0.105065,0.005122,-0.008811,0.999999,-0.000657,0.000260,-0.000846,0.437565,-0.545209,-0.430459,-0.570955
20850,NaN,10.305883,1.195174,-1.138239,0.652498,-1.721089,0.460936,-0.094120,0.107128,-0.118484,-0.913818,0.274658,0.063477,0.103060,0.011885,-0.011443,1.000000,-0.000471,0.000536,-0.000592,0.437580,-0.545225,-0.429624,-0.571556
20851,NaN,9.073237,1.350261,-0.950296,0.864360,-1.549194,-0.762674,-0.073345,0.153313,-0.051631,-0.924561,0.268311,0.070068,0.090729,0.013476,-0.009577,1.000000,-0.000367,0.000767,-0.000258,0.437555,-0.544833,-0.429224,-0.572249
20852,NaN,9.220902,0.061930,-0.344618,-0.230214,-0.666319,-0.612109,-0.053595,0.169497,0.018851,-0.918213,0.274658,0.061279,0.092206,0.000627,-0.003524,1.000000,-0.000268,0.000847,0.000094,0.438158,-0.544847,-0.428123,-0.572600
20853,NaN,9.250979,0.347458,0.296086,0.204815,-0.136701,-0.553728,-0.044913,0.209924,0.079581,-0.916016,0.274658,0.057129,0.092511,0.003512,0.002863,0.999999,-0.000225,0.001050,0.000398,0.438706,-0.544511,-0.427322,-0.573098
20854,NaN,9.379828,0.341812,0.292101,0.212239,-0.170763,-0.426044,-0.076531,0.223276,0.136217,-0.924561,0.274658,0.059082,0.093799,0.003483,0.002815,0.999999,-0.000383,0.001116,0.000681,0.439666,-0.544663,-0.425734,-0.573399
20855,NaN,9.471959,0.922274,-0.027058,0.701957,-0.653581,-0.344353,-0.078050,0.225463,0.193244,-0.918213,0.274658,0.065674,0.094710,0.009314,-0.000381,0.999999,-0.000390,0.001127,0.000966,0.440481,-0.544596,-0.424492,-0.573758
20856,NaN,9.298171,0.847526,-0.144354,0.629300,-0.770135,-0.527973,-0.055188,0.216064,0.259874,-0.914062,0.281250,0.056885,0.092969,0.008596,-0.001546,0.999999,-0.000276,0.001080,0.001299,0.441820,-0.544947,-0.422725,-0.573700
20857,NaN,9.856003,0.146673,0.367756,0.093651,-0.151406,0.049652,0.032039,0.213796,0.338666,-0.920410,0.276855,0.059082,0.098561,0.001633,0.003572,0.999998,0.000160,0.001069,0.001693,0.443323,-0.544975,-0.421425,-0.573470
20858,NaN,10.255788,0.633788,1.180897,0.804752,0.458540,0.488737,0.092994,0.227958,0.389055,-0.912109,0.287598,0.050537,0.102559,0.006532,0.011695,0.999997,0.000465,0.001140,0.001945,0.445421,-0.545211,-0.419739,-0.572856
20859,NaN,9.758141,0.555509,1.173076,0.764429,0.464658,-0.009343,0.131305,0.242035,0.443823,-0.918701,0.289795,0.050293,0.097583,0.005764,0.011616,0.999997,0.000657,0.001210,0.002219,0.447550,-0.545152,-0.418368,-0.572255
20860,NaN,9.954944,-0.246327,0.965469,-0.017801,0.415498,0.183338,0.187287,0.234419,0.492562,-0.910400,0.298340,0.045898,0.099566,-0.002227,0.009536,0.999996,0.000936,0.001172,0.002463,0.450186,-0.545338,-0.416648,-0.571265
20861,NaN,9.964840,-0.008966,0.709196,0.189419,0.073110,0.175285,0.199916,0.241189,0.512137,-0.912598,0.302734,0.045898,0.099657,0.000159,0.006972,0.999995,0.001000,0.001206,0.002561,0.452688,-0.545260,-0.415282,-0.570356
20862,NaN,9.718998,-0.150860,0.374652,0.020731,-0.238755,-0.088267,0.178236,0.233038,0.539591,-0.904297,0.306885,0.039551,0.097198,-0.001250,0.003632,0.999995,0.000891,0.001165,0.002698,0.455412,-0.545542,-0.413417,-0.569272
20863,NaN,9.707074,-0.337223,0.337889,-0.123539,-0.263042,-0.098243,0.167601,0.224718,0.560814,-0.910889,0.313477,0.039307,0.097083,-0.003103,0.003267,0.999995,0.000838,0.001124,0.002804,0.457922,-0.545674,-0.411854,-0.568264
20864,NaN,9.425104,-0.407828,0.647815,-0.065814,0.036568,-0.356863,0.166009,0.220341,0.582077,-0.904541,0.319824,0.032959,0.094269,-0.003809,0.006371,0.999995,0.000830,0.001102,0.002910,0.460680,-0.546082,-0.409881,-0.567068
20865,NaN,9.764534,-0.745459,1.083591,-0.232940,0.479322,0.025589,0.183727,0.211575,0.595194,-0.909180,0.323975,0.039307,0.097678,-0.007174,0.010726,0.999995,0.000919,0.001058,0.002976,0.463294,-0.546273,-0.408291,-0.565900
20866,NaN,10.236837,-0.698150,1.220365,-0.083083,0.523325,0.506636,0.177772,0.235977,0.591568,-0.902588,0.324219,0.024170,0.102403,-0.006689,0.012077,0.999995,0.000889,0.001180,0.002958,0.466131,-0.546603,-0.406294,-0.564688
20867,NaN,9.712697,-0.869970,0.721515,-0.336394,0.085260,-0.040627,0.177857,0.245268,0.584878,-0.905029,0.332764,0.028320,0.097161,-0.008422,0.007088,0.999995,0.000889,0.001226,0.002924,0.468758,-0.546679,-0.404627,-0.563636
20868,NaN,9.748361,-1.182498,0.571916,-0.618722,-0.031671,0.004227,0.184568,0.250315,0.572377,-0.900879,0.339111,0.023926,0.097524,-0.011551,0.005586,0.999995,0.000923,0.001252,0.002862,0.471561,-0.546880,-0.402656,-0.562513
20869,NaN,9.115355,-1.309202,0.976094,-0.628644,0.407904,-0.582595,0.163341,0.259555,0.569508,-0.901123,0.341309,0.028320,0.091203,-0.012840,0.009632,0.999995,0.000817,0.001298,0.002848,0.474124,-0.546906,-0.400947,-0.561553
20870,NaN,9.576914,-0.759990,0.754614,-0.073385,-0.014113,-0.176378,0.121739,0.220929,0.546996,-0.894775,0.345459,0.013184,0.095798,-0.007342,0.007436,0.999995,0.000609,0.001105,0.002735,0.476617,-0.547278,-0.398950,-0.560501
20871,NaN,9.775014,-0.699565,0.625097,0.012426,-0.203723,0.005109,0.018515,0.165154,0.551911,-0.901611,0.358398,0.023682,0.097774,-0.006726,0.006170,0.999996,0.000093,0.000826,0.002760,0.478536,-0.547867,-0.397100,-0.559604
20872,NaN,9.917888,-1.867836,0.969797,-0.976104,0.351657,0.272804,-0.044903,0.120945,0.531102,-0.890869,0.358398,0.013184,0.099234,-0.018413,0.009642,0.999996,-0.000225,0.000605,0.002656,0.480313,-0.548866,-0.394915,-0.558648
20873,NaN,9.702290,-1.918966,1.306525,-0.913969,0.689953,0.097524,-0.049127,0.091880,0.475866,-0.897705,0.366943,0.021484,0.097074,-0.018956,0.013025,0.999997,-0.000246,0.000459,0.002379,0.481681,-0.549663,-0.393253,-0.557858
20874,NaN,9.401427,-1.774297,1.495259,-0.700375,0.854580,-0.192407,-0.147413,0.017592,0.404940,-0.884521,0.364746,0.012939,0.094051,-0.017542,0.014957,0.999998,-0.000737,0.000088,0.002025,0.482619,-0.550945,-0.391362,-0.557112
20875,NaN,9.515562,-2.294902,1.653236,-1.119282,1.113191,-0.011995,-0.292739,-0.109142,0.338005,-0.895508,0.371338,0.023682,0.095185,-0.022764,0.016618,0.999997,-0.001464,-0.000546,0.001690,0.482534,-0.552613,-0.389881,-0.556572
20876,NaN,10.115054,-3.172359,2.077064,-1.772847,1.673925,0.710961,-0.369404,-0.208733,0.252467,-0.886963,0.369141,0.025879,0.101169,-0.031557,0.020935,0.999997,-0.001847,-0.001044,0.001262,0.481989,-0.554750,-0.388317,-0.556011
20877,NaN,10.665432,-3.482140,2.665856,-1.849535,2.287312,1.337683,-0.377521,-0.271210,0.116644,-0.889160,0.371094,0.034424,0.106638,-0.034709,0.026869,0.999997,-0.001888,-0.001356,0.000583,0.480733,-0.556637,-0.387600,-0.555713
20878,NaN,10.694848,-3.832547,2.561722,-2.177611,2.305840,1.393181,-0.411784,-0.336691,-0.060804,-0.889160,0.369141,0.036377,0.106893,-0.038305,0.025876,0.999996,-0.002059,-0.001683,-0.000304,0.478964,-0.558623,-0.387056,-0.555627
20879,NaN,10.923324,-4.134610,2.437871,-2.472623,2.298201,1.631139,-0.498724,-0.451178,-0.249947,-0.895508,0.364746,0.045166,0.109126,-0.041421,0.024728,0.999994,-0.002494,-0.002256,-0.001250,0.475995,-0.560582,-0.387449,-0.555931
20880,NaN,11.595939,-4.125652,2.206978,-2.467236,2.088936,2.266459,-0.532342,-0.549001,-0.480910,-0.884521,0.358398,0.045166,0.115798,-0.041476,0.022498,0.999990,-0.002662,-0.002745,-0.002405,0.472331,-0.562625,-0.388183,-0.556481
20881,NaN,12.270733,-4.312089,1.996685,-2.688075,1.978953,2.915561,-0.429172,-0.610663,-0.734091,-0.901855,0.360352,0.055908,0.122486,-0.043527,0.020434,0.999986,-0.002146,-0.003053,-0.003670,0.467884,-0.563903,-0.390493,-0.557327
20882,NaN,12.774848,-4.707414,1.868999,-3.128525,2.033632,3.413191,-0.273482,-0.682563,-1.019434,-0.890381,0.339111,0.056152,0.127441,-0.047698,0.019190,0.999980,-0.001367,-0.003413,-0.005097,0.463199,-0.564651,-0.393683,-0.558238
20883,NaN,13.763040,-4.837698,1.717764,-3.353218,1.992917,4.349071,-0.007890,-0.743668,-1.318489,-0.900879,0.332520,0.064941,0.137242,-0.049282,0.017690,0.999971,-0.000039,-0.003718,-0.006592,0.458014,-0.564132,-0.399097,-0.559196
20884,NaN,14.203516,-4.290932,-0.064126,-3.439500,0.259410,4.618262,0.330362,-0.866950,-1.708579,-0.898193,0.315430,0.071533,0.141663,-0.044120,-0.000099,0.999953,0.001652,-0.004335,-0.008543,0.452711,-0.562595,-0.406233,-0.559924
20885,NaN,16.563803,-4.697723,0.028142,-3.964708,0.535265,6.932786,0.737206,-1.022377,-2.123248,-0.910400,0.296143,0.084717,0.165123,-0.048735,0.000949,0.999924,0.003686,-0.005112,-0.010616,0.446724,-0.559431,-0.416555,-0.560318
20886,NaN,21.741375,-2.830342,5.446951,-1.052989,5.374900,12.103842,1.285062,-0.908836,-2.507884,-0.913818,0.270508,0.087158,0.216783,-0.031378,0.055261,0.999890,0.006425,-0.004544,-0.012539,0.441680,-0.554110,-0.428578,-0.560538
20887,NaN,24.870788,3.270097,7.631622,4.717979,6.338970,15.186811,1.851295,-0.789232,-3.086703,-0.923584,0.244629,0.087402,0.248861,0.028147,0.077573,0.999830,0.009256,-0.003946,-0.015433,0.436387,-0.545523,-0.443990,-0.561110
20889,NaN,26.020704,9.273666,6.588979,17.734385,9.541022,43.275643,1.957972,-0.715525,-3.904509,-0.937988,0.163330,0.088623,0.526078,0.162329,0.138861,0.999021,0.019573,-0.007153,-0.039032,0.421897,-0.523357,-0.478326,-0.565071
20890,NaN,20.882173,13.184155,2.767529,10.909072,1.049218,12.487805,1.787015,-0.733355,-4.588202,-0.934326,0.120361,0.091309,0.211662,0.126748,0.029596,0.999690,0.008934,-0.003666,-0.022939,0.411720,-0.510522,-0.496780,-0.568386
20891,NaN,15.447406,13.470690,1.341711,10.792818,-0.110563,7.659668,1.497601,-0.869582,-5.096483,-0.949951,0.069092,0.104980,0.157774,0.130605,0.015087,0.999638,0.007487,-0.004347,-0.025479,0.398850,-0.497036,-0.515113,-0.573178
20892,NaN,13.361701,10.543627,0.505939,7.375605,-0.168844,5.531582,1.274032,-0.790831,-5.727747,-0.935303,0.017578,0.103760,0.136539,0.101516,0.006251,0.999562,0.006369,-0.003954,-0.028635,0.383386,-0.481790,-0.534349,-0.579107
20893,NaN,11.962214,6.509055,-3.366399,2.475485,-3.270917,3.600615,0.762459,-0.342552,-5.850813,-0.943848,-0.040283,0.113037,0.121517,0.061681,-0.033217,0.999563,0.003812,-0.001713,-0.029250,0.367107,-0.465341,-0.550671,-0.587751
20894,NaN,8.473766,0.845965,-6.234455,-2.799797,-5.557999,-1.289435,0.313609,0.002767,-4.820721,-0.933838,-0.081055,0.105225,0.084909,0.006512,-0.062334,0.999708,0.001568,0.000014,-0.024101,0.353565,-0.451345,-0.562645,-0.595576
20895,NaN,13.114198,-14.569883,-6.375948,-19.008250,-3.453129,-2.625114,0.206156,-0.324526,-2.461605,-0.939941,-0.093994,0.111816,0.129439,-0.147233,-0.063700,0.999922,0.001031,-0.001623,-0.012308,0.345628,-0.444883,-0.569028,-0.599021
20896,NaN,15.412447,-15.712383,-6.746682,-21.039823,-3.359673,-1.096358,-0.703697,-0.663161,0.182934,-0.929199,-0.096191,0.111816,0.154490,-0.157218,-0.066402,0.999988,-0.003518,-0.003316,0.000915,0.342714,-0.448595,-0.567655,-0.599230
20897,NaN,4.446179,-3.480525,-7.768005,-5.993049,-6.775518,-6.587937,-1.484551,-0.330104,1.989922,-0.936279,-0.074707,0.115723,0.044937,-0.034935,-0.077347,0.999922,-0.007423,-0.001650,0.009949,0.344617,-0.457970,-0.558820,-0.599352
20898,NaN,-3.018013,9.083868,-4.386088,8.658312,-5.973139,-9.357305,-2.287049,0.064103,2.546311,-0.930664,-0.053223,0.115479,-0.031343,0.089935,-0.044883,0.999854,-0.011435,0.000320,0.012731,0.347132,-0.468760,-0.545947,-0.601419
20899,NaN,0.203991,0.446102,-0.771793,0.201064,-0.815918,-9.451988,-2.365895,-0.163273,2.387156,-0.937500,-0.038330,0.121582,0.001994,0.004393,-0.007769,0.999858,-0.011829,-0.000816,0.011935,0.348458,-0.480038,-0.533142,-0.603241
20900,NaN,7.269684,-7.961042,-1.543428,-9.840924,0.714494,-5.203107,-1.611342,0.000281,2.369361,-0.931885,-0.019043,0.108398,0.073634,-0.078863,-0.014797,0.999897,-0.008056,0.000001,0.011846,0.351695,-0.489106,-0.522543,-0.603353
20901,NaN,5.463887,-6.718965,-2.826860,-8.375738,-0.919813,-6.350332,0.046405,0.727342,2.201611,-0.934570,0.000244,0.105957,0.055271,-0.066577,-0.028484,0.999933,0.000232,0.003637,0.011008,0.360504,-0.492815,-0.515663,-0.601051
20902,NaN,-2.162333,0.713420,-1.498212,0.887480,-1.756267,-11.698696,0.935001,1.021081,1.650069,-0.930664,0.010986,0.093018,-0.021758,0.007025,-0.014838,0.999942,0.004675,0.005105,0.008250,0.370372,-0.492281,-0.512539,-0.598154
20903,NaN,-5.545487,5.277270,-1.316100,6.056723,-2.638788,-13.897528,0.938697,0.779532,0.887579,-0.937012,0.011230,0.090820,-0.055739,0.052586,-0.012697,0.999972,0.004693,0.003898,0.004438,0.377482,-0.490750,-0.511371,-0.595963
20904,NaN,-5.774578,4.155226,-0.826154,5.140771,-1.883396,-14.429966,0.671234,0.359339,0.232667,-0.926270,0.013184,0.084473,-0.057809,0.041512,-0.008018,0.999992,0.003356,0.001797,0.001163,0.380731,-0.488998,-0.512120,-0.594691
20905,NaN,-3.925030,2.286031,-0.915987,2.920344,-1.503300,-13.081091,0.684900,0.130341,-0.132233,-0.934814,0.010986,0.090820,-0.039241,0.022917,-0.009056,0.999994,0.003424,0.000652,-0.000661,0.382315,-0.487125,-0.514054,-0.593542
20906,NaN,-3.918747,2.808161,-0.655112,3.485281,-1.317459,-12.941346,0.988391,0.084324,-0.413471,-0.926270,0.010986,0.086670,-0.039132,0.028194,-0.006395,0.999986,0.004942,0.000422,-0.002067,0.383700,-0.483910,-0.517828,-0.591996
20907,NaN,-4.430433,3.709393,0.043468,4.617263,-0.774711,-13.199519,1.130640,0.029214,-0.717228,-0.932373,0.000488,0.086670,-0.044171,0.037249,0.000651,0.999978,0.005653,0.000146,-0.003586,0.384344,-0.479925,-0.522759,-0.590487
20908,NaN,-3.955020,4.670383,0.864274,5.582747,-0.053005,-12.464354,1.068387,-0.081824,-0.971925,-0.929932,-0.010254,0.084717,-0.039326,0.046848,0.008877,0.999974,0.005342,-0.000409,-0.004860,0.383806,-0.475554,-0.528392,-0.589358
20909,NaN,-2.349331,4.850350,1.000908,5.386001,0.175390,-10.816148,0.872388,-0.242460,-1.125393,-0.934082,-0.012451,0.091309,-0.023232,0.048591,0.010193,0.999974,0.004362,-0.001212,-0.005627,0.381893,-0.471669,-0.534041,-0.588631
20911,NaN,0.129071,3.013663,0.682516,5.857224,0.581987,-7.912461,0.724221,-0.355111,-1.095962,-0.935791,-0.029541,0.100098,0.003191,0.060139,0.014097,0.999907,0.007242,-0.003551,-0.010959,0.376918,-0.465090,-0.544782,-0.587228
20912,NaN,0.619156,1.562399,0.386335,1.355784,0.236611,-8.773678,0.439680,-0.380765,-0.911899,-0.929199,-0.033936,0.104492,0.006255,0.015587,0.003910,0.999985,0.002198,-0.001904,-0.004559,0.374229,-0.462919,-0.548877,-0.586850
20913,NaN,0.655420,1.517044,0.214462,1.270998,0.082525,-8.738101,0.133960,-0.384791,-0.755580,-0.935303,-0.040283,0.108887,0.006607,0.015144,0.002167,0.999991,0.000670,-0.001924,-0.003778,0.371254,-0.461712,-0.551737,-0.587008
20914,NaN,1.222269,0.864993,0.592159,0.529296,0.578685,-8.406355,-0.164074,-0.391453,-0.534676,-0.928711,-0.044678,0.106689,0.012234,0.008622,0.005938,0.999994,-0.000820,-0.001957,-0.002673,0.368240,-0.461712,-0.553186,-0.587543
20915,NaN,2.251368,0.124183,1.561229,-0.351767,1.710354,-7.697868,-0.318405,-0.323660,-0.240085,-0.939453,-0.044678,0.111084,0.022490,0.001240,0.015647,0.999997,-0.001592,-0.001618,-0.001200,0.365895,-0.462576,-0.553402,-0.588124
20916,NaN,2.645849,-0.355138,2.985064,-0.716085,3.213640,-7.533001,-0.424742,-0.170467,0.074956,-0.935303,-0.040283,0.106689,0.026434,-0.003478,0.029881,0.999997,-0.002124,-0.000852,0.000375,0.364695,-0.464069,-0.552237,-0.588789
20917,NaN,2.042385,-0.449002,2.496030,-0.674601,2.693648,-8.112027,-0.519343,-0.020526,0.307808,-0.941895,-0.038330,0.113037,0.020428,-0.004394,0.024974,0.999995,-0.002597,-0.000103,0.001539,0.364329,-0.465917,-0.550032,-0.589620
20918,NaN,1.028020,-0.363402,2.453028,-0.277671,2.555425,-9.038799,-0.585261,0.097444,0.494325,-0.929443,-0.025391,0.104248,0.010301,-0.003537,0.024536,0.999993,-0.002926,0.000487,0.002472,0.364759,-0.468060,-0.546865,-0.590601
20919,NaN,0.960943,-1.049154,2.470549,-0.882342,2.661824,-9.299020,-0.731385,0.099492,0.673350,-0.940186,-0.023193,0.112793,0.009657,-0.010369,0.024739,0.999988,-0.003657,0.000497,0.003367,0.365295,-0.470928,-0.542944,-0.591606
20920,NaN,9.413367,-16.551983,5.011859,-17.483109,8.144803,-5.850856,-0.851975,-0.302581,0.910984,-0.938721,-0.003906,0.112549,0.094809,-0.164873,0.050965,0.999979,-0.004260,-0.001513,0.004555,0.365255,-0.475860,-0.538671,-0.591591
20921,NaN,39.765479,-57.478127,-5.366302,-65.956624,6.974691,12.867841,-0.236461,-1.157955,3.323716,-0.944336,0.034668,0.118408,0.407432,-0.568125,-0.050649,0.999844,-0.001182,-0.005789,0.016618,0.371340,-0.488588,-0.532097,-0.583319
20922,NaN,32.108495,10.335569,1.825197,3.205164,2.548402,23.713838,0.412129,1.473908,5.670417,-0.931152,0.090332,0.096191,0.318108,0.112369,0.016126,0.999569,0.002060,0.007368,0.028348,0.393205,-0.498861,-0.515882,-0.574798
20923,NaN,4.377467,19.969439,0.980632,18.797179,-2.172419,-2.018819,-1.785738,1.089555,5.143407,-0.934814,0.128906,0.093506,0.038666,0.200808,0.007797,0.999615,-0.008928,0.005447,0.025714,0.406184,-0.512308,-0.495585,-0.571796
20924,NaN,6.785899,23.335254,-4.456818,20.944261,-8.577248,0.093965,-2.237756,0.763840,2.980722,-0.931396,0.156738,0.088623,0.064199,0.233808,-0.047432,0.999819,-0.011188,0.003819,0.014903,0.411251,-0.522274,-0.479356,-0.572992
20925,NaN,25.505895,-4.414720,0.263184,-6.889687,1.865464,15.069565,-2.549311,0.194662,2.483737,-0.929932,0.178223,0.099121,0.255583,-0.040939,0.002919,0.999841,-0.012746,0.000973,0.012418,0.412105,-0.532823,-0.465093,-0.574420
20926,NaN,8.936545,-1.800402,-9.034947,-4.499253,-8.256900,-1.077317,0.568476,0.664030,2.611116,-0.919922,0.199707,0.077393,0.089287,-0.016580,-0.090694,0.999905,0.002842,0.003320,0.013055,0.422969,-0.536007,-0.457953,-0.569274
20927,NaN,10.656465,3.612309,-5.338839,1.750248,-5.948621,0.987977,1.244943,0.542333,2.180217,-0.925049,0.223389,0.074951,0.106015,0.037613,-0.053445,0.999918,0.006225,0.002712,0.010901,0.433713,-0.536774,-0.454470,-0.563226
20928,NaN,15.237708,19.846516,-7.200557,17.339705,-11.263082,6.010403,0.333877,0.288312,2.165244,-0.915039,0.242676,0.074707,0.150112,0.200219,-0.071890,0.999939,0.001669,0.001442,0.010826,0.441629,-0.540368,-0.448594,-0.558328
20929,NaN,18.033210,10.043026,-6.739241,8.093476,-8.889288,8.268861,-0.455883,0.130563,1.770256,-0.915527,0.261963,0.078613,0.179391,0.101867,-0.067741,0.999958,-0.002279,0.000653,0.008851,0.445609,-0.544954,-0.442232,-0.555778
20930,NaN,21.900286,0.753582,-6.917716,-0.769882,-7.228728,11.986200,-0.675237,-0.109054,1.483041,-0.905273,0.272461,0.067871,0.218978,0.008926,-0.069086,0.999967,-0.003376,-0.000545,0.007415,0.447765,-0.550202,-0.436484,-0.553413
20931,NaN,22.670361,2.880414,-4.164815,2.184608,-5.086938,12.746815,0.130284,0.173953,1.243722,-0.907959,0.285400,0.080566,0.226482,0.030240,-0.041826,0.999980,0.000651,0.000870,0.006219,0.451932,-0.552129,-0.433025,-0.550818
20932,NaN,25.899720,3.468259,-0.281623,3.935195,-1.612021,15.971250,0.425791,0.488036,1.086920,-0.903809,0.296143,0.061035,0.258796,0.036096,-0.003372,0.999980,0.002129,0.002440,0.005435,0.457227,-0.552351,-0.430080,-0.548528
20933,NaN,25.440713,6.489500,6.225734,8.478389,3.910624,15.503693,0.416626,0.885863,1.045644,-0.904053,0.304688,0.058838,0.254336,0.066097,0.061268,0.999974,0.002083,0.004429,0.005228,0.463136,-0.551200,-0.426299,-0.547680
20934,NaN,18.008462,4.758984,3.100460,6.019690,1.282357,8.038935,0.020278,0.880779,0.830055,-0.900146,0.311279,0.045898,0.180019,0.048334,0.030217,0.999982,0.000101,0.004404,0.004150,0.467380,-0.550604,-0.422030,-0.547980
20935,NaN,12.573344,-1.163715,-0.766145,-0.713221,-1.150972,2.764892,-0.498733,0.626286,0.811702,-0.900391,0.317627,0.054443,0.125755,-0.011147,-0.008027,0.999984,-0.002494,0.003131,0.004058,0.469543,-0.551754,-0.416958,-0.548857
20936,NaN,12.129033,-3.259137,1.374729,-2.232305,1.331761,2.551270,-0.659805,0.502393,0.769471,-0.892090,0.328369,0.045654,0.121449,-0.032079,0.013549,0.999984,-0.003299,0.002512,0.003847,0.470870,-0.553609,-0.411912,-0.549661
20937,NaN,10.090741,-2.965249,2.473723,-1.743170,2.405916,0.575163,-0.430112,0.505681,0.556351,-0.896240,0.328369,0.047852,0.101052,-0.029319,0.024545,0.999991,-0.002151,0.002528,0.002782,0.472243,-0.554370,-0.407995,-0.550637
20938,NaN,8.206051,-4.133895,3.514122,-2.711407,3.757210,-1.134627,-0.147345,0.480266,0.435913,-0.889893,0.330566,0.043457,0.082234,-0.041134,0.034974,0.999994,-0.000737,0.002401,0.002180,0.474022,-0.554400,-0.405279,-0.551083
20939,NaN,6.277548,-4.296922,4.204229,-2.814471,4.565064,-2.972698,0.096662,0.433934,0.321286,-0.896729,0.336914,0.043457,0.062935,-0.042888,0.041885,0.999996,0.000483,0.002170,0.001606,0.476051,-0.553622,-0.403623,-0.551331
20940,NaN,4.970465,-4.296038,4.789219,-2.762089,5.205159,-4.211334,0.202036,0.325284,0.229717,-0.887939,0.334717,0.034912,0.049832,-0.042951,0.047768,0.999998,0.001010,0.001626,0.001149,0.477906,-0.552840,-0.402762,-0.551141
20941,NaN,4.750790,-4.568374,5.336847,-2.922949,5.794066,-4.353098,0.170113,0.163987,0.117211,-0.894287,0.334717,0.036865,0.047578,-0.045701,0.053291,0.999999,0.000851,0.000820,0.000586,0.479027,-0.552215,-0.402514,-0.550976
20942,NaN,5.477138,-4.572184,5.606227,-2.822931,5.985038,-3.604301,0.172852,0.038169,0.005329,-0.889893,0.332764,0.030518,0.054783,-0.045769,0.056012,1.000000,0.000864,0.000191,0.000027,0.479633,-0.551811,-0.402803,-0.550642
20943,NaN,6.279014,-3.751402,5.471450,-2.013965,5.604448,-2.886658,0.199134,0.000297,-0.103520,-0.898682,0.336914,0.043457,0.062771,-0.037601,0.054677,0.999999,0.000996,0.000001,-0.000518,0.479896,-0.551122,-0.403635,-0.550494
20944,NaN,6.163777,-3.188460,4.181626,-1.773309,4.238738,-3.139393,0.154560,-0.068613,-0.216515,-0.894287,0.334717,0.024170,0.061589,-0.031984,0.041813,0.999999,0.000773,-0.000343,-0.001083,0.479640,-0.550615,-0.404677,-0.550459
20945,NaN,6.227196,-3.480390,2.462925,-2.448614,2.631546,-3.176705,0.089672,-0.193257,-0.327329,-0.898682,0.330566,0.041260,0.062191,-0.034917,0.024674,0.999998,0.000448,-0.000966,-0.001637,0.478592,-0.550267,-0.406287,-0.550533
20946,NaN,6.668007,-3.702847,0.888179,-2.999405,1.129570,-2.834883,0.053955,-0.343894,-0.444705,-0.896240,0.326172,0.028564,0.066582,-0.037179,0.008986,0.999996,0.000270,-0.001719,-0.002224,0.476939,-0.550257,-0.408260,-0.550518
20947,NaN,7.439938,-3.294318,-0.200611,-2.820839,-0.041247,-2.178137,0.069778,-0.468399,-0.567981,-0.904785,0.323975,0.043457,0.074310,-0.033154,-0.001844,0.999993,0.000349,-0.002342,-0.002840,0.474606,-0.550216,-0.411128,-0.550442
20948,NaN,8.138651,-3.077798,-0.720350,-2.718777,-0.598073,-1.537451,0.131653,-0.550205,-0.677286,-0.902344,0.315430,0.043701,0.081301,-0.031049,-0.007000,0.999990,0.000658,-0.002751,-0.003386,0.472126,-0.550097,-0.414409,-0.550232
20949,NaN,8.845458,-2.472429,-0.996417,-2.202022,-0.982980,-0.894608,0.209590,-0.598501,-0.787292,-0.910645,0.309082,0.052246,0.088386,-0.025062,-0.009726,0.999987,0.001048,-0.002992,-0.003936,0.469288,-0.549609,-0.418557,-0.550008
20950,NaN,14.824803,0.459513,2.765319,1.653932,1.815984,5.073482,0.237045,-0.487910,-0.742490,-0.901855,0.300537,0.046143,0.148196,0.004012,0.028020,0.999989,0.001185,-0.002440,-0.003712,0.467006,-0.548952,-0.422167,-0.549848
20951,NaN,15.151255,4.720535,6.031758,6.413145,4.186610,5.338837,-0.050441,-0.282514,-0.773016,-0.910400,0.298340,0.054688,0.151608,0.046635,0.060520,0.999992,-0.000252,-0.001413,-0.003865,0.464140,-0.548209,-0.424804,-0.550984
20952,NaN,13.500157,4.284411,0.728851,4.731284,-0.777225,3.534654,-0.562765,-0.428116,-0.769867,-0.901367,0.287598,0.061279,0.135149,0.042345,0.007458,0.999986,-0.002814,-0.002141,-0.003849,0.459737,-0.549087,-0.426101,-0.552796
20953,NaN,12.667326,2.210910,-6.568527,1.006057,-7.346753,2.577040,-0.914459,-0.703267,-0.692919,-0.918457,0.281250,0.076172,0.126978,0.021370,-0.065338,0.999977,-0.004572,-0.003516,-0.003465,0.453801,-0.551643,-0.427081,-0.554398
20954,NaN,11.030649,-0.205619,-6.961981,-1.584036,-7.033261,1.059683,-0.858018,-0.788896,-0.638160,-0.905273,0.274658,0.072021,0.110572,-0.002706,-0.069173,0.999978,-0.004290,-0.003944,-0.003191,0.448042,-0.554492,-0.428101,-0.555452
20955,NaN,11.504848,-2.588651,-1.045685,-2.601347,-0.630361,1.719468,-0.406995,-0.637199,-0.667219,-0.913818,0.270508,0.089355,0.114994,-0.026291,-0.010037,0.999987,-0.002035,-0.003186,-0.003336,0.443689,-0.555737,-0.430241,-0.556048
20956,NaN,10.562408,-2.829471,3.177257,-1.906861,3.624210,0.812449,-0.034371,-0.422414,-0.759851,-0.913330,0.257568,0.078857,0.105448,-0.028690,0.032000,0.999991,-0.000172,-0.002112,-0.003799,0.440690,-0.555431,-0.433038,-0.556567
20957,NaN,9.194349,-1.174769,3.118487,-0.388098,3.246990,-0.596025,-0.021013,-0.381394,-0.869887,-0.921875,0.257568,0.091553,0.091832,-0.012144,0.031361,0.999989,-0.000105,-0.001907,-0.004349,0.437379,-0.554648,-0.436229,-0.557467
20958,NaN,9.051649,-0.451758,0.713104,-0.320663,0.793828,-0.762205,-0.233892,-0.484277,-0.921312,-0.912598,0.238281,0.093994,0.090477,-0.004926,0.007356,0.999986,-0.001169,-0.002421,-0.004607,0.433278,-0.554500,-0.438994,-0.558645
20959,NaN,9.893771,-0.392809,-0.629714,-0.666348,-0.449483,0.076216,-0.358147,-0.596112,-0.948793,-0.923340,0.231689,0.106934,0.098936,-0.004408,-0.005995,0.999983,-0.001791,-0.002981,-0.004744,0.428318,-0.554848,-0.441905,-0.559828
20960,NaN,10.810476,-0.309337,-0.494472,-0.647958,-0.246914,0.991227,-0.315783,-0.567124,-0.938113,-0.918701,0.223145,0.104980,0.108102,-0.003608,-0.004633,0.999984,-0.001579,-0.002836,-0.004691,0.423621,-0.555074,-0.444702,-0.560962
20961,NaN,10.747181,-0.159008,-0.430736,-0.570354,-0.145722,0.928130,-0.143705,-0.428485,-0.929330,-0.920654,0.214600,0.113525,0.107472,-0.002092,-0.004076,0.999987,-0.000719,-0.002142,-0.004647,0.419656,-0.554505,-0.447778,-0.562057
20962,NaN,10.499712,-0.121282,-0.627253,-0.657320,-0.292020,0.681783,0.029861,-0.305511,-0.921124,-0.922607,0.210449,0.111572,0.104999,-0.001695,-0.006112,0.999988,0.000149,-0.001528,-0.004606,0.416570,-0.553271,-0.450899,-0.563073
20963,NaN,10.154788,1.184090,-1.162609,0.404884,-1.093092,0.410520,0.140574,-0.206411,-0.885850,-0.928711,0.199707,0.118164,0.101611,0.011399,-0.011513,0.999989,0.000703,-0.001032,-0.004429,0.413995,-0.551554,-0.454168,-0.564028
20964,NaN,9.880206,2.432592,-1.609376,1.443580,-1.803408,0.226699,0.134098,-0.138678,-0.816777,-0.919678,0.188965,0.116211,0.098911,0.023933,-0.016009,0.999991,0.000670,-0.000693,-0.004084,0.411889,-0.549859,-0.456923,-0.565000
20965,NaN,9.690465,3.244767,-1.722917,2.144467,-2.083854,0.110035,0.048466,-0.140387,-0.703670,-0.928223,0.188965,0.122559,0.097030,0.032111,-0.017153,0.999994,0.000242,-0.000702,-0.003518,0.409710,-0.548542,-0.459278,-0.565953
20966,NaN,9.888150,3.288433,-1.540006,2.163081,-1.881518,0.323465,-0.048268,-0.131263,-0.576814,-0.926025,0.182373,0.118408,0.098986,0.032595,-0.015343,0.999996,-0.000241,-0.000656,-0.002884,0.407716,-0.547760,-0.460881,-0.566847
20967,NaN,10.768764,3.324726,-1.350081,2.135418,-1.647611,1.213099,-0.090526,-0.069638,-0.424017,-0.930176,0.178223,0.126953,0.107762,0.033013,-0.013478,0.999998,-0.000453,-0.000348,-0.002120,0.406105,-0.547161,-0.461923,-0.567732
20968,NaN,10.684483,3.969488,-1.341872,2.731433,-1.793425,1.189060,-0.056058,0.064664,-0.269097,-0.923340,0.171875,0.114258,0.106894,0.039547,-0.013464,0.999999,-0.000280,0.000323,-0.001345,0.405409,-0.546549,-0.462285,-0.568524
20969,NaN,9.468500,3.932013,-1.712355,2.668759,-2.205334,-0.011689,-0.032456,0.187294,-0.140120,-0.931885,0.171875,0.118408,0.094696,0.039251,-0.017219,0.999999,-0.000162,0.000936,-0.000701,0.405354,-0.545757,-0.462193,-0.569399
20970,NaN,7.307965,4.954662,-2.188742,3.691331,-3.030735,-2.070965,-0.173298,0.238319,0.058962,-0.921387,0.173828,0.112061,0.073039,0.049549,-0.022017,0.999999,-0.000866,0.001192,0.000295,0.405663,-0.545540,-0.461000,-0.570353
20971,NaN,4.504670,5.498191,-2.943496,4.236740,-4.035582,-4.817656,-0.317412,0.244244,0.266064,-0.923584,0.178223,0.116211,0.044937,0.054995,-0.029577,0.999997,-0.001587,0.001221,0.001330,0.406118,-0.546097,-0.458869,-0.571214
20972,NaN,6.199107,0.285661,-4.171885,-1.220111,-3.883995,-3.540444,-0.242713,0.107525,0.447531,-0.921631,0.182373,0.109863,0.061962,0.002945,-0.041756,0.999997,-0.001214,0.000538,0.002238,0.407031,-0.547331,-0.456707,-0.571115
20973,NaN,10.222045,-0.800313,-1.067434,-1.722316,-0.488618,0.339386,-0.152294,0.151043,0.681037,-0.932373,0.184570,0.111816,0.102239,-0.007663,-0.010746,0.999994,-0.000761,0.000755,0.003405,0.408903,-0.548759,-0.454095,-0.570491
20974,NaN,10.679224,1.914644,2.001750,1.715392,1.761110,0.942496,-0.126661,0.346585,0.715624,-0.919922,0.195312,0.107422,0.106757,0.019541,0.019820,0.999992,-0.000633,0.001733,0.003578,0.411446,-0.549644,-0.451049,-0.570227
20975,NaN,10.489365,2.402476,1.741173,2.196513,1.316829,0.783109,-0.139424,0.430894,0.743167,-0.930908,0.201904,0.107422,0.104841,0.024426,0.017169,0.999991,-0.000697,0.002154,0.003716,0.414151,-0.550370,-0.447715,-0.570196
20976,NaN,9.582358,2.275218,-0.432849,1.629838,-0.838069,-0.126303,-0.098694,0.477016,0.851800,-0.916016,0.212402,0.096436,0.095715,0.023158,-0.004568,0.999988,-0.000493,0.002385,0.004259,0.417442,-0.551134,-0.444079,-0.569901
20977,NaN,8.565328,1.304490,-1.655595,0.493029,-1.849870,-1.202135,0.085925,0.514391,0.995493,-0.927246,0.221191,0.100586,0.085544,0.013478,-0.016770,0.999984,0.000430,0.002572,0.004977,0.421653,-0.551688,-0.440496,-0.569046
20978,NaN,8.115811,1.589735,-1.407384,0.928779,-1.749842,-1.661072,0.295834,0.556916,1.128414,-0.914551,0.227539,0.092041,0.081027,0.016376,-0.014276,0.999979,0.001479,0.002785,0.005642,0.427003,-0.551986,-0.437015,-0.567449
20979,NaN,9.631690,0.687800,-1.017097,0.210712,-1.220700,-0.182476,0.399410,0.591601,1.242356,-0.921631,0.246826,0.085205,0.096241,0.007497,-0.010441,0.999974,0.001997,0.002958,0.006212,0.432914,-0.552153,-0.433441,-0.565546
20980,NaN,10.407401,1.948543,-0.439179,1.680330,-1.069327,0.595710,0.326019,0.601225,1.336584,-0.913330,0.257568,0.074463,0.103927,0.020188,-0.004672,0.999972,0.001630,0.003006,0.006683,0.438939,-0.552680,-0.429363,-0.563494
20981,NaN,9.553678,1.584704,-0.639146,1.400340,-1.242345,-0.289743,0.155438,0.576615,1.368324,-0.913818,0.268311,0.078613,0.095406,0.016505,-0.006654,0.999972,0.000777,0.002883,0.006842,0.444452,-0.553634,-0.424737,-0.561738
20982,NaN,8.086935,-0.228788,-0.977690,-0.343832,-1.159931,-1.754035,0.074795,0.517556,1.389282,-0.907715,0.281250,0.069824,0.080857,-0.001722,-0.009987,0.999972,0.000374,0.002588,0.006946,0.449702,-0.555004,-0.419952,-0.559803
20983,NaN,8.488213,-2.126106,-0.629099,-1.987044,-0.443015,-1.279230,-0.019478,0.430983,1.403544,-0.910400,0.298340,0.067383,0.085015,-0.020665,-0.006472,0.999973,-0.000097,0.002155,0.007018,0.454472,-0.556772,-0.415017,-0.557872
20984,NaN,9.533162,-1.649503,0.695033,-1.052382,0.612988,-0.189783,-0.051525,0.388258,1.352463,-0.897705,0.304688,0.061035,0.095454,-0.015848,0.006769,0.999975,-0.000258,0.001941,0.006762,0.458937,-0.558698,-0.410226,-0.555831
20985,NaN,9.825514,-0.767182,1.105824,0.033073,0.715328,0.078615,-0.149411,0.367555,1.292089,-0.904785,0.323975,0.067139,0.098322,-0.007029,0.010883,0.999977,-0.000747,0.001838,0.006460,0.462858,-0.560656,-0.405342,-0.554189
20986,NaN,9.496664,-1.768481,0.417841,-1.008085,0.254022,-0.199845,-0.284931,0.317526,1.222145,-0.898682,0.330566,0.054199,0.095079,-0.017098,0.004052,0.999979,-0.001425,0.001588,0.006111,0.466084,-0.563046,-0.400388,-0.552661
20987,NaN,10.183426,-3.739319,0.718479,-2.679377,0.934675,0.682402,-0.364701,0.248754,1.117872,-0.894775,0.345459,0.062500,0.102050,-0.036810,0.007125,0.999982,-0.001823,0.001244,0.005589,0.468639,-0.565436,-0.395640,-0.551478
20988,NaN,10.907202,-4.227089,2.061119,-2.641141,2.259690,1.545155,-0.262859,0.248024,0.933217,-0.888428,0.349609,0.058105,0.109293,-0.041734,0.020531,0.999987,-0.001314,0.001240,0.004666,0.471025,-0.567330,-0.391653,-0.550345
20989,NaN,11.055108,-3.757605,2.864168,-1.877718,2.862983,1.711860,-0.186663,0.229867,0.749740,-0.890869,0.358398,0.058105,0.110724,-0.037135,0.028549,0.999992,-0.000933,0.001149,0.003749,0.473009,-0.568601,-0.388461,-0.549594
20990,NaN,11.638529,-3.629878,3.109777,-1.554538,2.989908,2.309419,-0.233817,0.132331,0.556829,-0.884766,0.362549,0.053711,0.116506,-0.035938,0.031063,0.999995,-0.001169,0.000662,0.002784,0.474169,-0.570039,-0.385860,-0.548937
20991,NaN,11.781798,-4.055808,2.673726,-2.003305,2.651493,2.490373,-0.290234,-0.003898,0.324370,-0.891113,0.362549,0.066650,0.117883,-0.040328,0.026798,0.999998,-0.001451,-0.000019,0.001622,0.474228,-0.571364,-0.384140,-0.548715
20992,NaN,11.848387,-4.475174,2.271353,-2.461930,2.383224,2.590116,-0.319933,-0.177111,0.079448,-0.882324,0.360352,0.055908,0.118481,-0.044668,0.022890,0.999998,-0.001600,-0.000886,0.000397,0.473172,-0.572960,-0.383394,-0.548483
20993,NaN,12.161403,-4.997110,2.357624,-2.894366,2.622148,2.961344,-0.334696,-0.349692,-0.195182,-0.893066,0.358154,0.075195,0.121524,-0.050050,0.023872,0.999997,-0.001673,-0.001748,-0.000976,0.471011,-0.574337,-0.383854,-0.548582
20994,NaN,12.574931,-5.375003,2.415368,-3.212973,2.827814,3.398402,-0.305920,-0.509478,-0.505302,-0.886230,0.347656,0.071045,0.125551,-0.054030,0.024556,0.999992,-0.001530,-0.002547,-0.002527,0.467696,-0.575637,-0.385627,-0.548811
20995,NaN,12.569494,-5.759217,1.445933,-3.904984,2.103526,3.362132,-0.136486,-0.631586,-0.878757,-0.892578,0.338867,0.090576,0.125394,-0.058134,0.014895,0.999985,-0.000682,-0.003158,-0.004394,0.463671,-0.575990,-0.389246,-0.549302
20996,NaN,13.114710,-6.585796,-0.013022,-5.156031,1.026635,3.888628,0.133195,-0.809560,-1.294575,-0.892090,0.328125,0.084229,0.130716,-0.066705,0.000355,0.999971,0.000666,-0.004048,-0.006473,0.458682,-0.575567,-0.395231,-0.549660
20997,NaN,15.690372,-5.865894,2.516793,-3.761764,3.302087,6.369643,0.564186,-0.856122,-1.656231,-0.902344,0.311035,0.090820,0.156301,-0.060027,0.025670,0.999953,0.002821,-0.004281,-0.008281,0.454043,-0.573330,-0.403486,-0.549852
20998,NaN,19.201734,-3.866752,6.814817,-0.795052,7.003444,9.691127,0.986440,-0.805838,-2.090538,-0.901855,0.296143,0.086914,0.191321,-0.041008,0.068722,0.999925,0.004932,-0.004029,-0.010452,0.449372,-0.569113,-0.413972,-0.550275
20999,NaN,21.939781,-0.133985,9.289873,3.045204,8.672516,12.167852,1.327056,-0.750453,-2.638270,-0.913818,0.268311,0.100098,0.218999,-0.004851,0.093697,0.999884,0.006635,-0.003752,-0.013191,0.444286,-0.562673,-0.426763,-0.551255
21000,NaN,25.010398,4.790844,9.332281,7.166877,7.887580,15.125350,1.574853,-0.673698,-3.187685,-0.919189,0.238281,0.089844,0.250500,0.043177,0.094519,0.999836,0.007874,-0.003368,-0.015938,0.438407,-0.554102,-0.441436,-0.553087
21001,NaN,26.644259,9.110060,7.028444,9.916269,5.177761,16.965113,1.645972,-0.612490,-3.702339,-0.928711,0.203857,0.103027,0.267842,0.085564,0.071823,0.999790,0.008229,-0.003062,-0.018510,0.431286,-0.543904,-0.457489,-0.555755
21002,NaN,24.967683,12.622760,2.982757,11.523744,1.012947,15.832211,1.729068,-0.561632,-4.182860,-0.923096,0.165283,0.094971,0.252153,0.120703,0.031593,0.999740,0.008645,-0.002808,-0.020912,0.422871,-0.531801,-0.474781,-0.559421
21003,NaN,19.262923,14.705299,0.546214,12.582930,-1.402585,10.856029,1.436721,-0.703367,-4.530731,-0.932129,0.118164,0.108643,0.195870,0.142593,0.007182,0.999711,0.007183,-0.003516,-0.022651,0.412228,-0.519825,-0.492191,-0.563558
21004,NaN,13.999372,13.171265,0.091100,10.817716,-1.367927,6.014380,1.025341,-0.835592,-5.013140,-0.932617,0.068848,0.109375,0.143228,0.128140,0.002168,0.999664,0.005126,-0.004177,-0.025063,0.398298,-0.507242,-0.509786,-0.569370
21005,NaN,11.099421,7.771404,-0.359079,5.291688,-0.794207,2.638849,0.628677,-0.591482,-5.501198,-0.943848,0.017578,0.116455,0.113085,0.074633,-0.003021,0.999612,0.003143,-0.002957,-0.027502,0.382570,-0.493458,-0.526504,-0.577004
21006,NaN,7.946097,4.003170,-4.727397,1.063536,-4.603739,-0.914976,-0.057280,-0.151050,-5.347874,-0.933350,-0.033936,0.113037,0.080529,0.037874,-0.047224,0.999642,-0.000286,-0.000755,-0.026736,0.365993,-0.479265,-0.539858,-0.587289
21007,NaN,5.222796,0.585565,-7.757731,-2.292359,-7.251368,-4.339078,-0.380423,-0.025293,-4.203298,-0.930176,-0.068359,0.117920,0.052343,0.004609,-0.077580,0.999777,-0.001902,-0.000126,-0.021015,0.352587,-0.468582,-0.548737,-0.595820
21008,NaN,9.619678,-7.489580,-5.835936,-11.105071,-3.662283,-3.034283,-0.609040,-0.503443,-2.392295,-0.927246,-0.087646,0.111572,0.095436,-0.076217,-0.057888,0.999921,-0.003045,-0.002517,-0.011961,0.342165,-0.464108,-0.553576,-0.600900
21009,NaN,14.785338,-14.003733,-5.302626,-18.885313,-1.400158,-0.636374,-1.143656,-0.892744,-0.429919,-0.933838,-0.087646,0.128906,0.147784,-0.140653,-0.051563,0.999971,-0.005718,-0.004464,-0.002150,0.335733,-0.467540,-0.552649,-0.602718
21010,NaN,8.622713,-8.079983,-6.663187,-11.643650,-4.157617,-4.229556,-1.426207,-0.555527,1.155761,-0.925293,-0.081055,0.124512,0.086878,-0.080770,-0.065815,0.999954,-0.007131,-0.002778,0.005779,0.334277,-0.474520,-0.546572,-0.603613
21011,NaN,-0.241709,3.253871,-2.940764,2.448845,-3.508538,-8.819335,-1.671046,0.132488,1.677467,-0.932373,-0.066162,0.124268,-0.002708,0.032270,-0.029676,0.999930,-0.008355,0.000662,0.008387,0.335708,-0.481459,-0.537289,-0.605655
21012,NaN,-1.659349,2.354236,-3.445852,1.891139,-4.015472,-10.497230,-1.549618,0.049027,1.525902,-0.926270,-0.057617,0.119873,-0.016780,0.023147,-0.034635,0.999941,-0.007748,0.000245,0.007629,0.336742,-0.487747,-0.528806,-0.607513
21013,NaN,3.026775,-3.245100,-2.009050,-4.369312,-0.917805,-7.864672,-1.060596,0.058447,1.457783,-0.930908,-0.042480,0.128174,0.030498,-0.032335,-0.019928,0.999959,-0.005303,0.000292,0.007289,0.338718,-0.493184,-0.521910,-0.607988
21014,NaN,6.015819,-6.139240,-2.429700,-7.971123,-0.361618,-5.798582,-0.156285,0.422593,1.491072,-0.927002,-0.031738,0.115234,0.060562,-0.060961,-0.024377,0.999970,-0.000781,0.002113,0.007455,0.343848,-0.495919,-0.517049,-0.607037
21015,NaN,2.291592,-2.991622,-1.368251,-3.733248,-0.444320,-8.420412,0.664729,0.829767,1.294360,-0.931641,-0.025391,0.112793,0.023051,-0.029721,-0.013877,0.999965,0.003324,0.004149,0.006472,0.351551,-0.495580,-0.514413,-0.605138
21016,NaN,-1.783258,0.979411,-0.170194,1.340102,-0.522623,-11.261530,0.807005,0.816937,0.876784,-0.929688,-0.014648,0.097656,-0.017882,0.009722,-0.001590,0.999974,0.004035,0.004085,0.004384,0.358143,-0.493764,-0.513276,-0.603720
21017,NaN,-2.968482,1.905219,-0.859492,2.354839,-1.455306,-12.161558,0.658592,0.595337,0.396845,-0.936279,-0.014648,0.104248,-0.029748,0.019021,-0.008444,0.999988,0.003293,0.002977,0.001984,0.362483,-0.491793,-0.513214,-0.602792
21018,NaN,-3.281477,0.850671,-0.763939,1.469823,-1.137732,-12.748755,0.643897,0.421411,0.081009,-0.925293,-0.016846,0.089111,-0.032834,0.008518,-0.007543,0.999993,0.003219,0.002107,0.000405,0.365136,-0.489387,-0.514273,-0.602245
21019,NaN,-2.884938,0.608755,-0.671209,1.170344,-0.957611,-12.431317,0.793918,0.313873,-0.134329,-0.931641,-0.020996,0.091309,-0.028856,0.006133,-0.006643,0.999991,0.003970,0.001569,-0.000672,0.367469,-0.486633,-0.516417,-0.601222
21020,NaN,-2.840564,1.029665,-0.094924,1.689526,-0.460513,-12.276712,0.954616,0.261222,-0.317095,-0.929443,-0.020996,0.082764,-0.028390,0.010346,-0.000863,0.999986,0.004773,0.001306,-0.001585,0.369183,-0.482991,-0.519714,-0.600267
21021,NaN,-2.494562,1.857105,0.822399,2.569833,0.323412,-11.720389,0.991869,0.191381,-0.454275,-0.929443,-0.025391,0.087158,-0.024895,0.018586,0.008340,0.999985,0.004959,0.000957,-0.002271,0.370696,-0.479387,-0.523430,-0.598994
21022,NaN,-1.922379,3.094836,1.547323,3.725782,0.874313,-10.823529,0.828708,0.051332,-0.511348,-0.925049,-0.027588,0.083008,-0.019141,0.030933,0.015606,0.999988,0.004144,0.000257,-0.002557,0.371068,-0.476136,-0.527138,-0.598104
21023,NaN,-1.034240,3.629069,1.579136,3.992571,0.890366,-9.806671,0.516407,-0.084587,-0.530068,-0.933350,-0.031738,0.093750,-0.010253,0.036277,0.015881,0.999993,0.002582,-0.000423,-0.002650,0.370476,-0.474018,-0.530102,-0.597534
21024,NaN,-0.419460,3.165588,1.347308,3.341078,0.785334,-9.330431,0.122877,-0.226086,-0.450085,-0.931152,-0.033936,0.085205,-0.004139,0.031657,0.013488,0.999997,0.000614,-0.001130,-0.002250,0.368653,-0.473225,-0.531995,-0.597608
21025,NaN,0.382951,2.353729,1.635800,2.399359,1.250530,-8.792010,-0.273831,-0.336419,-0.300236,-0.933350,-0.033936,0.097900,0.003837,0.023554,0.016332,0.999997,-0.001369,-0.001682,-0.001501,0.366200,-0.473921,-0.532510,-0.598105
21026,NaN,0.965554,1.264028,1.791614,1.241233,1.615748,-8.552281,-0.676765,-0.371880,-0.111587,-0.933350,-0.031738,0.089355,0.009629,0.012695,0.017891,0.999992,-0.003384,-0.001859,-0.000558,0.363238,-0.475936,-0.531429,-0.599271
21027,NaN,1.821279,0.092966,2.036269,-0.040441,2.114134,-8.080394,-0.997841,-0.372100,0.121693,-0.933350,-0.031738,0.100098,0.018174,0.001042,0.020392,0.999986,-0.004989,-0.001860,0.000608,0.360222,-0.479166,-0.528823,-0.600822
21028,NaN,1.852708,-0.655379,2.225137,-0.683892,2.441493,-8.268490,-1.361661,-0.354395,0.363573,-0.931396,-0.031738,0.100098,0.018499,-0.006368,0.022328,0.999974,-0.006808,-0.001772,0.001818,0.357169,-0.483590,-0.524454,-0.602925
21029,NaN,1.552471,-0.141669,2.279946,-0.064397,2.374336,-8.403226,-1.638313,-0.289075,0.596747,-0.937988,-0.025391,0.102051,0.015495,-0.001183,0.022832,0.999961,-0.008191,-0.001445,0.002984,0.354223,-0.488920,-0.518573,-0.605447
21030,NaN,1.134096,0.074528,2.468142,0.341889,2.471938,-8.737576,-1.743471,-0.163765,0.785858,-0.931885,-0.014648,0.102051,0.011317,0.001005,0.024683,0.999954,-0.008717,-0.000819,0.003929,0.351940,-0.494487,-0.511600,-0.608182
21031,NaN,1.204007,-0.606534,2.320892,-0.297938,2.484174,-8.841127,-1.764585,-0.061674,0.958074,-0.938477,-0.008301,0.104004,0.012061,-0.005803,0.023265,0.999950,-0.008823,-0.000308,0.004790,0.350303,-0.500192,-0.503953,-0.610841
21032,NaN,6.524074,-6.301216,3.730614,-6.499380,5.695403,-5.175462,-1.682604,-0.148071,1.084906,-0.930420,0.006836,0.105957,0.065552,-0.062340,0.037881,0.999950,-0.008413,-0.000740,0.005424,0.349107,-0.506280,-0.496270,-0.612798
21033,NaN,21.657562,-44.674133,-0.724045,-46.831559,13.021454,0.308962,-1.190673,-0.889336,2.284746,-0.937988,0.036865,0.116211,0.221682,-0.444257,-0.003612,0.999907,-0.005953,-0.004447,0.011423,0.350842,-0.516692,-0.488349,-0.609470
21034,NaN,37.241934,-14.405382,-0.914925,-21.067040,5.727095,23.629291,-0.902865,0.380968,4.991192,-0.927002,0.090332,0.096191,0.375842,-0.134744,-0.009241,0.999677,-0.004514,0.001905,0.024953,0.364796,-0.529276,-0.471651,-0.603603
21035,NaN,9.263061,11.180986,-3.303272,8.182258,-5.994426,1.086540,-0.340453,1.090140,5.352986,-0.926514,0.139648,0.099609,0.089413,0.114175,-0.033719,0.999626,-0.001702,0.005450,0.026762,0.382471,-0.539019,-0.454300,-0.597316
21036,NaN,3.390312,20.469336,-7.382195,16.719174,-13.223466,-4.289296,-2.401905,0.878007,3.939731,-0.918701,0.161133,0.088623,0.029543,0.204397,-0.076414,0.999724,-0.012008,0.004390,0.019697,0.390068,-0.549928,-0.434399,-0.597263
21037,NaN,20.857870,13.271140,-0.001857,10.860802,-4.238207,11.986515,-2.655825,-0.038785,2.781651,-0.917480,0.186768,0.105469,0.206706,0.135579,-0.001766,0.999815,-0.013278,-0.000194,0.013907,0.390905,-0.561152,-0.418820,-0.597403
21038,NaN,16.763498,-7.099481,-5.775083,-9.549902,-2.973819,6.457332,-1.665317,0.427397,2.545285,-0.909668,0.214600,0.090088,0.168401,-0.069335,-0.057528,0.999882,-0.008326,0.002137,0.012726,0.394850,-0.568495,-0.405672,-0.596940
21039,NaN,3.267970,-8.312516,-8.762210,-10.972890,-5.314628,-7.002057,1.207000,0.683772,2.010031,-0.912354,0.229736,0.081299,0.033208,-0.082262,-0.088233,0.999925,0.006035,0.003419,0.010050,0.405627,-0.568096,-0.402184,-0.592437
21040,NaN,9.190606,10.483159,-3.698019,8.424222,-7.322203,-0.677560,1.267986,0.606513,1.572761,-0.908691,0.244629,0.072510,0.090965,0.105782,-0.036588,0.999944,0.006340,0.003033,0.007864,0.415333,-0.566966,-0.400018,-0.588247
21042,NaN,19.141153,9.032226,-4.384825,14.106677,-15.847145,27.850581,0.434465,0.297120,1.271407,-0.892334,0.270508,0.070068,0.380221,0.185872,-0.088029,0.999905,0.004345,0.002971,0.012714,0.426414,-0.568436,-0.394096,-0.582871
21043,NaN,26.086734,5.143009,-2.397922,4.418148,-5.289625,15.979068,0.424146,0.427979,0.645910,-0.907471,0.274658,0.061279,0.260647,0.052324,-0.024427,0.999990,0.002121,0.002140,0.003230,0.430458,-0.567657,-0.392495,-0.581738
21044,NaN,37.649383,12.871836,7.943247,15.400181,1.090454,27.709092,0.440193,1.031390,0.892019,-0.896973,0.285400,0.048340,0.376319,0.130225,0.077777,0.999974,0.002201,0.005157,0.004460,0.436306,-0.565436,-0.389017,-0.581881
21045,NaN,31.693043,23.824895,5.784040,25.114541,-4.477478,21.085804,-0.320175,1.241042,0.759190,-0.903809,0.291992,0.050537,0.316372,0.239541,0.055493,0.999972,-0.001601,0.006205,0.003796,0.440087,-0.564020,-0.383194,-0.584266
21046,NaN,15.472268,3.981445,-8.776979,1.291538,-10.897600,4.742376,-1.457397,0.619953,0.946838,-0.891113,0.300537,0.041748,0.154260,0.039902,-0.088539,0.999957,-0.007287,0.003100,0.004734,0.439903,-0.567197,-0.374888,-0.586712
21047,NaN,14.632585,-7.868631,-7.222016,-9.333382,-5.475710,4.716192,-1.339380,0.163676,1.195001,-0.902100,0.309082,0.048096,0.146736,-0.078292,-0.071815,0.999959,-0.006697,0.000818,0.005975,0.439859,-0.571938,-0.367276,-0.586958
21048,NaN,13.296927,-6.553798,-1.294793,-5.993799,-0.286142,3.804505,-0.159587,0.460395,0.896664,-0.889404,0.315430,0.039551,0.133231,-0.064952,-0.013202,0.999987,-0.000798,0.002302,0.004483,0.442865,-0.572568,-0.363229,-0.586602
21049,NaN,8.280411,-5.614388,2.792179,-3.876598,3.635498,-0.888722,0.682443,0.509812,0.583208,-0.898438,0.326172,0.043457,0.083038,-0.055996,0.027519,0.999987,0.003412,0.002549,0.002916,0.447403,-0.570685,-0.362499,-0.585444
21050,NaN,7.452074,-6.908838,6.438747,-3.909129,7.486124,-1.245393,0.990716,0.349071,0.404215,-0.885498,0.326172,0.034912,0.074772,-0.069255,0.063914,0.999984,0.004954,0.001745,0.002021,0.452030,-0.568162,-0.363461,-0.583744
21051,NaN,6.027347,-5.358745,7.741495,-2.167956,8.302925,-2.647756,1.096812,0.203078,0.132825,-0.896240,0.323975,0.026367,0.060388,-0.053971,0.077058,0.999984,0.005484,0.001015,0.000664,0.455835,-0.565463,-0.365839,-0.581918
21052,NaN,5.620067,-4.619110,8.108262,-1.466349,8.430531,-3.071733,0.941789,0.035511,-0.096362,-0.887451,0.323975,0.022217,0.056193,-0.046599,0.080854,0.999989,0.004709,0.000178,-0.000482,0.458268,-0.563022,-0.368769,-0.580522
21053,NaN,6.419881,-4.897938,8.461300,-1.670930,8.742633,-2.225080,0.878735,0.000730,-0.255688,-0.900391,0.324219,0.024170,0.064136,-0.049433,0.084396,0.999990,0.004394,0.000004,-0.001278,0.459977,-0.560583,-0.372030,-0.579450
21054,NaN,7.016098,-4.193404,8.230459,-1.145826,8.232327,-1.721605,0.879796,0.091161,-0.380881,-0.891602,0.315430,0.024414,0.070118,-0.042429,0.082087,0.999988,0.004399,0.000456,-0.001904,0.461496,-0.557572,-0.375434,-0.578951
21055,NaN,7.357948,-2.192674,8.146195,0.649137,7.524949,-1.550689,0.788493,0.133444,-0.470139,-0.897949,0.317627,0.020020,0.073581,-0.022421,0.081325,0.999989,0.003942,0.000667,-0.002351,0.462532,-0.554563,-0.378672,-0.578905
21056,NaN,6.587094,-1.134845,5.630384,0.810953,4.926123,-2.639525,0.421961,0.015014,-0.576582,-0.893311,0.306885,0.011719,0.065842,-0.011657,0.056275,0.999994,0.002110,0.000075,-0.002883,0.462050,-0.552441,-0.381457,-0.579491
21057,NaN,6.561692,-1.734273,2.938077,-0.586024,2.553283,-2.896552,-0.039634,-0.215617,-0.661827,-0.899658,0.304932,0.020264,0.065527,-0.017554,0.029455,0.999994,-0.000198,-0.001078,-0.003309,0.459619,-0.551937,-0.383585,-0.580498
21058,NaN,7.218578,-2.456007,0.632020,-1.958475,0.528811,-2.435449,-0.331106,-0.411818,-0.741248,-0.890869,0.296143,0.020508,0.072081,-0.024817,0.006510,0.999990,-0.001656,-0.002059,-0.003706,0.455751,-0.552458,-0.385614,-0.581707
21059,NaN,8.196393,-1.955686,-0.957311,-1.961740,-1.168102,-1.645163,-0.434557,-0.540644,-0.809741,-0.907959,0.289795,0.029053,0.081909,-0.019909,-0.009309,0.999986,-0.002173,-0.002703,-0.004049,0.451166,-0.553514,-0.387713,-0.582882
21060,NaN,9.126224,-0.894614,-2.139383,-1.337356,-2.614320,-0.866118,-0.546274,-0.640378,-0.824845,-0.899170,0.285400,0.033447,0.091292,-0.009380,-0.021076,0.999983,-0.002731,-0.003202,-0.004124,0.445992,-0.554996,-0.389843,-0.584031
21061,NaN,10.268166,0.202137,-2.694473,-0.510350,-3.481839,0.204866,-0.611080,-0.661375,-0.819349,-0.909668,0.276855,0.044189,0.102777,0.001519,-0.026610,0.999981,-0.003055,-0.003307,-0.004097,0.440642,-0.556745,-0.391702,-0.585184
21062,NaN,10.881150,0.420760,-2.635020,-0.357164,-3.447472,0.841223,-0.622734,-0.639665,-0.826396,-0.905029,0.266113,0.048584,0.108911,0.003676,-0.026014,0.999982,-0.003114,-0.003198,-0.004132,0.435221,-0.558352,-0.393584,-0.586445
21063,NaN,11.266408,-0.309040,-2.087007,-0.957633,-2.634616,1.301425,-0.529613,-0.546269,-0.854116,-0.911133,0.259766,0.057373,0.112706,-0.003626,-0.020553,0.999984,-0.002648,-0.002731,-0.004271,0.430173,-0.559486,-0.395521,-0.587783
21064,NaN,11.153645,-0.673870,-1.722732,-1.271593,-2.080180,1.227260,-0.343457,-0.424163,-0.905371,-0.906494,0.251221,0.055420,0.111541,-0.007273,-0.016979,0.999986,-0.001717,-0.002121,-0.004527,0.425698,-0.559665,-0.397953,-0.589227
21065,NaN,10.665944,-0.725976,-1.330475,-1.273727,-1.592381,0.765617,-0.162263,-0.309679,-0.948945,-0.914795,0.238281,0.063965,0.106644,-0.007776,-0.013133,0.999987,-0.000811,-0.001548,-0.004745,0.421875,-0.559085,-0.400713,-0.590657
21066,NaN,10.068477,-0.595729,-0.846555,-1.069833,-1.085712,0.193389,-0.053885,-0.254649,-0.985062,-0.908203,0.234131,0.062012,0.100664,-0.006455,-0.008336,0.999987,-0.000269,-0.001273,-0.004925,0.418291,-0.557962,-0.403841,-0.592135
21067,NaN,9.312259,-0.511071,-0.266574,-0.864324,-0.475654,-0.534956,-0.041980,-0.263333,-1.029558,-0.922852,0.225342,0.068359,0.093098,-0.005591,-0.002542,0.999986,-0.000210,-0.001317,-0.005148,0.414622,-0.556798,-0.407076,-0.593594
21068,NaN,8.850140,-0.478579,0.337936,-0.703285,0.159111,-0.972581,-0.094130,-0.309959,-1.078231,-0.911621,0.212646,0.066650,0.088469,-0.005261,0.003519,0.999984,-0.000471,-0.001550,-0.005391,0.410514,-0.555702,-0.410437,-0.595160
21069,NaN,10.171506,0.621262,2.270344,0.821663,1.642231,0.464810,-0.157681,-0.302794,-1.038864,-0.926270,0.197510,0.077393,0.101711,0.005702,0.022853,0.999985,-0.000788,-0.001514,-0.005194,0.406417,-0.554843,-0.413401,-0.596719
21070,NaN,9.637932,0.880357,3.523326,1.420317,2.813324,-0.007296,-0.267795,-0.301833,-1.068225,-0.919678,0.188965,0.079834,0.096371,0.008336,0.035367,0.999984,-0.001339,-0.001509,-0.005341,0.401848,-0.554063,-0.416174,-0.598608
21071,NaN,9.817478,1.065888,2.535274,1.180437,1.877420,0.138574,-0.410876,-0.401053,-1.084905,-0.923584,0.180420,0.086182,0.098180,0.010179,0.025528,0.999981,-0.002054,-0.002005,-0.005424,0.396555,-0.553886,-0.418726,-0.600519
21072,NaN,10.208150,1.733507,0.848166,1.136999,0.129464,0.513017,-0.506621,-0.511601,-1.042931,-0.921143,0.171875,0.086426,0.102148,0.016824,0.008700,0.999980,-0.002533,-0.002558,-0.005215,0.390933,-0.554224,-0.421101,-0.602230
21073,NaN,10.283468,1.745635,-0.752948,0.517599,-1.299596,0.550987,-0.524694,-0.600994,-1.027927,-0.927490,0.165283,0.097168,0.102945,0.016908,-0.007265,0.999979,-0.002623,-0.003005,-0.005140,0.385101,-0.554957,-0.423482,-0.603642
21074,NaN,11.129603,1.227631,-0.560960,-0.062343,-0.842536,1.366515,-0.443624,-0.627427,-1.025401,-0.924805,0.152588,0.097412,0.111374,0.011693,-0.005287,0.999979,-0.002218,-0.003137,-0.005127,0.379431,-0.555514,-0.426189,-0.604813
21075,NaN,11.576942,0.818871,-0.023931,-0.386228,-0.090233,1.786358,-0.198254,-0.543825,-1.042752,-0.933105,0.139648,0.108154,0.115810,0.007585,0.000068,0.999982,-0.000991,-0.002719,-0.005214,0.374603,-0.555372,-0.429442,-0.605651
21076,NaN,11.033131,0.389545,0.224637,-0.735752,0.373597,1.198667,0.028100,-0.437256,-1.069834,-0.921875,0.128906,0.108398,0.110345,0.003305,0.002488,0.999983,0.000140,-0.002186,-0.005349,0.370488,-0.554330,-0.433312,-0.606381
21077,NaN,10.265542,0.109378,0.160619,-1.024954,0.468289,0.392612,0.224642,-0.358056,-1.081730,-0.925781,0.120361,0.110840,0.102656,0.000537,0.001791,0.999983,0.001123,-0.001790,-0.005409,0.367028,-0.552685,-0.437620,-0.606893
21078,NaN,9.641690,0.817494,-0.093797,-0.470055,0.029800,-0.147468,0.336449,-0.302753,-1.079143,-0.921143,0.109619,0.110840,0.096460,0.007656,-0.000779,0.999983,0.001682,-0.001514,-0.005396,0.364006,-0.550608,-0.442172,-0.607300
