// Start Time: Unknown
// Update Rate: 100.0Hz
// Filter Profile: human (46.1)
// Firmware Version: 4.4.0
PacketCounter,SampleTimeFine,Acc_X,Acc_Y,Acc_Z,FreeAcc_X,FreeAcc_Y,FreeAcc_Z,Gyr_X,Gyr_Y,Gyr_Z,Mag_X,Mag_Y,Mag_Z,VelInc_X,VelInc_Y,VelInc_Z,OriInc_q0,OriInc_q1,OriInc_q2,OriInc_q3,Quat_q0,Quat_q1,Quat_q2,Quat_q3
31449,NaN,11.927969,-2.798953,0.330321,-0.000000,0.000000,2.443658,-0.046019,0.340256,1.114325,-0.953613,-0.127930,0.043701,0.119439,-0.027324,0.003106,0.999983,-0.000230,0.001701,0.005572,-0.395655,-0.481150,0.505788,-0.596766
31450,NaN,13.642651,-2.844692,0.715303,0.000000,-0.000000,4.141674,-0.138577,0.364187,0.941033,-0.956055,-0.117188,0.032715,0.136571,-0.027800,0.006924,0.999987,-0.000693,0.001821,0.004705,-0.390851,-0.494557,0.480213,-0.609954
31451,NaN,15.637000,-2.749813,0.386182,-0.603727,0.104476,6.057076,-0.251888,0.410090,0.775142,-0.956055,-0.117188,0.030518,0.156483,-0.026887,0.003575,0.999990,-0.001259,0.002050,0.003876,-0.395066,-0.485761,0.493984,-0.603273
31452,NaN,18.065528,-2.241308,-0.072540,-1.832297,0.487720,8.292431,-0.304451,0.472179,0.607377,-0.958496,-0.108643,0.021729,0.180720,-0.021866,-0.001118,0.999991,-0.001522,0.002361,0.003037,-0.395137,-0.482231,0.495441,-0.604862
31453,NaN,20.197345,-1.355847,-0.496859,-3.311914,0.875607,10.144284,-0.202170,0.583786,0.440903,-0.958496,-0.108643,0.021729,0.201987,-0.013119,-0.005545,0.999993,-0.001011,0.002919,0.002205,-0.397370,-0.478550,0.494901,-0.606762
31454,NaN,21.785139,0.543005,-1.333100,-5.739705,1.458191,11.201389,-0.007970,0.712003,0.291895,-0.954346,-0.102295,0.010986,0.217794,0.005747,-0.014107,0.999993,-0.000040,0.003560,0.001459,-0.398262,-0.475648,0.494205,-0.609022
31455,NaN,22.307419,3.554767,-2.241037,-8.862590,1.901980,10.998698,0.280304,0.824089,0.192065,-0.956543,-0.100098,0.004639,0.222945,0.035794,-0.023279,0.999990,0.001402,0.004120,0.000960,-0.400534,-0.474950,0.491810,-0.610015
31456,NaN,22.229757,5.778465,-2.920217,-11.163131,2.283479,10.342918,0.759127,0.893426,0.080160,-0.954590,-0.097900,-0.001953,0.222142,0.057987,-0.029975,0.999983,0.003796,0.004467,0.000401,-0.400677,-0.473540,0.487887,-0.614153
31457,NaN,22.151325,7.520274,-2.403734,-12.434237,1.539841,10.087843,1.460948,1.018063,-0.110290,-0.950439,-0.093750,-0.012695,0.221430,0.075259,-0.024615,0.999960,0.007305,0.005090,-0.000551,-0.404612,-0.477842,0.480646,-0.613950
31458,NaN,21.748668,10.394226,-1.232320,-14.855287,-0.149861,9.209949,2.224973,1.181801,-0.399728,-0.954102,-0.106445,-0.029541,0.217621,0.103645,-0.012455,0.999919,0.011125,0.005909,-0.001999,-0.403331,-0.479637,0.470432,-0.621262
31459,NaN,20.091806,16.207084,-0.926697,-19.488715,-1.785271,7.045807,2.536301,1.401802,-0.633288,-0.945312,-0.110596,-0.042236,0.201368,0.161546,-0.008626,0.999890,0.012681,0.007009,-0.003166,-0.410185,-0.488330,0.455543,-0.621098
31460,NaN,16.243714,22.167909,-0.637664,-24.277944,-3.950978,2.461059,2.307925,1.564373,-0.603789,-0.947266,-0.119141,-0.057129,0.163062,0.221251,-0.005096,0.999898,0.011539,0.007822,-0.003019,-0.409946,-0.489531,0.443647,-0.628873
31461,NaN,12.250272,23.401671,-1.643023,-24.561760,-3.836889,-0.735019,1.233645,1.480630,-0.234981,-0.945068,-0.114990,-0.070068,0.122659,0.233972,-0.015895,0.999953,0.006168,0.007403,-0.001175,-0.419326,-0.498790,0.425319,-0.628075
31462,NaN,8.989389,18.866176,-2.773690,-20.072668,-1.811014,-3.628779,0.159531,1.418889,0.516334,-0.938965,-0.106445,-0.085205,0.089207,0.188915,-0.028221,0.999971,0.000798,0.007094,0.002582,-0.420312,-0.493556,0.423118,-0.633018
31463,NaN,7.344864,14.483484,-3.745313,-15.804426,0.095760,-4.526353,-0.700981,1.410367,1.645583,-0.937500,-0.086914,-0.109131,0.071985,0.145298,-0.038473,0.999935,-0.003505,0.007052,0.008228,-0.424475,-0.497362,0.413385,-0.633691
31464,NaN,6.659911,15.038713,-4.908269,-16.668691,1.126897,-5.880397,-1.737869,1.274946,2.799498,-0.936035,-0.061279,-0.117920,0.064169,0.150860,-0.050806,0.999844,-0.008689,0.006374,0.013997,-0.422496,-0.483771,0.423082,-0.639112
31465,NaN,9.379895,17.704435,-5.894372,-19.835940,1.816723,-3.541750,-2.756762,1.128911,4.010294,-0.937744,-0.016113,-0.131592,0.089892,0.178033,-0.061908,0.999688,-0.013782,0.005644,0.020049,-0.426694,-0.481827,0.425660,-0.636073
31466,NaN,10.894658,17.526185,-5.695756,-20.161870,2.291080,-2.998976,-3.205563,1.090365,5.079842,-0.930908,0.037354,-0.136719,0.104142,0.176999,-0.060362,0.999534,-0.016025,0.005451,0.025395,-0.420384,-0.460487,0.445565,-0.642418
31467,NaN,12.771603,14.024553,-5.196909,-16.987051,3.307938,-0.474749,-2.973064,1.017019,5.622689,-0.922119,0.099609,-0.154541,0.123448,0.142957,-0.054716,0.999481,-0.014863,0.005084,0.028109,-0.425437,-0.457235,0.453401,-0.635899
31468,NaN,13.480361,11.293673,-3.885842,-14.780800,2.991114,0.029285,-2.636467,0.960585,5.437869,-0.915283,0.148926,-0.163818,0.131483,0.116011,-0.041011,0.999532,-0.013180,0.004802,0.027185,-0.416154,-0.436034,0.471957,-0.643387
31469,NaN,14.705736,7.622843,-5.062360,-11.503776,5.281611,2.007019,-1.706781,0.870828,5.022026,-0.901855,0.193848,-0.170898,0.144865,0.079445,-0.051926,0.999639,-0.008533,0.004354,0.025107,-0.425407,-0.437667,0.476335,-0.632915
31470,NaN,15.974375,10.392765,-6.553488,-15.250438,6.436730,1.679101,-0.559736,1.123763,4.570976,-0.892578,0.240967,-0.186523,0.156944,0.107350,-0.066719,0.999719,-0.002798,0.005618,0.022853,-0.414725,-0.421912,0.485584,-0.643584
31471,NaN,10.582988,15.317497,-9.864280,-18.506244,8.623630,-4.614038,0.321220,1.380388,3.640189,-0.876221,0.264648,-0.204102,0.102334,0.155218,-0.099109,0.999809,0.001606,0.006902,0.018200,-0.431619,-0.427725,0.484159,-0.629560
31472,NaN,8.097578,14.400068,-12.024954,-17.462102,10.419980,-7.814241,1.376669,1.273562,2.698000,-0.864014,0.290283,-0.223633,0.078252,0.145894,-0.119754,0.999865,0.006883,0.006368,0.013489,-0.423207,-0.420098,0.482782,-0.641354
31473,NaN,9.005177,11.323396,-11.554513,-14.047283,11.124621,-5.153658,2.141903,1.172554,2.125775,-0.851318,0.296875,-0.240723,0.088158,0.115410,-0.114837,0.999869,0.010709,0.005863,0.010628,-0.448260,-0.432868,0.478591,-0.618579
31474,NaN,10.377623,10.338721,-10.003922,-13.561447,9.702047,-3.763171,2.395537,1.240782,1.729664,-0.849609,0.307617,-0.266602,0.102252,0.105469,-0.099422,0.999872,0.011977,0.006204,0.008648,-0.440637,-0.430205,0.472083,-0.630793
31475,NaN,10.931773,11.305162,-9.602436,-13.558554,9.903151,-2.223726,2.360335,1.392236,1.217278,-0.838867,0.313965,-0.292480,0.107957,0.114840,-0.095431,0.999888,0.011801,0.006961,0.006086,-0.472588,-0.443267,0.469663,-0.599660
31476,NaN,11.303914,12.767941,-9.367020,-15.299370,9.367745,-2.282518,2.372741,1.419550,0.459988,-0.832275,0.307617,-0.309326,0.112082,0.129043,-0.092942,0.999902,0.011863,0.007098,0.002300,-0.469237,-0.443494,0.460168,-0.609405
31477,NaN,10.498293,12.346364,-8.689471,-13.449678,9.377991,-1.487585,2.534705,1.368519,-0.307732,-0.829590,0.294922,-0.334961,0.104583,0.124397,-0.086039,0.999895,0.012673,0.006842,-0.001539,-0.505432,-0.460808,0.455309,-0.569990
31478,NaN,8.407323,9.045452,-6.030148,-9.978249,6.512216,-2.965099,2.614125,1.207903,-0.874111,-0.826660,0.277832,-0.358154,0.084108,0.090869,-0.059623,0.999887,0.013070,0.006039,-0.004370,-0.504592,-0.465909,0.442741,-0.576451
31479,NaN,7.591341,4.338822,-3.410828,-4.075343,4.337637,-2.555704,2.455697,0.909729,-1.453617,-0.830322,0.260742,-0.375244,0.076074,0.043253,-0.033922,0.999888,0.012278,0.004548,-0.007268,-0.539100,-0.487365,0.436071,-0.530744
31480,NaN,7.700037,0.128396,-2.472523,0.245404,3.597320,-2.572650,2.158400,0.653873,-2.210422,-0.829590,0.237061,-0.385498,0.076929,0.000702,-0.024967,0.999875,0.010792,0.003269,-0.011052,-0.541065,-0.496207,0.423140,-0.531018
31481,NaN,6.781833,-0.796059,-2.172153,1.947706,2.959633,-3.584537,1.892716,0.386785,-2.972139,-0.839111,0.200684,-0.391357,0.067650,-0.008760,-0.021933,0.999843,0.009463,0.001934,-0.014860,-0.571261,-0.519284,0.414184,-0.482137
31482,NaN,5.029907,0.567560,-1.391210,0.453933,1.980059,-4.972384,1.635925,-0.123969,-3.732734,-0.843994,0.162109,-0.393066,0.050403,0.004849,-0.013839,0.999792,0.008179,-0.000620,-0.018662,-0.575637,-0.531878,0.400817,-0.474441
31483,NaN,4.102898,1.135378,-1.000949,0.228921,1.337676,-5.655767,0.948444,-0.842566,-4.470354,-0.857910,0.123535,-0.384033,0.041311,0.010479,-0.009785,0.999730,0.004742,-0.004212,-0.022350,-0.600026,-0.555873,0.391971,-0.421109
31484,NaN,3.960614,0.462781,-0.879735,1.004800,1.132789,-6.020856,0.113039,-1.561525,-5.048670,-0.862793,0.078613,-0.370361,0.039773,0.003630,-0.008485,0.999651,0.000565,-0.007807,-0.025240,-0.607071,-0.569200,0.382250,-0.401698
31485,NaN,3.776651,1.427188,-1.162657,0.536687,1.253558,-5.839388,-0.595906,-2.180300,-5.490233,-0.882812,0.035645,-0.350586,0.038263,0.013192,-0.011252,0.999559,-0.002979,-0.010900,-0.027447,-0.627013,-0.590122,0.375281,-0.343183
31486,NaN,4.143523,2.373320,-1.225144,0.160744,1.278128,-5.055145,-1.351153,-2.803607,-5.880032,-0.898682,-0.009277,-0.328613,0.042275,0.022418,-0.011817,0.999447,-0.006755,-0.014015,-0.029395,-0.635480,-0.601402,0.368833,-0.313756
31487,NaN,6.025657,1.867708,-2.518575,2.432710,2.077578,-3.822355,-2.118196,-3.361567,-6.369921,-0.905273,-0.067383,-0.297852,0.061219,0.016476,-0.024344,0.999296,-0.010588,-0.016804,-0.031842,-0.651785,-0.617316,0.362582,-0.250262
31488,NaN,8.209558,1.379505,-2.997010,4.731176,1.929813,-2.592615,-2.755216,-3.731467,-6.861086,-0.914307,-0.116699,-0.264893,0.083037,0.010556,-0.028587,0.999143,-0.013772,-0.018652,-0.034296,-0.661548,-0.624914,0.356703,-0.211186
31489,NaN,9.017309,-0.455402,-3.721123,7.545576,1.529591,-3.810678,-3.462090,-4.230868,-7.340493,-0.916992,-0.170410,-0.231934,0.090668,-0.008497,-0.035172,0.998953,-0.017304,-0.021147,-0.036690,-0.673435,-0.635618,0.348336,-0.145387
31490,NaN,10.004154,-2.595662,-4.456186,10.288484,1.053392,-5.384268,-4.205901,-4.730021,-7.701545,-0.908447,-0.230469,-0.196777,0.099927,-0.030703,-0.041584,0.998758,-0.021021,-0.023640,-0.038492,-0.683321,-0.637518,0.342413,-0.096935
31491,NaN,12.222939,-6.002284,-3.607749,13.848301,-1.906619,-8.121169,-4.271277,-4.977608,-7.809149,-0.904297,-0.290527,-0.165771,0.120569,-0.065462,-0.031702,0.998700,-0.021347,-0.024877,-0.039029,-0.688547,-0.644205,0.331153,-0.035224
31492,NaN,15.857360,-13.321371,-2.266461,19.270581,-6.655082,-14.063869,-3.643299,-4.781758,-7.574211,-0.887207,-0.354980,-0.128418,0.153813,-0.139438,-0.016445,0.998831,-0.018209,-0.023899,-0.037856,-0.692892,-0.644292,0.323476,0.012311
31493,NaN,21.094635,-19.504067,-1.085840,24.494641,-11.489553,-19.511259,-2.656816,-4.367789,-7.057993,-0.880859,-0.410645,-0.101807,0.204021,-0.202404,-0.003695,0.999051,-0.013280,-0.021832,-0.035279,-0.689024,-0.653139,0.309284,0.054754
31494,NaN,29.373371,-26.543844,-2.023805,32.591805,-16.398589,-25.293042,-1.244857,-3.648734,-6.395576,-0.864258,-0.462402,-0.075195,0.285330,-0.274751,-0.013290,0.999303,-0.006223,-0.018239,-0.031970,-0.685216,-0.657286,0.300414,0.090583
31495,NaN,33.838696,-30.167243,-2.589240,36.881116,-17.857511,-29.360611,0.490230,-2.433107,-5.817445,-0.841064,-0.513916,-0.048584,0.329713,-0.311290,-0.022601,0.999500,0.002451,-0.012164,-0.029082,-0.674091,-0.672967,0.285868,0.104864
31496,NaN,31.830626,-28.548702,0.231434,32.379168,-18.636264,-30.601301,1.764855,-1.314110,-5.001038,-0.822266,-0.556885,-0.032959,0.311023,-0.293343,0.001808,0.999627,0.008823,-0.006570,-0.025002,-0.663401,-0.685123,0.274289,0.123579
31497,NaN,29.153486,-28.763505,3.270867,29.429783,-18.038551,-32.089035,2.314630,-0.547439,-3.667338,-0.801758,-0.591064,-0.015137,0.286107,-0.293273,0.030124,0.999761,0.011572,-0.002737,-0.018335,-0.651628,-0.702149,0.264670,0.110985
31498,NaN,25.099684,-27.762675,6.167913,24.149024,-17.530392,-33.226698,2.218895,-0.112037,-2.153445,-0.799316,-0.601807,0.004395,0.247950,-0.280970,0.058714,0.999880,0.011094,-0.000560,-0.010767,-0.642417,-0.712082,0.258675,0.115446
31499,NaN,20.413157,-25.374030,9.209053,19.608553,-17.032615,-31.508769,1.468780,-0.066330,-0.681639,-0.794678,-0.610596,0.006592,0.203234,-0.255101,0.090288,0.999967,0.007344,-0.000332,-0.003408,-0.638277,-0.718187,0.262181,0.089844
31500,NaN,14.866084,-21.411194,12.908967,12.275168,-17.495004,-29.543984,0.529891,-0.085645,0.619380,-0.810059,-0.604004,0.017090,0.149269,-0.213991,0.128586,0.999992,0.002649,-0.000428,0.003097,-0.636534,-0.719022,0.264915,0.087480
31501,NaN,17.572694,-16.537009,14.137096,13.453655,-20.522810,-23.226290,-0.517770,-0.191569,1.717237,-0.818848,-0.595459,0.014893,0.177000,-0.163487,0.141965,0.999959,-0.002589,-0.000958,0.008586,-0.642486,-0.709166,0.283247,0.063771
31502,NaN,11.576989,-18.607440,12.788984,9.823394,-16.738469,-26.156211,-1.079718,-0.231931,2.502957,-0.841064,-0.573975,0.005859,0.117931,-0.183913,0.129023,0.999906,-0.005398,-0.001160,0.012514,-0.646724,-0.702012,0.292496,0.058077
31503,NaN,40.727573,-5.814192,31.431468,19.890152,-47.535438,-4.837532,-2.054769,1.021317,4.154012,-0.870361,-0.539551,-0.016357,0.409921,-0.046427,0.312743,0.999719,-0.010273,0.005106,0.020768,-0.661444,-0.677228,0.320423,0.034405
31504,NaN,41.741962,13.928880,11.482547,21.460757,-28.170398,18.701725,-4.955187,0.419289,6.602974,-0.909180,-0.472900,-0.045410,0.412692,0.155738,0.110233,0.999146,-0.024769,0.002096,0.033005,-0.679460,-0.649763,0.340263,0.019062
31505,NaN,5.742601,9.537363,-19.412090,10.733339,15.721284,1.948106,-6.267879,-2.377096,5.159100,-0.929688,-0.438721,-0.043701,0.057370,0.090723,-0.196331,0.999106,-0.031330,-0.011882,0.025788,-0.702514,-0.594693,0.390227,0.023194
31506,NaN,6.438653,-26.192814,-3.298182,17.841599,-8.797189,-28.318360,-3.008586,-1.221718,5.098470,-0.942139,-0.387207,-0.051025,0.071226,-0.260623,-0.028633,0.999543,-0.015041,-0.006108,0.025488,-0.709345,-0.573767,0.409149,0.014779
31507,NaN,5.167587,-27.300177,-2.738433,17.800852,-10.914199,-28.342800,-0.993653,-0.276874,4.666524,-0.960938,-0.344238,-0.047607,0.058064,-0.271828,-0.025954,0.999715,-0.004968,-0.001384,0.023330,-0.713638,-0.546727,0.437955,-0.002531
31508,NaN,13.551667,-13.472714,0.268323,14.738303,-12.064403,-11.364140,0.009614,0.398406,4.400079,-0.981689,-0.303467,-0.050293,0.138441,-0.131703,0.002403,0.999756,0.000048,0.001992,0.021999,-0.714254,-0.536988,0.448453,-0.019340
31509,NaN,11.723665,-6.428785,-6.578169,14.200352,-2.997262,-6.437936,0.477285,0.868064,3.803890,-0.991211,-0.275635,-0.059326,0.118142,-0.061888,-0.066443,0.999807,0.002386,0.004340,0.019018,-0.715604,-0.517491,0.467556,-0.038798
31510,NaN,10.976738,-4.460405,0.790763,8.041339,-7.269752,-4.966827,0.784340,0.945003,3.345771,-0.996582,-0.247803,-0.062012,0.110529,-0.042788,0.007216,0.999841,0.003921,0.004725,0.016728,-0.715021,-0.512210,0.472605,-0.055042
31511,NaN,13.312664,-7.381203,2.127751,9.861916,-10.516755,-4.487420,0.255975,0.711271,2.989154,-0.999756,-0.213379,-0.075439,0.134285,-0.071838,0.020709,0.999881,0.001280,0.003556,0.014945,-0.715639,-0.495988,0.486741,-0.070284
31512,NaN,10.211967,-4.663474,0.432492,7.698252,-6.495137,-4.836509,0.135474,0.594840,2.519799,-1.004639,-0.194092,-0.071289,0.102709,-0.045346,0.003989,0.999916,0.000677,0.002974,0.012599,-0.715805,-0.490090,0.490773,-0.081099
31513,NaN,10.327346,-2.752843,1.209169,5.880446,-6.057294,-3.147960,-0.063838,0.419839,2.298910,-1.007812,-0.168457,-0.088867,0.103606,-0.026335,0.011883,0.999932,-0.000319,0.002099,0.011494,-0.716631,-0.474689,0.502901,-0.090559
31514,NaN,12.763703,-3.498624,-1.159336,8.902526,-5.342383,-1.524471,-0.127213,0.191546,2.036998,-1.014893,-0.146973,-0.084961,0.127973,-0.033691,-0.011694,0.999947,-0.000636,0.000958,0.010185,-0.716455,-0.468999,0.507081,-0.097989
31515,NaN,15.879498,-2.843379,-1.190687,9.632592,-5.893516,1.768906,-0.031741,0.118662,1.837865,-1.015381,-0.131836,-0.083008,0.159040,-0.026975,-0.011997,0.999958,-0.000159,0.000593,0.009189,-0.716395,-0.455943,0.517681,-0.104409
31516,NaN,18.996608,-1.582794,-2.805150,11.116579,-4.795155,5.176181,-0.172664,0.096422,1.568059,-1.018066,-0.119141,-0.087646,0.190069,-0.014362,-0.028130,0.999969,-0.000863,0.000482,0.007840,-0.716197,-0.451200,0.520984,-0.109796
31517,NaN,23.715666,0.864741,-1.180985,10.141552,-5.864493,10.859103,-0.320759,0.305924,1.368189,-1.016357,-0.108398,-0.092041,0.237072,0.010250,-0.012188,0.999974,-0.001604,0.001530,0.006841,-0.717149,-0.439217,0.528914,-0.114173
31518,NaN,25.782283,5.480005,0.101348,7.106602,-4.466247,15.173440,-0.336133,0.398131,1.167642,-1.019043,-0.093262,-0.090088,0.257498,0.056305,0.000407,0.999980,-0.001681,0.001991,0.005838,-0.718259,-0.434687,0.530232,-0.118344
31519,NaN,25.792599,6.042889,-0.541788,6.805200,-3.288868,15.582880,-0.116737,0.362132,0.937029,-1.017090,-0.084717,-0.103027,0.257629,0.061633,-0.005920,0.999987,-0.000584,0.001811,0.004685,-0.719017,-0.425157,0.536178,-0.121533
31520,NaN,24.066908,7.009218,-0.306839,5.256294,-2.177176,14.601794,0.407633,0.430681,0.783135,-1.010742,-0.082520,-0.101074,0.240385,0.071041,-0.003442,0.999988,0.002038,0.002153,0.003916,-0.718820,-0.424255,0.536040,-0.126356
31521,NaN,21.344106,9.312260,-0.470182,2.574148,0.351397,13.333773,0.939049,0.541111,0.593580,-1.012939,-0.078369,-0.111816,0.213150,0.093778,-0.004839,0.999981,0.004695,0.002706,0.002968,-0.717939,-0.420179,0.539196,-0.131452
31522,NaN,19.058976,11.967814,-0.149355,-0.313149,2.409159,12.561238,1.448076,0.636854,0.363320,-1.008545,-0.080322,-0.118164,0.190368,0.120034,-0.001232,0.999967,0.007240,0.003184,0.001817,-0.716352,-0.423965,0.536704,-0.137994
31523,NaN,18.137569,14.318376,-0.117458,-2.427792,4.117697,12.795930,1.934714,0.714787,0.102003,-1.006348,-0.084717,-0.126709,0.181300,0.143283,-0.000437,0.999947,0.009673,0.003574,0.000510,-0.714051,-0.425927,0.536486,-0.144567
31524,NaN,17.011486,17.494990,0.335791,-5.372954,5.791600,13.277612,2.178616,0.842325,-0.166037,-1.008057,-0.093262,-0.135010,0.170277,0.174763,0.004545,0.999931,0.010893,0.004212,-0.000830,-0.711742,-0.433512,0.531514,-0.151603
31525,NaN,14.294067,18.665793,-0.332630,-6.952347,7.535779,11.346598,1.919364,0.982834,-0.339586,-1.003418,-0.104004,-0.145508,0.143245,0.186440,-0.002240,0.999940,0.009597,0.004914,-0.001698,-0.710313,-0.437865,0.528147,-0.157449
31526,NaN,10.793684,14.330989,-2.795568,-3.918109,7.719674,6.148215,1.404208,1.018950,-0.206937,-0.996826,-0.108154,-0.158447,0.107944,0.143392,-0.027499,0.999962,0.007021,0.005095,-0.001035,-0.710066,-0.442578,0.522950,-0.162648
31527,NaN,9.557974,8.845526,-3.892455,-0.039043,5.863656,2.449620,0.745994,1.103551,0.487946,-0.994873,-0.101807,-0.166992,0.095148,0.088833,-0.039119,0.999975,0.003730,0.005518,0.002440,-0.710541,-0.442073,0.520673,-0.169121
31528,NaN,7.747253,9.412862,-5.222820,-0.463619,7.788124,0.912241,-0.028257,1.262485,1.566976,-0.990967,-0.086670,-0.180176,0.076400,0.094723,-0.052726,0.999949,-0.000141,0.006312,0.007835,-0.712529,-0.436802,0.519650,-0.177397
31529,NaN,5.785217,14.422137,-4.465750,-5.401083,10.588197,1.146693,-0.593945,1.473093,2.615386,-0.991699,-0.062988,-0.195557,0.055628,0.144824,-0.045502,0.999883,-0.002970,0.007365,0.013076,-0.714535,-0.426723,0.521074,-0.189287
31530,NaN,4.649450,17.778911,-3.779598,-8.811117,12.461609,1.097054,-1.078929,1.436862,3.380708,-0.982178,-0.026611,-0.208740,0.043205,0.178329,-0.039075,0.999817,-0.005394,0.007184,0.016903,-0.717250,-0.412622,0.524079,-0.201586
31531,NaN,6.226984,17.619582,-4.343232,-8.046782,12.979096,1.798336,-1.725861,1.137245,4.144327,-0.981445,0.014160,-0.230713,0.058353,0.177047,-0.045297,0.999732,-0.008629,0.005686,0.020720,-0.718291,-0.396154,0.529670,-0.215798
31532,NaN,6.366227,16.191376,-4.095006,-7.336115,12.395611,0.766704,-1.380920,0.993290,4.699565,-0.976562,0.061279,-0.233643,0.059631,0.163057,-0.042376,0.999688,-0.006904,0.004966,0.023495,-0.718362,-0.377554,0.536736,-0.230919
31533,NaN,7.178712,14.859902,-0.048256,-8.896291,8.627042,1.083797,-0.683010,0.897099,4.569108,-0.965088,0.102051,-0.242676,0.068363,0.150183,-0.001305,0.999723,-0.003415,0.004485,0.022843,-0.714995,-0.365104,0.541583,-0.249337
31534,NaN,8.838387,14.945726,0.569178,-9.190511,8.478751,2.246409,-0.603610,0.601302,3.871458,-0.961670,0.127686,-0.253906,0.085485,0.151147,0.004977,0.999804,-0.003018,0.003006,0.019356,-0.712758,-0.351641,0.547147,-0.262592
31535,NaN,8.089331,15.023937,-6.784303,-5.551235,14.494521,-0.002197,0.433167,0.578603,3.209751,-0.956055,0.151367,-0.260498,0.078271,0.151656,-0.067745,0.999865,0.002166,0.002893,0.016048,-0.707570,-0.347742,0.548505,-0.278499
31536,NaN,4.215544,14.207905,-10.495178,-4.158396,16.983536,-4.912416,2.258361,1.190200,2.755556,-0.949951,0.168457,-0.282227,0.039563,0.143811,-0.103575,0.999824,0.011291,0.005951,0.013777,-0.702946,-0.346455,0.545844,-0.296462
31537,NaN,1.259915,12.732306,-9.449249,-5.054096,14.985314,-8.128308,3.729519,1.857266,2.231357,-0.939209,0.164307,-0.303467,0.010301,0.129180,-0.092198,0.999721,0.018646,0.009285,0.011156,-0.695389,-0.356247,0.535416,-0.320705
31538,NaN,0.604277,12.154936,-8.356195,-5.955555,13.476692,-8.921435,4.619027,2.030429,1.628375,-0.932617,0.166504,-0.331543,0.004213,0.123476,-0.080774,0.999649,0.023092,0.010151,0.008141,-0.689742,-0.364565,0.523663,-0.342235
31539,NaN,4.410653,11.931591,-7.556554,-6.185172,12.610531,-5.165927,5.009761,1.704443,1.150724,-0.925537,0.149414,-0.356934,0.042783,0.121413,-0.072910,0.999633,0.025046,0.008521,0.005753,-0.679250,-0.382279,0.508561,-0.365852
31540,NaN,9.453841,11.009776,-7.721287,-4.877000,12.638460,-0.503993,5.300191,1.344180,0.885127,-0.916504,0.140869,-0.365234,0.093535,0.112518,-0.074883,0.999616,0.026498,0.006720,0.004425,-0.670658,-0.395421,0.495800,-0.384763
31541,NaN,17.630399,11.985759,-9.289620,-4.391164,15.061944,7.351043,5.383878,1.270065,0.597547,-0.909180,0.113037,-0.396973,0.175359,0.122845,-0.090732,0.999613,0.026916,0.006350,0.002987,-0.657307,-0.416328,0.479180,-0.406209
31542,NaN,18.434321,13.380366,-9.500628,-6.121979,15.588786,8.314565,5.157106,1.570700,-0.057880,-0.901855,0.089355,-0.411621,0.183647,0.136165,-0.092959,0.999637,0.025782,0.007853,-0.000289,-0.650214,-0.430072,0.463251,-0.421496
31543,NaN,13.401715,11.339181,-6.600477,-6.558791,11.027412,3.866398,4.504254,1.462218,-1.047633,-0.891846,0.052979,-0.426025,0.134139,0.114152,-0.064420,0.999706,0.022519,0.007310,-0.005238,-0.640408,-0.451411,0.443041,-0.435684
31544,NaN,10.524953,9.213970,-3.029066,-5.898965,6.421473,1.536638,4.215045,1.155963,-1.469249,-0.888428,0.016602,-0.427490,0.105756,0.091984,-0.028961,0.999734,0.021073,0.005779,-0.007346,-0.636486,-0.465523,0.426725,-0.442810
31545,NaN,11.992610,5.734617,0.557665,-2.560902,2.230973,3.051131,3.949652,0.821032,-1.654463,-0.880615,-0.021973,-0.439697,0.120419,0.056233,0.006201,0.999762,0.019747,0.004105,-0.008272,-0.626759,-0.486868,0.407481,-0.451765
31546,NaN,12.796891,0.975381,1.592249,2.421366,0.724295,2.870045,3.359587,0.451458,-1.946701,-0.879639,-0.049805,-0.432861,0.128090,0.008242,0.015780,0.999809,0.016797,0.002257,-0.009733,-0.623778,-0.500249,0.393662,-0.453522
31547,NaN,11.061955,0.070144,1.757147,3.123744,0.142391,0.942453,2.785148,-0.137176,-2.398814,-0.871582,-0.094971,-0.425781,0.110603,-0.000871,0.017643,0.999831,0.013925,-0.000686,-0.011993,-0.616507,-0.519984,0.377963,-0.454621
31548,NaN,7.766283,3.150275,3.041775,-0.498613,-1.621354,-1.060237,2.020730,-1.013519,-2.933625,-0.875000,-0.127197,-0.403809,0.077954,0.030049,0.031121,0.999829,0.010103,-0.005067,-0.014667,-0.615900,-0.533971,0.368803,-0.446684
31549,NaN,6.622083,4.645080,3.105136,-1.953441,-2.053733,-1.625614,0.730871,-2.211782,-3.461635,-0.867432,-0.159424,-0.386230,0.066660,0.045184,0.031954,0.999782,0.003654,-0.011058,-0.017307,-0.612846,-0.552508,0.361174,-0.434404
31550,NaN,7.707278,4.524357,2.071727,-1.198345,-1.073622,-0.781402,-0.862089,-3.301818,-3.827175,-0.864014,-0.193848,-0.347168,0.077567,0.043855,0.021804,0.999671,-0.004310,-0.016507,-0.019134,-0.617375,-0.563767,0.362473,-0.411859
31551,NaN,8.540975,3.758495,0.836860,0.149622,-0.094124,-0.446415,-2.286941,-4.048672,-4.210663,-0.863281,-0.223877,-0.318848,0.085990,0.035884,0.009689,0.999508,-0.011433,-0.020240,-0.021050,-0.657196,-0.536746,0.421045,-0.320498
31552,NaN,8.413961,2.545981,-0.436130,1.744848,0.525733,-1.203226,-3.201091,-4.559300,-4.709993,-0.868408,-0.258057,-0.283936,0.084783,0.023415,-0.002819,0.999335,-0.016002,-0.022791,-0.023545,-0.663297,-0.543090,0.428235,-0.285840
31553,NaN,9.254694,2.140513,-0.672576,2.913629,0.114901,-0.749272,-3.681473,-4.959824,-5.255332,-0.856934,-0.288330,-0.251465,0.093200,0.018861,-0.004782,0.999178,-0.018402,-0.024792,-0.026269,-0.666989,-0.552994,0.432550,-0.249448
31554,NaN,10.390733,2.417127,-0.746319,3.699904,-0.477723,0.207116,-4.161021,-5.281570,-5.798990,-0.855469,-0.326904,-0.220703,0.104704,0.021019,-0.005164,0.999015,-0.020798,-0.026399,-0.028985,-0.673644,-0.557700,0.438891,-0.206274
31555,NaN,11.325815,3.350836,-0.897518,4.029636,-0.942603,1.282814,-4.851109,-5.490044,-6.309171,-0.843750,-0.361328,-0.187988,0.114439,0.029731,-0.006596,0.998832,-0.024246,-0.027440,-0.031534,-0.678793,-0.564065,0.441606,-0.161413
31556,NaN,12.696788,2.437905,-0.480726,5.772812,-2.776553,1.423495,-5.433809,-5.566562,-6.801923,-0.818604,-0.406494,-0.167969,0.127776,0.019964,-0.001840,0.998666,-0.027157,-0.027820,-0.033994,-0.686407,-0.564381,0.445110,-0.110437
31557,NaN,12.688294,-1.327061,-0.954403,8.814959,-4.513924,-1.722244,-5.835575,-5.617284,-7.203771,-0.801758,-0.458008,-0.145752,0.126483,-0.018033,-0.005507,0.998532,-0.029164,-0.028073,-0.036001,-0.691906,-0.566070,0.444200,-0.059304
31558,NaN,13.813871,-5.424929,-2.715807,12.865673,-6.059099,-4.795578,-5.775237,-5.698998,-7.301804,-0.783203,-0.496582,-0.125732,0.136687,-0.059936,-0.021572,0.998511,-0.028862,-0.028481,-0.036491,-0.696725,-0.563157,0.444301,-0.005025
31559,NaN,20.130743,-9.355007,-4.796874,19.745285,-10.211364,-5.210920,-5.025142,-5.302057,-7.182592,-0.755615,-0.550293,-0.107666,0.198884,-0.101799,-0.040184,0.998688,-0.025115,-0.026499,-0.035897,-0.697392,-0.563896,0.440216,0.043311
31560,NaN,27.851922,-16.498439,-6.270149,27.879177,-17.549917,-8.677543,-3.460140,-4.357397,-6.879080,-0.721924,-0.591064,-0.098389,0.273839,-0.175440,-0.053724,0.999022,-0.017295,-0.021780,-0.034384,-0.695384,-0.565477,0.434837,0.087143
31561,NaN,31.575312,-21.280291,-4.927309,24.532591,-29.323437,-13.244605,-1.429765,-2.918596,-6.569024,-0.694580,-0.636230,-0.082520,0.309191,-0.223355,-0.043157,0.999329,-0.007147,-0.014590,-0.032838,-0.672241,-0.526099,0.484395,0.191504
31562,NaN,29.914818,-20.000223,-3.049588,21.062257,-28.828726,-15.206460,0.136948,-1.820521,-5.997996,-0.667480,-0.677002,-0.066650,0.293235,-0.208837,-0.027949,0.999509,0.000685,-0.009101,-0.029985,-0.661399,-0.539082,0.474632,0.216024
31563,NaN,27.818518,-21.099970,-1.655158,12.234936,-31.493760,-18.758530,0.738407,-1.113110,-4.895811,-0.640381,-0.713623,-0.046875,0.273000,-0.217666,-0.015818,0.999678,0.003692,-0.005565,-0.024476,-0.621450,-0.496987,0.525738,0.300673
31564,NaN,24.133443,-24.754350,0.200578,9.901104,-29.477398,-24.918089,1.031167,-0.801121,-3.446412,-0.622559,-0.735107,-0.037842,0.237014,-0.251662,0.001670,0.999830,0.005156,-0.004005,-0.017231,-0.611494,-0.507961,0.521125,0.310610
31565,NaN,21.010985,-26.991773,2.364347,1.293075,-28.569026,-28.725794,1.127235,-0.733839,-1.903443,-0.604736,-0.748047,-0.018311,0.207443,-0.272031,0.022879,0.999932,0.005636,-0.003669,-0.009517,-0.566210,-0.453506,0.576487,0.376035
31566,NaN,19.905065,-26.843638,4.964956,-1.158425,-27.439144,-29.489738,1.296101,-0.518086,-0.416075,-0.606689,-0.754395,-0.007324,0.198365,-0.269166,0.048421,0.999973,0.006480,-0.002590,-0.002080,-0.560979,-0.457388,0.579433,0.374641
31567,NaN,18.882945,-25.736927,7.750238,-9.163317,-25.239961,-28.733158,1.428134,-0.022520,0.839873,-0.619873,-0.750244,0.005371,0.189901,-0.257118,0.075687,0.999966,0.007141,-0.000113,0.004199,-0.519363,-0.392543,0.631838,0.420657
31568,NaN,16.315261,-24.376738,9.703049,-10.437544,-22.480922,-28.256963,1.503069,0.488395,1.744809,-0.637695,-0.737305,0.017822,0.165508,-0.243048,0.094800,0.999931,0.007515,0.002442,0.008724,-0.521590,-0.391934,0.637113,0.410389
31569,NaN,16.748418,-14.056509,5.276070,-10.367184,-18.517887,-17.263253,1.102636,0.543891,2.622604,-0.655273,-0.726562,0.015381,0.169452,-0.138638,0.051534,0.999895,0.005513,0.002719,0.013113,-0.488367,-0.319809,0.679920,0.443766
31570,NaN,24.637550,-5.718364,8.080308,-15.466001,-21.298701,-6.331901,0.924439,0.350804,3.338022,-0.684082,-0.700684,0.023438,0.247429,-0.053431,0.080117,0.999849,0.004622,0.001754,0.016689,-0.495413,-0.311448,0.686351,0.431843
31571,NaN,51.462684,35.352843,15.522430,-33.149221,-16.923142,42.653209,-1.710405,1.460236,5.623020,-0.724121,-0.659912,-0.011475,0.505494,0.369116,0.148398,0.999542,-0.008551,0.007300,0.028111,-0.481157,-0.226982,0.711424,0.459176
31572,NaN,35.683630,20.737869,11.523164,-22.295744,-11.622846,24.873320,-3.726624,1.488371,6.339370,-0.757812,-0.619141,-0.046631,0.350807,0.220628,0.108576,0.999296,-0.018629,0.007440,0.031689,-0.504891,-0.198728,0.705984,0.455168
31573,NaN,4.537245,-19.467851,-0.762585,-7.219114,-12.987750,-23.201005,-3.577059,-0.588774,4.830608,-0.784668,-0.582520,-0.051514,0.050073,-0.193600,-0.004014,0.999544,-0.017883,-0.002943,0.024149,-0.487588,-0.114418,0.714925,0.487903
31574,NaN,-1.955709,-38.384517,-1.449806,-10.460394,-19.371734,-41.343837,-0.452119,-0.409065,5.671785,-0.818604,-0.535400,-0.048096,-0.008635,-0.384225,-0.013655,0.999593,-0.002260,-0.002045,0.028355,-0.500022,-0.091997,0.717774,0.475727
31575,NaN,19.142893,-38.986335,-19.014995,-12.874513,-43.085573,-24.810538,2.130591,-0.259255,6.793172,-0.857422,-0.477295,-0.036377,0.204722,-0.381006,-0.193981,0.999366,0.010651,-0.001296,0.033959,-0.490099,-0.021716,0.729272,0.476964
31576,NaN,11.098690,8.671117,11.300307,-10.003516,7.126936,3.421311,0.596141,0.322792,6.751320,-0.878174,-0.432373,-0.037109,0.108167,0.090058,0.113092,0.999425,0.002980,0.001614,0.033750,-0.507028,0.000683,0.730216,0.457938
31577,NaN,12.417002,-11.703097,-0.286182,-12.441671,-11.479403,-7.669638,-1.232568,0.182635,5.013493,-0.901367,-0.387207,-0.048584,0.127049,-0.113885,-0.002269,0.999666,-0.006162,0.000913,0.025065,-0.501406,0.063149,0.724339,0.468975
31578,NaN,13.008604,-14.417908,0.322081,-14.613779,-12.673592,-8.090674,0.496903,0.739386,4.120438,-0.909180,-0.346436,-0.045166,0.133029,-0.141465,0.002379,0.999778,0.002484,0.003697,0.020601,-0.513792,0.075081,0.722189,0.456972
31579,NaN,7.549017,-9.452374,-1.085485,-8.774990,-8.323866,-8.711401,0.582261,0.804316,3.180697,-0.916260,-0.327148,-0.056152,0.076935,-0.093275,-0.011435,0.999861,0.002911,0.004021,0.015903,-0.512442,0.115879,0.715666,0.460216
31580,NaN,7.302559,-5.839563,-4.752748,-3.927591,-9.132807,-6.469758,0.700787,1.007804,2.859277,-0.930176,-0.299316,-0.058838,0.073607,-0.057178,-0.048099,0.999879,0.003504,0.005039,0.014296,-0.522974,0.121986,0.712952,0.450907
31581,NaN,8.982098,-1.978667,-0.316743,-4.870186,-3.670109,-2.920732,0.172635,0.740173,2.831462,-0.937500,-0.273438,-0.065674,0.090076,-0.018510,-0.003517,0.999893,0.000863,0.003701,0.014157,-0.525434,0.154261,0.704819,0.450947
31582,NaN,11.557536,-0.604859,0.958400,-5.510502,-2.456947,0.109556,-0.377399,0.220680,2.620335,-0.936035,-0.250000,-0.065918,0.115652,-0.004516,0.009466,0.999912,-0.001887,0.001103,0.013101,-0.531786,0.163981,0.701303,0.445519
31583,NaN,16.468862,-2.699021,0.108467,-8.079746,-4.866042,3.954891,-0.880532,0.038219,2.359366,-0.945312,-0.230713,-0.070557,0.164992,-0.025040,0.001166,0.999921,-0.004403,0.000191,0.011797,-0.532959,0.193043,0.692549,0.446166
31584,NaN,14.897583,-4.893752,-2.757522,-7.339515,-7.876490,1.916646,-0.855123,-0.082809,1.794410,-0.950439,-0.211426,-0.075195,0.149419,-0.047715,-0.027308,0.999951,-0.004276,-0.000414,0.008972,-0.535828,0.201716,0.689094,0.444239
31585,NaN,16.422741,-5.580098,-5.016774,-6.959969,-10.008791,3.506116,-0.617879,-0.086125,1.444959,-0.948730,-0.200684,-0.066650,0.164647,-0.054767,-0.049927,0.999969,-0.003089,-0.000431,0.007225,-0.538776,0.220273,0.683189,0.440969
31586,NaN,20.515697,-1.865167,-6.604438,-4.389540,-10.014023,8.853784,0.030124,-0.027662,1.228094,-0.957764,-0.187744,-0.066895,0.205275,-0.017381,-0.066019,0.999981,0.000151,-0.000138,0.006140,-0.541417,0.224450,0.681961,0.437514
31587,NaN,27.616125,4.599661,1.766343,-5.446185,-0.370957,17.703124,0.310019,0.377903,1.138309,-0.949219,-0.179199,-0.075684,0.275926,0.047541,0.017215,0.999981,0.001550,0.001890,0.005692,-0.548284,0.234851,0.678160,0.429334
31588,NaN,26.855090,7.385132,2.144811,-2.955928,1.584825,17.919635,0.560221,0.504763,0.896970,-0.949463,-0.174805,-0.080078,0.268270,0.074996,0.020980,0.999983,0.002801,0.002524,0.004485,-0.552575,0.235276,0.676911,0.425555
31589,NaN,23.376247,8.288683,2.445818,-0.902444,3.152030,14.893174,0.682491,0.556726,0.903335,-0.947998,-0.157715,-0.082275,0.233453,0.083859,0.024093,0.999980,0.003412,0.002784,0.004517,-0.564605,0.235303,0.676148,0.410704
31590,NaN,21.183571,9.491088,0.391451,1.945121,2.517104,13.184175,0.890471,0.503235,0.781951,-0.945801,-0.153564,-0.091064,0.211472,0.095721,0.003807,0.999979,0.004452,0.002516,0.003910,-0.568954,0.234403,0.675618,0.406064
31591,NaN,20.474583,11.413152,-0.705026,4.594427,3.270821,12.950368,1.226414,0.445781,0.577254,-0.946045,-0.151367,-0.099609,0.204400,0.114764,-0.006804,0.999975,0.006132,0.002229,0.002886,-0.581649,0.228652,0.677469,0.387864
31592,NaN,19.851153,14.664803,-0.552823,7.138763,5.560645,13.155660,1.696725,0.472291,0.312374,-0.941650,-0.153320,-0.103760,0.198270,0.147000,-0.004751,0.999960,0.008484,0.002361,0.001562,-0.585777,0.223859,0.678998,0.381726
31593,NaN,17.647505,17.751220,-0.072566,9.372492,8.988739,11.585932,1.885261,0.732467,0.064593,-0.937256,-0.155518,-0.108154,0.176418,0.177570,0.000302,0.999949,0.009426,0.003662,0.000323,-0.602438,0.205355,0.684008,0.356413
31594,NaN,12.745058,18.844654,0.101764,10.839319,10.706693,7.082327,1.518454,0.956667,-0.042843,-0.932617,-0.162109,-0.116455,0.127498,0.188407,0.001838,0.999960,0.007592,0.004783,-0.000214,-0.607174,0.198931,0.683845,0.352310
31595,NaN,10.123650,15.115322,-0.489142,8.629956,8.933881,3.488064,0.913532,0.987199,0.049881,-0.924316,-0.153320,-0.120850,0.101175,0.151200,-0.004700,0.999977,0.004568,0.004936,0.000249,-0.624511,0.177334,0.686963,0.326528
31596,NaN,10.029393,9.242887,-1.554715,5.660419,4.005604,2.034258,0.138559,0.969863,0.680011,-0.919922,-0.151367,-0.135986,0.099902,0.092780,-0.015968,0.999982,0.000693,0.004849,0.003400,-0.629070,0.177660,0.683542,0.324774
31597,NaN,8.513294,9.728642,-1.208153,5.867085,5.327448,0.471857,-0.301681,1.196381,1.750812,-0.918457,-0.129883,-0.151123,0.084202,0.098007,-0.012735,0.999943,-0.001508,0.005982,0.008754,-0.647059,0.165344,0.682062,0.297938
31598,NaN,6.791672,11.588221,-1.862267,7.942635,6.698930,-1.100277,-0.594352,1.360896,2.737983,-0.917236,-0.104004,-0.166504,0.066192,0.116739,-0.019423,0.999879,-0.002972,0.006804,0.013689,-0.655214,0.174567,0.674424,0.292186
31599,NaN,6.508749,12.822478,-2.716031,9.242468,7.922833,-1.692565,-0.544858,1.519964,3.462531,-0.912109,-0.065430,-0.186523,0.062645,0.129248,-0.027994,0.999818,-0.002724,0.007599,0.017312,-0.674557,0.168021,0.670272,0.259765
31600,NaN,8.184169,13.234726,-3.285135,10.196348,7.890795,-0.503337,-0.423969,1.534524,3.856685,-0.911133,-0.033203,-0.199707,0.079014,0.133818,-0.033748,0.999782,-0.002120,0.007672,0.019282,-0.684210,0.180356,0.661156,0.249401
31601,NaN,7.417227,12.267522,-3.672572,9.829427,7.823359,-1.993604,0.137326,1.663370,4.039804,-0.901367,0.003174,-0.215332,0.071366,0.124161,-0.037242,0.999761,0.000687,0.008316,0.020197,-0.701871,0.174590,0.656708,0.213609
31602,NaN,6.832445,10.778639,-3.756516,9.270884,6.818060,-3.140964,0.831290,1.477338,3.848432,-0.898193,0.033203,-0.230713,0.065954,0.109227,-0.037606,0.999779,0.004156,0.007386,0.019241,-0.711407,0.182703,0.648903,0.198607
31603,NaN,7.234055,12.782130,-2.075360,9.029929,9.679230,-3.121777,1.647992,1.352320,3.452915,-0.890381,0.056885,-0.250244,0.069980,0.129211,-0.020171,0.999794,0.008239,0.006761,0.017263,-0.720353,0.189829,0.641927,0.181624
31604,NaN,4.138913,14.348500,-3.939603,10.992487,10.449624,-6.901401,2.188030,1.484532,2.731029,-0.884521,0.076172,-0.259033,0.039135,0.144451,-0.038115,0.999819,0.010939,0.007422,0.013654,-0.729548,0.189342,0.635854,0.166131
31605,NaN,2.309077,12.974793,-7.232181,12.735452,7.976529,-9.451106,3.363632,1.584144,2.217520,-0.871826,0.086914,-0.289307,0.021079,0.131183,-0.070296,0.999766,0.016817,0.007920,0.011087,-0.738973,0.185263,0.630378,0.149061
31606,NaN,2.570338,11.820756,-7.918794,12.569769,7.136248,-9.533446,4.313332,1.814307,1.813740,-0.863281,0.089111,-0.302002,0.023916,0.120104,-0.076834,0.999685,0.021564,0.009071,0.009068,-0.749809,0.173644,0.625007,0.130389
31607,NaN,4.498475,11.042280,-8.650092,13.001414,6.675141,-7.980934,4.734836,1.866513,1.375533,-0.854492,0.082764,-0.325439,0.043421,0.112738,-0.084260,0.999653,0.023671,0.009331,0.006877,-0.759586,0.161312,0.619816,0.113292
31608,NaN,7.550120,11.061123,-8.942775,13.633896,7.286041,-5.305818,5.019209,1.617861,1.053420,-0.849609,0.072021,-0.346680,0.074198,0.113212,-0.087212,0.999639,0.025093,0.008088,0.005266,-0.768972,0.144552,0.615437,0.094990
31609,NaN,12.036113,11.345780,-8.209193,13.818088,8.498091,-0.992970,5.161691,1.314809,0.802546,-0.843018,0.063477,-0.355225,0.119369,0.116019,-0.079906,0.999637,0.025805,0.006573,0.004012,-0.775782,0.129023,0.612568,0.079212
31610,NaN,17.354952,12.751368,-8.602753,15.559597,10.505807,3.799491,4.839646,1.319539,0.412379,-0.838135,0.052734,-0.369873,0.172724,0.129920,-0.084044,0.999683,0.024196,0.006597,0.002062,-0.782865,0.110963,0.608904,0.063605
31611,NaN,14.408105,12.024403,-8.473348,14.311218,10.092151,1.017743,4.351250,1.459916,-0.398085,-0.828857,0.029297,-0.386719,0.143712,0.121778,-0.083145,0.999735,0.021754,0.007299,-0.001990,-0.788107,0.094819,0.605619,0.055877
31612,NaN,10.547837,9.033280,-6.403585,10.532238,7.799033,-1.932072,3.867350,1.189575,-1.000061,-0.821289,0.001221,-0.394775,0.105556,0.091029,-0.062908,0.999783,0.019335,0.005947,-0.005000,-0.793094,0.076210,0.602352,0.048647
31613,NaN,10.157232,6.973590,-5.108611,8.712695,6.049481,-1.726394,3.608110,0.809625,-1.365024,-0.812012,-0.018066,-0.400879,0.101845,0.069953,-0.050237,0.999806,0.018039,0.004048,-0.006825,-0.795011,0.060162,0.601756,0.047200
31614,NaN,11.647542,4.007419,-2.874260,6.451519,3.454857,0.503644,3.589757,0.622050,-1.605943,-0.812988,-0.052246,-0.413330,0.116706,0.039649,-0.028391,0.999802,0.017948,0.003110,-0.008029,-0.797427,0.040914,0.600492,0.042948
31615,NaN,11.891085,-0.042201,-1.052417,4.235147,-0.536028,1.335415,3.166222,0.436713,-1.888156,-0.805664,-0.073730,-0.417236,0.118877,-0.001375,-0.010801,0.999828,0.015830,0.002183,-0.009440,-0.797433,0.025098,0.601212,0.044888
31616,NaN,10.168892,-0.900398,-0.324693,2.988104,-1.458967,-0.155518,2.608340,-0.109729,-2.290221,-0.804688,-0.105957,-0.406006,0.101579,-0.010125,-0.003318,0.999849,0.013041,-0.000549,-0.011451,-0.796798,0.007845,0.602430,0.046145
31617,NaN,9.038100,1.543035,0.760179,1.750715,0.863826,-0.822248,2.012955,-0.953886,-2.711292,-0.801514,-0.131592,-0.392822,0.090540,0.014123,0.008180,0.999846,0.010064,-0.004769,-0.013556,-0.791868,-0.005381,0.608223,0.054604
31618,NaN,9.249267,3.264040,1.513443,1.049201,2.324053,-0.222081,1.069863,-1.880498,-3.081894,-0.798584,-0.159424,-0.385986,0.092831,0.031127,0.016175,0.999823,0.005349,-0.009402,-0.015409,-0.785141,-0.018464,0.615768,0.063580
31619,NaN,10.082642,3.025825,1.392907,1.084292,1.655541,0.619153,-0.233288,-2.679319,-3.391812,-0.799805,-0.185303,-0.361816,0.101122,0.028562,0.015249,0.999766,-0.001166,-0.013396,-0.016958,-0.774287,-0.024643,0.627124,0.081166
31620,NaN,9.792558,1.406758,1.320263,0.641923,-0.221642,0.144098,-1.372485,-3.298834,-3.686815,-0.807617,-0.213135,-0.337891,0.097929,0.012360,0.014729,0.999671,-0.006862,-0.016492,-0.018432,-0.762365,-0.029533,0.638675,0.100108
31621,NaN,8.849193,0.728409,0.608377,0.726000,-1.082702,-1.009801,-2.206645,-3.866415,-4.051808,-0.806641,-0.239014,-0.311768,0.088478,0.005571,0.007727,0.999547,-0.011032,-0.019329,-0.020256,-0.746565,-0.029819,0.652587,0.126021
31622,NaN,8.155644,1.659111,-0.437054,1.449104,-0.472861,-1.620366,-2.901899,-4.391689,-4.467032,-0.801514,-0.264648,-0.285645,0.081972,0.014715,-0.002796,0.999404,-0.014507,-0.021954,-0.022331,-0.729415,-0.030766,0.666095,0.152727
31623,NaN,9.005506,2.968397,-1.083988,1.969691,0.035871,-0.476046,-3.510377,-4.842601,-4.915388,-0.804688,-0.301270,-0.261719,0.090980,0.027285,-0.009137,0.999251,-0.017548,-0.024207,-0.024571,-0.708001,-0.028366,0.680810,0.185548
31624,NaN,11.283760,2.762735,-1.467089,1.786901,-1.431088,1.668076,-4.024316,-5.149262,-5.364012,-0.797363,-0.327148,-0.222656,0.113856,0.024319,-0.012259,0.999107,-0.020116,-0.025739,-0.026812,-0.685445,-0.027566,0.693932,0.218779
31625,NaN,12.331336,1.815394,-1.884312,1.119792,-3.354497,2.283450,-4.568095,-5.311808,-5.842494,-0.789795,-0.365723,-0.204834,0.124214,0.014148,-0.015905,0.998960,-0.022833,-0.026550,-0.029202,-0.658814,-0.024092,0.706465,0.257471
31626,NaN,13.117088,0.343426,-1.874289,-0.319644,-5.517144,2.230417,-4.910650,-5.363880,-6.334762,-0.773438,-0.400146,-0.174316,0.131623,-0.001134,-0.015226,0.998838,-0.024544,-0.026809,-0.031662,-0.631553,-0.023348,0.716224,0.296006
31627,NaN,13.154569,-1.050144,-1.557030,-2.157074,-7.052333,1.235329,-5.096404,-5.276596,-6.667644,-0.763428,-0.447266,-0.165039,0.131434,-0.015218,-0.011753,0.998772,-0.025472,-0.026372,-0.033325,-0.600655,-0.020928,0.724438,0.337587
31628,NaN,14.755149,-3.986797,-2.426196,-4.058537,-10.787957,0.505274,-5.055225,-5.158772,-6.755416,-0.738281,-0.488037,-0.142822,0.146623,-0.045363,-0.019370,0.998778,-0.025266,-0.025783,-0.033763,-0.570379,-0.021470,0.729804,0.376288
31629,NaN,18.896076,-8.198257,-2.698212,-8.420980,-15.950222,0.479409,-4.524653,-4.849830,-6.505624,-0.719727,-0.528809,-0.133545,0.186699,-0.088594,-0.020481,0.998921,-0.022615,-0.024240,-0.032516,-0.538282,-0.020724,0.734316,0.413040
31630,NaN,24.505182,-14.370894,-2.766943,-14.769000,-22.581000,-0.527482,-3.459896,-4.186946,-5.981204,-0.696777,-0.571777,-0.115723,0.241073,-0.151350,-0.020019,0.999184,-0.017295,-0.020929,-0.029898,-0.510491,-0.024696,0.737220,0.441922
31631,NaN,26.294425,-17.051943,-2.213757,-18.608931,-24.319763,-2.816366,-2.244490,-2.989448,-5.620390,-0.667236,-0.616943,-0.108398,0.258284,-0.178027,-0.016283,0.999431,-0.011220,-0.014944,-0.028097,-0.485396,-0.030643,0.739444,0.465483
31632,NaN,24.989323,-17.832780,-1.971455,-19.259578,-23.675939,-5.986645,-1.304601,-2.169756,-4.940849,-0.646729,-0.649170,-0.099121,0.245571,-0.184542,-0.015844,0.999615,-0.006522,-0.010847,-0.024701,-0.465898,-0.040670,0.740632,0.482441
31633,NaN,23.629945,-20.103085,-1.719793,-20.126212,-23.669274,-9.946714,-0.924603,-1.685159,-3.898885,-0.620117,-0.674805,-0.092285,0.232449,-0.205658,-0.014285,0.999764,-0.004623,-0.008425,-0.019493,-0.449679,-0.046855,0.741974,0.495043
31634,NaN,20.924565,-24.258324,-0.587263,-21.141279,-23.258580,-16.030335,-0.654992,-1.400843,-2.597387,-0.604248,-0.698486,-0.087402,0.206102,-0.245288,-0.003621,0.999886,-0.003275,-0.007004,-0.012986,-0.438164,-0.051534,0.742810,0.503577
31635,NaN,19.315070,-27.169408,0.618711,-22.223700,-22.686185,-19.964186,-0.305140,-1.209766,-1.231063,-0.601807,-0.707031,-0.083008,0.191430,-0.272865,0.007764,0.999962,-0.001526,-0.006049,-0.006155,-0.431148,-0.050956,0.744843,0.506679
31636,NaN,18.768841,-28.036148,1.948315,-23.185572,-21.711062,-21.351734,0.298859,-0.781599,0.018235,-0.605957,-0.709229,-0.065918,0.187637,-0.280374,0.019798,0.999991,0.001494,-0.003908,0.000091,-0.428212,-0.049540,0.747284,0.505715
31637,NaN,16.633653,-26.450387,4.412420,-21.395190,-20.108811,-21.373057,0.870424,-0.215195,1.024440,-0.610107,-0.713623,-0.061523,0.167642,-0.263837,0.043155,0.999977,0.004352,-0.001076,0.005122,-0.451697,-0.077192,0.747919,0.480238
31638,NaN,20.144129,-19.194991,5.602606,-21.962868,-17.637082,-13.300334,1.106002,0.130308,1.902610,-0.617188,-0.702881,-0.042480,0.203293,-0.190327,0.054838,0.999939,0.005530,0.000652,0.009513,-0.456307,-0.072871,0.750970,0.471718
31639,NaN,12.819395,-15.220556,4.289121,-14.349459,-13.835177,-13.942789,1.009587,0.182297,2.521178,-0.641113,-0.689941,-0.038574,0.130139,-0.150787,0.042010,0.999907,0.005048,0.000911,0.012606,-0.483408,-0.096470,0.750472,0.440229
31640,NaN,49.188441,0.488403,20.663887,-41.435097,-15.573492,19.968584,0.318495,0.972294,4.536547,-0.672607,-0.651367,-0.050049,0.492607,0.015726,0.204264,0.999730,0.001592,0.004861,0.022681,-0.496765,-0.082319,0.750810,0.427473
31641,NaN,51.046715,24.994848,13.499059,-26.332722,-5.554888,42.020668,-2.873358,1.950628,7.080412,-0.710693,-0.604004,-0.083008,0.502411,0.269689,0.126283,0.999223,-0.014363,0.009751,0.035393,-0.537938,-0.079273,0.739255,0.397292
31642,NaN,9.655019,-0.114250,-1.043486,-3.025421,-5.679636,-2.540241,-4.345174,-0.454888,5.691821,-0.737549,-0.573975,-0.094238,0.096558,0.001382,-0.010227,0.999357,-0.021721,-0.002274,0.028453,-0.548944,-0.045586,0.733629,0.397958
31643,NaN,10.137178,-30.988505,-4.198687,-10.043256,-29.483568,-20.311958,-1.221425,-1.532533,5.404615,-0.762695,-0.535400,-0.093018,0.110007,-0.307235,-0.039284,0.999587,-0.006106,-0.007662,0.027019,-0.571708,-0.047393,0.734358,0.362799
31644,NaN,11.773346,-30.828819,-4.217403,-11.163758,-30.490638,-17.031856,-0.060356,0.466188,6.607720,-0.803467,-0.477295,-0.091797,0.127731,-0.304190,-0.042372,0.999452,-0.000302,0.002331,0.033033,-0.585112,-0.023768,0.734078,0.343815
31645,NaN,3.466159,-11.923299,-0.258205,-4.388295,-11.232717,-12.774060,-0.061581,0.405012,5.939836,-0.819824,-0.434570,-0.092529,0.038176,-0.118135,-0.002621,0.999557,-0.000308,0.002025,0.029695,-0.611815,-0.030973,0.731842,0.298547
31646,NaN,12.236545,-7.941105,-0.832731,-4.781236,-11.695671,-2.478160,-0.405720,0.268354,4.974897,-0.842773,-0.397949,-0.104004,0.124279,-0.076352,-0.008336,0.999688,-0.002028,0.001342,0.024872,-0.620101,-0.011907,0.730956,0.284668
31647,NaN,10.316917,-12.480871,0.476178,-5.712721,-14.530045,-5.494989,0.264864,0.620506,4.103903,-0.850098,-0.370117,-0.104492,0.105715,-0.122663,0.004273,0.999784,0.001324,0.003102,0.020518,-0.640696,-0.026919,0.728291,0.241614
31648,NaN,8.939382,-10.217235,0.367544,-4.635563,-11.959931,-5.352313,0.652010,0.496129,3.145346,-0.857422,-0.344238,-0.109131,0.090994,-0.100760,0.003121,0.999868,0.003260,0.002481,0.015726,-0.646135,-0.018136,0.727815,0.229052
31649,NaN,10.549773,-7.815964,1.384171,-4.134301,-10.251052,-2.593765,0.541903,0.682796,2.950289,-0.862305,-0.324951,-0.113770,0.106682,-0.076628,0.013270,0.999882,0.002709,0.003414,0.014751,-0.662642,-0.040156,0.724557,0.185232
31650,NaN,8.279207,0.062232,-0.442939,-0.503576,-2.454671,-1.909369,-0.137022,0.351694,2.596785,-0.876221,-0.299316,-0.112061,0.082767,0.001694,-0.004576,0.999914,-0.000685,0.001758,0.012984,-0.666296,-0.030602,0.723723,0.177025
31651,NaN,12.980176,-1.705233,-3.822962,2.129963,-5.812892,2.339457,-0.860576,-0.081557,2.413897,-0.883301,-0.277832,-0.112305,0.130012,-0.015648,-0.038107,0.999918,-0.004303,-0.000408,0.012069,-0.671108,-0.022512,0.722628,0.164060
31652,NaN,15.531677,-3.409830,-1.680908,-0.525411,-7.346596,4.379824,-0.687278,-0.241810,2.150529,-0.884033,-0.262939,-0.114746,0.155692,-0.032483,-0.016508,0.999936,-0.003436,-0.001209,0.010752,-0.672038,-0.012220,0.723070,0.159330
31653,NaN,16.699051,-3.402609,-2.768767,0.586988,-7.461159,5.746294,-0.468320,-0.214293,1.711725,-0.893311,-0.241455,-0.115234,0.167303,-0.032660,-0.027431,0.999960,-0.002342,-0.001071,0.008559,-0.675014,-0.007365,0.722775,0.147981
31654,NaN,18.826894,-2.512808,-4.998732,2.750597,-7.259958,8.228232,-0.166294,-0.165997,1.428434,-0.889160,-0.234863,-0.113037,0.188484,-0.023824,-0.049811,0.999974,-0.000831,-0.000830,0.007142,-0.675464,-0.001503,0.723244,0.143749
31655,NaN,23.621663,2.550895,-0.269215,-1.183529,-1.976489,13.835718,0.001582,0.047205,1.317406,-0.889648,-0.224365,-0.113281,0.236041,0.027064,-0.002748,0.999978,0.000008,0.000236,0.006587,-0.678465,0.000768,0.722518,0.132859
31656,NaN,24.721947,5.972877,0.966254,-1.784321,1.656378,15.522058,0.155974,0.151284,1.130662,-0.894287,-0.209229,-0.113525,0.246884,0.061118,0.009523,0.999983,0.000780,0.000756,0.005653,-0.679757,0.004240,0.722091,0.128444
31657,NaN,23.341245,6.204069,1.743782,-2.292314,2.612742,14.151008,0.353555,0.175740,1.051002,-0.894531,-0.204834,-0.115723,0.233098,0.063235,0.017344,0.999984,0.001768,0.000879,0.005255,-0.682713,0.004381,0.721124,0.117746
31658,NaN,20.826951,6.322671,1.339445,-1.657798,3.263901,11.684463,0.696989,0.181326,0.963954,-0.894775,-0.198486,-0.111572,0.207974,0.064183,0.013428,0.999982,0.003485,0.000907,0.004820,-0.683941,0.005388,0.720879,0.111928
31659,NaN,19.057496,7.830361,0.730920,-0.699914,5.143603,10.139461,1.116825,0.250787,0.804790,-0.892822,-0.192139,-0.115967,0.190267,0.079028,0.007510,0.999976,0.005584,0.001254,0.004024,-0.686761,0.001996,0.719992,0.099835
31660,NaN,18.161431,10.193622,0.009906,0.344038,7.618206,9.567456,1.544855,0.284513,0.596991,-0.890869,-0.189941,-0.111572,0.181310,0.102474,0.000631,0.999965,0.007724,0.001423,0.002985,-0.688079,-0.001284,0.719752,0.092207
31661,NaN,17.489203,12.825200,-0.720481,1.247281,10.390087,9.196892,1.966609,0.410853,0.343730,-0.895020,-0.192139,-0.109375,0.174658,0.128617,-0.006300,0.999948,0.009833,0.002054,0.001719,-0.690867,-0.009159,0.718554,0.079366
31662,NaN,15.531936,14.926402,-0.380285,1.006862,12.814222,7.477797,2.140970,0.625735,0.116750,-0.890869,-0.187744,-0.115967,0.155223,0.149387,-0.002690,0.999938,0.010705,0.003129,0.000584,-0.693024,-0.016365,0.717201,0.071221
31663,NaN,12.396768,15.633427,-0.017202,0.526906,13.996265,4.396742,1.955571,0.875616,-0.031301,-0.886475,-0.192139,-0.117920,0.123994,0.156310,0.000814,0.999943,0.009778,0.004378,-0.000157,-0.696896,-0.025464,0.714158,0.060546
31664,NaN,10.218186,13.212885,-0.404943,0.709172,11.850001,1.944410,1.515422,0.978070,0.002640,-0.882080,-0.192139,-0.128662,0.102162,0.132158,-0.003548,0.999959,0.007577,0.004890,0.000013,-0.700172,-0.031012,0.711178,0.054982
31665,NaN,9.952655,8.490760,-1.226453,1.311740,7.233285,1.078178,0.883601,1.011703,0.453320,-0.882080,-0.187744,-0.128662,0.099271,0.085187,-0.012391,0.999975,0.004418,0.005058,0.002267,-0.704498,-0.034522,0.707300,0.047097
31666,NaN,10.141272,8.628650,-1.002507,1.149731,7.453795,1.206378,0.325995,1.176539,1.245338,-0.884766,-0.172852,-0.141846,0.100812,0.086932,-0.010478,0.999962,0.001630,0.005883,0.006227,-0.708872,-0.031524,0.703419,0.041336
31667,NaN,8.071191,12.097697,-1.329871,1.581495,11.298845,-0.697236,-0.288710,1.415318,2.117170,-0.883301,-0.151367,-0.152832,0.079328,0.121802,-0.014039,0.999918,-0.001444,0.007076,0.010586,-0.714840,-0.024822,0.698105,0.032196
31669,NaN,6.086062,14.395034,-1.454786,3.926560,28.102078,3.601045,-0.840809,1.587220,3.208882,-0.885254,-0.095459,-0.179443,0.111901,0.291328,-0.033364,0.999324,-0.008406,0.015869,0.032082,-0.726679,0.003108,0.686813,0.014698
31670,NaN,8.311854,13.845117,-1.940628,2.830625,13.816023,-1.713116,-1.079898,1.428979,3.997650,-0.882324,-0.056885,-0.190674,0.080186,0.139964,-0.020739,0.999760,-0.005399,0.007144,0.019987,-0.732020,0.019410,0.681003,0.002277
31671,NaN,7.126055,11.971354,-0.756593,1.710903,12.237295,-3.335417,-0.808414,1.439681,4.225177,-0.883545,-0.016113,-0.199951,0.068652,0.121149,-0.008554,0.999743,-0.004042,0.007198,0.021124,-0.736705,0.036750,0.675136,-0.010312
31672,NaN,9.680407,8.612128,-0.682223,1.859376,9.373230,-1.037493,-0.129923,1.159008,4.143219,-0.876221,0.016113,-0.208984,0.094951,0.088096,-0.007433,0.999768,-0.000650,0.005795,0.020714,-0.740409,0.050234,0.669774,-0.025959
31673,NaN,10.542475,10.413976,-0.403307,1.768516,11.622991,-0.784478,0.841631,1.089723,3.813595,-0.879150,0.043945,-0.211426,0.103391,0.106142,-0.004156,0.999795,0.004208,0.005448,0.019067,-0.743624,0.060038,0.664531,-0.042633
31674,NaN,7.021836,12.251357,-4.324516,5.176604,13.106464,-5.396595,1.809987,1.261913,3.131274,-0.864990,0.065186,-0.218018,0.068015,0.123977,-0.042561,0.999817,0.009049,0.006309,0.015655,-0.747673,0.063097,0.658287,-0.060511
31675,NaN,5.396390,11.793052,-8.236521,8.573161,12.595160,-7.847319,3.360228,1.415393,2.566604,-0.865234,0.075928,-0.231201,0.051858,0.119971,-0.080733,0.999751,0.016800,0.007076,0.012832,-0.752430,0.059414,0.651002,-0.080721
31676,NaN,7.684095,11.581371,-8.519576,8.760621,13.220510,-6.047370,4.348420,1.583401,2.173111,-0.861084,0.080322,-0.239746,0.074899,0.118459,-0.083237,0.999673,0.021740,0.007916,0.010864,-0.757770,0.050540,0.642499,-0.102105
31677,NaN,10.011299,11.803012,-9.433990,9.500703,14.466285,-4.433016,4.794699,1.671070,1.897243,-0.852783,0.091064,-0.259277,0.098196,0.121197,-0.092285,0.999633,0.023971,0.008354,0.009485,-0.763101,0.039322,0.633002,-0.124252
31678,NaN,11.794764,12.350788,-9.475310,9.257237,15.889534,-3.239696,5.019769,1.668019,1.587325,-0.846191,0.086914,-0.269775,0.116172,0.126777,-0.092572,0.999619,0.025096,0.008339,0.007936,-0.768110,0.026807,0.623309,-0.144134
31679,NaN,14.221996,13.563254,-9.148618,8.560599,18.091183,-1.488348,4.998827,1.701908,1.095716,-0.843750,0.078369,-0.278320,0.140700,0.138656,-0.089247,0.999636,0.024991,0.008509,0.005478,-0.773013,0.012259,0.612795,-0.163656
31680,NaN,12.581159,13.422984,-8.290951,6.952234,17.671381,-2.989723,5.074977,1.777350,0.295709,-0.839111,0.069580,-0.288818,0.124888,0.136480,-0.080578,0.999637,0.025372,0.008886,0.001478,-0.778358,-0.003811,0.602225,-0.177396
31681,NaN,10.278902,11.300333,-6.477359,4.830711,14.880961,-4.289096,4.996416,1.568386,-0.359664,-0.838379,0.050537,-0.299316,0.102497,0.114403,-0.062732,0.999656,0.024979,0.007841,-0.001798,-0.783034,-0.022929,0.591474,-0.191027
31682,NaN,10.111235,9.267543,-4.893393,3.687233,12.598613,-3.508714,4.562612,1.248030,-0.863895,-0.837646,0.033203,-0.301025,0.101215,0.093332,-0.047441,0.999711,0.022811,0.006240,-0.004319,-0.786982,-0.040778,0.582962,-0.197868
31683,NaN,10.760225,7.538180,-2.829851,2.363962,10.565499,-1.850757,4.276970,1.000080,-1.271076,-0.836914,0.011963,-0.304932,0.107943,0.075286,-0.027227,0.999739,0.021383,0.005000,-0.006355,-0.790074,-0.060295,0.574384,-0.205503
31684,NaN,11.142503,5.078480,-0.144773,1.005605,7.386497,-0.097168,3.907956,0.676832,-1.625913,-0.836670,-0.000977,-0.294189,0.111830,0.049897,-0.000845,0.999770,0.019538,0.003384,-0.008129,-0.792513,-0.078391,0.568270,-0.206998
31685,NaN,11.212453,2.648161,1.554732,0.591839,4.374977,0.941424,3.562665,0.189985,-2.038743,-0.839600,-0.037354,-0.289307,0.112400,0.025056,0.015895,0.999789,0.017812,0.000950,-0.010193,-0.793596,-0.098071,0.562911,-0.209091
31686,NaN,10.293625,2.271676,2.572717,-0.294466,3.112369,0.577402,2.971811,-0.535425,-2.480884,-0.839111,-0.056885,-0.265381,0.103134,0.021050,0.026324,0.999809,0.014858,-0.002677,-0.012404,-0.793188,-0.116257,0.561863,-0.204076
31687,NaN,8.672856,3.993363,3.527182,-2.321486,3.584622,-0.573929,2.019959,-1.503294,-2.941363,-0.842285,-0.086914,-0.237061,0.087029,0.038292,0.036318,0.999813,0.010099,-0.007516,-0.014706,-0.790641,-0.134028,0.563950,-0.197192
31688,NaN,7.897472,5.465821,2.996043,-2.786550,4.638992,-1.331875,0.606299,-2.543359,-3.364821,-0.850098,-0.110596,-0.215332,0.079487,0.053231,0.031132,0.999773,0.003031,-0.012716,-0.016823,-0.786169,-0.147537,0.572167,-0.181094
31689,NaN,7.550777,4.939627,2.080970,-1.904313,4.204546,-1.785888,-0.943315,-3.386517,-3.734213,-0.851807,-0.127686,-0.176514,0.076049,0.048081,0.021866,0.999671,-0.004716,-0.016931,-0.018669,-0.780298,-0.157515,0.583391,-0.161179
31690,NaN,7.866965,3.672752,0.838784,-0.233396,3.264917,-1.728512,-2.190305,-4.056009,-4.136142,-0.848877,-0.155762,-0.139648,0.079222,0.035194,0.009600,0.999521,-0.010950,-0.020277,-0.020677,-0.772952,-0.163723,0.598341,-0.133146
31691,NaN,8.572028,2.585219,-0.620945,1.600061,2.444221,-1.327979,-2.970389,-4.491398,-4.601424,-0.845947,-0.183594,-0.102783,0.086399,0.023793,-0.004638,0.999373,-0.014849,-0.022452,-0.023002,-0.764526,-0.168881,0.613534,-0.102740
31692,NaN,9.370230,2.684232,-1.768996,2.695614,2.329371,-0.571236,-3.452094,-4.784864,-5.111095,-0.842529,-0.220215,-0.055176,0.094737,0.024145,-0.015864,0.999238,-0.017256,-0.023918,-0.025549,-0.754453,-0.173162,0.629612,-0.066364
31693,NaN,10.408393,2.950893,-2.532043,3.414950,1.988043,0.569024,-3.810765,-4.967400,-5.628969,-0.828369,-0.256836,-0.022461,0.105445,0.026097,-0.023231,0.999114,-0.019048,-0.024830,-0.028137,-0.743318,-0.177986,0.644182,-0.028802
31694,NaN,12.555634,2.026676,-2.953182,4.214771,-0.126948,2.540187,-4.016277,-5.118148,-6.152263,-0.813965,-0.303955,0.010498,0.126795,0.015824,-0.026644,0.998998,-0.020075,-0.025582,-0.030751,-0.729969,-0.182614,0.658487,0.013871
31695,NaN,14.194881,1.139001,-3.594558,4.898305,-2.375161,3.823000,-4.126943,-5.153538,-6.724017,-0.792969,-0.353516,0.052002,0.143075,0.005898,-0.032427,0.998890,-0.020627,-0.025758,-0.033608,-0.715501,-0.189112,0.670138,0.056659
31696,NaN,16.515858,0.280484,-4.069339,5.178406,-5.274629,5.502566,-4.081054,-5.043213,-7.298536,-0.765381,-0.409180,0.087402,0.166050,-0.004019,-0.036477,0.998808,-0.020397,-0.025206,-0.036478,-0.698610,-0.196023,0.680274,0.103665
31697,NaN,15.727264,-2.633697,-2.548375,3.328597,-9.117172,3.085972,-3.810856,-4.732310,-7.614666,-0.735840,-0.458740,0.107422,0.156642,-0.032742,-0.021188,0.998814,-0.019047,-0.023652,-0.038058,-0.681484,-0.205907,0.686559,0.147708
31698,NaN,14.106971,-8.282565,-1.828417,2.156994,-14.305382,-1.973430,-3.298251,-4.620790,-7.518721,-0.697510,-0.510254,0.129883,0.138169,-0.088308,-0.013642,0.998891,-0.016485,-0.023095,-0.037580,-0.661375,-0.215087,0.692477,0.191823
31699,NaN,20.146707,-13.334533,-1.361299,0.729772,-22.553728,-1.095644,-2.556814,-4.348693,-7.023154,-0.661377,-0.557617,0.152344,0.196825,-0.140435,-0.007533,0.999065,-0.012780,-0.021737,-0.035105,-0.641726,-0.226558,0.696207,0.228373
31700,NaN,25.760527,-20.230937,-0.052852,-2.159094,-31.930659,-2.871857,-1.411578,-3.603269,-6.451175,-0.625732,-0.600586,0.183105,0.250841,-0.210450,0.005498,0.999293,-0.007056,-0.018012,-0.032248,-0.621451,-0.238192,0.699575,0.260113
31701,NaN,29.095685,-21.222009,0.213811,-3.610852,-35.212452,-3.209134,-0.118635,-2.514796,-5.831687,-0.587891,-0.637207,0.198730,0.284547,-0.220578,0.005872,0.999496,-0.000593,-0.012572,-0.029154,-0.604908,-0.254814,0.699940,0.281495
31702,NaN,29.053247,-20.189250,1.510629,-5.458578,-34.595753,-4.612758,0.673097,-1.552920,-5.019166,-0.550293,-0.667236,0.222900,0.285219,-0.209150,0.016639,0.999649,0.003365,-0.007764,-0.025093,-0.590144,-0.270158,0.700159,0.297525
31703,NaN,26.296036,-21.069105,3.077126,-6.581946,-33.173310,-8.852434,0.647700,-0.960640,-3.796041,-0.525879,-0.688721,0.234131,0.258748,-0.215730,0.031328,0.999803,0.003238,-0.004803,-0.018979,-0.580152,-0.283860,0.698697,0.307684
31704,NaN,22.432009,-24.612086,4.482100,-7.254310,-32.365132,-15.185030,0.325334,-0.776304,-2.205324,-0.514893,-0.695312,0.247070,0.221412,-0.248646,0.045281,0.999930,0.001627,-0.003881,-0.011026,-0.572996,-0.289692,0.699245,0.314341
31705,NaN,19.974299,-28.477671,5.340576,-7.516169,-32.735431,-20.318147,0.116616,-0.762570,-0.597311,-0.504150,-0.697510,0.260010,0.198686,-0.285403,0.053998,0.999988,0.000583,-0.003813,-0.002987,-0.569224,-0.290897,0.700745,0.316733
31706,NaN,18.814612,-28.335165,5.811354,-7.869148,-31.703972,-20.929064,0.267926,-0.479200,0.727865,-0.510742,-0.695312,0.264404,0.189036,-0.282743,0.058187,0.999990,0.001340,-0.002396,0.003639,-0.568467,-0.287233,0.704193,0.313773
31707,NaN,16.816913,-27.109384,6.671995,-8.392420,-29.434155,-21.011633,0.572258,0.025418,1.670554,-0.528564,-0.676025,0.272461,0.170435,-0.269866,0.065925,0.999961,0.002861,0.000127,0.008353,-0.570342,-0.282991,0.707396,0.306949
31708,NaN,13.681406,-23.520074,6.801118,-7.972520,-25.019653,-19.663935,0.913454,0.456230,2.293917,-0.537598,-0.665283,0.282959,0.139655,-0.233916,0.066624,0.999921,0.004567,0.002281,0.011469,-0.574957,-0.277580,0.710889,0.294975
31709,NaN,12.953120,-12.069757,0.709440,-2.377040,-17.555577,-10.119945,0.908012,0.476331,2.792121,-0.559570,-0.650146,0.293457,0.131215,-0.118903,0.006241,0.999889,0.004540,0.002382,0.013960,-0.579453,-0.270922,0.714660,0.283014
31710,NaN,25.987049,8.662507,6.311654,-11.349521,-11.569356,13.154146,0.735164,0.521878,3.427988,-0.588135,-0.633057,0.290771,0.258502,0.090833,0.062770,0.999843,0.003676,0.002609,0.017139,-0.586177,-0.261227,0.718681,0.267684
31711,NaN,56.259956,52.681462,8.593279,-20.402478,1.941049,64.969278,-2.437061,1.505718,5.618408,-0.628174,-0.598633,0.266602,0.548083,0.543309,0.075215,0.999503,-0.012183,0.007527,0.028087,-0.602005,-0.235768,0.717991,0.257862
31712,NaN,28.623700,-5.666705,-1.269657,-3.279315,-22.443787,8.581960,-4.496604,-0.159116,5.388707,-0.645996,-0.579346,0.253418,0.287639,-0.049193,-0.011306,0.999384,-0.022478,-0.000795,0.026938,-0.615148,-0.203719,0.717824,0.254600
31713,NaN,24.115439,-48.455842,-8.920435,2.999859,-54.103676,-18.282333,-1.658164,-2.449760,6.125550,-0.675537,-0.529785,0.254639,0.256889,-0.477551,-0.082142,0.999422,-0.008289,-0.012246,0.030622,-0.615494,-0.173386,0.729072,0.244046
31714,NaN,5.181375,-10.523326,13.155529,-14.328078,-9.863348,-12.637968,0.325417,1.753913,7.275803,-0.713867,-0.480469,0.251465,0.056749,-0.103442,0.130903,0.999299,0.001627,0.008768,0.036371,-0.631563,-0.150516,0.729432,0.215412
31715,NaN,-7.869786,-12.057234,-3.210175,3.697776,-7.260714,-22.107962,0.163548,0.465116,5.504093,-0.734375,-0.448242,0.244629,-0.075416,-0.122652,-0.032024,0.999618,0.000818,0.002325,0.027517,-0.638829,-0.131386,0.732004,0.196989
31716,NaN,11.692663,-10.756547,-6.134194,3.722935,-15.294595,-3.315521,-0.719001,-0.011894,5.142709,-0.755127,-0.409668,0.243896,0.119648,-0.104732,-0.060955,0.999663,-0.003595,-0.000059,0.025711,-0.645557,-0.111184,0.733942,0.179510
31717,NaN,11.191596,-14.673448,0.635905,-3.218788,-17.612529,-5.301526,0.098472,0.406307,4.338298,-0.771240,-0.377441,0.239014,0.115076,-0.144264,0.006056,0.999763,0.000492,0.002031,0.021690,-0.650740,-0.095902,0.734957,0.164862
31718,NaN,10.976347,-7.723882,3.326154,-5.193002,-10.566920,-2.563216,0.965668,0.700560,3.549808,-0.785156,-0.345215,0.238525,0.111228,-0.075431,0.032506,0.999825,0.004828,0.003503,0.017748,-0.656812,-0.087200,0.734635,0.145964
31719,NaN,11.048184,-7.675015,-1.373750,-0.358855,-10.773747,-1.649816,1.422585,1.179748,3.177069,-0.801270,-0.315186,0.231445,0.111596,-0.074880,-0.014931,0.999831,0.007113,0.005898,0.015884,-0.662739,-0.081029,0.733060,0.129750
31720,NaN,10.131521,-2.854122,-0.051771,-1.085080,-5.516351,-0.914394,0.916827,1.030881,2.910168,-0.804199,-0.295898,0.235352,0.101711,-0.027059,-0.001168,0.999870,0.004584,0.005154,0.014550,-0.668976,-0.074747,0.730854,0.112855
31721,NaN,10.137719,0.354722,-1.544196,0.631089,-2.271438,0.173312,0.046396,0.489253,2.547175,-0.815674,-0.276611,0.226562,0.101283,0.004841,-0.015689,0.999916,0.000232,0.002446,0.012736,-0.672133,-0.065844,0.730134,0.103956
31722,NaN,14.514932,-2.162565,-2.166064,0.839398,-5.441118,3.961619,-0.584443,0.080283,2.436737,-0.820557,-0.259521,0.226318,0.145390,-0.019919,-0.021659,0.999921,-0.002922,0.000401,0.012183,-0.674679,-0.055601,0.729899,0.094677
31723,NaN,15.377759,-3.461536,-1.286474,-0.171606,-6.530805,4.589528,-0.626557,-0.021445,2.016257,-0.825195,-0.244385,0.221680,0.154118,-0.033103,-0.012743,0.999944,-0.003133,-0.000107,0.010081,-0.675697,-0.046096,0.730194,0.090144
31724,NaN,14.600755,-5.292451,-4.734005,3.253461,-8.113958,3.868586,-0.482972,-0.083230,1.576881,-0.823486,-0.233643,0.221680,0.146439,-0.051885,-0.047153,0.999966,-0.002415,-0.000416,0.007884,-0.676888,-0.039079,0.730269,0.083684
31725,NaN,19.907493,-1.558597,-3.227378,1.519308,-5.013803,9.724473,-0.252218,-0.054834,1.418788,-0.826172,-0.218750,0.225586,0.199188,-0.014214,-0.032201,0.999974,-0.001261,-0.000274,0.007094,-0.677318,-0.032999,0.730606,0.079793
31726,NaN,25.283654,5.240916,2.154241,-3.811090,1.611977,15.765393,-0.163685,0.116296,1.325101,-0.826416,-0.214355,0.221191,0.252494,0.054100,0.021352,0.999978,-0.000818,0.000581,0.006625,-0.678792,-0.027707,0.730128,0.073395
31727,NaN,25.779923,7.082618,2.778870,-4.290360,3.729832,16.458262,-0.193096,0.164485,1.153013,-0.830811,-0.208008,0.221191,0.257408,0.072338,0.027508,0.999983,-0.000965,0.000822,0.005765,-0.679835,-0.022880,0.729644,0.070143
31728,NaN,23.483129,6.275847,2.706229,-4.016998,3.570636,14.046795,-0.111902,0.126542,1.144559,-0.824951,-0.193115,0.216553,0.234484,0.064116,0.026878,0.999983,-0.000560,0.000633,0.005723,-0.681258,-0.018822,0.728993,0.064048
31729,NaN,20.955398,6.060236,0.899362,-2.002547,3.776283,11.597334,0.280507,0.184567,1.071993,-0.819092,-0.177979,0.214355,0.209233,0.061712,0.008886,0.999984,0.001403,0.000923,0.005360,-0.682242,-0.015907,0.728541,0.059336
31730,NaN,19.060214,7.465099,-0.127683,-0.752182,5.550096,9.876493,0.829290,0.252828,0.851517,-0.812744,-0.171631,0.205566,0.190280,0.075467,-0.001206,0.999982,0.004146,0.001264,0.004258,-0.683905,-0.016443,0.727616,0.050786
31731,NaN,18.680374,10.077039,-0.814824,0.034245,8.297176,9.740331,1.445280,0.290201,0.574194,-0.810791,-0.163086,0.205566,0.186502,0.101363,-0.007688,0.999969,0.007226,0.001451,0.002871,-0.684971,-0.019347,0.727013,0.043519
31732,NaN,18.155321,13.564553,-0.923889,0.115742,11.959740,9.459412,2.049070,0.449781,0.279072,-0.811035,-0.156494,0.207520,0.181344,0.135987,-0.008255,0.999944,0.010245,0.002249,0.001395,-0.686930,-0.026230,0.725512,0.032720
31733,NaN,16.121769,15.587386,-0.229127,-0.663400,14.195001,7.536317,2.322850,0.817700,0.002893,-0.802734,-0.152344,0.196777,0.161209,0.155894,-0.001140,0.999924,0.011614,0.004088,0.000014,-0.689544,-0.034306,0.723027,0.024155
31734,NaN,12.577070,15.357998,0.128000,-1.105415,14.266451,3.946332,2.079448,1.045704,-0.125750,-0.802734,-0.145752,0.188232,0.125877,0.153481,0.002218,0.999932,0.010397,0.005228,-0.000629,-0.693347,-0.042944,0.719171,0.014822
31735,NaN,10.533390,11.956823,-0.080693,-0.807774,11.050077,1.640147,1.469304,1.128791,0.126709,-0.798584,-0.139404,0.170898,0.105255,0.119639,-0.000522,0.999957,0.007346,0.005644,0.000634,-0.697073,-0.047641,0.715361,0.008836
31736,NaN,9.383062,9.723858,0.478275,-1.252913,8.945780,0.248434,0.820373,1.236219,0.847037,-0.794678,-0.128662,0.157959,0.093447,0.097616,0.004604,0.999964,0.004102,0.006181,0.004235,-0.701707,-0.048572,0.710807,0.000760
31737,NaN,7.859434,11.655543,-0.127939,-0.705675,11.132164,-1.256377,0.189521,1.439990,1.652619,-0.788818,-0.113525,0.142822,0.077616,0.117201,-0.001730,0.999939,0.000948,0.007200,0.008263,-0.706745,-0.043343,0.706113,-0.006082
31738,NaN,5.906604,14.748945,-1.204986,0.219672,14.556682,-3.338961,-0.623939,1.556884,2.497334,-0.791504,-0.094238,0.131836,0.057120,0.148171,-0.012961,0.999887,-0.003120,0.007784,0.012486,-0.712561,-0.033435,0.700656,-0.014825
31739,NaN,6.243084,15.921572,-2.242556,1.380665,15.972687,-3.453762,-0.991396,1.555130,3.199078,-0.792480,-0.062012,0.109863,0.059694,0.160070,-0.023689,0.999830,-0.004957,0.007775,0.015994,-0.717818,-0.018553,0.695602,-0.023028
31740,NaN,9.112206,14.494919,-2.779207,2.285217,14.864668,-1.173490,-1.133457,1.456064,3.690209,-0.789062,-0.038574,0.090332,0.088220,0.146432,-0.029269,0.999787,-0.005667,0.007280,0.018450,-0.722660,-0.002667,0.690364,-0.033955
31741,NaN,8.851329,12.068680,-2.988321,2.826842,12.749654,-1.916618,-0.716904,1.513044,3.999863,-0.786133,0.004395,0.074707,0.085846,0.122312,-0.030976,0.999765,-0.003584,0.007565,0.019998,-0.727044,0.014009,0.684907,-0.045966
31742,NaN,7.856536,7.353437,-1.787718,1.905642,8.213947,-2.893364,-0.078623,1.383954,3.871708,-0.782715,0.025879,0.063721,0.076996,0.075028,-0.018443,0.999789,-0.000393,0.006919,0.019357,-0.730884,0.026831,0.679265,-0.060731
31743,NaN,8.544830,8.449164,-1.896010,2.027888,9.665367,-2.709997,1.041100,1.160444,3.566174,-0.774902,0.055908,0.052490,0.083812,0.086095,-0.019004,0.999811,0.005205,0.005802,0.017830,-0.733744,0.035507,0.674097,-0.077152
31744,NaN,5.085761,13.004323,-3.695497,3.080660,13.899522,-7.378455,1.956728,1.323386,2.839485,-0.773682,0.081543,0.032715,0.048761,0.131101,-0.036003,0.999829,0.009783,0.006617,0.014197,-0.737408,0.037505,0.667728,-0.094668
31745,NaN,1.831405,13.205963,-8.043263,6.714552,13.948718,-11.472981,3.430445,1.422627,2.188302,-0.770020,0.103027,0.021729,0.016296,0.133600,-0.078270,0.999768,0.017151,0.007113,0.010941,-0.741593,0.032850,0.660290,-0.113921
31746,NaN,2.473454,12.123514,-8.227060,6.522127,13.292972,-11.033448,4.769584,1.732442,1.794819,-0.761963,0.118164,-0.006348,0.022937,0.123365,-0.079549,0.999638,0.023845,0.008661,0.008973,-0.746815,0.021492,0.650596,-0.136130
31747,NaN,3.877419,10.655077,-8.174796,6.256875,12.497275,-9.715031,5.547791,2.108486,1.478091,-0.751465,0.126709,-0.031982,0.037131,0.109049,-0.079143,0.999532,0.027735,0.010541,0.007389,-0.752912,0.007033,0.638481,-0.159424
31748,NaN,6.243438,9.766793,-7.948991,5.956559,12.519890,-7.513933,5.700165,2.021188,1.159401,-0.751465,0.131104,-0.047119,0.061070,0.100248,-0.077279,0.999526,0.028496,0.010104,0.005796,-0.758281,-0.009255,0.626155,-0.181256
31749,NaN,9.961400,9.961373,-7.221924,5.184456,13.825001,-4.106101,5.876001,1.674584,0.897484,-0.747314,0.137695,-0.072998,0.098567,0.102138,-0.070071,0.999523,0.029375,0.008372,0.004487,-0.762073,-0.027178,0.614223,-0.203066
31750,NaN,20.244423,12.301903,-7.884421,6.083889,19.298745,4.810359,5.860740,1.420089,0.680540,-0.747559,0.141846,-0.094482,0.201470,0.125973,-0.076614,0.999540,0.029299,0.007099,0.003402,-0.764635,-0.045800,0.603064,-0.222597
31751,NaN,19.323657,13.985910,-9.641164,6.205379,21.448145,2.969817,5.390995,1.725088,-0.010216,-0.738525,0.135498,-0.113525,0.192425,0.142410,-0.094258,0.999600,0.026951,0.008624,-0.000051,-0.768302,-0.064480,0.590225,-0.239140
31752,NaN,12.989641,11.284515,-7.458825,3.855138,16.528967,-1.836134,4.309978,1.421559,-0.941412,-0.744629,0.126953,-0.132812,0.129908,0.113819,-0.073066,0.999731,0.021548,0.007107,-0.004707,-0.772120,-0.081735,0.579839,-0.246854
31753,NaN,10.655268,8.921879,-4.864776,2.010979,12.754994,-2.737201,3.696070,1.085330,-1.311809,-0.735596,0.114258,-0.143311,0.106879,0.089404,-0.047576,0.999793,0.018479,0.005426,-0.006559,-0.775210,-0.098430,0.570431,-0.252920
31754,NaN,12.097708,6.946019,-1.460629,0.414227,9.856911,0.157338,3.292289,0.875808,-1.511409,-0.741699,0.103516,-0.157959,0.121436,0.068777,-0.014001,0.999826,0.016460,0.004379,-0.007557,-0.777952,-0.114041,0.562893,-0.254828
31755,NaN,13.195796,2.323718,1.255557,0.961955,4.820777,2.714640,2.541814,0.696074,-1.734405,-0.736816,0.090576,-0.157959,0.132195,0.021933,0.012380,0.999876,0.012709,0.003480,-0.008672,-0.780570,-0.127890,0.555889,-0.255624
31756,NaN,9.985082,-1.056688,1.787052,1.721330,0.687552,0.215813,1.818553,0.172750,-2.207646,-0.747070,0.073486,-0.166260,0.099740,-0.011830,0.017681,0.999897,0.009092,0.000864,-0.011038,-0.782666,-0.140661,0.552323,-0.250176
31757,NaN,6.289492,0.322566,1.828630,0.066661,0.753525,-3.298846,1.022224,-0.788911,-2.739884,-0.744385,0.056396,-0.163818,0.062858,0.002270,0.018548,0.999885,0.005111,-0.003944,-0.013699,-0.783101,-0.153180,0.552143,-0.241717
31758,NaN,7.076065,2.372231,1.010283,-0.146146,2.819279,-2.831031,-0.095622,-1.919516,-3.073220,-0.754395,0.034912,-0.150635,0.071013,0.022637,0.010773,0.999836,-0.000478,-0.009597,-0.015365,-0.781435,-0.163315,0.558233,-0.225973
31759,NaN,9.117714,3.128129,-0.054224,0.881750,4.050404,-1.110682,-1.296783,-2.802487,-3.367223,-0.766602,0.015625,-0.126953,0.091684,0.029742,0.000544,0.999739,-0.006483,-0.014011,-0.016835,-0.778269,-0.170752,0.567754,-0.206874
31760,NaN,9.945876,1.148467,-0.673537,2.617425,2.328658,-0.410598,-2.289407,-3.338961,-3.676639,-0.770020,-0.010254,-0.096436,0.099742,0.009587,-0.005189,0.999626,-0.011446,-0.016693,-0.018381,-0.774125,-0.175419,0.580607,-0.181260
31761,NaN,8.857680,-1.205381,-0.969042,3.634271,-0.160625,-1.591182,-2.861215,-3.707878,-4.078091,-0.780029,-0.035889,-0.076904,0.088462,-0.013980,-0.007859,0.999518,-0.014304,-0.018536,-0.020387,-0.769191,-0.179440,0.593695,-0.153856
31762,NaN,7.683900,-1.404244,-1.556447,3.794100,-0.641214,-2.840856,-3.103443,-4.069811,-4.586385,-0.789551,-0.074463,-0.048584,0.076779,-0.016027,-0.013763,0.999410,-0.015514,-0.020345,-0.022927,-0.762717,-0.183628,0.608162,-0.121175
31763,NaN,7.992654,-0.451529,-1.996137,3.731070,-0.153679,-2.457649,-3.176195,-4.374420,-5.101396,-0.794922,-0.106689,-0.011719,0.080181,-0.006856,-0.018113,0.999309,-0.015877,-0.021867,-0.025501,-0.754896,-0.189532,0.621665,-0.087991
31764,NaN,9.948169,-0.266884,-2.103184,4.000121,-0.851822,-0.502300,-3.272928,-4.557955,-5.581863,-0.793457,-0.154053,0.019043,0.099793,-0.005770,-0.018682,0.999217,-0.016360,-0.022784,-0.027902,-0.745250,-0.195531,0.635504,-0.050047
31765,NaN,12.043057,-0.551219,-1.820772,3.978020,-2.421200,1.451737,-3.404083,-4.660061,-6.040523,-0.793701,-0.207764,0.047852,0.120564,-0.009429,-0.015261,0.999128,-0.017015,-0.023294,-0.030194,-0.734637,-0.203016,0.647260,-0.012154
31766,NaN,13.596604,-0.596652,-1.958309,3.998594,-3.853646,2.761341,-3.553351,-4.699664,-6.537886,-0.787842,-0.257080,0.078613,0.136075,-0.010723,-0.016223,0.999032,-0.017761,-0.023491,-0.032679,-0.721997,-0.210003,0.658544,0.030642
31767,NaN,14.390400,-2.280690,-1.302562,3.406977,-6.897389,2.623611,-3.598435,-4.704706,-6.899265,-0.766357,-0.323486,0.101074,0.143245,-0.027945,-0.009178,0.998967,-0.017986,-0.023515,-0.034484,-0.708489,-0.218771,0.667052,0.072272
31768,NaN,15.230001,-5.404569,-1.020366,3.089465,-11.163948,1.494260,-3.555076,-4.652611,-6.996522,-0.746826,-0.390137,0.132080,0.150450,-0.059459,-0.005664,0.998960,-0.017769,-0.023255,-0.034970,-0.692536,-0.226049,0.675072,0.116504
31769,NaN,18.965245,-9.039314,-0.848278,2.796449,-17.091413,2.099049,-3.296142,-4.588633,-6.746875,-0.720947,-0.452393,0.152588,0.186563,-0.096798,-0.002617,0.999032,-0.016475,-0.022936,-0.033723,-0.676184,-0.234496,0.680765,0.156034
31770,NaN,24.654936,-13.329785,-0.839522,2.046869,-24.723002,3.241588,-2.776148,-4.277821,-6.216879,-0.684814,-0.508301,0.170654,0.242325,-0.140926,-0.001260,0.999192,-0.013877,-0.021383,-0.031076,-0.658119,-0.240820,0.686513,0.193869
31771,NaN,25.930098,-18.535887,-1.469379,1.817693,-30.432958,-0.419936,-2.051570,-3.574986,-5.695655,-0.659180,-0.563965,0.188721,0.254066,-0.192751,-0.008168,0.999382,-0.010256,-0.017871,-0.028472,-0.642401,-0.249986,0.689010,0.223814
31772,NaN,25.693870,-19.246357,-0.634282,-0.199656,-31.337469,-2.839085,-1.191014,-2.763086,-5.052958,-0.618896,-0.609131,0.200439,0.252012,-0.198892,-0.001666,0.999568,-0.005954,-0.013813,-0.025261,-0.626911,-0.258025,0.691424,0.249678
31773,NaN,24.573230,-19.397555,0.783883,-2.178485,-30.922348,-5.384000,-0.636029,-2.096142,-4.099287,-0.585449,-0.643555,0.213867,0.241584,-0.198924,0.011013,0.999730,-0.003180,-0.010480,-0.020495,-0.615208,-0.267498,0.691730,0.267345
31774,NaN,23.279507,-22.047533,1.331616,-3.146713,-31.931025,-9.345151,-0.402848,-1.559979,-2.917178,-0.565430,-0.667236,0.218750,0.229431,-0.223808,0.015563,0.999861,-0.002014,-0.007800,-0.014585,-0.604956,-0.271718,0.693552,0.281395
31775,NaN,20.962866,-25.299505,2.015821,-3.709639,-32.420997,-14.131819,-0.230512,-1.082748,-1.660850,-0.547607,-0.682373,0.225342,0.207404,-0.254699,0.021578,0.999950,-0.001153,-0.005414,-0.008304,-0.599158,-0.275225,0.694217,0.288659
31776,NaN,18.300136,-26.307315,2.624093,-4.270538,-31.035697,-17.051479,0.035476,-0.771862,-0.442679,-0.545166,-0.690918,0.234131,0.182316,-0.263482,0.026899,0.999990,0.000177,-0.003859,-0.002213,-0.594709,-0.273246,0.697457,0.291910
31777,NaN,15.942664,-25.631021,3.405646,-4.783832,-28.790955,-18.233479,0.393418,-0.492387,0.618168,-0.543213,-0.686523,0.242676,0.160134,-0.255883,0.033946,0.999990,0.001967,-0.002462,0.003091,-0.593361,-0.271520,0.700338,0.289354
31778,NaN,13.521482,-23.735848,4.814601,-5.962838,-25.713825,-18.335085,0.690224,-0.157269,1.479118,-0.547852,-0.677979,0.250977,0.136929,-0.236515,0.047436,0.999966,0.003451,-0.000786,0.007396,-0.593347,-0.265749,0.705110,0.283085
31779,NaN,11.085492,-20.244784,5.431340,-6.238051,-21.656929,-17.180316,0.833424,0.103039,2.096874,-0.563232,-0.669434,0.259521,0.112998,-0.201494,0.053415,0.999936,0.004167,0.000515,0.010484,-0.595543,-0.260939,0.708730,0.273754
31780,NaN,14.564892,-10.932845,4.062242,-5.800734,-17.585498,-7.521772,0.956464,0.212857,2.611145,-0.576416,-0.660889,0.270020,0.147104,-0.107606,0.039949,0.999903,0.004782,0.001064,0.013055,-0.598404,-0.252708,0.713755,0.261926
31781,NaN,19.059316,3.838609,14.098606,-17.023646,-8.867916,4.620025,0.930335,0.746791,2.880250,-0.596680,-0.639404,0.271729,0.190545,0.040476,0.140460,0.999879,0.004651,0.003734,0.014401,-0.603602,-0.246140,0.716296,0.248997
31782,NaN,51.994917,33.645981,18.828513,-27.341701,-5.684113,48.574421,-1.713931,1.844896,5.142796,-0.636230,-0.609131,0.238770,0.512732,0.351277,0.180565,0.999590,-0.008568,0.009223,0.025710,-0.618974,-0.223557,0.715010,0.235911
31783,NaN,34.389784,5.260092,-2.730526,-1.967306,-16.139004,21.059326,-4.612701,-0.341796,6.348180,-0.658447,-0.585693,0.225586,0.342059,0.062838,-0.028090,0.999229,-0.023058,-0.001709,0.031733,-0.629924,-0.186000,0.717175,0.232937
31784,NaN,22.154131,-26.296385,-14.278658,9.865604,-35.457688,-4.228930,-2.223253,-2.535789,5.316511,-0.681152,-0.553467,0.224854,0.230214,-0.258465,-0.137014,0.999505,-0.011114,-0.012677,0.026578,-0.629953,-0.156939,0.726943,0.223794
31785,NaN,6.992017,-22.263044,9.883047,-12.171969,-21.398085,-15.808624,-0.555640,0.964305,6.496678,-0.717041,-0.512695,0.217773,0.077571,-0.219918,0.099082,0.999457,-0.002778,0.004821,0.032478,-0.640828,-0.132551,0.727989,0.204457
31786,NaN,-7.977997,-16.224096,-2.614877,2.556845,-11.421695,-23.835662,0.073921,0.274194,5.142833,-0.737793,-0.469727,0.218994,-0.075610,-0.164211,-0.026104,0.999668,0.000370,0.001371,0.025711,-0.647884,-0.114053,0.730206,0.184494
31787,NaN,10.654060,-6.953356,-3.937529,1.951144,-10.931021,-2.461716,-0.154768,0.094309,4.874668,-0.760254,-0.441650,0.205811,0.108175,-0.066941,-0.039374,0.999703,-0.000774,0.000471,0.024371,-0.652628,-0.095786,0.732321,0.169141
31788,NaN,11.687743,-10.504206,-2.909343,0.567494,-14.094981,-2.304133,-0.104232,0.301143,4.289328,-0.772217,-0.409668,0.215820,0.119050,-0.102519,-0.029218,0.999769,-0.000521,0.001506,0.021445,-0.658049,-0.079347,0.733087,0.152509
31789,NaN,11.887265,-8.146381,-0.045255,-2.038108,-11.289357,-1.092217,0.494340,0.451409,3.551479,-0.788086,-0.383789,0.208984,0.120292,-0.079334,-0.000921,0.999837,0.002472,0.002257,0.017756,-0.662115,-0.068264,0.733268,0.138787
31790,NaN,12.246094,-11.176438,0.304272,-2.485127,-13.927725,-1.164536,0.922560,0.783663,3.029310,-0.801758,-0.362305,0.206543,0.124144,-0.109903,0.002049,0.999867,0.004613,0.003918,0.015146,-0.667395,-0.060016,0.732166,0.122126
31791,NaN,10.232042,-3.840779,0.693991,-1.958672,-6.091368,-0.925662,0.845450,0.811671,2.568175,-0.804688,-0.338867,0.208252,0.102829,-0.037117,0.006365,0.999900,0.004227,0.004058,0.012840,-0.671621,-0.053900,0.730671,0.110184
31792,NaN,10.433926,-1.260142,-3.160333,2.146020,-3.695344,0.295565,0.063231,0.434602,2.219611,-0.811768,-0.323730,0.203613,0.104401,-0.011433,-0.031834,0.999936,0.000316,0.002173,0.011098,-0.675071,-0.045585,0.729633,0.099180
31793,NaN,12.489256,-1.307263,-2.327482,1.176629,-3.857624,2.304946,-0.432093,0.008615,2.007574,-0.818604,-0.308838,0.201172,0.125015,-0.011868,-0.023254,0.999947,-0.002160,0.000043,0.010038,-0.676167,-0.036778,0.729808,0.093950
31794,NaN,15.159663,-2.098209,-2.507701,1.096730,-4.812396,4.888986,-0.678632,-0.174116,1.727657,-0.819336,-0.293701,0.207520,0.151793,-0.019756,-0.024876,0.999957,-0.003393,-0.000871,0.008638,-0.676984,-0.027234,0.730257,0.087613
31795,NaN,17.138374,-2.624518,-4.082149,2.429217,-5.557841,6.934869,-0.563607,-0.184860,1.443606,-0.826172,-0.282959,0.202881,0.171605,-0.025122,-0.040591,0.999970,-0.002818,-0.000924,0.007218,-0.677003,-0.019947,0.730808,0.084783
31796,NaN,21.886064,1.002421,0.066546,-1.752908,-1.898221,11.943375,-0.383785,-0.020093,1.311614,-0.826172,-0.276611,0.202881,0.218789,0.011460,0.000666,0.999977,-0.001919,-0.000100,0.006558,-0.677919,-0.012750,0.730775,0.078933
31797,NaN,24.564096,5.354671,2.711373,-4.156941,2.611449,14.992784,-0.341975,0.124231,1.156034,-0.824707,-0.261475,0.200439,0.245343,0.055011,0.026868,0.999982,-0.001710,0.000621,0.005780,-0.678845,-0.007388,0.730277,0.076231
31798,NaN,23.706846,5.067221,2.344490,-3.663630,2.775859,14.104981,-0.265296,0.119140,1.017383,-0.824707,-0.259521,0.196289,0.236820,0.051908,0.023235,0.999986,-0.001326,0.000596,0.005087,-0.680133,-0.002044,0.729666,0.070724
31799,NaN,21.486550,5.139844,1.328854,-2.425503,3.194894,11.953374,0.078335,0.122124,0.973195,-0.820801,-0.250732,0.191895,0.214620,0.052438,0.013178,0.999988,0.000392,0.000611,0.004866,-0.680919,0.001225,0.729277,0.067102
31800,NaN,19.278236,6.177927,0.394307,-1.204834,4.611869,9.865964,0.593086,0.176635,0.840522,-0.814453,-0.244385,0.187500,0.192524,0.062577,0.003958,0.999986,0.002965,0.000883,0.004203,-0.682366,0.002622,0.728631,0.058879
31801,NaN,18.745622,7.777151,-0.135323,-0.518649,6.340198,9.459883,1.125672,0.190399,0.633841,-0.816895,-0.235840,0.187256,0.187207,0.078372,-0.001092,0.999979,0.005628,0.000952,0.003169,-0.683252,0.001064,0.728285,0.052591
31802,NaN,18.339752,10.300867,-0.537747,0.000524,9.046774,9.184612,1.703732,0.252328,0.367930,-0.806396,-0.225098,0.191406,0.183201,0.103388,-0.004729,0.999961,0.008519,0.001262,0.001840,-0.684767,-0.003246,0.727542,0.042020
31803,NaN,17.158421,12.900647,-0.942098,0.452818,11.757428,8.167298,2.193860,0.453346,0.100658,-0.802490,-0.216553,0.180664,0.171499,0.129189,-0.008393,0.999937,0.010969,0.002267,0.000503,-0.686364,-0.010456,0.726403,0.033658
31804,NaN,14.904555,14.735956,-0.869504,0.313818,13.824763,5.961439,2.367273,0.764940,-0.127318,-0.795898,-0.218750,0.178711,0.149109,0.147358,-0.007521,0.999922,0.011836,0.003825,-0.000637,-0.689424,-0.019058,0.723753,0.022633
31805,NaN,12.144197,14.137482,-0.663489,0.028998,13.386352,3.171606,2.177401,0.995847,-0.237327,-0.789551,-0.214355,0.165771,0.121580,0.141296,-0.005701,0.999928,0.010887,0.004979,-0.001187,-0.692748,-0.027503,0.720489,0.015448
31806,NaN,10.242477,10.269564,-0.978832,0.340695,9.684365,1.023689,1.673099,1.089215,-0.030029,-0.787598,-0.212158,0.155029,0.102388,0.102760,-0.009487,0.999950,0.008365,0.005446,-0.000150,-0.696843,-0.033537,0.716406,0.006881
31807,NaN,9.698020,7.714576,-0.668053,0.128178,7.197967,0.295957,1.065983,1.178906,0.622028,-0.787842,-0.201416,0.154785,0.096700,0.077483,-0.006839,0.999964,0.005330,0.005894,0.003110,-0.700887,-0.035031,0.712411,0.000668
31808,NaN,8.374188,9.968405,-0.528529,-0.078696,9.635691,-1.042329,0.483775,1.386911,1.441316,-0.779541,-0.190674,0.131104,0.082982,0.100297,-0.005620,0.999947,0.002419,0.006934,0.007206,-0.706076,-0.031708,0.707374,-0.008571
31809,NaN,6.340475,13.709987,-1.056186,0.324838,13.612430,-3.189629,-0.178217,1.566049,2.305148,-0.780273,-0.169189,0.117920,0.061733,0.137808,-0.011172,0.999903,-0.000891,0.007830,0.011525,-0.711478,-0.022825,0.702147,-0.016355
31810,NaN,5.047281,15.752831,-1.701041,0.929326,15.869008,-4.933654,-0.603230,1.627364,3.076332,-0.783203,-0.145752,0.098389,0.047899,0.158225,-0.017884,0.999844,-0.003016,0.008136,0.015381,-0.717169,-0.009973,0.696292,-0.027314
31811,NaN,6.390423,15.942698,-2.242912,1.698251,16.294036,-4.189836,-1.112716,1.502652,3.661643,-0.782227,-0.111328,0.076416,0.060798,0.160429,-0.023784,0.999789,-0.005563,0.007513,0.018307,-0.721806,0.007002,0.691088,-0.036668
31812,NaN,6.912810,14.259312,-1.649405,1.392281,14.847391,-4.208320,-1.074211,1.444418,4.156240,-0.789551,-0.085693,0.067383,0.066021,0.143894,-0.017749,0.999744,-0.005371,0.007221,0.020779,-0.725974,0.025201,0.685480,-0.049439
31813,NaN,7.618620,9.317731,-0.102673,0.241950,10.212029,-3.448260,-0.749861,1.245802,4.241260,-0.781982,-0.053467,0.052002,0.074178,0.094759,-0.001846,0.999749,-0.003749,0.006228,0.021205,-0.728919,0.042791,0.680431,-0.062124
31814,NaN,10.458887,7.496074,-0.102014,0.560184,9.169399,-0.803030,0.277495,0.982161,4.135668,-0.787109,-0.025391,0.042969,0.103003,0.077103,-0.001423,0.999773,0.001387,0.004910,0.020677,-0.730957,0.055775,0.675519,-0.079159
31815,NaN,8.900910,10.890773,-1.792270,1.973689,12.556809,-3.531373,1.183575,1.114702,3.569306,-0.777588,0.008789,0.031738,0.086946,0.110577,-0.017760,0.999808,0.005917,0.005573,0.017845,-0.733498,0.063966,0.669844,-0.095905
31816,NaN,4.290388,12.774125,-6.958144,6.393555,13.744985,-9.402718,2.550677,1.352419,2.874664,-0.774170,0.032471,0.014160,0.040589,0.129212,-0.068219,0.999793,0.012753,0.006762,0.014372,-0.737346,0.064506,0.662440,-0.115472
31817,NaN,2.067728,12.433098,-8.417516,7.212668,13.131555,-12.093942,4.133392,1.608991,2.346452,-0.766113,0.049561,-0.000977,0.018539,0.126263,-0.081734,0.999685,0.020665,0.008044,0.011731,-0.742419,0.057980,0.653150,-0.137287
31818,NaN,3.736834,11.058521,-8.270727,6.842748,12.539709,-10.547763,5.112224,1.896366,1.897098,-0.760010,0.064697,-0.020508,0.035536,0.112999,-0.080182,0.999583,0.025558,0.009481,0.009484,-0.748476,0.046543,0.641751,-0.160537
31819,NaN,6.697811,10.645131,-8.123861,6.545257,13.340918,-7.994419,5.440189,1.908511,1.524768,-0.760254,0.075439,-0.041992,0.065392,0.109122,-0.078923,0.999555,0.027197,0.009541,0.007623,-0.754305,0.032621,0.629597,-0.183213
31820,NaN,10.230471,10.745634,-8.282188,6.584072,14.931750,-5.083367,5.695917,1.697305,1.244209,-0.756348,0.081787,-0.054932,0.100934,0.110403,-0.080566,0.999539,0.028475,0.008485,0.006220,-0.759119,0.017024,0.617632,-0.204889
31821,NaN,18.535633,12.306192,-9.215905,7.647436,19.742583,1.660324,5.732541,1.531086,0.965078,-0.745605,0.088379,-0.074219,0.184057,0.126552,-0.089977,0.999548,0.028658,0.007654,0.004825,-0.762997,-0.000161,0.605584,-0.226062
31822,NaN,20.085922,15.658053,-10.396341,7.214966,23.970732,1.588886,5.375238,1.854693,0.305234,-0.741211,0.088379,-0.089355,0.199668,0.159637,-0.101555,0.999595,0.026873,0.009272,0.001526,-0.768067,-0.016953,0.592580,-0.242148
31823,NaN,13.193544,14.345354,-7.891197,3.622390,19.810720,-3.769380,4.595379,1.726666,-0.673561,-0.738770,0.075439,-0.108398,0.131753,0.144789,-0.076733,0.999693,0.022975,0.008632,-0.003367,-0.773365,-0.034471,0.580144,-0.253281
31824,NaN,10.139639,11.443107,-5.057530,1.413615,15.252265,-4.843218,4.138874,1.424107,-1.087450,-0.734131,0.066895,-0.114746,0.101668,0.114903,-0.048924,0.999746,0.020693,0.007120,-0.005437,-0.778126,-0.051111,0.569693,-0.259533
31825,NaN,11.509944,7.581445,-1.213744,-0.007215,10.896271,-1.286369,3.790591,1.119985,-1.244333,-0.733643,0.058350,-0.135986,0.115504,0.075317,-0.011353,0.999785,0.018952,0.005600,-0.006221,-0.781787,-0.067910,0.559976,-0.265753
31826,NaN,13.023075,2.234128,0.802554,1.334054,5.899026,1.962434,2.975206,0.916471,-1.465267,-0.730957,0.043457,-0.139893,0.130425,0.021270,0.007750,0.999852,0.014875,0.004582,-0.007326,-0.785309,-0.081927,0.552556,-0.266944
31827,NaN,10.763378,0.042208,0.561194,2.248309,3.254819,0.212988,2.418261,0.439202,-1.896906,-0.721924,0.028320,-0.141846,0.107643,-0.000665,0.005372,0.999880,0.012091,0.002196,-0.009484,-0.787961,-0.096040,0.546760,-0.266358
31828,NaN,7.660232,2.047546,1.960664,-0.628930,3.153172,-2.304474,1.764055,-0.369802,-2.410088,-0.723389,0.006836,-0.137207,0.076804,0.019376,0.019923,0.999887,0.008820,-0.001849,-0.012050,-0.789334,-0.109575,0.545396,-0.259786
31829,NaN,7.930032,3.508911,2.138926,-1.419535,4.154459,-2.035071,0.706540,-1.466239,-2.866683,-0.716064,-0.012451,-0.130371,0.079631,0.033872,0.022093,0.999864,0.003533,-0.007331,-0.014333,-0.788557,-0.122044,0.548622,-0.249595
31830,NaN,9.548182,2.621632,0.886915,0.519996,4.097515,-0.770810,-0.497274,-2.391614,-3.208786,-0.724121,-0.029541,-0.111084,0.095772,0.024705,0.009951,0.999797,-0.002486,-0.011957,-0.016043,-0.786163,-0.131508,0.557272,-0.232599
31831,NaN,9.977899,1.600302,0.302995,1.616075,3.207615,-0.363134,-1.561352,-3.006195,-3.552718,-0.723145,-0.063965,-0.095459,0.099983,0.014259,0.004416,0.999699,-0.007806,-0.015029,-0.017762,-0.782702,-0.138700,0.568402,-0.212272
31832,NaN,8.521735,0.420800,-0.339581,2.290754,1.776095,-1.781920,-2.356230,-3.461196,-4.016669,-0.718018,-0.085449,-0.073730,0.085321,0.002466,-0.001956,0.999579,-0.011779,-0.017304,-0.020081,-0.778369,-0.144155,0.582061,-0.185922
31833,NaN,7.251338,-0.302638,-1.228830,2.982142,0.929073,-3.148696,-2.847671,-3.924909,-4.557910,-0.719238,-0.119629,-0.049561,0.072639,-0.004842,-0.010803,0.999446,-0.014236,-0.019621,-0.022785,-0.772802,-0.149878,0.596376,-0.157002
31834,NaN,7.473863,-0.100107,-2.017632,3.549018,0.942984,-2.998830,-3.229834,-4.352090,-5.089343,-0.711670,-0.154053,-0.021240,0.075090,-0.003217,-0.018505,0.999309,-0.016145,-0.021755,-0.025441,-0.765540,-0.155376,0.612147,-0.122812
31835,NaN,9.668244,-0.257439,-2.599370,4.482312,0.370288,-0.867418,-3.430142,-4.680224,-5.606132,-0.701416,-0.197021,0.000977,0.097123,-0.005712,-0.023644,0.999186,-0.017146,-0.023395,-0.028023,-0.756701,-0.162124,0.627314,-0.087161
31836,NaN,11.652140,-0.013741,-2.502037,4.480598,-0.468485,1.217073,-3.705406,-4.828011,-6.132453,-0.693848,-0.237793,0.027344,0.116993,-0.004149,-0.022147,0.999067,-0.018521,-0.024133,-0.030653,-0.746204,-0.168536,0.642338,-0.046670
31837,NaN,12.509411,-0.402225,-2.264713,4.214881,-2.047769,2.007265,-3.978212,-4.930853,-6.725287,-0.670654,-0.282959,0.036621,0.125361,-0.008643,-0.019417,0.998933,-0.019884,-0.024645,-0.033614,-0.734499,-0.176233,0.655310,-0.004642
31838,NaN,12.478171,-2.743330,-1.067592,3.140767,-5.620871,1.268527,-4.182289,-4.977050,-7.076436,-0.645264,-0.334473,0.059082,0.123907,-0.032000,-0.006947,0.998846,-0.020903,-0.024876,-0.035369,-0.720647,-0.182956,0.667455,0.041223
31839,NaN,13.731898,-6.979322,-0.961194,3.266474,-10.948368,0.554580,-4.160253,-4.981797,-7.148792,-0.624268,-0.383789,0.076904,0.134863,-0.074776,-0.004710,0.998835,-0.020793,-0.024899,-0.035730,-0.705525,-0.190552,0.677232,0.085328
31840,NaN,17.959541,-11.251775,-1.387699,3.468622,-17.413524,1.827288,-3.772557,-4.859698,-6.919847,-0.598877,-0.431152,0.090576,0.175788,-0.118825,-0.007372,0.998929,-0.018856,-0.024290,-0.034587,-0.688190,-0.197156,0.686250,0.128785
31841,NaN,23.280955,-15.448369,-1.406164,2.727736,-24.544746,3.313285,-3.052511,-4.462574,-6.384445,-0.571533,-0.476074,0.100098,0.227920,-0.161951,-0.006504,0.999125,-0.015258,-0.022306,-0.031913,-0.671188,-0.205482,0.692750,0.165475
31842,NaN,27.029784,-20.597484,-1.964961,2.040984,-31.769193,2.220144,-1.991835,-3.682835,-5.850844,-0.538086,-0.510498,0.109375,0.264392,-0.213917,-0.012640,0.999353,-0.009957,-0.018410,-0.029248,-0.654266,-0.214326,0.697917,0.197261
31843,NaN,27.819325,-22.231029,-0.559548,-0.381856,-34.228794,0.002049,-0.818636,-2.729014,-5.232814,-0.511230,-0.542725,0.116455,0.272285,-0.229497,-0.000923,0.999556,-0.004093,-0.013643,-0.026160,-0.640183,-0.227091,0.700126,0.220043
31844,NaN,26.670931,-22.430879,1.489591,-3.113269,-34.040074,-2.879734,-0.080034,-1.952681,-4.311666,-0.482422,-0.568604,0.125488,0.261629,-0.229979,0.017558,0.999720,-0.000400,-0.009762,-0.021556,-0.627585,-0.237913,0.702233,0.237492
31845,NaN,24.578771,-24.218670,2.491492,-4.122365,-34.236016,-7.044785,0.188733,-1.315163,-3.116019,-0.458496,-0.579346,0.132080,0.241805,-0.245999,0.026283,0.999857,0.000944,-0.006576,-0.015579,-0.618967,-0.247821,0.702784,0.248111
31846,NaN,21.638975,-26.032228,3.622027,-5.086151,-33.624980,-11.393433,0.264953,-0.876473,-1.770487,-0.449707,-0.585693,0.138672,0.213913,-0.262272,0.036815,0.999950,0.001325,-0.004382,-0.008852,-0.612652,-0.251995,0.704584,0.254397
31847,NaN,18.657874,-26.341043,4.204040,-5.316096,-31.805306,-14.262395,0.283811,-0.609336,-0.436332,-0.445312,-0.585938,0.143066,0.185875,-0.263876,0.042233,0.999992,0.001419,-0.003047,-0.002182,-0.609601,-0.253596,0.706264,0.255473
31848,NaN,16.198621,-25.933489,5.403407,-6.282577,-29.799495,-15.866916,0.482634,-0.338058,0.740558,-0.445557,-0.579346,0.149414,0.162854,-0.258863,0.053684,0.999989,0.002413,-0.001690,0.003703,-0.608383,-0.250375,0.709685,0.252050
31849,NaN,14.323884,-24.560368,6.623338,-7.226284,-27.560787,-16.170174,0.738759,0.011877,1.683485,-0.456787,-0.564453,0.155518,0.145305,-0.244629,0.065320,0.999958,0.003694,0.000059,0.008417,-0.609610,-0.246623,0.712665,0.244257
31850,NaN,12.410497,-20.700123,7.121298,-7.572560,-23.515853,-14.593735,0.948351,0.346912,2.361250,-0.474365,-0.557861,0.161865,0.126662,-0.205850,0.070017,0.999918,0.004742,0.001735,0.011806,-0.612516,-0.240097,0.716231,0.232790
31851,NaN,14.798722,-7.593667,4.462716,-5.917224,-14.953334,-3.652608,0.867688,0.477189,2.928555,-0.485596,-0.540771,0.159424,0.149185,-0.073950,0.043948,0.999881,0.004338,0.002386,0.014642,-0.616531,-0.232763,0.719216,0.220087
31852,NaN,36.034274,13.865769,19.357513,-24.595920,-9.496568,24.394278,0.380159,1.251940,4.043175,-0.518555,-0.521484,0.148193,0.358650,0.145554,0.191599,0.999774,0.001901,0.006259,0.020214,-0.625180,-0.219618,0.720669,0.203849
31853,NaN,44.517907,37.749436,8.937128,-15.650638,7.535176,46.610644,-3.048856,1.488330,6.134421,-0.549561,-0.491211,0.124023,0.433918,0.392190,0.080209,0.999386,-0.015241,0.007440,0.030666,-0.639768,-0.189339,0.719208,0.193874
31854,NaN,16.647954,-3.348470,-8.357693,6.388082,-11.632521,3.680084,-5.134526,-1.421251,5.389757,-0.559082,-0.467529,0.117188,0.167923,-0.031083,-0.081568,0.999282,-0.025666,-0.007105,0.026942,-0.645140,-0.152188,0.723096,0.194333
31855,NaN,16.558099,-27.763736,-10.101624,6.673315,-33.052943,-6.710669,-1.786237,-1.757501,5.962939,-0.590332,-0.431152,0.112061,0.174640,-0.273399,-0.097053,0.999477,-0.008930,-0.008786,0.029809,-0.645613,-0.123053,0.731190,0.182766
31856,NaN,-0.573305,-29.825438,4.472218,-6.151004,-26.622582,-22.580297,-0.336025,0.632117,6.014515,-0.611084,-0.396729,0.113770,0.003378,-0.298168,0.045222,0.999541,-0.001680,0.003160,0.030068,-0.653841,-0.100048,0.732193,0.162410
31857,NaN,4.162609,-16.321101,-1.475568,-0.226409,-16.828114,-11.419889,-0.603384,0.075411,5.157715,-0.629150,-0.371094,0.104492,0.045811,-0.162109,-0.014282,0.999663,-0.003017,0.000377,0.025786,-0.658396,-0.079190,0.733789,0.147637
31858,NaN,13.693747,-8.590442,-3.293565,0.980900,-12.459397,0.953914,-0.386286,0.348672,4.573949,-0.645264,-0.336670,0.104004,0.138797,-0.082808,-0.033015,0.999735,-0.001931,0.001743,0.022868,-0.663528,-0.060931,0.733917,0.131849
31859,NaN,10.104353,-8.645311,-1.910145,0.044853,-11.027216,-2.140279,-0.023921,0.539661,3.774821,-0.654785,-0.313232,0.103516,0.102599,-0.084529,-0.019367,0.999818,-0.000120,0.002698,0.018873,-0.667893,-0.047311,0.733126,0.119196
31860,NaN,12.369653,-8.721357,0.111882,-2.091583,-11.067217,0.296992,0.329325,0.602166,3.103155,-0.661865,-0.295898,0.101074,0.125032,-0.085282,0.000602,0.999874,0.001647,0.003011,0.015515,-0.672180,-0.036813,0.731904,0.105527
31861,NaN,12.565079,-8.564371,0.421962,-2.278067,-10.627945,0.829164,0.493183,0.727284,2.736003,-0.666748,-0.274414,0.094482,0.126820,-0.083923,0.003551,0.999897,0.002466,0.003636,0.013680,-0.676133,-0.028803,0.730145,0.094351
31862,NaN,8.848870,-1.222583,0.270533,-1.075235,-2.548938,-1.314839,0.045255,0.513240,2.314318,-0.677979,-0.265869,0.089844,0.088629,-0.011201,0.002475,0.999930,0.000226,0.002566,0.011571,-0.679422,-0.020222,0.728618,0.084218
31863,NaN,10.830835,-1.055871,-0.981691,0.069625,-2.585859,0.802869,-0.695012,0.029319,2.078589,-0.680664,-0.248779,0.089600,0.108409,-0.009466,-0.009799,0.999940,-0.003475,0.000147,0.010393,-0.680441,-0.010264,0.728389,0.079650
31864,NaN,13.554026,-2.065174,-1.795177,0.595941,-3.730676,3.488490,-0.793199,-0.170874,1.826604,-0.683105,-0.238037,0.087402,0.135737,-0.019483,-0.017757,0.999950,-0.003966,-0.000854,0.009133,-0.680878,-0.000348,0.728618,0.074302
31865,NaN,16.273897,-3.521872,-3.294786,1.710895,-5.376256,6.195510,-0.713127,-0.202198,1.593074,-0.687744,-0.227295,0.089355,0.163046,-0.034038,-0.032660,0.999961,-0.003566,-0.001011,0.007965,-0.680715,0.007995,0.729012,0.071442
31866,NaN,17.984412,-3.362169,-3.850479,2.145402,-5.135927,8.036253,-0.325789,-0.162905,1.283355,-0.687988,-0.220947,0.089111,0.180086,-0.032529,-0.038305,0.999978,-0.001629,-0.000815,0.006417,-0.680801,0.014432,0.729315,0.066348
31867,NaN,23.532267,0.727908,0.828512,-2.437631,-0.683741,13.608856,0.012018,-0.031970,1.101667,-0.688477,-0.210205,0.093262,0.235276,0.008575,0.008323,0.999985,0.000060,-0.000160,0.005508,-0.681047,0.018456,0.729332,0.062518
31868,NaN,25.955862,4.953429,3.237471,-4.482082,3.975702,16.126168,0.221580,0.114519,0.950602,-0.686523,-0.201660,0.091064,0.259338,0.050731,0.032282,0.999988,0.001108,0.000573,0.004753,-0.681993,0.021721,0.728840,0.056627
31869,NaN,23.634195,5.676119,3.179012,-4.137168,5.015804,13.822486,0.370601,0.184704,0.921252,-0.693115,-0.197266,0.084473,0.236107,0.057790,0.031678,0.999987,0.001853,0.000924,0.004606,-0.682965,0.023800,0.728200,0.052120
31870,NaN,20.816000,6.481254,2.125096,-2.785481,6.055643,11.053458,0.591655,0.175386,0.901515,-0.680664,-0.186523,0.084473,0.207884,0.065687,0.021262,0.999985,0.002958,0.000877,0.004508,-0.684184,0.025267,0.727488,0.044892
31871,NaN,19.350512,8.244462,0.937341,-1.339114,7.891702,9.660825,0.855379,0.187100,0.792347,-0.683105,-0.180176,0.082275,0.193185,0.083170,0.009547,0.999983,0.004277,0.000935,0.003962,-0.685145,0.025219,0.726921,0.039059
31872,NaN,19.236306,9.937458,-0.022311,-0.276973,9.686905,9.548979,1.191466,0.201589,0.626130,-0.683105,-0.177979,0.084229,0.192051,0.099976,0.000178,0.999977,0.005957,0.001008,0.003131,-0.686437,0.023420,0.726168,0.030593
31873,NaN,18.298446,12.143081,-0.324764,0.146232,11.982822,8.593320,1.664906,0.331918,0.426618,-0.681152,-0.169434,0.077637,0.182720,0.121844,-0.002538,0.999962,0.008324,0.001660,0.002133,-0.687882,0.019242,0.725200,0.023087
31874,NaN,15.754875,14.277415,-0.326906,0.226254,14.234574,5.982569,2.024554,0.637533,0.187956,-0.679199,-0.165039,0.079834,0.157406,0.142949,-0.002325,0.999943,0.010123,0.003188,0.000940,-0.690655,0.012829,0.722948,0.013297
31875,NaN,12.716249,15.350281,-0.355002,0.242295,15.337614,2.921352,2.041710,0.913611,0.031667,-0.675049,-0.162842,0.066895,0.127125,0.153552,-0.002563,0.999937,0.010208,0.004568,0.000158,-0.694052,0.005872,0.719877,0.005830
31876,NaN,11.603769,12.663716,-1.559210,1.274132,12.684736,1.802884,1.641517,0.997852,0.065767,-0.675049,-0.158691,0.056152,0.115920,0.126801,-0.015130,0.999954,0.008207,0.004989,0.000329,-0.697926,0.000216,0.716167,-0.001951
31877,NaN,10.928406,11.786922,-2.088711,1.775475,11.857388,1.094815,1.058708,1.092280,0.390130,-0.675293,-0.154297,0.049805,0.108940,0.118192,-0.020858,0.999969,0.005293,0.005461,0.001951,-0.701817,-0.002031,0.712318,-0.007139
31878,NaN,9.430038,9.770603,-0.976752,0.737651,9.916407,-0.514162,0.281411,1.231060,1.020223,-0.669189,-0.139404,0.036621,0.093738,0.098199,-0.010208,0.999967,0.001407,0.006155,0.005101,-0.706353,0.000495,0.707737,-0.013167
31879,NaN,8.353905,9.072273,-0.250975,0.141060,9.313481,-1.726306,-0.278878,1.418836,1.916833,-0.671875,-0.126465,0.027832,0.082643,0.091514,-0.003225,0.999928,-0.001394,0.007094,0.009584,-0.711199,0.008396,0.702684,-0.018983
31880,NaN,7.251006,11.175086,-0.078858,0.062755,11.552018,-3.179564,-0.600651,1.649355,2.793606,-0.674561,-0.104980,0.010498,0.070928,0.112745,-0.001715,0.999864,-0.003003,0.008246,0.013967,-0.716772,0.020296,0.696448,-0.028034
31881,NaN,6.797329,14.350642,-0.140916,0.285906,14.878588,-4.273728,-1.042252,1.706734,3.396428,-0.671143,-0.081299,-0.011475,0.065504,0.144621,-0.002727,0.999806,-0.005211,0.008533,0.016981,-0.721996,0.036132,0.689991,-0.036436
31882,NaN,6.866951,17.932431,-0.686728,1.076704,18.631516,-5.246616,-1.444503,1.576667,3.823685,-0.674072,-0.053467,-0.026855,0.065162,0.180534,-0.008691,0.999760,-0.007222,0.007883,0.019117,-0.726425,0.054511,0.683526,-0.046130
31883,NaN,6.589051,17.296435,1.016958,-0.317841,18.151516,-6.073594,-1.600555,1.406068,4.041168,-0.666748,-0.021240,-0.035889,0.062440,0.174321,0.008331,0.999739,-0.008002,0.007030,0.020204,-0.729673,0.074483,0.677500,-0.054980
31884,NaN,8.570196,13.044368,1.793309,-0.758252,14.566336,-3.979588,-1.623628,1.061876,4.085649,-0.669922,0.010986,-0.040527,0.083102,0.132296,0.016418,0.999744,-0.008117,0.005309,0.020427,-0.731446,0.094069,0.672247,-0.064973
31885,NaN,9.018699,10.370103,1.512975,-0.294101,12.300988,-3.509006,-1.328937,0.845773,3.878963,-0.668457,0.032227,-0.049561,0.088213,0.105521,0.014057,0.999781,-0.006644,0.004229,0.019393,-0.732243,0.112259,0.667604,-0.074318
31886,NaN,6.363684,9.505503,-2.842796,3.835262,10.685136,-6.644597,-0.036935,0.942737,3.398677,-0.667236,0.060303,-0.060547,0.061875,0.096111,-0.028740,0.999844,-0.000185,0.004713,0.016993,-0.734070,0.123471,0.662060,-0.087022
31887,NaN,2.542220,9.970576,-6.232075,6.728959,9.885477,-11.115633,1.837066,1.096732,2.781424,-0.655029,0.079590,-0.077881,0.023688,0.100611,-0.061532,0.999846,0.009185,0.005483,0.013906,-0.737510,0.126432,0.655404,-0.102660
31888,NaN,1.909280,10.666857,-7.134494,7.264164,10.431576,-12.404368,3.373776,1.250695,2.307872,-0.659912,0.096680,-0.082520,0.017412,0.108060,-0.069642,0.999772,0.016868,0.006253,0.011538,-0.742413,0.121820,0.647402,-0.121873
31889,NaN,2.901292,9.782097,-6.930482,6.805969,10.144368,-11.509346,4.388861,1.515156,1.937622,-0.647217,0.105225,-0.104004,0.027539,0.099585,-0.067345,0.999684,0.021942,0.007575,0.009687,-0.748572,0.112724,0.637708,-0.142347
31890,NaN,5.091150,8.589754,-7.239420,7.078336,10.091874,-9.450327,5.157363,1.612847,1.511852,-0.638916,0.118164,-0.114990,0.049677,0.088111,-0.070545,0.999606,0.025783,0.008063,0.007558,-0.755257,0.099343,0.626920,-0.163367
31891,NaN,8.985574,7.992400,-6.668725,6.792398,11.285423,-5.867749,5.668083,1.502655,1.162338,-0.632324,0.115967,-0.142578,0.088889,0.082302,-0.065047,0.999553,0.028336,0.007512,0.005811,-0.761490,0.082805,0.615750,-0.184740
31892,NaN,14.846235,8.938538,-7.809336,8.323426,14.885136,-1.421769,5.960025,1.433811,0.792649,-0.632324,0.118164,-0.162109,0.147548,0.092266,-0.076432,0.999522,0.029795,0.007168,0.003963,-0.767315,0.064144,0.604309,-0.204751
31893,NaN,23.443253,12.758263,-9.355291,9.984370,22.375038,4.311907,5.926639,1.651221,0.292038,-0.628174,0.118408,-0.179199,0.233481,0.130659,-0.091642,0.999526,0.029629,0.008255,0.001460,-0.773534,0.043988,0.591520,-0.223191
31894,NaN,17.794628,12.533416,-8.304976,7.508425,19.987919,-0.496111,5.179743,1.822674,-0.794282,-0.620850,0.101318,-0.202393,0.177701,0.126751,-0.081399,0.999615,0.025895,0.009112,-0.003971,-0.780774,0.024240,0.579019,-0.233540
31895,NaN,12.083047,9.657298,-5.399937,4.232733,14.612761,-3.732540,4.670677,1.721222,-1.309627,-0.614258,0.094727,-0.217285,0.121007,0.097023,-0.052778,0.999669,0.023351,0.008605,-0.006547,-0.787585,0.004253,0.566808,-0.241704
31896,NaN,12.337087,6.545491,-1.907949,2.221637,10.980110,-1.257780,4.584256,1.423475,-1.496958,-0.613525,0.077637,-0.236328,0.123725,0.064958,-0.018466,0.999684,0.022919,0.007117,-0.007484,-0.793449,-0.015619,0.556124,-0.246822
31897,NaN,12.947236,2.643034,0.279900,2.114761,6.997439,1.198831,3.981452,1.240055,-1.719997,-0.606445,0.062744,-0.250977,0.129709,0.025264,0.002506,0.999746,0.019906,0.006200,-0.008599,-0.798497,-0.034628,0.546012,-0.251145
31898,NaN,10.890479,0.200410,0.189608,2.865164,3.951846,-0.073735,3.396866,0.765838,-2.124762,-0.604004,0.049805,-0.261475,0.108924,0.000819,0.001500,0.999792,0.016983,0.003829,-0.010623,-0.802671,-0.052365,0.538951,-0.250016
31899,NaN,6.897721,1.287712,1.612393,0.128009,2.830813,-3.194356,2.907405,0.031162,-2.563712,-0.605225,0.024170,-0.265381,0.069135,0.011756,0.016289,0.999812,0.014536,0.000156,-0.012818,-0.805039,-0.070860,0.534418,-0.247566
31900,NaN,5.791584,2.845598,2.275206,-1.436280,3.365973,-4.031820,1.825762,-1.191635,-2.986174,-0.602539,0.007080,-0.260986,0.058192,0.027377,0.023351,0.999829,0.009128,-0.005958,-0.014930,-0.804890,-0.086991,0.536638,-0.237916
31901,NaN,8.951879,2.297617,1.298992,0.607655,3.912144,-1.361852,0.472205,-2.338345,-3.307616,-0.610352,-0.012207,-0.254150,0.089722,0.021461,0.014090,0.999792,0.002361,-0.011691,-0.016537,-0.802170,-0.100497,0.543936,-0.224849
31902,NaN,10.453671,1.129743,1.004772,1.805317,2.962780,0.162687,-0.680203,-3.104116,-3.607067,-0.618652,-0.025146,-0.239014,0.104546,0.009450,0.011636,0.999711,-0.003401,-0.015519,-0.018034,-0.797908,-0.110449,0.555998,-0.204962
31903,NaN,9.315704,0.479133,0.918797,1.720677,1.731175,-0.764003,-1.579763,-3.630007,-3.982764,-0.630859,-0.042236,-0.226074,0.093042,0.003019,0.010849,0.999606,-0.007898,-0.018148,-0.019911,-0.792450,-0.118862,0.569681,-0.182641
31904,NaN,7.512273,-0.279092,0.297822,1.920146,0.552226,-2.560697,-2.193262,-4.131332,-4.498281,-0.636719,-0.065918,-0.208496,0.074952,-0.004434,0.004570,0.999474,-0.010964,-0.020653,-0.022487,-0.785566,-0.126020,0.585899,-0.154037
31905,NaN,7.798699,-0.440302,-0.782370,2.854607,0.370132,-2.510974,-2.473374,-4.487489,-5.009406,-0.644531,-0.087402,-0.184814,0.077991,-0.006438,-0.006002,0.999358,-0.012364,-0.022433,-0.025042,-0.777331,-0.134320,0.601897,-0.124236
31906,NaN,9.325294,-0.705587,-1.043315,3.346087,-0.349450,-1.027021,-2.469190,-4.713611,-5.445233,-0.654297,-0.117432,-0.162842,0.093222,-0.009704,-0.008127,0.999276,-0.012343,-0.023562,-0.027220,-0.767353,-0.143126,0.618481,-0.090368
31907,NaN,12.107319,-0.986947,-1.086524,3.797392,-1.480405,1.678819,-2.405943,-4.718202,-5.905642,-0.657471,-0.149658,-0.138916,0.120918,-0.013549,-0.007863,0.999214,-0.012027,-0.023585,-0.029520,-0.756552,-0.154140,0.632958,-0.056870
31908,NaN,12.844191,-0.751351,-0.889065,3.304528,-2.366245,2.423184,-2.455869,-4.781092,-6.399189,-0.666992,-0.192627,-0.110352,0.128274,-0.011703,-0.005696,0.999127,-0.012276,-0.023899,-0.031987,-0.744002,-0.165305,0.647126,-0.019077
31909,NaN,13.261116,-0.583460,0.171253,1.905869,-3.563522,2.828189,-2.604294,-4.855097,-6.836123,-0.657227,-0.229004,-0.090576,0.132214,-0.010308,0.005041,0.999037,-0.013017,-0.024268,-0.034170,-0.730389,-0.178002,0.659163,0.018761
31910,NaN,14.688451,-2.198758,0.442428,1.597501,-6.578479,3.408868,-2.854606,-4.947392,-7.099190,-0.659668,-0.280518,-0.059814,0.145808,-0.027076,0.008403,0.998962,-0.014268,-0.024728,-0.035484,-0.714513,-0.189164,0.670842,0.060494
31911,NaN,17.588791,-6.272650,0.452605,1.788310,-12.417031,4.018369,-2.938455,-4.996476,-7.055397,-0.649414,-0.329834,-0.039795,0.173331,-0.068754,0.009859,0.998958,-0.014687,-0.024974,-0.035265,-0.697668,-0.200584,0.680435,0.100169
31912,NaN,21.325901,-9.760711,0.559197,1.202503,-18.247774,4.870624,-2.906105,-4.911596,-6.680474,-0.635010,-0.377197,-0.017578,0.209598,-0.104505,0.012256,0.999035,-0.014526,-0.024550,-0.033392,-0.678989,-0.209238,0.689630,0.140016
31913,NaN,24.508631,-12.229590,-0.178334,0.943061,-22.917679,5.145224,-2.836715,-4.668077,-6.114888,-0.625000,-0.420166,0.009033,0.241122,-0.129665,0.005681,0.999160,-0.014180,-0.023334,-0.030566,-0.661026,-0.217211,0.696521,0.175279
31914,NaN,26.203420,-16.322829,-0.472742,-0.030263,-28.153612,2.845267,-2.490004,-4.130544,-5.523542,-0.599854,-0.465088,0.024658,0.257389,-0.170378,0.002713,0.999328,-0.012447,-0.020648,-0.027612,-0.643101,-0.223010,0.702410,0.208106
31915,NaN,27.340987,-19.280778,1.281736,-2.955905,-31.787076,0.258393,-1.840415,-3.243433,-4.730502,-0.581299,-0.501709,0.036133,0.268476,-0.199041,0.019011,0.999546,-0.009201,-0.016215,-0.023649,-0.628565,-0.230193,0.705339,0.233267
31916,NaN,26.151419,-21.457532,2.495034,-5.044269,-32.963618,-3.623714,-1.258261,-2.327390,-3.721584,-0.561035,-0.527588,0.045166,0.257139,-0.219212,0.029329,0.999739,-0.006291,-0.011636,-0.018606,-0.616427,-0.235084,0.707598,0.253099
31917,NaN,23.746843,-24.323157,2.516802,-5.314781,-33.639697,-8.437068,-0.894402,-1.605606,-2.545990,-0.551758,-0.548828,0.047607,0.234130,-0.246105,0.028153,0.999877,-0.004472,-0.008028,-0.012729,-0.608517,-0.239238,0.708344,0.265935
31918,NaN,20.476937,-26.094497,2.652088,-5.477449,-32.692732,-12.713410,-0.721818,-1.129091,-1.249595,-0.540771,-0.553223,0.056396,0.202976,-0.262116,0.028615,0.999958,-0.003609,-0.005645,-0.006248,-0.603108,-0.238564,0.710066,0.274144
31919,NaN,17.471693,-25.944482,2.718233,-5.383601,-30.485044,-15.050745,-0.485428,-0.893992,0.021607,-0.538574,-0.555420,0.054199,0.174619,-0.259358,0.028593,0.999987,-0.002427,-0.004470,0.000108,-0.600552,-0.235759,0.712122,0.276834
31920,NaN,15.345900,-25.905757,3.645430,-6.230940,-28.917541,-16.508631,-0.135718,-0.649330,1.093485,-0.543213,-0.551025,0.064941,0.154752,-0.258189,0.037131,0.999980,-0.000679,-0.003247,0.005467,-0.599616,-0.229280,0.715803,0.274804
31921,NaN,13.325412,-25.077505,4.638704,-6.959865,-26.933727,-17.166441,0.308298,-0.239916,1.875866,-0.553955,-0.546875,0.066895,0.135543,-0.249582,0.046163,0.999954,0.001541,-0.001200,0.009379,-0.600972,-0.223114,0.719072,0.268308
31922,NaN,11.284354,-21.153732,4.996948,-6.940920,-22.765285,-15.585232,0.792636,0.166055,2.406558,-0.567383,-0.536133,0.079590,0.115420,-0.210354,0.049039,0.999919,0.003963,0.000830,0.012032,-0.603889,-0.215966,0.722734,0.257550
31923,NaN,13.738129,-11.220315,2.557657,-4.880451,-16.933047,-6.556286,1.186735,0.361566,2.819031,-0.580811,-0.520996,0.081299,0.138991,-0.110400,0.024668,0.999881,0.005933,0.001808,0.014095,-0.607490,-0.209765,0.726136,0.244298
31925,NaN,33.818941,35.165268,12.768653,-36.034927,21.172310,81.960286,-0.054510,1.514886,3.807450,-0.625488,-0.469482,0.050293,0.652718,0.728598,0.244971,0.999160,-0.000545,0.015145,0.038064,-0.627618,-0.184425,0.724457,0.217362
31926,NaN,32.470476,7.449330,-1.998617,-2.504520,-10.757422,21.677420,-4.521238,-0.324114,4.833745,-0.641357,-0.443604,0.039307,0.322819,0.081841,-0.021257,0.999451,-0.022602,-0.001620,0.024164,-0.635535,-0.152241,0.724625,0.218716
31927,NaN,12.173961,-40.770377,-16.366833,11.412547,-43.452982,-17.512779,-2.086351,-2.511859,4.914861,-0.662109,-0.409424,0.049316,0.133741,-0.406182,-0.157796,0.999565,-0.010430,-0.012557,0.024571,-0.633828,-0.125164,0.733574,0.210871
31928,NaN,16.577354,-20.275115,7.468266,-11.787655,-24.003999,-4.688650,0.547508,-0.011397,6.927934,-0.683105,-0.362305,0.046387,0.172662,-0.197052,0.074148,0.999396,0.002737,-0.000057,0.034633,-0.640378,-0.101366,0.738081,0.186758
31929,NaN,-4.032886,-5.096188,4.627705,-4.388481,-2.612937,-15.940404,1.026015,0.698467,5.850038,-0.703613,-0.327881,0.041504,-0.038650,-0.052346,0.046148,0.999553,0.005129,0.003492,0.029246,-0.648194,-0.083574,0.739327,0.162035
31930,NaN,8.438623,-11.931503,-6.023932,3.584216,-14.655732,-5.103725,-0.839057,-0.319334,5.170056,-0.717773,-0.289307,0.053711,0.087532,-0.117330,-0.059606,0.999656,-0.004195,-0.001596,0.025847,-0.651342,-0.061418,0.741587,0.148425
31931,NaN,14.877988,-12.807380,-0.620315,-2.809091,-16.200344,0.927923,-0.139318,0.041618,4.518116,-0.725342,-0.261475,0.051025,0.151621,-0.124674,-0.006147,0.999745,-0.000697,0.000208,0.022589,-0.655197,-0.044088,0.742453,0.132423
31932,NaN,11.423093,-11.850617,1.214497,-3.991834,-13.810984,-1.707777,0.699204,0.399976,3.671764,-0.732666,-0.235596,0.044189,0.116405,-0.116423,0.011504,0.999823,0.003496,0.002000,0.018358,-0.658854,-0.032964,0.742282,0.117652
31933,NaN,9.692740,-8.623161,-1.512908,-0.555588,-10.409707,-1.944316,1.213921,0.839002,2.902020,-0.741943,-0.212158,0.041748,0.098098,-0.084718,-0.016056,0.999868,0.006069,0.004195,0.014509,-0.663843,-0.026594,0.740471,0.101526
31934,NaN,10.579724,-5.418659,-3.653431,1.953909,-7.417859,-0.025728,1.434810,0.990511,2.658075,-0.742432,-0.197021,0.034912,0.106319,-0.052509,-0.037441,0.999874,0.007174,0.004952,0.013290,-0.668594,-0.021973,0.738169,0.087211
31935,NaN,9.131143,-0.087594,-1.766995,0.833436,-1.484272,-0.669091,0.688941,0.637704,2.381265,-0.749512,-0.179932,0.034668,0.091256,0.000272,-0.017961,0.999918,0.003445,0.003188,0.011906,-0.672220,-0.015566,0.736398,0.074812
31936,NaN,11.657479,-0.544271,-1.478720,0.322639,-1.988695,1.776772,-0.102299,0.083219,2.128639,-0.756592,-0.164795,0.034424,0.116618,-0.004209,-0.014833,0.999943,-0.000511,0.000416,0.010643,-0.673300,-0.007372,0.736200,0.067986
31937,NaN,13.822175,-1.289013,-0.409463,-0.979960,-2.564523,3.801231,-0.481149,-0.200713,1.911851,-0.754883,-0.147705,0.036377,0.138341,-0.011578,-0.003927,0.999951,-0.002406,-0.001004,0.009559,-0.673489,0.001582,0.736622,0.061627
31938,NaN,14.249049,-2.103275,-1.674297,0.139016,-3.286519,4.309559,-0.773642,-0.273333,1.571853,-0.755371,-0.139160,0.029785,0.142673,-0.019976,-0.016469,0.999961,-0.003868,-0.001367,0.007859,-0.672941,0.010105,0.737259,0.059141
31939,NaN,15.572789,-3.400470,-5.660422,3.811887,-4.824300,5.945107,-0.671458,-0.303993,1.281790,-0.751221,-0.130615,0.031738,0.156028,-0.033195,-0.056255,0.999973,-0.003357,-0.001520,0.006409,-0.672402,0.017396,0.737886,0.055650
31940,NaN,21.256887,0.641370,-1.323094,-0.642306,-0.425249,11.480945,-0.479413,-0.085489,1.180789,-0.760254,-0.122070,0.031738,0.212532,0.007637,-0.013157,0.999980,-0.002397,-0.000427,0.005904,-0.672367,0.023433,0.737917,0.053402
31941,NaN,24.137290,4.728649,1.212149,-2.942673,4.103169,14.289965,-0.261481,0.121617,0.973898,-0.756104,-0.117676,0.035889,0.241146,0.048477,0.011912,0.999987,-0.001307,0.000608,0.004869,-0.673230,0.028176,0.737228,0.049618
31942,NaN,23.954894,5.517373,2.181440,-3.731170,5.211779,14.019002,-0.032217,0.164132,0.795502,-0.756592,-0.102783,0.031250,0.239345,0.056129,0.021609,0.999992,-0.000161,0.000821,0.003978,-0.674030,0.031221,0.736543,0.047043
31943,NaN,21.081899,5.414827,1.884257,-3.138161,5.338281,11.138921,0.346116,0.167373,0.750220,-0.750244,-0.098389,0.031250,0.210630,0.054906,0.018761,0.999991,0.001731,0.000837,0.003751,-0.675093,0.032881,0.735816,0.041746
31944,NaN,18.517013,5.977583,1.024424,-1.986454,5.960871,8.631324,0.819083,0.195835,0.648755,-0.752441,-0.098389,0.027100,0.184985,0.060334,0.010309,0.999986,0.004095,0.000979,0.003244,-0.676081,0.032507,0.735202,0.036535
31945,NaN,17.742380,7.937377,0.171661,-0.915739,7.963180,7.895269,1.281384,0.222508,0.455066,-0.750244,-0.094238,0.024902,0.177245,0.079765,0.002030,0.999976,0.006407,0.001113,0.002275,-0.677413,0.029751,0.734436,0.028812
31946,NaN,17.382453,10.721960,-0.719953,0.138945,10.741588,7.571946,1.728224,0.274880,0.270209,-0.746094,-0.089844,0.016113,0.173670,0.107513,-0.006510,0.999961,0.008641,0.001374,0.001351,-0.678698,0.024895,0.733679,0.021551
31947,NaN,16.167442,13.640597,-1.191784,0.712569,13.704624,6.328700,2.040054,0.474455,0.084207,-0.744141,-0.087646,0.014160,0.161590,0.136589,-0.010909,0.999945,0.010200,0.002372,0.000421,-0.680889,0.018097,0.732057,0.012457
31948,NaN,13.389688,15.528478,-0.934097,0.536119,15.614457,3.498493,1.983455,0.735994,0.005295,-0.741943,-0.089844,0.005615,0.133861,0.155374,-0.008293,0.999944,0.009917,0.003680,0.000026,-0.683730,0.011364,0.729628,0.005204
31949,NaN,10.505669,15.494948,-0.740938,0.324012,15.597891,0.560846,1.652129,0.941457,0.065372,-0.741943,-0.089844,0.001221,0.104974,0.155041,-0.006623,0.999955,0.008261,0.004707,0.000327,-0.687427,0.005741,0.726227,-0.002184
31950,NaN,9.043831,12.459036,-0.684939,0.234964,12.580126,-0.914812,1.102308,1.049269,0.426368,-0.739746,-0.089844,-0.013672,0.090137,0.124820,-0.006635,0.999969,0.005511,0.005246,0.002132,-0.691247,0.003558,0.722569,-0.007664
31951,NaN,8.861790,9.156275,0.070323,-0.492516,9.353948,-1.173678,0.405413,1.122489,1.197658,-0.735596,-0.079102,-0.024658,0.088070,0.092090,0.000394,0.999964,0.002027,0.005612,0.005988,-0.695410,0.006273,0.718444,-0.014283
31952,NaN,8.297958,8.982633,-0.044680,-0.260244,9.306240,-1.883962,-0.120591,1.372368,2.187810,-0.742920,-0.057617,-0.040039,0.081984,0.090726,-0.001066,0.999916,-0.000603,0.006862,0.010939,-0.700125,0.014696,0.713547,-0.021455
31953,NaN,6.826111,11.239707,-1.301569,1.122683,11.686313,-3.748553,-0.290328,1.586222,3.124133,-0.737061,-0.038330,-0.055176,0.066388,0.113424,-0.013711,0.999845,-0.001452,0.007931,0.015620,-0.705457,0.026716,0.707517,-0.032187
31954,NaN,6.848940,13.114886,-2.317685,2.275186,13.754306,-4.345278,-0.391943,1.609423,3.701562,-0.738037,-0.008301,-0.068604,0.065857,0.132338,-0.023972,0.999794,-0.001960,0.008047,0.018507,-0.710359,0.041492,0.701256,-0.043677
31955,NaN,8.140578,13.041831,-2.186268,2.294263,14.058918,-3.633272,-0.236431,1.567157,3.983860,-0.739014,0.021973,-0.086182,0.078612,0.131976,-0.022641,0.999770,-0.001182,0.007835,0.019918,-0.714858,0.056335,0.694628,-0.057423
31956,NaN,7.978062,11.961189,-1.815556,2.050847,13.199980,-4.196857,-0.033238,1.576107,4.102630,-0.729248,0.051758,-0.094971,0.077159,0.121210,-0.018791,0.999759,-0.000166,0.007880,0.020511,-0.718971,0.071186,0.687672,-0.071556
31957,NaN,7.290507,8.397778,-2.513553,2.800259,9.790187,-4.685829,0.440045,1.326899,3.877159,-0.719238,0.071289,-0.112549,0.071090,0.085423,-0.025424,0.999788,0.002200,0.006634,0.019384,-0.722197,0.083118,0.681133,-0.087072
31958,NaN,8.429641,6.916609,-4.599844,4.968054,8.865677,-3.749987,1.599061,1.196319,3.508578,-0.724121,0.094727,-0.121338,0.082787,0.070995,-0.045934,0.999796,0.007995,0.005981,0.017542,-0.725259,0.089841,0.674509,-0.104715
31959,NaN,6.417981,10.837106,-5.753857,5.708158,12.352908,-7.256210,2.864178,1.548814,2.873711,-0.713623,0.103271,-0.142822,0.062166,0.110088,-0.056457,0.999764,0.014320,0.007743,0.014367,-0.730105,0.089778,0.665895,-0.124377
31960,NaN,3.848767,13.677607,-7.912985,7.068828,14.577236,-11.224538,3.951459,1.711491,2.202366,-0.707764,0.118408,-0.158203,0.036304,0.138716,-0.076719,0.999708,0.019755,0.008557,0.011011,-0.735990,0.083769,0.655997,-0.144811
31961,NaN,5.876816,13.794981,-7.694459,6.450463,15.568540,-9.768064,4.629200,1.552757,1.741985,-0.703125,0.112061,-0.177246,0.056971,0.140189,-0.074164,0.999664,0.023143,0.007763,0.008709,-0.741512,0.073561,0.645995,-0.165644
31962,NaN,9.512492,12.962704,-7.810754,6.468901,16.330761,-6.505594,4.894375,1.441965,1.386644,-0.696533,0.112061,-0.194336,0.093663,0.132150,-0.075573,0.999651,0.024469,0.007209,0.006932,-0.746556,0.061108,0.635851,-0.186048
31963,NaN,13.335312,12.590531,-8.463128,7.066492,17.763612,-3.297415,4.927600,1.439864,1.050548,-0.692139,0.109863,-0.207275,0.132083,0.128651,-0.082438,0.999657,0.024635,0.007198,0.005252,-0.751420,0.047527,0.625457,-0.204726
31964,NaN,14.675374,13.277806,-9.415205,7.427822,19.391256,-2.807059,4.736126,1.615609,0.580443,-0.691895,0.099365,-0.230713,0.145613,0.135400,-0.092146,0.999683,0.023678,0.008077,0.002902,-0.756756,0.033230,0.614196,-0.221313
31965,NaN,12.377967,13.551992,-8.999348,6.096116,18.930597,-5.090441,4.607498,1.606072,-0.183367,-0.687012,0.084229,-0.236816,0.123194,0.137447,-0.087833,0.999702,0.023035,0.008030,-0.000917,-0.762478,0.017276,0.603096,-0.233672
31966,NaN,10.616480,12.900589,-7.735961,4.351268,17.519502,-6.194068,4.322315,1.391310,-0.830809,-0.690674,0.064941,-0.249268,0.106175,0.130207,-0.075293,0.999734,0.021610,0.006956,-0.004154,-0.767804,-0.000044,0.592649,-0.243402
31967,NaN,10.742505,10.585619,-5.773952,3.091473,15.012732,-4.728743,3.992431,1.019339,-1.160307,-0.687744,0.047852,-0.259766,0.107752,0.106363,-0.056168,0.999771,0.019961,0.005096,-0.005801,-0.772127,-0.017269,0.584088,-0.249727
31968,NaN,11.643195,6.210241,-3.235138,2.564707,10.688415,-1.826760,3.750034,0.739877,-1.348018,-0.685059,0.034912,-0.261719,0.116732,0.061914,-0.031621,0.999795,0.018749,0.003699,-0.006740,-0.775477,-0.034715,0.576310,-0.255534
31969,NaN,12.405545,1.472427,-1.351886,3.134429,6.082608,0.726200,3.199977,0.428006,-1.670435,-0.686523,0.011475,-0.270020,0.124145,0.013904,-0.013558,0.999835,0.015999,0.002140,-0.008352,-0.778224,-0.051110,0.570603,-0.257228
31970,NaN,12.716563,0.544842,-1.033767,3.445376,5.102134,1.375224,2.588775,0.015839,-2.082541,-0.687988,-0.007812,-0.259033,0.127213,0.004257,-0.010287,0.999862,0.012943,0.000079,-0.010412,-0.780168,-0.067058,0.566600,-0.256527
31971,NaN,11.489942,2.953551,0.422117,0.867616,5.942106,0.426940,2.145898,-0.555196,-2.496414,-0.687256,-0.029297,-0.252197,0.115243,0.028049,0.004847,0.999861,0.010729,-0.002776,-0.012481,-0.781019,-0.082887,0.565587,-0.251495
