// Start Time: Unknown
// Update Rate: 100.0Hz
// Filter Profile: human (46.1)
// Firmware Version: 4.4.0
PacketCounter,SampleTimeFine,Acc_X,Acc_Y,Acc_Z,FreeAcc_X,FreeAcc_Y,FreeAcc_Z,Gyr_X,Gyr_Y,Gyr_Z,Mag_X,Mag_Y,Mag_Z,VelInc_X,VelInc_Y,VelInc_Z,OriInc_q0,OriInc_q1,OriInc_q2,OriInc_q3,Quat_q0,Quat_q1,Quat_q2,Quat_q3
20979,NaN,22.551380,-4.366985,3.430731,0.000000,0.000000,13.410695,-1.007164,-2.300497,-3.546348,-0.553711,-0.806396,0.122314,0.224278,-0.047472,0.037125,0.999764,-0.005035,-0.011502,-0.017730,-0.425140,-0.451143,0.465339,-0.631811
20980,NaN,23.115693,-6.898195,5.141713,0.000000,-0.000000,14.850930,-0.912260,-1.672484,-3.162673,-0.520752,-0.827881,0.122803,0.229588,-0.072380,0.053666,0.999830,-0.004561,-0.008362,-0.015812,-0.408985,-0.409431,0.472831,-0.664476
20981,NaN,24.689338,-11.096851,2.922254,3.839286,3.065597,16.965178,-0.816926,-1.021760,-2.628803,-0.501221,-0.834229,0.120850,0.245252,-0.114075,0.030940,0.999892,-0.004084,-0.005109,-0.013144,-0.422367,-0.429317,0.469255,-0.645827
20982,NaN,22.027267,-15.097334,0.376329,8.531380,5.680545,14.848951,-1.161245,-0.829716,-1.397468,-0.488037,-0.838623,0.118652,0.219190,-0.152479,0.005557,0.999950,-0.005806,-0.004149,-0.006987,-0.427405,-0.432802,0.471733,-0.638338
20983,NaN,21.744567,-16.121811,0.866179,9.724736,4.895666,14.985225,-1.375778,-0.909787,0.086882,-0.494385,-0.840576,0.105957,0.217470,-0.161054,0.010759,0.999966,-0.006879,-0.004549,0.000434,-0.425224,-0.432020,0.480580,-0.633708
20984,NaN,20.538957,-14.178556,1.495716,8.155835,3.347215,13.583233,-1.776905,-0.958495,1.328088,-0.505615,-0.829834,0.097168,0.206246,-0.140272,0.017195,0.999927,-0.008884,-0.004792,0.006640,-0.422520,-0.428057,0.491082,-0.630146
20985,NaN,22.665217,-11.794040,-1.791711,3.791462,5.465377,14.920654,-1.854654,-0.790571,2.220762,-0.525391,-0.816895,0.086182,0.228010,-0.115568,-0.015939,0.999888,-0.009273,-0.003953,0.011103,-0.407295,-0.414273,0.516911,-0.628723
20986,NaN,18.530930,-11.936533,0.633264,5.019394,2.389367,11.526135,-1.524500,-0.320150,2.384088,-0.542725,-0.806152,0.070801,0.186703,-0.117091,0.007529,0.999899,-0.007622,-0.001601,0.011920,-0.402090,-0.405971,0.527241,-0.628911
20987,NaN,11.426410,12.096683,-3.404864,-15.817255,2.816993,-4.303607,-1.912879,0.113782,2.282266,-0.551758,-0.797607,0.055664,0.112857,0.121927,-0.035276,0.999889,-0.009564,0.000569,0.011411,-0.382561,-0.388161,0.561338,-0.622799
20988,NaN,4.239018,34.143888,4.961519,-32.627047,-7.089268,-19.485782,-1.770638,0.996771,0.805489,-0.553711,-0.797607,0.031982,0.041250,0.342027,0.046381,0.999940,-0.008853,0.004984,0.004027,-0.386264,-0.379386,0.566475,-0.621267
20989,NaN,12.872575,4.278950,3.604983,-8.259568,-3.306686,1.043271,-2.258763,-0.221887,0.445413,-0.568848,-0.793213,0.019043,0.128590,0.043481,0.035704,0.999933,-0.011294,-0.001109,0.002227,-0.410690,-0.402657,0.562137,-0.594309
20990,NaN,23.198505,-5.641535,4.470476,-2.677324,-3.557458,14.064947,-1.328232,-0.394161,1.571700,-0.582275,-0.780273,0.012451,0.232328,-0.054290,0.045528,0.999945,-0.006641,-0.001971,0.007858,-0.407564,-0.396661,0.570026,-0.592977
20991,NaN,18.976982,0.056749,8.201596,-5.190338,-7.269822,8.831102,-0.058830,0.449687,2.113048,-0.593506,-0.767334,0.007812,0.189933,0.002598,0.081588,0.999942,-0.000294,0.002248,0.010565,-0.429580,-0.414160,0.547587,-0.586584
20992,NaN,10.016911,4.200487,4.777389,-6.922035,-4.412362,-1.244282,-0.276572,-0.338387,2.068946,-0.613281,-0.754395,0.011963,0.099646,0.043104,0.047884,0.999944,-0.001383,-0.001692,0.010345,-0.423135,-0.408870,0.553379,-0.589537
20993,NaN,10.903213,5.211903,2.011080,-7.472351,-1.345611,-0.198415,-0.585698,-0.979470,2.240770,-0.626709,-0.739502,0.013672,0.108339,0.053395,0.020487,0.999921,-0.002928,-0.004897,0.011204,-0.446958,-0.425848,0.521387,-0.589099
20994,NaN,8.699990,4.479635,-2.485941,-6.574660,2.907174,-2.723523,-1.230118,-1.164604,2.215999,-0.642334,-0.724365,0.006836,0.086641,0.045606,-0.024633,0.999903,-0.006150,-0.005823,0.011080,-0.439971,-0.420711,0.532280,-0.588308
20995,NaN,7.473717,3.191895,-9.401225,-4.775000,9.824320,-3.887419,-1.821624,-1.653130,2.177021,-0.655762,-0.707275,0.006592,0.075165,0.031881,-0.093683,0.999865,-0.009108,-0.008265,0.010885,-0.462653,-0.440895,0.513989,-0.572171
20996,NaN,10.800020,0.815075,-10.587680,-3.109615,11.261730,-0.174040,-1.914152,-1.583381,2.103993,-0.673340,-0.698730,0.006348,0.108748,0.008284,-0.105097,0.999868,-0.009570,-0.007917,0.010519,-0.456723,-0.435532,0.527697,-0.568552
20997,NaN,11.756046,-1.299630,-7.124259,-0.179996,7.324100,1.890783,-1.405312,-0.796086,1.822748,-0.682129,-0.692139,0.001953,0.117958,-0.012420,-0.070685,0.999926,-0.007026,-0.003980,0.009114,-0.470537,-0.457469,0.533613,-0.533455
20998,NaN,10.871769,-1.417281,-4.938818,-0.104458,5.065358,1.092612,-0.507633,-0.050356,1.504088,-0.695557,-0.677246,-0.000488,0.108833,-0.013480,-0.049326,0.999968,-0.002538,-0.000252,0.007520,-0.467537,-0.452381,0.538509,-0.535507
20999,NaN,10.041290,-1.388706,-4.141657,0.486080,3.738849,0.467974,0.399532,0.409740,1.333832,-0.700195,-0.666504,-0.000732,0.100417,-0.013134,-0.041649,0.999974,0.001998,0.002049,0.006669,-0.472948,-0.469225,0.545538,-0.508464
21000,NaN,10.222273,0.365292,-2.975448,-1.473259,2.708715,0.383943,1.329802,0.738906,1.209613,-0.713623,-0.655762,0.007812,0.102087,0.004470,-0.030104,0.999953,0.006649,0.003694,0.006048,-0.468746,-0.467169,0.543223,-0.516661
21001,NaN,9.446099,3.403689,-0.952716,-4.235476,0.533039,-0.675034,1.890967,0.967006,1.089143,-0.711670,-0.651367,0.007568,0.094227,0.034641,-0.009658,0.999929,0.009455,0.004835,0.005446,-0.468444,-0.480675,0.545908,-0.501495
21002,NaN,8.725943,5.162034,1.151411,-6.065005,-1.458345,-1.737865,1.863543,0.823659,1.045814,-0.720459,-0.640625,0.016113,0.087036,0.051968,0.011639,0.999934,0.009318,0.004118,0.005229,-0.463561,-0.480088,0.541783,-0.510977
21003,NaN,7.228356,7.468371,0.984555,-8.018100,-1.306275,-3.255449,1.303445,0.343333,1.136937,-0.731445,-0.634277,0.015869,0.071875,0.075027,0.010210,0.999961,0.006517,0.001717,0.005685,-0.465407,-0.492072,0.540176,-0.499472
21004,NaN,6.494156,9.647159,-0.546389,-10.182229,0.247435,-4.173630,0.592271,-0.087954,1.310161,-0.736328,-0.619141,0.028564,0.064310,0.096910,-0.005149,0.999974,0.002961,-0.000440,0.006551,-0.460428,-0.490118,0.542111,-0.503891
21005,NaN,6.614640,8.021864,-1.991529,-8.339963,1.566840,-3.483542,0.033764,-0.257912,1.476999,-0.751709,-0.608398,0.019775,0.065577,0.080708,-0.019817,0.999972,0.000169,-0.001290,0.007385,-0.466538,-0.501805,0.539453,-0.489413
21006,NaN,7.552887,4.812451,-3.210471,-5.279431,2.642116,-2.352240,-0.179603,-0.212406,1.572827,-0.756592,-0.593506,0.021484,0.075182,0.048688,-0.032068,0.999968,-0.000898,-0.001062,0.007864,-0.462552,-0.497647,0.544317,-0.492049
21007,NaN,8.694238,2.955438,-4.325570,-3.251654,3.523917,-0.866071,-0.070321,-0.062606,1.621606,-0.765625,-0.580566,0.017090,0.086713,0.030243,-0.043239,0.999967,-0.000352,-0.000313,0.008108,-0.467260,-0.505913,0.541522,-0.482156
21008,NaN,9.660157,2.564138,-4.607656,-3.055227,3.711500,0.087402,0.218267,0.134892,1.623274,-0.777100,-0.565674,0.025391,0.096358,0.026474,-0.046113,0.999966,0.001091,0.000674,0.008116,-0.463144,-0.501685,0.544769,-0.486864
21009,NaN,9.429894,2.666117,-3.646774,-3.024165,2.668150,-0.165779,0.488320,0.341429,1.582294,-0.790283,-0.556885,0.022949,0.094021,0.027495,-0.036562,0.999964,0.002442,0.001707,0.007911,-0.464419,-0.506724,0.545454,-0.479611
21010,NaN,9.001230,2.586668,-2.658204,-3.099752,1.759467,-0.753297,0.692979,0.433961,1.534118,-0.794678,-0.550537,0.022949,0.089752,0.026648,-0.026686,0.999962,0.003465,0.002170,0.007670,-0.460150,-0.503090,0.546650,-0.486144
21011,NaN,9.107141,2.850167,-1.660611,-3.209820,0.665762,-0.698264,0.809075,0.477004,1.524867,-0.803955,-0.533447,0.020508,0.090810,0.029262,-0.016706,0.999960,0.004045,0.002385,0.007624,-0.462644,-0.510392,0.544456,-0.478568
21012,NaN,9.286027,3.518550,-1.046323,-4.044187,0.076955,-0.683520,0.783164,0.471844,1.540667,-0.810791,-0.522705,0.024414,0.092561,0.035940,-0.010542,0.999960,0.003916,0.002359,0.007703,-0.458225,-0.506861,0.545400,-0.485449
21013,NaN,9.135185,4.164377,-0.887362,-4.622798,-0.098156,-0.857302,0.578198,0.417213,1.559717,-0.822021,-0.505371,0.020020,0.091005,0.042380,-0.008942,0.999963,0.002891,0.002086,0.007798,-0.458729,-0.509658,0.544872,-0.482630
21014,NaN,8.897644,4.029584,-1.110919,-4.613625,0.175348,-1.133901,0.276940,0.346062,1.583454,-0.824707,-0.492676,0.021729,0.088634,0.041014,-0.011206,0.999966,0.001385,0.001730,0.007917,-0.455129,-0.505127,0.547427,-0.487882
21015,NaN,8.795715,3.944696,-1.726149,-4.496974,0.779587,-1.148269,-0.015630,0.283805,1.621315,-0.838135,-0.477539,0.019287,0.087609,0.040157,-0.017389,0.999966,-0.000078,0.001419,0.008106,-0.455817,-0.505272,0.549154,-0.485141
21016,NaN,8.601807,3.682132,-2.296126,-4.350239,1.397674,-1.330868,-0.145848,0.216300,1.662009,-0.836426,-0.464600,0.014893,0.085683,0.037517,-0.023081,0.999965,-0.000729,0.001081,0.008310,-0.452732,-0.499833,0.553194,-0.489057
21017,NaN,8.901208,2.950821,-2.593006,-3.625764,1.633970,-0.933245,-0.195229,0.152650,1.680289,-0.843262,-0.449707,0.010498,0.088740,0.030229,-0.026027,0.999964,-0.000976,0.000763,0.008401,-0.453662,-0.498673,0.556420,-0.485708
21018,NaN,9.460144,2.403276,-2.617893,-3.275109,1.607229,-0.388691,-0.223035,0.144296,1.697498,-0.858887,-0.438965,0.012207,0.094374,0.024805,-0.026274,0.999963,-0.001115,0.000721,0.008487,-0.450481,-0.493076,0.560846,-0.489280
21019,NaN,9.859306,2.044197,-2.725938,-2.944668,1.641546,0.058853,-0.181557,0.151598,1.692919,-0.859619,-0.417480,0.005615,0.098395,0.021251,-0.027353,0.999963,-0.000908,0.000758,0.008464,-0.451252,-0.491884,0.563546,-0.486660
21020,NaN,9.874816,1.616609,-2.592757,-2.682140,1.518683,0.053681,-0.148216,0.160866,1.680845,-0.868408,-0.406738,0.005371,0.098587,0.016976,-0.026019,0.999964,-0.000741,0.000804,0.008404,-0.447964,-0.486405,0.567657,-0.490412
21021,NaN,9.737307,1.718154,-2.654579,-2.789696,1.578980,-0.089714,-0.093200,0.178547,1.648334,-0.866943,-0.391846,0.005127,0.097203,0.017971,-0.026641,0.999966,-0.000466,0.000893,0.008242,-0.447390,-0.484976,0.570484,-0.489069
21022,NaN,9.810128,2.223661,-3.060573,-3.436371,2.030721,-0.085629,-0.028511,0.193243,1.618655,-0.880371,-0.374512,0.000488,0.097887,0.023025,-0.030704,0.999967,-0.000143,0.000966,0.008093,-0.444038,-0.479807,0.574027,-0.493061
21023,NaN,10.478133,2.512644,-3.205438,-3.827571,2.103370,0.545994,0.077030,0.201056,1.635732,-0.885254,-0.361816,0.006836,0.104539,0.025994,-0.032150,0.999966,0.000385,0.001005,0.008179,-0.443857,-0.477845,0.577195,-0.491428
21024,NaN,11.842678,3.087464,-2.683181,-4.798453,1.500912,1.663344,0.193356,0.241697,1.664213,-0.887695,-0.346680,-0.002197,0.118132,0.031884,-0.026944,0.999964,0.000967,0.001208,0.008321,-0.439988,-0.472860,0.580139,-0.496239
21025,NaN,12.175937,2.978763,-2.248946,-4.767429,1.014077,1.952657,0.317372,0.302851,1.700901,-0.895020,-0.325195,0.003906,0.121466,0.030857,-0.022625,0.999961,0.001587,0.001514,0.008504,-0.440252,-0.471671,0.582387,-0.494500
21026,NaN,12.232394,3.847922,-1.116504,-5.886554,-0.008525,1.634079,0.478982,0.379509,1.748004,-0.899658,-0.312256,-0.006836,0.121960,0.039573,-0.011303,0.999957,0.002395,0.001898,0.008740,-0.435887,-0.466676,0.584465,-0.500616
21027,NaN,12.380516,4.706884,0.150293,-6.845652,-1.221888,1.460879,0.536818,0.461959,1.890643,-0.909180,-0.288818,-0.005127,0.123356,0.048233,0.001346,0.999949,0.002684,0.002310,0.009453,-0.435218,-0.465436,0.585547,-0.501088
21028,NaN,12.607100,5.992814,0.836138,-8.400142,-1.781158,1.224072,0.447164,0.525699,2.089259,-0.916016,-0.275879,-0.011963,0.125458,0.061222,0.008167,0.999939,0.002236,0.002628,0.010446,-0.430456,-0.458946,0.588109,-0.508137
21029,NaN,13.174715,6.241611,0.596755,-8.779286,-1.544733,1.737868,0.314727,0.574744,2.311844,-0.912598,-0.250244,-0.016602,0.131031,0.063924,0.005690,0.999928,0.001574,0.002874,0.011559,-0.430509,-0.456804,0.588473,-0.509599
21030,NaN,14.043062,6.314181,-0.232456,-9.286369,-0.703042,2.450530,0.252693,0.628247,2.523418,-0.928467,-0.226562,-0.014893,0.139611,0.064910,-0.002683,0.999915,0.001263,0.003141,0.012617,-0.425315,-0.448283,0.592190,-0.517166
21031,NaN,15.114196,6.339868,-1.333609,-9.576851,0.423237,3.547638,0.306757,0.759188,2.716916,-0.933594,-0.200684,-0.028076,0.150210,0.065464,-0.013808,0.999899,0.001534,0.003796,0.013584,-0.426298,-0.443690,0.592747,-0.519673
21032,NaN,16.083898,7.002445,-2.496502,-10.780792,1.694938,4.145672,0.544651,0.967555,2.886425,-0.936768,-0.170654,-0.039307,0.159683,0.072404,-0.025544,0.999880,0.002723,0.004838,0.014432,-0.420407,-0.433729,0.595602,-0.529524
21033,NaN,16.649286,8.578321,-3.339026,-12.502301,2.745316,4.260614,0.963466,1.245344,3.052273,-0.937744,-0.140625,-0.052490,0.164946,0.088471,-0.033999,0.999853,0.004817,0.006226,0.015261,-0.420561,-0.429716,0.592877,-0.535695
21034,NaN,16.918432,10.387285,-3.421238,-14.756073,3.078798,3.550326,1.525058,1.540881,3.222397,-0.940918,-0.112793,-0.059326,0.167213,0.106841,-0.034699,0.999811,0.007625,0.007704,0.016111,-0.413143,-0.419162,0.592364,-0.550201
21035,NaN,17.737253,12.305757,-3.112878,-16.961171,2.945954,3.578231,2.216114,1.809717,3.350600,-0.939697,-0.082764,-0.081299,0.174991,0.126349,-0.031332,0.999757,0.011080,0.009048,0.016752,-0.412216,-0.415756,0.585634,-0.560586
21036,NaN,18.335499,15.325819,-3.861877,-20.497240,3.778529,2.495682,2.912136,2.078416,3.390740,-0.943115,-0.046387,-0.096924,0.180317,0.156891,-0.038236,0.999696,0.014559,0.010391,0.016952,-0.402621,-0.405878,0.580059,-0.580250
21037,NaN,16.044691,18.267128,-4.725576,-22.627906,4.532126,-0.823843,3.391400,2.218531,3.359626,-0.939697,-0.018311,-0.118652,0.156826,0.186112,-0.045872,0.999654,0.016955,0.011091,0.016796,-0.401344,-0.405150,0.568311,-0.593126
21038,NaN,13.640706,18.020559,-5.211044,-21.936123,4.654019,-3.894405,3.525334,2.162376,3.303143,-0.932129,0.009521,-0.146973,0.132846,0.183317,-0.050346,0.999650,0.017625,0.010811,0.016514,-0.390413,-0.396284,0.560010,-0.613942
21039,NaN,13.434203,14.857387,-4.589429,-18.962949,3.964562,-2.963538,3.311429,2.056198,3.253330,-0.933105,0.039551,-0.164551,0.131429,0.151475,-0.044763,0.999678,0.016555,0.010280,0.016265,-0.389840,-0.397965,0.547914,-0.624050
21040,NaN,14.369579,7.097645,-3.231928,-12.425521,3.269802,0.296091,2.674771,1.996471,3.283817,-0.923096,0.067383,-0.182129,0.142174,0.073756,-0.032770,0.999726,0.013373,0.009981,0.016418,-0.379636,-0.387845,0.542061,-0.641578
21041,NaN,15.618216,2.518350,-4.017529,-8.803652,4.758827,3.080041,2.238146,1.907200,3.337251,-0.917480,0.093262,-0.208008,0.155337,0.028239,-0.041355,0.999753,0.011190,0.009535,0.016685,-0.380392,-0.388391,0.533731,-0.647755
21042,NaN,15.756547,3.580076,-4.917985,-10.405566,5.635412,2.237291,2.345593,1.903833,3.035334,-0.907471,0.116943,-0.227783,0.156517,0.038767,-0.050230,0.999771,0.011727,0.009518,0.015176,-0.371002,-0.378497,0.528285,-0.663334
21043,NaN,14.722106,4.351717,-4.382894,-10.589670,4.965563,1.053028,2.348513,1.999318,2.585299,-0.897217,0.131836,-0.247070,0.146193,0.045933,-0.044764,0.999798,0.011742,0.009996,0.012926,-0.373045,-0.381055,0.518554,-0.668383
21044,NaN,12.969242,2.562517,-3.894432,-8.524476,4.722337,-0.068523,2.517017,1.945806,2.397370,-0.887207,0.153320,-0.275391,0.128984,0.027672,-0.039862,0.999802,0.012584,0.009728,0.011986,-0.365211,-0.372956,0.510978,-0.682954
21045,NaN,12.297997,0.784040,-3.366080,-6.551716,4.538566,0.169624,2.678169,1.494611,2.506560,-0.876953,0.170410,-0.299072,0.122610,0.009837,-0.034455,0.999804,0.013390,0.007473,0.012532,-0.364482,-0.378081,0.501386,-0.687618
21046,NaN,9.140141,-1.082172,-3.162834,-3.769749,4.448502,-2.021152,2.611684,1.168270,2.278971,-0.873047,0.181152,-0.307861,0.091326,-0.009362,-0.032291,0.999833,0.013058,0.005841,0.011394,-0.354580,-0.373048,0.494502,-0.700411
21047,NaN,6.301036,-2.258791,-3.499218,-1.494929,4.732840,-4.119602,2.314617,1.062267,1.581937,-0.862549,0.189941,-0.324951,0.062996,-0.021680,-0.035581,0.999888,0.011573,0.005311,0.007909,-0.355170,-0.380821,0.485930,-0.701927
21048,NaN,4.548413,2.007885,-5.209982,-4.861668,4.970000,-7.935271,2.146203,0.958496,0.783983,-0.860107,0.185547,-0.335693,0.045154,0.020815,-0.052096,0.999923,0.010731,0.004792,0.003920,-0.350636,-0.379333,0.478151,-0.710304
21049,NaN,1.382611,8.939590,-5.392241,-9.554670,2.597900,-13.398632,2.229952,0.754649,0.025540,-0.853271,0.174805,-0.354736,0.013614,0.089992,-0.052973,0.999931,0.011150,0.003773,0.000128,-0.354553,-0.391160,0.468130,-0.708618
21050,NaN,-1.897432,14.940459,-2.548578,-12.715845,-2.670913,-17.842285,2.311036,0.773404,-0.718518,-0.857178,0.164307,-0.363037,-0.018531,0.149752,-0.023684,0.999919,0.011555,0.003867,-0.003592,-0.354363,-0.394167,0.457128,-0.714208
21051,NaN,-4.309551,13.241821,-0.188021,-9.931819,-4.841497,-18.289919,1.872912,0.333361,-1.378954,-0.854248,0.142822,-0.362793,-0.042183,0.132721,-0.000567,0.999931,0.009364,0.001667,-0.006895,-0.362669,-0.409906,0.445756,-0.708343
21052,NaN,-2.944348,8.497918,1.304555,-5.992362,-4.561292,-14.898908,0.987998,-0.558796,-1.776293,-0.858154,0.127686,-0.360352,-0.028725,0.085171,0.013385,0.999944,0.004940,-0.002794,-0.008881,-0.365673,-0.417612,0.439605,-0.706138
21053,NaN,-0.816137,5.126797,1.603773,-3.875930,-3.349046,-11.624493,0.187870,-1.260810,-2.065464,-0.868164,0.110596,-0.353760,-0.007733,0.051334,0.016036,0.999926,0.000939,-0.006304,-0.010327,-0.376300,-0.436342,0.434653,-0.692156
21054,NaN,0.817460,2.752975,1.622364,-2.303019,-2.323493,-9.392538,-0.346675,-1.715993,-2.366654,-0.878174,0.086914,-0.334229,0.008360,0.027460,0.016247,0.999892,-0.001733,-0.008580,-0.011833,-0.381479,-0.446724,0.433871,-0.683131
21055,NaN,1.939567,1.319587,1.019442,-1.453425,-1.136662,-8.041315,-0.590472,-2.031104,-2.735590,-0.886230,0.069824,-0.319092,0.019469,0.012960,0.010353,0.999851,-0.002952,-0.010155,-0.013677,-0.393871,-0.466429,0.431000,-0.664492
21056,NaN,3.093414,1.234161,0.060326,-1.864312,-0.085297,-7.053725,-0.594247,-2.206250,-3.118406,-0.896240,0.044189,-0.299316,0.031113,0.011860,0.000910,0.999813,-0.002971,-0.011031,-0.015591,-0.400792,-0.479220,0.429965,-0.651800
21057,NaN,4.092711,1.940959,0.018474,-2.552278,-0.174483,-6.074940,-0.710497,-2.185532,-3.551822,-0.903809,0.014160,-0.279785,0.041258,0.018680,0.000567,0.999776,-0.003552,-0.010927,-0.017758,-0.414819,-0.499242,0.425460,-0.630608
21058,NaN,4.169740,2.687926,-0.219462,-3.183758,-0.173213,-6.006148,-0.808125,-2.132958,-3.994327,-0.909180,-0.020264,-0.264160,0.042244,0.026031,-0.001852,0.999736,-0.004040,-0.010664,-0.019970,-0.424786,-0.512655,0.422348,-0.615113
21059,NaN,4.102873,2.805426,-0.186011,-3.027564,-0.244315,-5.874629,-0.823438,-2.175851,-4.381811,-0.910156,-0.054688,-0.244385,0.041648,0.027140,-0.001522,0.999692,-0.004117,-0.010878,-0.021907,-0.440614,-0.532497,0.415497,-0.591329
21060,NaN,4.392162,3.019781,-0.341714,-3.086003,-0.131428,-5.456068,-1.019397,-2.305739,-4.769976,-0.913086,-0.097412,-0.224609,0.044661,0.029122,-0.003055,0.999636,-0.005096,-0.011527,-0.023847,-0.452483,-0.546782,0.410738,-0.572349
21061,NaN,5.059867,3.561619,-1.093650,-3.439130,0.509529,-4.579529,-1.300625,-2.420665,-5.101672,-0.911377,-0.144775,-0.204590,0.051613,0.034239,-0.010542,0.999580,-0.006502,-0.012102,-0.025505,-0.469925,-0.565898,0.403106,-0.544458
21062,NaN,6.217263,3.782808,-1.647855,-3.345382,1.058228,-3.228497,-1.408845,-2.528913,-5.352063,-0.907959,-0.183350,-0.184570,0.063357,0.036029,-0.015940,0.999537,-0.007043,-0.012643,-0.026756,-0.483169,-0.579996,0.397551,-0.521638
21063,NaN,7.851828,3.315278,-2.121740,-2.154919,1.655523,-1.461972,-1.366358,-2.596402,-5.594058,-0.906250,-0.232666,-0.164551,0.079670,0.030794,-0.020404,0.999501,-0.006831,-0.012980,-0.027966,-0.500180,-0.598427,0.388227,-0.490902
21064,NaN,9.759793,2.444989,-2.268342,-0.346470,1.948223,0.307808,-1.223412,-2.552307,-5.814155,-0.889404,-0.288574,-0.142334,0.098531,0.021460,-0.021567,0.999477,-0.006116,-0.012759,-0.029066,-0.512897,-0.612603,0.380012,-0.466095
21065,NaN,11.454309,1.666656,-2.046243,1.794971,1.745411,1.669825,-0.933727,-2.491784,-6.001659,-0.879395,-0.333496,-0.122314,0.115216,0.013124,-0.019096,0.999461,-0.004668,-0.012457,-0.030003,-0.527747,-0.630586,0.367346,-0.434628
21066,NaN,13.698429,1.547949,-2.011284,3.519485,1.559456,3.573799,-0.584846,-2.493634,-6.144182,-0.862305,-0.391602,-0.102051,0.137609,0.011202,-0.018436,0.999446,-0.002924,-0.012466,-0.030715,-0.538072,-0.645395,0.355620,-0.409241
21067,NaN,16.107570,2.666865,-2.097453,4.678858,1.152437,5.924020,-0.254239,-2.503931,-6.216809,-0.841309,-0.436523,-0.086182,0.162046,0.021616,-0.018979,0.999438,-0.001271,-0.012517,-0.031078,-0.548877,-0.663406,0.340210,-0.378000
21068,NaN,18.210872,3.303859,-1.788081,6.276663,0.407677,7.681753,-0.042410,-2.588255,-6.212231,-0.813721,-0.492432,-0.057373,0.183228,0.027355,-0.015520,0.999434,-0.000212,-0.012939,-0.031055,-0.556048,-0.678370,0.326593,-0.352082
21069,NaN,19.271337,3.051284,-1.830986,8.405323,0.071826,7.886182,-0.006344,-2.682418,-6.117299,-0.790771,-0.535400,-0.028809,0.193749,0.024596,-0.015716,0.999442,-0.000032,-0.013410,-0.030581,-0.563286,-0.694961,0.311034,-0.320931
21070,NaN,19.916323,2.071941,-1.751525,10.691606,-0.218779,7.202489,-0.138832,-2.782840,-5.972862,-0.763428,-0.582764,-0.008545,0.199881,0.014746,-0.014749,0.999457,-0.000694,-0.013912,-0.029859,-0.568721,-0.707944,0.298170,-0.294051
21071,NaN,21.336792,0.442714,-1.603599,14.032231,-0.633964,6.329208,-0.341047,-2.952718,-5.752674,-0.731934,-0.625732,0.009277,0.213583,-0.001739,-0.012884,0.999476,-0.001705,-0.014761,-0.028758,-0.574060,-0.721220,0.284850,-0.262978
21072,NaN,23.050688,-2.576482,-2.200476,18.278391,-0.139966,4.627381,-0.635994,-3.111011,-5.452990,-0.702637,-0.664307,0.027100,0.229993,-0.032103,-0.018329,0.999502,-0.003179,-0.015552,-0.027260,-0.578810,-0.730891,0.274807,-0.235073
21073,NaN,24.221222,-6.222113,-2.000152,22.398464,-0.368464,1.473056,-0.790829,-3.192755,-5.019515,-0.671143,-0.700928,0.047119,0.240824,-0.068346,-0.015887,0.999550,-0.003954,-0.015961,-0.025094,-0.582550,-0.740179,0.265337,-0.205831
21074,NaN,25.120899,-8.321786,-0.691881,24.929819,-1.944442,-1.132889,-0.740367,-3.081489,-4.475236,-0.644287,-0.730957,0.062744,0.249327,-0.088827,-0.002745,0.999624,-0.003701,-0.015406,-0.022373,-0.585591,-0.746852,0.258408,-0.180332
21075,NaN,24.273275,-7.833902,1.859849,24.189021,-4.846458,-3.082644,-0.747465,-2.889312,-3.881528,-0.617676,-0.756836,0.073975,0.240847,-0.082947,0.022391,0.999700,-0.003737,-0.014445,-0.019406,-0.586834,-0.753041,0.252469,-0.157528
21076,NaN,24.404292,-8.618902,4.424513,24.720459,-7.657813,-5.386911,-0.737763,-2.488835,-3.308886,-0.589111,-0.778320,0.089355,0.241996,-0.090033,0.047593,0.999779,-0.003689,-0.012443,-0.016543,-0.588949,-0.756847,0.247833,-0.137480
21077,NaN,28.500657,-13.255899,6.431060,30.502341,-9.867238,-8.578655,-0.413070,-1.614155,-2.721475,-0.573242,-0.797607,0.085449,0.282636,-0.136279,0.066877,0.999873,-0.002065,-0.008070,-0.013607,-0.589134,-0.760448,0.242904,-0.125049
21078,NaN,23.224152,-13.217697,2.606153,26.305917,-5.288404,-10.744356,-1.082185,-0.962731,-1.521505,-0.562256,-0.808350,0.081543,0.231096,-0.133790,0.027897,0.999945,-0.005411,-0.004814,-0.007607,-0.593001,-0.759668,0.240613,-0.115583
21079,NaN,22.148645,-16.374430,-0.156845,27.250497,-2.103681,-13.229406,-1.572260,-1.045594,0.079176,-0.568604,-0.806152,0.081299,0.221551,-0.163656,0.000877,0.999955,-0.007861,-0.005228,0.000396,-0.596440,-0.755385,0.246282,-0.114010
21080,NaN,22.667958,-16.026409,0.873502,27.338844,-3.807225,-12.895306,-1.799523,-1.004343,1.396854,-0.581543,-0.806152,0.074951,0.227739,-0.158582,0.011309,0.999923,-0.008997,-0.005022,0.006984,-0.601160,-0.748812,0.255555,-0.112155
21081,NaN,21.345514,-16.802090,1.158298,25.062309,-9.852932,-13.558075,-1.873847,-0.842323,2.341325,-0.603760,-0.786865,0.065918,0.215346,-0.165383,0.014045,0.999879,-0.009369,-0.004211,0.011706,-0.613363,-0.706310,0.349534,-0.052313
21082,NaN,21.447711,-10.933892,-0.838757,22.392410,-8.599492,-7.611609,-1.402875,-0.457971,2.785016,-0.619141,-0.775879,0.052734,0.215990,-0.106391,-0.007141,0.999876,-0.007014,-0.002290,0.013925,-0.616715,-0.697174,0.361093,-0.056775
21083,NaN,11.310578,17.595233,7.074145,-6.989317,-9.346816,8.931075,-1.130277,0.691053,2.062007,-0.643066,-0.767334,0.037598,0.111522,0.177502,0.069354,0.999925,-0.005651,0.003455,0.010310,-0.623767,-0.643911,0.443047,-0.001475
21084,NaN,2.710627,29.761465,7.333945,-19.371833,-2.100662,14.002708,-1.621157,1.098963,0.762276,-0.643311,-0.758789,0.031006,0.026364,0.298297,0.070777,0.999945,-0.008106,0.005495,0.003811,-0.631383,-0.637124,0.442058,-0.003796
21085,NaN,11.627698,4.873703,4.477098,-0.194261,-9.234350,-0.133444,-1.904599,-0.401447,0.496898,-0.645508,-0.758789,0.011719,0.116065,0.049450,0.044535,0.999950,-0.009523,-0.002007,0.002484,-0.633873,-0.577983,0.510278,0.061295
21086,NaN,21.107150,-0.523082,4.463721,6.896909,-17.220740,1.213564,-0.734361,-0.404410,1.494343,-0.663086,-0.748047,0.013672,0.211011,-0.003489,0.045079,0.999963,-0.003672,-0.002022,0.007472,-0.635400,-0.571699,0.515631,0.059601
21087,NaN,17.769671,1.565562,6.411344,-0.235798,-15.584325,0.975331,0.211312,0.256003,1.951301,-0.678223,-0.745850,0.015625,0.177615,0.017321,0.063904,0.999951,0.001057,0.001280,0.009756,-0.630137,-0.514129,0.572273,0.105373
21088,NaN,14.138787,4.524242,3.106177,-0.185193,-9.713009,1.833638,0.290364,-0.339781,2.169213,-0.694092,-0.722168,0.023682,0.140833,0.046727,0.031368,0.999939,0.001452,-0.001699,0.010846,-0.629524,-0.508627,0.579034,0.098577
21089,NaN,11.752503,5.534334,0.923395,-0.789710,-6.020754,1.707806,0.148678,-0.550301,2.303884,-0.709473,-0.713623,0.021484,0.116851,0.056685,0.009598,0.999930,0.000743,-0.002751,0.011519,-0.621893,-0.451718,0.625112,0.135774
21090,NaN,7.205484,4.435841,-2.586060,1.833693,-1.747060,-1.335275,-0.279697,-0.533440,2.065822,-0.727051,-0.700684,0.023193,0.071661,0.045064,-0.025732,0.999942,-0.001398,-0.002667,0.010329,-0.622226,-0.444005,0.631207,0.131423
21091,NaN,7.038370,1.886950,-6.711422,6.239938,-2.064158,-2.400275,-0.570380,-0.727595,1.975833,-0.736328,-0.683594,0.029541,0.070438,0.019374,-0.066913,0.999941,-0.002852,-0.003638,0.009879,-0.616020,-0.393396,0.663232,0.160879
21092,NaN,9.755476,-1.372855,-11.388971,11.792751,-4.848261,-1.801189,-0.848029,-1.086266,2.052797,-0.754150,-0.668457,0.031250,0.098309,-0.013203,-0.113300,0.999924,-0.004240,-0.005431,0.010264,-0.615692,-0.383073,0.669880,0.159494
21093,NaN,15.858602,-1.064458,-9.917287,9.564203,-10.088290,2.746144,-0.669882,-0.863351,2.165350,-0.771484,-0.659912,0.028809,0.159117,-0.009254,-0.098454,0.999926,-0.003349,-0.004317,0.010826,-0.609934,-0.339482,0.693249,0.179270
21094,NaN,12.758597,-0.696145,-5.558473,5.208646,-8.289963,0.102234,-0.059539,0.133509,1.713193,-0.774170,-0.644775,0.028564,0.127602,-0.005885,-0.055668,0.999963,-0.000298,0.000668,0.008566,-0.612013,-0.333470,0.695669,0.174020
21095,NaN,8.254189,-1.582581,-4.096494,3.801258,-6.128245,-3.862005,0.773402,0.579289,1.288717,-0.783203,-0.634277,0.028564,0.082522,-0.015135,-0.041263,0.999968,0.003867,0.002896,0.006444,-0.610493,-0.309492,0.706908,0.178306
21096,NaN,7.993304,0.880677,-2.823512,2.057769,-4.163949,-2.666632,1.391062,0.684391,1.191168,-0.789795,-0.627686,0.034668,0.079781,0.009480,-0.028444,0.999952,0.006955,0.003422,0.005956,-0.611795,-0.310123,0.707867,0.168687
21097,NaN,9.464806,4.402206,-0.304499,-1.393426,-2.544353,0.219156,1.629017,0.674564,1.208466,-0.796631,-0.619141,0.034668,0.094369,0.044617,-0.003002,0.999943,0.008145,0.003373,0.006042,-0.611615,-0.298046,0.714686,0.162233
21098,NaN,9.135839,6.761613,0.776104,-3.002040,-0.543550,1.163471,1.354676,0.480009,1.218737,-0.805908,-0.604248,0.047119,0.090963,0.068118,0.008003,0.999956,0.006773,0.002400,0.006094,-0.612275,-0.298210,0.716100,0.152943
21099,NaN,8.547776,7.764445,-0.341345,-2.183939,1.035055,1.484418,0.927470,0.298115,1.276237,-0.816895,-0.595459,0.040527,0.084975,0.078203,-0.003179,0.999968,0.004637,0.001491,0.006381,-0.613478,-0.289854,0.720304,0.144192
21100,NaN,8.114250,6.434622,-1.330348,-0.923231,0.532176,0.573734,0.507275,0.203913,1.389102,-0.821533,-0.582764,0.044678,0.080679,0.064941,-0.013222,0.999972,0.002536,0.001020,0.006945,-0.614464,-0.286546,0.722035,0.137805
21101,NaN,8.172228,5.036930,-2.329459,0.345548,-0.218495,0.057136,0.232984,0.209029,1.453735,-0.830566,-0.569824,0.042236,0.081329,0.050989,-0.023321,0.999972,0.001165,0.001045,0.007269,-0.617055,-0.278946,0.724497,0.128592
21102,NaN,8.475426,3.886058,-3.170027,1.397586,-1.044009,-0.120509,0.192586,0.228394,1.496107,-0.835449,-0.559082,0.044189,0.084424,0.039524,-0.031759,0.999971,0.000963,0.001142,0.007480,-0.618561,-0.274258,0.725980,0.122955
21103,NaN,8.728503,3.472565,-3.284746,1.582208,-1.246864,-0.067172,0.231909,0.265170,1.491339,-0.848633,-0.546143,0.043945,0.086979,0.035413,-0.032922,0.999971,0.001160,0.001326,0.007457,-0.621777,-0.270992,0.726521,0.110108
21104,NaN,9.009617,3.128764,-3.362748,1.708287,-1.517115,0.038636,0.316909,0.319563,1.459415,-0.853271,-0.535400,0.043701,0.089811,0.031997,-0.033721,0.999971,0.001585,0.001598,0.007297,-0.623296,-0.266842,0.727657,0.103983
21105,NaN,9.089455,3.506199,-3.403049,1.643647,-0.959076,0.329741,0.370414,0.430666,1.436207,-0.866943,-0.518311,0.034912,0.090566,0.035776,-0.034160,0.999970,0.001852,0.002153,0.007181,-0.626853,-0.267587,0.726438,0.087984
21106,NaN,8.427973,3.763233,-3.314968,1.525985,-0.278178,-0.128998,0.298659,0.429345,1.411889,-0.873779,-0.505371,0.034668,0.083940,0.038275,-0.033273,0.999972,0.001493,0.002147,0.007059,-0.628619,-0.263574,0.727090,0.081896
21107,NaN,8.062264,4.007982,-3.187957,1.338014,0.323390,-0.361198,0.135269,0.333631,1.410700,-0.875977,-0.501221,0.036621,0.080284,0.040669,-0.031986,0.999974,0.000676,0.001668,0.007053,-0.631486,-0.262903,0.726297,0.067823
21108,NaN,8.009419,4.085668,-3.065355,1.190011,0.519331,-0.402447,-0.071704,0.175185,1.435639,-0.883301,-0.479736,0.027832,0.079771,0.041419,-0.030738,0.999974,-0.000359,0.000876,0.007178,-0.632690,-0.257513,0.727586,0.063317
21109,NaN,8.145707,3.867382,-3.063166,1.204224,0.501629,-0.379286,-0.319088,0.042164,1.470219,-0.887695,-0.475342,0.027588,0.081164,0.039222,-0.030711,0.999972,-0.001595,0.000211,0.007351,-0.634909,-0.259072,0.726275,0.047929
21110,NaN,8.167541,3.703778,-3.091770,1.268351,0.480734,-0.424146,-0.567471,-0.007101,1.499613,-0.896729,-0.462402,0.025391,0.081396,0.037561,-0.031021,0.999968,-0.002837,-0.000036,0.007498,-0.635960,-0.251811,0.728079,0.045234
21111,NaN,8.193615,3.182886,-2.907306,1.221124,0.190358,-0.637173,-0.746134,-0.106025,1.525384,-0.907959,-0.447510,0.027100,0.081706,0.032344,-0.029150,0.999964,-0.003731,-0.000530,0.007627,-0.637707,-0.253779,0.726656,0.029952
21112,NaN,8.473199,2.368742,-2.572422,1.135484,-0.612906,-0.737595,-0.830474,-0.161583,1.561768,-0.910645,-0.432373,0.020508,0.084565,0.024241,-0.025756,0.999961,-0.004152,-0.000808,0.007809,-0.638386,-0.245419,0.728998,0.028191
21113,NaN,8.688888,1.287932,-2.216528,1.132002,-1.539351,-0.957394,-0.712154,-0.145644,1.599540,-0.919434,-0.426025,0.022461,0.086799,0.013495,-0.022149,0.999961,-0.003561,-0.000728,0.007998,-0.639344,-0.246718,0.728143,0.013297
21114,NaN,8.983136,1.088927,-2.141840,1.066252,-1.728807,-0.738394,-0.501197,-0.093497,1.607716,-0.922363,-0.408936,0.022217,0.089750,0.011557,-0.021405,0.999964,-0.002506,-0.000467,0.008038,-0.639709,-0.239244,0.730365,0.010094
21115,NaN,9.384900,1.200235,-2.131810,0.987717,-1.555213,-0.290848,-0.261252,-0.011062,1.617980,-0.933594,-0.393799,0.019775,0.093749,0.012733,-0.021329,0.999966,-0.001306,-0.000055,0.008090,-0.640008,-0.244362,0.728425,-0.008620
21116,NaN,9.806529,1.695211,-1.982372,0.589711,-1.170612,0.249684,-0.091987,0.018639,1.625683,-0.929932,-0.376709,0.025879,0.097921,0.017739,-0.019841,0.999967,-0.000460,0.000093,0.008128,-0.640100,-0.238133,0.730330,-0.013513
21117,NaN,10.355060,2.160434,-1.688965,0.064737,-0.817082,0.867813,-0.056981,0.023747,1.625221,-0.943359,-0.359375,0.017090,0.103369,0.022440,-0.016908,0.999967,-0.000285,0.000119,0.008126,-0.639569,-0.243290,0.728503,-0.032321
21118,NaN,10.901042,2.408124,-1.704798,-0.117169,-0.601963,1.463809,-0.059018,-0.016347,1.608270,-0.947754,-0.353027,0.023438,0.108813,0.024952,-0.017046,0.999968,-0.000295,-0.000082,0.008041,-0.639304,-0.237233,0.730496,-0.037232
21119,NaN,11.479501,2.643557,-1.487639,-0.526593,-0.430021,2.041227,-0.050832,-0.005615,1.592694,-0.950684,-0.335938,0.018799,0.114580,0.027345,-0.014880,0.999968,-0.000254,-0.000028,0.007963,-0.638064,-0.241750,0.728978,-0.054974
21120,NaN,11.614369,2.891355,-1.441786,-0.755202,-0.094601,2.218520,0.007972,0.020068,1.588851,-0.953369,-0.318848,0.020752,0.115908,0.029836,-0.014428,0.999968,0.000040,0.000100,0.007944,-0.637673,-0.235965,0.730808,-0.060099
21121,NaN,11.733418,3.492402,-1.274804,-1.283047,0.536609,2.416687,0.062426,0.067638,1.626571,-0.958252,-0.303711,0.014160,0.117041,0.035881,-0.012777,0.999967,0.000312,0.000338,0.008133,-0.635954,-0.240815,0.729002,-0.078267
21122,NaN,11.439066,4.416788,-1.090070,-1.918928,1.527435,2.250872,0.115136,0.097335,1.705320,-0.965088,-0.290771,0.020264,0.114003,0.045147,-0.010930,0.999963,0.000576,0.000487,0.008526,-0.635483,-0.234912,0.730673,-0.084228
21123,NaN,11.553367,5.222528,-0.789426,-2.730827,2.253543,2.387220,0.114516,0.129240,1.856659,-0.967773,-0.271484,0.011475,0.115037,0.053299,-0.007938,0.999957,0.000573,0.000646,0.009283,-0.633334,-0.238261,0.729140,-0.102348
21124,NaN,12.311343,5.423733,-0.110381,-3.574635,2.188042,2.971144,0.074512,0.195245,2.045610,-0.977295,-0.248047,0.008789,0.122549,0.055493,-0.001203,0.999947,0.000373,0.000976,0.010228,-0.632880,-0.230920,0.730881,-0.109330
21125,NaN,13.173277,5.584536,0.283241,-4.246403,2.201830,3.674856,0.027070,0.288297,2.246412,-0.982422,-0.226562,0.001953,0.131098,0.057320,0.002651,0.999936,0.000135,0.001441,0.011232,-0.630989,-0.230293,0.729984,-0.126263
21126,NaN,13.845265,5.655626,0.257199,-4.431404,2.471522,4.258092,0.022808,0.359634,2.413218,-0.987305,-0.207275,0.001709,0.137761,0.058221,0.002330,0.999926,0.000114,0.001798,0.012066,-0.630707,-0.221306,0.731558,-0.134370
21127,NaN,14.693230,5.593162,-0.133515,-4.344298,2.785839,5.038065,0.108894,0.461760,2.539037,-0.988037,-0.187988,-0.000732,0.146203,0.057792,-0.001642,0.999917,0.000544,0.002309,0.012695,-0.628858,-0.218694,0.730600,-0.151444
21128,NaN,15.340210,5.738086,-0.765825,-4.073049,3.532225,5.671214,0.320101,0.666728,2.653642,-0.995361,-0.157959,-0.009766,0.152596,0.059422,-0.008074,0.999905,0.001600,0.003334,0.013268,-0.628877,-0.209474,0.731092,-0.161677
21129,NaN,15.415830,6.731256,-1.755515,-4.010169,5.248027,5.756391,0.622259,0.895635,2.759019,-1.002686,-0.132080,-0.018799,0.153130,0.069485,-0.018029,0.999890,0.003111,0.004478,0.013795,-0.626927,-0.208777,0.728010,-0.182690
21130,NaN,14.959686,8.834438,-3.219033,-3.984534,8.278365,5.279314,0.964923,1.095576,2.882628,-1.001709,-0.102051,-0.027832,0.148124,0.090643,-0.032571,0.999869,0.004824,0.005478,0.014413,-0.627195,-0.200274,0.726608,-0.196364
21131,NaN,14.470422,10.604672,-4.627242,-4.097133,10.952712,4.556794,1.346695,1.259859,3.037582,-1.002441,-0.076416,-0.047363,0.142776,0.108537,-0.046451,0.999842,0.006733,0.006299,0.015187,-0.625140,-0.198771,0.722203,-0.219348
21132,NaN,14.513457,11.508757,-5.329050,-4.268278,12.548925,4.178506,1.914898,1.461032,3.207361,-1.005859,-0.041992,-0.056641,0.142870,0.117901,-0.053220,0.999799,0.009574,0.007305,0.016036,-0.624871,-0.191525,0.718577,-0.237700
21133,NaN,15.359823,12.444765,-5.230925,-5.553055,13.662004,4.351188,2.738159,1.704313,3.308763,-0.998047,-0.014160,-0.078369,0.151060,0.127673,-0.051870,0.999733,0.013690,0.008521,0.016542,-0.622121,-0.191474,0.711340,-0.265138
21134,NaN,15.510435,14.404579,-5.055380,-7.331493,15.505966,3.580094,3.597791,1.948020,3.255269,-1.000977,0.009521,-0.095947,0.152238,0.147435,-0.049414,0.999658,0.017987,0.009739,0.016274,-0.621079,-0.188431,0.703384,-0.289838
21135,NaN,13.773134,15.952228,-4.556718,-9.194454,16.318946,0.865224,4.103103,2.082814,3.136595,-0.999512,0.033203,-0.126221,0.134736,0.162560,-0.043666,0.999612,0.020513,0.010413,0.015681,-0.617393,-0.192184,0.692121,-0.320718
21136,NaN,12.660776,14.238174,-3.041102,-9.529204,14.008148,-0.583269,4.056199,1.918519,3.132275,-0.993896,0.058838,-0.139404,0.124070,0.144932,-0.028687,0.999626,0.020278,0.009591,0.015659,-0.614881,-0.190708,0.682445,-0.346150
21137,NaN,14.178150,7.397127,-1.946831,-6.397516,8.869086,2.015620,3.746109,1.873185,3.230638,-0.988281,0.082520,-0.167480,0.140376,0.076610,-0.019369,0.999650,0.018728,0.009365,0.016151,-0.609605,-0.192604,0.671680,-0.374342
21138,NaN,15.926799,2.441840,-2.623223,-3.023134,6.924641,4.657251,3.476297,1.905956,3.334407,-0.982178,0.095459,-0.191406,0.158570,0.027534,-0.027285,0.999665,0.017380,0.009529,0.016670,-0.606213,-0.188362,0.662350,-0.397893
21139,NaN,16.507348,3.494277,-4.196971,-3.274259,9.364034,4.465497,3.442812,2.049170,3.185900,-0.974365,0.121338,-0.215332,0.164044,0.038296,-0.043014,0.999672,0.017212,0.010245,0.015928,-0.600947,-0.188406,0.650898,-0.423907
21140,NaN,15.256884,4.559076,-4.406917,-4.000078,10.256206,2.506119,3.440597,2.117099,2.856976,-0.959961,0.142578,-0.239014,0.151417,0.048527,-0.044858,0.999694,0.017201,0.010584,0.014283,-0.598357,-0.184893,0.639737,-0.445556
21141,NaN,14.685997,3.341524,-4.333399,-3.343600,9.710512,2.024546,3.276730,2.079768,2.612568,-0.951660,0.151367,-0.260498,0.145943,0.036046,-0.044279,0.999726,0.016382,0.010398,0.013062,-0.593902,-0.185424,0.627567,-0.468036
21142,NaN,15.339843,2.284683,-4.716444,-2.713489,10.086845,2.582350,3.169939,1.814563,2.643609,-0.943359,0.164307,-0.280029,0.152638,0.025626,-0.048160,0.999746,0.015848,0.009072,0.013217,-0.590319,-0.182241,0.617052,-0.487400
21143,NaN,13.225722,1.258437,-4.424957,-1.935494,8.934761,0.793266,2.988597,1.485903,2.554287,-0.932861,0.168457,-0.303711,0.131744,0.014938,-0.045018,0.999779,0.014942,0.007429,0.012770,-0.582754,-0.184284,0.606542,-0.508472
21144,NaN,8.084366,-1.318568,-5.276050,1.690403,6.936664,-3.183358,2.716762,1.311066,1.983692,-0.926514,0.177002,-0.318604,0.080615,-0.011662,-0.053455,0.999837,0.013583,0.006555,0.009918,-0.579088,-0.182813,0.597544,-0.523620
21145,NaN,7.592797,2.055769,-5.307807,-1.197236,8.200002,-5.189839,2.634419,1.147387,1.286085,-0.917969,0.181396,-0.337891,0.075486,0.021745,-0.053231,0.999876,0.013172,0.005737,0.006430,-0.573776,-0.187827,0.587660,-0.538662
21146,NaN,5.001167,8.897543,-5.244735,-6.430761,9.482546,-10.450659,2.413422,1.102927,0.466587,-0.915527,0.170654,-0.344238,0.049517,0.089718,-0.051642,0.999909,0.012067,0.005514,0.002333,-0.573441,-0.190385,0.578380,-0.548084
21147,NaN,1.694100,14.808652,-2.386487,-12.108707,7.347513,-15.032433,2.301995,0.968328,-0.270028,-0.910400,0.149414,-0.354736,0.017031,0.148326,-0.022241,0.999921,0.011510,0.004842,-0.001350,-0.572480,-0.198639,0.568500,-0.556433
21148,NaN,-1.599925,13.595600,0.515339,-11.600500,2.924335,-16.486211,1.709992,0.829946,-0.915876,-0.912109,0.136475,-0.365234,-0.015352,0.135976,0.006381,0.999944,0.008550,0.004150,-0.004579,-0.575656,-0.203810,0.560425,-0.559469
21149,NaN,-2.845164,8.105523,1.814829,-7.149350,-0.451328,-14.889082,0.759355,-0.006923,-1.358577,-0.919922,0.112793,-0.360596,-0.027901,0.081176,0.018455,0.999970,0.003797,-0.000035,-0.006793,-0.575912,-0.214114,0.555978,-0.559794
21150,NaN,-2.038420,5.053740,2.203550,-4.866818,-1.288148,-12.846692,-0.238196,-0.808018,-1.788972,-0.916992,0.091553,-0.349609,-0.020020,0.050744,0.021894,0.999951,-0.001191,-0.004040,-0.008945,-0.578899,-0.220645,0.557029,-0.553092
21151,NaN,-0.615851,3.642073,1.367857,-3.641484,-0.389136,-11.262744,-0.841158,-1.348980,-2.228503,-0.924805,0.067871,-0.332031,-0.005843,0.036544,0.013485,0.999906,-0.004206,-0.006745,-0.011142,-0.578816,-0.233256,0.559207,-0.545758
21152,NaN,0.651417,2.801711,0.796832,-2.956862,0.386364,-9.939975,-1.073096,-1.640917,-2.673475,-0.924072,0.041992,-0.316650,0.006823,0.027970,0.007873,0.999863,-0.005365,-0.008204,-0.013367,-0.582694,-0.242065,0.563689,-0.533036
21153,NaN,1.806980,1.810395,0.656369,-2.238879,0.579568,-8.538063,-1.023806,-1.836268,-3.089446,-0.929443,0.009766,-0.292725,0.018286,0.017856,0.006639,0.999825,-0.005119,-0.009181,-0.015446,-0.583789,-0.257700,0.566146,-0.521785
21154,NaN,3.215714,0.802269,0.769764,-1.586066,0.553878,-6.854068,-0.954708,-1.922274,-3.480432,-0.941162,-0.026611,-0.277100,0.032215,0.007500,0.007970,0.999791,-0.004773,-0.009611,-0.017401,-0.588535,-0.269720,0.569645,-0.506342
21155,NaN,3.851944,0.415307,1.165442,-1.405962,0.127497,-6.021479,-0.993215,-1.909623,-3.852863,-0.940186,-0.058838,-0.257324,0.038477,0.003471,0.012004,0.999757,-0.004966,-0.009547,-0.019263,-0.590900,-0.287842,0.570248,-0.492750
21156,NaN,3.633407,0.953517,0.393470,-1.461657,0.850492,-6.435763,-0.953791,-1.926546,-4.224094,-0.940674,-0.103760,-0.235352,0.036485,0.008785,0.004243,0.999719,-0.004769,-0.009632,-0.021118,-0.597021,-0.301726,0.572049,-0.474644
21157,NaN,3.202869,1.946922,-0.265822,-1.967659,1.593518,-7.036758,-0.791624,-1.972419,-4.576925,-0.941406,-0.148926,-0.219727,0.032487,0.018719,-0.002414,0.999682,-0.003958,-0.009861,-0.022882,-0.600529,-0.322013,0.570361,-0.458651
21158,NaN,3.207822,3.086758,-0.161673,-2.940023,1.846572,-7.022268,-0.749472,-2.120609,-4.951347,-0.928955,-0.198242,-0.197266,0.032845,0.030055,-0.001385,0.999630,-0.003747,-0.010602,-0.024754,-0.606821,-0.338620,0.570264,-0.438068
21159,NaN,4.267060,3.882527,-0.394299,-3.484674,2.368756,-5.853557,-0.877701,-2.328199,-5.306282,-0.920898,-0.243408,-0.175293,0.043723,0.037658,-0.003605,0.999571,-0.004388,-0.011639,-0.026528,-0.610686,-0.360779,0.567427,-0.418243
21160,NaN,6.102374,3.761325,-1.063211,-2.865597,2.948167,-3.846313,-1.056268,-2.471373,-5.580019,-0.908203,-0.305664,-0.155029,0.062167,0.035835,-0.010061,0.999521,-0.005280,-0.012355,-0.027896,-0.616957,-0.378373,0.566843,-0.393557
21161,NaN,7.805266,2.890185,-1.353467,-1.557285,2.642621,-1.959362,-1.080198,-2.525733,-5.803866,-0.889160,-0.357178,-0.139160,0.079010,0.026548,-0.012688,0.999485,-0.005400,-0.012626,-0.029014,-0.620860,-0.400968,0.562533,-0.370560
21162,NaN,9.680834,2.315943,-1.639984,-0.320716,2.298701,0.003020,-0.957290,-2.530727,-6.018015,-0.865967,-0.408691,-0.116699,0.097643,0.020154,-0.015269,0.999456,-0.004786,-0.012651,-0.030085,-0.626474,-0.419386,0.559791,-0.343917
21163,NaN,11.261374,2.316862,-1.812997,0.488846,1.879673,1.661205,-0.716682,-2.483185,-6.209548,-0.838379,-0.460205,-0.092285,0.113473,0.019592,-0.016799,0.999435,-0.003583,-0.012414,-0.031042,-0.629931,-0.442425,0.552754,-0.319233
21164,NaN,13.146915,2.861094,-1.586169,0.870818,1.134139,3.656791,-0.442830,-2.491107,-6.367417,-0.806152,-0.520264,-0.076172,0.132475,0.024371,-0.014273,0.999413,-0.002214,-0.012453,-0.031831,-0.633821,-0.462337,0.546898,-0.292263
21165,NaN,15.563868,4.013957,-1.572709,1.165898,0.514320,6.283599,-0.271325,-2.580097,-6.453529,-0.768066,-0.567627,-0.064697,0.157011,0.035068,-0.013757,0.999395,-0.001356,-0.012898,-0.032261,-0.634894,-0.486942,0.536696,-0.267872
21166,NaN,17.940191,4.591710,-1.617133,2.191860,-0.523569,8.635379,-0.259927,-2.735588,-6.415347,-0.729980,-0.610596,-0.040283,0.180950,0.040110,-0.013758,0.999391,-0.001299,-0.013675,-0.032070,-0.636394,-0.506693,0.529782,-0.239993
21167,NaN,19.452890,3.937090,-1.341029,4.036795,-2.379598,9.515993,-0.386755,-2.864644,-6.308656,-0.689941,-0.649170,-0.022217,0.195807,0.033185,-0.010680,0.999398,-0.001933,-0.014320,-0.031537,-0.637156,-0.525812,0.522894,-0.210085
21168,NaN,21.450427,2.464584,-1.205969,6.777885,-4.637489,10.187845,-0.581603,-3.006642,-6.137945,-0.645752,-0.687988,-0.004395,0.215275,0.018017,-0.008886,0.999412,-0.002907,-0.015030,-0.030684,-0.636900,-0.542850,0.516639,-0.180989
21169,NaN,22.952442,0.279698,-1.150668,9.913160,-7.070662,9.674562,-0.849971,-3.119035,-5.925261,-0.605957,-0.720215,0.004883,0.229614,-0.004044,-0.007918,0.999431,-0.004249,-0.015592,-0.029621,-0.636210,-0.558384,0.510778,-0.150167
21170,NaN,24.001168,-2.636453,-1.432826,13.389874,-9.292400,8.053742,-1.163811,-3.241994,-5.664297,-0.557617,-0.750244,0.014160,0.239324,-0.033217,-0.010265,0.999451,-0.005818,-0.016207,-0.028316,-0.635086,-0.571271,0.505869,-0.120050
21171,NaN,25.081052,-5.880105,-1.704616,16.877587,-11.668476,5.849684,-1.411352,-3.331929,-5.232417,-0.522461,-0.771729,0.025391,0.249389,-0.065437,-0.012437,0.999494,-0.007056,-0.016657,-0.026158,-0.633464,-0.582062,0.501911,-0.089512
21172,NaN,25.415784,-7.483318,-1.279050,18.186509,-13.700623,3.786513,-1.598528,-3.269609,-4.652379,-0.493652,-0.793213,0.021729,0.252482,-0.080797,-0.008023,0.999564,-0.007991,-0.016346,-0.023259,-0.631720,-0.589882,0.499222,-0.061215
21173,NaN,24.527995,-7.286000,0.351134,16.780583,-15.414025,1.827708,-1.717440,-3.075417,-4.032321,-0.465088,-0.810547,0.026367,0.243646,-0.077728,0.007920,0.999642,-0.008586,-0.015375,-0.020159,-0.630005,-0.595498,0.497250,-0.034906
21174,NaN,25.805390,-11.168287,2.488945,18.530087,-19.642942,-1.596574,-1.483669,-2.598212,-3.313968,-0.438965,-0.819092,0.024414,0.255799,-0.115729,0.029071,0.999751,-0.007418,-0.012990,-0.016568,-0.628387,-0.599368,0.495700,-0.013036
21175,NaN,29.695031,-16.520165,4.148166,22.587689,-25.148638,-4.411518,-0.875629,-1.439688,-2.504896,-0.419434,-0.825684,0.016113,0.294540,-0.168711,0.044341,0.999886,-0.004378,-0.007198,-0.012524,-0.627465,-0.602936,0.492702,0.001001
21176,NaN,22.899927,-16.574655,0.689080,21.065605,-18.821931,-8.566246,-1.383529,-0.903990,-0.992070,-0.423584,-0.827637,0.016113,0.228136,-0.166822,0.009075,0.999954,-0.006918,-0.004520,-0.004960,-0.629378,-0.601005,0.492516,0.010246
21177,NaN,23.464367,-17.920319,-1.061387,22.957569,-18.576920,-8.999727,-1.730820,-1.036736,0.606889,-0.430176,-0.823486,0.000977,0.235232,-0.178566,-0.007848,0.999945,-0.008654,-0.005184,0.003034,-0.632000,-0.593897,0.497636,0.014856
21178,NaN,22.421678,-17.137469,-0.364610,21.117698,-18.703205,-8.953856,-2.192512,-1.008606,1.860690,-0.449707,-0.816895,-0.007812,0.225807,-0.169297,-0.000646,0.999884,-0.010962,-0.005043,0.009303,-0.636069,-0.582194,0.506126,0.017424
21179,NaN,24.781488,-13.890620,-1.467903,20.370847,-19.048647,-4.215118,-2.186469,-0.774047,2.821273,-0.482666,-0.799561,-0.023193,0.249793,-0.135534,-0.012221,0.999833,-0.010932,-0.003870,0.014106,-0.640414,-0.563583,0.521382,0.020140
21180,NaN,15.088182,2.568498,3.314660,3.012078,-10.523613,1.385546,-1.740301,-0.012707,2.642761,-0.495605,-0.793213,-0.031982,0.150520,0.027963,0.032919,0.999875,-0.008701,-0.000064,0.013213,-0.645473,-0.551048,0.528627,0.016247
21181,NaN,6.357710,29.880871,5.600843,-17.893632,4.369468,15.194097,-1.705717,1.005275,1.478894,-0.498047,-0.782471,-0.057861,0.061635,0.299731,0.053142,0.999924,-0.008528,0.005026,0.007394,-0.652866,-0.541402,0.529631,0.011856
21182,NaN,10.604388,12.584589,3.761953,-4.991412,-3.513557,5.926135,-1.975721,-0.017046,0.668340,-0.513428,-0.773682,-0.064453,0.105619,0.126563,0.036381,0.999946,-0.009878,-0.000085,0.003342,-0.658176,-0.533151,0.531348,0.014950
21183,NaN,22.321195,-2.570331,4.738290,7.559661,-17.393316,3.133510,-1.206165,-0.524212,1.439561,-0.530762,-0.769531,-0.075439,0.223262,-0.023808,0.048115,0.999952,-0.006031,-0.002621,0.007198,-0.660126,-0.524915,0.537126,0.013944
21184,NaN,19.323906,-2.255468,5.836843,5.085023,-16.136045,1.426793,0.060195,0.158134,2.102361,-0.548340,-0.758789,-0.073486,0.193508,-0.020539,0.058209,0.999944,0.000301,0.000791,0.010512,-0.660505,-0.519447,0.542094,0.006425
21185,NaN,14.866445,3.650745,4.999161,0.354682,-10.103159,2.722132,0.368646,-0.130473,2.288683,-0.559570,-0.745850,-0.067383,0.148202,0.038113,0.050158,0.999933,0.001843,-0.000652,0.011443,-0.659328,-0.513878,0.548825,-0.002628
21186,NaN,11.692525,4.555214,2.178250,0.360629,-5.812273,1.513784,0.205837,-0.574835,2.443902,-0.579590,-0.728760,-0.059082,0.116294,0.046953,0.022165,0.999921,0.001029,-0.002874,0.012219,-0.657140,-0.507815,0.556952,-0.009775
21187,NaN,8.065565,3.369244,-1.926210,2.410442,-1.464242,-1.318102,-0.209895,-0.734484,2.268029,-0.603760,-0.715820,-0.065918,0.080337,0.034585,-0.019003,0.999928,-0.001049,-0.003672,0.011340,-0.655593,-0.500222,0.565452,-0.015474
21188,NaN,7.648412,2.924898,-5.900998,5.263267,1.282203,-1.296394,-0.473471,-0.844389,2.129444,-0.616943,-0.705078,-0.057373,0.076416,0.029924,-0.058758,0.999932,-0.002367,-0.004222,0.010647,-0.654184,-0.492677,0.573543,-0.019006
21189,NaN,8.646673,1.417678,-7.886607,7.826789,1.325432,-1.097389,-0.740412,-0.818087,2.021070,-0.630371,-0.687744,-0.060059,0.086641,0.014761,-0.078566,0.999934,-0.003702,-0.004090,0.010105,-0.653482,-0.484048,0.581522,-0.022132
21190,NaN,11.759909,-0.286769,-10.152883,11.392160,0.227709,0.752429,-0.801860,-0.956412,1.984837,-0.645996,-0.677002,-0.062256,0.118106,-0.002103,-0.100955,0.999931,-0.004009,-0.004782,0.009924,-0.652381,-0.475727,0.589499,-0.023973
21191,NaN,13.805664,-0.770106,-7.349006,10.041243,-2.917999,1.842842,-0.456302,-0.444260,1.855924,-0.661377,-0.666260,-0.058350,0.138284,-0.006586,-0.073167,0.999952,-0.002281,-0.002221,0.009279,-0.651857,-0.468518,0.595626,-0.028329
21192,NaN,11.140182,-2.056636,-4.771550,7.979199,-3.829353,-1.282341,0.226045,0.169375,1.501499,-0.666016,-0.657715,-0.056396,0.111511,-0.019675,-0.047832,0.999971,0.001130,0.000847,0.007507,-0.651604,-0.464742,0.598541,-0.034296
21193,NaN,8.966665,-1.165421,-3.355052,5.703226,-3.006574,-2.640005,0.935419,0.529945,1.252285,-0.672852,-0.646973,-0.056396,0.089647,-0.010935,-0.033840,0.999966,0.004677,0.002650,0.006261,-0.650688,-0.463727,0.599751,-0.043129
21194,NaN,8.692358,2.790081,-2.064028,2.187618,-1.363092,-0.815096,1.486427,0.665605,1.096366,-0.681641,-0.642822,-0.050293,0.086699,0.028530,-0.020719,0.999952,0.007432,0.003328,0.005482,-0.648973,-0.465106,0.599777,-0.052698
21195,NaN,8.965228,4.211749,0.667694,-0.702695,-2.430026,-0.212664,1.530489,0.613706,1.031552,-0.686279,-0.634277,-0.041748,0.089454,0.042528,0.006727,0.999953,0.007652,0.003068,0.005158,-0.646857,-0.466614,0.599928,-0.062722
21196,NaN,8.959921,5.357931,1.367311,-2.020015,-2.210999,0.281237,1.113202,0.314075,1.062368,-0.699219,-0.627686,-0.039795,0.089335,0.053978,0.013832,0.999969,0.005566,0.001570,0.005312,-0.644852,-0.466911,0.601022,-0.070233
21197,NaN,8.180591,7.245971,0.052421,-2.636236,0.166899,0.791550,0.603279,-0.001097,1.147102,-0.699707,-0.616943,-0.037842,0.081389,0.072925,0.000744,0.999979,0.003016,-0.000005,0.005735,-0.642961,-0.465203,0.603630,-0.076282
21198,NaN,7.824414,6.908420,-1.455560,-1.551699,1.255187,0.535339,0.172702,-0.142539,1.248525,-0.712891,-0.610596,-0.038086,0.077821,0.069583,-0.014440,0.999980,0.000864,-0.000713,0.006243,-0.641643,-0.462030,0.606913,-0.080489
21199,NaN,7.825425,5.035098,-2.507161,0.332086,1.018469,-0.235286,-0.098900,-0.131351,1.311991,-0.719482,-0.604004,-0.035889,0.077938,0.050851,-0.025045,0.999978,-0.000494,-0.000657,0.006560,-0.640882,-0.457596,0.610517,-0.084529
21200,NaN,8.311622,3.910145,-3.207710,1.607779,0.727189,-0.244680,-0.131378,-0.082341,1.352000,-0.724121,-0.593506,-0.033936,0.082863,0.039641,-0.032069,0.999977,-0.000657,-0.000412,0.006760,-0.640348,-0.453067,0.613915,-0.088275
21201,NaN,8.732032,3.626555,-3.381550,1.923868,0.591564,0.025125,-0.043809,0.002467,1.382914,-0.735596,-0.578369,-0.034180,0.087066,0.036861,-0.033825,0.999976,-0.000219,0.000012,0.006915,-0.639773,-0.448529,0.617148,-0.092956
21202,NaN,8.813128,3.882433,-3.231170,1.571091,0.697113,0.198761,0.062604,0.059925,1.398845,-0.746582,-0.567627,-0.034424,0.087847,0.039450,-0.032326,0.999975,0.000313,0.000300,0.006994,-0.639155,-0.444368,0.620049,-0.097762
21203,NaN,8.781822,4.167312,-3.043567,1.137669,0.855956,0.273020,0.151129,0.121321,1.424758,-0.750977,-0.563232,-0.034668,0.087500,0.042320,-0.030457,0.999974,0.000756,0.000607,0.007124,-0.638416,-0.440254,0.622825,-0.103399
21204,NaN,8.468501,4.512179,-2.650734,0.466305,1.027182,0.078083,0.126806,0.167228,1.465250,-0.760254,-0.548340,-0.030518,0.084329,0.045757,-0.026549,0.999973,0.000634,0.000836,0.007326,-0.637885,-0.435992,0.625433,-0.108842
21205,NaN,8.246735,4.851272,-2.791824,0.191220,1.534276,0.033395,0.023899,0.154850,1.526732,-0.767090,-0.537598,-0.035156,0.082072,0.049144,-0.027976,0.999971,0.000119,0.000774,0.007634,-0.637398,-0.431111,0.628310,-0.114429
21206,NaN,8.202782,4.683507,-2.380260,-0.081953,1.283090,-0.157036,-0.193761,0.105960,1.609827,-0.778076,-0.526855,-0.039551,0.081635,0.047470,-0.023892,0.999967,-0.000969,0.000530,0.008049,-0.637209,-0.425355,0.631532,-0.119181
21207,NaN,8.484181,4.447425,-2.053261,-0.194982,0.929399,-0.062149,-0.436632,-0.007408,1.684206,-0.787354,-0.507568,-0.041992,0.084464,0.045142,-0.020628,0.999962,-0.002183,-0.000037,0.008421,-0.637016,-0.418569,0.635436,-0.123417
21208,NaN,8.753603,3.978709,-2.287564,0.245814,0.824163,0.033478,-0.654774,-0.070620,1.740535,-0.792236,-0.494629,-0.046631,0.087194,0.040472,-0.022977,0.999957,-0.003274,-0.000353,0.008703,-0.637063,-0.410973,0.639680,-0.126733
21209,NaN,9.095129,2.946746,-2.228598,0.867621,0.134208,-0.035233,-0.779852,-0.087635,1.770255,-0.803223,-0.486084,-0.044678,0.090696,0.030184,-0.022363,0.999953,-0.003899,-0.000438,0.008851,-0.637164,-0.402810,0.644116,-0.129926
21210,NaN,9.184979,2.287644,-1.745631,0.886717,-0.529684,-0.243180,-0.712708,-0.067331,1.792278,-0.810303,-0.468994,-0.047119,0.091646,0.023636,-0.017509,0.999953,-0.003563,-0.000337,0.008961,-0.637192,-0.394787,0.648373,-0.133205
21211,NaN,9.258962,1.890394,-1.871409,1.150909,-0.608293,-0.267666,-0.600162,-0.056217,1.796268,-0.819336,-0.458252,-0.047119,0.092420,0.019678,-0.018746,0.999955,-0.003001,-0.000281,0.008981,-0.636900,-0.387025,0.652519,-0.137078
21212,NaN,9.631397,1.541986,-1.630625,1.144875,-1.004861,-0.041422,-0.453155,-0.051459,1.800679,-0.828369,-0.440918,-0.051758,0.096174,0.016249,-0.016318,0.999957,-0.002266,-0.000257,0.009003,-0.636350,-0.379719,0.656449,-0.141234
21213,NaN,9.866858,1.636790,-1.975129,1.236311,-0.659792,0.285274,-0.289610,-0.023664,1.784573,-0.839844,-0.423828,-0.052002,0.098520,0.017219,-0.019764,0.999959,-0.001448,-0.000118,0.008923,-0.635467,-0.372896,0.660138,-0.146109
21214,NaN,10.371199,1.677328,-2.236354,1.323109,-0.483581,0.835752,-0.155013,-0.010445,1.762711,-0.846924,-0.406738,-0.050293,0.103560,0.017669,-0.022372,0.999961,-0.000775,-0.000052,0.008813,-0.634412,-0.366572,0.663544,-0.151178
21215,NaN,10.564409,2.206912,-3.044860,1.441460,0.497072,1.296797,-0.054808,-0.020685,1.726698,-0.849609,-0.391602,-0.054688,0.105452,0.022972,-0.030444,0.999963,-0.000274,-0.000103,0.008633,-0.633046,-0.360630,0.666836,-0.156616
21216,NaN,11.352166,2.443374,-3.115703,1.249457,0.624920,2.128601,0.053154,-0.014300,1.708766,-0.854248,-0.378662,-0.052979,0.113310,0.025411,-0.031142,0.999963,0.000266,-0.000071,0.008544,-0.631544,-0.355092,0.669896,-0.162176
21217,NaN,12.391542,2.918504,-2.048299,0.051492,0.120863,3.080805,0.160650,0.055646,1.713331,-0.863281,-0.365967,-0.057373,0.123654,0.030262,-0.020493,0.999963,0.000803,0.000278,0.008567,-0.629958,-0.349772,0.672649,-0.168392
21218,NaN,11.988621,3.714293,-1.264181,-1.225739,0.425163,2.734575,0.343619,0.143506,1.743691,-0.870117,-0.353027,-0.051270,0.119547,0.038208,-0.012663,0.999960,0.001718,0.000718,0.008718,-0.628350,-0.344848,0.674930,-0.175290
21219,NaN,11.483083,4.726742,0.027212,-3.022263,0.565591,2.218341,0.480245,0.215773,1.857165,-0.875244,-0.333740,-0.051514,0.114386,0.048330,0.000264,0.999953,0.002401,0.001079,0.009286,-0.626526,-0.339854,0.677037,-0.183263
21220,NaN,11.638315,5.445513,1.327742,-4.608282,0.340427,2.250035,0.412168,0.267228,2.044969,-0.877930,-0.314453,-0.049561,0.115836,0.055614,0.013236,0.999945,0.002061,0.001336,0.010225,-0.624824,-0.333952,0.679260,-0.191514
21221,NaN,12.411134,5.366007,1.566163,-4.888689,0.172724,2.889539,0.225380,0.294148,2.243339,-0.893799,-0.292969,-0.056396,0.123522,0.055030,0.015541,0.999935,0.001127,0.001471,0.011216,-0.623215,-0.326691,0.681854,-0.199880
21222,NaN,13.239517,5.308176,0.843539,-4.518019,0.716501,3.723831,0.100973,0.354916,2.413642,-0.896729,-0.273682,-0.056885,0.131757,0.054670,0.008229,0.999925,0.000505,0.001775,0.012068,-0.621803,-0.318391,0.684538,-0.208316
21223,NaN,14.028518,5.270503,-0.402826,-3.813762,1.696959,4.585331,0.115480,0.431314,2.539626,-0.904053,-0.245850,-0.057373,0.139592,0.054483,-0.004299,0.999917,0.000577,0.002157,0.012698,-0.620382,-0.309528,0.687079,-0.217351
21224,NaN,14.605569,4.992669,-1.546638,-3.032076,2.518509,5.190331,0.264335,0.544934,2.630632,-0.911133,-0.224365,-0.063965,0.145339,0.051862,-0.015795,0.999909,0.001322,0.002725,0.013153,-0.618932,-0.300683,0.689110,-0.227248
21225,NaN,14.959441,5.297844,-2.242964,-2.985425,3.528143,5.533487,0.583191,0.748429,2.711798,-0.914062,-0.200684,-0.070801,0.148772,0.055066,-0.022829,0.999897,0.002916,0.003742,0.013559,-0.617484,-0.292214,0.690145,-0.238797
21226,NaN,15.044960,6.820923,-2.726491,-3.942530,5.331127,5.560126,1.022375,1.026608,2.821228,-0.921631,-0.172852,-0.082031,0.149325,0.070462,-0.027677,0.999874,0.005112,0.005133,0.014106,-0.616089,-0.284365,0.689789,-0.252511
21227,NaN,14.870163,8.360538,-2.660040,-5.314466,6.798951,5.140587,1.547693,1.319079,2.967206,-0.924561,-0.149170,-0.093018,0.147261,0.086005,-0.026915,0.999838,0.007738,0.006595,0.014835,-0.614595,-0.277160,0.687880,-0.268842
21228,NaN,15.294724,9.551945,-2.520182,-6.595233,7.924497,5.193682,2.192162,1.634688,3.138117,-0.934082,-0.116943,-0.108643,0.151214,0.098179,-0.025376,0.999783,0.010960,0.008173,0.015689,-0.612830,-0.270839,0.684110,-0.288236
21229,NaN,15.821283,11.056404,-2.343475,-8.221157,9.215003,5.204070,3.015118,1.929320,3.251329,-0.926270,-0.095459,-0.124023,0.156159,0.113465,-0.023252,0.999708,0.015074,0.009646,0.016255,-0.610497,-0.266102,0.678050,-0.311017
21230,NaN,15.742437,13.380469,-3.152108,-9.865357,11.681043,4.433992,3.806547,2.116881,3.262895,-0.929199,-0.073975,-0.137207,0.154880,0.136934,-0.030583,0.999630,0.019030,0.010583,0.016312,-0.607311,-0.263262,0.669759,-0.336586
21231,NaN,14.539945,15.390701,-3.714190,-11.461917,13.494031,2.375189,4.142721,2.093891,3.263256,-0.927490,-0.056885,-0.160889,0.142478,0.156993,-0.035413,0.999598,0.020711,0.010468,0.016314,-0.603170,-0.261337,0.660444,-0.362908
21232,NaN,14.745984,11.542761,-2.737114,-9.636883,10.558430,2.587750,3.831140,1.906275,3.447898,-0.926514,-0.024658,-0.182861,0.145179,0.118457,-0.026512,0.999623,0.019153,0.009530,0.017237,-0.597976,-0.257940,0.652000,-0.388314
21233,NaN,17.594924,2.811624,-5.773535,-1.861001,8.852310,6.586123,3.346644,1.599079,3.967500,-0.921143,0.007568,-0.191895,0.174866,0.032569,-0.058616,0.999631,0.016731,0.007994,0.019835,-0.591010,-0.251922,0.645587,-0.412868
21234,NaN,18.119493,11.594595,-6.171358,-9.513483,14.401799,4.428838,3.165875,1.556972,3.995969,-0.917725,0.033203,-0.205078,0.178340,0.120500,-0.061226,0.999645,0.015828,0.007784,0.019977,-0.583590,-0.245068,0.639255,-0.436712
21235,NaN,16.592950,15.123202,-4.694872,-13.486954,14.818222,1.346818,2.620401,1.779901,3.308240,-0.916504,0.063232,-0.227051,0.162977,0.154555,-0.046397,0.999738,0.013101,0.008899,0.016540,-0.578745,-0.238357,0.632231,-0.456644
21236,NaN,13.627661,8.280598,-5.532162,-7.126193,11.812630,-0.089771,2.051144,1.853598,2.799685,-0.912598,0.076172,-0.239990,0.134579,0.085268,-0.055708,0.999806,0.010255,0.009267,0.013998,-0.575656,-0.231157,0.625398,-0.473354
21237,NaN,12.208140,1.988838,-5.064937,-2.035416,8.504155,0.294982,1.943316,1.907658,2.576602,-0.898193,0.095459,-0.261719,0.121318,0.021953,-0.051602,0.999824,0.009716,0.009538,0.012882,-0.573248,-0.224369,0.618191,-0.488758
21238,NaN,13.611279,-0.374513,-4.476937,-0.917253,7.738845,2.216291,2.430127,1.690072,2.578641,-0.896240,0.106201,-0.276855,0.135756,-0.001440,-0.045944,0.999807,0.012150,0.008450,0.012892,-0.569334,-0.219183,0.610182,-0.505466
21239,NaN,15.596441,-1.746051,-3.595136,-0.970345,7.436015,4.433663,2.962065,1.302274,2.676324,-0.885742,0.114746,-0.298340,0.155935,-0.014829,-0.037199,0.999780,0.014809,0.006511,0.013381,-0.563221,-0.216379,0.601826,-0.523229
21240,NaN,13.642209,-2.547846,-3.191961,-0.232156,6.540755,2.833872,2.791993,1.198569,2.407819,-0.875488,0.127686,-0.306885,0.136516,-0.023379,-0.033074,0.999812,0.013959,0.005992,0.012038,-0.557402,-0.213813,0.593638,-0.539612
21241,NaN,8.693448,-1.381874,-3.139035,-0.019539,5.428418,-2.205807,2.498891,1.425239,1.710039,-0.866699,0.127686,-0.323975,0.086819,-0.012677,-0.032172,0.999860,0.012494,0.007126,0.008550,-0.554291,-0.212125,0.584730,-0.553042
21242,NaN,4.973792,4.426213,-4.046331,-3.660952,6.692269,-8.228029,2.376009,1.468261,0.912765,-0.864502,0.127686,-0.339111,0.049238,0.044967,-0.040295,0.999892,0.011880,0.007341,0.004564,-0.553479,-0.211951,0.574995,-0.564019
21243,NaN,2.155044,10.074198,-2.935113,-8.279625,6.087162,-12.835793,2.131066,1.171482,0.253928,-0.857666,0.114990,-0.347412,0.021254,0.101075,-0.028400,0.999925,0.010655,0.005857,0.001270,-0.553838,-0.214120,0.566044,-0.571848
21244,NaN,-0.917435,12.773224,-0.892640,-10.634738,3.585600,-16.044443,1.763821,1.084754,-0.406985,-0.859375,0.102051,-0.360107,-0.008958,0.127822,-0.007750,0.999944,0.008819,0.005424,-0.002035,-0.556152,-0.217036,0.557529,-0.576846
21245,NaN,-3.596299,9.430171,0.227494,-7.440534,0.593359,-16.609541,1.298892,0.451039,-0.984142,-0.854492,0.087158,-0.362061,-0.035492,0.094459,0.002968,0.999964,0.006494,0.002255,-0.004921,-0.558864,-0.222419,0.551506,-0.577964
21246,NaN,-3.122345,5.446345,1.155269,-4.437707,-0.994591,-14.291893,0.562395,-0.383600,-1.462450,-0.858398,0.072021,-0.357422,-0.030847,0.054657,0.011647,0.999967,0.002812,-0.001918,-0.007312,-0.561388,-0.229118,0.549308,-0.574986
21247,NaN,-1.538208,3.323476,0.987688,-2.942675,-0.684729,-12.105848,-0.007790,-0.936254,-1.894103,-0.862061,0.054932,-0.340088,-0.015112,0.033379,0.009804,0.999944,-0.000039,-0.004681,-0.009470,-0.564319,-0.237298,0.549804,-0.568286
21248,NaN,-0.047490,2.327328,0.715621,-2.344754,-0.084353,-10.465126,-0.174935,-1.241759,-2.258664,-0.865479,0.031250,-0.335449,-0.000256,0.023283,0.007134,0.999917,-0.000875,-0.006209,-0.011293,-0.567483,-0.246516,0.551079,-0.559915
21249,NaN,1.096229,1.737566,0.717991,-2.077553,0.188059,-9.192531,-0.123524,-1.443299,-2.599853,-0.869141,0.007568,-0.324463,0.011135,0.017236,0.007249,0.999889,-0.000618,-0.007216,-0.012999,-0.570963,-0.257647,0.552286,-0.550090
21250,NaN,2.080054,1.369694,0.977588,-2.017920,0.173120,-8.064560,-0.029554,-1.604083,-2.919505,-0.878906,-0.020264,-0.294189,0.020918,0.013394,0.009941,0.999861,-0.000148,-0.008020,-0.014597,-0.574523,-0.269994,0.553108,-0.539535
21251,NaN,2.623156,1.160493,1.049108,-1.904734,0.178203,-7.431981,-0.079949,-1.618575,-3.280950,-0.875732,-0.052490,-0.289307,0.026331,0.011178,0.010699,0.999833,-0.000400,-0.008092,-0.016404,-0.578999,-0.283450,0.553471,-0.527339
21252,NaN,2.424232,1.493613,0.681381,-1.992583,0.497334,-7.726202,-0.110367,-1.655580,-3.632876,-0.876709,-0.082520,-0.273926,0.024451,0.014497,0.007008,0.999801,-0.000552,-0.008277,-0.018163,-0.584038,-0.297487,0.553295,-0.514068
21253,NaN,2.284767,2.237887,0.646369,-2.590644,0.664999,-7.944229,-0.121490,-1.776228,-3.980154,-0.877930,-0.116699,-0.258301,0.023228,0.021923,0.006655,0.999762,-0.000607,-0.008880,-0.019899,-0.589484,-0.312916,0.552748,-0.499061
21254,NaN,2.388122,3.302051,1.016731,-3.656364,0.635063,-7.846497,-0.313583,-1.991677,-4.327937,-0.876709,-0.151123,-0.247070,0.024486,0.032511,0.010358,0.999715,-0.001568,-0.009957,-0.021638,-0.595102,-0.328828,0.552472,-0.482183
21255,NaN,3.229606,4.107793,1.137807,-4.425034,0.909045,-6.951316,-0.693022,-2.288561,-4.685566,-0.873291,-0.189697,-0.222900,0.033115,0.040348,0.011613,0.999654,-0.003465,-0.011441,-0.023425,-0.601101,-0.345378,0.553046,-0.462095
21256,NaN,4.829668,3.888331,0.374962,-3.867775,1.727686,-5.270360,-1.095746,-2.556964,-5.000213,-0.869629,-0.237061,-0.196533,0.049197,0.037683,0.004166,0.999591,-0.005478,-0.012783,-0.024998,-0.607230,-0.361671,0.554401,-0.439438
21257,NaN,6.404264,3.037710,-0.182485,-2.640229,1.973018,-3.535857,-1.373742,-2.706749,-5.273796,-0.859619,-0.277832,-0.182861,0.064832,0.028665,-0.001152,0.999537,-0.006868,-0.013532,-0.026365,-0.613613,-0.378151,0.555812,-0.414191
21258,NaN,7.631760,2.439261,-0.658548,-1.553109,2.027085,-2.191268,-1.423617,-2.773147,-5.546603,-0.851562,-0.322754,-0.158691,0.077037,0.022220,-0.005684,0.999494,-0.007117,-0.013863,-0.027728,-0.619774,-0.394743,0.556499,-0.387771
21259,NaN,9.276567,2.389852,-1.138381,-0.796760,2.141824,-0.442122,-1.239328,-2.762172,-5.819240,-0.834961,-0.365723,-0.140869,0.093554,0.021118,-0.010232,0.999462,-0.006196,-0.013808,-0.029091,-0.625566,-0.412481,0.555628,-0.360284
21260,NaN,10.880528,2.566457,-1.178716,-0.265299,1.765224,1.283688,-0.936456,-2.681094,-6.034237,-0.813965,-0.415039,-0.125000,0.109658,0.022313,-0.010430,0.999444,-0.004681,-0.013403,-0.030166,-0.630572,-0.430909,0.552947,-0.333085
21261,NaN,12.898154,2.653194,-1.000420,0.498513,0.934783,3.348395,-0.579636,-2.653719,-6.212597,-0.790771,-0.470947,-0.104736,0.129840,0.022481,-0.008354,0.999425,-0.002898,-0.013266,-0.031057,-0.634525,-0.450665,0.548512,-0.305635
21262,NaN,15.012119,3.007589,-1.011492,1.303162,0.160635,5.471852,-0.262621,-2.652463,-6.287676,-0.756836,-0.513916,-0.086670,0.151084,0.025324,-0.008151,0.999417,-0.001313,-0.013260,-0.031432,-0.637083,-0.470860,0.542841,-0.278818
21263,NaN,16.980289,3.890009,-0.499206,1.578654,-1.090707,7.505283,-0.060614,-2.748889,-6.261671,-0.723145,-0.556885,-0.066650,0.170957,0.033558,-0.002658,0.999415,-0.000303,-0.013742,-0.031302,-0.638151,-0.491442,0.536546,-0.251728
21264,NaN,18.557881,4.145821,0.274293,2.285080,-2.938656,8.833046,-0.091697,-2.884708,-6.156915,-0.691650,-0.599854,-0.046631,0.186672,0.035724,0.005413,0.999422,-0.000458,-0.014421,-0.030779,-0.638020,-0.511007,0.530427,-0.224609
21265,NaN,20.250403,3.277028,0.986568,4.054759,-5.343516,9.594591,-0.298936,-3.020396,-5.986678,-0.662354,-0.640625,-0.032959,0.203185,0.026712,0.012888,0.999437,-0.001494,-0.015099,-0.029928,-0.637148,-0.529227,0.524720,-0.196548
21266,NaN,21.362959,1.019056,1.076577,6.972957,-7.606970,8.946920,-0.587391,-3.122171,-5.787919,-0.624512,-0.675049,-0.019287,0.213603,0.004046,0.014083,0.999455,-0.002936,-0.015608,-0.028934,-0.635854,-0.545316,0.519641,-0.168205
21267,NaN,22.935110,-1.517630,0.399873,10.542418,-9.500957,8.267402,-0.919041,-3.188576,-5.563934,-0.582520,-0.711670,-0.012207,0.228708,-0.021516,0.007738,0.999475,-0.004594,-0.015940,-0.027815,-0.634421,-0.559387,0.515028,-0.139074
21268,NaN,24.712456,-4.013078,0.099217,13.842758,-11.829549,7.364620,-1.281141,-3.130223,-5.241920,-0.540771,-0.733154,-0.003174,0.245901,-0.046563,0.005132,0.999514,-0.006405,-0.015649,-0.026205,-0.633283,-0.570723,0.510936,-0.110330
21269,NaN,25.449219,-6.006713,0.353322,15.846580,-14.009867,5.558972,-1.554479,-2.937755,-4.803585,-0.511963,-0.759033,-0.002686,0.252859,-0.066105,0.007754,0.999574,-0.007771,-0.014687,-0.024015,-0.632581,-0.579538,0.507110,-0.082554
21270,NaN,24.805419,-6.570641,1.151898,15.683292,-15.404147,3.469176,-1.842747,-2.722549,-4.204425,-0.476807,-0.778320,-0.006348,0.246409,-0.070768,0.015518,0.999644,-0.009213,-0.013611,-0.021020,-0.632531,-0.585286,0.504117,-0.056668
21271,NaN,24.116709,-7.460079,1.624611,15.682333,-16.446402,1.294866,-2.095323,-2.513005,-3.489699,-0.450439,-0.793213,-0.012451,0.239583,-0.078594,0.020073,0.999714,-0.010476,-0.012564,-0.017447,-0.633125,-0.588033,0.502280,-0.032947
21272,NaN,25.647041,-13.293901,2.300855,19.549204,-20.231435,-2.869518,-1.785842,-2.152511,-2.733944,-0.428711,-0.802002,-0.022949,0.254347,-0.136197,0.026960,0.999809,-0.008929,-0.010762,-0.013669,-0.633302,-0.589486,0.501252,-0.013474
21273,NaN,27.039715,-17.148089,1.644293,22.727937,-22.184632,-5.438298,-1.379256,-1.268487,-1.784953,-0.421875,-0.810547,-0.029297,0.268737,-0.173758,0.019344,0.999916,-0.006896,-0.006342,-0.008925,-0.634256,-0.589601,0.500089,-0.000727
21274,NaN,21.931442,-17.497562,0.386483,20.889548,-18.719523,-9.115646,-1.747657,-0.955633,-0.265056,-0.422119,-0.803955,-0.040039,0.219056,-0.175217,0.006442,0.999950,-0.008738,-0.004778,-0.001325,-0.636990,-0.584694,0.502317,0.007300
21275,NaN,26.692720,-11.925894,-1.151869,20.648570,-19.022370,-1.577968,-2.079648,-0.928410,1.239110,-0.435303,-0.793213,-0.059570,0.267705,-0.117705,-0.009048,0.999916,-0.010398,-0.004642,0.006195,-0.640733,-0.574796,0.508870,0.011038
21276,NaN,19.075363,-14.330493,1.160915,16.390804,-17.310990,-8.325942,-2.316012,-0.722230,2.111424,-0.452637,-0.788818,-0.066162,0.192204,-0.141128,0.013944,0.999871,-0.011580,-0.003611,0.010557,-0.645588,-0.561889,0.517056,0.012240
21277,NaN,18.242842,1.576315,-1.575451,8.501351,-9.091677,3.708318,-2.421540,-0.462845,2.805036,-0.472656,-0.771729,-0.096436,0.182221,0.018131,-0.015543,0.999826,-0.012107,-0.002314,0.014024,-0.651250,-0.546570,0.526333,0.010384
21278,NaN,7.600149,30.020402,3.410112,-15.789829,5.642754,16.443588,-2.065543,0.794982,1.806838,-0.488037,-0.758789,-0.113770,0.073410,0.301204,0.030699,0.999898,-0.010327,0.003975,0.009034,-0.659017,-0.535074,0.528519,0.007761
21279,NaN,12.446332,6.062572,2.535292,0.323505,-6.252970,2.792327,-2.085868,-0.085458,0.722609,-0.490479,-0.752197,-0.122559,0.124232,0.061335,0.024769,0.999939,-0.010429,-0.000427,0.003613,-0.664366,-0.526117,0.530755,0.010820
21280,NaN,26.454607,-10.530403,2.815594,15.062971,-21.815486,0.949566,-1.224535,-0.507930,1.740194,-0.503662,-0.743652,-0.126953,0.265374,-0.102820,0.029464,0.999940,-0.006123,-0.002540,0.008701,-0.666296,-0.517371,0.536920,0.009623
21281,NaN,18.914519,-2.450671,5.007592,5.624468,-15.174311,1.453607,0.497545,0.370929,2.446772,-0.519043,-0.730713,-0.125244,0.189519,-0.022314,0.049667,0.999920,0.002488,0.001855,0.012234,-0.666087,-0.512250,0.542150,-0.001151
21282,NaN,9.967040,5.083791,3.811181,-1.565481,-5.643874,0.453923,0.481078,-0.143255,2.187094,-0.538818,-0.717773,-0.121094,0.099080,0.051832,0.038307,0.999937,0.002405,-0.000716,0.010935,-0.664414,-0.507891,0.548191,-0.009374
21283,NaN,9.351459,4.597165,-1.610115,2.154959,-1.706765,0.366414,0.010118,-0.881403,2.309168,-0.556641,-0.705078,-0.114990,0.093045,0.047049,-0.015688,0.999924,0.000051,-0.004407,0.011546,-0.661845,-0.501373,0.557097,-0.015150
21284,NaN,9.650417,2.292416,-4.965628,5.828124,-0.661197,-0.398056,-0.544851,-1.044568,2.262174,-0.570068,-0.687744,-0.117432,0.096495,0.023881,-0.049216,0.999919,-0.002724,-0.005223,0.011311,-0.660079,-0.493305,0.566219,-0.018501
21285,NaN,9.606674,1.831678,-8.727715,8.676228,1.653439,-0.127484,-1.183617,-1.299144,2.178849,-0.585449,-0.677002,-0.117676,0.096428,0.018852,-0.086762,0.999902,-0.005918,-0.006496,0.010894,-0.659063,-0.483103,0.576081,-0.019448
21286,NaN,11.202964,1.179593,-7.800677,8.780757,-0.196459,0.704223,-1.421234,-1.133493,2.135035,-0.601074,-0.662109,-0.122314,0.112339,0.012442,-0.077458,0.999902,-0.007106,-0.005667,0.010675,-0.658962,-0.472330,0.585053,-0.019653
21287,NaN,10.131822,-0.153703,-5.203149,7.135394,-2.051204,-1.173978,-1.101751,-0.563635,1.769399,-0.610107,-0.651367,-0.124756,0.101474,-0.000925,-0.051739,0.999942,-0.005509,-0.002818,0.008847,-0.659674,-0.463397,0.591306,-0.021259
21288,NaN,9.371397,-0.957718,-3.863412,6.260837,-2.935211,-2.339304,-0.381457,-0.144585,1.442696,-0.621094,-0.642578,-0.120605,0.093808,-0.008974,-0.038549,0.999972,-0.001907,-0.000723,0.007213,-0.659961,-0.457872,0.595148,-0.024557
21289,NaN,9.706310,-0.975518,-3.192430,5.783633,-3.470505,-2.075803,0.326029,0.154397,1.262109,-0.634277,-0.634033,-0.125000,0.097097,-0.009090,-0.032014,0.999978,0.001630,0.000772,0.006311,-0.659460,-0.455024,0.597615,-0.030385
21290,NaN,10.505262,0.551271,-2.057276,4.197930,-3.604273,-0.632181,1.054812,0.442950,1.096336,-0.632324,-0.629883,-0.125000,0.104974,0.006198,-0.020774,0.999969,0.005274,0.002215,0.005482,-0.658199,-0.455141,0.598469,-0.038162
21291,NaN,9.671870,2.595670,-0.481036,1.503306,-2.913710,-0.338329,1.447712,0.599316,0.928230,-0.643311,-0.623291,-0.116699,0.096582,0.026440,-0.004910,0.999959,0.007238,0.002997,0.004641,-0.656444,-0.456855,0.598441,-0.047250
21292,NaN,8.865560,4.184050,0.896821,-0.769848,-2.446989,-0.308594,1.357944,0.414162,0.886746,-0.645752,-0.619141,-0.108154,0.088488,0.042172,0.009070,0.999965,0.006790,0.002071,0.004434,-0.654352,-0.458541,0.598765,-0.055172
21293,NaN,8.205152,6.911069,1.119329,-2.896596,-0.671555,0.555440,0.835646,0.115541,0.971698,-0.654297,-0.619141,-0.108154,0.081721,0.069461,0.011436,0.999979,0.004178,0.000578,0.004858,-0.652460,-0.458181,0.600493,-0.061433
21294,NaN,7.055889,8.415955,-0.515979,-3.064772,1.881894,0.576945,0.194244,-0.210176,1.097745,-0.658936,-0.606201,-0.102051,0.070101,0.084550,-0.005004,0.999984,0.000971,-0.001051,0.005489,-0.651039,-0.455572,0.603624,-0.065119
21295,NaN,6.979074,7.370198,-2.099573,-1.361146,2.457375,0.164436,-0.339683,-0.425025,1.244877,-0.665771,-0.595459,-0.102295,0.069375,0.074099,-0.020974,0.999977,-0.001698,-0.002125,0.006224,-0.650077,-0.450700,0.608046,-0.067450
21296,NaN,7.472690,5.932194,-3.411791,0.563961,2.348179,0.028013,-0.587314,-0.412094,1.378951,-0.674805,-0.582520,-0.104736,0.074386,0.059735,-0.034139,0.999970,-0.002937,-0.002060,0.006895,-0.649666,-0.444720,0.612672,-0.069221
21297,NaN,7.930928,5.028961,-4.588119,2.037998,2.471770,0.136018,-0.486106,-0.248346,1.479175,-0.683838,-0.573975,-0.104736,0.078992,0.050763,-0.045906,0.999969,-0.002431,-0.001242,0.007396,-0.649416,-0.438565,0.617011,-0.072230
21298,NaN,8.565631,4.085362,-5.167809,3.132122,2.097471,0.314273,-0.217269,0.010452,1.543391,-0.695068,-0.561035,-0.104980,0.085335,0.041457,-0.051727,0.999970,-0.001086,0.000052,0.007717,-0.649350,-0.433077,0.620421,-0.076597
21299,NaN,8.881747,3.596259,-4.163555,2.679272,1.122108,0.222948,0.020789,0.243836,1.587812,-0.699463,-0.552490,-0.111572,0.088477,0.036670,-0.041740,0.999968,0.000104,0.001219,0.007939,-0.649380,-0.428018,0.623127,-0.082580
21300,NaN,8.374634,3.586051,-3.378282,1.909104,0.947735,-0.333134,0.239723,0.379008,1.637294,-0.702148,-0.537598,-0.107666,0.083385,0.036585,-0.033898,0.999964,0.001199,0.001895,0.008186,-0.649351,-0.423518,0.625278,-0.089456
21301,NaN,8.419226,3.780120,-2.207797,0.834108,0.415235,-0.369352,0.310660,0.388992,1.682831,-0.717529,-0.533203,-0.109863,0.083827,0.038542,-0.022182,0.999962,0.001553,0.001945,0.008414,-0.649071,-0.418995,0.627497,-0.096941
21302,NaN,8.892714,3.989864,-0.972496,-0.214088,-0.324817,-0.025386,0.256108,0.365234,1.724568,-0.724609,-0.513916,-0.112305,0.088561,0.040676,-0.009835,0.999960,0.001281,0.001826,0.008623,-0.648821,-0.414216,0.629776,-0.104107
21303,NaN,9.433100,3.843846,-0.299669,-0.614466,-0.927987,0.316817,0.056465,0.297642,1.752760,-0.735840,-0.498779,-0.116943,0.093985,0.039264,-0.003126,0.999960,0.000282,0.001488,0.008764,-0.648643,-0.408632,0.632461,-0.110797
21304,NaN,9.333095,3.991250,-0.414097,-0.747857,-0.569157,0.302757,-0.150882,0.229487,1.776042,-0.742676,-0.490234,-0.116943,0.092967,0.040736,-0.004278,0.999960,-0.000754,0.001147,0.008880,-0.648669,-0.402377,0.635403,-0.116549
21305,NaN,9.119844,3.569131,-0.759816,-0.354660,-0.384432,-0.003944,-0.307882,0.137297,1.785921,-0.747314,-0.477539,-0.117188,0.090870,0.036492,-0.007716,0.999959,-0.001539,0.000686,0.008929,-0.648601,-0.395529,0.638773,-0.121830
21306,NaN,9.224368,3.218566,-1.082988,0.031085,-0.293312,0.012359,-0.448303,0.069757,1.787438,-0.756348,-0.464600,-0.121826,0.091947,0.032984,-0.010935,0.999957,-0.002241,0.000349,0.008937,-0.648597,-0.388301,0.642327,-0.126333
21307,NaN,9.462430,2.619448,-1.726023,0.831179,-0.203550,0.119259,-0.435477,0.056004,1.794352,-0.771973,-0.447266,-0.124268,0.094380,0.027004,-0.017345,0.999957,-0.002177,0.000280,0.008972,-0.648407,-0.380996,0.645941,-0.131038
21308,NaN,9.752482,2.020252,-1.802852,1.218718,-0.515451,0.221711,-0.373824,0.056873,1.790299,-0.776855,-0.432373,-0.126709,0.097334,0.021041,-0.018095,0.999958,-0.001869,0.000284,0.008951,-0.648105,-0.373943,0.649385,-0.135744
21309,NaN,10.026289,1.471240,-1.748176,1.463581,-0.874883,0.328176,-0.298593,0.059174,1.769770,-0.781738,-0.417236,-0.126953,0.100122,0.015573,-0.017534,0.999960,-0.001493,0.000296,0.008849,-0.647571,-0.367099,0.652740,-0.140788
21310,NaN,10.082375,1.184874,-2.073918,1.792343,-0.742527,0.365381,-0.200403,0.070835,1.724974,-0.784180,-0.404541,-0.129150,0.100709,0.012697,-0.020787,0.999962,-0.001002,0.000354,0.008625,-0.646934,-0.360750,0.655793,-0.145849
21311,NaN,10.379379,1.339272,-2.556904,1.965990,-0.266607,0.776183,-0.043347,0.078170,1.676672,-0.795410,-0.391602,-0.131592,0.103667,0.014257,-0.025613,0.999965,-0.000217,0.000391,0.008383,-0.645963,-0.354969,0.658632,-0.151437
21312,NaN,11.000782,1.744264,-3.065426,2.015799,0.322619,1.557716,0.117972,0.115704,1.632399,-0.802490,-0.378662,-0.131836,0.109843,0.018358,-0.030707,0.999966,0.000590,0.000579,0.008162,-0.644879,-0.349868,0.661044,-0.157303
21313,NaN,11.478742,2.049602,-3.155692,1.793567,0.626223,2.116625,0.275016,0.163897,1.605136,-0.805176,-0.361572,-0.138672,0.114592,0.021460,-0.031622,0.999967,0.001375,0.000819,0.008026,-0.643589,-0.345240,0.663144,-0.163837
21314,NaN,11.935267,3.082320,-2.599992,0.597195,1.038952,2.728104,0.444389,0.255549,1.609745,-0.811768,-0.353027,-0.134521,0.119066,0.031840,-0.026082,0.999964,0.002222,0.001278,0.008049,-0.642330,-0.341104,0.664712,-0.170932
21315,NaN,12.473483,4.071926,-1.425209,-1.038351,1.013274,3.305631,0.567274,0.374293,1.674488,-0.816650,-0.342285,-0.132568,0.124361,0.041802,-0.014368,0.999959,0.002836,0.001871,0.008372,-0.641079,-0.336966,0.665910,-0.178988
21316,NaN,11.923842,5.096088,-0.280675,-2.733146,1.280507,2.801289,0.589993,0.449177,1.806310,-0.823730,-0.322998,-0.137207,0.118765,0.052043,-0.002921,0.999952,0.002950,0.002246,0.009031,-0.639935,-0.332418,0.666953,-0.187496
21317,NaN,11.669175,5.980504,0.704822,-4.208529,1.491330,2.536058,0.500324,0.471289,1.996965,-0.826416,-0.305664,-0.139648,0.116103,0.060949,0.006926,0.999944,0.002502,0.002356,0.009985,-0.638703,-0.326840,0.668307,-0.196470
21318,NaN,12.239681,6.265107,0.936250,-4.707290,1.652474,3.034139,0.305854,0.480823,2.230419,-0.826904,-0.290771,-0.141846,0.121710,0.063997,0.009167,0.999934,0.001529,0.002404,0.011152,-0.637578,-0.319863,0.670071,-0.205393
21319,NaN,12.983517,6.316963,0.395650,-4.511964,2.203281,3.730184,0.117858,0.508344,2.450824,-0.836426,-0.267090,-0.140137,0.129058,0.064752,0.003666,0.999922,0.000589,0.002542,0.012254,-0.636476,-0.311423,0.672234,-0.214513
21320,NaN,13.777351,6.299658,-0.768489,-3.845300,3.186499,4.509931,0.053975,0.568065,2.660007,-0.843750,-0.241455,-0.146973,0.136897,0.064823,-0.008057,0.999907,0.000270,0.002840,0.013300,-0.635391,-0.302009,0.674448,-0.224030
21321,NaN,14.734597,6.408414,-2.002548,-3.253702,4.358656,5.437985,0.173478,0.698300,2.849961,-0.848877,-0.215576,-0.158203,0.146342,0.066192,-0.020481,0.999892,0.000867,0.003491,0.014249,-0.634184,-0.292085,0.676293,-0.234787
21322,NaN,15.531318,7.047123,-2.761310,-3.405573,5.679000,6.144581,0.451369,0.911888,3.031940,-0.849854,-0.187744,-0.167236,0.154093,0.072877,-0.028155,0.999872,0.002257,0.004559,0.015159,-0.632970,-0.282148,0.677212,-0.247235
21323,NaN,15.834558,8.414166,-3.205297,-4.313840,7.410651,6.257335,0.820677,1.163886,3.209920,-0.856934,-0.166260,-0.180420,0.156778,0.086799,-0.032616,0.999846,0.004103,0.005819,0.016049,-0.631652,-0.272365,0.676959,-0.261839
21324,NaN,16.172069,10.142356,-3.323645,-5.757169,9.202962,6.236233,1.282997,1.385245,3.388857,-0.860107,-0.136230,-0.193604,0.159737,0.104357,-0.033684,0.999812,0.006415,0.006926,0.016943,-0.630040,-0.263074,0.675391,-0.278727
21325,NaN,16.680932,12.008233,-3.280173,-7.503147,10.976626,6.198945,1.851404,1.608919,3.549401,-0.858887,-0.108398,-0.196289,0.164375,0.123319,-0.032999,0.999767,0.009256,0.008044,0.017746,-0.627915,-0.254620,0.672269,-0.298239
21326,NaN,17.382879,14.573956,-3.903731,-9.414494,13.685860,6.118253,2.436139,1.827152,3.612449,-0.855469,-0.082520,-0.218018,0.170798,0.149317,-0.038803,0.999721,0.012180,0.009135,0.018061,-0.625394,-0.247323,0.667311,-0.320016
21327,NaN,17.060893,17.913951,-4.897342,-11.701675,17.005591,4.670170,2.899142,1.959518,3.575220,-0.858643,-0.054688,-0.233398,0.166889,0.182846,-0.047988,0.999687,0.014494,0.009797,0.017874,-0.622413,-0.241301,0.660767,-0.343167
21328,NaN,14.950870,18.592837,-5.391355,-12.267828,17.796066,1.632619,3.166567,1.980972,3.478662,-0.852783,-0.031006,-0.248779,0.145711,0.189323,-0.052390,0.999674,0.015831,0.009904,0.017391,-0.618966,-0.236177,0.653151,-0.366736
21329,NaN,13.456215,14.012753,-5.727913,-8.951050,15.131002,0.242322,3.154992,1.968740,3.354508,-0.851562,-0.007568,-0.264160,0.131619,0.143245,-0.056341,0.999686,0.015773,0.009843,0.016771,-0.615324,-0.231430,0.645038,-0.389541
21330,NaN,13.176697,6.419489,-4.360829,-4.279022,9.761145,1.152207,2.891852,1.971293,3.239170,-0.845459,0.007568,-0.283691,0.130265,0.066947,-0.043942,0.999716,0.014458,0.009856,0.016194,-0.611852,-0.225967,0.636906,-0.411007
21331,NaN,14.208599,0.506081,-3.898590,-0.338349,6.702297,3.312553,2.577598,1.955798,3.197244,-0.837646,0.031250,-0.307373,0.141586,0.007841,-0.040283,0.999741,0.012887,0.009778,0.015985,-0.608441,-0.219774,0.629094,-0.430975
21332,NaN,15.385460,0.949865,-4.177155,-1.007976,7.952917,3.998993,2.936244,1.994813,2.991786,-0.829590,0.046143,-0.314209,0.153258,0.012421,-0.043134,0.999731,0.014680,0.009973,0.014958,-0.604878,-0.214931,0.619816,-0.451392
21333,NaN,15.346324,3.539064,-3.530015,-3.744357,9.144226,2.947769,3.247995,2.243230,2.634635,-0.825439,0.056885,-0.344238,0.152570,0.037990,-0.036412,0.999718,0.016238,0.011215,0.013172,-0.602210,-0.211676,0.608399,-0.471580
21334,NaN,14.115805,2.526824,-3.633101,-2.880902,8.746005,1.764194,3.238787,2.185527,2.447983,-0.812988,0.065430,-0.359375,0.140425,0.027590,-0.037434,0.999734,0.016193,0.010927,0.012239,-0.599498,-0.208765,0.596611,-0.490994
21335,NaN,13.039477,2.243166,-3.944943,-2.539519,8.818140,0.502049,3.085481,1.571359,2.538451,-0.808838,0.076172,-0.372314,0.129778,0.024697,-0.040101,0.999770,0.015426,0.007856,0.012691,-0.594574,-0.206781,0.586898,-0.509190
21336,NaN,11.221135,0.648737,-2.744060,-1.658352,6.744601,-0.559916,2.784240,1.083898,2.402789,-0.804932,0.086914,-0.389648,0.111969,0.008220,-0.027941,0.999816,0.013920,0.005419,0.012013,-0.588648,-0.205203,0.578963,-0.525534
21337,NaN,7.884074,-1.438204,-2.540621,0.604500,4.723292,-2.884304,2.384199,1.105090,1.708192,-0.807129,0.086914,-0.393799,0.078815,-0.013401,-0.026005,0.999877,0.011921,0.005525,0.008541,-0.584810,-0.204621,0.571206,-0.538379
21338,NaN,7.199724,1.381226,-3.977274,-1.135602,6.750396,-5.047986,2.465690,1.193297,0.884819,-0.798096,0.078369,-0.406494,0.071695,0.014622,-0.040024,0.999896,0.012328,0.005966,0.004424,-0.583251,-0.206063,0.561925,-0.549178
21339,NaN,3.314426,7.731254,-4.303143,-5.761362,7.386963,-11.041491,2.804937,1.157706,0.138945,-0.799805,0.065674,-0.419189,0.032845,0.077931,-0.042132,0.999885,0.014024,0.005788,0.000695,-0.583117,-0.210943,0.551020,-0.558440
21340,NaN,-0.094049,12.169028,-1.055471,-10.386323,4.235176,-14.648632,2.713297,1.028432,-0.400646,-0.799072,0.048584,-0.427490,-0.000745,0.121820,-0.008898,0.999893,0.013566,0.005142,-0.002003,-0.584143,-0.217057,0.539964,-0.565776
21341,NaN,-3.839459,10.078073,1.190524,-8.681459,-0.053417,-16.320495,1.863021,0.397650,-0.891504,-0.798828,0.035645,-0.427246,-0.037920,0.100833,0.012920,0.999945,0.009315,0.001988,-0.004457,-0.585655,-0.224088,0.532625,-0.568422
21342,NaN,-4.243516,6.431007,2.550375,-5.881029,-2.388021,-14.870350,0.817608,-0.629215,-1.365933,-0.808838,0.016357,-0.420654,-0.042076,0.064494,0.025634,0.999963,0.004088,-0.003146,-0.006830,-0.586922,-0.231894,0.530594,-0.565878
21343,NaN,-2.539368,4.315338,2.571401,-4.357304,-2.188915,-12.624236,0.058876,-1.361334,-1.758328,-0.812744,0.003418,-0.401123,-0.025187,0.043368,0.025555,0.999938,0.000294,-0.006807,-0.008791,-0.588186,-0.240882,0.532415,-0.559059
21345,NaN,0.057340,2.036423,1.761758,-5.010029,-1.978583,-9.843635,-0.216437,-1.906267,-2.281870,-0.834961,-0.043701,-0.364258,0.001406,0.040775,0.035172,0.999556,-0.002164,-0.019060,-0.022815,-0.591052,-0.262300,0.539104,-0.539651
21346,NaN,1.982152,1.013223,2.083594,-1.977301,-0.900982,-7.673751,-0.193576,-2.191186,-2.727138,-0.851318,-0.065186,-0.342529,0.019728,0.009883,0.021043,0.999847,-0.000968,-0.010955,-0.013635,-0.592694,-0.275246,0.542479,-0.527892
21347,NaN,2.047125,0.787431,2.201968,-1.781935,-1.113316,-7.522673,-0.224790,-2.258847,-3.068009,-0.850342,-0.099609,-0.322754,0.020339,0.007587,0.022241,0.999818,-0.001124,-0.011294,-0.015339,-0.594865,-0.288808,0.545446,-0.514990
21348,NaN,2.005522,1.001553,1.704084,-1.756342,-0.675241,-7.717951,-0.237272,-2.368957,-3.426774,-0.860107,-0.127441,-0.290283,0.020020,0.009693,0.017266,0.999782,-0.001186,-0.011844,-0.017133,-0.597472,-0.303766,0.548057,-0.500387
21349,NaN,2.028763,1.856405,1.521145,-2.443682,-0.293778,-7.858868,-0.238664,-2.532248,-3.757034,-0.865479,-0.163818,-0.276855,0.020437,0.018199,0.015448,0.999743,-0.001193,-0.012660,-0.018784,-0.600141,-0.319600,0.550372,-0.484539
21350,NaN,2.313315,3.129064,1.659013,-3.646159,0.000389,-7.668197,-0.379751,-2.742791,-4.140830,-0.861816,-0.206787,-0.241943,0.023545,0.030838,0.016852,0.999690,-0.001899,-0.013713,-0.020702,-0.603079,-0.336668,0.552739,-0.466294
21351,NaN,3.141918,3.846994,1.413820,-4.189814,0.554743,-6.845493,-0.640867,-2.915621,-4.560648,-0.862549,-0.249756,-0.213379,0.032077,0.037789,0.014481,0.999629,-0.003204,-0.014576,-0.022800,-0.606509,-0.354006,0.555143,-0.445694
21352,NaN,4.410945,4.013477,0.883778,-4.042490,1.171776,-5.497159,-0.797825,-3.034770,-4.906449,-0.850586,-0.290527,-0.187012,0.044937,0.039076,0.009358,0.999576,-0.003989,-0.015172,-0.024529,-0.610215,-0.372074,0.557188,-0.422777
21353,NaN,6.173574,3.691644,0.516240,-3.370504,1.374735,-3.588161,-0.838104,-3.037189,-5.163891,-0.842529,-0.337891,-0.154053,0.062575,0.035332,0.005958,0.999543,-0.004190,-0.015184,-0.025816,-0.613949,-0.390147,0.558365,-0.398850
21354,NaN,7.777113,3.215755,0.519002,-2.555169,0.976264,-1.838241,-0.677552,-2.997045,-5.385667,-0.823730,-0.387207,-0.123291,0.078511,0.030070,0.006259,0.999519,-0.003387,-0.014983,-0.026924,-0.617390,-0.409140,0.558106,-0.374101
21355,NaN,10.016441,2.853237,0.424295,-1.600525,0.518984,0.472454,-0.407624,-2.976543,-5.621839,-0.796387,-0.432373,-0.090332,0.100836,0.025715,0.005686,0.999492,-0.002038,-0.014880,-0.028104,-0.620120,-0.428923,0.556274,-0.349336
21356,NaN,12.477668,2.678294,0.533222,-0.659821,-0.315489,2.937172,-0.110375,-2.873722,-5.815768,-0.766602,-0.486084,-0.070068,0.125391,0.023146,0.007118,0.999474,-0.000552,-0.014366,-0.029074,-0.622230,-0.449785,0.552560,-0.324348
21357,NaN,14.502720,3.068275,0.797232,-0.159949,-1.267724,4.974714,0.234721,-2.765423,-5.972180,-0.737305,-0.529053,-0.039307,0.145728,0.026327,0.010017,0.999458,0.001173,-0.013825,-0.029856,-0.623410,-0.471250,0.547053,-0.300027
21358,NaN,16.087714,3.930994,0.990412,0.045269,-2.123726,6.638291,0.446776,-2.737833,-6.063501,-0.701416,-0.572021,-0.004150,0.161813,0.034387,0.012196,0.999444,0.002233,-0.013687,-0.030312,-0.623639,-0.493288,0.540262,-0.275424
21359,NaN,17.324616,4.353061,1.510159,0.546231,-3.531066,7.751103,0.447782,-2.846985,-6.044404,-0.663574,-0.608643,0.020020,0.174216,0.038237,0.017667,0.999440,0.002238,-0.014232,-0.030216,-0.622819,-0.514650,0.533314,-0.250616
21360,NaN,18.093133,4.298133,2.438966,1.220210,-5.480374,8.079681,0.117713,-2.998573,-5.916258,-0.625732,-0.647461,0.052979,0.181704,0.037598,0.027134,0.999450,0.000588,-0.014990,-0.029576,-0.621604,-0.534452,0.526913,-0.224350
21361,NaN,20.406935,3.258468,2.996284,3.397912,-7.914375,9.206014,-0.410069,-3.147328,-5.704536,-0.574951,-0.684082,0.066650,0.204385,0.026823,0.033119,0.999467,-0.002050,-0.015734,-0.028518,-0.620477,-0.551447,0.521631,-0.197016
21362,NaN,22.941824,0.487780,2.817773,7.401255,-10.453873,9.429785,-0.928469,-3.177670,-5.478478,-0.539795,-0.707520,0.080078,0.228954,-0.001257,0.031815,0.999488,-0.004642,-0.015886,-0.027388,-0.619844,-0.565840,0.516954,-0.168454
21363,NaN,24.446976,-2.288135,2.307236,11.039178,-12.400604,8.418937,-1.408216,-3.072847,-5.218723,-0.496094,-0.731445,0.095703,0.243370,-0.029061,0.027008,0.999517,-0.007040,-0.015362,-0.026089,-0.619983,-0.577276,0.512649,-0.139871
21364,NaN,24.059905,-3.770025,1.446149,12.868512,-12.872943,6.426500,-1.873795,-2.912798,-4.827955,-0.462891,-0.757080,0.098389,0.239350,-0.043329,0.018342,0.999559,-0.009368,-0.014562,-0.024136,-0.621046,-0.585701,0.508764,-0.111426
21365,NaN,23.136163,-3.847034,0.429878,13.323368,-12.465279,4.926480,-2.267114,-2.779801,-4.306116,-0.425537,-0.778564,0.098877,0.230369,-0.043361,0.007979,0.999607,-0.011334,-0.013897,-0.021528,-0.622770,-0.590932,0.505848,-0.084107
21366,NaN,21.979006,-3.776943,-0.296873,13.297875,-12.048591,3.428566,-2.615905,-2.698240,-3.694194,-0.399414,-0.785156,0.092773,0.219051,-0.041829,0.000520,0.999653,-0.013078,-0.013490,-0.018469,-0.625029,-0.593081,0.504225,-0.057883
21367,NaN,21.473778,-5.804645,-0.688589,14.663697,-12.766687,1.012948,-2.741179,-2.666568,-3.047762,-0.375488,-0.798096,0.088623,0.213878,-0.061371,-0.003204,0.999701,-0.013705,-0.013332,-0.015237,-0.627132,-0.592792,0.504163,-0.033525
21368,NaN,23.834213,-12.375436,-0.225954,19.561294,-17.060741,-2.923554,-2.409219,-2.436401,-2.389159,-0.353271,-0.815186,0.086914,0.236833,-0.126582,0.002145,0.999782,-0.012045,-0.012181,-0.011945,-0.628411,-0.591518,0.505019,-0.012734
21369,NaN,27.463580,-18.216080,1.437495,23.549353,-22.765155,-5.907772,-1.667277,-1.569532,-1.598879,-0.348877,-0.819580,0.078369,0.273037,-0.184208,0.018052,0.999903,-0.008336,-0.007847,-0.007994,-0.629421,-0.590358,0.505277,0.001142
21370,NaN,21.654245,-16.314407,0.328109,19.941251,-18.313510,-8.358650,-1.730775,-1.015546,-0.292089,-0.342285,-0.821533,0.080566,0.216279,-0.163417,0.005793,0.999949,-0.008654,-0.005078,-0.001460,-0.631951,-0.585533,0.507645,0.009272
21371,NaN,24.103102,-10.634575,-2.098641,19.065157,-16.583085,-2.069497,-1.964042,-0.949113,1.136579,-0.357422,-0.819336,0.063477,0.241724,-0.105165,-0.018804,0.999924,-0.009820,-0.004745,0.005683,-0.635298,-0.576353,0.513841,0.013443
21372,NaN,19.041799,-9.221734,-0.155469,14.217064,-14.683652,-4.344825,-2.096689,-0.631694,1.974309,-0.370605,-0.810791,0.048340,0.191318,-0.090337,0.000002,0.999891,-0.010483,-0.003158,0.009871,-0.639795,-0.564388,0.521469,0.014087
21373,NaN,17.540150,-6.088458,-1.668158,12.451240,-11.718270,-2.387238,-2.080569,-0.535430,2.543756,-0.392334,-0.802246,0.032959,0.176201,-0.058813,-0.015592,0.999861,-0.010402,-0.002677,0.012718,-0.644362,-0.550983,0.530141,0.012882
21374,NaN,9.641802,16.927384,0.912286,-6.067792,0.487550,8.714428,-1.693361,0.280376,2.142985,-0.403320,-0.795654,0.030762,0.094608,0.170362,0.007550,0.999906,-0.008467,0.001402,0.010715,-0.649852,-0.539648,0.535149,0.009325
21375,NaN,6.897830,14.484056,3.344391,-7.583406,-0.190275,4.713203,-1.449884,0.328926,0.997852,-0.414062,-0.793457,0.009277,0.068307,0.145419,0.032278,0.999960,-0.007249,0.001645,0.004989,-0.654667,-0.532259,0.536684,0.009073
21376,NaN,17.548335,-1.636621,3.032971,6.086452,-13.002668,0.850408,-1.238067,-0.435783,1.161230,-0.420654,-0.787109,0.011230,0.175507,-0.015158,0.030808,0.999962,-0.006190,-0.002179,0.005806,-0.656839,-0.524881,0.541271,0.009449
21377,NaN,19.768644,-2.718274,2.376449,7.865835,-14.250845,1.971400,-0.189948,-0.169343,1.961955,-0.444580,-0.778320,0.017334,0.197920,-0.025219,0.023957,0.999951,-0.000950,-0.000847,0.009810,-0.656941,-0.518911,0.546940,0.003961
21378,NaN,13.343453,2.110198,3.291256,1.711316,-8.821828,0.797422,0.440887,0.092632,1.987893,-0.455811,-0.769775,0.021484,0.133232,0.022354,0.032899,0.999948,0.002204,0.000463,0.009939,-0.656086,-0.514679,0.551940,-0.004359
21379,NaN,11.085998,5.088814,0.335965,1.064888,-4.011375,1.662417,0.256857,-0.426266,1.972086,-0.471191,-0.759033,0.027588,0.110343,0.051973,0.003661,0.999948,0.001284,-0.002131,0.009860,-0.654174,-0.510060,0.558379,-0.010442
21380,NaN,10.187678,5.619413,-1.809762,1.747741,-1.672977,1.710480,-0.098814,-0.666256,2.098837,-0.484375,-0.752686,0.027588,0.101339,0.057251,-0.017788,0.999939,-0.000494,-0.003331,0.010494,-0.652452,-0.503644,0.566042,-0.015673
21381,NaN,7.637179,3.651687,-4.395326,3.705197,0.596656,-1.043750,-0.541371,-0.667776,1.912746,-0.499756,-0.741943,0.022949,0.076165,0.037127,-0.043799,0.999945,-0.002707,-0.003339,0.009564,-0.651741,-0.496487,0.573049,-0.018701
21382,NaN,8.404904,1.432280,-7.339518,7.323196,1.046813,-1.337081,-0.869562,-1.038096,1.896583,-0.517334,-0.733154,0.022705,0.084290,0.014803,-0.073022,0.999932,-0.004348,-0.005190,0.009483,-0.650721,-0.488064,0.581335,-0.020146
21383,NaN,11.696469,0.688221,-6.529995,8.103853,-1.678704,0.743256,-1.055412,-1.022837,1.965534,-0.532715,-0.722412,0.024658,0.117224,0.007691,-0.064740,0.999925,-0.005277,-0.005114,0.009827,-0.650078,-0.478980,0.589522,-0.020979
21384,NaN,11.798016,0.541910,-4.096512,6.247865,-3.363039,0.479040,-0.804765,-0.515401,1.743217,-0.534912,-0.718262,0.018066,0.118033,0.006284,-0.040685,0.999951,-0.004024,-0.002577,0.008716,-0.650254,-0.471064,0.595585,-0.023388
21385,NaN,10.276081,0.264151,-3.148550,5.142466,-3.254984,-0.950436,-0.217042,-0.110929,1.416655,-0.550537,-0.703125,0.017822,0.102756,0.003335,-0.031432,0.999974,-0.001085,-0.000555,0.007083,-0.650255,-0.466137,0.599292,-0.027090
21386,NaN,9.293242,0.191616,-3.097429,4.788652,-2.733214,-1.713784,0.285241,0.123477,1.221167,-0.559326,-0.700928,0.021973,0.092899,0.002528,-0.031028,0.999980,0.001426,0.000617,0.006106,-0.649751,-0.463192,0.601844,-0.032561
21387,NaN,9.844439,0.685220,-2.313888,3.990246,-3.150628,-1.044184,0.868367,0.324465,1.084553,-0.565918,-0.694580,0.028320,0.098367,0.007487,-0.023267,0.999975,0.004342,0.001622,0.005423,-0.648526,-0.462680,0.603146,-0.039453
21388,NaN,9.677732,2.090847,-1.447582,2.375512,-2.728646,-0.483383,1.304034,0.472591,0.968004,-0.568359,-0.686035,0.036865,0.096640,0.021471,-0.014566,0.999964,0.006520,0.002363,0.004840,-0.646684,-0.463694,0.603727,-0.047977
21389,NaN,9.126817,3.543115,-0.530715,0.583641,-2.160820,-0.266821,1.376511,0.445716,0.888770,-0.579102,-0.686035,0.038818,0.091098,0.035873,-0.005264,0.999964,0.006882,0.002229,0.004444,-0.644603,-0.465334,0.603995,-0.056043
21390,NaN,8.487681,5.263530,0.025918,-1.164402,-1.198049,0.033847,1.060107,0.240614,0.881752,-0.588135,-0.675293,0.042969,0.084644,0.053007,0.000438,0.999976,0.005300,0.001203,0.004409,-0.642568,-0.465822,0.605101,-0.062994
21391,NaN,7.754894,6.857703,-0.756889,-1.910081,0.617035,0.371086,0.534722,-0.051711,0.935993,-0.588135,-0.677490,0.049316,0.077229,0.068959,-0.007365,0.999985,0.002674,-0.000259,0.004680,-0.640864,-0.464713,0.607271,-0.067503
21392,NaN,7.375651,6.858308,-2.082949,-1.152796,1.754636,0.255417,0.102898,-0.240534,1.021283,-0.594727,-0.670898,0.047119,0.073430,0.068969,-0.020706,0.999986,0.000514,-0.001203,0.005106,-0.639514,-0.461837,0.610499,-0.070848
21393,NaN,7.556107,5.579064,-3.045550,0.337887,1.659700,-0.085070,-0.133112,-0.275905,1.100512,-0.607910,-0.662354,0.051270,0.075295,0.056185,-0.030389,0.999984,-0.000666,-0.001380,0.005503,-0.638581,-0.458137,0.613961,-0.073328
21394,NaN,8.053986,4.555187,-4.031050,1.753680,1.577490,0.000623,-0.141056,-0.190867,1.180980,-0.610596,-0.649658,0.059570,0.080308,0.045998,-0.040266,0.999982,-0.000705,-0.000954,0.005905,-0.637842,-0.453961,0.617431,-0.076522
21395,NaN,8.455539,4.269352,-4.528124,2.310699,1.636784,0.297104,-0.000018,-0.021044,1.235541,-0.623779,-0.645264,0.050781,0.084294,0.043215,-0.045272,0.999981,-0.000000,-0.000105,0.006178,-0.637294,-0.450140,0.620292,-0.080419
21396,NaN,8.675680,4.345884,-4.152122,1.948018,1.425047,0.461903,0.168168,0.147743,1.292887,-0.628174,-0.640869,0.048584,0.086443,0.044053,-0.041548,0.999978,0.000841,0.000739,0.006464,-0.636797,-0.446453,0.622760,-0.085672
21397,NaN,8.578591,4.531300,-3.554376,1.284986,1.281107,0.359051,0.322259,0.279416,1.358118,-0.641602,-0.623779,0.052490,0.085426,0.045951,-0.035590,0.999975,0.001611,0.001397,0.006791,-0.636351,-0.443114,0.624749,-0.091627
21398,NaN,8.222519,4.516697,-2.958752,0.699868,1.141968,-0.067490,0.379993,0.336835,1.406225,-0.644043,-0.619385,0.050293,0.081855,0.045800,-0.029639,0.999972,0.001900,0.001684,0.007031,-0.635848,-0.439633,0.626704,-0.098300
21399,NaN,8.189766,4.580346,-2.213823,0.027198,0.798245,-0.204715,0.351728,0.281887,1.456122,-0.655029,-0.610840,0.056641,0.081530,0.046437,-0.022172,0.999971,0.001759,0.001409,0.007281,-0.635225,-0.436031,0.628819,-0.104654
21400,NaN,8.594460,4.582387,-1.439927,-0.547114,0.219012,0.015188,0.197738,0.219671,1.531744,-0.668457,-0.595947,0.054199,0.085574,0.046494,-0.014448,0.999970,0.000989,0.001098,0.007659,-0.634609,-0.431594,0.631432,-0.110867
21401,NaN,8.845181,4.557285,-1.573145,-0.488294,0.317595,0.244121,-0.068418,0.190007,1.598915,-0.675293,-0.587158,0.049805,0.088069,0.046273,-0.015831,0.999968,-0.000342,0.000950,0.007994,-0.634451,-0.426203,0.634299,-0.116138
21402,NaN,8.825812,4.010314,-1.677180,-0.139961,0.195738,0.022479,-0.235661,0.143135,1.646515,-0.684082,-0.576660,0.053711,0.087912,0.040808,-0.016883,0.999965,-0.001178,0.000716,0.008232,-0.634374,-0.420020,0.637555,-0.121146
21403,NaN,9.031147,3.275130,-1.691933,0.316806,-0.199163,-0.065449,-0.327588,0.126461,1.660791,-0.690918,-0.567871,0.051514,0.090025,0.033472,-0.017031,0.999964,-0.001638,0.000632,0.008304,-0.634438,-0.413588,0.640819,-0.125638
21404,NaN,9.148223,2.584417,-1.681205,0.705109,-0.555610,-0.200832,-0.339907,0.090899,1.666978,-0.697754,-0.555176,0.051270,0.091255,0.026577,-0.016898,0.999964,-0.001700,0.000454,0.008335,-0.634307,-0.406985,0.644249,-0.130239
21405,NaN,9.434925,2.332026,-1.793123,0.899653,-0.621364,0.009425,-0.277914,0.075348,1.667672,-0.708984,-0.544434,0.046875,0.094144,0.024081,-0.018000,0.999964,-0.001390,0.000377,0.008338,-0.634008,-0.400661,0.647563,-0.134788
21406,NaN,9.754407,2.088310,-1.597116,0.860695,-0.898281,0.212798,-0.179944,0.063905,1.655495,-0.718018,-0.531494,0.046631,0.097362,0.021675,-0.016022,0.999965,-0.000900,0.000320,0.008277,-0.633380,-0.394564,0.650853,-0.139787
21407,NaN,10.017589,1.822259,-1.627320,0.988356,-1.016569,0.400458,-0.098667,0.082407,1.636771,-0.724854,-0.516357,0.046387,0.100016,0.019034,-0.016324,0.999966,-0.000493,0.000412,0.008184,-0.632679,-0.388846,0.653869,-0.144814
21408,NaN,10.095694,1.837536,-1.655563,0.893941,-0.886006,0.504970,0.003068,0.095350,1.605338,-0.735840,-0.512207,0.050537,0.100797,0.019185,-0.016603,0.999968,0.000015,0.000477,0.008027,-0.631743,-0.383417,0.656739,-0.150287
21409,NaN,10.323551,1.863080,-1.918970,0.975695,-0.636121,0.787795,0.097656,0.111589,1.585982,-0.740479,-0.501465,0.045898,0.103073,0.019458,-0.019238,0.999968,0.000488,0.000558,0.007930,-0.630711,-0.378413,0.659335,-0.155834
21410,NaN,10.389233,1.949946,-2.472723,1.201142,-0.087335,0.976193,0.190541,0.162197,1.581966,-0.751953,-0.486328,0.050049,0.103714,0.020344,-0.024792,0.999968,0.000953,0.000811,0.007910,-0.629573,-0.373552,0.661717,-0.161950
21411,NaN,9.870901,2.839087,-2.983478,0.796626,1.138893,0.792130,0.269181,0.190971,1.563420,-0.751953,-0.479980,0.047852,0.098454,0.029201,-0.029890,0.999968,0.001346,0.000955,0.007817,-0.628417,-0.369052,0.663799,-0.168121
21412,NaN,10.006025,2.524889,-3.932523,1.580627,1.677583,0.987544,0.354979,0.142165,1.594112,-0.761230,-0.462891,0.055908,0.099826,0.026115,-0.039350,0.999966,0.001775,0.000711,0.007970,-0.626808,-0.364642,0.666040,-0.174755
21413,NaN,11.344936,3.455743,-3.352953,0.449773,1.692918,2.386487,0.508037,0.184091,1.673380,-0.772705,-0.445557,0.051514,0.113124,0.035590,-0.033544,0.999961,0.002540,0.000920,0.008367,-0.625009,-0.360478,0.668046,-0.182028
21414,NaN,12.070070,3.673555,-0.634710,-1.738672,-0.060841,2.699444,0.590838,0.312276,1.771002,-0.779541,-0.434814,0.051270,0.120359,0.037821,-0.006425,0.999955,0.002954,0.001561,0.008855,-0.623277,-0.356016,0.669759,-0.190270
21415,NaN,11.515515,4.221845,0.889255,-3.357421,-0.449532,2.008616,0.572753,0.349961,1.886948,-0.788818,-0.415527,0.048828,0.114766,0.043277,0.008814,0.999950,0.002864,0.001750,0.009435,-0.621603,-0.351122,0.671450,-0.198690
21416,NaN,12.169114,5.014956,1.866320,-4.747595,-0.559489,2.591424,0.451153,0.386138,2.041791,-0.793457,-0.402832,0.052734,0.121207,0.051347,0.018544,0.999943,0.002256,0.001931,0.010209,-0.619984,-0.345172,0.673402,-0.207379
21417,NaN,13.154511,5.167363,1.638762,-4.861316,-0.277062,3.555604,0.266319,0.427375,2.217719,-0.804688,-0.387695,0.050293,0.130996,0.053107,0.016177,0.999935,0.001332,0.002137,0.011088,-0.618624,-0.338056,0.675587,-0.215883
21418,NaN,13.563481,5.179560,0.462072,-4.249961,0.755722,4.056918,0.137353,0.464262,2.377772,-0.812012,-0.364014,0.043457,0.135017,0.053400,0.004343,0.999926,0.000687,0.002321,0.011889,-0.617306,-0.329825,0.678011,-0.224609
21419,NaN,14.402088,4.646161,-0.928496,-3.124985,1.539019,4.942727,0.199820,0.555147,2.511999,-0.825439,-0.349121,0.039062,0.143396,0.048275,-0.009636,0.999917,0.000999,0.002776,0.012560,-0.615987,-0.321266,0.680161,-0.233945
21420,NaN,15.460037,4.566298,-1.950039,-2.625446,2.404856,6.029456,0.460037,0.754009,2.628714,-0.832764,-0.323242,0.030029,0.153907,0.047735,-0.019973,0.999904,0.002300,0.003770,0.013143,-0.614647,-0.312738,0.681485,-0.244911
21421,NaN,15.890607,6.172699,-2.545844,-3.647118,4.271971,6.482156,0.850036,1.019744,2.754933,-0.840088,-0.299805,0.029541,0.157903,0.064016,-0.025996,0.999883,0.004250,0.005099,0.013774,-0.613348,-0.304668,0.681540,-0.257848
21422,NaN,16.057710,8.092731,-2.610404,-5.287215,6.039600,6.487535,1.282686,1.269383,2.918484,-0.851562,-0.278320,0.022705,0.159204,0.083427,-0.026588,0.999853,0.006413,0.006347,0.014592,-0.611841,-0.296897,0.680358,-0.273158
21423,NaN,16.875561,9.205571,-2.260128,-6.712901,6.924810,6.967768,1.807906,1.518693,3.095013,-0.854492,-0.252441,0.015869,0.167128,0.094857,-0.023025,0.999811,0.009039,0.007593,0.015474,-0.609981,-0.289759,0.677710,-0.290986
21424,NaN,17.964536,11.223753,-1.849990,-8.959639,8.371818,7.557153,2.521605,1.805330,3.226001,-0.862061,-0.220215,0.009033,0.177633,0.115348,-0.018668,0.999750,0.012607,0.009026,0.016129,-0.607586,-0.283768,0.673047,-0.311966
21425,NaN,17.848582,14.003601,-2.457116,-11.130761,11.027122,6.775280,3.185747,2.056142,3.257885,-0.871582,-0.192383,0.000000,0.175920,0.143302,-0.024123,0.999688,0.015927,0.010280,0.016288,-0.604713,-0.279177,0.666246,-0.335409
21426,NaN,15.012460,16.170307,-3.435105,-12.424070,13.281823,3.141947,3.520810,2.084454,3.241948,-0.872803,-0.160156,-0.019775,0.147122,0.164693,-0.033013,0.999659,0.017602,0.010421,0.016208,-0.601109,-0.275425,0.658333,-0.359731
21427,NaN,13.220454,16.082369,-4.372964,-12.136483,13.942169,0.713509,3.478664,1.915056,3.250384,-0.879883,-0.136719,-0.026611,0.129151,0.163682,-0.042146,0.999671,0.017391,0.009574,0.016250,-0.596577,-0.271636,0.650581,-0.383476
21429,NaN,13.394579,10.980942,-3.847239,-18.072471,21.726750,11.631714,2.879983,1.720910,3.293939,-0.884033,-0.076660,-0.042480,0.259117,0.230430,-0.074921,0.998895,0.028789,0.017203,0.032927,-0.586697,-0.260549,0.637495,-0.426030
21430,NaN,14.544303,3.577060,-3.421385,-3.902775,7.326984,3.113713,2.173533,1.679741,3.254004,-0.880615,-0.050781,-0.053711,0.144539,0.038505,-0.035022,0.999773,0.010867,0.008398,0.016269,-0.582153,-0.252906,0.632033,-0.444602
21431,NaN,15.081423,2.677241,-4.769728,-2.894874,8.541203,3.453964,2.127599,1.702181,2.977442,-0.879395,-0.027100,-0.068848,0.149977,0.029524,-0.048672,0.999796,0.010637,0.008510,0.014886,-0.578156,-0.245982,0.625982,-0.461925
21432,NaN,14.650980,2.759305,-5.081283,-3.028889,9.117809,2.667313,2.306863,1.721362,2.572390,-0.875732,-0.005859,-0.075684,0.145691,0.030064,-0.051732,0.999814,0.011534,0.008606,0.012861,-0.574655,-0.240568,0.618727,-0.478619
21433,NaN,13.745027,2.481389,-3.986435,-3.380975,8.135630,1.734445,2.496747,1.773369,2.346674,-0.867920,0.020020,-0.091064,0.136784,0.026927,-0.040752,0.999814,0.012483,0.008866,0.011733,-0.571461,-0.236359,0.610379,-0.494979
21434,NaN,13.256491,1.955559,-3.181964,-3.439712,7.366494,1.303539,2.618363,1.521857,2.424197,-0.866455,0.037109,-0.097656,0.132066,0.021581,-0.032552,0.999812,0.013091,0.007609,0.012120,-0.566901,-0.232622,0.602301,-0.511609
21435,NaN,11.660994,0.619778,-2.981989,-2.225578,6.453813,0.119005,2.606042,1.187748,2.348670,-0.860596,0.054199,-0.104492,0.116344,0.007959,-0.030415,0.999829,0.013029,0.005938,0.011743,-0.561384,-0.230057,0.594929,-0.527240
21436,NaN,7.547946,-2.252659,-3.202354,1.255688,4.572910,-2.755251,2.276843,1.121701,1.871707,-0.854736,0.073486,-0.106689,0.075501,-0.021450,-0.032695,0.999876,0.011384,0.005608,0.009358,-0.557094,-0.227885,0.587858,-0.540497
21437,NaN,5.553044,-0.993790,-3.576667,0.758396,4.780194,-5.209574,2.263106,1.164319,1.091084,-0.852783,0.080078,-0.124023,0.055372,-0.009228,-0.036196,0.999904,0.011315,0.005821,0.005455,-0.554966,-0.228032,0.579735,-0.551290
21438,NaN,3.331583,4.227279,-4.581420,-2.893642,6.442452,-9.532181,2.223441,1.052143,0.352809,-0.843994,0.071533,-0.128174,0.033001,0.042838,-0.045514,0.999923,0.011117,0.005261,0.001764,-0.554462,-0.230253,0.571045,-0.559878
21439,NaN,1.202292,9.291775,-3.453200,-7.318836,5.924875,-13.134457,2.171497,0.853232,-0.205150,-0.846191,0.073730,-0.132324,0.011974,0.093273,-0.033572,0.999931,0.010857,0.004266,-0.001026,-0.554952,-0.234694,0.562389,-0.566273
21440,NaN,-1.737082,11.045789,-1.073731,-9.065391,2.991181,-15.732671,1.955612,0.844879,-0.829134,-0.839355,0.067139,-0.125977,-0.016955,0.110626,-0.009584,0.999935,0.009778,0.004224,-0.004146,-0.557341,-0.240035,0.553499,-0.570432
21441,NaN,-3.619266,8.358516,0.431871,-6.787259,0.199521,-15.898835,1.427757,0.212859,-1.311671,-0.839111,0.058594,-0.134277,-0.035639,0.083786,0.004954,0.999952,0.007139,0.001064,-0.006558,-0.559968,-0.247293,0.547289,-0.570751
21442,NaN,-2.493318,5.161199,1.319987,-4.535982,-0.933385,-13.438978,0.717614,-0.613967,-1.688314,-0.836426,0.043457,-0.121338,-0.024537,0.051773,0.013310,0.999953,0.003588,-0.003070,-0.008441,-0.562189,-0.255655,0.544848,-0.567208
21443,NaN,-0.653932,3.136252,1.237130,-3.129170,-0.635733,-11.076850,0.226240,-1.138592,-2.057355,-0.840576,0.034912,-0.106201,-0.006287,0.031414,0.012371,0.999930,0.001131,-0.005693,-0.010287,-0.564650,-0.265376,0.544775,-0.560327
21444,NaN,0.878404,1.606269,0.955262,-1.973893,-0.200281,-9.240194,0.020116,-1.413177,-2.403266,-0.831055,0.011230,-0.092773,0.008908,0.015955,0.009617,0.999903,0.000101,-0.007066,-0.012016,-0.567449,-0.275904,0.545468,-0.551673
21445,NaN,1.917179,0.861485,0.809285,-1.424466,0.069206,-8.069569,0.013287,-1.588362,-2.745793,-0.841309,-0.005859,-0.075439,0.019223,0.008351,0.008246,0.999874,0.000066,-0.007941,-0.013728,-0.570663,-0.288040,0.546104,-0.541431
21446,NaN,2.735564,0.531327,0.701576,-1.181812,0.283925,-7.208894,0.064798,-1.731099,-3.100705,-0.836426,-0.022949,-0.058105,0.027372,0.004887,0.007254,0.999842,0.000324,-0.008655,-0.015503,-0.574144,-0.301324,0.546317,-0.530189
21447,NaN,3.207690,0.838790,0.728456,-1.478100,0.397248,-6.782904,0.028885,-1.785986,-3.438252,-0.842285,-0.044434,-0.040771,0.032148,0.007835,0.007573,0.999812,0.000144,-0.008929,-0.017190,-0.578286,-0.315733,0.546097,-0.517374
21448,NaN,3.355881,1.643209,0.496005,-2.096366,0.784658,-6.780241,0.086052,-1.881375,-3.777240,-0.839111,-0.074463,-0.018799,0.033812,0.015793,0.005284,0.999777,0.000430,-0.009406,-0.018885,-0.582653,-0.331084,0.545232,-0.503609
21449,NaN,3.564164,2.122486,0.583869,-2.494319,0.791594,-6.541882,0.039093,-2.027213,-4.098259,-0.835938,-0.104492,0.000977,0.036005,0.020488,0.006206,0.999739,0.000195,-0.010135,-0.020490,-0.587282,-0.347639,0.544112,-0.488046
21450,NaN,3.819490,2.546087,0.823483,-2.866098,0.635584,-6.189557,-0.207149,-2.246790,-4.435816,-0.832764,-0.138916,0.027344,0.038652,0.024616,0.008642,0.999690,-0.001036,-0.011233,-0.022177,-0.592170,-0.364466,0.543338,-0.470408
21451,NaN,4.413746,3.049673,0.428598,-3.094824,1.130770,-5.557933,-0.621190,-2.491113,-4.788547,-0.831299,-0.179688,0.044922,0.044794,0.029444,0.004749,0.999631,-0.003106,-0.012454,-0.023940,-0.597629,-0.381606,0.543232,-0.449572
21452,NaN,5.575627,3.248948,-0.499316,-2.788696,2.053944,-4.345852,-0.940243,-2.698613,-5.088015,-0.823730,-0.211914,0.071289,0.056620,0.031035,-0.004381,0.999574,-0.004701,-0.013491,-0.025436,-0.603274,-0.398512,0.543472,-0.426483
21453,NaN,6.906495,3.195990,-1.139883,-2.190916,2.522728,-2.882212,-1.046414,-2.818474,-5.328300,-0.815918,-0.257080,0.089111,0.070035,0.030046,-0.010577,0.999532,-0.005231,-0.014090,-0.026637,-0.608827,-0.415899,0.543299,-0.401477
21454,NaN,8.519512,2.969927,-1.236061,-1.443823,2.283558,-1.117617,-0.946522,-2.881398,-5.556547,-0.803711,-0.297852,0.121826,0.086143,0.027259,-0.011257,0.999499,-0.004732,-0.014405,-0.027778,-0.613816,-0.433680,0.542145,-0.375807
21455,NaN,10.727082,2.791903,-1.318949,-0.499198,1.847205,1.182785,-0.781287,-2.864633,-5.752022,-0.791260,-0.349365,0.146240,0.108189,0.024768,-0.011745,0.999476,-0.003906,-0.014321,-0.028755,-0.618265,-0.452268,0.539598,-0.349336
21456,NaN,12.516756,2.826792,-1.029151,0.231763,0.950007,3.021048,-0.615698,-2.803327,-5.865601,-0.768311,-0.392334,0.166260,0.126053,0.024551,-0.008608,0.999467,-0.003078,-0.014014,-0.029323,-0.622009,-0.470837,0.535790,-0.323026
21457,NaN,14.450944,3.184575,-0.671483,0.843059,-0.103600,4.973198,-0.428123,-2.820740,-5.937017,-0.745361,-0.435303,0.190674,0.145445,0.027525,-0.004730,0.999458,-0.002140,-0.014101,-0.029680,-0.624727,-0.489940,0.530924,-0.296301
21458,NaN,16.595703,3.990292,-0.397691,1.304158,-1.152357,7.168615,-0.332930,-2.888109,-5.943824,-0.713867,-0.480469,0.210693,0.167080,0.034944,-0.001630,0.999453,-0.001664,-0.014438,-0.029714,-0.626340,-0.508682,0.525590,-0.269622
21459,NaN,18.481112,4.337966,0.226404,2.126433,-2.850590,8.832575,-0.406038,-2.994805,-5.880806,-0.682129,-0.525635,0.235107,0.185919,0.037931,0.004962,0.999454,-0.002030,-0.014971,-0.029399,-0.627087,-0.526834,0.520197,-0.242080
21460,NaN,19.771713,3.649790,0.977546,3.645928,-5.004895,9.337187,-0.696720,-3.108757,-5.742569,-0.646240,-0.568604,0.261719,0.198474,0.030847,0.012743,0.999461,-0.003483,-0.015541,-0.028708,-0.627450,-0.543058,0.515383,-0.213952
21461,NaN,21.074993,2.372189,0.750232,6.042303,-6.560162,9.439645,-1.070346,-3.195142,-5.540886,-0.608398,-0.607178,0.273193,0.211146,0.017927,0.010768,0.999474,-0.005351,-0.015973,-0.027700,-0.627711,-0.557286,0.511154,-0.184751
21462,NaN,22.290166,0.857953,-0.159636,8.828023,-7.622382,9.198355,-1.451494,-3.197659,-5.318880,-0.560059,-0.641602,0.291260,0.223013,0.002654,0.001935,0.999492,-0.007256,-0.015986,-0.026590,-0.628178,-0.568990,0.507453,-0.155353
21463,NaN,23.208414,-1.320216,-1.025672,11.901108,-8.885487,8.094663,-1.794323,-3.141129,-5.020219,-0.520020,-0.676025,0.298340,0.231775,-0.019093,-0.006461,0.999521,-0.008970,-0.015703,-0.025097,-0.628896,-0.578390,0.504111,-0.125804
21464,NaN,23.660935,-4.441875,-1.233242,14.942256,-10.801432,5.711221,-2.089842,-3.037016,-4.525915,-0.476318,-0.697510,0.301025,0.235668,-0.049860,-0.008247,0.999574,-0.010448,-0.015183,-0.022626,-0.629865,-0.584887,0.501674,-0.097476
21465,NaN,23.270620,-7.609718,-0.692843,16.906629,-12.903539,2.329746,-2.168790,-2.929451,-3.860363,-0.440918,-0.725586,0.297363,0.231239,-0.080615,-0.002676,0.999648,-0.010843,-0.014646,-0.019300,-0.630493,-0.589046,0.500441,-0.071152
21466,NaN,22.943650,-8.539433,-0.211618,17.096019,-14.182963,0.475410,-1.977457,-2.711564,-3.169743,-0.410156,-0.744873,0.299805,0.228038,-0.089011,0.001850,0.999734,-0.009886,-0.013557,-0.015847,-0.630493,-0.591548,0.500225,-0.048212
21467,NaN,22.974739,-9.725822,0.749781,17.205688,-15.957372,-1.313006,-1.612860,-2.349475,-2.574984,-0.379639,-0.753418,0.298096,0.228355,-0.100125,0.010986,0.999816,-0.008064,-0.011747,-0.012874,-0.629863,-0.593394,0.500309,-0.029099
21468,NaN,25.151302,-14.402568,2.977765,19.720864,-20.750476,-4.396178,-0.970005,-1.672999,-2.046157,-0.362061,-0.762207,0.298340,0.249758,-0.146433,0.032578,0.999901,-0.004850,-0.008365,-0.010230,-0.628793,-0.595640,0.499600,-0.015266
21469,NaN,21.952885,-12.215234,2.163149,17.101772,-17.944839,-5.195562,-1.024902,-0.864231,-1.131607,-0.353516,-0.764160,0.289795,0.218735,-0.123275,0.023208,0.999962,-0.005124,-0.004321,-0.005658,-0.629732,-0.595253,0.499066,-0.006711
21470,NaN,19.250897,-12.505954,-0.002466,17.074939,-15.056344,-6.856798,-1.564099,-0.893410,0.277369,-0.357910,-0.761963,0.285400,0.192677,-0.124783,0.001812,0.999958,-0.007820,-0.004467,0.001387,-0.632123,-0.589639,0.502738,-0.001026
21471,NaN,20.757773,-12.079557,-0.467034,17.587025,-15.740310,-5.347379,-1.502007,-0.753293,1.437006,-0.360107,-0.760010,0.272461,0.208452,-0.119327,-0.002986,0.999939,-0.007510,-0.003766,0.007185,-0.634600,-0.581154,0.509454,0.000162
21472,NaN,20.932773,-6.618079,-0.110045,13.888704,-14.509134,-0.949357,-1.673737,-0.457180,2.171025,-0.377441,-0.753418,0.265869,0.210031,-0.063907,-0.000080,0.999903,-0.008368,-0.002286,0.010855,-0.638241,-0.570254,0.517163,-0.001139
21473,NaN,15.074712,-4.475821,2.370182,7.967914,-12.156891,-3.362387,-1.569859,-0.241717,2.262932,-0.392578,-0.749023,0.250732,0.151210,-0.042860,0.024226,0.999904,-0.007849,-0.001209,0.011314,-0.642000,-0.559189,0.524526,-0.003996
21474,NaN,9.327118,16.175649,3.789356,-7.947737,-1.872499,7.401125,-1.488372,0.483980,1.859997,-0.403320,-0.749023,0.250732,0.091849,0.162890,0.036461,0.999926,-0.007442,0.002420,0.009300,-0.647347,-0.549479,0.528166,-0.007420
21475,NaN,6.008310,16.510003,3.686286,-9.555812,0.615666,5.371787,-1.423263,0.435669,0.840572,-0.409912,-0.746826,0.233398,0.059466,0.165607,0.035556,0.999963,-0.007116,0.002178,0.004203,-0.652353,-0.542426,0.529287,-0.007972
21476,NaN,15.475276,1.104296,2.486608,4.391525,-10.026965,1.459345,-1.240677,-0.388943,0.902129,-0.416260,-0.746826,0.227051,0.154652,0.011896,0.025095,0.999969,-0.006203,-0.001945,0.004511,-0.654634,-0.535987,0.533037,-0.006581
21477,NaN,19.688710,-1.882216,1.221903,8.624522,-12.696805,2.720469,-0.196293,-0.317512,1.697359,-0.431885,-0.731689,0.222412,0.197018,-0.017138,0.012549,0.999962,-0.000981,-0.001588,0.008487,-0.654251,-0.530593,0.538797,-0.011150
21478,NaN,14.776965,2.251674,2.040154,3.368597,-8.623855,2.098086,0.479199,0.012772,1.874796,-0.447266,-0.723145,0.232910,0.147552,0.023852,0.020448,0.999953,0.002396,0.000064,0.009374,-0.652881,-0.527080,0.543679,-0.018612
21479,NaN,11.991910,5.354043,0.198706,1.443053,-4.281005,2.520056,0.400180,-0.320007,1.846112,-0.451660,-0.718994,0.235107,0.119415,0.054640,0.002287,0.999954,0.002001,-0.001600,0.009230,-0.650781,-0.523105,0.549731,-0.025328
21480,NaN,10.209979,5.834418,-1.985110,1.746524,-1.438344,1.896330,0.019577,-0.480087,1.966975,-0.467041,-0.708252,0.234863,0.101567,0.059347,-0.019601,0.999949,0.000098,-0.002400,0.009835,-0.649129,-0.517792,0.556409,-0.030531
21481,NaN,7.642913,3.454559,-4.511438,3.825420,0.717554,-1.120675,-0.423656,-0.536871,1.817773,-0.478271,-0.695312,0.234619,0.076232,0.035144,-0.044984,0.999953,-0.002118,-0.002684,0.009089,-0.648444,-0.511136,0.563101,-0.034321
21482,NaN,8.887669,0.711354,-7.262262,7.785882,0.694848,-1.378678,-0.739893,-0.974264,1.839439,-0.493652,-0.690918,0.232178,0.089160,0.007665,-0.072216,0.999939,-0.003699,-0.004871,0.009197,-0.647238,-0.503689,0.571055,-0.035716
21483,NaN,12.732772,0.311604,-6.383589,8.590829,-2.159369,1.345320,-0.933732,-0.965024,1.958176,-0.500244,-0.686768,0.232178,0.127597,0.004068,-0.063238,0.999930,-0.004669,-0.004825,0.009791,-0.646421,-0.494945,0.579455,-0.037439
21484,NaN,11.928814,0.853553,-3.568385,5.825476,-3.365146,0.698997,-0.800682,-0.431498,1.684053,-0.509277,-0.671631,0.223389,0.119288,0.009398,-0.035463,0.999954,-0.004003,-0.002157,0.008420,-0.646809,-0.487530,0.585143,-0.039499
21485,NaN,9.949865,0.492221,-2.496748,4.544383,-3.182647,-1.170122,-0.286846,-0.087731,1.305267,-0.513672,-0.669434,0.225342,0.099475,0.005536,-0.024931,0.999978,-0.001434,-0.000439,0.006526,-0.646933,-0.482515,0.588890,-0.043192
21486,NaN,8.963895,0.320702,-2.490672,4.276249,-2.709837,-2.000691,0.112114,0.084522,1.127850,-0.524658,-0.665283,0.229492,0.089608,0.003726,-0.024943,0.999984,0.000561,0.000423,0.005639,-0.646659,-0.479525,0.591307,-0.047381
21487,NaN,9.700020,1.188764,-2.045313,3.557380,-2.839316,-0.926230,0.547196,0.211728,1.025176,-0.537842,-0.656494,0.229248,0.096916,0.012441,-0.020522,0.999983,0.002736,0.001059,0.005126,-0.645660,-0.477916,0.593187,-0.053373
21488,NaN,9.609561,2.481035,-1.491319,2.248088,-2.400511,-0.330812,0.877651,0.331433,0.913169,-0.536133,-0.643799,0.233398,0.095956,0.025314,-0.014962,0.999979,0.004388,0.001657,0.004566,-0.644290,-0.477935,0.594056,-0.059723
21489,NaN,9.083458,3.600179,-1.011421,0.958713,-1.796966,-0.203080,0.973716,0.303909,0.827116,-0.538330,-0.637207,0.237549,0.090669,0.036426,-0.010075,0.999978,0.004869,0.001520,0.004136,-0.642541,-0.478212,0.594998,-0.066577
21490,NaN,8.351245,5.156073,-0.637543,-0.604086,-0.822021,-0.030380,0.751876,0.152899,0.836577,-0.549316,-0.633057,0.237549,0.083291,0.051933,-0.006244,0.999984,0.003759,0.000764,0.004183,-0.640911,-0.478072,0.596250,-0.071875
21491,NaN,7.494574,6.758163,-0.927995,-1.793886,0.696765,0.137100,0.370431,-0.079744,0.896866,-0.553955,-0.622314,0.239502,0.074645,0.067934,-0.009125,0.999988,0.001852,-0.000399,0.004484,-0.639395,-0.476298,0.598751,-0.076234
21492,NaN,7.005228,7.210300,-2.043944,-1.536845,2.001485,0.130688,-0.013195,-0.291439,1.001356,-0.560547,-0.622314,0.243652,0.069720,0.072451,-0.020342,0.999986,-0.000066,-0.001457,0.005007,-0.638165,-0.473354,0.602068,-0.078710
21493,NaN,7.238485,6.444674,-3.300305,-0.176108,2.423924,0.132880,-0.212320,-0.362015,1.120501,-0.567139,-0.613770,0.239258,0.072082,0.064816,-0.032941,0.999982,-0.001062,-0.001810,0.005602,-0.637059,-0.469135,0.606178,-0.081342
21494,NaN,7.659399,5.497579,-4.052306,1.014259,2.297019,0.137442,-0.226029,-0.288806,1.225786,-0.569824,-0.605225,0.245605,0.076314,0.055398,-0.040475,0.999980,-0.001130,-0.001444,0.006129,-0.636204,-0.464799,0.610056,-0.083893
21495,NaN,8.009306,4.843518,-4.608569,1.836414,2.241209,0.209837,-0.078289,-0.121274,1.308413,-0.578369,-0.603027,0.239014,0.079802,0.048940,-0.046056,0.999978,-0.000391,-0.000606,0.006542,-0.635370,-0.460310,0.613728,-0.088074
21496,NaN,8.500588,3.886211,-4.560236,2.471634,1.535867,0.171747,0.191119,0.078381,1.375810,-0.587402,-0.587891,0.240967,0.084718,0.039489,-0.045598,0.999976,0.000956,0.000392,0.006879,-0.634551,-0.456640,0.616551,-0.093221
21497,NaN,8.887715,3.506413,-3.796695,2.172287,0.732355,0.209494,0.423742,0.259238,1.429240,-0.593994,-0.583496,0.242920,0.088574,0.035778,-0.038007,0.999971,0.002119,0.001296,0.007146,-0.633594,-0.453166,0.619001,-0.100191
21498,NaN,8.741211,4.046952,-2.989157,1.102188,0.656046,0.191026,0.604340,0.386809,1.443307,-0.603027,-0.572998,0.244873,0.087059,0.041189,-0.029936,0.999968,0.003022,0.001934,0.007216,-0.632679,-0.450394,0.620727,-0.107518
21499,NaN,8.471518,4.339004,-1.962028,0.019746,0.337507,-0.100485,0.645063,0.385254,1.453150,-0.612305,-0.555664,0.250977,0.084359,0.044067,-0.019642,0.999967,0.003225,0.001926,0.007266,-0.631500,-0.447424,0.622635,-0.115521
21500,NaN,8.793045,4.437774,-1.127552,-0.663361,-0.220587,0.076307,0.567212,0.306375,1.475533,-0.623291,-0.547119,0.250732,0.087582,0.045057,-0.011283,0.999968,0.002836,0.001532,0.007378,-0.630313,-0.444420,0.624625,-0.122639
21501,NaN,8.885945,4.826057,-0.976877,-1.143733,-0.024784,0.281584,0.404909,0.226025,1.518695,-0.623779,-0.532227,0.244141,0.088478,0.048953,-0.009770,0.999968,0.002025,0.001130,0.007593,-0.629045,-0.440518,0.627231,-0.129719
21502,NaN,8.873039,4.576958,-1.071520,-1.015068,0.016474,0.177047,0.143223,0.142693,1.564443,-0.635010,-0.523438,0.241943,0.088361,0.046469,-0.010745,0.999969,0.000716,0.000713,0.007822,-0.628143,-0.435944,0.630121,-0.135412
