// Start Time: Unknown
// Update Rate: 100.0Hz
// Filter Profile: human (46.1)
// Firmware Version: 4.4.0
PacketCounter,SampleTimeFine,Acc_X,Acc_Y,Acc_Z,FreeAcc_X,FreeAcc_Y,FreeAcc_Z,Gyr_X,Gyr_Y,Gyr_Z,Mag_X,Mag_Y,Mag_Z,VelInc_X,VelInc_Y,VelInc_Z,OriInc_q0,OriInc_q1,OriInc_q2,OriInc_q3,Quat_q0,Quat_q1,Quat_q2,Quat_q3
37504,NaN,9.058129,3.242916,12.813631,0.000000,-0.000000,6.210565,-0.963669,1.883519,0.939966,-0.639893,0.070557,-0.749512,0.091626,0.033472,0.127117,0.999933,-0.004818,0.009417,0.004700,0.533195,-0.187415,-0.261173,-0.782539
37505,NaN,7.130276,2.946998,6.389074,0.000000,-0.000000,0.204430,-0.645038,1.714432,1.018973,-0.623291,0.079102,-0.747559,0.071694,0.030039,0.063181,0.999945,-0.003225,0.008572,0.005095,0.707532,-0.116127,-0.413702,-0.561038
37506,NaN,3.954204,3.038348,1.419034,2.156911,-1.951688,-5.520933,0.143108,1.532791,1.182529,-0.616943,0.085693,-0.758057,0.039469,0.030607,0.013910,0.999953,0.000716,0.007664,0.005913,0.650320,-0.149681,-0.328404,-0.668454
37507,NaN,-0.918603,2.108696,-7.694733,3.921481,-4.015962,-15.556625,1.087180,0.052109,1.347801,-0.616943,0.085449,-0.751709,-0.009350,0.021442,-0.076829,0.999962,0.005436,0.000261,0.006739,0.655699,-0.148180,-0.330847,-0.662300
37508,NaN,-2.187653,-5.905319,-9.106853,-3.262086,-4.718157,-19.282960,1.514001,-1.169375,1.444099,-0.627441,0.081299,-0.745361,-0.020918,-0.058514,-0.091637,0.999928,0.007570,-0.005847,0.007220,0.657938,-0.151676,-0.342003,-0.653564
37509,NaN,-1.381700,-11.829007,-4.278012,-10.161219,-3.056094,-16.707409,1.590055,-1.612298,1.430962,-0.637939,0.079102,-0.736816,-0.012621,-0.118038,-0.043824,0.999910,0.007950,-0.008061,0.007155,0.661004,-0.154147,-0.351387,-0.644856
37510,NaN,1.816484,-10.740415,4.046655,-11.530454,-0.112065,-8.375668,1.803958,-2.305919,1.585513,-0.658936,0.072510,-0.717773,0.018557,-0.107619,0.039709,0.999861,0.009019,-0.011529,0.007927,0.665533,-0.162446,-0.363697,-0.631190
37511,NaN,9.182682,-2.155187,5.909761,-4.279635,-2.835140,0.063171,1.761120,-2.855804,1.728733,-0.680176,0.072510,-0.700684,0.091157,-0.021289,0.060214,0.999822,0.008805,-0.014278,0.008643,0.667108,-0.168713,-0.377289,-0.619804
37512,NaN,15.345357,4.878884,-3.714287,5.215511,-12.134393,0.117229,2.004544,-2.846402,1.433296,-0.698975,0.063965,-0.681641,0.153600,0.050244,-0.034459,0.999823,0.010022,-0.014231,0.007166,0.671878,-0.178617,-0.390632,-0.603392
37513,NaN,15.828342,3.102733,-2.280987,3.161916,-11.431026,1.353364,2.304454,-2.270006,1.052736,-0.711426,0.059570,-0.668701,0.158359,0.032107,-0.020647,0.999855,0.011522,-0.011349,0.005263,0.672582,-0.179754,-0.404213,-0.593240
37514,NaN,19.051585,-2.174477,10.233349,-5.703953,-5.179443,10.510807,1.350697,-1.412185,1.144240,-0.719971,0.061768,-0.664551,0.189911,-0.021354,0.103531,0.999936,0.006753,-0.007061,0.005721,0.685794,-0.181815,-0.421995,-0.564402
37515,NaN,22.698753,-2.108423,14.037979,-6.960238,-4.460821,15.650923,0.474138,-0.358586,1.245292,-0.722168,0.065918,-0.654053,0.226862,-0.020005,0.140738,0.999976,0.002371,-0.001793,0.006226,0.688967,-0.183824,-0.423420,-0.558792
37516,NaN,16.473791,-6.013257,7.399885,-7.529030,-6.613533,6.369962,1.710820,-0.652427,0.973690,-0.726318,0.059570,-0.647461,0.164789,-0.059964,0.074023,0.999946,0.008554,-0.003262,0.004868,0.707524,-0.180740,-0.439657,-0.522919
37517,NaN,15.031409,-3.895328,3.962185,-4.253166,-7.344828,3.780614,2.929424,-1.749063,0.753812,-0.736328,0.042480,-0.636719,0.150110,-0.038975,0.040364,0.999847,0.014646,-0.008745,0.003769,0.708189,-0.176580,-0.452755,-0.512153
37518,NaN,13.574354,-2.577969,3.449092,-2.365871,-5.972105,2.897090,3.009248,-2.003002,0.594322,-0.748535,0.027344,-0.621826,0.135468,-0.025906,0.035459,0.999832,0.015045,-0.010014,0.002971,0.728082,-0.168107,-0.478687,-0.460973
37519,NaN,9.924858,-2.184800,2.837761,-2.253685,-4.201411,-0.400131,3.103190,-2.064184,0.515272,-0.769287,0.016602,-0.606934,0.099008,-0.022040,0.029059,0.999823,0.015515,-0.010320,0.002576,0.726808,-0.162771,-0.492836,-0.449854
37520,NaN,7.906328,-1.429721,2.320203,-1.283974,-2.903219,-2.075851,3.240425,-2.205966,0.691843,-0.777832,0.014404,-0.585693,0.078852,-0.014407,0.023840,0.999802,0.016201,-0.011029,0.003459,0.745991,-0.148690,-0.518757,-0.390231
37521,NaN,8.963794,0.217301,-1.342598,2.431136,-4.440151,-2.291422,2.749860,-2.172738,0.907889,-0.787842,0.003662,-0.570801,0.089765,0.002756,-0.012416,0.999836,0.013749,-0.010863,0.004539,0.744049,-0.145003,-0.531466,-0.378033
37522,NaN,11.054312,2.892458,-7.724430,9.743017,-5.944867,-2.069816,1.686092,-1.850102,0.950362,-0.796143,-0.002930,-0.558105,0.111109,0.030096,-0.075968,0.999910,0.008430,-0.009250,0.004752,0.759769,-0.132414,-0.551014,-0.318748
37523,NaN,11.182290,4.406453,-2.104777,6.413405,-1.476748,0.462084,0.898429,-2.069781,0.780856,-0.813232,0.003418,-0.532715,0.111858,0.044592,-0.019691,0.999929,0.004492,-0.010349,0.003904,0.755852,-0.134441,-0.559752,-0.311914
37524,NaN,9.883040,4.070132,3.844440,1.030517,2.701769,1.171408,1.164951,-2.412734,0.866916,-0.823975,0.007812,-0.517822,0.098178,0.040898,0.039869,0.999901,0.005825,-0.012063,0.004334,0.763899,-0.120133,-0.580745,-0.254482
37525,NaN,11.472200,3.673346,4.089690,0.644413,2.324441,2.677188,1.810296,-2.851459,1.067579,-0.838623,0.005615,-0.490234,0.113923,0.036961,0.042859,0.999843,0.009051,-0.014257,0.005338,0.757946,-0.119928,-0.593207,-0.243395
37526,NaN,14.526843,6.782939,-0.116515,5.775814,3.416779,4.747263,1.455551,-2.762829,1.298473,-0.853516,0.009766,-0.467041,0.144817,0.068767,0.001336,0.999857,0.007277,-0.013813,0.006492,0.758974,-0.108534,-0.610809,-0.197717
37527,NaN,14.322754,10.180846,-2.064671,8.529178,6.146310,4.417371,2.220401,-2.555336,1.437556,-0.862061,0.013916,-0.450195,0.142728,0.103043,-0.017681,0.999831,0.011101,-0.012776,0.007187,0.753668,-0.107006,-0.621817,-0.184061
37528,NaN,13.384065,9.228712,-0.000609,5.370415,7.012526,3.834455,2.990021,-2.771320,1.662237,-0.874756,0.016113,-0.424561,0.133038,0.093363,0.003232,0.999758,0.014949,-0.013855,0.008311,0.749057,-0.095747,-0.637837,-0.151357
37529,NaN,11.402090,6.234159,1.674794,2.000795,5.408034,1.951490,2.529795,-3.313450,2.337342,-0.892090,0.032959,-0.397217,0.112977,0.063432,0.019423,0.999714,0.012648,-0.016566,0.011686,0.741257,-0.096206,-0.650859,-0.132908
37530,NaN,12.618703,4.687497,1.605568,1.220873,4.266256,2.995559,1.390193,-3.646383,3.278737,-0.899170,0.058594,-0.357178,0.125073,0.048808,0.018678,0.999675,0.006950,-0.018230,0.016392,0.730035,-0.103412,-0.665391,-0.116662
37531,NaN,15.061387,4.189367,1.516159,0.925112,4.290289,5.266234,0.707703,-4.136602,3.304526,-0.912598,0.086426,-0.325684,0.149537,0.044309,0.018416,0.999643,0.003538,-0.020681,0.016521,0.718307,-0.114197,-0.678955,-0.100067
37532,NaN,20.008262,5.942552,1.637654,1.081118,6.575505,10.032506,-0.294684,-4.220277,2.817999,-0.919434,0.109863,-0.289795,0.198815,0.062261,0.020491,0.999677,-0.001473,-0.021099,0.014088,0.702379,-0.130869,-0.692538,-0.099643
37533,NaN,21.039609,7.106918,2.574147,-0.060566,8.769624,10.749454,-0.896698,-4.511257,2.039177,-0.930420,0.129150,-0.241455,0.209009,0.073334,0.030141,0.999684,-0.004483,-0.022554,0.010195,0.686966,-0.143284,-0.706379,-0.092604
37534,NaN,18.802480,4.073542,6.387102,-5.088881,7.518201,8.309786,-0.422712,-4.622230,1.411851,-0.937012,0.144043,-0.213867,0.186189,0.042195,0.068100,0.999706,-0.002113,-0.023109,0.007059,0.667739,-0.161850,-0.718514,-0.108018
37535,NaN,15.509307,2.078278,9.398061,-8.997066,6.999584,4.441687,-0.142984,-4.049191,1.633487,-0.935303,0.160889,-0.176025,0.152971,0.022107,0.097077,0.999761,-0.000715,-0.020244,0.008167,0.653800,-0.170344,-0.730461,-0.099776
37536,NaN,14.237818,2.885917,10.411315,-9.408864,8.677598,2.660060,-0.544251,-3.460224,1.938226,-0.935791,0.184326,-0.140381,0.140259,0.030513,0.106471,0.999800,-0.002721,-0.017300,0.009690,0.640005,-0.194762,-0.733775,-0.118468
37537,NaN,13.324169,2.196248,8.302267,-7.954911,7.455888,1.693248,-0.355088,-3.087206,1.841331,-0.938232,0.199463,-0.123535,0.131729,0.023330,0.085023,0.999837,-0.001775,-0.015435,0.009206,0.629320,-0.204451,-0.741531,-0.110853
37538,NaN,13.313959,1.933356,7.383359,-6.936818,7.350381,1.734954,0.611348,-2.761144,1.315499,-0.942871,0.214355,-0.100342,0.131973,0.019975,0.075721,0.999878,0.003057,-0.013805,0.006577,0.619819,-0.227528,-0.739099,-0.133372
37539,NaN,13.252569,1.212347,4.183795,-4.721297,5.412535,2.146111,-0.098350,-1.586087,0.927030,-0.940918,0.222900,-0.092041,0.132130,0.012757,0.042881,0.999958,-0.000492,-0.007930,0.004635,0.614437,-0.232306,-0.742863,-0.129052
37540,NaN,8.966398,0.985903,4.158808,-3.863172,4.670303,-1.943345,-1.535781,-0.885947,0.573787,-0.937012,0.231445,-0.075195,0.089449,0.010437,0.041906,0.999957,-0.007679,-0.004430,0.002869,0.609496,-0.260802,-0.730154,-0.165447
37541,NaN,7.167450,-0.059008,12.532372,-10.954672,8.322723,-5.435598,-1.223902,-1.229373,0.045338,-0.936768,0.229248,-0.062500,0.070902,0.000195,0.125762,0.999962,-0.006119,-0.006147,0.000227,0.603426,-0.265704,-0.732801,-0.168167
37542,NaN,7.633118,1.418690,16.725455,-12.470746,12.908551,-5.585765,0.480658,0.535869,0.339736,-0.932861,0.235596,-0.079346,0.076755,0.013915,0.167083,0.999992,0.002403,0.002679,0.001699,0.605764,-0.284818,-0.715768,-0.199007
37543,NaN,7.890375,4.445648,7.480651,-3.550698,9.332313,-3.625903,1.756697,3.022356,0.565152,-0.928955,0.242188,-0.121826,0.079901,0.044029,0.073992,0.999843,0.008783,0.015111,0.002826,0.619549,-0.278468,-0.707446,-0.195282
37544,NaN,3.235933,6.106567,-2.147482,5.698064,3.203284,-6.707424,1.683950,4.302264,0.424240,-0.927246,0.250977,-0.159912,0.031765,0.061315,-0.021647,0.999731,0.008419,0.021509,0.002121,0.635367,-0.294568,-0.673900,-0.235365
37545,NaN,-3.081149,7.002892,-4.432175,8.068683,1.687664,-13.009876,0.226525,3.958022,0.055341,-0.923096,0.246826,-0.185303,-0.031699,0.070070,-0.043621,0.999804,0.001133,0.019789,0.000277,0.648977,-0.289319,-0.661379,-0.240209
37546,NaN,-7.959826,9.749951,1.750313,5.950222,7.496800,-18.171883,-1.829929,2.831228,-0.145512,-0.916748,0.250977,-0.202148,-0.079277,0.097719,0.017733,0.999858,-0.009149,0.014155,-0.000728,0.651342,-0.306253,-0.633893,-0.283094
37547,NaN,-4.395516,6.601116,6.039933,1.011491,8.808076,-14.369634,-2.475891,0.821706,-0.776034,-0.921143,0.249023,-0.202148,-0.043450,0.066923,0.059754,0.999907,-0.012379,0.004108,-0.003880,0.648996,-0.310665,-0.628842,-0.294701
37548,NaN,3.870209,-1.793479,7.714635,-5.671691,5.235123,-5.554311,-2.412690,1.513465,-1.266710,-0.914551,0.242432,-0.221191,0.039175,-0.017252,0.077062,0.999879,-0.012063,0.007567,-0.006333,0.640916,-0.326905,-0.604340,-0.342246
37549,NaN,7.787528,-4.604700,2.165026,-4.687016,-1.185947,-1.865621,-0.994806,3.837725,-0.285377,-0.906250,0.244873,-0.259277,0.078209,-0.046055,0.020381,0.999803,-0.004974,0.019187,-0.001427,0.650271,-0.322599,-0.590687,-0.352371
37550,NaN,5.845070,-6.728489,-4.333368,-3.456182,-7.740928,-4.680568,-0.073533,4.705451,-0.058158,-0.897949,0.244873,-0.293213,0.057391,-0.067318,-0.044668,0.999723,-0.000368,0.023525,-0.000291,0.656066,-0.327208,-0.556839,-0.390439
37551,NaN,7.652913,-6.837994,-4.191134,-3.392726,-8.152186,-3.110941,0.427717,3.064772,-0.788655,-0.893555,0.238525,-0.320557,0.075603,-0.068588,-0.043221,0.999873,0.002138,0.015323,-0.003943,0.663676,-0.317584,-0.548840,-0.396799
37552,NaN,14.988982,-0.466067,6.124126,-1.941219,1.991231,6.144917,0.616167,1.962334,-1.352882,-0.893311,0.221436,-0.331055,0.150444,-0.005863,0.059750,0.999924,0.003081,0.009811,-0.006764,0.662646,-0.315100,-0.534024,-0.420035
37553,NaN,23.410457,9.081752,-1.259464,10.440808,-2.535412,12.916816,-0.072158,2.621086,-1.600732,-0.884521,0.212891,-0.358398,0.234629,0.088936,-0.015700,0.999882,-0.000361,0.013105,-0.008003,0.666092,-0.305523,-0.527647,-0.429611
37554,NaN,20.125364,7.046553,-4.189373,9.415098,-6.446311,8.680193,1.767992,3.626096,-2.725112,-0.881592,0.180908,-0.396240,0.201396,0.068110,-0.044935,0.999704,0.008839,0.018129,-0.013624,0.667155,-0.290407,-0.514168,-0.454092
37555,NaN,23.360172,-7.192613,0.228945,-5.458558,-10.536238,11.553790,1.238461,3.565482,-3.966606,-0.872314,0.146729,-0.429932,0.232100,-0.076535,-0.002322,0.999625,0.006192,0.017825,-0.019831,0.668863,-0.267877,-0.510653,-0.469145
37556,NaN,17.158990,-3.120683,5.354300,-4.502539,-3.297524,7.555097,-0.910072,4.043106,-2.609798,-0.861328,0.127441,-0.459473,0.172203,-0.033218,0.050214,0.999700,-0.004550,0.020214,-0.013048,0.669079,-0.257692,-0.493748,-0.492078
37557,NaN,17.042630,-2.112350,1.933357,-2.288477,-6.438881,6.058849,-1.297271,3.993105,-2.512825,-0.839844,0.119141,-0.491211,0.170487,-0.023154,0.016076,0.999701,-0.006486,0.019964,-0.012563,0.670883,-0.245928,-0.480289,-0.508683
37558,NaN,17.336294,-3.971167,2.262537,-4.251964,-7.658834,5.828589,-0.313986,3.705749,-2.629099,-0.826904,0.104248,-0.516357,0.173202,-0.041957,0.019480,0.999741,-0.001570,0.018527,-0.013144,0.671850,-0.233015,-0.467493,-0.525140
37559,NaN,17.459593,-0.314072,3.345144,-1.502218,-6.249863,6.763325,0.281286,3.011968,-2.791035,-0.817627,0.076416,-0.537354,0.175006,-0.005626,0.030811,0.999788,0.001406,0.015059,-0.013954,0.671747,-0.217589,-0.461267,-0.537256
37560,NaN,21.151197,-1.287203,0.482460,-1.619901,-11.269059,8.064456,0.441168,1.343781,-3.565075,-0.810303,0.044189,-0.547852,0.211264,-0.016648,0.003371,0.999816,0.002206,0.006718,-0.017824,0.667215,-0.205171,-0.461021,-0.547895
37561,NaN,26.149329,-4.885075,1.618608,-6.177777,-14.618080,11.596266,1.248056,0.426176,-3.431269,-0.805420,0.020752,-0.547607,0.260636,-0.053425,0.015306,0.999831,0.006240,0.002131,-0.017155,0.659965,-0.191896,-0.466460,-0.556809
37562,NaN,25.893700,4.589444,4.065508,1.158876,-9.833194,14.885586,-2.500702,0.018024,-2.825526,-0.809326,0.012207,-0.555908,0.259559,0.042734,0.040084,0.999822,-0.012503,0.000090,-0.014127,0.655299,-0.192747,-0.464325,-0.563768
37563,NaN,21.830196,-3.542079,3.170368,-6.131606,-10.919872,8.688450,-1.674144,1.185384,-2.443357,-0.802979,0.007812,-0.560303,0.218034,-0.037826,0.030721,0.999873,-0.008370,0.005927,-0.012216,0.649467,-0.189194,-0.458017,-0.576731
37564,NaN,18.098175,-7.261656,4.743561,-9.872620,-8.810909,5.275790,-1.312349,0.896121,-2.455296,-0.793945,-0.004883,-0.568604,0.180286,-0.074523,0.047112,0.999893,-0.006562,0.004480,-0.012276,0.651066,-0.183800,-0.457540,-0.577051
37565,NaN,15.005808,-7.704293,5.374771,-10.524168,-6.684869,2.755779,-2.186090,1.270331,-2.469937,-0.785645,-0.002686,-0.583496,0.149437,-0.078304,0.053649,0.999844,-0.010930,0.006351,-0.012349,0.644736,-0.181572,-0.449296,-0.591169
37566,NaN,12.996987,-3.167317,4.483262,-5.735812,-5.203030,1.980449,-2.969925,1.695203,-2.424820,-0.775146,-0.004883,-0.602539,0.129955,-0.032589,0.044210,0.999780,-0.014849,0.008475,-0.012123,0.647637,-0.179952,-0.441110,-0.594647
37567,NaN,10.439045,2.114476,4.262176,-0.582418,-2.814322,1.293341,-3.171842,1.694624,-2.403178,-0.764648,0.001709,-0.617432,0.104994,0.020549,0.041405,0.999766,-0.015858,0.008472,-0.012015,0.641225,-0.179842,-0.428252,-0.610809
37568,NaN,8.303861,3.602414,4.948308,0.910200,-0.823757,0.429517,-3.331842,1.522384,-2.481133,-0.756348,0.001709,-0.623779,0.083854,0.035798,0.048249,0.999755,-0.016658,0.007611,-0.012405,0.643103,-0.180017,-0.419338,-0.614953
37569,NaN,5.742960,3.662663,5.067171,1.248547,0.648612,-1.440805,-3.177364,1.249093,-2.442456,-0.739502,0.008057,-0.634521,0.058190,0.036714,0.049727,0.999780,-0.015886,0.006245,-0.012211,0.635211,-0.181232,-0.407659,-0.630457
37570,NaN,3.393840,3.234654,4.397698,1.390722,1.523359,-3.724682,-2.700021,0.906882,-2.173722,-0.737549,0.010254,-0.645020,0.034489,0.032562,0.043383,0.999840,-0.013499,0.004534,-0.010868,0.635902,-0.182228,-0.401807,-0.633224
37571,NaN,1.394167,2.537772,2.856254,1.463967,1.492140,-6.323877,-2.162011,0.459940,-1.676974,-0.733398,0.016602,-0.643066,0.014221,0.025566,0.028254,0.999904,-0.010810,0.002300,-0.008385,0.629486,-0.184259,-0.394988,-0.643257
37572,NaN,-0.493387,2.098929,0.471939,1.944214,0.920886,-9.319242,-1.703751,-0.086180,-1.147271,-0.735596,0.018799,-0.653564,-0.004815,0.021056,0.004538,0.999947,-0.008519,-0.000431,-0.005736,0.630997,-0.187398,-0.393859,-0.641560
37573,NaN,-1.946403,0.349641,-1.832351,1.065145,-0.046216,-12.288878,-0.793667,-0.813610,-0.677300,-0.744141,0.018799,-0.643066,-0.019377,0.003489,-0.018416,0.999978,-0.003968,-0.004068,-0.003386,0.626465,-0.191174,-0.394505,-0.644484
37574,NaN,-2.523802,-0.658665,-3.412043,0.581283,-0.997732,-13.949340,0.184871,-1.131774,-0.143604,-0.752441,0.016602,-0.630127,-0.025049,-0.006537,-0.034269,0.999983,0.000924,-0.005659,-0.000718,0.630055,-0.193495,-0.401488,-0.635924
37575,NaN,-3.482242,-1.207340,-5.591257,0.764582,-2.144237,-16.110544,0.621426,-1.001556,0.481057,-0.754883,0.025146,-0.625977,-0.034513,-0.011982,-0.056123,0.999980,0.003107,-0.005008,0.002405,0.630162,-0.195684,-0.406145,-0.632178
37576,NaN,-5.590189,-3.650750,-7.373841,-0.806170,-2.629933,-19.372175,0.669801,-0.924780,1.083205,-0.756836,0.025146,-0.619629,-0.055362,-0.036561,-0.074118,0.999969,0.003349,-0.004624,0.005416,0.637785,-0.198159,-0.412671,-0.619408
37577,NaN,-5.210706,-5.584230,-7.281590,-2.755280,-3.231606,-19.472871,-0.039475,-0.999147,1.423862,-0.768066,0.042236,-0.617676,-0.051343,-0.056224,-0.073063,0.999962,-0.000197,-0.004996,0.007119,0.640070,-0.204310,-0.414308,-0.613935
37578,NaN,-4.140365,-6.408646,-6.673134,-3.897831,-3.801803,-18.362140,-1.219011,-1.098260,1.485565,-0.772949,0.063721,-0.611572,-0.040558,-0.064796,-0.066562,0.999939,-0.006095,-0.005491,0.007428,0.646447,-0.213999,-0.415212,-0.603249
37579,NaN,-3.663590,-5.767439,-5.148809,-3.897593,-2.875492,-16.864810,-1.551534,-1.159887,1.446472,-0.777588,0.076660,-0.598877,-0.035918,-0.058334,-0.051247,0.999927,-0.007757,-0.005799,0.007232,0.646695,-0.225500,-0.412702,-0.600510
37580,NaN,-2.435888,-3.065776,-3.678609,-1.848285,-2.099115,-14.399746,-0.937958,-1.490818,1.348243,-0.786377,0.093750,-0.592529,-0.023876,-0.030992,-0.036820,0.999938,-0.004690,-0.007454,0.006741,0.651849,-0.235203,-0.415894,-0.588901
37581,NaN,0.182120,-1.278062,-1.536745,-0.831745,-1.587229,-10.716560,-0.055049,-1.624501,0.922744,-0.794922,0.097900,-0.575684,0.002005,-0.012776,-0.015348,0.999956,-0.000275,-0.008122,0.004614,0.651095,-0.242075,-0.419922,-0.584072
37582,NaN,1.850861,-0.938310,0.099463,-0.968461,-1.141318,-8.372045,0.490122,-1.163232,0.522893,-0.801270,0.091553,-0.571533,0.018527,-0.009337,0.001079,0.999977,0.002451,-0.005816,0.002614,0.655793,-0.244198,-0.427166,-0.572566
37583,NaN,2.016377,-1.994583,5.165713,-3.414609,2.643698,-5.802706,0.451450,-0.526880,0.179369,-0.799072,0.095703,-0.571533,0.020046,-0.020044,0.051665,0.999994,0.002257,-0.002634,0.000897,0.655729,-0.244608,-0.429964,-0.570366
37584,NaN,1.156946,-3.165212,15.481933,-7.600533,11.108841,-1.453742,-0.338902,0.653055,-0.234878,-0.795166,0.097900,-0.586182,0.012038,-0.031404,0.154834,0.999993,-0.001695,0.003265,-0.001174,0.660907,-0.242394,-0.429411,-0.565732
37585,NaN,10.395531,-1.899282,25.566500,-9.422080,14.325679,11.896696,0.179947,1.865942,-0.388912,-0.782227,0.089355,-0.605225,0.106297,-0.019427,0.254663,0.999954,0.000900,0.009330,-0.001945,0.664002,-0.235676,-0.424206,-0.568866
37586,NaN,20.217888,-3.146567,20.010919,-9.226703,3.214881,17.084520,3.760964,3.883064,-0.352883,-0.760010,0.052979,-0.628418,0.205944,-0.035532,0.195492,0.999633,0.018803,0.019413,-0.001764,0.678581,-0.211198,-0.422169,-0.562758
37587,NaN,8.459041,-7.901596,-13.232822,-2.371206,-17.269893,-12.070253,7.161459,2.582177,-0.756336,-0.748047,0.005859,-0.636475,0.082561,-0.074501,-0.136125,0.999269,0.035799,0.012908,-0.003781,0.688967,-0.177891,-0.434046,-0.552524
37588,NaN,34.583627,-10.298896,-1.048424,-8.214669,-25.499745,14.381900,5.973214,0.981171,-1.578490,-0.742432,-0.039062,-0.644531,0.344944,-0.105305,-0.015300,0.999511,0.029861,0.004905,-0.007891,0.695383,-0.150933,-0.448340,-0.540974
37589,NaN,29.117296,-1.539652,13.924795,-7.664799,-9.210744,20.194421,1.360419,1.437760,-2.151163,-0.729248,-0.051758,-0.663574,0.291969,-0.019471,0.137028,0.999893,0.006802,0.007189,-0.010755,0.693741,-0.137477,-0.448596,-0.546430
37590,NaN,9.351986,-2.444581,-4.593338,0.199817,-9.950837,-5.878959,-0.228116,0.626695,-0.821162,-0.724854,-0.058350,-0.657227,0.093274,-0.024882,-0.046198,0.999986,-0.001141,0.003133,-0.004106,0.698638,-0.133865,-0.447500,-0.541968
37591,NaN,12.580227,-7.502164,-14.640487,1.025513,-20.674204,-10.394672,4.814262,-1.548790,1.363997,-0.740967,-0.083984,-0.637939,0.127432,-0.070620,-0.147158,0.999657,0.024069,-0.007743,0.006819,0.701851,-0.124253,-0.464887,-0.525210
37592,NaN,11.578999,-3.449455,-9.598382,3.063216,-14.776814,-6.607478,7.943421,-2.196139,2.054378,-0.752686,-0.114258,-0.612305,0.117164,-0.029484,-0.095940,0.999098,0.039705,-0.010977,0.010269,0.713187,-0.104651,-0.493484,-0.486709
37593,NaN,8.125139,4.568531,-13.710785,12.507404,-10.751733,-8.160788,6.455904,-1.558322,2.280914,-0.766846,-0.137695,-0.595215,0.081747,0.050994,-0.134883,0.999384,0.032273,-0.007790,0.011402,0.717831,-0.090989,-0.513250,-0.461535
37594,NaN,7.257829,8.120615,-13.850162,15.901451,-7.080488,-7.097779,5.178958,-1.434122,2.220695,-0.781494,-0.144287,-0.567627,0.072625,0.085553,-0.135803,0.999577,0.025891,-0.007170,0.011102,0.728195,-0.077594,-0.531171,-0.426109
37595,NaN,8.401268,5.305372,-11.316503,12.371629,-7.426820,-5.506222,2.200914,-3.005851,2.151997,-0.802734,-0.135742,-0.548584,0.085109,0.055197,-0.111292,0.999769,0.011004,-0.015028,0.010759,0.725483,-0.081683,-0.545846,-0.411163
37596,NaN,12.895390,4.709860,-8.542071,10.415874,-7.808362,-0.223501,-0.980064,-4.093088,2.055449,-0.826660,-0.112305,-0.519043,0.130179,0.048022,-0.082999,0.999726,-0.004900,-0.020464,0.010276,0.723692,-0.094847,-0.560475,-0.391334
37597,NaN,19.286314,5.582578,-3.058931,7.139262,-6.553375,8.034468,-3.010066,-4.376622,2.213706,-0.855225,-0.075928,-0.487549,0.192853,0.057534,-0.027226,0.999586,-0.015048,-0.021880,0.011067,0.714033,-0.120465,-0.569139,-0.389521
37598,NaN,25.856061,14.267176,-2.425108,12.951148,-1.739559,16.779630,-2.205323,-3.490835,2.352957,-0.862305,-0.054688,-0.466553,0.257250,0.145458,-0.021347,0.999718,-0.011026,-0.017453,0.011764,0.712363,-0.136609,-0.579454,-0.371632
37599,NaN,22.486787,11.897060,-0.659515,9.782689,-0.193109,13.678548,0.250736,-2.499862,2.173746,-0.879639,-0.039551,-0.447510,0.223615,0.121411,-0.003644,0.999862,0.001254,-0.012499,0.010868,0.709233,-0.146642,-0.587259,-0.361403
37600,NaN,18.635584,3.399697,7.803926,-2.609112,1.437676,10.455871,1.421054,-3.243679,2.487339,-0.890625,-0.022461,-0.415771,0.184618,0.035730,0.081293,0.999766,0.007105,-0.016217,0.012436,0.709546,-0.148414,-0.603313,-0.332461
37601,NaN,18.553376,4.400339,8.540992,-2.913647,3.536356,10.569458,2.312298,-4.612811,3.137189,-0.909912,-0.005615,-0.375732,0.182781,0.045861,0.090170,0.999544,0.011560,-0.023061,0.015684,0.702240,-0.157275,-0.620917,-0.310783
37602,NaN,17.375259,3.397058,4.816576,-1.145496,1.794696,8.409556,1.565132,-3.495702,2.766243,-0.918945,0.013672,-0.356934,0.172384,0.035967,0.051463,0.999721,0.007825,-0.017477,0.013830,0.699960,-0.159757,-0.636586,-0.281588
37603,NaN,16.885452,1.930062,4.282295,-1.774214,1.092469,7.588777,-0.892069,-2.305556,2.379464,-0.923828,0.039307,-0.331543,0.168100,0.021500,0.044671,0.999853,-0.004460,-0.011527,0.011897,0.695156,-0.173676,-0.641405,-0.274216
37604,NaN,15.072393,4.867449,5.214578,-0.933700,4.920005,6.091771,-0.800940,-2.447522,2.658357,-0.935303,0.067139,-0.312744,0.149406,0.050879,0.053779,0.999829,-0.004004,-0.012237,0.013291,0.692859,-0.182296,-0.649595,-0.254441
37605,NaN,15.802274,5.569267,7.851676,-2.769144,7.560903,6.845331,0.515880,-3.462464,2.519064,-0.931396,0.082031,-0.283203,0.155914,0.057458,0.081375,0.999768,0.002579,-0.017311,0.012594,0.685127,-0.193055,-0.659799,-0.240823
37606,NaN,18.770357,8.086491,10.513231,-4.093007,11.535562,9.638957,0.379277,-3.161036,1.700296,-0.940186,0.096924,-0.262207,0.185314,0.082244,0.108229,0.999837,0.001896,-0.015804,0.008501,0.680187,-0.191984,-0.673021,-0.218014
37607,NaN,17.415579,4.317623,10.910539,-6.661860,9.139606,7.880822,-0.945346,-0.938558,1.170219,-0.940430,0.109863,-0.258057,0.173383,0.044710,0.109711,0.999961,-0.004727,-0.004693,0.005851,0.677370,-0.200155,-0.674034,-0.216304
37608,NaN,13.054642,1.499678,5.552581,-3.800620,4.045667,3.328403,-1.422863,0.456176,0.830525,-0.932373,0.120605,-0.266602,0.130608,0.015932,0.055117,0.999963,-0.007114,0.002281,0.004153,0.681281,-0.198605,-0.673209,-0.207850
37609,NaN,10.308871,-3.754955,2.887705,-4.393537,-1.639286,0.517814,-1.117536,-0.161729,0.905326,-0.938965,0.129150,-0.264648,0.103233,-0.036920,0.029168,0.999974,-0.005588,-0.000809,0.004527,0.680549,-0.205625,-0.671683,-0.208360
37610,NaN,6.714828,-4.060824,3.704674,-5.252382,-1.379136,-3.044275,-0.813207,-1.564173,1.409729,-0.935303,0.148438,-0.252197,0.067138,-0.039982,0.037735,0.999936,-0.004066,-0.007821,0.007048,0.678559,-0.206312,-0.677589,-0.194595
37611,NaN,7.001054,-0.356027,5.472801,-4.753719,2.862330,-2.862880,-0.152998,-1.415162,1.607457,-0.939941,0.163330,-0.245850,0.069646,-0.002957,0.055224,0.999942,-0.000765,-0.007076,0.008037,0.675131,-0.213644,-0.680544,-0.188186
37612,NaN,7.069057,2.318779,3.477787,-1.706951,4.108392,-2.909783,0.738482,-0.032253,1.483115,-0.927490,0.174072,-0.250244,0.070511,0.023582,0.034876,0.999966,0.003692,-0.000161,0.007415,0.679200,-0.209219,-0.682057,-0.172377
37613,NaN,4.293848,4.904130,0.603699,2.076094,4.741851,-5.805662,0.969894,0.495033,1.208098,-0.925537,0.180420,-0.258789,0.042656,0.049270,0.006170,0.999967,0.004849,0.002475,0.006040,0.682920,-0.209614,-0.679926,-0.165477
37614,NaN,0.562766,4.987418,1.066417,1.529924,4.893104,-9.600945,0.746908,0.366231,1.102277,-0.926025,0.193359,-0.269287,0.005373,0.049864,0.010840,0.999976,0.003735,0.001831,0.005511,0.687473,-0.204040,-0.680119,-0.152274
37615,NaN,-1.112122,4.901288,2.621328,0.040915,5.463905,-11.320846,0.652392,0.754768,1.152666,-0.917725,0.199951,-0.280029,-0.011304,0.048862,0.026415,0.999971,0.003262,0.003774,0.005763,0.691562,-0.205139,-0.676826,-0.146856
37616,NaN,-1.135113,6.281498,5.172756,-1.703381,7.864839,-11.469689,0.307422,1.915161,1.244514,-0.911865,0.212891,-0.301270,-0.011245,0.062665,0.051932,0.999934,0.001537,0.009576,0.006222,0.700380,-0.201864,-0.670597,-0.137909
37617,NaN,-2.069606,5.979726,5.200705,-1.972368,7.546893,-12.310883,-0.207575,2.998331,1.084835,-0.897461,0.219238,-0.328857,-0.020238,0.059741,0.052251,0.999872,-0.001038,0.014991,0.005424,0.710881,-0.204137,-0.658775,-0.137813
37618,NaN,-0.605043,4.622520,4.456993,-1.897233,6.108108,-10.642756,-0.459062,3.198519,0.667325,-0.886963,0.223633,-0.356445,-0.005492,0.046309,0.044555,0.999864,-0.002295,0.015992,0.003336,0.722281,-0.201698,-0.647458,-0.135742
37619,NaN,1.046239,1.497735,3.538593,-2.274412,3.042029,-8.616224,-0.282774,3.092702,0.253997,-0.872314,0.225830,-0.381836,0.010989,0.015041,0.035197,0.999879,-0.001414,0.015463,0.001270,0.732091,-0.201420,-0.635764,-0.138840
37620,NaN,2.258793,-0.913528,2.672483,-2.382673,0.524408,-7.143282,0.455492,3.002337,0.066087,-0.867920,0.217529,-0.411377,0.022989,-0.009188,0.026361,0.999885,0.002277,0.015011,0.000330,0.743055,-0.193798,-0.626050,-0.135548
37621,NaN,4.429921,-0.435040,0.799033,-0.038285,0.132565,-5.292586,0.976281,2.941028,0.215905,-0.855225,0.213135,-0.441162,0.044415,-0.004339,0.007317,0.999879,0.004881,0.014705,0.001079,0.753263,-0.188833,-0.615501,-0.134521
37622,NaN,6.351273,-1.291063,-2.204512,2.828743,-1.938428,-3.888154,1.741232,3.578520,0.407583,-0.836182,0.211182,-0.466553,0.063129,-0.012583,-0.023288,0.999800,0.008706,0.017891,0.002038,0.767203,-0.176011,-0.604040,-0.124722
37623,NaN,6.166057,-3.509045,0.803725,-0.538351,-2.760910,-3.250520,1.568952,3.093821,0.315553,-0.823486,0.207031,-0.496094,0.061828,-0.035050,0.006807,0.999848,0.007844,0.015468,0.001578,0.778007,-0.168992,-0.592782,-0.121475
37624,NaN,8.333677,0.675842,6.743133,-3.372190,3.346723,-0.179550,0.866600,2.725460,-0.033765,-0.812744,0.202637,-0.515137,0.084247,0.006455,0.066316,0.999898,0.004333,0.013627,-0.000169,0.787417,-0.160687,-0.583466,-0.117140
37625,NaN,19.830714,8.194778,8.707899,1.385794,10.840328,10.602469,-0.922321,2.064133,-1.116221,-0.795654,0.196289,-0.527832,0.199644,0.081230,0.084647,0.999921,-0.004611,0.010320,-0.005581,0.791980,-0.159842,-0.575651,-0.125872
37626,NaN,27.537110,14.582329,-6.029006,19.577974,10.117491,13.023084,-1.869446,3.189854,-2.136567,-0.780518,0.181396,-0.557373,0.275881,0.142278,-0.066029,0.999772,-0.009347,0.015948,-0.010682,0.798677,-0.157080,-0.563844,-0.139716
37627,NaN,24.097231,0.332742,-4.513569,11.933840,-3.219218,11.359512,-0.253629,2.998791,-3.830833,-0.773193,0.149414,-0.572021,0.240264,-0.001340,-0.048742,0.999703,-0.001268,0.014992,-0.019152,0.804018,-0.145155,-0.554535,-0.158038
37628,NaN,21.364904,-13.622296,8.027067,-5.307556,-11.478774,13.564041,-1.895765,1.892846,-4.008117,-0.766602,0.140869,-0.586670,0.211627,-0.139721,0.079575,0.999709,-0.009478,0.009463,-0.020039,0.805540,-0.136653,-0.549039,-0.176035
37629,NaN,20.720472,-3.698941,3.994674,2.183191,-4.724144,10.968425,-2.460100,3.323199,-2.064727,-0.739014,0.134521,-0.612061,0.207442,-0.038663,0.036970,0.999733,-0.012299,0.016615,-0.010323,0.810948,-0.137934,-0.534755,-0.193324
37630,NaN,16.829827,-6.955088,-2.608511,5.145526,-10.331388,4.510067,0.616144,4.486565,-1.851715,-0.715088,0.115234,-0.639648,0.167001,-0.071013,-0.030059,0.999701,0.003080,0.022431,-0.009258,0.822029,-0.124211,-0.518766,-0.199303
37631,NaN,16.318902,-0.933489,2.839784,3.736019,-3.152651,6.040020,1.562248,3.645150,-1.277283,-0.695557,0.095947,-0.671143,0.163605,-0.010585,0.025339,0.999783,0.007811,0.018224,-0.006386,0.831002,-0.110820,-0.506024,-0.202719
37632,NaN,14.695977,-0.033135,1.355143,4.997816,-2.963218,3.753100,0.732592,2.735853,-1.794121,-0.678223,0.081055,-0.679688,0.147116,-0.001695,0.011535,0.999859,0.003663,0.013679,-0.008970,0.837259,-0.098301,-0.496849,-0.206094
37633,NaN,18.577081,-4.307631,-1.436498,7.008658,-9.227086,5.400515,1.229254,0.900871,-2.717463,-0.677490,0.055420,-0.685791,0.185095,-0.045502,-0.015474,0.999879,0.006146,0.004504,-0.013587,0.837199,-0.085466,-0.495621,-0.214832
37634,NaN,22.554562,1.712524,2.039035,8.389918,-4.146994,10.879916,0.736768,-0.373657,-2.396000,-0.670898,0.046875,-0.689941,0.225690,0.014346,0.020868,0.999920,0.003684,-0.001868,-0.011980,0.834263,-0.076060,-0.499230,-0.221338
37635,NaN,23.378749,4.580221,4.586464,7.818299,-1.412528,13.109823,-2.283282,0.384482,-2.150581,-0.666748,0.053223,-0.694336,0.234353,0.043801,0.044907,0.999875,-0.011416,0.001922,-0.010752,0.831870,-0.079783,-0.495856,-0.236123
37636,NaN,22.879274,-0.337511,3.819048,5.885364,-6.267079,11.733400,-3.116777,0.871178,-1.995802,-0.662842,0.061768,-0.696533,0.228911,-0.005074,0.037264,0.999819,-0.015583,0.004356,-0.009978,0.829857,-0.087482,-0.489325,-0.253467
37637,NaN,18.818740,-4.696875,3.598094,2.169927,-9.035181,7.588483,-3.494535,1.056422,-2.269141,-0.648193,0.072510,-0.707275,0.187833,-0.048474,0.035826,0.999769,-0.017471,0.005282,-0.011345,0.827846,-0.095072,-0.481394,-0.271832
37638,NaN,14.847814,-6.836200,3.289437,-0.532723,-9.711695,3.729927,-4.031860,1.375701,-2.741262,-0.638184,0.087646,-0.711426,0.147757,-0.069722,0.033273,0.999679,-0.020157,0.006878,-0.013705,0.824907,-0.103787,-0.471496,-0.294021
37639,NaN,11.262721,-2.715186,1.921372,1.293829,-5.791249,0.321152,-4.291466,1.712725,-2.880533,-0.632080,0.098389,-0.720215,0.112387,-0.028365,0.018851,0.999629,-0.021455,0.008563,-0.014401,0.822178,-0.112141,-0.459446,-0.316794
37640,NaN,7.143320,-0.666399,3.084577,0.174857,-2.087047,-2.289513,-4.136050,1.646540,-2.830812,-0.617920,0.115479,-0.728760,0.071587,-0.007045,0.030400,0.999652,-0.020678,0.008232,-0.014152,0.818590,-0.120423,-0.447712,-0.339061
37641,NaN,3.253285,-0.768745,5.139311,-2.611406,0.587147,-4.297081,-4.053291,0.902793,-2.719470,-0.611816,0.128418,-0.728760,0.032666,-0.007089,0.051394,0.999692,-0.020264,0.004514,-0.013596,0.813308,-0.129359,-0.438647,-0.359700
37642,NaN,2.675948,-1.083918,6.190453,-3.602196,1.301948,-4.157242,-3.679898,0.117804,-2.430463,-0.620361,0.130615,-0.726807,0.026671,-0.010022,0.062078,0.999757,-0.018398,0.000589,-0.012151,0.806480,-0.138976,-0.433191,-0.377651
37643,NaN,1.282571,-0.122060,5.980939,-3.154795,2.651847,-5.291149,-3.065844,-0.498524,-1.947227,-0.620850,0.145508,-0.722656,0.012670,-0.000427,0.059852,0.999832,-0.015328,-0.002492,-0.009736,0.799458,-0.148040,-0.430694,-0.391730
37644,NaN,0.290208,0.630674,4.935380,-2.238926,3.130887,-6.646649,-1.942688,-1.149747,-1.346603,-0.629395,0.149658,-0.716309,0.002663,0.006767,0.049305,0.999914,-0.009713,-0.005749,-0.006733,0.793465,-0.154527,-0.432857,-0.398960
37645,NaN,-0.214486,1.317200,2.900055,-0.687142,2.665937,-8.196575,-0.475830,-1.566293,-0.671815,-0.642090,0.151855,-0.705566,-0.002327,0.013249,0.028951,0.999961,-0.002379,-0.007831,-0.003359,0.788337,-0.158082,-0.438625,-0.401427
37646,NaN,0.146755,2.409376,-0.046334,1.916190,1.426674,-9.464036,0.767636,-1.522611,-0.085982,-0.652588,0.147461,-0.699219,0.001481,0.024095,-0.000360,0.999964,0.003838,-0.007613,-0.000430,0.786276,-0.156976,-0.446689,-0.396986
37647,NaN,-0.239294,2.616322,-2.291561,3.261259,0.418352,-10.971375,1.612823,-1.345487,0.378642,-0.658691,0.134766,-0.690674,-0.002289,0.026343,-0.022719,0.999943,0.008064,-0.006727,0.001893,0.785244,-0.154145,-0.454858,-0.390814
37648,NaN,-1.557272,1.483401,-3.042854,2.506580,-0.098867,-12.567971,1.877830,-1.112163,0.702868,-0.658447,0.126221,-0.690674,-0.015456,0.015065,-0.030374,0.999934,0.009389,-0.005561,0.003514,0.786222,-0.149648,-0.462731,-0.381236
37649,NaN,-3.033438,-0.054989,-2.639451,0.742601,-0.201421,-13.759751,1.440108,-0.940602,0.907516,-0.664795,0.125977,-0.686279,-0.030207,-0.000496,-0.026540,0.999953,0.007200,-0.004703,0.004538,0.786816,-0.147875,-0.468474,-0.373612
37650,NaN,-4.360248,-1.751921,-3.111820,-0.526985,-1.079966,-15.319036,0.792998,-0.967283,1.081609,-0.675293,0.125977,-0.677979,-0.043356,-0.017630,-0.031398,0.999966,0.003965,-0.004836,0.005408,0.788340,-0.147518,-0.473553,-0.364014
37651,NaN,-3.953490,-1.949386,-3.586175,-0.220711,-1.741540,-15.217181,0.179894,-1.107668,1.108787,-0.679688,0.134521,-0.669434,-0.039227,-0.019679,-0.036097,0.999969,0.000899,-0.005538,0.005544,0.787844,-0.151448,-0.477415,-0.358386
37652,NaN,-1.997368,-1.169057,-2.884598,0.461731,-1.672207,-13.078788,-0.279087,-1.023565,0.782742,-0.684082,0.138916,-0.667480,-0.019780,-0.011809,-0.028931,0.999978,-0.001395,-0.005118,0.003914,0.787040,-0.155619,-0.480657,-0.354006
37653,NaN,0.152971,0.542990,-1.554874,1.431896,-0.597935,-10.385402,-0.616791,-0.825416,0.254273,-0.690430,0.143066,-0.658936,0.001587,0.005384,-0.015559,0.999986,-0.003084,-0.004127,0.001271,0.785015,-0.160118,-0.482610,-0.353838
37654,NaN,0.239565,-0.552003,0.536837,-0.670019,-0.162431,-9.394384,-0.927394,-0.537148,-0.120554,-0.688477,0.145264,-0.661133,0.002378,-0.005496,0.005400,0.999985,-0.004637,-0.002686,-0.000603,0.783640,-0.163206,-0.483689,-0.354000
37655,NaN,-0.882003,-3.982810,5.277463,-6.473592,0.770855,-8.401918,-0.989848,-0.217059,-0.393029,-0.692627,0.143066,-0.654785,-0.008955,-0.039549,0.052961,0.999985,-0.004949,-0.001085,-0.001965,0.781601,-0.166518,-0.483103,-0.357749
37656,NaN,3.097537,-4.922354,14.747941,-12.060828,4.224955,-0.431304,-0.896783,0.724320,-0.374253,-0.686279,0.145264,-0.656738,0.031418,-0.048620,0.147585,0.999982,-0.004484,0.003622,-0.001871,0.783687,-0.165485,-0.479870,-0.358014
37657,NaN,15.129467,-1.960197,25.877154,-13.222363,7.876612,15.983042,-0.508867,3.267695,-0.339691,-0.665039,0.141113,-0.690674,0.155463,-0.019209,0.256303,0.999862,-0.002544,0.016338,-0.001698,0.790390,-0.160794,-0.466372,-0.363217
37658,NaN,14.211257,-2.640806,-1.431141,3.529380,-8.820650,1.173158,2.031291,3.996593,-0.419620,-0.639160,0.119629,-0.713867,0.141730,-0.026539,-0.017415,0.999747,0.010156,0.019981,-0.002098,0.802472,-0.141906,-0.455286,-0.358631
37659,NaN,-0.274092,-10.548852,-12.742768,0.851337,-14.174278,-18.299049,5.442170,2.360209,-0.617226,-0.627197,0.076904,-0.726318,-0.004585,-0.101958,-0.130187,0.999555,0.027207,0.011799,-0.003086,0.810242,-0.114375,-0.455811,-0.350233
37660,NaN,24.942398,-11.460043,9.125068,-4.979582,-15.692570,13.969975,3.230788,1.225804,-0.597911,-0.624512,0.055420,-0.730469,0.249622,-0.116784,0.087846,0.999846,0.016153,0.006129,-0.002989,0.815726,-0.095192,-0.457375,-0.341082
37661,NaN,35.301384,-5.884596,14.823211,-1.489800,-14.185090,26.202569,-0.410378,0.876724,-0.498992,-0.616211,0.064209,-0.736816,0.353512,-0.059425,0.146805,0.999985,-0.002052,0.004384,-0.002495,0.816673,-0.094230,-0.453332,-0.344466
37662,NaN,14.298139,-3.730696,-14.777367,12.668440,-16.426398,-7.281657,1.323385,-0.375211,-0.010250,-0.625977,0.036133,-0.726074,0.143257,-0.036337,-0.147748,0.999976,0.006617,-0.001876,-0.000051,0.816447,-0.089649,-0.457220,-0.341068
37663,NaN,14.622345,-4.061437,-8.569110,8.625271,-13.672582,-3.305207,6.482109,-2.674683,1.374776,-0.646240,0.003906,-0.710938,0.147625,-0.036841,-0.084958,0.999362,0.032404,-0.013371,0.006872,0.815061,-0.070840,-0.478282,-0.319223
37664,NaN,12.824724,1.254686,-9.000672,11.851739,-8.185849,-3.526930,6.674330,-2.214698,2.125707,-0.660156,-0.030273,-0.691650,0.129066,0.016877,-0.088065,0.999325,0.033364,-0.011071,0.010626,0.815300,-0.051953,-0.497100,-0.292367
37665,NaN,8.711502,8.725412,-15.777781,19.873893,-1.885004,-8.294256,5.646254,-1.560464,2.210760,-0.676514,-0.047607,-0.676514,0.087325,0.092612,-0.154533,0.999510,0.028227,-0.007801,0.011052,0.815720,-0.036692,-0.510896,-0.268774
37666,NaN,8.806514,7.063005,-9.673629,14.120851,-0.444969,-5.189091,4.011067,-2.003440,2.175367,-0.701660,-0.056152,-0.651123,0.088230,0.073498,-0.094398,0.999690,0.020053,-0.010016,0.010876,0.813739,-0.029347,-0.524092,-0.249589
37667,NaN,9.825857,6.415055,-9.225986,13.665020,-0.823929,-3.863843,0.000128,-3.766727,2.190589,-0.723389,-0.034912,-0.625732,0.099262,0.065234,-0.090397,0.999763,0.000001,-0.018832,0.010952,0.806409,-0.039782,-0.538973,-0.240062
37668,NaN,16.543866,6.378973,-6.640086,13.191899,-2.205771,3.587112,-2.442098,-4.580623,2.046583,-0.751465,-0.009277,-0.598389,0.166254,0.064702,-0.063385,0.999611,-0.012209,-0.022900,0.010232,0.794209,-0.064170,-0.553802,-0.241699
37669,NaN,21.743520,11.646130,-4.944757,15.197201,1.872001,10.146261,-1.949878,-3.744765,2.408253,-0.769287,0.018555,-0.571045,0.216905,0.118612,-0.046532,0.999705,-0.009748,-0.018722,0.012040,0.785890,-0.083089,-0.565380,-0.236259
37670,NaN,19.614972,11.013301,-2.076679,11.572172,3.681489,9.235334,-0.119415,-3.525658,2.247453,-0.792969,0.029297,-0.547607,0.195222,0.112319,-0.017386,0.999781,-0.000597,-0.017627,0.011236,0.777667,-0.095636,-0.578118,-0.227745
37671,NaN,20.634424,6.678793,6.024203,2.345386,3.759265,12.254201,0.701147,-3.971940,2.561141,-0.803711,0.044189,-0.513916,0.204215,0.069191,0.064552,0.999715,0.003505,-0.019858,0.012804,0.769215,-0.104811,-0.592972,-0.213794
37672,NaN,19.540639,3.154270,7.774759,-1.619430,2.435436,11.248980,1.315726,-3.978692,2.774835,-0.829590,0.063232,-0.482178,0.193348,0.033706,0.081825,0.999684,0.006578,-0.019891,0.013873,0.760973,-0.111349,-0.608506,-0.195554
37673,NaN,18.815062,4.667578,5.136301,0.669540,3.646049,9.893981,0.912054,-3.854504,2.932402,-0.838623,0.080322,-0.459229,0.186403,0.049172,0.055187,0.999696,0.004560,-0.019271,0.014661,0.752389,-0.120538,-0.622247,-0.179415
37674,NaN,16.957247,2.871342,6.207753,-1.760269,3.403957,8.064723,-0.644023,-2.912901,2.475091,-0.849854,0.104004,-0.436035,0.168271,0.031006,0.064437,0.999812,-0.003220,-0.014564,0.012375,0.745122,-0.132313,-0.631488,-0.168846
37675,NaN,15.863819,1.654606,5.963199,-2.409207,2.846669,6.801447,-1.391929,-2.009397,1.847353,-0.854492,0.121094,-0.419189,0.157865,0.018428,0.061097,0.999883,-0.006959,-0.010047,0.009236,0.739327,-0.145015,-0.636505,-0.165006
37676,NaN,16.280730,2.536713,6.358971,-2.542306,4.243974,7.141229,-0.026115,-2.316179,1.967002,-0.859131,0.138184,-0.400391,0.161796,0.026970,0.065464,0.999885,-0.000131,-0.011580,0.009835,0.733868,-0.151026,-0.644307,-0.153292
37677,NaN,16.420567,6.735348,5.928745,-0.636470,8.353850,6.918224,0.017154,-2.716983,2.139133,-0.874268,0.153076,-0.377197,0.162647,0.069094,0.061510,0.999851,0.000086,-0.013584,0.010695,0.726656,-0.159916,-0.652579,-0.143310
37678,NaN,12.741338,8.241610,7.232585,-1.907944,10.651485,3.050703,-0.939802,-2.614203,1.018755,-0.874512,0.163574,-0.358154,0.126034,0.083404,0.073589,0.999891,-0.004699,-0.013071,0.005094,0.718455,-0.165798,-0.661388,-0.137474
37679,NaN,11.595837,-0.596995,8.395896,-6.891442,3.337538,2.298220,-1.407163,-1.507041,0.168589,-0.879150,0.172119,-0.345459,0.115326,-0.005278,0.084868,0.999947,-0.007036,-0.007535,0.000843,0.712380,-0.172441,-0.665662,-0.140261
37680,NaN,10.425320,-5.577384,5.148949,-6.288596,-2.420649,1.182492,-1.926052,-0.949584,0.769795,-0.883545,0.185059,-0.334961,0.104218,-0.054870,0.052516,0.999935,-0.009630,-0.004748,0.003849,0.708581,-0.179471,-0.667944,-0.139838
37681,NaN,9.360807,-3.659572,3.943012,-4.545299,-1.045851,-0.075834,-1.746052,-1.280643,0.833581,-0.879639,0.191406,-0.324463,0.093502,-0.035856,0.040344,0.999933,-0.008730,-0.006403,0.004168,0.703270,-0.189327,-0.670469,-0.141554
37682,NaN,8.079408,-1.983151,5.531489,-5.371304,1.229810,-1.479557,-0.873562,-1.320015,0.853179,-0.882080,0.210693,-0.312012,0.080509,-0.019244,0.055932,0.999960,-0.004368,-0.006600,0.004266,0.699190,-0.192817,-0.674741,-0.136669
37683,NaN,6.627247,0.332020,5.676680,-4.571854,3.368014,-3.178741,-0.087688,-0.776792,0.867233,-0.886475,0.214844,-0.305664,0.066036,0.003632,0.057022,0.999983,-0.000438,-0.003884,0.004336,0.697064,-0.196580,-0.676552,-0.133179
37684,NaN,4.408863,3.226411,3.375501,-1.366792,4.755696,-5.719171,0.252752,-0.127977,0.831607,-0.884521,0.214844,-0.307861,0.043932,0.032404,0.033824,0.999990,0.001264,-0.000640,0.004158,0.697784,-0.196339,-0.677079,-0.126932
37685,NaN,3.231100,3.087772,2.446984,-0.662433,4.135769,-6.911206,0.634706,0.141434,0.861816,-0.882568,0.225586,-0.307861,0.032195,0.030939,0.024545,0.999985,0.003174,0.000707,0.004309,0.699420,-0.196952,-0.676135,-0.121911
37686,NaN,1.126569,3.008484,3.204750,-1.554667,4.186038,-9.006138,1.105559,0.509842,1.044853,-0.874268,0.232178,-0.307861,0.011191,0.029966,0.032185,0.999968,0.005528,0.002549,0.005224,0.703289,-0.193328,-0.674888,-0.111958
37687,NaN,-1.571442,4.821646,4.386344,-2.105983,6.015165,-11.895818,1.219874,0.928368,1.210307,-0.870361,0.240723,-0.324951,-0.015800,0.047852,0.044229,0.999952,0.006099,0.004642,0.006051,0.708243,-0.192596,-0.671107,-0.104474
37688,NaN,0.183969,6.319197,4.666765,-1.715842,7.650426,-10.333573,0.792396,1.865124,0.939419,-0.864258,0.245117,-0.339844,0.001980,0.063016,0.046900,0.999938,0.003962,0.009325,0.004697,0.715830,-0.190892,-0.664301,-0.099254
37689,NaN,0.192478,6.556246,4.530249,-1.511270,7.811346,-10.305493,-0.130300,2.730928,0.553668,-0.849609,0.249512,-0.363037,0.002361,0.065598,0.045230,0.999903,-0.000651,0.013654,0.002768,0.724979,-0.191826,-0.653872,-0.100299
37690,NaN,0.935453,4.436589,3.715967,-1.480417,5.642228,-9.230205,-0.681716,2.806032,0.105489,-0.841309,0.251709,-0.386475,0.009850,0.044497,0.036872,0.999896,-0.003408,0.014030,0.000527,0.733591,-0.192361,-0.643429,-0.104118
37691,NaN,2.211551,1.783450,2.825875,-1.466223,2.996017,-7.592243,-0.690703,2.655779,0.010145,-0.834961,0.253906,-0.399170,0.022487,0.017932,0.027900,0.999906,-0.003453,0.013278,0.000051,0.741405,-0.193529,-0.633260,-0.108844
37692,NaN,4.145549,1.050896,0.303165,0.937649,1.395848,-5.868995,-0.254851,3.250794,0.065693,-0.822510,0.256104,-0.428711,0.041494,0.010526,0.002344,0.999867,-0.001274,0.016253,0.000328,0.751517,-0.192093,-0.621124,-0.111929
37693,NaN,5.942341,-1.451723,-4.249774,4.503861,-2.739847,-4.551440,0.883177,3.853605,0.290431,-0.809570,0.249756,-0.458496,0.058610,-0.014241,-0.043696,0.999804,0.004416,0.019267,0.001452,0.764345,-0.187484,-0.606740,-0.111771
37694,NaN,6.149407,-4.087625,-2.237777,1.923280,-4.331154,-3.724234,1.127455,2.799190,-0.083590,-0.796875,0.243408,-0.477539,0.061154,-0.040772,-0.023465,0.999886,0.005637,0.013995,-0.000418,0.773891,-0.180478,-0.596914,-0.110516
37695,NaN,9.049755,0.516641,4.881057,-1.657874,2.785805,-0.041559,1.329438,2.230760,-0.648286,-0.790039,0.228271,-0.496338,0.091050,0.004552,0.047829,0.999910,0.006647,0.011153,-0.003241,0.781319,-0.172153,-0.589551,-0.111057
37696,NaN,20.574217,11.906186,8.970267,2.399751,14.861910,10.653263,-0.137754,1.385686,-1.964517,-0.787598,0.219727,-0.500488,0.207513,0.117090,0.088188,0.999928,-0.000689,0.006928,-0.009822,0.784273,-0.165290,-0.585921,-0.119544
37697,NaN,25.417008,15.934868,-3.699949,16.884317,12.736302,11.779049,-0.664083,3.329610,-2.993086,-0.774414,0.196289,-0.530029,0.255847,0.155395,-0.041770,0.999744,-0.003320,0.016647,-0.014964,0.791487,-0.157096,-0.574795,-0.135944
37698,NaN,29.938632,-5.964012,-0.006546,6.825372,-7.237882,19.044305,0.070421,3.209656,-3.845868,-0.765137,0.168457,-0.548828,0.298113,-0.065380,-0.004879,0.999686,0.000352,0.016047,-0.019227,0.797738,-0.143799,-0.564868,-0.154469
37699,NaN,21.917058,-11.203844,7.465068,-4.036560,-9.334474,13.812489,-2.106424,2.971807,-2.965143,-0.752441,0.168701,-0.563721,0.218574,-0.114510,0.072597,0.999724,-0.010531,0.014858,-0.014824,0.802105,-0.141493,-0.553367,-0.174335
37700,NaN,19.329563,-4.352173,-0.184362,4.649448,-6.678512,8.252539,-2.729728,3.338953,-1.885937,-0.733398,0.164307,-0.586914,0.192814,-0.045390,-0.004454,0.999723,-0.013647,0.016693,-0.009429,0.806930,-0.145692,-0.538390,-0.194356
37701,NaN,15.529255,-7.888151,-0.127861,1.866771,-9.689196,4.539917,-0.263865,3.647214,-1.937279,-0.720215,0.149414,-0.605957,0.154462,-0.080385,-0.003995,0.999786,-0.001319,0.018235,-0.009686,0.814498,-0.137969,-0.524718,-0.205494
37702,NaN,16.378917,-5.460254,4.366728,-0.003824,-6.248869,6.862701,0.538426,3.240258,-1.787471,-0.698730,0.134521,-0.633545,0.163969,-0.056180,0.040862,0.999825,0.002692,0.016200,-0.008937,0.820869,-0.128722,-0.513030,-0.215420
37703,NaN,16.970195,-3.281702,3.204405,2.510662,-5.549962,6.675922,0.723497,3.585487,-2.106274,-0.683350,0.117432,-0.656738,0.169880,-0.034714,0.028876,0.999777,0.003617,0.017926,-0.010531,0.828078,-0.116462,-0.500339,-0.224465
37704,NaN,18.660695,-2.832830,0.292831,5.819371,-7.450041,6.525102,0.925682,2.257875,-2.833205,-0.669922,0.089600,-0.669189,0.186197,-0.030975,0.000685,0.999825,0.004628,0.011289,-0.014165,0.830377,-0.103963,-0.493492,-0.236921
37705,NaN,22.432335,-4.118170,-0.124439,6.967476,-10.432568,9.233695,1.305104,0.870863,-2.655677,-0.669189,0.068115,-0.668945,0.223741,-0.044142,-0.002501,0.999881,0.006525,0.004354,-0.013278,0.829958,-0.090949,-0.492748,-0.245149
37706,NaN,23.593939,-2.756445,3.901529,4.735529,-8.477177,12.214310,-0.675143,-0.475993,-1.949432,-0.675781,0.070312,-0.668945,0.235563,-0.029729,0.039674,0.999944,-0.003376,-0.002380,-0.009747,0.825970,-0.089511,-0.494951,-0.254529
37707,NaN,22.662784,1.387086,4.613083,5.780803,-4.707357,12.123880,-1.639789,0.977090,-1.939089,-0.662842,0.068115,-0.671143,0.226972,0.012043,0.044919,0.999907,-0.008199,0.004885,-0.009695,0.825108,-0.090234,-0.489655,-0.267006
37708,NaN,19.113788,-4.435689,3.946400,1.799737,-8.992135,7.977120,-1.965809,0.955420,-2.256594,-0.662842,0.063965,-0.675293,0.190811,-0.046126,0.039000,0.999877,-0.009829,0.004777,-0.011283,0.823322,-0.091659,-0.484300,-0.281413
37709,NaN,14.786802,-6.275849,3.525907,-0.698206,-9.303536,3.730465,-2.653096,0.910210,-2.479325,-0.656738,0.070312,-0.687988,0.147240,-0.064117,0.035433,0.999825,-0.013265,0.004551,-0.012396,0.820676,-0.095283,-0.477876,-0.298408
37710,NaN,12.491995,-2.804100,3.813269,0.118895,-5.629846,2.300985,-3.569863,1.364102,-2.646104,-0.640137,0.083252,-0.698730,0.124799,-0.029016,0.037793,0.999730,-0.017848,0.006820,-0.013229,0.817970,-0.101725,-0.468407,-0.318075
37711,NaN,8.416962,0.372043,3.764336,0.641732,-1.611165,-0.749348,-4.133307,1.348765,-2.685914,-0.638184,0.091797,-0.700928,0.084467,0.003357,0.037002,0.999674,-0.020664,0.006743,-0.013428,0.814487,-0.110162,-0.457535,-0.339317
37712,NaN,4.150096,0.409362,4.622618,-1.326021,0.702334,-3.770592,-4.065345,0.872534,-2.652971,-0.638672,0.102539,-0.705322,0.041760,0.004477,0.045956,0.999696,-0.020325,0.004362,-0.013264,0.809452,-0.119267,-0.448768,-0.359404
37713,NaN,3.180591,0.162946,5.840357,-2.502085,1.657352,-3.876035,-3.558198,0.138946,-2.488728,-0.634521,0.106934,-0.705322,0.031872,0.002272,0.058345,0.999764,-0.017790,0.000695,-0.012443,0.802977,-0.127809,-0.443194,-0.377454
37714,NaN,2.110466,0.675380,6.602834,-2.842475,3.035849,-4.226130,-2.995154,-0.303677,-2.138055,-0.645264,0.115479,-0.703369,0.021082,0.007516,0.065952,0.999830,-0.014975,-0.001518,-0.010690,0.796248,-0.135687,-0.440418,-0.391932
37715,NaN,-0.099347,1.076868,6.304054,-2.928338,4.338564,-6.136989,-2.069175,-0.730285,-1.646082,-0.641357,0.121826,-0.697021,-0.001131,0.011429,0.062921,0.999906,-0.010346,-0.003651,-0.008230,0.789934,-0.141722,-0.440350,-0.402506
37716,NaN,-0.990688,2.212503,4.463045,-1.181230,4.507372,-7.791946,-0.789714,-1.119494,-1.066458,-0.649658,0.119629,-0.686279,-0.010037,0.022354,0.044487,0.999962,-0.003949,-0.005597,-0.005332,0.784816,-0.144686,-0.444250,-0.407150
37717,NaN,-1.195889,3.228131,1.190885,1.459264,3.335018,-9.680817,0.526798,-1.149240,-0.439390,-0.662109,0.111084,-0.679932,-0.011956,0.032276,0.011925,0.999978,0.002634,-0.005746,-0.002197,0.781731,-0.143983,-0.450144,-0.406860
37718,NaN,-1.283356,3.751109,-1.685851,3.520835,2.024871,-11.249111,1.492562,-1.094920,0.054384,-0.670166,0.098145,-0.673340,-0.012752,0.037632,-0.016648,0.999957,0.007463,-0.005475,0.000272,0.780475,-0.140416,-0.457682,-0.402081
37719,NaN,-2.546012,2.503522,-3.550719,3.390772,0.801318,-13.448284,1.979619,-0.974489,0.411477,-0.674072,0.085449,-0.671143,-0.025339,0.025334,-0.035381,0.999937,0.009898,-0.004872,0.002057,0.780411,-0.135587,-0.465152,-0.395233
37720,NaN,-4.027118,1.528618,-3.717459,2.431028,0.825363,-14.890339,1.848602,-0.813609,0.644009,-0.673828,0.083252,-0.666992,-0.040170,0.015500,-0.037196,0.999944,0.009243,-0.004068,0.003220,0.781045,-0.131361,-0.471795,-0.387457
37721,NaN,-5.701613,0.071465,-3.988523,1.150506,0.497664,-16.657414,1.196180,-0.702550,0.818683,-0.671631,0.078857,-0.658447,-0.056879,0.000721,-0.040081,0.999968,0.005981,-0.003513,0.004093,0.781732,-0.129982,-0.476308,-0.380960
37722,NaN,-6.543112,-1.863654,-4.828366,0.121390,-0.950921,-18.099965,0.535484,-0.808455,0.892569,-0.684570,0.083252,-0.660645,-0.065151,-0.018798,-0.048598,0.999978,0.002677,-0.004042,0.004463,0.781864,-0.131436,-0.480170,-0.375299
37723,NaN,-4.512156,-2.246478,-3.795140,-0.280346,-1.644173,-15.897657,-0.145328,-1.021745,0.771595,-0.690918,0.083008,-0.652100,-0.044840,-0.022666,-0.038165,0.999979,-0.000727,-0.005109,0.003858,0.780745,-0.135776,-0.483380,-0.371949
37724,NaN,-1.527636,-0.898991,-2.404267,0.538631,-1.323068,-12.435965,-0.872348,-0.975812,0.471747,-0.686768,0.089600,-0.647949,-0.015138,-0.009131,-0.024077,0.999976,-0.004362,-0.004879,0.002359,0.778695,-0.142002,-0.485522,-0.371130
37725,NaN,0.537560,-0.051402,-1.377568,0.990522,-1.078530,-10.024621,-1.044895,-0.748564,0.094899,-0.689209,0.102295,-0.645996,0.005427,-0.000583,-0.013753,0.999979,-0.005224,-0.003743,0.000474,0.776294,-0.147691,-0.486425,-0.372754
37726,NaN,0.744312,-1.481294,1.039905,-1.558523,-0.705697,-8.862636,-0.994469,-0.364900,-0.270659,-0.691162,0.098145,-0.641602,0.007404,-0.014771,0.010486,0.999985,-0.004972,-0.001824,-0.001353,0.774328,-0.151264,-0.486527,-0.375268
37727,NaN,-0.495795,-4.461761,4.447384,-6.217734,-0.094363,-8.688851,-0.699426,-0.080575,-0.449801,-0.695557,0.100342,-0.637451,-0.005076,-0.044450,0.044627,0.999991,-0.003497,-0.000403,-0.002249,0.772750,-0.153031,-0.485868,-0.378643
37728,NaN,0.777375,-5.973659,11.884177,-11.736946,2.861362,-4.193167,-0.425291,0.392757,-0.372573,-0.684814,0.095947,-0.645996,0.007896,-0.059498,0.118953,0.999994,-0.002126,0.001964,-0.001863,0.772901,-0.152673,-0.484166,-0.380654
37729,NaN,9.495507,-5.168458,17.376885,-12.451867,2.822229,6.181579,-0.026297,1.031094,-0.166800,-0.680420,0.089600,-0.656494,0.095806,-0.051741,0.173283,0.999986,-0.000131,0.005155,-0.000834,0.775047,-0.150410,-0.480257,-0.382140
37730,NaN,16.771990,-2.474335,9.657715,-3.677521,-3.604777,9.006235,1.974870,2.266529,-0.135912,-0.664795,0.063965,-0.673096,0.168781,-0.025797,0.094417,0.999887,0.009874,0.011332,-0.000680,0.781938,-0.137686,-0.475544,-0.378779
37731,NaN,27.834787,-2.067925,-6.088382,9.921678,-17.790291,10.216087,5.549000,1.651093,-0.272967,-0.651123,0.029541,-0.677246,0.277803,-0.019317,-0.063728,0.999580,0.027741,0.008254,-0.001365,0.788836,-0.112164,-0.479591,-0.367628
37732,NaN,57.121004,-9.742626,14.601427,-0.901187,-27.149489,43.408998,2.664277,2.814395,-1.891868,-0.625000,0.003906,-0.698242,0.572209,-0.104698,0.136604,0.999768,0.013320,0.014071,-0.009459,0.793932,-0.091326,-0.474673,-0.368804
37733,NaN,17.788041,-2.990055,2.409056,1.255953,-9.973161,5.356498,-1.679441,1.739122,-1.883812,-0.627197,0.006104,-0.706787,0.177791,-0.031380,0.022804,0.999883,-0.008397,0.008695,-0.009419,0.793724,-0.090308,-0.465483,-0.381015
37734,NaN,6.509235,-9.712189,-14.128335,4.832014,-17.089900,-14.382341,2.171763,-0.008547,0.091624,-0.626221,-0.021729,-0.693848,0.065142,-0.095550,-0.142324,0.999941,0.010859,-0.000043,0.000458,0.795551,-0.081284,-0.470072,-0.373529
37735,NaN,6.439291,-5.720683,-9.707318,4.994462,-11.913330,-11.035367,6.588850,-1.988689,1.394396,-0.639893,-0.064697,-0.676514,0.065748,-0.053528,-0.098228,0.999384,0.032937,-0.009941,0.006971,0.795666,-0.062024,-0.489433,-0.351458
37736,NaN,6.574063,-3.097046,-8.304627,6.333326,-9.015617,-9.238367,7.691897,-2.192771,1.946950,-0.649414,-0.096924,-0.653076,0.066931,-0.027119,-0.083409,0.999153,0.038449,-0.010961,0.009732,0.796208,-0.039176,-0.511121,-0.321362
37737,NaN,6.229758,5.475545,-14.520199,16.272523,-3.838308,-9.745943,5.773354,-1.574154,2.314693,-0.663574,-0.116211,-0.637939,0.062758,0.059630,-0.143035,0.999485,0.028862,-0.007869,0.011571,0.796622,-0.024623,-0.525951,-0.296920
37738,NaN,7.628445,4.499642,-11.877243,14.145864,-3.478624,-7.120834,4.403204,-2.189675,2.638253,-0.686768,-0.122803,-0.616699,0.076946,0.048596,-0.116889,0.999611,0.022013,-0.010947,0.013190,0.795559,-0.016625,-0.541140,-0.271986
37739,NaN,11.169160,3.388042,-12.026407,14.707170,-5.389531,-3.857180,1.593964,-3.602370,2.714041,-0.714600,-0.109863,-0.583008,0.113348,0.036357,-0.117949,0.999714,0.007969,-0.018010,0.013569,0.789405,-0.022526,-0.557262,-0.256498
37740,NaN,17.903255,3.469890,-9.030027,13.587292,-6.377194,3.926502,-1.004417,-4.185524,2.434136,-0.734131,-0.088623,-0.561768,0.180436,0.036448,-0.086714,0.999694,-0.005022,-0.020925,0.012169,0.780997,-0.037698,-0.572631,-0.246405
37741,NaN,22.419990,7.304287,-4.049380,11.455978,-2.324933,11.060839,-2.059471,-3.786224,2.357508,-0.747559,-0.062988,-0.534424,0.224044,0.075291,-0.037019,0.999698,-0.010296,-0.018929,0.011786,0.772434,-0.057146,-0.584268,-0.242303
37742,NaN,25.194681,13.384516,-3.240320,13.570915,3.243826,15.280644,-1.365561,-3.036970,2.053618,-0.762939,-0.045898,-0.523926,0.251019,0.136218,-0.029511,0.999809,-0.006827,-0.015184,0.010267,0.765861,-0.071170,-0.594377,-0.234752
37743,NaN,20.318004,9.444889,2.133196,5.913375,3.811365,11.566143,-0.290835,-2.275600,1.644794,-0.775879,-0.037354,-0.502930,0.202135,0.096147,0.023497,0.999900,-0.001454,-0.011378,0.008224,0.760844,-0.079840,-0.602112,-0.228480
37744,NaN,18.869551,6.129810,8.351397,-1.740887,4.329955,11.200072,1.117332,-3.486859,2.010019,-0.795166,-0.026611,-0.471191,0.186572,0.062700,0.087127,0.999782,0.005586,-0.017433,0.010049,0.753112,-0.084682,-0.616474,-0.213566
37745,NaN,17.465087,8.524317,6.486676,0.032442,6.740436,9.532288,2.718877,-4.228066,2.745267,-0.814209,-0.020264,-0.441650,0.172028,0.086691,0.069694,0.999590,0.013593,-0.021137,0.013724,0.743849,-0.087391,-0.633888,-0.192968
37746,NaN,16.386248,3.491545,4.955198,-1.394898,2.462967,7.426549,1.864793,-3.602139,2.572544,-0.829346,-0.007568,-0.411865,0.162468,0.036529,0.052822,0.999712,0.009323,-0.018009,0.012861,0.735547,-0.091168,-0.648448,-0.173709
37747,NaN,15.326877,2.915026,7.718622,-4.637748,3.648619,6.562013,-0.603246,-2.770401,2.474049,-0.829834,0.013672,-0.395264,0.151803,0.031271,0.079204,0.999823,-0.003016,-0.013851,0.012370,0.728302,-0.103802,-0.656877,-0.165268
37748,NaN,13.967435,6.530507,7.744066,-3.654113,7.709018,5.183667,-0.901424,-2.695706,2.543716,-0.843262,0.032959,-0.369873,0.137768,0.067419,0.079006,0.999818,-0.004507,-0.013478,0.012718,0.720906,-0.116794,-0.665165,-0.155592
37749,NaN,14.592462,5.847897,7.303804,-3.719770,7.390733,5.418339,0.027018,-3.313895,2.208696,-0.847656,0.043701,-0.342529,0.144030,0.060067,0.075443,0.999802,0.000135,-0.016568,0.011043,0.711470,-0.126602,-0.675716,-0.145569
37750,NaN,17.164645,7.916423,8.301288,-4.129676,10.054919,7.737776,-0.261295,-2.732122,1.382704,-0.852051,0.056396,-0.329834,0.169939,0.080453,0.085238,0.999882,-0.001306,-0.013660,0.006913,0.702882,-0.133439,-0.684867,-0.138232
37751,NaN,14.759488,4.408551,8.718542,-6.067625,7.288216,5.132319,-1.273436,-0.921890,0.327224,-0.856445,0.060791,-0.321533,0.147119,0.044883,0.087580,0.999968,-0.006367,-0.004609,0.001636,0.699071,-0.139673,-0.686994,-0.140817
37752,NaN,11.913516,-0.483724,5.749958,-5.287331,1.779939,2.191598,-1.389752,-0.062112,0.213893,-0.850098,0.062744,-0.321533,0.119122,-0.004310,0.057568,0.999975,-0.006949,-0.000311,0.001069,0.697897,-0.144743,-0.686552,-0.143649
37753,NaN,9.583367,-4.460015,5.023182,-6.258053,-2.044171,-0.136848,-0.560165,-0.707777,0.560821,-0.848145,0.069336,-0.313232,0.095779,-0.044190,0.050695,0.999986,-0.002801,-0.003539,0.002804,0.695447,-0.149134,-0.688212,-0.143095
37754,NaN,7.242866,-3.660395,5.972448,-6.881920,-0.839438,-2.500991,-0.253718,-1.097589,0.995457,-0.846191,0.075684,-0.304688,0.072280,-0.036168,0.060167,0.999972,-0.001269,-0.005488,0.004977,0.692066,-0.153673,-0.691542,-0.138562
37755,NaN,7.177685,-0.977788,5.455108,-5.359076,1.512904,-2.655608,-0.148096,-0.862786,1.103061,-0.852539,0.077637,-0.296143,0.071593,-0.009342,0.054867,0.999975,-0.000740,-0.004314,0.005515,0.689708,-0.158599,-0.693568,-0.134584
37756,NaN,6.024458,2.767523,2.629180,-1.280388,3.834457,-3.937064,0.277532,-0.250507,1.110961,-0.853027,0.088379,-0.298340,0.060057,0.027973,0.026406,0.999983,0.001388,-0.001253,0.005555,0.689699,-0.161137,-0.694145,-0.128507
37757,NaN,3.814686,5.150555,0.955188,1.197042,5.291785,-6.269219,0.573285,0.083080,0.997789,-0.840332,0.094971,-0.296387,0.037893,0.051667,0.009684,0.999983,0.002866,0.000415,0.004989,0.691070,-0.162572,-0.693419,-0.123134
37758,NaN,0.900344,3.734029,0.899294,0.641334,3.835292,-9.148308,0.674243,0.310513,1.009739,-0.840576,0.099121,-0.294434,0.008829,0.037355,0.009105,0.999980,0.003371,0.001553,0.005049,0.693182,-0.163129,-0.692294,-0.116690
37759,NaN,-0.630843,3.947536,3.217351,-1.466735,4.828922,-10.741311,0.772806,0.797804,1.017410,-0.834229,0.097168,-0.311279,-0.006380,0.039318,0.032351,0.999972,0.003864,0.003989,0.005087,0.697139,-0.163507,-0.689139,-0.111129
37760,NaN,-0.556951,4.914749,5.626854,-3.373878,6.625214,-10.734426,0.386869,1.688630,0.953356,-0.821533,0.101318,-0.323975,-0.005327,0.049013,0.056409,0.999951,0.001934,0.008443,0.004767,0.703636,-0.164179,-0.682975,-0.107178
37761,NaN,-1.187102,5.308964,5.953068,-3.579847,7.069229,-11.310331,-0.179057,2.592842,0.795537,-0.809082,0.101562,-0.347412,-0.011310,0.053097,0.059632,0.999908,-0.000895,0.012964,0.003978,0.712695,-0.166127,-0.673050,-0.107102
37762,NaN,-0.068431,4.336674,3.940438,-2.005953,5.499116,-10.083834,-0.311983,2.948388,0.403609,-0.794189,0.099365,-0.366455,-0.000192,0.043427,0.039342,0.999888,-0.001560,0.014741,0.002018,0.722370,-0.166824,-0.662207,-0.108778
37763,NaN,1.376522,1.670321,2.737566,-1.727450,2.676272,-8.387239,-0.078300,2.909769,0.177086,-0.790039,0.099365,-0.376953,0.014147,0.016726,0.027165,0.999894,-0.000391,0.014548,0.000885,0.731950,-0.166098,-0.651447,-0.110805
37764,NaN,2.380547,-0.047829,0.814963,-0.431356,0.386886,-7.363760,0.463411,2.951911,0.055316,-0.774902,0.093018,-0.404541,0.023922,-0.000490,0.007796,0.999888,0.002317,0.014759,0.000277,0.741782,-0.162832,-0.640975,-0.111338
37765,NaN,5.046455,-0.140460,-1.721827,2.370060,-0.592689,-5.071354,1.016109,3.147163,0.097222,-0.762207,0.084473,-0.427734,0.050186,-0.001290,-0.018016,0.999863,0.005080,0.015735,0.000486,0.752640,-0.157606,-0.629711,-0.110261
37766,NaN,6.004113,-3.432690,-0.553417,0.442984,-3.224567,-3.685579,1.291985,2.655060,0.022930,-0.749268,0.078125,-0.436279,0.059963,-0.034280,-0.006552,0.999891,0.006460,0.013275,0.000115,0.761832,-0.151246,-0.620544,-0.107989
37767,NaN,7.909035,-2.016074,4.894494,-3.451625,0.024117,-0.943958,1.077500,2.296595,-0.162676,-0.736328,0.067627,-0.450928,0.079628,-0.020485,0.047923,0.999919,0.005387,0.011483,-0.000813,0.769615,-0.145390,-0.612461,-0.106986
37768,NaN,15.623256,3.590509,12.544626,-6.537177,7.907109,7.767844,0.015631,1.791797,-0.835525,-0.731689,0.058838,-0.457275,0.157496,0.035239,0.124042,0.999951,0.000078,0.008959,-0.004178,0.774528,-0.141703,-0.606353,-0.111184
37769,NaN,25.286305,15.924894,-0.931869,12.767306,14.229811,13.171980,-1.838234,2.446360,-1.264537,-0.718994,0.052490,-0.474121,0.253712,0.157533,-0.013872,0.999863,-0.009191,0.012231,-0.006322,0.779825,-0.143613,-0.596682,-0.123365
37770,NaN,24.144360,9.166867,-6.874429,15.980252,4.974922,11.020442,-0.865208,3.395627,-2.415200,-0.697266,0.033447,-0.495361,0.241307,0.088444,-0.073229,0.999774,-0.004326,0.016977,-0.012075,0.787528,-0.137681,-0.584638,-0.137996
37771,NaN,25.813939,-10.220639,1.242344,2.306194,-10.937493,15.629639,-0.342230,2.704676,-3.320913,-0.686035,0.014160,-0.503662,0.256533,-0.106458,0.009127,0.999769,-0.001711,0.013522,-0.016603,0.792717,-0.127429,-0.575915,-0.153895
37772,NaN,16.983514,-9.767128,5.491290,-3.674615,-8.766032,8.176938,-1.466042,2.525924,-2.540559,-0.670898,0.003418,-0.516357,0.169261,-0.099428,0.053497,0.999813,-0.007330,0.012629,-0.012702,0.796787,-0.123926,-0.566498,-0.169861
37773,NaN,17.302346,-6.033790,2.224903,0.945919,-7.129118,7.186686,-0.926083,3.251582,-1.980821,-0.647217,-0.011475,-0.539551,0.172750,-0.061955,0.019723,0.999808,-0.004630,0.016257,-0.009903,0.803580,-0.119225,-0.553889,-0.182350
37774,NaN,16.009283,-6.445807,2.044110,0.837489,-7.846384,5.670181,0.777398,3.486970,-1.668490,-0.621582,-0.022217,-0.558594,0.159868,-0.065864,0.017398,0.999806,0.003887,0.017434,-0.008342,0.811917,-0.108172,-0.541744,-0.188686
37775,NaN,16.015602,-4.262891,2.965212,1.373916,-6.017207,5.850378,0.951729,3.512146,-1.735446,-0.602051,-0.037109,-0.564941,0.160263,-0.044151,0.026631,0.999797,0.004758,0.017560,-0.008677,0.820136,-0.096278,-0.529226,-0.195007
37776,NaN,16.447477,-1.211553,0.172228,5.405370,-4.885536,4.982510,0.654718,2.583777,-2.740257,-0.586182,-0.064941,-0.575195,0.164292,-0.014368,-0.000446,0.999817,0.003273,0.012918,-0.013700,0.824419,-0.083647,-0.520813,-0.205160
37777,NaN,24.675334,-7.437813,-1.876925,7.568918,-13.869526,10.632847,1.906339,0.805819,-2.599948,-0.579346,-0.086426,-0.566650,0.245680,-0.077387,-0.020489,0.999862,0.009531,0.004029,-0.012999,0.824527,-0.068187,-0.520476,-0.211215
37778,NaN,24.534225,1.830453,2.832267,7.320813,-4.396768,13.432791,0.117757,-0.402318,-2.053260,-0.576904,-0.092773,-0.568848,0.245455,0.015768,0.028826,0.999945,0.000589,-0.002012,-0.010266,0.821318,-0.062532,-0.523339,-0.218275
37779,NaN,23.025576,2.306695,5.607766,4.563412,-3.032483,13.358607,-0.866964,0.896538,-1.751722,-0.568359,-0.094971,-0.566650,0.230695,0.021287,0.054949,0.999942,-0.004335,0.004483,-0.008758,0.821426,-0.060533,-0.519242,-0.227998
37780,NaN,19.912669,-1.030766,6.759385,1.094772,-4.965908,10.617700,-2.565124,0.952115,-2.011275,-0.558105,-0.086426,-0.571045,0.199335,-0.011452,0.066787,0.999856,-0.012825,0.004760,-0.010056,0.820752,-0.064473,-0.513418,-0.242098
37781,NaN,16.995665,-4.884822,4.009009,0.469138,-8.564114,6.162858,-3.613619,1.109432,-2.101416,-0.545654,-0.077881,-0.583740,0.169658,-0.049908,0.040044,0.999766,-0.018067,0.005547,-0.010506,0.819692,-0.072556,-0.505063,-0.260291
37782,NaN,13.335314,-5.313976,3.112349,-0.428150,-8.125200,2.416374,-3.530195,1.636005,-2.258510,-0.529053,-0.064941,-0.594482,0.133000,-0.054095,0.030984,0.999747,-0.017649,0.008179,-0.011292,0.819536,-0.078861,-0.495015,-0.277672
37783,NaN,9.708237,-1.201174,4.049382,-0.275200,-3.093746,0.308643,-3.168370,1.499944,-2.330312,-0.518799,-0.056396,-0.603027,0.097240,-0.012508,0.039960,0.999779,-0.015841,0.007499,-0.011651,0.818576,-0.083983,-0.485294,-0.295584
37784,NaN,8.064326,1.293829,5.863105,-0.718175,0.259099,0.212193,-3.395163,1.094980,-2.332885,-0.504150,-0.049805,-0.605225,0.081113,0.012982,0.057968,0.999773,-0.016975,0.005474,-0.011664,0.816416,-0.090255,-0.477293,-0.312265
37785,NaN,5.609194,1.411190,5.346903,-1.001547,1.107779,-2.078852,-3.540727,0.704208,-2.236922,-0.498047,-0.034912,-0.605469,0.056439,0.014423,0.053017,0.999775,-0.017702,0.003521,-0.011184,0.812816,-0.098258,-0.469808,-0.330085
37786,NaN,3.542481,1.023599,4.190834,-1.047775,1.184314,-4.459269,-3.067293,0.257436,-2.009647,-0.500488,-0.026367,-0.607666,0.035583,0.010520,0.041703,0.999831,-0.015336,0.001287,-0.010048,0.808729,-0.105254,-0.465250,-0.344123
37787,NaN,1.679880,1.164974,4.411905,-1.643059,2.277871,-5.843426,-2.539554,-0.095882,-1.564645,-0.492432,-0.015625,-0.609863,0.016871,0.012077,0.043976,0.999889,-0.012697,-0.000479,-0.007823,0.804381,-0.112045,-0.462055,-0.356260
37788,NaN,0.234875,0.825744,4.451095,-2.298200,2.777071,-7.064077,-1.853243,-0.397106,-0.954579,-0.494629,-0.009277,-0.605713,0.002301,0.008658,0.044437,0.999944,-0.009266,-0.001985,-0.004773,0.800942,-0.117704,-0.461488,-0.362859
37789,NaN,-0.801245,0.427739,3.645563,-2.327858,2.603297,-8.427443,-0.740719,-0.587782,-0.288327,-0.494873,-0.002686,-0.601562,-0.008113,0.004424,0.036416,0.999988,-0.003704,-0.002939,-0.001442,0.798610,-0.121080,-0.462678,-0.365364
37790,NaN,-0.793951,1.598371,1.335038,-0.009803,2.209784,-9.522502,0.501814,-0.815405,0.240398,-0.496826,-0.002930,-0.590820,-0.008013,0.015941,0.013358,0.999988,0.002509,-0.004077,0.001202,0.797677,-0.120852,-0.467273,-0.361609
37791,NaN,-0.965734,1.619815,-1.428874,1.767225,0.848537,-11.137439,1.612597,-0.908157,0.544390,-0.496582,-0.011475,-0.588623,-0.009637,0.016287,-0.014201,0.999953,0.008063,-0.004541,0.002722,0.797470,-0.117338,-0.473476,-0.355096
37792,NaN,-2.563550,0.192883,-3.303987,1.615865,-0.414329,-13.652254,2.327626,-0.927661,0.794359,-0.506836,-0.022217,-0.575928,-0.025490,0.002213,-0.033134,0.999914,0.011638,-0.004638,0.003972,0.798151,-0.111310,-0.481334,-0.344793
37793,NaN,-4.431107,-1.256441,-3.323633,0.190925,-0.668777,-15.449664,2.476586,-0.866422,0.999736,-0.510986,-0.026367,-0.565186,-0.044104,-0.012371,-0.033582,0.999901,0.012383,-0.004332,0.004999,0.799082,-0.105325,-0.488473,-0.334318
37794,NaN,-4.110388,-2.594791,-2.213984,-1.268004,-1.318280,-14.831001,2.066489,-0.766427,1.146391,-0.515137,-0.026367,-0.561035,-0.040869,-0.025951,-0.022565,0.999923,0.010332,-0.003832,0.005732,0.800294,-0.100872,-0.494864,-0.323209
37795,NaN,-4.172144,-3.450647,-1.830563,-2.027883,-1.837464,-14.830192,1.206609,-0.815392,1.116970,-0.514893,-0.035156,-0.552490,-0.041453,-0.034627,-0.018684,0.999958,0.006033,-0.004077,0.005585,0.800648,-0.100130,-0.499509,-0.315321
37796,NaN,-2.793316,-2.314733,-1.427663,-1.176400,-1.385129,-13.261758,0.228892,-1.006067,0.910091,-0.521484,-0.028564,-0.543945,-0.027755,-0.023257,-0.014443,0.999976,0.001144,-0.005030,0.004550,0.799804,-0.102797,-0.503936,-0.309506
37797,NaN,-1.256050,-0.763282,-1.158253,0.027121,-0.670733,-11.559443,-0.558451,-0.991889,0.471978,-0.527588,-0.030762,-0.539795,-0.012485,-0.007695,-0.011623,0.999981,-0.002792,-0.004959,0.002360,0.797725,-0.107762,-0.506803,-0.308501
37798,NaN,0.427141,0.278989,0.120388,0.204592,0.115923,-9.344199,-1.058061,-0.734199,0.072063,-0.530029,-0.020020,-0.533447,0.004266,0.002798,0.001205,0.999979,-0.005290,-0.003671,0.000360,0.795527,-0.113017,-0.508563,-0.309400
37799,NaN,0.390203,-1.457145,2.363064,-2.517986,-0.099641,-8.584157,-1.372853,-0.378108,-0.215604,-0.525635,-0.022217,-0.527100,0.003842,-0.014413,0.023737,0.999974,-0.006864,-0.001891,-0.001078,0.793427,-0.118521,-0.508069,-0.313517
37800,NaN,-1.958248,-3.806233,4.135316,-5.941781,-0.091499,-10.143315,-1.287895,0.052179,-0.416033,-0.528076,-0.018066,-0.533447,-0.019650,-0.037754,0.041602,0.999977,-0.006439,0.000261,-0.002080,0.792266,-0.122221,-0.506585,-0.317408
37801,NaN,-3.620941,-4.573207,5.629238,-7.980293,0.782338,-11.002813,-0.546091,0.237362,-0.278667,-0.525879,-0.022217,-0.535645,-0.036206,-0.045528,0.056460,0.999995,-0.002730,0.001187,-0.001393,0.792078,-0.123311,-0.504963,-0.320029
37802,NaN,0.297912,-7.322611,6.147504,-8.966102,-2.565037,-7.684194,0.614975,-0.308765,-0.000888,-0.525635,-0.028809,-0.524902,0.002884,-0.073415,0.061254,0.999994,0.003075,-0.001544,-0.000004,0.791830,-0.121127,-0.507615,-0.317269
37803,NaN,13.001779,-4.586894,9.395233,-6.020303,-3.708463,5.298816,1.797109,0.033136,0.329843,-0.529297,-0.043701,-0.522705,0.130110,-0.046496,0.093515,0.999958,0.008985,0.000166,0.001649,0.793484,-0.114803,-0.510132,-0.311399
37804,NaN,14.345230,2.123306,4.023735,2.375743,-1.754586,4.944027,3.814396,0.247258,0.316974,-0.534912,-0.069580,-0.520508,0.143469,0.020690,0.040458,0.999816,0.019071,0.001236,0.001585,0.796856,-0.099837,-0.515202,-0.299367
37805,NaN,47.746060,2.581547,-7.111687,20.822076,-18.913175,29.501960,7.984690,0.136626,-0.257002,-0.531494,-0.110107,-0.507568,0.477447,0.028021,-0.070354,0.999202,0.039913,0.000683,-0.001285,0.800162,-0.067097,-0.526342,-0.279647
37806,NaN,43.643407,3.163898,9.925485,6.342870,-10.439518,33.360073,2.443555,1.934750,-2.136600,-0.514404,-0.118652,-0.520020,0.437666,0.025787,0.095364,0.999822,0.012217,0.009673,-0.010682,0.803192,-0.048652,-0.523102,-0.280856
37807,NaN,19.360439,-7.786096,3.361992,-0.964803,-13.125190,6.726505,-0.180369,0.596110,-1.309372,-0.514160,-0.123047,-0.522217,0.193188,-0.079097,0.033115,0.999974,-0.000902,0.002981,-0.006547,0.802838,-0.045123,-0.520779,-0.286715
37808,NaN,8.286099,-13.530305,-12.147441,5.756348,-19.082419,-11.222246,2.714262,0.465661,0.912944,-0.513672,-0.135986,-0.505127,0.083186,-0.133257,-0.123486,0.999895,0.013571,0.002328,0.004565,0.806227,-0.035532,-0.523055,-0.274134
37809,NaN,2.618174,-7.380061,-10.238808,5.998764,-10.703143,-13.758615,5.109147,-1.523917,1.283412,-0.532227,-0.157471,-0.488037,0.027432,-0.070984,-0.104020,0.999624,0.025543,-0.007619,0.006416,0.804595,-0.020380,-0.535794,-0.255218
37810,NaN,2.923655,1.056544,-8.136200,8.340305,-2.452877,-10.323254,5.696626,-1.551034,1.692152,-0.533691,-0.170410,-0.464600,0.029761,0.013122,-0.080783,0.999529,0.028479,-0.007754,0.008459,0.803165,-0.003416,-0.549385,-0.230413
37811,NaN,4.915922,5.053713,-9.547502,11.694647,0.504928,-7.860162,4.324839,-1.499578,1.996145,-0.550537,-0.176758,-0.447754,0.049346,0.053072,-0.093976,0.999688,0.021622,-0.007497,0.009980,0.801157,0.006731,-0.560204,-0.210413
37812,NaN,9.464212,5.091874,-9.918193,13.225693,-0.555777,-3.598722,2.307723,-2.399057,2.319461,-0.569580,-0.174805,-0.434814,0.095210,0.053152,-0.097437,0.999794,0.011538,-0.011994,0.011597,0.796858,0.007561,-0.572708,-0.192261
37813,NaN,13.687392,3.937034,-10.191424,14.050078,-2.592035,0.313672,0.485453,-3.766813,2.525558,-0.597656,-0.159912,-0.411621,0.138246,0.041353,-0.099220,0.999740,0.002427,-0.018832,0.012627,0.788261,-0.001369,-0.588149,-0.180894
37814,NaN,21.947248,4.230636,-8.021392,13.676640,-3.606158,9.260503,-1.201562,-4.047891,2.611477,-0.610596,-0.144775,-0.386475,0.220466,0.044716,-0.076022,0.999692,-0.006007,-0.020237,0.013056,0.778537,-0.016739,-0.603435,-0.171658
37815,NaN,25.514173,11.268299,-6.012244,13.962785,3.306354,14.847119,-0.300334,-3.520942,2.590249,-0.625732,-0.132080,-0.365234,0.254662,0.115897,-0.055809,0.999760,-0.001502,-0.017603,0.012950,0.769911,-0.028751,-0.616541,-0.162137
37816,NaN,23.040189,10.865448,-1.149447,8.111580,5.543277,13.716325,0.623509,-3.274205,2.508143,-0.636963,-0.112793,-0.340088,0.229158,0.111561,-0.007391,0.999783,0.003117,-0.016370,0.012540,0.761673,-0.035966,-0.629864,-0.147757
37817,NaN,18.883825,7.558021,5.708170,-0.706742,5.507230,10.568280,2.322138,-3.809027,2.668828,-0.651611,-0.110840,-0.312500,0.186670,0.077384,0.061542,0.999662,0.011609,-0.019043,0.013343,0.751793,-0.038339,-0.645412,-0.129538
37818,NaN,20.327909,8.092322,10.656622,-6.149816,7.553735,12.486324,2.918915,-4.278773,2.897776,-0.664551,-0.100098,-0.289307,0.199735,0.082226,0.112059,0.999560,0.014592,-0.021391,0.014487,0.739834,-0.038729,-0.663201,-0.106348
37819,NaN,18.588585,5.213362,8.070496,-5.148460,4.960019,9.852022,0.629903,-2.312025,2.357265,-0.671387,-0.083008,-0.276611,0.184306,0.054053,0.083010,0.999859,0.003149,-0.011560,0.011786,0.733420,-0.045449,-0.671560,-0.095068
37820,NaN,16.861008,4.315122,6.370156,-4.114548,4.393244,7.715538,-1.371523,-1.691719,2.113968,-0.676270,-0.068115,-0.270508,0.167593,0.045368,0.064816,0.999885,-0.006857,-0.008458,0.010569,0.728049,-0.057714,-0.677159,-0.089829
37821,NaN,13.603422,3.787102,6.958066,-5.219400,4.631059,4.297430,-0.555299,-2.568124,2.351927,-0.678711,-0.046631,-0.245117,0.134667,0.039656,0.071207,0.999845,-0.002776,-0.012840,0.011759,0.720117,-0.068852,-0.685495,-0.082382
37822,NaN,14.697739,4.229125,8.206420,-6.691057,5.727172,5.141875,0.582779,-3.473453,2.457830,-0.689697,-0.036133,-0.226318,0.144989,0.043837,0.084720,0.999769,0.002914,-0.017366,0.012288,0.708923,-0.075982,-0.697791,-0.068859
37823,NaN,15.859668,6.696903,8.591774,-6.917762,8.620318,5.935511,-0.325668,-2.266049,1.724266,-0.692139,-0.023193,-0.217773,0.157025,0.068469,0.087592,0.999897,-0.001628,-0.011330,0.008621,0.701393,-0.083933,-0.705006,-0.063005
37824,NaN,14.374093,5.538127,5.805991,-4.597566,7.142199,4.288472,-1.084493,-0.736028,0.831312,-0.692383,-0.014648,-0.215820,0.143294,0.056293,0.058284,0.999970,-0.005422,-0.003680,0.004157,0.698261,-0.090393,-0.707362,-0.062444
37825,NaN,11.232190,1.903307,4.981857,-4.552827,3.450014,1.231366,-1.014123,-0.462764,0.719183,-0.694580,-0.008301,-0.213623,0.112136,0.019690,0.049979,0.999978,-0.005071,-0.002314,0.003596,0.696353,-0.096629,-0.708342,-0.063298
37826,NaN,10.617407,-4.000914,3.558635,-4.536456,-2.523897,0.885416,-1.003822,-0.639838,0.485499,-0.688477,-0.001709,-0.211670,0.106155,-0.039571,0.036125,0.999979,-0.005019,-0.003199,0.002427,0.693440,-0.101627,-0.710442,-0.063917
37827,NaN,8.885084,-4.253183,4.985534,-6.041758,-2.407500,-0.891453,-0.649958,-1.094679,0.980814,-0.695068,0.008789,-0.203369,0.088782,-0.041933,0.050478,0.999968,-0.003250,-0.005473,0.004904,0.689489,-0.107721,-0.713530,-0.062255
37828,NaN,7.305140,-0.620147,5.863943,-6.064232,1.336984,-2.771993,-0.178073,-1.099429,1.230631,-0.695312,0.017334,-0.197021,0.072764,-0.005701,0.059045,0.999966,-0.000890,-0.005497,0.006153,0.685550,-0.112624,-0.716994,-0.057065
37829,NaN,6.169821,1.834203,4.457446,-4.116490,3.369662,-4.068203,0.693818,-0.604872,1.289671,-0.695557,0.025879,-0.201416,0.061444,0.018584,0.044825,0.999969,0.003469,-0.003024,0.006448,0.684095,-0.115047,-0.718538,-0.049802
37830,NaN,4.663738,4.344835,1.901057,-1.037580,5.118091,-5.693207,0.975453,-0.095242,1.159006,-0.693604,0.032471,-0.197021,0.046376,0.043624,0.019245,0.999971,0.004877,-0.000476,0.005795,0.684320,-0.115508,-0.718784,-0.041393
37831,NaN,2.545885,4.789180,0.802275,0.174021,5.109671,-7.832288,1.046116,0.304675,1.141132,-0.693848,0.036621,-0.197266,0.025198,0.047993,0.008235,0.999969,0.005231,0.001523,0.005706,0.686210,-0.115972,-0.717299,-0.033891
37832,NaN,-0.112945,4.914763,2.362397,-1.293305,5.235711,-10.626794,1.105107,0.628144,1.231575,-0.691895,0.045410,-0.205566,-0.001357,0.049008,0.023899,0.999961,0.005525,0.003141,0.006158,0.689019,-0.116191,-0.714919,-0.025376
37833,NaN,-1.038717,5.682795,5.423906,-4.184327,6.427143,-11.806265,0.951475,1.395959,1.191640,-0.687988,0.053955,-0.224854,-0.010344,0.056507,0.054581,0.999947,0.004757,0.006980,0.005958,0.694651,-0.116998,-0.709523,-0.018667
37834,NaN,0.064817,7.314846,6.656517,-5.152650,8.367744,-10.931001,0.402197,2.514727,1.028055,-0.684082,0.062500,-0.241699,0.001111,0.073019,0.066700,0.999906,0.002011,0.012573,0.005140,0.703595,-0.118808,-0.700445,-0.014658
37835,NaN,-0.354659,6.052299,5.292678,-4.069307,6.834789,-11.034734,-0.214232,3.357671,0.691426,-0.675781,0.064697,-0.254639,-0.002868,0.060569,0.052914,0.999853,-0.001071,0.016788,0.003457,0.715149,-0.121727,-0.688128,-0.014955
37836,NaN,0.601856,3.028925,2.855135,-2.175957,3.591363,-9.578166,-0.515552,3.326509,0.323316,-0.676025,0.066895,-0.280029,0.006442,0.030373,0.028368,0.999857,-0.002578,0.016632,0.001617,0.726006,-0.124332,-0.676132,-0.017372
37837,NaN,0.316348,0.062141,1.781393,-1.695202,0.471693,-9.387412,-0.027725,2.941239,-0.072900,-0.667480,0.069092,-0.290527,0.003425,0.000623,0.017765,0.999892,-0.000139,0.014706,-0.000364,0.735823,-0.123925,-0.665451,-0.019543
37838,NaN,3.729428,-0.123341,1.560841,-1.073555,0.699470,-5.976372,0.667636,2.646888,-0.095390,-0.656738,0.058594,-0.311523,0.037496,-0.001302,0.015109,0.999907,0.003338,0.013234,-0.000477,0.744792,-0.120827,-0.655988,-0.019156
37839,NaN,6.065961,-1.101121,-2.674246,3.355722,-0.835157,-4.051165,1.506811,3.902838,0.189837,-0.648193,0.052246,-0.334961,0.060132,-0.010746,-0.028001,0.999781,0.007534,0.019513,0.000949,0.758334,-0.115445,-0.641366,-0.015847
37840,NaN,6.113443,-4.887358,-2.460433,2.761524,-4.486682,-3.523822,1.707687,3.468570,0.051123,-0.639648,0.052246,-0.354004,0.060703,-0.048640,-0.026076,0.999813,0.008538,0.017342,0.000256,0.770132,-0.108792,-0.628423,-0.012022
37841,NaN,8.708639,0.005778,4.215185,-2.115650,1.761861,-0.537893,1.348740,2.772021,-0.016799,-0.633057,0.041504,-0.366455,0.087659,-0.000228,0.040939,0.999881,0.006743,0.013860,-0.000084,0.779461,-0.103373,-0.617792,-0.009341
37842,NaN,19.655445,7.653809,11.429230,-5.037486,11.601285,10.572491,-0.549356,1.893126,-1.013614,-0.633057,0.039307,-0.377197,0.198009,0.075847,0.112214,0.999939,-0.002747,0.009465,-0.005068,0.784762,-0.102235,-0.611104,-0.015770
37843,NaN,29.989845,21.545116,-3.016807,14.361402,23.131379,15.310275,-2.801539,2.802304,-1.707820,-0.620361,0.032959,-0.398193,0.301231,0.212393,-0.037372,0.999767,-0.014007,0.014010,-0.008538,0.791553,-0.107771,-0.600647,-0.032445
37844,NaN,27.580394,4.139216,-6.173788,14.536488,4.171627,14.415536,-0.861862,3.491302,-4.246129,-0.606934,0.007324,-0.412842,0.275460,0.035261,-0.066710,0.999613,-0.004309,0.017454,-0.021228,0.800398,-0.097886,-0.588944,-0.054095
37845,NaN,21.104827,-12.780072,4.905144,-0.914194,-11.249970,12.666385,-1.854060,1.907687,-4.855973,-0.600098,-0.009766,-0.423340,0.208333,-0.132432,0.048269,0.999617,-0.009269,0.009537,-0.024277,0.803467,-0.090461,-0.582989,-0.079885
37846,NaN,20.403024,-8.737466,4.114490,0.454937,-8.273367,11.184103,-2.811880,2.620195,-3.269986,-0.583008,-0.013916,-0.448730,0.203098,-0.090135,0.039734,0.999682,-0.014058,0.013100,-0.016348,0.808054,-0.091164,-0.572889,-0.102646
37847,NaN,18.909754,-6.529282,-0.522331,5.046514,-7.859330,7.884505,-0.029668,3.736394,-2.072436,-0.561523,-0.024658,-0.467773,0.188266,-0.067248,-0.008736,0.999772,-0.000148,0.018681,-0.010361,0.817475,-0.083418,-0.558623,-0.112770
37848,NaN,16.736592,-1.031664,2.782723,3.338702,-2.016267,6.730197,1.013954,3.762756,-1.603086,-0.548340,-0.041748,-0.484619,0.167759,-0.011791,0.024616,0.999778,0.005069,0.018812,-0.008015,0.827119,-0.072615,-0.544673,-0.118034
37849,NaN,14.290951,-4.323596,-1.815387,5.951759,-6.467921,2.391256,0.657497,2.880519,-2.334896,-0.539307,-0.058838,-0.497314,0.142110,-0.044834,-0.020350,0.999823,0.003287,0.014402,-0.011674,0.833659,-0.061834,-0.533931,-0.126911
37850,NaN,21.910135,-7.902974,-2.039486,8.297634,-11.518003,8.764837,1.643687,0.636953,-2.461757,-0.528320,-0.075928,-0.492920,0.218040,-0.081543,-0.021754,0.999885,0.008218,0.003185,-0.012308,0.834008,-0.047930,-0.533377,-0.132826
37851,NaN,20.868631,1.434645,2.315489,6.526872,-1.827884,10.111333,-0.491458,-0.526339,-1.776728,-0.528320,-0.075928,-0.499268,0.208741,0.012550,0.023672,0.999954,-0.002457,-0.002632,-0.008884,0.831249,-0.045598,-0.535679,-0.141402
37852,NaN,23.974373,3.822553,3.655695,7.179056,-0.197227,13.663892,-1.562773,0.748494,-1.911692,-0.519775,-0.075928,-0.501465,0.240230,0.036210,0.035370,0.999917,-0.007814,0.003742,-0.009558,0.831271,-0.046326,-0.532284,-0.153351
37853,NaN,20.868223,-1.047391,4.288591,4.051124,-4.446365,10.651338,-2.405310,1.132176,-2.147720,-0.507324,-0.071533,-0.516357,0.208796,-0.012208,0.041844,0.999854,-0.012026,0.005661,-0.010738,0.831940,-0.049742,-0.526187,-0.168907
37854,NaN,16.773462,-3.674320,4.593668,1.322242,-6.218237,6.786384,-3.201698,1.155000,-2.586986,-0.503174,-0.069580,-0.524902,0.167511,-0.038179,0.045572,0.999772,-0.016007,0.005775,-0.012934,0.831604,-0.055130,-0.519683,-0.187949
37855,NaN,13.757458,-5.395803,3.559017,0.286477,-7.570880,3.364672,-3.810851,1.436461,-2.771447,-0.488525,-0.058594,-0.537598,0.137071,-0.055181,0.035648,0.999697,-0.019052,0.007182,-0.013856,0.831411,-0.062417,-0.510769,-0.209700
37856,NaN,11.161586,-2.980207,2.206540,1.281804,-5.270066,0.623321,-4.123531,1.763147,-2.766112,-0.476318,-0.045898,-0.554688,0.111386,-0.030894,0.021712,0.999653,-0.020615,0.008815,-0.013829,0.831296,-0.070455,-0.500332,-0.231627
37857,NaN,6.840408,-0.221253,3.861279,-0.468197,-1.039880,-2.037852,-4.076890,1.447342,-2.823756,-0.463867,-0.035156,-0.567383,0.068648,-0.002400,0.038164,0.999666,-0.020382,0.007236,-0.014117,0.829916,-0.078649,-0.490457,-0.253981
37858,NaN,3.949643,-0.224037,5.620719,-2.881570,0.624403,-3.604022,-4.243476,0.782166,-2.827103,-0.453613,-0.024414,-0.571777,0.039690,-0.001610,0.056091,0.999667,-0.021215,0.003910,-0.014134,0.826204,-0.088121,-0.483333,-0.275700
37859,NaN,2.803429,0.349829,6.327247,-3.424812,1.926103,-4.105365,-4.088249,0.291386,-2.672474,-0.456299,-0.009277,-0.578369,0.028181,0.004414,0.063147,0.999701,-0.020439,0.001457,-0.013361,0.821159,-0.098136,-0.477561,-0.296651
37860,NaN,0.465929,0.370227,6.656822,-4.389468,3.157269,-5.884867,-3.392046,-0.375993,-2.256339,-0.454590,0.003662,-0.584717,0.004584,0.004779,0.066502,0.999791,-0.016959,-0.001880,-0.011281,0.815007,-0.107033,-0.475619,-0.313199
37861,NaN,-0.776953,0.907388,6.000147,-3.925119,3.917407,-7.229219,-2.025184,-1.171471,-1.643565,-0.460693,-0.000732,-0.576172,-0.008042,0.009746,0.059858,0.999898,-0.010126,-0.005857,-0.008218,0.808464,-0.113216,-0.478086,-0.324040
37862,NaN,-0.348872,2.520875,4.081495,-1.382031,4.094183,-7.700199,-0.251592,-1.583601,-0.895244,-0.471436,0.003662,-0.573975,-0.003699,0.025276,0.040754,0.999958,-0.001258,-0.007918,-0.004476,0.802970,-0.114489,-0.485042,-0.326903
37863,NaN,0.046999,3.498618,1.304222,1.298252,3.300324,-8.644046,1.311105,-1.501529,-0.259210,-0.479736,-0.007080,-0.567627,0.000416,0.034899,0.013274,0.999949,0.006555,-0.007508,-0.001296,0.799598,-0.111062,-0.493371,-0.323873
37864,NaN,-0.309381,2.824589,-1.416169,2.683312,1.610954,-10.345426,2.311765,-1.374489,0.216378,-0.479248,-0.017822,-0.563232,-0.003029,0.028404,-0.013855,0.999909,0.011558,-0.006872,0.001082,0.797648,-0.104417,-0.502876,-0.316181
37865,NaN,-1.175049,1.722250,-2.693061,2.696671,0.530716,-11.823998,2.479279,-1.175315,0.622993,-0.487549,-0.028564,-0.552734,-0.011647,0.017519,-0.026783,0.999901,0.012396,-0.005876,0.003115,0.796874,-0.097959,-0.511142,-0.306804
37866,NaN,-1.819685,0.752785,-2.664173,1.944858,0.063178,-12.493943,1.999735,-1.025671,0.861860,-0.489502,-0.032959,-0.552490,-0.018093,0.007716,-0.026658,0.999928,0.009998,-0.005128,0.004309,0.796345,-0.093611,-0.518266,-0.297443
37867,NaN,-1.971020,0.709718,-2.675675,1.911431,0.087020,-12.621008,0.994379,-1.003885,0.925894,-0.495850,-0.028564,-0.546387,-0.019609,0.007139,-0.026820,0.999964,0.004972,-0.005019,0.004629,0.795537,-0.093557,-0.523325,-0.290686
37868,NaN,-3.171300,-0.973681,-3.880987,1.594862,-1.421550,-14.449767,0.069969,-1.073722,0.854697,-0.500244,-0.026611,-0.537842,-0.031462,-0.009858,-0.038983,0.999976,0.000350,-0.005369,0.004273,0.793814,-0.096925,-0.527718,-0.286318
37869,NaN,-1.969188,-1.538618,-3.725692,1.511176,-2.288349,-13.363084,-0.515629,-1.064039,0.714001,-0.508789,-0.026611,-0.539795,-0.019438,-0.015552,-0.037321,0.999976,-0.002578,-0.005320,0.003570,0.791739,-0.102392,-0.530880,-0.284309
37870,NaN,-0.699913,-0.592093,-2.115880,1.130572,-1.238570,-11.395433,-0.918754,-0.736539,0.409197,-0.504639,-0.018066,-0.540039,-0.006909,-0.006032,-0.021157,0.999981,-0.004594,-0.003683,0.002046,0.789710,-0.108004,-0.532720,-0.284434
37871,NaN,0.861957,-0.476985,-1.512461,1.136217,-1.398928,-9.712679,-1.116691,-0.442856,-0.021765,-0.506836,-0.018066,-0.533691,0.008652,-0.004855,-0.015079,0.999982,-0.005583,-0.002214,-0.000109,0.787861,-0.112998,-0.532918,-0.287236
37872,NaN,0.941779,-1.753160,-1.015889,0.021467,-2.223864,-9.597153,-1.236864,0.020729,-0.375235,-0.511230,-0.011475,-0.537842,0.009384,-0.017612,-0.010051,0.999979,-0.006184,0.000104,-0.001876,0.786497,-0.116676,-0.531722,-0.291686
37873,NaN,-1.501517,-5.072321,1.820152,-4.772250,-2.636143,-11.066403,-1.242893,0.380335,-0.600316,-0.507080,-0.013672,-0.541992,-0.015132,-0.050563,0.018545,0.999974,-0.006214,0.001902,-0.003002,0.785866,-0.119426,-0.528787,-0.297551
37874,NaN,-2.931857,-8.603312,8.486868,-12.342851,-1.497962,-10.030042,-1.249334,0.575444,-0.644767,-0.504883,-0.011475,-0.546387,-0.029349,-0.085406,0.085488,0.999971,-0.006247,0.002877,-0.003224,0.785527,-0.121609,-0.525495,-0.303338
37875,NaN,3.210146,-10.003441,15.726239,-17.006038,-0.900222,-1.586477,-0.937441,0.437529,-0.332056,-0.500732,-0.011475,-0.548584,0.032281,-0.099350,0.157659,0.999985,-0.004687,0.002188,-0.001660,0.785570,-0.123769,-0.522586,-0.307352
37876,NaN,14.016171,-6.159202,16.051401,-11.946920,-1.586171,8.809491,0.306281,1.167633,-0.000558,-0.493896,-0.022217,-0.552734,0.141095,-0.061837,0.159598,0.999982,0.001531,0.005838,-0.000003,0.788741,-0.120647,-0.518826,-0.306841
37877,NaN,12.908295,-2.957650,-0.776348,2.410674,-7.387977,0.937915,3.302786,1.208193,0.112143,-0.489014,-0.050049,-0.550293,0.129047,-0.029362,-0.009029,0.999845,0.016513,0.006041,0.000561,0.793896,-0.106058,-0.519018,-0.298498
37878,NaN,51.973364,-8.569462,-4.227893,13.421965,-28.023608,32.929881,7.208071,1.318496,-0.582786,-0.475098,-0.090820,-0.556396,0.519177,-0.085528,-0.048788,0.999325,0.036032,0.006591,-0.002913,0.799725,-0.073787,-0.524829,-0.282047
37879,NaN,33.395834,-2.766571,12.602699,-1.750905,-10.008570,24.515888,1.053765,1.738313,-1.728796,-0.468506,-0.094971,-0.558594,0.334776,-0.031210,0.122961,0.999911,0.005269,0.008691,-0.008644,0.802144,-0.062595,-0.519994,-0.286798
37880,NaN,13.866358,-4.918522,-1.520997,2.758374,-10.192060,0.545504,1.034731,0.625025,-0.719220,-0.472412,-0.103760,-0.558350,0.138437,-0.049602,-0.015899,0.999975,0.005174,0.003125,-0.003596,0.803135,-0.055500,-0.519633,-0.286141
37881,NaN,0.720157,-7.409829,-15.633655,9.288613,-12.276397,-17.736572,4.695451,-0.724681,1.202342,-0.480225,-0.127197,-0.539307,0.008203,-0.070355,-0.157989,0.999700,0.023475,-0.003623,0.006011,0.804011,-0.040807,-0.528809,-0.268816
37882,NaN,5.553649,-6.294441,-6.830136,4.646870,-9.751884,-9.199303,7.389131,-2.492805,1.661911,-0.504883,-0.153076,-0.515625,0.056907,-0.059913,-0.069849,0.999205,0.036936,-0.012461,0.008307,0.800610,-0.018582,-0.548459,-0.240564
37883,NaN,6.492257,1.394853,-9.259956,10.526918,-3.478866,-7.193779,7.450655,-2.049313,2.205871,-0.514404,-0.185303,-0.492188,0.065678,0.018088,-0.091306,0.999193,0.037243,-0.010244,0.011026,0.797665,0.002724,-0.565012,-0.210915
37884,NaN,8.166270,6.034768,-11.954710,14.955022,0.415484,-5.109861,5.603100,-1.439638,2.381601,-0.524658,-0.196045,-0.475098,0.081759,0.064626,-0.117188,0.999511,0.028011,-0.007197,0.011906,0.795659,0.017110,-0.576856,-0.184042
37885,NaN,10.109656,5.108445,-11.028955,14.193580,-0.095721,-2.854522,3.850303,-2.230994,2.688913,-0.548096,-0.191895,-0.453857,0.101593,0.054544,-0.108130,0.999662,0.019249,-0.011154,0.013443,0.791073,0.022600,-0.589348,-0.162361
37886,NaN,15.598683,6.299408,-9.489451,14.075417,0.340776,3.407238,0.324734,-3.856528,2.570499,-0.567383,-0.178955,-0.434814,0.156948,0.065158,-0.091770,0.999730,0.001624,-0.019281,0.012851,0.781421,0.013503,-0.605501,-0.150226
37887,NaN,22.248574,9.612960,-8.049756,14.413041,2.467280,11.123893,-3.085775,-4.268907,2.349329,-0.587158,-0.153320,-0.416016,0.223017,0.097539,-0.077239,0.999584,-0.015427,-0.021342,0.011745,0.770116,-0.008887,-0.619807,-0.150605
37888,NaN,24.837261,16.417734,-7.244126,15.282811,8.996257,15.175063,-2.676579,-3.547607,1.998425,-0.606689,-0.140625,-0.403320,0.247981,0.165707,-0.070251,0.999703,-0.013382,-0.017736,0.009991,0.760029,-0.027684,-0.631801,-0.149720
37889,NaN,20.609976,13.666162,-5.972772,12.261188,7.948325,11.011625,0.140402,-2.866716,1.869099,-0.615234,-0.136230,-0.384277,0.205637,0.138625,-0.056681,0.999853,0.000702,-0.014333,0.009345,0.752249,-0.035208,-0.642488,-0.141744
37890,NaN,16.358479,5.761841,6.190220,-2.635823,4.460723,7.856678,2.470815,-3.850754,2.307160,-0.627930,-0.127930,-0.348389,0.161670,0.058694,0.065748,0.999672,0.012353,-0.019252,0.011535,0.741301,-0.035705,-0.658764,-0.123402
37891,NaN,18.403566,3.479219,11.870161,-9.309067,3.668788,9.972491,2.770873,-4.884713,2.925971,-0.645508,-0.110840,-0.327393,0.180537,0.035761,0.123631,0.999499,0.013852,-0.024419,0.014627,0.727108,-0.038079,-0.677761,-0.102487
37892,NaN,18.070236,5.724555,7.934060,-5.774936,5.652572,9.079181,0.239004,-2.800762,2.491927,-0.654053,-0.104492,-0.312500,0.178836,0.059385,0.081924,0.999824,0.001195,-0.014003,0.012459,0.718384,-0.046772,-0.688054,-0.091202
37893,NaN,17.752979,4.081976,4.745376,-3.311235,3.957083,8.289898,-1.826923,-2.079728,1.764984,-0.663086,-0.085205,-0.300049,0.176654,0.042824,0.048909,0.999865,-0.009134,-0.010398,0.008825,0.711474,-0.060358,-0.694224,-0.090636
37894,NaN,13.196487,0.756609,6.507353,-6.108432,1.702457,3.485149,-0.291164,-2.849244,1.990108,-0.665527,-0.070312,-0.276855,0.130936,0.008969,0.066931,0.999848,-0.001456,-0.014245,0.009950,0.701862,-0.069308,-0.704060,-0.082986
37895,NaN,13.984511,-1.720847,7.557797,-8.034664,-0.176813,4.008817,0.948253,-3.546112,1.943092,-0.674072,-0.061768,-0.260010,0.138638,-0.016223,0.077965,0.999784,0.004741,-0.017729,0.009715,0.690324,-0.074286,-0.716109,-0.071569
37896,NaN,19.036456,3.364555,8.204482,-8.265596,5.322743,8.743468,0.771898,-2.646559,1.939189,-0.678711,-0.048828,-0.243164,0.188920,0.035159,0.084685,0.999858,0.003859,-0.013232,0.009695,0.681318,-0.079236,-0.725171,-0.060454
37897,NaN,16.849774,7.311808,7.664812,-7.129074,9.370410,6.233600,-0.188781,-1.429669,1.585823,-0.681152,-0.038086,-0.240967,0.167357,0.074521,0.077777,0.999943,-0.000944,-0.007148,0.007929,0.676459,-0.086065,-0.729352,-0.055151
37898,NaN,13.863269,4.291386,6.855814,-6.852527,6.344759,3.240727,-1.038131,-0.964150,0.678588,-0.681396,-0.031738,-0.239014,0.138153,0.043741,0.068999,0.999969,-0.005191,-0.004821,0.003393,0.672289,-0.092116,-0.732417,-0.055749
37899,NaN,12.702802,-5.757208,4.606379,-6.742643,-3.870050,2.648596,-0.267542,-0.659982,0.467032,-0.686035,-0.018799,-0.234863,0.127009,-0.057213,0.046560,0.999991,-0.001338,-0.003300,0.002335,0.669832,-0.094917,-0.734377,-0.054839
37900,NaN,10.191438,-3.836312,4.250634,-5.856164,-2.104875,0.082901,-0.386758,-0.842877,1.323954,-0.681885,-0.008301,-0.226562,0.101984,-0.037605,0.043009,0.999967,-0.001934,-0.004214,0.006620,0.666561,-0.101121,-0.736799,-0.050984
37901,NaN,8.392078,1.758007,2.445039,-2.772807,2.969381,-1.876162,-0.069613,-0.742952,1.410667,-0.688721,0.004639,-0.222412,0.083702,0.018180,0.024755,0.999968,-0.000348,-0.003715,0.007053,0.664085,-0.106744,-0.738558,-0.046146
37902,NaN,6.898674,4.914406,2.577635,-2.127556,6.028770,-3.687910,0.989928,-0.678311,1.407210,-0.688965,0.009033,-0.222412,0.068551,0.049498,0.026254,0.999957,0.004950,-0.003392,0.007036,0.662092,-0.108637,-0.740581,-0.037034
37903,NaN,4.385123,6.900216,3.497213,-2.444716,7.907983,-6.563366,1.675070,-0.117078,1.220461,-0.680420,0.013184,-0.220215,0.043410,0.068972,0.035575,0.999946,0.008375,-0.000585,0.006102,0.662716,-0.107634,-0.740614,-0.026709
37904,NaN,1.942922,5.471523,3.216355,-2.302329,6.154554,-8.875926,1.351890,0.154816,1.009469,-0.678467,0.013184,-0.222412,0.019179,0.054593,0.032518,0.999964,0.006759,0.000774,0.005047,0.663832,-0.106769,-0.739997,-0.018184
37905,NaN,0.373907,5.382631,3.382097,-2.383282,5.867270,-10.480475,0.717094,0.400445,0.946851,-0.674561,0.030273,-0.230957,0.003553,0.053722,0.034006,0.999980,0.003585,0.002002,0.004734,0.665727,-0.107860,-0.738252,-0.012585
37906,NaN,-0.811443,6.892530,4.567317,-3.200022,7.348713,-11.999473,0.110347,1.136216,0.890286,-0.668701,0.039062,-0.239502,-0.008161,0.068864,0.045757,0.999974,0.000552,0.005681,0.004451,0.669747,-0.110659,-0.734234,-0.009709
37907,NaN,0.077300,10.126577,7.085266,-5.143847,11.062480,-11.791569,-0.703470,1.996924,0.814076,-0.668945,0.045410,-0.252197,0.001065,0.101518,0.070486,0.999936,-0.003517,0.009984,0.004070,0.676642,-0.115905,-0.727054,-0.010653
37908,NaN,-1.371195,7.639492,6.893274,-5.256838,8.458748,-12.740298,-1.227459,2.938619,0.253831,-0.664551,0.045410,-0.267090,-0.012799,0.076800,0.068655,0.999872,-0.006137,0.014692,0.001269,0.686312,-0.120832,-0.717020,-0.016040
37909,NaN,0.873669,2.051690,4.495025,-4.002050,3.002411,-9.431985,-1.177781,3.119670,-0.179767,-0.652100,0.047607,-0.290527,0.009454,0.020772,0.044685,0.999861,-0.005889,0.015598,-0.000899,0.696633,-0.123967,-0.706270,-0.022744
37910,NaN,1.268949,-0.697230,3.388308,-3.440501,0.217057,-8.511922,-0.824944,2.798578,-0.297700,-0.645752,0.045654,-0.298828,0.013152,-0.006852,0.033730,0.999892,-0.004125,0.013992,-0.001488,0.705707,-0.125512,-0.696710,-0.028625
37911,NaN,3.017265,-0.630876,2.067824,-2.031518,0.239113,-6.715466,-0.496636,2.739763,-0.362893,-0.635010,0.043457,-0.313721,0.030441,-0.006313,0.020278,0.999901,-0.002483,0.013698,-0.001814,0.714777,-0.125601,-0.687173,-0.033334
37912,NaN,5.815678,-1.114355,-1.947168,2.056479,-0.816371,-3.985515,0.414376,3.435442,-0.089285,-0.626465,0.039307,-0.336914,0.057806,-0.011128,-0.020490,0.999850,0.002072,0.017176,-0.000446,0.726553,-0.123269,-0.675077,-0.034576
37913,NaN,6.985866,-6.224328,-2.558983,1.897536,-5.811730,-2.282303,1.279586,3.477211,-0.003540,-0.616211,0.043701,-0.351807,0.069394,-0.062074,-0.027197,0.999828,0.006398,0.017385,-0.000018,0.738914,-0.117992,-0.662597,-0.032389
37914,NaN,7.267927,-4.697278,2.846120,-2.733100,-3.193142,-1.730881,1.256924,2.695929,-0.068028,-0.611816,0.037354,-0.375000,0.073035,-0.047171,0.027182,0.999889,0.006284,0.013479,-0.000340,0.748323,-0.112698,-0.652994,-0.030183
37915,NaN,16.465717,1.185984,9.608993,-6.550838,4.738307,7.492831,-0.120430,1.899793,-0.958570,-0.603027,0.026611,-0.375000,0.165614,0.011125,0.094513,0.999943,-0.000602,0.009499,-0.004793,0.754232,-0.109730,-0.646416,-0.035214
37916,NaN,27.024937,12.942589,-6.679678,13.830381,13.211628,14.198278,-1.530244,3.340588,-1.518050,-0.590332,0.028809,-0.396240,0.270042,0.126836,-0.072286,0.999802,-0.007651,0.016702,-0.007590,0.763631,-0.110006,-0.634412,-0.047834
37917,NaN,27.499716,2.236306,-4.645357,10.500595,2.485432,15.999447,0.179461,3.217792,-2.651087,-0.574951,0.007324,-0.413086,0.274467,0.018767,-0.050855,0.999782,0.000897,0.016088,-0.013254,0.773099,-0.100124,-0.623536,-0.059129
37918,NaN,26.841258,-13.622286,7.437275,-4.063431,-11.105769,18.847346,-0.789170,2.828785,-3.017172,-0.560059,0.000977,-0.425781,0.267341,-0.139977,0.071134,0.999778,-0.003946,0.014143,-0.015085,0.780256,-0.092946,-0.613957,-0.074962
37919,NaN,21.239463,-8.367767,2.320216,1.124690,-7.899635,11.700090,-1.276164,3.642158,-1.887017,-0.541016,0.003174,-0.442627,0.211976,-0.085545,0.019881,0.999769,-0.006380,0.018209,-0.009434,0.789920,-0.090752,-0.600054,-0.087900
37920,NaN,17.310296,-5.921724,-0.361968,3.776465,-6.581231,6.836743,1.058292,4.479994,-1.662093,-0.523682,-0.013916,-0.468018,0.172459,-0.060618,-0.007806,0.999701,0.005291,0.022398,-0.008310,0.802691,-0.079586,-0.583637,-0.093388
37921,NaN,15.313004,-3.905313,2.795917,1.384623,-4.215305,5.608836,2.158681,4.013174,-1.414968,-0.508301,-0.028809,-0.487061,0.153361,-0.040414,0.024452,0.999715,0.010792,0.020064,-0.007074,0.814337,-0.064906,-0.568987,-0.094323
37922,NaN,14.668693,-0.440788,2.455964,2.760384,-1.277712,4.751509,1.578656,3.327410,-1.803718,-0.482666,-0.039551,-0.497559,0.147019,-0.005914,0.022073,0.999790,0.007893,0.016636,-0.009018,0.823115,-0.051745,-0.556920,-0.098210
37923,NaN,16.213005,0.037048,1.267667,4.837198,-1.664434,5.623334,1.144400,2.446500,-2.705902,-0.473633,-0.056641,-0.508057,0.162254,-0.001889,0.010686,0.999817,0.005722,0.012232,-0.013529,0.828711,-0.038297,-0.548063,-0.106761
37924,NaN,22.593013,-2.565504,-1.527735,9.342934,-6.117465,10.052184,1.005071,0.998998,-2.599682,-0.470947,-0.071777,-0.499512,0.225491,-0.028507,-0.016543,0.999890,0.005025,0.004995,-0.012998,0.829976,-0.026445,-0.545195,-0.114901
37925,NaN,23.432976,-3.531438,1.635445,6.542627,-7.114493,11.885604,0.584289,-0.504962,-1.518975,-0.466797,-0.073730,-0.508057,0.234010,-0.037141,0.016839,0.999964,0.002921,-0.002525,-0.007595,0.827741,-0.020176,-0.547860,-0.119529
37926,NaN,23.436953,1.233960,3.952343,5.448117,-2.453728,13.224639,-1.075257,0.783485,-1.646168,-0.460449,-0.071533,-0.514404,0.234614,0.010618,0.038544,0.999944,-0.005376,0.003917,-0.008231,0.828544,-0.019602,-0.544467,-0.129176
37927,NaN,20.468651,-0.714731,4.282067,3.712906,-4.054693,10.375806,-2.041923,1.172013,-1.820519,-0.447998,-0.062988,-0.522949,0.204859,-0.008582,0.041703,0.999889,-0.010209,0.005860,-0.009102,0.830234,-0.022355,-0.538464,-0.142366
37928,NaN,17.436186,-4.870803,4.961158,0.944188,-7.544874,7.349354,-2.909369,1.447882,-2.229761,-0.441895,-0.056641,-0.535645,0.174166,-0.049934,0.049071,0.999806,-0.014546,0.007239,-0.011148,0.831854,-0.027334,-0.530923,-0.159353
37929,NaN,12.414655,-4.896588,3.746760,0.043967,-6.845100,2.240455,-3.818901,1.763088,-2.544723,-0.436035,-0.043701,-0.552734,0.123846,-0.049829,0.037321,0.999698,-0.019093,0.008815,-0.012722,0.833701,-0.035059,-0.520789,-0.180254
37930,NaN,9.521421,-0.248103,2.755567,1.340608,-2.153340,-0.227583,-4.186065,1.759754,-2.683849,-0.423828,-0.024414,-0.565674,0.095412,-0.003195,0.026779,0.999652,-0.020928,0.008798,-0.013418,0.834674,-0.043851,-0.510395,-0.202222
37931,NaN,4.635558,0.374312,4.149245,-1.424378,0.147512,-3.746953,-4.325436,1.248917,-2.797317,-0.413818,-0.009277,-0.570068,0.046668,0.003984,0.041117,0.999649,-0.021625,0.006244,-0.013985,0.833761,-0.053497,-0.501299,-0.225122
37932,NaN,2.509039,-0.244178,5.840703,-3.808036,0.893348,-4.796077,-4.463450,0.564865,-2.754345,-0.407959,0.007812,-0.574463,0.025230,-0.001486,0.058376,0.999652,-0.022315,0.002824,-0.013770,0.830449,-0.064467,-0.494917,-0.247501
37933,NaN,1.141657,0.638267,6.336727,-4.185793,2.486095,-5.551442,-4.319240,0.078603,-2.461083,-0.404297,0.027100,-0.578857,0.011530,0.007608,0.063207,0.999691,-0.021594,0.000393,-0.012304,0.825919,-0.076209,-0.489941,-0.268341
37934,NaN,-1.386576,1.131739,5.900190,-4.401498,3.842447,-7.844417,-3.185297,-0.605695,-1.884398,-0.410889,0.035645,-0.574463,-0.013931,0.012386,0.058768,0.999824,-0.015926,-0.003028,-0.009421,0.820425,-0.085470,-0.489204,-0.283334
37935,NaN,-1.220299,3.028107,4.800108,-2.360135,4.993559,-8.025845,-1.426023,-1.307903,-1.106860,-0.419434,0.037842,-0.568115,-0.012346,0.030690,0.047703,0.999938,-0.007130,-0.006539,-0.005534,0.814968,-0.090478,-0.493046,-0.290770
37936,NaN,-1.094619,3.813611,1.968271,0.287526,4.383488,-9.248549,0.340644,-1.465113,-0.339322,-0.421631,0.041992,-0.563965,-0.011026,0.038121,0.019667,0.999970,0.001703,-0.007325,-0.001697,0.810862,-0.090312,-0.500004,-0.290417
37937,NaN,-1.577419,3.310102,-0.845454,1.966579,2.941288,-11.093729,1.875999,-1.490554,0.171363,-0.433838,0.022705,-0.559570,-0.015741,0.033166,-0.008261,0.999928,0.009380,-0.007453,0.000857,0.808143,-0.085311,-0.508712,-0.284322
37938,NaN,-2.449531,2.446462,-2.559820,2.539391,1.861565,-12.749303,2.839513,-1.505202,0.603980,-0.441895,0.014160,-0.555176,-0.024378,0.024753,-0.025432,0.999866,0.014197,-0.007526,0.003020,0.806119,-0.077437,-0.518840,-0.273827
37939,NaN,-3.097864,1.583587,-2.778218,2.083246,1.328341,-13.516512,2.941588,-1.400331,0.914933,-0.452393,0.007812,-0.555176,-0.030857,0.016103,-0.027763,0.999857,0.014707,-0.007001,0.004574,0.804730,-0.069879,-0.528137,-0.261912
37940,NaN,-2.990276,0.695870,-2.237051,1.270319,0.763196,-13.310416,2.287996,-1.218686,1.103372,-0.456299,-0.000732,-0.542480,-0.029805,0.007051,-0.022472,0.999901,0.011440,-0.006093,0.005517,0.803496,-0.065113,-0.535933,-0.250860
37941,NaN,-4.067104,-0.865848,-2.642269,0.587760,-0.403162,-14.687541,1.332579,-1.119802,1.165577,-0.462646,-0.002930,-0.538086,-0.040471,-0.008717,-0.026708,0.999945,0.006663,-0.005599,0.005828,0.802313,-0.064301,-0.541749,-0.242214
37942,NaN,-4.423531,-2.196371,-2.767307,0.040528,-1.559280,-15.254730,0.618688,-1.328706,1.133211,-0.471191,-0.002930,-0.533936,-0.043925,-0.022127,-0.028034,0.999957,0.003093,-0.006643,0.005666,0.800061,-0.066435,-0.547773,-0.235445
37943,NaN,-2.533725,-1.853555,-1.688421,-0.124487,-1.499442,-13.044111,-0.138199,-1.388681,0.888441,-0.481934,0.003418,-0.529541,-0.025137,-0.018659,-0.017046,0.999966,-0.000691,-0.006943,0.004442,0.797195,-0.071070,-0.552906,-0.231786
37944,NaN,0.206181,-0.454174,-0.940700,0.651554,-0.811569,-10.037439,-0.624194,-1.293473,0.429346,-0.486328,0.007568,-0.517090,0.002132,-0.004567,-0.009379,0.999972,-0.003121,-0.006467,0.002147,0.793684,-0.076182,-0.557501,-0.231202
37945,NaN,1.625779,-0.210981,0.407709,-0.007086,-0.484440,-8.194312,-0.956522,-0.914330,0.033175,-0.486328,0.011963,-0.517090,0.016239,-0.002087,0.004161,0.999978,-0.004783,-0.004572,0.000166,0.790756,-0.081141,-0.560054,-0.233368
37946,NaN,1.338928,-1.768008,2.825417,-2.863026,-0.804525,-7.798426,-1.093019,-0.431230,-0.238279,-0.492676,0.009766,-0.512695,0.013307,-0.017541,0.028379,0.999982,-0.005465,-0.002156,-0.001191,0.788625,-0.085236,-0.560901,-0.237055
37947,NaN,-0.849179,-3.989162,5.141850,-6.438656,-1.153996,-9.279108,-1.052973,0.300133,-0.378055,-0.490479,0.007568,-0.516846,-0.008489,-0.039604,0.051640,0.999983,-0.005265,0.001501,-0.001890,0.788521,-0.087987,-0.558676,-0.241608
37948,NaN,0.054157,-6.404148,9.186871,-10.757118,-1.795335,-7.268022,-0.591753,0.655848,-0.260228,-0.481934,0.007568,-0.521240,0.000760,-0.063770,0.092055,0.999989,-0.002959,0.003279,-0.001301,0.789611,-0.088747,-0.555787,-0.244417
37949,NaN,9.085655,-7.907119,9.279846,-9.150525,-5.667799,0.926498,0.279178,0.726780,-0.074559,-0.486084,0.003418,-0.525391,0.091163,-0.079234,0.092357,0.999992,0.001396,0.003634,-0.000373,0.791622,-0.086565,-0.553343,-0.244240
37950,NaN,12.470157,-2.884010,7.296210,-4.082420,-3.267599,3.960771,2.037090,1.035413,-0.085909,-0.483398,-0.013672,-0.523193,0.125063,-0.029631,0.072016,0.999935,0.010185,0.005177,-0.000430,0.795111,-0.076958,-0.551984,-0.239142
37951,NaN,26.678984,-0.936172,-5.731222,11.893027,-10.845715,12.242004,4.891304,0.646210,-0.193547,-0.484619,-0.048096,-0.516602,0.266594,-0.008201,-0.058384,0.999695,0.024454,0.003231,-0.000968,0.798267,-0.056201,-0.555226,-0.226574
37952,NaN,47.464742,-7.245756,7.264623,4.288822,-18.909017,34.706743,4.228820,2.008855,-1.887796,-0.467041,-0.067383,-0.529053,0.474613,-0.078384,0.066263,0.999681,0.021142,0.010043,-0.009438,0.802545,-0.031747,-0.552633,-0.222508
37953,NaN,11.655913,1.152627,4.468256,-0.022128,-1.492870,2.634034,-0.555904,1.198698,-1.521469,-0.471436,-0.065186,-0.531250,0.116908,0.010761,0.043952,0.999949,-0.002779,0.005993,-0.007607,0.804000,-0.028454,-0.547476,-0.230316
37954,NaN,12.398605,-10.628708,-8.020881,6.460718,-16.014349,-4.083493,1.730343,-0.420315,0.500596,-0.477051,-0.084473,-0.520508,0.124420,-0.105278,-0.080861,0.999957,0.008652,-0.002102,0.002503,0.803568,-0.023299,-0.551376,-0.222981
37955,NaN,14.923096,-9.744683,-9.604401,9.337133,-16.193316,-2.038819,5.699024,-1.973189,1.457879,-0.491211,-0.108154,-0.494873,0.150878,-0.093591,-0.097265,0.999519,0.028491,-0.009864,0.007288,0.799993,-0.006627,-0.565278,-0.201066
37956,NaN,8.648455,-4.586044,-13.842134,13.710423,-9.737781,-7.689619,7.230924,-1.814255,1.876181,-0.501221,-0.127441,-0.482178,0.088139,-0.040016,-0.139144,0.999261,0.036146,-0.009069,0.009379,0.796317,0.015250,-0.579668,-0.172139
37957,NaN,7.033151,5.948406,-14.031817,16.362148,1.567921,-6.426157,5.812284,-1.196453,2.184891,-0.515625,-0.138184,-0.467041,0.070477,0.064288,-0.138075,0.999500,0.029057,-0.005981,0.010923,0.793849,0.031007,-0.589367,-0.146594
37958,NaN,10.451168,5.163988,-9.753647,12.844788,1.214239,-1.779849,3.155553,-2.038835,2.356915,-0.532471,-0.138184,-0.447998,0.104863,0.054393,-0.095625,0.999754,0.015776,-0.010193,0.011784,0.788707,0.035184,-0.600394,-0.127395
37959,NaN,12.906064,6.714256,-9.726906,13.368670,2.534649,1.191202,-0.002599,-3.647543,2.276987,-0.550049,-0.121094,-0.428955,0.130030,0.068618,-0.094904,0.999769,-0.000013,-0.018236,0.011384,0.778983,0.025998,-0.615095,-0.119028
37960,NaN,18.711612,7.442055,-7.456229,12.123578,2.513509,7.730956,-2.218362,-3.549390,2.029855,-0.571533,-0.108398,-0.416504,0.187647,0.075515,-0.072069,0.999730,-0.011091,-0.017745,0.010148,0.769079,0.009119,-0.628172,-0.117624
37961,NaN,21.779982,10.862306,-3.826400,9.271594,6.111929,12.179024,-0.982681,-3.235882,2.086829,-0.580566,-0.091309,-0.397461,0.217239,0.110714,-0.035287,0.999803,-0.004913,-0.016178,0.010433,0.759990,-0.003128,-0.640063,-0.112801
37962,NaN,19.229798,9.443639,-3.317482,7.573542,5.772331,9.661610,0.201846,-3.043283,2.185647,-0.593262,-0.084961,-0.374268,0.191725,0.096565,-0.030158,0.999824,0.001009,-0.015216,0.010928,0.750990,-0.010946,-0.652116,-0.103146
37963,NaN,17.717805,4.952937,2.234550,0.570025,2.976594,8.468198,1.654250,-3.900558,2.668430,-0.610352,-0.076416,-0.346680,0.176012,0.051677,0.026208,0.999687,0.008270,-0.019501,0.013341,0.739456,-0.015452,-0.667319,-0.087477
37965,NaN,19.417415,6.188051,8.853215,-13.668033,11.544115,30.846293,1.975919,-3.868271,2.950479,-0.636719,-0.046631,-0.306641,0.377250,0.131277,0.194350,0.998622,0.019750,-0.038665,0.029491,0.715077,-0.023776,-0.696760,-0.051239
37966,NaN,18.412681,4.235083,7.434887,-6.615485,4.498502,8.847737,-1.002116,-1.726502,2.081835,-0.647705,-0.031494,-0.298340,0.183020,0.044637,0.075712,0.999896,-0.005010,-0.008632,0.010409,0.709350,-0.035057,-0.702409,-0.047063
37967,NaN,15.216036,1.510288,5.370564,-5.154091,2.048710,5.414666,-0.502894,-1.811818,2.114146,-0.654297,-0.018799,-0.285645,0.151494,0.016844,0.055039,0.999900,-0.002514,-0.009059,0.010570,0.702923,-0.044603,-0.708703,-0.040620
37968,NaN,15.192368,0.657038,5.713505,-5.893006,1.596372,5.240069,0.860194,-2.607748,2.200832,-0.660889,-0.010254,-0.266602,0.151079,0.007985,0.059141,0.999845,0.004301,-0.013038,0.011004,0.694159,-0.049906,-0.717494,-0.029235
37969,NaN,17.254034,6.663529,6.247634,-6.241073,8.043568,6.844095,0.562353,-2.687786,2.185163,-0.674072,0.009033,-0.254150,0.170938,0.068328,0.064971,0.999846,0.002812,-0.013438,0.010925,0.684484,-0.056101,-0.726628,-0.018609
37970,NaN,14.578387,9.372958,8.548669,-8.460169,11.133609,3.525397,-0.071819,-2.465361,1.532599,-0.674316,0.015381,-0.239258,0.143992,0.094869,0.087235,0.999895,-0.000359,-0.012326,0.007663,0.675522,-0.062142,-0.734603,-0.012916
37971,NaN,13.279522,4.573977,9.420348,-9.957263,6.572811,2.172930,-0.757784,-1.289373,0.745710,-0.674316,0.021729,-0.230957,0.132012,0.046592,0.094881,0.999965,-0.003789,-0.006447,0.003729,0.670229,-0.067479,-0.738973,-0.012583
37972,NaN,12.205265,-3.113243,4.790223,-6.253813,-1.481559,2.032144,-0.639567,-0.377856,0.818469,-0.674561,0.028320,-0.228760,0.122087,-0.030479,0.048231,0.999985,-0.003198,-0.001889,0.004092,0.668602,-0.072672,-0.739963,-0.012060
37973,NaN,11.130336,-2.679621,2.954392,-4.351422,-1.214173,1.113505,-0.719789,-0.597947,1.122751,-0.675049,0.043213,-0.224854,0.111362,-0.026064,0.029971,0.999973,-0.003599,-0.002990,0.005614,0.665881,-0.079233,-0.741763,-0.010592
37974,NaN,9.148271,-0.113639,4.802666,-5.707743,1.475262,-1.326659,-0.123955,-1.011727,1.172251,-0.681885,0.056152,-0.220703,0.091243,-0.000571,0.048489,0.999970,-0.000620,-0.005059,0.005861,0.662064,-0.084048,-0.744690,-0.006731
37975,NaN,8.066793,2.231239,6.158385,-6.677056,3.915040,-2.879752,0.432046,-0.706080,1.111174,-0.679932,0.064697,-0.218506,0.080325,0.022626,0.061916,0.999976,0.002160,-0.003530,0.005556,0.659368,-0.086744,-0.746798,-0.000988
37976,NaN,5.611146,4.905090,4.192740,-4.148255,6.047167,-5.414128,0.844389,0.073231,1.046876,-0.682129,0.071045,-0.218506,0.055870,0.049166,0.042114,0.999977,0.004222,0.000366,0.005234,0.659940,-0.087869,-0.746141,0.005602
37977,NaN,3.875255,5.943208,2.424405,-2.115171,6.653602,-7.079127,1.006710,0.409287,0.930607,-0.682373,0.073242,-0.218506,0.038526,0.059489,0.024464,0.999974,0.005034,0.002046,0.004653,0.661634,-0.088017,-0.744541,0.012338
37978,NaN,1.553527,4.910224,3.172402,-2.754931,5.365421,-9.354072,0.914496,0.676301,0.912657,-0.680420,0.081787,-0.220703,0.015419,0.049027,0.031896,0.999973,0.004572,0.003381,0.004563,0.664422,-0.088430,-0.741877,0.018481
37979,NaN,-0.606899,5.077728,4.539077,-3.912955,5.288988,-11.675446,0.865827,1.065191,0.993572,-0.674316,0.088135,-0.233643,-0.006078,0.050550,0.045642,0.999964,0.004329,0.005326,0.004968,0.668432,-0.089346,-0.737980,0.024524
37980,NaN,-0.824875,7.046081,5.653972,-4.867054,7.242900,-12.291906,0.711219,1.936890,0.923117,-0.674561,0.098877,-0.246338,-0.008024,0.070222,0.056868,0.999936,0.003556,0.009684,0.004615,0.675683,-0.090607,-0.731013,0.029384
37981,NaN,-0.180701,7.756109,5.920407,-5.149889,8.067464,-11.719135,-0.054274,2.623208,0.442348,-0.664307,0.105469,-0.259033,-0.001202,0.077574,0.059201,0.999912,-0.000271,0.013116,0.002212,0.684951,-0.092813,-0.722055,0.029406
37982,NaN,0.347731,4.414419,5.090069,-4.642888,4.852533,-10.453951,-0.777529,2.855429,-0.058149,-0.666504,0.103271,-0.273926,0.004215,0.044340,0.050672,0.999890,-0.003888,0.014277,-0.000291,0.694776,-0.095675,-0.712393,0.025089
37983,NaN,1.917802,1.030274,3.364857,-3.240613,1.683621,-8.162137,-0.853493,2.901024,-0.184348,-0.660400,0.109863,-0.286621,0.019673,0.010427,0.033321,0.999885,-0.004267,0.014505,-0.000922,0.704512,-0.098375,-0.702560,0.019850
37985,NaN,4.039927,-0.089605,0.319725,-0.311390,1.219747,-1.805201,0.103575,3.054177,0.089887,-0.645752,0.114258,-0.324707,0.080945,-0.001724,0.003922,0.999533,0.001036,0.030537,0.000899,0.725667,-0.098836,-0.680666,0.018216
37986,NaN,6.480505,-4.107899,-3.028704,3.172986,-3.342638,-2.971982,1.316926,3.749033,0.218900,-0.633301,0.120605,-0.341797,0.064264,-0.040803,-0.031764,0.999802,0.006584,0.018744,0.001094,0.738800,-0.095155,-0.666828,0.021453
37987,NaN,7.360162,-3.207648,0.025986,0.600374,-1.989587,-2.057846,1.206613,2.869225,0.014250,-0.626709,0.114258,-0.356689,0.073596,-0.032068,-0.000990,0.999879,0.006033,0.014346,0.000071,0.748797,-0.091041,-0.656072,0.024179
37988,NaN,13.564423,1.545010,7.395151,-5.138351,4.329982,4.183908,0.624910,2.382474,-0.706429,-0.624512,0.110107,-0.367188,0.136566,0.014741,0.072375,0.999918,0.003124,0.011912,-0.003532,0.756800,-0.086685,-0.647488,0.022355
37989,NaN,24.312875,14.040863,-1.068615,6.455567,17.028585,11.580866,-1.103657,2.716691,-1.623303,-0.618164,0.107910,-0.384033,0.244075,0.138356,-0.014765,0.999860,-0.005518,0.013583,-0.008116,0.765141,-0.085895,-0.638005,0.011476
37990,NaN,27.016654,11.133633,-5.338502,11.723361,13.339784,13.995698,0.177716,3.743247,-2.836269,-0.602783,0.084473,-0.405029,0.270649,0.107551,-0.058351,0.999724,0.000888,0.018715,-0.014180,0.776994,-0.076383,-0.624856,-0.000709
37991,NaN,27.598669,-7.980982,5.586173,0.225982,-5.173336,18.990441,-0.342041,3.364105,-3.719973,-0.596191,0.078125,-0.417725,0.275329,-0.084845,0.051369,0.999684,-0.001710,0.016819,-0.018598,0.787066,-0.066054,-0.613073,-0.017496
37992,NaN,19.022029,-6.885445,5.297862,-0.970292,-5.367068,10.374938,-2.623390,3.163833,-2.757404,-0.583740,0.082520,-0.441162,0.190069,-0.070799,0.050891,0.999694,-0.013116,0.015818,-0.013786,0.795270,-0.067640,-0.601284,-0.037778
37993,NaN,17.938252,-7.499250,-1.798692,5.790088,-7.544477,7.239110,-0.469012,3.534208,-2.137858,-0.576904,0.067383,-0.459961,0.178214,-0.076949,-0.020964,0.999784,-0.002345,0.017670,-0.010689,0.805114,-0.062398,-0.587801,-0.048860
37994,NaN,15.549641,-3.863761,3.570670,1.037957,-3.550966,6.179316,1.153618,3.517869,-1.895095,-0.557617,0.054688,-0.479004,0.155713,-0.040307,0.032740,0.999784,0.005768,0.017588,-0.009475,0.815022,-0.051311,-0.574580,-0.054438
37995,NaN,15.052985,-0.527212,4.440709,1.029601,-0.527883,5.846854,0.285830,3.156351,-2.208853,-0.553223,0.046143,-0.491699,0.151135,-0.007000,0.042016,0.999813,0.001429,0.015781,-0.011044,0.823365,-0.042935,-0.562322,-0.063403
37996,NaN,16.719330,1.329105,2.165482,4.346422,0.397633,6.524704,-0.797569,1.977084,-3.155953,-0.542236,0.035400,-0.502197,0.167579,0.010730,0.019953,0.999819,-0.003988,0.009885,-0.015779,0.827446,-0.036700,-0.554710,-0.079268
37997,NaN,23.794024,-7.135884,-5.557768,12.684569,-10.356142,9.674894,0.365689,0.814862,-3.053398,-0.543945,0.024902,-0.506348,0.236586,-0.074875,-0.056678,0.999873,0.001828,0.004074,-0.015266,0.828415,-0.026395,-0.552041,-0.091013
37998,NaN,23.611454,-2.728965,3.130034,5.327403,-5.298166,12.952933,-0.140576,-0.880335,-1.851422,-0.548340,0.022705,-0.506348,0.235708,-0.029450,0.032359,0.999947,-0.000703,-0.004402,-0.009257,0.824889,-0.022252,-0.556096,-0.099101
37999,NaN,24.038929,3.593234,5.086185,4.864323,0.710745,14.527850,-2.165661,1.024040,-2.044698,-0.544189,0.024902,-0.514893,0.240998,0.034010,0.049254,0.999876,-0.010828,0.005120,-0.010223,0.826336,-0.024994,-0.551026,-0.113645
38000,NaN,19.585776,-2.080283,4.516012,2.683957,-4.576591,9.685150,-2.789413,1.172608,-2.189511,-0.535889,0.035645,-0.529785,0.195880,-0.022325,0.044316,0.999826,-0.013946,0.005863,-0.010947,0.827623,-0.029793,-0.545059,-0.130627
38001,NaN,16.150270,-5.221471,4.796047,0.375399,-7.194326,6.286763,-3.410007,1.197557,-2.533702,-0.534180,0.041992,-0.538086,0.161118,-0.053440,0.047899,0.999756,-0.017049,0.005987,-0.012667,0.828479,-0.036216,-0.538190,-0.150539
38002,NaN,13.099621,-3.922880,3.929945,0.290370,-5.704053,3.218427,-4.200824,1.448345,-2.660067,-0.519531,0.052734,-0.551025,0.130750,-0.040145,0.039189,0.999665,-0.021002,0.007241,-0.013299,0.829137,-0.045326,-0.529629,-0.173120
38003,NaN,10.506060,-1.673357,3.137004,0.727069,-3.349677,0.735615,-4.156227,1.500327,-2.688533,-0.521973,0.063477,-0.553223,0.105062,-0.017500,0.030940,0.999666,-0.020779,0.007501,-0.013441,0.829522,-0.054133,-0.520315,-0.195539
38004,NaN,6.128052,0.252962,4.407832,-1.233212,-0.132498,-2.362395,-3.938802,1.102818,-2.669318,-0.518311,0.076416,-0.563965,0.061556,0.002572,0.043689,0.999702,-0.019692,0.005514,-0.013345,0.828282,-0.062396,-0.512765,-0.217090
38007,NaN,1.913803,0.059867,4.824206,-9.406426,3.595711,2.060187,-3.125824,0.054717,-2.283098,-0.522949,0.095703,-0.566162,0.057704,0.006602,0.144444,0.998315,-0.046861,0.000820,-0.034227,0.816912,-0.083391,-0.503254,-0.269139
38008,NaN,-1.565482,0.705635,3.543521,-2.918354,2.610138,-9.393941,-0.481543,-1.166257,-1.257387,-0.535645,0.093506,-0.559814,-0.015816,0.007241,0.035326,0.999960,-0.002408,-0.005831,-0.006287,0.811887,-0.083724,-0.508138,-0.275001
38009,NaN,-1.737310,1.730096,1.234886,-0.618780,2.583815,-10.503645,1.018346,-1.459577,-0.555480,-0.546143,0.087158,-0.555420,-0.017415,0.017287,0.012310,0.999957,0.005092,-0.007298,-0.002777,0.807766,-0.080201,-0.515742,-0.274030
38010,NaN,-2.361281,1.703938,-1.624735,1.442525,1.615971,-12.347724,2.181928,-1.656852,0.004499,-0.554443,0.078613,-0.557373,-0.023479,0.017216,-0.016255,0.999906,0.010909,-0.008284,0.000022,0.804131,-0.073632,-0.525614,-0.267733
38011,NaN,-3.298524,0.652445,-3.101838,1.868712,0.490677,-13.959222,2.824614,-1.702935,0.495861,-0.564697,0.067871,-0.546631,-0.032737,0.006883,-0.031202,0.999861,0.014122,-0.008514,0.002479,0.801206,-0.065867,-0.536054,-0.257638
38012,NaN,-4.013243,-0.183683,-2.903957,1.183171,0.105145,-14.625282,2.787357,-1.658986,0.873001,-0.568359,0.050537,-0.538086,-0.039882,-0.001603,-0.029395,0.999859,0.013936,-0.008295,0.004365,0.798509,-0.059140,-0.546171,-0.246138
38013,NaN,-3.819626,-0.919298,-3.023929,1.096739,-0.659701,-14.602253,2.100828,-1.549651,1.122017,-0.581299,0.054932,-0.533936,-0.037909,-0.009086,-0.030630,0.999899,0.010504,-0.007748,0.005610,0.796154,-0.055735,-0.554624,-0.235425
38014,NaN,-3.983258,-2.052847,-3.806897,1.321705,-1.926890,-15.208248,1.139568,-1.465396,1.239523,-0.589600,0.054932,-0.529541,-0.039424,-0.020555,-0.038476,0.999938,0.005698,-0.007327,0.006197,0.793631,-0.056332,-0.561665,-0.226955
38015,NaN,-4.140509,-3.157646,-3.566485,0.682233,-2.853410,-15.400692,0.297928,-1.412295,1.221760,-0.596191,0.059082,-0.523193,-0.040958,-0.031774,-0.036002,0.999955,0.001490,-0.007061,0.006109,0.791054,-0.060196,-0.567306,-0.220849
38016,NaN,-2.153899,-2.007714,-1.804539,0.184345,-1.838676,-12.730149,-0.434922,-1.268704,1.036777,-0.604736,0.067627,-0.514893,-0.021320,-0.020227,-0.018137,0.999964,-0.002175,-0.006343,0.005184,0.788253,-0.066232,-0.571765,-0.217612
38017,NaN,-0.689680,-0.289293,0.403070,-0.644480,0.066474,-10.362268,-0.897840,-1.147889,0.637513,-0.613770,0.080566,-0.508545,-0.006911,-0.002897,0.004004,0.999968,-0.004489,-0.005739,0.003188,0.785296,-0.072856,-0.575150,-0.217265
38018,NaN,0.978300,0.209516,1.884916,-1.316612,0.636879,-8.258753,-1.116387,-1.013132,0.248238,-0.615723,0.080566,-0.493896,0.009685,0.002213,0.018886,0.999971,-0.005582,-0.005066,0.001241,0.782038,-0.079029,-0.578058,-0.219136
38019,NaN,1.825327,-0.585699,4.366108,-3.618485,0.697917,-6.786656,-1.403788,-0.569175,-0.115571,-0.624512,0.084717,-0.502197,0.018126,-0.005561,0.043753,0.999971,-0.007019,-0.002846,-0.000578,0.779642,-0.084820,-0.578842,-0.223399
38020,NaN,1.568439,-2.770167,9.481190,-9.059913,0.930215,-5.680181,-1.576123,0.219784,-0.396598,-0.615723,0.082520,-0.495850,0.015735,-0.026985,0.095009,0.999966,-0.007881,0.001099,-0.001983,0.778967,-0.089548,-0.576603,-0.229608
38021,NaN,5.673055,-2.596755,15.774663,-13.368698,2.676015,0.280950,-0.826976,0.833456,-0.550405,-0.615967,0.082764,-0.504395,0.057317,-0.025473,0.157615,0.999979,-0.004135,0.004167,-0.002752,0.780305,-0.090239,-0.572710,-0.234488
38022,NaN,17.768310,-0.221106,15.452188,-8.962435,1.190492,11.930236,1.525292,2.342735,-0.529415,-0.606689,0.061279,-0.521240,0.179468,-0.003852,0.152401,0.999899,0.007626,0.011713,-0.002647,0.786878,-0.080010,-0.565705,-0.233238
38023,NaN,13.978021,0.249148,-10.432756,12.709670,-7.540625,-0.546238,5.209356,2.025964,-0.756376,-0.599609,0.029053,-0.527344,0.138729,0.004706,-0.105633,0.999602,0.026043,0.010128,-0.003781,0.793450,-0.055000,-0.563956,-0.222183
38024,NaN,38.015810,-5.063153,1.123449,7.220229,-15.585156,24.494559,4.672494,1.495914,-1.419648,-0.585938,0.001221,-0.535645,0.379849,-0.053528,0.007164,0.999674,0.023360,0.007479,-0.007097,0.796992,-0.030778,-0.563603,-0.214959
38025,NaN,34.502794,-3.339106,15.138075,-5.058122,-9.708683,26.392557,-0.447216,2.094211,-2.310264,-0.583740,-0.002930,-0.543945,0.346174,-0.037052,0.147840,0.999876,-0.002236,0.010471,-0.011551,0.800197,-0.023810,-0.555133,-0.225710
38026,NaN,6.106697,-7.169796,-0.887747,-0.335232,-8.740791,-6.211209,-2.067827,1.257493,-0.908780,-0.575439,0.003418,-0.554688,0.060686,-0.072064,-0.008516,0.999916,-0.010339,0.006287,-0.004544,0.802248,-0.028142,-0.548047,-0.235054
38028,NaN,11.635708,-10.026804,-11.824413,20.155961,-32.208627,-2.160053,4.113704,-1.149986,1.342893,-0.595703,-0.028809,-0.533203,0.238051,-0.187490,-0.241664,0.998998,0.041123,-0.011496,0.013424,0.799410,-0.005198,-0.566079,-0.201177
