// Start Time: Unknown
// Update Rate: 100.0Hz
// Filter Profile: human (46.1)
// Firmware Version: 4.4.0
PacketCounter,SampleTimeFine,Acc_X,Acc_Y,Acc_Z,FreeAcc_X,FreeAcc_Y,FreeAcc_Z,Gyr_X,Gyr_Y,Gyr_Z,Mag_X,Mag_Y,Mag_Z,VelInc_X,VelInc_Y,VelInc_Z,OriInc_q0,OriInc_q1,OriInc_q2,OriInc_q3,Quat_q0,Quat_q1,Quat_q2,Quat_q3
27631,NaN,-5.681416,-4.696765,-2.976037,0.000000,-0.000000,-1.863257,1.069860,-1.121717,-0.593600,-0.670410,0.321045,-0.673096,-0.056784,-0.046638,-0.030329,0.999966,0.005349,-0.005609,-0.002968,0.061812,0.579648,0.595625,-0.552646
27632,NaN,-8.197895,-5.539299,-3.926992,0.000000,0.000000,0.831676,2.627066,-1.347777,-0.919084,-0.684326,0.291016,-0.668457,-0.081960,-0.054489,-0.040542,0.999880,0.013135,-0.006739,-0.004595,0.089878,0.608559,0.565770,-0.549075
27633,NaN,-7.690820,-3.275088,-4.519605,2.250626,-0.257219,-0.584662,4.272701,-2.062934,-1.001719,-0.700195,0.256836,-0.659668,-0.076591,-0.031380,-0.046667,0.999706,0.021361,-0.010314,-0.005008,0.070871,0.590262,0.571791,-0.565353
27634,NaN,-4.768106,1.135823,-5.549752,5.628181,0.857230,-5.079638,5.146012,-2.898693,-0.794196,-0.722656,0.222412,-0.650879,-0.046824,0.012980,-0.055860,0.999556,0.025726,-0.014491,-0.003970,0.061696,0.581360,0.558309,-0.588647
27635,NaN,-3.099811,2.536938,-5.958137,6.542452,1.642568,-7.357428,5.545242,-3.486867,-0.561347,-0.747070,0.190186,-0.633789,-0.029887,0.027103,-0.059373,0.999460,0.027721,-0.017431,-0.002806,0.056665,0.570485,0.542487,-0.614038
27636,NaN,-1.480717,2.005701,-4.783704,4.986981,1.847278,-8.914667,5.746759,-4.116285,-0.406112,-0.771240,0.151611,-0.610107,-0.013784,0.021454,-0.047525,0.999373,0.028728,-0.020577,-0.002030,0.050157,0.558019,0.524500,-0.641092
27637,NaN,0.607111,1.149702,-2.438753,2.128500,1.563562,-10.624796,5.525196,-4.387913,-0.152558,-0.795898,0.123535,-0.575928,0.006608,0.012157,-0.023917,0.999378,0.027620,-0.021935,-0.000763,0.050122,0.546956,0.508574,-0.663083
27638,NaN,2.883946,0.331042,-1.377430,-0.043789,2.204346,-12.149497,5.199273,-4.154941,0.141270,-0.816162,0.097900,-0.556641,0.029114,0.003677,-0.013079,0.999446,0.025992,-0.020771,0.000706,0.046910,0.534542,0.489631,-0.687260
27639,NaN,4.831270,1.865268,0.801674,-1.553529,0.616583,-14.778898,4.749319,-3.744864,0.419590,-0.834717,0.082764,-0.524658,0.048107,0.018542,0.009360,0.999541,0.023743,-0.018721,0.002098,0.048321,0.524334,0.478616,-0.702613
27640,NaN,9.143171,4.736389,4.784145,-4.846864,-2.237403,-19.832309,3.505979,-3.944755,0.479501,-0.853516,0.076172,-0.494873,0.090341,0.046712,0.050453,0.999649,0.017528,-0.019721,0.002397,0.050237,0.512287,0.463923,-0.720981
27641,NaN,13.618670,5.082716,10.068358,-10.660781,-4.853711,-23.058065,1.373320,-2.670564,0.360596,-0.857666,0.076172,-0.488525,0.134732,0.050370,0.102836,0.999886,0.006866,-0.013352,0.001803,0.055947,0.501789,0.460972,-0.729782
27642,NaN,12.398898,7.840440,10.766292,-9.057413,-7.452602,-23.724085,-1.440105,1.669937,-0.473892,-0.847412,0.084961,-0.509766,0.125066,0.078876,0.106055,0.999936,-0.007200,0.008350,-0.002369,0.053979,0.506355,0.467854,-0.722360
27643,NaN,1.931237,1.607351,5.927938,-4.279428,-4.320272,-11.925708,-1.036483,5.176513,-1.798977,-0.823486,0.063477,-0.545654,0.020982,0.016195,0.058667,0.999611,-0.005182,0.025879,-0.008994,0.032499,0.518784,0.457634,-0.721372
27644,NaN,-1.490708,-7.659855,-5.862578,1.115951,7.811307,-4.069260,3.710180,3.337341,-1.318584,-0.818604,0.033447,-0.558105,-0.016398,-0.075392,-0.059767,0.999667,0.018549,0.016685,-0.006592,0.010474,0.528233,0.448063,-0.721179
27645,NaN,14.662509,-10.576069,-6.601423,-6.220701,17.433750,-15.077108,6.963910,-0.239040,1.082760,-0.822266,0.020752,-0.553955,0.147268,-0.102586,-0.069448,0.999378,0.034812,-0.001195,0.005413,-0.006134,0.526120,0.412584,-0.743596
27646,NaN,29.068200,-1.533192,17.831791,-27.539853,2.775182,-29.789878,0.400374,-0.392722,2.895704,-0.827393,0.050781,-0.556152,0.290516,-0.011482,0.178863,0.999891,0.002002,-0.001964,0.014478,0.004390,0.530563,0.403446,-0.745463
27647,NaN,27.415760,9.796327,-0.333002,-8.063228,6.251580,-37.080372,-2.413329,2.304631,1.495896,-0.811279,0.072266,-0.569092,0.273343,0.099935,-0.007681,0.999833,-0.012066,0.011523,0.007479,0.009838,0.521665,0.439323,-0.731276
27648,NaN,7.296265,4.108755,-4.364908,2.028374,3.551942,-18.323526,0.854797,2.620366,0.890060,-0.804932,0.070068,-0.577637,0.072200,0.041599,-0.044421,0.999895,0.004274,0.013101,0.004450,0.005106,0.533188,0.433959,-0.726198
27649,NaN,-2.970481,-2.348991,-11.440141,8.849128,7.486201,-6.516730,2.298865,0.045709,1.051235,-0.806641,0.063721,-0.571289,-0.029612,-0.022329,-0.114656,0.999920,0.011494,0.000229,0.005256,-0.002582,0.520574,0.451918,-0.724407
27650,NaN,6.892284,-2.843837,-11.097151,3.917699,12.081575,-13.982776,3.916902,-2.879291,1.448385,-0.827637,0.059326,-0.549805,0.070709,-0.025763,-0.110484,0.999678,0.019582,-0.014395,0.007241,-0.001025,0.513201,0.433855,-0.740536
27651,NaN,14.860335,1.003284,-7.515921,-1.765232,11.447948,-21.816650,3.422226,-3.794197,1.786793,-0.846680,0.061279,-0.513916,0.149886,0.012620,-0.072122,0.999634,0.017109,-0.018969,0.008933,0.002768,0.487207,0.459190,-0.742810
27652,NaN,16.238066,3.603316,-3.872223,-4.326840,7.473236,-24.544788,1.703476,-3.906528,1.235867,-0.865723,0.061279,-0.484375,0.162863,0.037349,-0.035230,0.999754,0.008517,-0.019531,0.006179,0.012176,0.475440,0.449686,-0.756036
27653,NaN,21.983741,5.420264,0.424779,-10.752753,6.054491,-28.798557,0.177379,-4.752951,1.517289,-0.880859,0.078125,-0.442139,0.219233,0.055861,0.009512,0.999688,0.000887,-0.023762,0.007586,0.027485,0.443614,0.491022,-0.749232
27654,NaN,24.630705,11.571919,0.535538,-9.945357,2.967853,-34.973919,-1.300103,-4.074268,0.388282,-0.900146,0.084473,-0.406006,0.245915,0.116250,0.009613,0.999770,-0.006500,-0.020370,0.001941,0.041818,0.429024,0.494358,-0.754851
27655,NaN,20.022877,9.907618,-1.640721,-7.686467,4.308631,-30.405634,-1.391685,-4.578436,-0.471104,-0.912842,0.093018,-0.365967,0.200777,0.098508,-0.012502,0.999711,-0.006958,-0.022890,-0.002355,0.052776,0.391611,0.535521,-0.746373
27656,NaN,18.623041,4.607032,-2.093396,-9.662219,5.769723,-25.487592,-1.137575,-5.303668,0.467086,-0.927734,0.097168,-0.317139,0.186595,0.046405,-0.016252,0.999630,-0.005687,-0.026515,0.002335,0.070926,0.372626,0.537254,-0.753311
27657,NaN,25.882107,1.967909,2.220355,-19.373819,4.442064,-26.648837,-0.658466,-5.190773,0.831878,-0.936279,0.107666,-0.270752,0.258045,0.020841,0.028841,0.999649,-0.003292,-0.025951,0.004159,0.087218,0.335732,0.566545,-0.747465
27658,NaN,27.510714,1.872269,3.333494,-21.394675,2.639868,-27.323801,-0.390739,-4.232983,0.673536,-0.944824,0.118408,-0.239014,0.274255,0.019720,0.039108,0.999768,-0.001954,-0.021163,0.003367,0.102360,0.321573,0.564897,-0.752997
27659,NaN,25.389333,1.917257,5.217762,-21.226330,-0.612446,-24.796864,0.351648,-3.223093,0.676536,-0.951172,0.120361,-0.211670,0.252942,0.019933,0.056294,0.999863,0.001758,-0.016115,0.003383,0.107901,0.287208,0.585492,-0.750378
27660,NaN,20.654552,0.850652,7.534479,-18.607789,-4.045702,-20.833163,0.982175,-2.813614,0.915233,-0.951416,0.133057,-0.190674,0.205417,0.009069,0.078284,0.999879,0.004911,-0.014067,0.004576,0.118148,0.279827,0.578904,-0.756709
27661,NaN,17.424084,2.213281,9.315313,-16.042212,-7.375655,-18.950057,0.531801,-2.747550,1.045855,-0.955811,0.141602,-0.163086,0.172821,0.022787,0.095594,0.999888,0.002659,-0.013737,0.005229,0.119610,0.245420,0.588696,-0.760854
27662,NaN,13.827419,1.314553,10.126769,-13.417225,-8.728463,-16.078086,0.663651,-2.236352,1.076216,-0.951904,0.154541,-0.150635,0.137058,0.013546,0.102849,0.999918,0.003318,-0.011181,0.005381,0.129462,0.240457,0.583465,-0.764845
27663,NaN,10.679851,0.581869,7.438212,-10.554452,-6.629768,-13.603357,1.062315,-1.860574,1.050944,-0.956299,0.163086,-0.129395,0.106069,0.005979,0.075403,0.999929,0.005311,-0.009303,0.005255,0.124580,0.209684,0.580480,-0.776889
27664,NaN,8.297532,1.895675,4.235324,-7.219839,-4.266351,-14.290421,1.241104,-1.580838,0.950284,-0.960938,0.171631,-0.118896,0.082546,0.019084,0.043125,0.999938,0.006205,-0.007904,0.004751,0.131551,0.207061,0.573642,-0.781508
27665,NaN,5.787935,3.147174,1.896620,-4.278515,-2.736182,-14.417930,1.223927,-1.356774,0.825601,-0.956787,0.177979,-0.110596,0.057618,0.031592,0.019551,0.999950,0.006120,-0.006784,0.004128,0.123726,0.178726,0.565745,-0.795412
27666,NaN,3.881081,4.571128,1.019269,-1.821841,-2.493309,-15.052946,1.120033,-1.101289,0.680034,-0.956787,0.182129,-0.106445,0.038597,0.045784,0.010662,0.999963,0.005600,-0.005506,0.003400,0.128540,0.176955,0.559981,-0.799115
27667,NaN,1.893513,6.229128,2.413397,0.213340,-4.510933,-15.086887,0.924809,-0.840302,0.531720,-0.961426,0.195068,-0.104248,0.018667,0.062228,0.024501,0.999977,0.004624,-0.004201,0.002659,0.119818,0.152363,0.552809,-0.810451
27668,NaN,0.642202,7.696842,2.335779,1.944072,-4.992917,-15.845970,0.787529,-0.609291,0.393860,-0.957275,0.199219,-0.095947,0.006199,0.076888,0.023680,0.999986,0.003938,-0.003046,0.001969,0.122496,0.151451,0.548945,-0.812845
27669,NaN,-0.349463,8.222606,1.382534,2.897540,-4.433765,-16.261753,0.656941,-0.297831,0.339914,-0.957520,0.201416,-0.100098,-0.003655,0.082174,0.014090,0.999992,0.003285,-0.001489,0.001700,0.113293,0.132560,0.541004,-0.822744
27670,NaN,-0.256326,7.848306,-0.506898,2.884222,-2.584681,-16.662446,0.271321,-0.107863,0.200422,-0.959473,0.199219,-0.100098,-0.002639,0.078487,-0.004964,0.999998,0.001357,-0.000539,0.001002,0.114229,0.132812,0.539693,-0.823435
27671,NaN,0.704797,6.566488,0.843729,1.234910,-3.477476,-15.354306,-0.064144,0.121017,0.052748,-0.961914,0.205811,-0.104492,0.007036,0.065669,0.008412,1.000000,-0.000321,0.000605,0.000264,0.105005,0.118612,0.534332,-0.830298
27672,NaN,1.236509,4.698823,4.252115,-0.128346,-5.837663,-12.568282,-0.741278,0.498582,-0.202132,-0.961670,0.203613,-0.108643,0.012518,0.047133,0.042316,0.999990,-0.003706,0.002493,-0.001011,0.103272,0.119751,0.537786,-0.828119
27674,NaN,2.203891,-0.380128,6.648817,-5.604446,-11.989305,-5.159415,-1.772438,1.439194,-0.551779,-0.959473,0.193115,-0.135986,0.045952,-0.005502,0.132434,0.999724,-0.017723,0.014391,-0.005517,0.084665,0.115207,0.547588,-0.824443
27675,NaN,2.816561,-2.878029,3.358551,-3.809541,-2.030442,-6.836057,-1.759738,1.969369,-0.697954,-0.957275,0.188721,-0.155029,0.028396,-0.028584,0.033559,0.999907,-0.008798,0.009847,-0.003490,0.077402,0.120658,0.556026,-0.818710
27676,NaN,3.479283,-2.481246,2.189106,-4.190383,-0.998083,-7.691743,-1.545903,2.460608,-0.772199,-0.955322,0.190918,-0.178223,0.034964,-0.024779,0.021653,0.999887,-0.007729,0.012303,-0.003861,0.059674,0.117641,0.554839,-0.821434
27677,NaN,3.774313,-2.500817,0.735422,-4.306344,0.424566,-8.291178,-1.843396,3.271793,-0.833970,-0.950928,0.182617,-0.205811,0.037755,-0.025100,0.006968,0.999815,-0.009216,0.016358,-0.004170,0.048246,0.128192,0.563773,-0.814493
27678,NaN,6.147279,1.426321,-2.186097,-5.302768,2.027725,-13.328934,-2.741689,3.705828,-0.920951,-0.948975,0.180420,-0.233154,0.061115,0.013669,-0.023186,0.999724,-0.013707,0.018527,-0.004604,0.027897,0.130462,0.569160,-0.811331
27679,NaN,10.970064,3.977547,-6.054919,-8.613747,5.677351,-17.958788,-3.373236,3.771458,-1.240446,-0.940186,0.171875,-0.267090,0.108764,0.038047,-0.063258,0.999661,-0.016864,0.018855,-0.006202,0.014324,0.141714,0.583984,-0.799171
27680,NaN,19.405921,9.216209,-3.782128,-16.395392,3.852475,-23.671395,-4.272936,3.526518,-1.792342,-0.937988,0.165527,-0.292480,0.194140,0.089538,-0.043176,0.999576,-0.021362,0.017630,-0.008960,-0.007718,0.140339,0.598220,-0.788909
27681,NaN,29.953855,12.564110,-0.474394,-26.654033,3.159387,-28.105601,-3.577404,4.071327,-1.920242,-0.923096,0.159424,-0.330322,0.300516,0.122575,-0.013066,0.999587,-0.017885,0.020354,-0.009600,-0.024955,0.150732,0.613272,-0.774954
27682,NaN,26.670703,6.579005,-0.860452,-24.489606,5.850322,-20.820201,-1.841438,5.332026,-1.722281,-0.908203,0.148682,-0.374756,0.266893,0.063365,-0.016310,0.999565,-0.009206,0.026656,-0.008610,-0.056349,0.152679,0.618080,-0.769084
27683,NaN,20.963747,-2.012619,0.653928,-20.099060,6.175247,-11.131817,-2.886814,5.523856,-1.755324,-0.893311,0.144531,-0.419189,0.209530,-0.021924,0.001058,0.999476,-0.014432,0.027614,-0.008775,-0.077933,0.169226,0.628639,-0.755051
27684,NaN,19.655700,-3.660140,1.513757,-19.026390,6.130315,-8.265743,-4.013063,4.832001,-1.361189,-0.876709,0.151123,-0.461670,0.196604,-0.037689,0.011137,0.999484,-0.020062,0.024156,-0.006805,-0.106669,0.167856,0.641349,-0.741025
27685,NaN,26.189717,-5.690623,0.658304,-24.502142,10.500961,-6.982044,-3.558600,4.400165,-1.014089,-0.855957,0.161865,-0.487061,0.261680,-0.058173,0.001851,0.999587,-0.017791,0.021998,-0.005070,-0.121504,0.182732,0.652771,-0.725076
27686,NaN,29.779899,-6.534164,-1.537165,-26.305697,14.798191,-5.250678,-2.706022,4.327868,-0.906732,-0.837158,0.162109,-0.527344,0.297085,-0.066948,-0.020907,0.999664,-0.013529,0.021637,-0.004533,-0.149159,0.178716,0.660430,-0.713894
27687,NaN,27.792664,-6.379954,-2.264894,-23.582668,15.494189,-5.128320,-2.121729,4.508488,-0.664118,-0.816162,0.166504,-0.563477,0.277118,-0.065000,-0.028217,0.999684,-0.010608,0.022540,-0.003320,-0.164473,0.194138,0.665026,-0.702140
27688,NaN,23.295735,-5.298155,2.837770,-21.494578,9.486235,-4.644432,-1.961645,5.071009,-0.178715,-0.782715,0.181641,-0.601807,0.233538,-0.052947,0.022980,0.999630,-0.009807,0.025352,-0.000893,-0.192455,0.193814,0.669479,-0.690793
27689,NaN,19.594435,-4.951841,5.170516,-19.226656,6.495126,-4.988717,-1.673340,5.025406,0.207224,-0.751465,0.192383,-0.637939,0.197219,-0.048907,0.047171,0.999649,-0.008366,0.025124,0.001036,-0.206872,0.213403,0.669987,-0.680280
27690,NaN,17.742539,1.566362,5.801764,-17.865524,5.528362,-10.867621,-1.547987,4.359070,0.006533,-0.732666,0.205322,-0.659180,0.178631,0.016098,0.054009,0.999733,-0.007739,0.021793,0.000033,-0.230664,0.213082,0.671915,-0.670761
27691,NaN,17.370310,6.459004,7.021555,-18.156256,5.110849,-15.889891,-2.232405,3.134024,0.087386,-0.707764,0.220459,-0.674316,0.174739,0.065424,0.066755,0.999815,-0.011161,0.015669,0.000437,-0.238479,0.226419,0.675570,-0.659899
27692,NaN,15.977767,5.827001,5.159194,-15.857622,6.234539,-14.862149,-2.216221,2.710864,0.224029,-0.689209,0.231201,-0.695557,0.160386,0.059000,0.048770,0.999846,-0.011081,0.013554,0.001120,-0.253576,0.224997,0.680048,-0.650085
27693,NaN,17.836047,7.265270,3.981388,-16.303861,8.895470,-16.277155,-1.793474,2.288980,0.181602,-0.672852,0.250488,-0.708496,0.178729,0.073156,0.037115,0.999894,-0.008967,0.011444,0.000908,-0.258725,0.235302,0.682699,-0.641573
27694,NaN,14.699280,6.119377,2.920613,-13.129581,7.981422,-14.905427,-1.777879,2.576701,0.122401,-0.654053,0.267578,-0.712891,0.147311,0.061529,0.026764,0.999877,-0.008889,0.012883,0.000612,-0.272649,0.234823,0.685616,-0.632812
27695,NaN,9.878281,1.317996,2.013818,-8.631480,5.329479,-10.491788,-2.211975,2.317657,0.190325,-0.642090,0.286865,-0.725830,0.098993,0.013487,0.018844,0.999871,-0.011059,0.011588,0.000952,-0.277360,0.245791,0.689144,-0.622686
27696,NaN,5.898815,-2.170790,0.705342,-4.704487,3.280336,-7.145732,-2.574625,1.944983,0.263170,-0.621582,0.310547,-0.723877,0.059083,-0.021542,0.006757,0.999869,-0.012873,0.009724,0.001316,-0.286207,0.247106,0.694881,-0.611690
27697,NaN,2.694244,-4.464616,-0.469477,-1.594599,1.593670,-5.087325,-2.603391,1.246506,0.156291,-0.613525,0.332031,-0.724121,0.026950,-0.044683,-0.004281,0.999896,-0.013017,0.006232,0.000781,-0.286814,0.255158,0.700794,-0.601265
27698,NaN,0.853917,-5.144918,-1.260360,0.258547,0.639955,-4.491948,-2.322401,0.363220,-0.038110,-0.614014,0.346924,-0.719971,0.008507,-0.051593,-0.012021,0.999931,-0.011612,0.001816,-0.000191,-0.289846,0.252666,0.707937,-0.592431
27699,NaN,-0.865214,-5.428768,-1.797151,1.772832,-0.326753,-4.317305,-1.915086,-0.359588,-0.206843,-0.610352,0.364014,-0.705322,-0.008677,-0.054448,-0.017466,0.999952,-0.009575,-0.001798,-0.001034,-0.286753,0.253629,0.714359,-0.585778
27700,NaN,-3.192857,-5.673971,-2.490075,3.908110,-1.591515,-4.264510,-1.374865,-0.959012,-0.318135,-0.614502,0.366211,-0.696777,-0.031900,-0.056859,-0.024663,0.999964,-0.006874,-0.004795,-0.001591,-0.285793,0.246881,0.720659,-0.581397
27701,NaN,-5.017581,-5.745040,-2.814893,5.424050,-2.636320,-4.359741,-0.576450,-1.260902,-0.363675,-0.623291,0.376953,-0.690430,-0.050102,-0.057441,-0.028299,0.999974,-0.002882,-0.006304,-0.001818,-0.281589,0.242720,0.724567,-0.580342
27702,NaN,-7.124129,-6.265924,-3.258314,7.333182,-3.794636,-4.115749,0.620934,-1.290143,-0.505582,-0.627197,0.361816,-0.686279,-0.071186,-0.062377,-0.033236,0.999971,0.003105,-0.006451,-0.002528,-0.281259,0.233149,0.725491,-0.583265
27703,NaN,-8.666185,-6.832267,-4.516191,9.442426,-3.857246,-3.637589,2.380983,-1.449522,-0.561894,-0.641357,0.344727,-0.686035,-0.086518,-0.067530,-0.046596,0.999899,0.011905,-0.007247,-0.002809,-0.280387,0.223509,0.721169,-0.592742
27704,NaN,-7.333099,-2.632999,-5.583884,9.265360,-1.078516,-7.607259,4.154469,-2.231149,-0.321834,-0.657471,0.314697,-0.683594,-0.072739,-0.025034,-0.057182,0.999721,0.020770,-0.011155,-0.001609,-0.278988,0.208124,0.712263,-0.609534
27705,NaN,-3.353801,2.508098,-5.167744,5.721553,2.235552,-12.362651,5.144027,-2.898872,-0.039509,-0.677979,0.284668,-0.683350,-0.032786,0.026414,-0.051488,0.999564,0.025716,-0.014492,-0.000198,-0.274018,0.191881,0.700362,-0.630546
27706,NaN,-2.170386,3.060023,-5.227344,4.595513,3.181568,-12.998147,5.700168,-3.689337,0.034652,-0.695801,0.246094,-0.661865,-0.020751,0.032077,-0.051762,0.999424,0.028495,-0.018443,0.000173,-0.266765,0.171414,0.687309,-0.653499
27707,NaN,-0.041196,0.042216,-5.270821,3.023402,4.312986,-9.982356,6.061492,-4.621080,0.149278,-0.726562,0.211670,-0.644531,0.000804,0.002019,-0.052654,0.999274,0.030300,-0.023100,0.000746,-0.255402,0.148620,0.673043,-0.678008
27708,NaN,1.588853,-1.569329,-4.209694,1.109402,4.396202,-8.348971,5.916008,-4.804301,0.284782,-0.742432,0.179443,-0.623047,0.016922,-0.014423,-0.042138,0.999273,0.029573,-0.024016,0.001424,-0.242566,0.124788,0.659027,-0.700908
27709,NaN,3.653557,-2.633164,-2.802785,-1.337868,4.326094,-7.050729,5.673989,-4.307469,0.573926,-0.760742,0.155762,-0.603760,0.037212,-0.025431,-0.027961,0.999362,0.028364,-0.021533,0.002869,-0.229751,0.104623,0.643592,-0.722536
27710,NaN,5.162789,-2.255972,-1.378372,-3.509583,3.736247,-7.098882,5.364598,-4.070117,0.814057,-0.783203,0.132324,-0.580322,0.051992,-0.021987,-0.013323,0.999425,0.026818,-0.020347,0.004070,-0.216288,0.085439,0.628921,-0.741874
27711,NaN,8.653597,2.066573,3.594894,-9.594550,0.007367,-9.773306,4.344161,-4.389637,0.553102,-0.808105,0.117188,-0.550537,0.085657,0.020089,0.038276,0.999519,0.021717,-0.021945,0.002765,-0.202188,0.066157,0.617018,-0.757649
27712,NaN,13.142846,5.684516,7.866364,-15.922588,-3.305011,-11.370856,2.077375,-4.163784,0.091924,-0.822754,0.112793,-0.522949,0.129719,0.056065,0.081961,0.999729,0.010386,-0.020817,0.000460,-0.189639,0.047475,0.613899,-0.764795
27713,NaN,15.646585,6.961988,11.905211,-19.647400,-6.880792,-11.095101,-0.913157,-1.993423,-0.462367,-0.829346,0.114990,-0.520752,0.155432,0.069807,0.120286,0.999937,-0.004566,-0.009967,-0.002312,-0.185061,0.039293,0.619352,-0.761979
27714,NaN,15.615667,9.996692,11.323906,-20.229299,-6.573381,-14.229130,-3.651362,2.818467,-1.460581,-0.797607,0.117188,-0.548340,0.158449,0.100833,0.109181,0.999707,-0.018255,0.014091,-0.007302,-0.199308,0.047438,0.630784,-0.748423
27715,NaN,0.566728,5.033157,6.359386,-3.991190,-6.178027,-13.273312,-1.055950,5.593835,-2.976811,-0.775879,0.093750,-0.590576,0.008189,0.050556,0.063122,0.999484,-0.005279,0.027964,-0.014881,-0.227734,0.060005,0.629542,-0.740415
27716,NaN,-11.730555,-3.172809,0.516101,10.971936,-5.201804,-9.124255,2.864589,4.464447,-2.601075,-0.755615,0.048828,-0.615723,-0.117558,-0.030295,0.007343,0.999564,0.014321,0.022319,-0.013003,-0.253292,0.063666,0.613712,-0.745082
27717,NaN,-18.692293,-11.002495,-26.357257,29.862517,16.476412,-10.961872,9.000835,-1.203674,0.019057,-0.768799,-0.000488,-0.600342,-0.185304,-0.098007,-0.269283,0.998969,0.044989,-0.006016,0.000095,-0.252134,0.047778,0.581078,-0.772331
27718,NaN,26.846385,-17.981355,-13.661895,-12.924389,27.726237,7.346855,8.632560,-2.969313,3.176255,-0.789795,-0.002930,-0.564453,0.273274,-0.169501,-0.140051,0.998832,0.043146,-0.014841,0.015875,-0.233145,0.034022,0.550199,-0.801103
27719,NaN,53.292355,3.471969,33.178883,-59.167005,-8.946097,9.450900,-2.483219,-2.202081,4.788416,-0.781494,0.072266,-0.586182,0.528131,0.051567,0.337051,0.999576,-0.012414,-0.011009,0.023939,-0.207392,0.041251,0.561663,-0.799889
27720,NaN,46.147856,24.013203,13.469095,-52.534857,1.122043,-20.913067,-9.625534,7.660174,2.026824,-0.749023,0.113037,-0.624512,0.463379,0.250358,0.105069,0.998058,-0.048097,0.038276,0.010128,-0.219301,0.085018,0.591054,-0.771579
27721,NaN,1.444167,35.877735,-30.480852,2.036649,19.526912,-52.624625,1.875267,2.308509,-1.013976,-0.739502,0.081055,-0.635010,0.012777,0.361548,-0.301581,0.999877,0.009376,0.011542,-0.005070,-0.230807,0.088857,0.581647,-0.774932
27722,NaN,-5.606730,-7.669447,-11.571443,11.563981,9.125266,-7.140613,2.859499,-0.764623,-0.940246,-0.745117,0.057373,-0.622070,-0.055976,-0.074764,-0.117007,0.999879,0.014297,-0.003823,-0.004701,-0.234569,0.076233,0.572493,-0.781932
27723,NaN,-3.217310,-13.151575,9.049809,3.224306,-6.095168,4.940196,1.257788,-4.030828,0.018664,-0.774902,0.061523,-0.590332,-0.033965,-0.132082,0.088996,0.999777,0.006288,-0.020153,0.000093,-0.223388,0.059033,0.572168,-0.786916
27724,NaN,9.536181,-5.387522,-2.303462,-6.302647,7.155483,-3.953295,0.457404,-4.146850,0.648438,-0.789795,0.063477,-0.562744,0.095988,-0.053515,-0.021171,0.999777,0.002287,-0.020733,0.003242,-0.209706,0.041224,0.575499,-0.789382
27725,NaN,11.383892,-2.000187,-6.933594,-7.821375,10.871157,-8.296727,1.175965,-2.778964,1.061772,-0.800293,0.063477,-0.539551,0.114891,-0.018992,-0.067858,0.999872,0.005880,-0.013894,0.005309,-0.197737,0.032070,0.573479,-0.794351
27726,NaN,15.611803,-0.657199,-4.929304,-13.019440,9.794151,-8.082501,1.526113,-3.342288,1.647897,-0.817383,0.069824,-0.511963,0.156958,-0.004918,-0.046716,0.999797,0.007630,-0.016710,0.008239,-0.182210,0.018934,0.571636,-0.799796
27727,NaN,23.249947,4.999918,-3.326598,-22.456471,8.345631,-11.414566,0.340898,-4.715396,1.655680,-0.834473,0.080566,-0.476074,0.232771,0.051976,-0.027692,0.999686,0.001704,-0.023575,0.008278,-0.162091,0.004490,0.574232,-0.802473
27728,NaN,26.992031,12.245710,-1.540583,-28.570555,4.437659,-16.507306,-0.763060,-4.611511,0.706785,-0.849365,0.084717,-0.440186,0.269752,0.123366,-0.009654,0.999721,-0.003815,-0.023055,0.003534,-0.146408,-0.015064,0.582465,-0.799420
27729,NaN,21.167212,8.178024,-3.642986,-21.919471,5.214790,-14.334989,0.043512,-4.911102,0.713000,-0.868652,0.097412,-0.397949,0.212188,0.082543,-0.031205,0.999692,0.000218,-0.024553,0.003565,-0.129212,-0.032647,0.585760,-0.799452
27730,NaN,24.139983,3.225693,-2.308303,-23.964811,4.662880,-8.298362,0.080065,-4.968549,0.818659,-0.881348,0.101562,-0.357666,0.241739,0.033254,-0.017067,0.999683,0.000400,-0.024840,0.004093,-0.112166,-0.054539,0.590174,-0.797583
27731,NaN,26.714186,-0.965134,3.850790,-25.800165,-0.923030,-1.888349,-0.251340,-4.175570,0.979329,-0.887695,0.105713,-0.325928,0.266303,-0.008293,0.044085,0.999769,-0.001257,-0.020876,0.004896,-0.095985,-0.068150,0.593648,-0.796068
27732,NaN,25.430775,0.588736,6.813867,-24.719702,-5.451977,-2.557740,0.478981,-3.545246,1.041795,-0.889893,0.114258,-0.300537,0.253012,0.007037,0.072647,0.999826,0.002395,-0.017725,0.005209,-0.082430,-0.084276,0.595117,-0.794946
27733,NaN,21.202563,1.656387,9.262574,-20.521669,-9.028204,-3.863083,1.825631,-2.882456,1.345389,-0.900635,0.124756,-0.281738,0.210546,0.017119,0.095822,0.999832,0.009128,-0.014411,0.006727,-0.067726,-0.092472,0.589515,-0.799584
27734,NaN,19.032876,5.000965,9.988443,-18.706742,-11.383419,-7.080546,1.739740,-2.696367,1.340696,-0.898926,0.135498,-0.262695,0.188618,0.050392,0.102872,0.999849,0.008698,-0.013481,0.006703,-0.055585,-0.104891,0.584815,-0.802434
27735,NaN,15.178876,3.236056,11.870390,-14.042269,-12.967811,-5.762133,1.425701,-2.236371,1.166525,-0.903076,0.135498,-0.250000,0.150258,0.032385,0.120621,0.999895,0.007128,-0.011181,0.005832,-0.043615,-0.110842,0.580266,-0.805669
27736,NaN,11.547141,1.606000,9.864921,-10.097422,-10.629828,-5.538082,1.566595,-1.946905,1.004125,-0.905273,0.144043,-0.235352,0.114423,0.015857,0.099891,0.999909,0.007833,-0.009734,0.005020,-0.035661,-0.120784,0.574884,-0.808485
27737,NaN,8.624930,2.642865,4.453550,-8.126898,-5.846633,-8.825002,1.360975,-1.528013,0.993127,-0.909668,0.148193,-0.224609,0.085773,0.026549,0.045372,0.999935,0.006805,-0.007640,0.004966,-0.026433,-0.124345,0.570216,-0.811599
27738,NaN,5.783814,5.429351,0.031559,-6.597341,-2.566410,-13.392913,1.077905,-1.304848,0.940896,-0.909912,0.156738,-0.218506,0.057577,0.054561,0.000985,0.999953,0.005389,-0.006524,0.004704,-0.020950,-0.131181,0.566139,-0.813535
27739,NaN,3.987920,7.314816,1.275423,-4.894703,-4.312522,-15.149265,1.025091,-1.139671,0.834548,-0.910156,0.163330,-0.212158,0.039499,0.073246,0.013355,0.999962,0.005125,-0.005698,0.004173,-0.013660,-0.133561,0.562613,-0.815746
27740,NaN,2.528289,8.997585,1.039653,-3.795807,-4.633468,-17.061900,0.953169,-0.784251,0.736489,-0.908203,0.169678,-0.214355,0.024909,0.090017,0.010924,0.999974,0.004766,-0.003921,0.003682,-0.010302,-0.138255,0.558746,-0.817669
27741,NaN,1.162987,8.422969,0.625479,-2.394587,-3.916945,-16.996916,0.600682,-0.316508,0.647537,-0.907959,0.163330,-0.212158,0.011347,0.084247,0.006526,0.999989,0.003003,-0.001583,0.003238,-0.006359,-0.137774,0.556746,-0.819153
27742,NaN,-0.416347,7.286368,2.008965,-0.382305,-4.548406,-15.851410,-0.103721,0.107524,0.532643,-0.901855,0.173828,-0.214355,-0.004347,0.072863,0.020054,0.999996,-0.000519,0.000538,0.002663,-0.006807,-0.138718,0.556902,-0.818884
27743,NaN,0.181678,7.110416,3.503985,-0.588178,-5.906960,-15.069157,-0.779526,0.372130,0.279193,-0.901855,0.171875,-0.218506,0.001782,0.071243,0.034759,0.999990,-0.003898,0.001861,0.001396,-0.007245,-0.136394,0.560267,-0.816973
27744,NaN,1.528311,6.020878,3.867425,-1.686458,-5.982686,-13.673540,-1.176881,0.805613,0.001296,-0.899902,0.178223,-0.224854,0.015437,0.060435,0.038257,0.999975,-0.005884,0.004028,0.000006,-0.012360,-0.135266,0.564246,-0.814357
27745,NaN,1.440937,2.935408,3.607869,-1.183704,-4.568320,-11.011953,-1.464315,1.200011,-0.135496,-0.897949,0.178223,-0.233398,0.014645,0.029607,0.035775,0.999955,-0.007321,0.006000,-0.000677,-0.017291,-0.130671,0.570015,-0.810993
27746,NaN,1.687132,0.125276,4.121092,-0.893013,-4.074265,-8.248187,-1.666168,1.510979,-0.217494,-0.895996,0.182617,-0.246094,0.017184,0.001577,0.041070,0.999936,-0.008331,0.007555,-0.001087,-0.025481,-0.126714,0.575540,-0.807495
27747,NaN,1.914052,-1.515552,2.962419,-1.074956,-2.470274,-7.078044,-1.809274,1.787887,-0.397998,-0.893555,0.174072,-0.260986,0.019375,-0.014926,0.029587,0.999917,-0.009046,0.008939,-0.001990,-0.033381,-0.120406,0.582315,-0.803304
27748,NaN,1.853701,-2.202582,1.874161,-1.084621,-1.221898,-6.791017,-1.878597,2.263722,-0.595366,-0.886963,0.165527,-0.286133,0.018684,-0.021905,0.018737,0.999887,-0.009393,0.011318,-0.002977,-0.045195,-0.114030,0.588119,-0.799419
27749,NaN,2.496124,-2.341635,1.665645,-1.740473,-1.014893,-6.583314,-1.857619,2.869369,-0.732377,-0.883057,0.167725,-0.301025,0.025113,-0.023354,0.016514,0.999847,-0.009288,0.014346,-0.003662,-0.057616,-0.104283,0.594386,-0.795306
27750,NaN,2.314408,-1.690909,1.491031,-1.752256,-0.993503,-7.286601,-2.226992,3.415839,-0.830347,-0.874268,0.159424,-0.330566,0.023326,-0.016841,0.014701,0.999784,-0.011134,0.017078,-0.004151,-0.073684,-0.093552,0.600824,-0.790461
27751,NaN,2.550649,0.051149,-0.880407,-2.523134,0.897195,-9.479023,-3.026928,3.660999,-0.930983,-0.868164,0.163574,-0.354004,0.025341,0.000255,-0.009274,0.999707,-0.015133,0.018303,-0.004654,-0.089759,-0.080744,0.610824,-0.782507
27752,NaN,5.402143,2.004960,-2.065979,-5.714725,1.913674,-10.881278,-4.049912,3.922067,-1.120475,-0.857666,0.161621,-0.385742,0.053707,0.019310,-0.022111,0.999587,-0.020247,0.019608,-0.005602,-0.108983,-0.067837,0.623430,-0.771269
27753,NaN,9.580218,3.388251,-2.542672,-9.964216,2.907979,-11.209636,-4.420067,4.408687,-1.374371,-0.836670,0.163818,-0.413330,0.095427,0.032622,-0.028264,0.999489,-0.022097,0.022040,-0.006871,-0.129471,-0.052685,0.637284,-0.757846
27754,NaN,16.710810,3.433287,-0.390620,-16.859962,2.474339,-8.953303,-3.400668,4.606804,-1.577273,-0.826172,0.161865,-0.447021,0.167213,0.032898,-0.008325,0.999559,-0.017001,0.023031,-0.007885,-0.152132,-0.038977,0.645860,-0.747129
27755,NaN,33.693282,9.223983,3.607008,-35.039060,2.253206,-9.330219,-2.273330,4.627308,-1.526838,-0.806885,0.157715,-0.474609,0.338324,0.090003,0.027221,0.999639,-0.011365,0.023134,-0.007633,-0.173168,-0.024887,0.650299,-0.739259
27756,NaN,38.306071,12.495830,-2.994929,-38.674250,11.493114,-11.852950,-2.067018,5.620248,-1.506828,-0.779297,0.151367,-0.519043,0.382919,0.121680,-0.041981,0.999523,-0.010333,0.028097,-0.007533,-0.198668,-0.008736,0.651903,-0.731763
27757,NaN,25.294888,-4.508560,-3.337737,-20.706117,11.297166,0.897333,-2.353082,6.594192,-1.382336,-0.752197,0.157959,-0.565674,0.251356,-0.047280,-0.041136,0.999363,-0.011763,0.032964,-0.006910,-0.225195,0.013216,0.653485,-0.722544
27758,NaN,21.154501,-9.238365,1.325383,-16.333864,6.694315,5.119479,-4.023676,4.837618,-1.129401,-0.733643,0.170898,-0.587158,0.211288,-0.093354,0.010012,0.999489,-0.020115,0.024184,-0.005646,-0.246388,0.029148,0.661874,-0.707366
27759,NaN,30.340383,-10.554454,2.657973,-24.092212,9.785716,9.232444,-3.503840,4.541881,-0.979818,-0.704102,0.179443,-0.616943,0.303411,-0.106624,0.021551,0.999577,-0.017517,0.022706,-0.004898,-0.264271,0.046264,0.668532,-0.693603
27760,NaN,30.975387,-9.972821,2.285456,-24.040226,11.377656,9.072208,-2.112665,4.700852,-0.764608,-0.680908,0.179443,-0.646484,0.309810,-0.100715,0.016633,0.999661,-0.010562,0.023502,-0.003823,-0.283837,0.060010,0.669265,-0.684046
27761,NaN,26.906159,-2.854407,4.487924,-23.365843,9.091968,1.298949,-1.464478,4.825343,-0.100810,-0.651855,0.196777,-0.676270,0.270029,-0.028382,0.038580,0.999682,-0.007322,0.024124,-0.000504,-0.299802,0.078226,0.667243,-0.677337
27762,NaN,22.528173,3.825116,4.654510,-21.492869,8.295769,-6.216513,-1.726900,4.897520,-0.385343,-0.624512,0.203369,-0.701904,0.226399,0.038184,0.040680,0.999661,-0.008634,0.024485,-0.001926,-0.318581,0.092778,0.665454,-0.668632
27763,NaN,19.566328,3.580485,6.860328,-19.968516,5.852358,-6.706302,-2.082223,4.463194,-0.369635,-0.595215,0.214111,-0.721191,0.197190,0.036123,0.063839,0.999695,-0.010410,0.022314,-0.001848,-0.333607,0.109748,0.665275,-0.658841
27764,NaN,15.701445,4.729682,5.602148,-16.393096,5.556974,-9.025782,-2.762165,4.115274,-0.068961,-0.570557,0.235596,-0.736084,0.158130,0.047980,0.052116,0.999693,-0.013809,0.020574,-0.000345,-0.347974,0.124070,0.667097,-0.646917
27765,NaN,14.677401,7.291330,5.159567,-15.829463,6.323759,-11.958230,-3.090555,3.229603,0.165274,-0.550049,0.261230,-0.747070,0.147509,0.073796,0.048082,0.999750,-0.015451,0.016147,0.000826,-0.356212,0.140404,0.671206,-0.634730
27766,NaN,14.699187,8.529001,4.126680,-14.726779,8.789685,-13.227313,-3.093795,2.908920,0.343799,-0.531738,0.284912,-0.753662,0.147411,0.086146,0.037796,0.999773,-0.015468,0.014543,0.001719,-0.382833,0.172266,0.670463,-0.611754
27767,NaN,11.229137,6.496338,3.040861,-10.857455,7.218354,-12.556511,-3.342738,2.716281,0.590082,-0.504883,0.310547,-0.758057,0.112487,0.065774,0.027787,0.999764,-0.016712,0.013580,0.002950,-0.387169,0.188900,0.674823,-0.599192
27768,NaN,6.682013,1.394780,2.248788,-5.946544,3.976452,-9.124739,-3.485212,2.258514,0.823684,-0.490967,0.340576,-0.758301,0.067007,0.014604,0.021481,0.999776,-0.017425,0.011292,0.004118,-0.405202,0.217765,0.674880,-0.576998
27769,NaN,2.272130,-3.345875,1.359220,-1.865287,0.116144,-5.977186,-3.365154,1.599057,0.901203,-0.481201,0.372803,-0.752441,0.022982,-0.033123,0.013968,0.999816,-0.016825,0.007995,0.004506,-0.404264,0.232187,0.680245,-0.565620
27770,NaN,-1.589998,-6.942590,0.434475,1.343903,-3.351856,-3.658706,-2.950983,0.369957,0.714508,-0.477539,0.396240,-0.739746,-0.015643,-0.069408,0.005398,0.999883,-0.014754,0.001850,0.003572,-0.413021,0.251693,0.682180,-0.548357
27771,NaN,1.883413,-6.681125,0.439616,-0.713874,-0.585414,-2.918966,-2.274159,-0.436916,0.392402,-0.482178,0.411133,-0.729492,0.018954,-0.066718,0.005196,0.999931,-0.011371,-0.002185,0.001962,-0.407569,0.256502,0.688779,-0.541921
27772,NaN,-1.185097,-6.918421,0.168124,1.012428,-3.051694,-3.570991,-1.437869,-0.970748,0.111996,-0.497314,0.417725,-0.723145,-0.011822,-0.069177,0.002121,0.999962,-0.007189,-0.004854,0.000560,-0.412405,0.265204,0.690449,-0.531854
27773,NaN,-3.358324,-6.960889,0.417161,1.908811,-4.957941,-4.184055,-0.372090,-1.697892,-0.065283,-0.501709,0.421875,-0.716797,-0.033640,-0.069590,0.004016,0.999962,-0.001860,-0.008489,-0.000326,-0.406213,0.261211,0.695003,-0.532664
27774,NaN,-3.608122,-6.237866,0.712233,1.719440,-5.127771,-4.997619,0.737027,-2.238209,-0.164407,-0.524414,0.406982,-0.708008,-0.036207,-0.062374,0.006488,0.999930,0.003685,-0.011191,-0.000822,-0.408317,0.259682,0.694473,-0.532494
27775,NaN,-4.899347,-6.583372,0.690159,2.613492,-6.174624,-5.031468,1.814013,-2.183020,-0.192812,-0.541016,0.396240,-0.703613,-0.049124,-0.065842,0.005769,0.999899,0.009070,-0.010915,-0.000964,-0.403569,0.249461,0.694283,-0.541177
27776,NaN,-6.974541,-6.982695,-0.858030,5.196366,-7.027070,-5.149321,2.931169,-1.886898,-0.186627,-0.546631,0.370361,-0.701416,-0.069719,-0.069620,-0.010260,0.999848,0.014655,-0.009434,-0.000933,-0.408236,0.242976,0.687663,-0.549022
27777,NaN,-6.294745,-4.602984,-3.573127,7.040605,-4.081926,-7.104294,4.087354,-2.097648,-0.095813,-0.565186,0.344727,-0.705322,-0.062583,-0.045248,-0.037319,0.999736,0.020435,-0.010487,-0.000479,-0.406150,0.228472,0.680663,-0.565280
27778,NaN,-2.643365,-0.800593,-5.190904,5.824218,0.802313,-9.786050,4.976285,-2.531305,0.064646,-0.585205,0.310547,-0.709229,-0.025770,-0.006714,-0.052416,0.999610,0.024878,-0.012655,0.000323,-0.409221,0.215928,0.669283,-0.581354
27779,NaN,-0.797073,1.721083,-5.034087,4.060322,2.879197,-11.851193,5.277909,-2.947864,0.142264,-0.609863,0.280518,-0.704590,-0.007245,0.018528,-0.049974,0.999543,0.026386,-0.014737,0.000711,-0.404460,0.196930,0.659518,-0.602218
27780,NaN,0.565019,0.882710,-5.716494,3.802061,4.257444,-10.900777,5.224725,-3.583573,0.193146,-0.636475,0.248291,-0.687500,0.006661,0.010320,-0.056795,0.999498,0.026119,-0.017915,0.000966,-0.402261,0.179460,0.649263,-0.620030
27781,NaN,2.080628,0.250072,-5.182070,2.388736,5.049457,-9.993611,4.914674,-3.850472,0.193079,-0.660889,0.211670,-0.676514,0.021794,0.003787,-0.051325,0.999512,0.024569,-0.019249,0.000965,-0.393383,0.158170,0.641285,-0.639520
27782,NaN,3.286555,-0.712293,-5.361684,1.826479,5.990973,-8.907487,4.751645,-3.628013,0.078073,-0.681152,0.186035,-0.659180,0.033835,-0.005843,-0.053158,0.999553,0.023755,-0.018137,0.000390,-0.389085,0.139440,0.632458,-0.655108
27783,NaN,4.436051,-2.130287,-4.615365,0.797444,6.195300,-7.264342,4.728862,-3.333385,0.188635,-0.703857,0.160156,-0.644287,0.045146,-0.020173,-0.045891,0.999581,0.023641,-0.016665,0.000943,-0.381067,0.119852,0.623060,-0.672473
27784,NaN,5.521861,-0.680626,-0.356493,-3.317312,3.836833,-7.499116,4.045687,-3.756053,0.418647,-0.732910,0.140869,-0.620605,0.055288,-0.006631,-0.002662,0.999617,0.020226,-0.018778,0.002093,-0.373846,0.102386,0.616230,-0.685577
27785,NaN,9.787991,1.522144,3.664740,-9.701190,3.273951,-7.223951,2.433881,-4.138380,0.309907,-0.751709,0.136475,-0.593018,0.097068,0.014908,0.038844,0.999711,0.012168,-0.020690,0.001549,-0.361179,0.084567,0.615287,-0.695572
27786,NaN,14.517875,5.641795,11.637679,-19.307821,-0.421848,-7.565220,-0.317005,-2.219476,-0.085765,-0.760010,0.136475,-0.586670,0.143900,0.056542,0.117889,0.999937,-0.001585,-0.011097,-0.000429,-0.357427,0.078029,0.620687,-0.693473
27787,NaN,9.276143,9.002689,7.882463,-14.747401,-0.371376,-13.216320,-1.695277,2.290554,-1.618653,-0.736816,0.134521,-0.605713,0.094378,0.089925,0.076987,0.999866,-0.008476,0.011452,-0.008093,-0.369445,0.083956,0.623020,-0.684330
27788,NaN,2.483313,3.265447,11.347526,-9.805241,-7.018120,-9.394265,0.934572,3.902481,-2.174253,-0.718994,0.106689,-0.637451,0.027392,0.031837,0.113107,0.999740,0.004672,0.019511,-0.010870,-0.393689,0.090470,0.613038,-0.678976
27789,NaN,1.833402,-7.445075,-12.109412,9.352935,10.057403,-5.724701,6.736710,2.358737,-0.715964,-0.717529,0.055176,-0.643311,0.016628,-0.070374,-0.123714,0.999357,0.033676,0.011791,-0.003579,-0.406148,0.082954,0.585461,-0.696705
27790,NaN,30.690669,-5.066329,4.427705,-20.350733,17.103028,6.935633,6.313501,-0.956377,2.370019,-0.721924,0.061523,-0.632812,0.307278,-0.048419,0.044194,0.999420,0.031561,-0.004781,0.011848,-0.400744,0.074395,0.564025,-0.718155
27791,NaN,36.752897,3.753918,20.081279,-37.885034,9.173361,5.950606,-3.122269,0.898742,2.509898,-0.714600,0.098145,-0.652100,0.367889,0.045266,0.198494,0.999789,-0.015610,0.004493,0.012549,-0.393028,0.090929,0.572383,-0.713890
27792,NaN,10.047647,14.839888,-13.869390,-5.151099,16.526251,-24.435720,-0.579781,4.130421,0.348668,-0.686768,0.085449,-0.679688,0.097320,0.148164,-0.141155,0.999781,-0.002899,0.020651,0.001743,-0.405750,0.106890,0.565994,-0.709643
27793,NaN,-6.440285,2.353027,-7.426236,7.602068,0.704456,-16.436348,2.001275,0.742780,0.334678,-0.697266,0.078857,-0.671143,-0.064718,0.024162,-0.073783,0.999942,0.010006,0.003714,0.001673,-0.407718,0.106395,0.557175,-0.715543
27794,NaN,-2.388102,-4.966332,-2.075916,5.130315,0.094341,-6.923852,1.991161,-2.172502,0.749160,-0.711426,0.063721,-0.649658,-0.023464,-0.049540,-0.021509,0.999884,0.009955,-0.010862,0.003746,-0.401656,0.095398,0.554402,-0.722641
27795,NaN,8.772371,0.309654,-8.189877,-1.437869,11.901796,-10.426198,3.226103,-3.877242,0.811786,-0.736572,0.052979,-0.624268,0.089271,0.004759,-0.080110,0.999674,0.016129,-0.019384,0.004058,-0.389392,0.077120,0.549965,-0.734823
27796,NaN,12.132042,4.378594,-12.827056,-4.030458,17.052705,-14.687831,3.265582,-4.320447,1.316085,-0.761719,0.048584,-0.585938,0.123742,0.046653,-0.124868,0.999612,0.016326,-0.021599,0.006580,-0.373822,0.056436,0.546424,-0.747323
27797,NaN,15.801120,4.437095,-5.614687,-11.071010,13.321789,-10.697641,1.824426,-4.552932,1.688001,-0.782959,0.052734,-0.556396,0.158844,0.046197,-0.052121,0.999664,0.009121,-0.022762,0.008439,-0.355476,0.040597,0.547457,-0.756492
27799,NaN,23.834752,5.904123,-1.066583,-41.530629,25.792369,-4.834063,-0.730719,-4.423840,1.552086,-0.821777,0.082520,-0.484619,0.475136,0.125409,-0.001183,0.998875,-0.007304,-0.044222,0.015515,-0.318686,0.015995,0.568580,-0.758221
27800,NaN,19.705088,6.610066,-1.448827,-18.385008,9.786506,-9.316637,-1.893463,-4.636267,0.485877,-0.845215,0.088867,-0.448486,0.197165,0.066467,-0.010546,0.999684,-0.009466,-0.023179,0.002429,-0.303422,0.002802,0.582925,-0.753741
27801,NaN,21.888178,1.808723,-2.202157,-18.126318,11.294338,-4.245509,-0.639340,-4.822318,0.914030,-0.860352,0.105957,-0.414795,0.219243,0.019029,-0.016798,0.999694,-0.003196,-0.024109,0.004570,-0.287002,-0.013683,0.593655,-0.751676
27802,NaN,25.637456,1.613259,-0.220168,-22.288650,10.093708,-1.992993,-1.268562,-4.564598,1.020752,-0.885986,0.118652,-0.376709,0.256251,0.017451,0.003540,0.999706,-0.006342,-0.022821,0.005103,-0.269629,-0.025995,0.604866,-0.748840
27803,NaN,27.912986,-0.260693,5.506748,-25.341003,4.829812,2.184238,-0.904300,-3.854299,0.838296,-0.884277,0.131592,-0.343018,0.278006,-0.001175,0.060440,0.999795,-0.004521,-0.019270,0.004191,-0.257256,-0.037884,0.614673,-0.744689
27804,NaN,24.695138,-0.114365,7.493403,-23.281063,0.886241,1.284973,0.437029,-3.309260,0.756963,-0.888184,0.127197,-0.317627,0.245669,-0.000382,0.079005,0.999854,0.002185,-0.016545,0.003785,-0.244156,-0.048448,0.617354,-0.746267
27805,NaN,21.035080,-0.290977,11.439948,-20.813396,-4.646707,1.077658,2.080384,-3.019560,1.069461,-0.896729,0.129150,-0.298584,0.208608,-0.003003,0.117527,0.999818,0.010401,-0.015097,0.005347,-0.233770,-0.059601,0.614507,-0.751119
27806,NaN,16.539129,2.713244,11.345325,-17.888453,-6.863503,-3.294957,2.188955,-2.913996,1.217019,-0.905029,0.131348,-0.273193,0.163548,0.026870,0.116140,0.999815,0.010944,-0.014569,0.006085,-0.219561,-0.069365,0.609940,-0.758258
27807,NaN,13.360827,2.399355,9.936388,-14.473719,-6.697965,-4.462144,1.883721,-2.672795,1.224388,-0.907471,0.137695,-0.260498,0.132116,0.023857,0.101361,0.999848,0.009418,-0.013363,0.006122,-0.210292,-0.078081,0.606844,-0.762510
27808,NaN,10.655832,2.186660,6.829300,-11.356679,-4.679707,-6.059846,1.872859,-2.341456,1.242246,-0.911621,0.139648,-0.239502,0.105612,0.021876,0.069738,0.999868,0.009364,-0.011707,0.006211,-0.197702,-0.085211,0.602568,-0.768482
27809,NaN,8.363802,3.222028,3.520609,-9.260291,-2.369934,-8.648651,1.802395,-1.846485,1.202645,-0.916016,0.148193,-0.230957,0.083112,0.032397,0.036266,0.999899,0.009012,-0.009232,0.006013,-0.191432,-0.090345,0.598500,-0.772651
27810,NaN,4.870638,4.385095,0.468679,-6.237286,-0.532919,-11.808210,1.480720,-1.449176,1.112180,-0.914062,0.156738,-0.218506,0.048424,0.044083,0.005364,0.999931,0.007403,-0.007246,0.005561,-0.182128,-0.094040,0.594625,-0.777437
27811,NaN,2.723845,5.628780,0.073035,-4.734627,-0.893207,-13.799177,1.268724,-1.232196,0.970176,-0.916260,0.161133,-0.203613,0.026958,0.056412,0.001255,0.999949,0.006344,-0.006161,0.004851,-0.178622,-0.096978,0.591745,-0.780081
27812,NaN,0.835673,7.437328,1.729094,-3.759412,-3.317732,-15.631650,0.952463,-1.241738,0.814945,-0.914062,0.161133,-0.199463,0.007945,0.074323,0.017695,0.999961,0.004762,-0.006209,0.004075,-0.171311,-0.100271,0.589508,-0.782993
27813,NaN,1.268629,8.946752,1.937397,-4.733649,-3.870071,-16.742436,0.623358,-1.131511,0.689080,-0.916260,0.158936,-0.195068,0.012267,0.089449,0.019723,0.999973,0.003117,-0.005658,0.003445,-0.168771,-0.103393,0.588732,-0.783722
27814,NaN,1.367537,9.298237,2.065417,-4.896410,-4.123638,-16.996949,0.189880,-0.599594,0.631333,-0.907959,0.169678,-0.193115,0.013320,0.093005,0.020783,0.999990,0.000949,-0.002998,0.003157,-0.164444,-0.104058,0.588811,-0.784495
27815,NaN,0.603346,8.758168,2.227352,-4.004481,-4.212147,-16.759071,-0.487813,-0.195941,0.482664,-0.914551,0.171631,-0.188965,0.005800,0.087650,0.022066,0.999994,-0.002439,-0.000980,0.002413,-0.166691,-0.102510,0.591435,-0.782247
27816,NaN,2.177674,7.475991,4.305261,-5.027222,-5.631988,-14.521746,-0.823542,0.125938,0.206810,-0.903809,0.167480,-0.193115,0.021726,0.074959,0.042731,0.999991,-0.004118,0.000630,0.001034,-0.166687,-0.100733,0.594648,-0.780040
27817,NaN,2.324103,3.543284,6.241125,-3.842068,-6.458899,-10.466960,-1.112496,0.951419,-0.050251,-0.905762,0.165283,-0.203613,0.023546,0.035773,0.062101,0.999973,-0.005562,0.004757,-0.000251,-0.174531,-0.095705,0.598226,-0.776212
27818,NaN,2.028843,0.174956,6.469468,-2.384886,-5.933711,-7.553777,-1.516765,1.421835,-0.183791,-0.897461,0.165283,-0.212158,0.020749,0.002220,0.064533,0.999946,-0.007584,0.007109,-0.000919,-0.180225,-0.089422,0.602747,-0.772152
27819,NaN,2.672915,-0.723224,4.453722,-2.594571,-3.647212,-7.079882,-1.907412,1.677945,-0.362696,-0.897217,0.158936,-0.233154,0.027089,-0.006857,0.044378,0.999918,-0.009537,0.008389,-0.001813,-0.191918,-0.081419,0.608221,-0.765902
27820,NaN,3.176841,-2.947857,2.368168,-2.018960,-1.100111,-5.441901,-1.764855,2.270799,-0.621101,-0.895264,0.156982,-0.256592,0.031945,-0.029369,0.023579,0.999892,-0.008824,0.011354,-0.003105,-0.201911,-0.072925,0.612478,-0.760779
27821,NaN,2.744366,-5.074808,2.554854,-0.835928,-0.993646,-3.638044,-1.748837,3.072520,-0.763216,-0.886475,0.148438,-0.277588,0.027643,-0.050630,0.025568,0.999836,-0.008744,0.015362,-0.003816,-0.219597,-0.060337,0.615359,-0.754632
27822,NaN,2.379068,-2.638477,2.390630,-1.523384,-1.270926,-6.017925,-2.386415,3.476279,-0.824739,-0.873779,0.139893,-0.305176,0.024097,-0.026199,0.023803,0.999769,-0.011931,0.017380,-0.004123,-0.234085,-0.047141,0.620152,-0.747258
27823,NaN,3.436441,2.303618,-0.536942,-3.826074,1.361834,-10.765028,-3.373400,3.698504,-0.936141,-0.863037,0.137939,-0.332520,0.034360,0.022773,-0.006391,0.999676,-0.016865,0.018491,-0.004680,-0.253866,-0.031015,0.627521,-0.735396
27824,NaN,6.406299,6.108424,-2.974205,-7.137124,4.661098,-13.621860,-4.208675,3.992715,-1.041003,-0.850586,0.142334,-0.360107,0.063750,0.060090,-0.032289,0.999566,-0.021040,0.019961,-0.005204,-0.270772,-0.014263,0.637490,-0.721170
27825,NaN,12.818745,7.481264,-4.403234,-12.264120,9.003454,-12.665837,-3.797570,4.230567,-1.280080,-0.833252,0.129395,-0.387695,0.127670,0.073106,-0.048136,0.999576,-0.018985,0.021150,-0.006399,-0.292570,0.003022,0.644506,-0.706404
27826,NaN,26.465134,8.867768,3.854534,-26.839773,8.191925,-7.309078,-2.903985,3.854415,-1.476130,-0.818359,0.121094,-0.417236,0.265959,0.087216,0.032154,0.999682,-0.014518,0.019270,-0.007380,-0.310077,0.016108,0.648939,-0.694601
27827,NaN,43.110007,17.014949,-0.748619,-40.886971,21.799911,-8.769590,-2.197293,4.489386,-1.257312,-0.795410,0.125488,-0.461670,0.431817,0.167269,-0.019023,0.999668,-0.010985,0.022444,-0.006286,-0.330290,0.029707,0.648894,-0.684808
27828,NaN,32.260310,9.539775,-4.531039,-26.155327,21.390917,-6.650104,-2.614414,7.263236,-1.419692,-0.759277,0.119141,-0.516846,0.321308,0.092409,-0.058218,0.999230,-0.013069,0.036307,-0.007097,-0.358078,0.054242,0.645562,-0.672375
27829,NaN,18.406836,-7.243056,-2.414971,-8.810978,11.792514,3.615585,-3.603819,6.661827,-1.176137,-0.727783,0.127930,-0.552979,0.182726,-0.074001,-0.028928,0.999266,-0.018015,0.033301,-0.005879,-0.384169,0.077202,0.645051,-0.656021
27830,NaN,25.108820,-9.658525,-0.017230,-13.191396,14.176374,8.861114,-5.251904,4.865679,-0.846533,-0.698730,0.142822,-0.574219,0.250614,-0.097713,-0.003718,0.999350,-0.026254,0.024323,-0.004232,-0.400369,0.100447,0.652838,-0.635152
27831,NaN,30.885915,-9.240364,0.641651,-16.843772,17.938802,11.023644,-4.262647,4.196408,-0.585851,-0.675781,0.157959,-0.597656,0.308659,-0.093235,0.001920,0.999548,-0.021310,0.020979,-0.002929,-0.415483,0.118106,0.657560,-0.617284
27832,NaN,32.862469,-6.238259,-0.186704,-17.844606,21.177831,8.945166,-2.123977,3.820328,0.030623,-0.650635,0.164551,-0.619141,0.328527,-0.062392,-0.007481,0.999761,-0.010619,0.019100,0.000153,-0.426606,0.134362,0.656005,-0.607957
27833,NaN,27.397763,1.176762,2.677806,-18.323079,17.895903,0.339397,-2.178761,4.426004,0.077108,-0.625732,0.175293,-0.646729,0.274474,0.012120,0.020576,0.999696,-0.010893,0.022128,0.000386,-0.441240,0.149955,0.652738,-0.597288
27834,NaN,23.063583,-0.300505,3.211052,-15.038153,14.868317,-0.063853,-1.582453,4.156239,-0.350168,-0.595947,0.173096,-0.659424,0.231232,-0.003181,0.027334,0.999751,-0.007912,0.020779,-0.001751,-0.454564,0.164659,0.648397,-0.588082
27835,NaN,21.314108,0.762026,7.281394,-16.990943,12.030478,-1.187910,-2.065743,4.236592,-0.211019,-0.569092,0.194580,-0.674561,0.214627,0.008115,0.068196,0.999722,-0.010328,0.021181,-0.001055,-0.469145,0.177986,0.644723,-0.576677
27836,NaN,17.873640,3.490331,5.306124,-13.990169,12.006060,-5.355248,-3.191099,4.099124,-0.114591,-0.541504,0.201172,-0.689453,0.179786,0.035602,0.048819,0.999663,-0.015954,0.020493,-0.000573,-0.479701,0.196840,0.644196,-0.562274
27837,NaN,15.360786,6.071195,2.698317,-10.855142,12.706144,-8.932569,-3.342955,3.083930,-0.109189,-0.514893,0.229004,-0.687744,0.154022,0.061041,0.023592,0.999741,-0.016713,0.015418,-0.000546,-0.488733,0.209878,0.645991,-0.547528
27838,NaN,15.336637,7.140901,2.100530,-10.077751,13.746354,-10.045253,-3.072985,3.034361,-0.041936,-0.491943,0.243896,-0.702637,0.153665,0.071664,0.017575,0.999767,-0.015364,0.015171,-0.000210,-0.495320,0.225489,0.646886,-0.534183
27839,NaN,10.095096,3.462075,1.112270,-5.765795,8.994298,-8.822832,-2.812966,2.824036,0.205944,-0.471191,0.260986,-0.696533,0.101054,0.034863,0.009207,0.999801,-0.014064,0.014119,0.001030,-0.502844,0.237296,0.646995,-0.521762
27840,NaN,5.676181,-0.836785,0.143236,-2.065788,4.400587,-6.762102,-2.952174,2.382630,0.220328,-0.452637,0.280273,-0.696777,0.056784,-0.008290,0.000879,0.999819,-0.014760,0.011912,0.001102,-0.506394,0.251583,0.648333,-0.509838
27841,NaN,1.338263,-4.755085,-1.292057,1.581845,-0.089435,-4.958859,-2.946477,1.669597,-0.001925,-0.438477,0.299561,-0.694824,0.013278,-0.047736,-0.012329,0.999857,-0.014732,0.008348,-0.000010,-0.510129,0.260142,0.651525,-0.497605
27842,NaN,-1.625738,-6.245702,-2.586788,3.929272,-2.757255,-4.782943,-2.714580,0.910830,-0.269034,-0.432373,0.316895,-0.684570,-0.016457,-0.062778,-0.024943,0.999897,-0.013572,0.004554,-0.001345,-0.510192,0.268407,0.656244,-0.486832
27843,NaN,-4.046001,-6.282486,-3.364932,5.360823,-4.672182,-5.739308,-2.321755,0.211942,-0.508090,-0.428467,0.325195,-0.669678,-0.040655,-0.063106,-0.032875,0.999929,-0.011608,0.001060,-0.002540,-0.510829,0.270513,0.661962,-0.477162
27844,NaN,-6.151476,-5.851160,-4.334262,6.817333,-6.021084,-6.960945,-1.738609,-0.403918,-0.617669,-0.439209,0.329590,-0.665527,-0.061609,-0.058696,-0.042957,0.999955,-0.008693,-0.002020,-0.003088,-0.508601,0.271912,0.667954,-0.470347
27845,NaN,-6.902969,-5.273896,-5.157546,7.761951,-6.148064,-7.808034,-0.802834,-0.854372,-0.663017,-0.443359,0.331787,-0.661377,-0.068984,-0.052717,-0.051659,0.999977,-0.004014,-0.004272,-0.003315,-0.507749,0.267602,0.672838,-0.466764
27846,NaN,-8.725413,-5.277348,-5.743810,8.982062,-7.405091,-8.604441,0.490153,-1.013578,-0.804851,-0.445068,0.318848,-0.652588,-0.087172,-0.052281,-0.058009,0.999976,0.002451,-0.005068,-0.004024,-0.506871,0.261256,0.675335,-0.467707
27847,NaN,-11.617453,-6.003694,-7.256787,11.653663,-9.361790,-9.359549,2.380509,-1.361666,-0.915315,-0.457275,0.297363,-0.652588,-0.115944,-0.058630,-0.074061,0.999896,0.011902,-0.006808,-0.004576,-0.508654,0.247272,0.674274,-0.474850
27848,NaN,-11.636754,-3.816386,-8.952853,13.136804,-7.380745,-11.556471,4.598258,-2.326740,-0.818271,-0.473145,0.256592,-0.652100,-0.115458,-0.035598,-0.091714,0.999660,0.022989,-0.011632,-0.004091,-0.508275,0.227190,0.670063,-0.490976
27849,NaN,-6.292993,1.856392,-8.426025,9.571517,-0.430760,-14.525994,5.885026,-3.305019,-0.534337,-0.488770,0.218018,-0.643311,-0.061478,0.021218,-0.084686,0.999427,0.029420,-0.016522,-0.002671,-0.505679,0.201008,0.664215,-0.512546
27850,NaN,-3.570119,3.186872,-7.683411,7.238637,2.332726,-14.718484,6.340086,-4.151705,-0.406800,-0.513184,0.179443,-0.624023,-0.034043,0.034368,-0.076489,0.999280,0.031693,-0.020754,-0.002034,-0.498954,0.172826,0.658401,-0.536363
27851,NaN,-1.840289,0.457808,-6.258335,5.826161,2.322816,-11.656566,6.575978,-5.081274,-0.414678,-0.552002,0.134277,-0.606445,-0.016796,0.006677,-0.062827,0.999135,0.032870,-0.025399,-0.002073,-0.489037,0.140246,0.653399,-0.560574
27852,NaN,0.227641,-1.128846,-3.509293,3.030180,2.002414,-9.147620,6.234646,-5.534216,-0.282378,-0.572021,0.095703,-0.578613,0.003237,-0.010193,-0.035341,0.999130,0.031164,-0.027663,-0.001411,-0.475711,0.108430,0.649090,-0.583630
27853,NaN,2.390640,-2.029958,-1.791920,0.871401,2.279999,-7.150482,5.915552,-5.332073,0.126800,-0.598389,0.059326,-0.548584,0.024396,-0.019755,-0.017863,0.999207,0.029570,-0.026653,0.000634,-0.461096,0.078199,0.644220,-0.605191
27854,NaN,6.489019,-2.059901,1.180849,-3.566054,2.824692,-4.612120,5.589216,-4.776285,0.508849,-0.618896,0.037598,-0.520996,0.064645,-0.020782,0.012775,0.999321,0.027940,-0.023876,0.002544,-0.446060,0.052428,0.637685,-0.625811
27855,NaN,11.858021,2.590532,4.759616,-11.452077,4.046032,-5.077947,4.476571,-4.329497,0.371745,-0.637451,0.022705,-0.497559,0.117458,0.025012,0.050714,0.999514,0.022379,-0.021644,0.001858,-0.432196,0.029176,0.633248,-0.641368
27856,NaN,17.449788,9.083451,10.556263,-21.840003,3.093554,-6.378641,2.275225,-4.075320,0.094942,-0.649414,0.005371,-0.471924,0.172242,0.089681,0.110113,0.999728,0.011375,-0.020375,0.000475,-0.419218,0.011461,0.634571,-0.649188
27857,NaN,22.370969,8.353991,14.054907,-26.624246,2.144294,-2.441942,-0.643953,-1.774248,-0.493178,-0.654053,0.013916,-0.465576,0.222659,0.083446,0.142259,0.999952,-0.003220,-0.008871,-0.002466,-0.415511,0.004482,0.640534,-0.645791
27858,NaN,21.635860,7.481559,15.167053,-26.320676,1.117182,-2.069524,-4.399839,3.364215,-0.756981,-0.628906,0.022705,-0.495361,0.219139,0.077248,0.146318,0.999609,-0.021996,0.016819,-0.003784,-0.428481,0.022034,0.647516,-0.629794
27859,NaN,7.965691,4.810260,7.192036,-11.664266,0.190686,-8.341063,-2.730419,6.173493,-2.542325,-0.598877,0.009766,-0.525146,0.082423,0.048020,0.068748,0.999350,-0.013649,0.030861,-0.012709,-0.456716,0.037921,0.642527,-0.614110
27860,NaN,-7.085244,2.214006,1.490310,1.814865,-4.976556,-15.220685,1.717261,4.781447,-3.319811,-0.576660,-0.026611,-0.539551,-0.070087,0.023169,0.016781,0.999540,0.008585,0.023904,-0.016597,-0.482396,0.037975,0.626671,-0.610848
27861,NaN,-16.291717,-13.480978,-21.510250,29.805835,2.371913,-13.738706,8.158147,0.985697,-1.492266,-0.583496,-0.082275,-0.520264,-0.164948,-0.124688,-0.219517,0.999128,0.040779,0.004927,-0.007459,-0.491956,0.015547,0.598771,-0.631831
27862,NaN,23.758660,-13.937287,-22.294328,8.905913,29.700396,7.323987,9.624967,-2.690560,1.893778,-0.597412,-0.105957,-0.496582,0.241851,-0.126265,-0.225996,0.998707,0.048104,-0.013447,0.009465,-0.478051,-0.010991,0.574071,-0.664672
27863,NaN,44.733679,-4.445748,19.205384,-32.396773,11.905025,24.800176,0.918710,-2.818994,4.252471,-0.605225,-0.062988,-0.497070,0.445396,-0.035874,0.198163,0.999664,0.004593,-0.014093,0.021260,-0.455758,-0.011457,0.578147,-0.676683
27864,NaN,46.631886,14.885971,18.799553,-46.126893,16.516829,8.815757,-8.526671,6.239888,1.878604,-0.576416,-0.035156,-0.526855,0.470270,0.160677,0.166675,0.998561,-0.042613,0.031184,0.009389,-0.467283,0.034488,0.592044,-0.655699
27865,NaN,0.109594,19.182231,-20.778397,1.299625,17.850533,-31.705644,2.107815,3.899020,-0.168507,-0.565186,-0.054443,-0.535156,-0.002765,0.193999,-0.205718,0.999754,0.010538,0.019494,-0.000842,-0.480286,0.040170,0.575993,-0.660261
27866,NaN,-9.694407,-10.347324,-11.926549,18.496569,0.831923,-10.495675,2.015369,-0.273888,-0.020743,-0.579590,-0.067383,-0.522461,-0.096790,-0.102254,-0.120433,0.999948,0.010077,-0.001369,-0.000104,-0.479961,0.034342,0.569972,-0.666026
27867,NaN,0.863331,-7.792847,4.496317,1.658756,-3.578849,-1.680778,1.731948,-4.390984,0.608804,-0.600830,-0.067383,-0.492676,0.007891,-0.078290,0.044465,0.999717,0.008659,-0.021953,0.003044,-0.465879,0.015694,0.574910,-0.672449
27868,NaN,12.053727,-1.050510,-9.613122,-1.152455,14.923623,-5.975036,2.219953,-3.999063,0.708096,-0.613281,-0.069580,-0.471436,0.122462,-0.009024,-0.093801,0.999732,0.011099,-0.019994,0.003540,-0.452070,-0.000914,0.576551,-0.680603
27869,NaN,10.554182,1.013149,-10.178443,-1.886618,14.511428,-8.453975,2.246835,-3.304633,1.229827,-0.627930,-0.071777,-0.435547,0.107133,0.011916,-0.099896,0.999781,0.011233,-0.016522,0.006149,-0.438401,-0.015225,0.576804,-0.689108
27870,NaN,17.453223,1.244601,-4.609615,-9.615612,13.801667,-3.148526,2.043263,-3.741365,1.918686,-0.640625,-0.072021,-0.412109,0.175219,0.014573,-0.042681,0.999727,0.010215,-0.018705,0.009593,-0.420743,-0.027080,0.577952,-0.698723
27871,NaN,23.657031,4.674179,-3.897741,-16.821021,16.021728,-2.267553,0.993300,-4.536838,1.840526,-0.664307,-0.057129,-0.382568,0.236925,0.049096,-0.033365,0.999688,0.004966,-0.022682,0.009202,-0.400945,-0.041367,0.584869,-0.703889
27872,NaN,25.545550,11.144724,-0.723034,-24.094163,13.266496,-5.272025,-0.135373,-5.353244,0.847539,-0.678955,-0.054932,-0.338135,0.255053,0.112527,-0.000475,0.999633,-0.000677,-0.026763,0.004237,-0.382208,-0.057464,0.596033,-0.703818
27873,NaN,24.822066,10.542376,-1.550250,-23.463721,12.523387,-5.101093,-0.327029,-4.517680,0.445970,-0.683105,-0.057129,-0.312744,0.248253,0.105958,-0.010068,0.999741,-0.001635,-0.022586,0.002230,-0.367291,-0.073345,0.606589,-0.701261
27874,NaN,23.343983,5.145978,-3.585847,-18.951276,12.742020,-1.896637,-0.431441,-4.880241,0.635224,-0.696045,-0.046631,-0.279053,0.234059,0.052133,-0.030264,0.999695,-0.002157,-0.024399,0.003176,-0.350327,-0.087738,0.617107,-0.699108
27875,NaN,29.415427,0.588658,5.069449,-23.793317,5.839813,7.244776,-0.852999,-4.139046,0.638050,-0.694092,-0.038086,-0.257812,0.293000,0.007056,0.056738,0.999772,-0.004265,-0.020694,0.003190,-0.335900,-0.100891,0.628261,-0.694464
27876,NaN,24.965708,0.376147,7.712372,-21.284524,0.820549,5.324830,0.038020,-3.184827,0.667103,-0.698242,-0.031738,-0.236816,0.248372,0.004576,0.081087,0.999868,0.000190,-0.015923,0.003335,-0.323533,-0.109930,0.633726,-0.693998
27877,NaN,21.333779,-0.510631,9.741151,-18.485311,-3.061570,4.299858,1.753041,-2.879670,1.007614,-0.700684,-0.025391,-0.217773,0.211931,-0.004908,0.100426,0.999845,0.008765,-0.014398,0.005038,-0.310485,-0.121792,0.633366,-0.698293
27878,NaN,17.345003,2.496899,11.988854,-17.536133,-6.972673,-0.083873,2.183602,-2.646642,1.272058,-0.705078,-0.016846,-0.196777,0.171683,0.024737,0.122439,0.999833,0.010917,-0.013232,0.006360,-0.296298,-0.130400,0.630513,-0.705447
27879,NaN,13.507657,3.438345,11.304985,-14.672810,-7.879116,-3.127990,2.044398,-2.608913,1.159357,-0.707031,-0.016846,-0.179688,0.133386,0.033990,0.115146,0.999846,0.010221,-0.013044,0.005796,-0.283521,-0.141121,0.628191,-0.710688
27880,NaN,10.831749,1.232308,8.954959,-10.680085,-6.491324,-3.268699,2.032552,-2.395567,1.157538,-0.704834,-0.014893,-0.162842,0.107163,0.012026,0.090961,0.999860,0.010162,-0.011977,0.005787,-0.270428,-0.148886,0.625086,-0.716917
27881,NaN,8.420976,3.855675,4.910523,-9.588486,-3.514627,-7.447469,1.667767,-2.027167,1.168902,-0.705078,-0.004150,-0.154541,0.083478,0.038630,0.050276,0.999897,0.008339,-0.010135,0.005844,-0.259810,-0.156772,0.622803,-0.721137
27882,NaN,5.793319,5.116058,2.649029,-7.874728,-2.104544,-10.369640,1.362976,-1.676197,1.167384,-0.707520,0.008789,-0.141846,0.057407,0.051312,0.027322,0.999925,0.006815,-0.008381,0.005837,-0.249312,-0.160966,0.620926,-0.725523
27883,NaN,3.798142,5.852732,1.809220,-6.536659,-1.842185,-12.227196,1.207691,-1.625859,1.091119,-0.709961,0.017090,-0.127197,0.037511,0.058621,0.018752,0.999934,0.006038,-0.008129,0.005455,-0.240607,-0.166918,0.619472,-0.728355
27884,NaN,1.795909,7.968210,3.462004,-6.057527,-4.143271,-14.796648,1.146485,-1.802709,0.970929,-0.707764,0.021484,-0.116699,0.017257,0.079566,0.035234,0.999931,0.005732,-0.009013,0.004855,-0.230534,-0.171870,0.618224,-0.731515
27885,NaN,1.655363,10.408775,0.538866,-7.121272,-1.735526,-17.405191,1.120160,-1.685742,0.843092,-0.708008,0.023438,-0.106201,0.016065,0.104123,0.006109,0.999940,0.005601,-0.008429,0.004215,-0.222624,-0.178555,0.616754,-0.733601
27886,NaN,-0.204093,10.605409,-2.297065,-5.579844,0.706483,-19.094827,0.837671,-0.931923,0.772853,-0.710205,0.027832,-0.104004,-0.002345,0.106140,-0.022537,0.999973,0.004188,-0.004660,0.003864,-0.216181,-0.180545,0.615383,-0.736188
27887,NaN,-2.625798,8.895092,-1.150315,-2.615998,-0.425637,-18.774599,-0.063056,-0.626816,0.588138,-0.710449,0.036377,-0.097656,-0.026483,0.088870,-0.011614,0.999991,-0.000315,-0.003134,0.002941,-0.213528,-0.182745,0.616782,-0.735248
27888,NaN,1.108165,6.472489,4.151561,-4.399061,-4.930560,-13.898528,-0.752812,-0.335844,0.246141,-0.706055,0.036377,-0.104004,0.010932,0.064894,0.041290,0.999991,-0.003764,-0.001679,0.001231,-0.212294,-0.182443,0.620117,-0.732871
27889,NaN,2.228948,2.200171,8.753319,-3.083037,-8.737394,-9.050608,-1.330380,0.714536,-0.013377,-0.699707,0.036377,-0.110352,0.022603,0.022581,0.087304,0.999971,-0.006652,0.003573,-0.000067,-0.217163,-0.180062,0.624085,-0.728654
27890,NaN,3.232207,-0.302552,8.463872,-2.705411,-8.012616,-6.548934,-1.671597,1.156140,-0.099470,-0.699951,0.036377,-0.123047,0.032809,-0.002335,0.084471,0.999948,-0.008358,0.005781,-0.000497,-0.222647,-0.174365,0.628787,-0.724328
27891,NaN,4.235666,-1.051278,4.905287,-3.162227,-4.270528,-5.956577,-1.894816,1.654358,-0.354672,-0.701904,0.034424,-0.135742,0.042743,-0.010125,0.048798,0.999919,-0.009474,0.008272,-0.001773,-0.232252,-0.168736,0.633126,-0.718845
27892,NaN,4.829361,-3.297982,1.581177,-2.310313,-0.651671,-4.250587,-1.359365,2.239620,-0.642568,-0.695557,0.032227,-0.154785,0.048362,-0.033029,0.015495,0.999909,-0.006797,0.011198,-0.003213,-0.242797,-0.161156,0.634801,-0.715615
27893,NaN,4.199057,-4.464521,2.462795,-1.203044,-1.451919,-3.482330,-1.338475,3.129776,-0.784174,-0.693359,0.028076,-0.169678,0.042197,-0.044647,0.024267,0.999847,-0.006692,0.015648,-0.003921,-0.258009,-0.152021,0.634655,-0.712414
27894,NaN,3.393610,-0.579653,3.927262,-2.959548,-3.168744,-6.901770,-2.268389,3.492860,-0.880819,-0.693359,0.017334,-0.197021,0.034591,-0.005507,0.038736,0.999773,-0.011341,0.017463,-0.004404,-0.273915,-0.139444,0.637407,-0.706568
27895,NaN,3.111577,0.325351,0.905090,-2.844020,-0.176628,-8.236043,-3.287891,3.792310,-0.948226,-0.686768,0.013184,-0.213867,0.031295,0.003247,0.008405,0.999674,-0.016438,0.018959,-0.004741,-0.292918,-0.125580,0.642469,-0.696895
27896,NaN,4.565531,4.461548,-1.797465,-5.732374,3.028673,-11.203726,-4.105235,4.008633,-0.975626,-0.676514,0.017578,-0.250000,0.045486,0.043999,-0.019795,0.999577,-0.020523,0.020040,-0.004877,-0.311666,-0.108714,0.650008,-0.684496
27897,NaN,10.466997,6.915428,-7.010154,-10.016445,10.277274,-10.527675,-3.997943,4.244670,-1.162370,-0.661621,0.017578,-0.271240,0.103526,0.067101,-0.073662,0.999558,-0.019987,0.021220,-0.005811,-0.332762,-0.092655,0.655638,-0.671434
27898,NaN,20.021383,6.206133,-2.564304,-17.711268,9.859070,-3.898962,-2.825216,3.851765,-1.407363,-0.659424,0.004883,-0.298584,0.200088,0.060246,-0.030357,0.999690,-0.014125,0.019257,-0.007036,-0.351337,-0.079641,0.657852,-0.661400
27899,NaN,38.015773,12.440243,1.410220,-35.304371,14.604971,2.102010,-2.292641,3.870978,-1.431159,-0.648926,0.004883,-0.323975,0.381195,0.121772,0.005324,0.999721,-0.011462,0.019353,-0.007155,-0.370870,-0.068617,0.657405,-0.652354
27900,NaN,35.281945,9.139689,-2.554025,-28.813396,18.487542,2.930485,-2.618551,5.943596,-1.462261,-0.625732,0.007324,-0.370605,0.352483,0.088383,-0.037190,0.999446,-0.013090,0.029712,-0.007310,-0.395885,-0.049178,0.654054,-0.642706
27901,NaN,21.955002,-3.949732,-1.896737,-11.256188,11.345734,5.858419,-2.275470,7.441668,-1.175600,-0.598389,0.007324,-0.410889,0.218415,-0.041058,-0.026648,0.999226,-0.011374,0.037199,-0.005876,-0.425683,-0.026091,0.645282,-0.633817
27902,NaN,25.172730,-7.975048,-2.759132,-9.557008,13.816360,10.743267,-3.698409,5.226825,-1.193959,-0.579590,0.011719,-0.440430,0.250434,-0.081821,-0.032648,0.999470,-0.018489,0.026130,-0.005969,-0.446603,-0.005530,0.645376,-0.619681
27903,NaN,29.978360,-9.736950,-0.299951,-11.902495,14.618318,15.449098,-4.299246,4.438303,-0.964936,-0.567139,0.022461,-0.463867,0.299175,-0.098943,-0.007528,0.999511,-0.021493,0.022188,-0.004824,-0.465163,0.013085,0.647953,-0.603000
27904,NaN,34.709284,-8.895352,-2.979432,-12.584979,20.166675,17.161139,-2.983144,3.280142,-0.701942,-0.557129,0.035400,-0.487305,0.346241,-0.090657,-0.034134,0.999748,-0.014914,0.016399,-0.003509,-0.477612,0.027601,0.649199,-0.591325
27905,NaN,31.469405,-3.720326,1.938271,-15.872871,16.850915,11.909624,-1.744477,4.600804,0.210003,-0.525635,0.050537,-0.517090,0.315073,-0.036744,0.012459,0.999697,-0.008722,0.023002,0.001050,-0.492801,0.044196,0.642798,-0.584812
27906,NaN,23.638726,-1.578735,2.712720,-12.756829,13.028906,5.550663,-1.935059,5.124887,0.258825,-0.509033,0.054932,-0.544678,0.237001,-0.015257,0.021208,0.999624,-0.009674,0.025621,0.001294,-0.507920,0.064728,0.635530,-0.577866
27907,NaN,21.367938,-0.454691,4.989277,-13.181478,11.195984,3.696478,-1.482377,4.744629,-0.077450,-0.479736,0.070068,-0.568115,0.214781,-0.004285,0.044838,0.999691,-0.007411,0.023721,-0.000387,-0.523826,0.079901,0.627299,-0.570717
27908,NaN,17.517361,3.892638,8.466485,-15.738326,8.690746,-1.424435,-3.044800,5.019199,0.295053,-0.457031,0.089355,-0.589600,0.177155,0.040425,0.079627,0.999568,-0.015222,0.025092,0.001475,-0.537302,0.103052,0.622455,-0.559675
27909,NaN,13.758592,5.419016,3.390877,-10.505660,10.225617,-5.916160,-3.451952,3.940929,0.310505,-0.438965,0.117188,-0.606689,0.138121,0.054947,0.030246,0.999656,-0.017258,0.019702,0.001552,-0.548043,0.122193,0.620813,-0.547092
27910,NaN,15.591924,8.416306,2.897267,-11.618630,13.518659,-7.682431,-3.083729,3.267473,0.480914,-0.411865,0.136475,-0.613281,0.156147,0.084945,0.025117,0.999745,-0.015417,0.016336,0.002404,-0.554865,0.141006,0.619846,-0.536687
27911,NaN,11.719778,8.407043,1.343595,-8.470163,11.742469,-10.228811,-2.812005,3.340688,0.829815,-0.391357,0.157959,-0.626221,0.117037,0.084716,0.010292,0.999753,-0.014059,0.016702,0.004149,-0.562194,0.158149,0.617094,-0.527372
27912,NaN,8.065439,4.315025,0.660490,-4.718550,7.830222,-9.091784,-2.724456,2.694867,0.995379,-0.375244,0.183838,-0.632812,0.080512,0.043626,0.004927,0.999804,-0.013621,0.013473,0.004977,-0.565639,0.175917,0.615801,-0.519514
27913,NaN,4.144400,-1.124904,-0.987078,0.077997,3.317934,-6.914266,-2.825830,1.814217,0.753100,-0.365234,0.203125,-0.633057,0.041395,-0.011235,-0.010088,0.999852,-0.014128,0.009071,0.003765,-0.567999,0.188753,0.617047,-0.510884
27914,NaN,-0.098875,-5.304354,-1.873482,3.484182,-1.497505,-5.656776,-2.892654,0.798986,0.454507,-0.357422,0.226562,-0.629150,-0.000941,-0.053309,-0.017961,0.999885,-0.014463,0.003995,0.002272,-0.566527,0.200354,0.621674,-0.502421
27915,NaN,-0.694128,-6.205353,-2.195935,4.118104,-2.325120,-5.182065,-2.698816,0.410395,0.161020,-0.351562,0.243652,-0.631348,-0.006935,-0.062348,-0.021105,0.999907,-0.013494,0.002052,0.000805,-0.565851,0.207559,0.626905,-0.493682
27916,NaN,-4.862582,-6.655591,-2.659308,5.686376,-5.842435,-6.889960,-2.380676,-0.090899,-0.108224,-0.358398,0.258789,-0.623047,-0.048650,-0.066840,-0.025821,0.999929,-0.011903,-0.000454,-0.000541,-0.563341,0.213680,0.633115,-0.485956
27917,NaN,-6.649806,-6.494715,-3.203871,6.557687,-7.091485,-7.976059,-1.674548,-0.722605,-0.283097,-0.367188,0.273682,-0.623047,-0.066475,-0.065120,-0.031734,0.999957,-0.008373,-0.003613,-0.001415,-0.561014,0.214070,0.639332,-0.480303
27918,NaN,-7.645484,-5.948431,-3.644306,7.095393,-7.489173,-8.984693,-0.426340,-1.085466,-0.518855,-0.367188,0.269287,-0.616699,-0.076410,-0.059364,-0.036731,0.999980,-0.002132,-0.005427,-0.002594,-0.558341,0.210960,0.643952,-0.478620
27919,NaN,-9.899794,-6.656956,-4.486027,8.806704,-9.212819,-9.732289,1.264766,-1.189063,-0.774969,-0.375000,0.252197,-0.620850,-0.098983,-0.065898,-0.045867,0.999955,0.006324,-0.005945,-0.003875,-0.558596,0.200716,0.644856,-0.481502
27920,NaN,-11.231934,-5.000422,-5.998000,10.305934,-8.685022,-12.152937,3.233845,-1.764459,-0.811260,-0.387207,0.232910,-0.618408,-0.111979,-0.048560,-0.061762,0.999822,0.016168,-0.008822,-0.004056,-0.558024,0.184748,0.642707,-0.491330
27921,NaN,-7.509835,1.028151,-6.435934,7.760258,-2.506417,-15.501020,4.716429,-2.788150,-0.588831,-0.403320,0.202881,-0.614014,-0.074160,0.012031,-0.065128,0.999620,0.023579,-0.013939,-0.002944,-0.555367,0.161710,0.639031,-0.507008
27922,NaN,-4.124277,3.472237,-5.505247,4.824858,1.042820,-15.728372,5.379723,-3.452378,-0.403432,-0.427734,0.168701,-0.617920,-0.040223,0.036281,-0.054791,0.999487,0.026894,-0.017259,-0.002017,-0.549444,0.136614,0.634985,-0.525587
27923,NaN,-2.822444,2.896183,-4.642437,3.617303,1.596633,-14.530878,5.961155,-4.080422,-0.524156,-0.454346,0.136475,-0.600586,-0.027203,0.030411,-0.046094,0.999344,0.029799,-0.020398,-0.002620,-0.542107,0.106797,0.630406,-0.545254
27924,NaN,-1.066020,1.424245,-4.250514,3.043329,2.317688,-12.379418,6.246378,-4.899347,-0.515809,-0.478516,0.091553,-0.583252,-0.009583,0.015591,-0.042276,0.999209,0.031224,-0.024490,-0.002578,-0.531000,0.074769,0.626438,-0.565706
27925,NaN,0.946201,0.502568,-2.267945,0.952980,2.297867,-10.128802,5.947447,-5.188643,-0.296588,-0.507080,0.059326,-0.563721,0.010051,0.005677,-0.022261,0.999220,0.029730,-0.025936,-0.001483,-0.517779,0.042396,0.623052,-0.584734
27926,NaN,2.477337,-1.217494,-1.249702,0.349408,2.117487,-7.673887,5.457041,-4.820466,0.027059,-0.533936,0.035645,-0.538086,0.025072,-0.011836,-0.012221,0.999337,0.027279,-0.024097,0.000135,-0.503521,0.014199,0.619159,-0.602418
27927,NaN,5.874317,-1.475542,-0.492651,-1.781817,3.562284,-5.223598,5.081607,-4.403297,0.354601,-0.549805,0.005615,-0.518799,0.058864,-0.014542,-0.004003,0.999433,0.025403,-0.022012,0.001773,-0.489178,-0.011662,0.614666,-0.618671
27928,NaN,10.480255,1.569455,2.524826,-8.012211,4.376431,-3.871078,4.305789,-4.144241,0.515823,-0.564209,-0.009521,-0.491211,0.104205,0.015384,0.027745,0.999550,0.021526,-0.020718,0.002579,-0.474400,-0.033457,0.611235,-0.632627
27929,NaN,13.445642,5.933860,5.646363,-14.272171,3.768456,-4.341488,2.770398,-3.999859,0.129898,-0.578857,-0.016113,-0.472168,0.133242,0.058611,0.059952,0.999704,0.013851,-0.019997,0.000649,-0.461420,-0.053203,0.611928,-0.640160
27930,NaN,16.270641,3.356238,9.096472,-15.962360,1.369571,0.289683,0.659316,-1.955843,-0.444924,-0.587158,-0.016113,-0.465576,0.161879,0.032898,0.092660,0.999944,0.003297,-0.009779,-0.002225,-0.456683,-0.062380,0.614172,-0.640579
27931,NaN,15.919560,5.002030,11.284028,-17.889451,-0.310218,-0.559173,-2.148412,2.209936,-0.676198,-0.574707,-0.016113,-0.484863,0.160596,0.050675,0.110529,0.999876,-0.010742,0.011049,-0.003381,-0.466679,-0.053482,0.615718,-0.632647
27932,NaN,6.080290,2.207436,6.075947,-7.926150,-1.181824,-6.002391,-1.332475,5.274094,-1.682035,-0.546875,-0.024414,-0.516602,0.062559,0.021950,0.058979,0.999595,-0.006661,0.026367,-0.008409,-0.488424,-0.038887,0.606923,-0.625759
27933,NaN,-6.683601,-1.367012,2.141560,3.076157,-5.848659,-12.541787,2.357341,4.752898,-2.192519,-0.524658,-0.056641,-0.526855,-0.066451,-0.013204,0.022840,0.999588,0.011785,0.023761,-0.010961,-0.509619,-0.037459,0.587076,-0.627875
27934,NaN,-7.797323,-18.332093,-18.602567,26.423880,6.554419,-8.652508,8.416226,1.461057,-0.369513,-0.525635,-0.093018,-0.513916,-0.079695,-0.175151,-0.192934,0.999086,0.042068,0.007303,-0.001847,-0.513049,-0.055400,0.556330,-0.651312
27935,NaN,32.986570,-19.109630,-2.087313,-0.833369,19.335682,23.094765,5.715946,-1.464450,3.256424,-0.538330,-0.095215,-0.503418,0.333079,-0.185038,-0.023788,0.999432,0.028574,-0.007321,0.016279,-0.496781,-0.066646,0.542081,-0.674474
27936,NaN,47.163894,1.385591,44.291791,-46.140996,-6.733930,35.039276,-6.889180,0.084510,4.119126,-0.536133,-0.032959,-0.529053,0.471198,0.038796,0.441669,0.999195,-0.034437,0.000422,0.020590,-0.485045,-0.038075,0.566028,-0.665503
27937,NaN,28.986627,30.150958,-8.419011,-30.965687,28.276162,-17.631097,-3.418148,5.644798,0.977002,-0.512695,-0.035156,-0.546143,0.285768,0.301322,-0.097447,0.999444,-0.017088,0.028219,0.004884,-0.498711,-0.009344,0.563450,-0.658578
27938,NaN,-7.533079,15.246972,-29.393570,9.058942,18.840382,-36.568280,5.462823,1.624679,-0.375356,-0.516113,-0.065186,-0.535400,-0.077396,0.160553,-0.289000,0.999592,0.027310,0.008122,-0.001877,-0.504091,-0.018705,0.541162,-0.672819
27939,NaN,-1.939959,-3.983801,-12.329071,9.969423,7.748929,-13.302871,3.410935,-2.166417,0.256179,-0.528320,-0.073730,-0.509766,-0.018009,-0.037749,-0.124147,0.999795,0.017054,-0.010831,0.001281,-0.497317,-0.035411,0.535232,-0.681871
27940,NaN,7.112309,-8.587201,2.348343,1.419300,2.142804,1.288356,2.124013,-3.633939,0.816090,-0.547363,-0.075928,-0.490723,0.071042,-0.085834,0.023863,0.999770,0.010619,-0.018168,0.004080,-0.484349,-0.050925,0.537044,-0.688765
27941,NaN,10.566744,1.257346,-9.601746,-2.453909,14.041488,-8.326025,2.258336,-3.911342,0.873477,-0.566162,-0.084717,-0.467285,0.107457,0.014108,-0.093774,0.999735,0.011291,-0.019555,0.004367,-0.470320,-0.068913,0.539142,-0.695252
27942,NaN,12.490925,3.133495,-8.671503,-5.956157,14.201442,-7.859870,2.634288,-4.917974,1.475847,-0.591553,-0.082520,-0.437744,0.126743,0.033377,-0.083182,0.999584,0.013170,-0.024586,0.007378,-0.450860,-0.088231,0.541827,-0.703821
27943,NaN,23.273187,6.926270,-2.341151,-18.067801,13.844054,-1.048209,1.545211,-5.421463,1.948780,-0.608643,-0.072021,-0.403809,0.232552,0.071675,-0.016558,0.999555,0.007725,-0.027103,0.009742,-0.428457,-0.106965,0.549745,-0.709058
27944,NaN,26.672596,7.117189,-4.224499,-20.425429,16.008276,0.498419,-1.012324,-5.093008,1.246714,-0.621582,-0.061279,-0.374268,0.267243,0.072645,-0.035809,0.999644,-0.005061,-0.025462,0.006233,-0.410458,-0.119423,0.564705,-0.705953
27945,NaN,23.388912,9.043540,-0.177007,-21.402363,9.853818,-1.232126,-2.160652,-4.817996,0.456143,-0.634521,-0.052734,-0.351074,0.233650,0.090983,0.002880,0.999649,-0.010802,-0.024087,0.002280,-0.396490,-0.132347,0.582825,-0.696846
27946,NaN,21.500131,5.515383,-5.456350,-16.629934,13.075435,-1.162934,-0.821433,-5.325977,0.564329,-0.649414,-0.048584,-0.319336,0.216200,0.055554,-0.049044,0.999633,-0.004107,-0.026627,0.002821,-0.379431,-0.147620,0.596394,-0.691777
27947,NaN,26.831707,-1.412268,-1.146934,-16.890362,9.722162,8.715179,-0.264854,-5.139708,0.838179,-0.664307,-0.040283,-0.285400,0.268549,-0.013007,-0.004552,0.999660,-0.001324,-0.025696,0.004190,-0.361466,-0.164126,0.607986,-0.687574
27948,NaN,29.659526,-3.065796,5.667202,-19.543293,2.837343,13.232790,-0.522390,-3.796094,0.899831,-0.660400,-0.027344,-0.264404,0.295581,-0.029169,0.062366,0.999806,-0.002612,-0.018979,0.004499,-0.347219,-0.173505,0.617251,-0.684351
27949,NaN,26.080638,-1.895759,7.976516,-18.418500,-1.386801,10.341608,0.654018,-3.086475,0.726015,-0.668945,-0.025391,-0.249756,0.259602,-0.018283,0.083717,0.999869,0.003270,-0.015432,0.003630,-0.334932,-0.184740,0.621359,-0.683816
27950,NaN,20.684869,-1.101512,10.131791,-15.483741,-5.414108,6.393602,2.482214,-2.634863,1.252808,-0.673340,-0.016846,-0.232666,0.205560,-0.011004,0.103895,0.999817,0.012410,-0.013174,0.006264,-0.320136,-0.194021,0.618315,-0.691054
27951,NaN,16.804836,3.142415,12.469422,-15.675234,-9.223731,1.001150,2.143527,-2.688086,1.419232,-0.673340,-0.008301,-0.213867,0.166127,0.031253,0.127271,0.999827,0.010717,-0.013440,0.007096,-0.305336,-0.204027,0.616773,-0.696228
27952,NaN,12.530549,1.687043,12.133071,-11.270279,-10.045359,-0.917569,2.208205,-2.537988,1.206266,-0.684082,-0.001953,-0.198975,0.123652,0.016267,0.123089,0.999840,0.011040,-0.012689,0.006031,-0.291038,-0.212522,0.614078,-0.702168
27953,NaN,9.578748,2.342085,7.923435,-9.010166,-6.737608,-4.030853,2.356243,-2.311381,1.211841,-0.686523,0.004639,-0.186279,0.094721,0.023053,0.080606,0.999845,0.011781,-0.011556,0.006059,-0.277921,-0.221860,0.610469,-0.707719
27954,NaN,6.968880,4.189134,3.945408,-8.045080,-3.576895,-7.773678,1.810823,-2.035753,1.130282,-0.693115,0.015137,-0.173828,0.069043,0.041919,0.040539,0.999891,0.009054,-0.010178,0.005651,-0.265699,-0.228147,0.608061,-0.712471
27955,NaN,3.938302,5.954451,1.279782,-6.857081,-1.652442,-11.501169,1.517471,-1.440838,1.117496,-0.688965,0.019531,-0.163330,0.038954,0.059662,0.013532,0.999930,0.007587,-0.007204,0.005587,-0.256472,-0.233309,0.605823,-0.716078
27956,NaN,1.973566,7.208622,0.732774,-6.137818,-1.589718,-13.836905,1.387642,-1.135325,1.017999,-0.691162,0.025879,-0.163330,0.019325,0.072132,0.007939,0.999947,0.006938,-0.005677,0.005090,-0.247786,-0.236098,0.603448,-0.720215
27957,NaN,0.404810,8.393860,2.276280,-5.574283,-3.511283,-15.504671,1.162274,-1.207312,0.890072,-0.697754,0.030029,-0.150635,0.003535,0.083821,0.023273,0.999955,0.005811,-0.006036,0.004450,-0.240461,-0.240532,0.601776,-0.722626
27958,NaN,2.132114,9.335139,1.554584,-7.454832,-2.960977,-15.268298,0.919475,-1.255987,0.840857,-0.693604,0.040771,-0.144287,0.020829,0.093366,0.016107,0.999961,0.004597,-0.006280,0.004204,-0.232560,-0.243677,0.600933,-0.724857
27959,NaN,2.820465,9.559708,0.620367,-8.146288,-2.136021,-15.179467,0.498787,-0.561002,0.852906,-0.691650,0.042969,-0.146484,0.027779,0.095700,0.006521,0.999984,0.002494,-0.002805,0.004265,-0.228128,-0.244976,0.600749,-0.725979
27960,NaN,0.763211,9.545829,0.705390,-6.483960,-2.312588,-16.506910,-0.385059,-0.190925,0.691206,-0.696045,0.051514,-0.144287,0.007295,0.095497,0.006877,0.999992,-0.001925,-0.000955,0.003456,-0.225547,-0.243194,0.603187,-0.725363
27961,NaN,2.555760,8.406943,3.254653,-6.969839,-4.510538,-14.157456,-0.954484,0.133370,0.312171,-0.692139,0.060059,-0.144531,0.025448,0.084263,0.032128,0.999987,-0.004772,0.000667,0.001561,-0.226988,-0.241872,0.606755,-0.722373
27962,NaN,1.390219,4.011331,6.302410,-3.160721,-6.785865,-11.118246,-1.367734,0.925190,0.174146,-0.687988,0.064453,-0.155029,0.014157,0.040555,0.062683,0.999966,-0.006839,0.004626,0.000871,-0.230843,-0.236484,0.610815,-0.719508
27963,NaN,0.883876,0.880275,7.979437,-0.851787,-7.969742,-8.821210,-1.481224,1.345058,-0.046064,-0.690186,0.064453,-0.163574,0.009377,0.009391,0.079664,0.999950,-0.007406,0.006725,-0.000230,-0.237942,-0.231135,0.614287,-0.715969
27964,NaN,2.061475,-1.020517,5.833463,-0.813361,-5.517892,-6.947359,-1.887891,1.614600,-0.276364,-0.687988,0.060303,-0.180420,0.021072,-0.009684,0.058259,0.999922,-0.009439,0.008073,-0.001382,-0.246085,-0.223984,0.618738,-0.711644
27965,NaN,2.951703,-3.654349,1.442920,0.021788,-0.797825,-4.963788,-1.698977,2.286225,-0.564883,-0.683838,0.060303,-0.188965,0.029579,-0.036505,0.014402,0.999895,-0.008495,0.011431,-0.002824,-0.258152,-0.216404,0.620950,-0.707777
27966,NaN,2.887769,-5.807756,1.143961,1.437933,-0.294501,-3.392135,-1.412430,3.173621,-0.712503,-0.681641,0.053955,-0.216309,0.028852,-0.058100,0.011392,0.999843,-0.007062,0.015867,-0.003562,-0.272045,-0.205573,0.620965,-0.705786
27967,NaN,2.238887,-1.153603,3.582416,-1.209766,-3.128137,-6.997260,-2.371607,3.494843,-0.804834,-0.677246,0.047607,-0.231201,0.022966,-0.011205,0.035560,0.999769,-0.011857,0.017473,-0.004024,-0.289133,-0.193300,0.623263,-0.700414
27968,NaN,3.456773,2.177835,0.168466,-4.032659,0.387286,-9.260975,-3.732859,3.815997,-0.941086,-0.669189,0.053955,-0.258789,0.034688,0.021633,0.000619,0.999633,-0.018662,0.019078,-0.004705,-0.307852,-0.177448,0.629663,-0.690843
27969,NaN,6.725815,5.745661,-5.076849,-7.840207,6.471682,-10.613131,-4.216128,4.150869,-1.100717,-0.658691,0.054199,-0.281982,0.066480,0.055983,-0.053344,0.999547,-0.021077,0.020751,-0.005503,-0.329328,-0.160758,0.636166,-0.678964
27970,NaN,13.127093,7.255293,-6.142522,-12.836404,9.673974,-7.746494,-3.452750,3.859636,-1.381462,-0.645752,0.049805,-0.303223,0.130529,0.070546,-0.065179,0.999641,-0.017262,0.019296,-0.006906,-0.348980,-0.146354,0.640179,-0.668554
27971,NaN,28.711919,10.834724,4.187984,-28.418906,5.368354,1.263605,-2.709587,3.619291,-1.613767,-0.643555,0.043457,-0.326416,0.288661,0.106529,0.035214,0.999712,-0.013547,0.018095,-0.008068,-0.368821,-0.135487,0.641159,-0.659189
27972,NaN,39.675594,15.132783,-1.435757,-36.473690,16.273569,4.663721,-2.588060,4.912398,-1.453778,-0.624756,0.045654,-0.355957,0.397297,0.148154,-0.026043,0.999588,-0.012939,0.024559,-0.007268,-0.390989,-0.119178,0.639368,-0.651254
27973,NaN,27.260358,3.186035,-3.063490,-18.575988,13.823927,5.225085,-2.766991,7.108304,-1.267484,-0.593018,0.041504,-0.402588,0.271468,0.029620,-0.040719,0.999253,-0.013832,0.035533,-0.006336,-0.420387,-0.095692,0.632705,-0.643275
27974,NaN,19.156553,-6.874308,-0.796252,-6.861718,8.031405,7.600217,-3.660765,5.825328,-1.042203,-0.578613,0.052490,-0.428223,0.190888,-0.069937,-0.012257,0.999395,-0.018300,0.029121,-0.005210,-0.443691,-0.072552,0.631344,-0.631886
27975,NaN,29.950975,-9.595458,-1.760185,-10.311336,13.964636,16.471058,-4.602154,4.014329,-0.972370,-0.562012,0.067383,-0.451660,0.298633,-0.097871,-0.021365,0.999522,-0.023007,0.020068,-0.004861,-0.462075,-0.053912,0.635772,-0.615933
27976,NaN,35.193639,-6.773351,-0.294822,-15.090848,16.619717,18.125027,-4.012811,3.601720,-0.939691,-0.554199,0.084717,-0.470703,0.351500,-0.069511,-0.007898,0.999626,-0.020062,0.018006,-0.004698,-0.477355,-0.036567,0.639310,-0.601729
27977,NaN,35.617861,-5.897847,-1.334417,-14.258414,18.749797,17.576311,-2.204929,4.470203,-0.530204,-0.531006,0.086914,-0.496338,0.355613,-0.060123,-0.020639,0.999686,-0.011023,0.022349,-0.002651,-0.494641,-0.020937,0.634480,-0.593571
27978,NaN,25.725749,-3.364587,4.999567,-13.773695,10.149812,10.318168,-1.754071,5.235372,0.165581,-0.512207,0.093506,-0.517578,0.258481,-0.033031,0.043531,0.999619,-0.008769,0.026174,0.000828,-0.510781,-0.000580,0.626510,-0.588717
27979,NaN,22.225687,0.424076,3.259933,-12.621913,11.513669,4.775184,-1.741572,4.946062,0.167088,-0.485107,0.108398,-0.541016,0.222968,0.004679,0.027051,0.999656,-0.008707,0.024727,0.000835,-0.526749,0.017352,0.618320,-0.583022
27980,NaN,21.499636,2.422329,5.669223,-14.523402,10.925974,3.219398,-1.900273,4.724794,-0.061497,-0.468506,0.121338,-0.562256,0.216259,0.024662,0.051360,0.999676,-0.009500,0.023621,-0.000307,-0.541228,0.035883,0.611220,-0.576364
27981,NaN,18.527489,6.632640,4.659263,-14.439520,11.894534,-2.138453,-3.392682,4.371605,0.050451,-0.447998,0.142822,-0.577393,0.186201,0.067105,0.041395,0.999617,-0.016961,0.021855,0.000252,-0.554797,0.056075,0.608435,-0.564680
27982,NaN,15.091454,6.089926,1.689265,-10.109562,11.850058,-4.810530,-3.234420,3.485936,0.015178,-0.423096,0.159912,-0.583984,0.151162,0.061145,0.013272,0.999717,-0.016171,0.017428,0.000076,-0.564324,0.074868,0.607722,-0.553721
27983,NaN,16.769572,8.552992,1.718407,-11.505478,14.444552,-5.781000,-2.734455,3.178127,0.119042,-0.413086,0.177246,-0.590332,0.167877,0.085830,0.013345,0.999780,-0.013671,0.015889,0.000595,-0.573712,0.089881,0.605667,-0.544008
27984,NaN,11.956942,5.760258,0.817578,-7.312799,10.728999,-6.948269,-2.583489,3.223463,0.372799,-0.394531,0.198730,-0.599121,0.119565,0.057908,0.005502,0.999785,-0.012917,0.016116,0.001864,-0.581204,0.107117,0.603153,-0.535662
27985,NaN,8.195686,1.598784,-0.644646,-2.608297,7.202546,-6.428323,-2.948490,2.959125,0.621944,-0.376221,0.218018,-0.605713,0.081797,0.016133,-0.007895,0.999777,-0.014741,0.014795,0.003109,-0.587975,0.123498,0.601556,-0.526464
27986,NaN,4.378813,-2.691049,-2.604037,2.252646,3.485212,-5.815802,-3.320678,2.134134,0.425777,-0.366211,0.239258,-0.607910,0.043568,-0.027250,-0.026055,0.999803,-0.016602,0.010670,0.002129,-0.591136,0.140082,0.603648,-0.516279
27987,NaN,0.774800,-5.932385,-3.571151,5.445896,-0.386627,-5.484251,-3.261231,1.270085,0.178458,-0.364746,0.267090,-0.597656,0.007578,-0.059889,-0.034786,0.999846,-0.016305,0.006350,0.000892,-0.593317,0.151611,0.607733,-0.505618
27988,NaN,-1.195845,-6.847141,-3.622527,6.245929,-2.470361,-5.773230,-2.936470,0.540634,0.013507,-0.358643,0.277832,-0.591309,-0.012050,-0.068994,-0.035182,0.999889,-0.014682,0.002703,0.000068,-0.592662,0.161660,0.613484,-0.496242
27989,NaN,-5.746676,-7.827649,-3.940360,7.903331,-6.502767,-7.560897,-2.509502,-0.137183,-0.154837,-0.363525,0.294922,-0.585205,-0.057501,-0.078718,-0.038457,0.999921,-0.012547,-0.000686,-0.000774,-0.591639,0.166559,0.619887,-0.487813
27990,NaN,-5.733704,-7.197774,-3.724726,7.381161,-6.371004,-7.945859,-1.657326,-0.787634,-0.339070,-0.370117,0.303467,-0.578857,-0.057314,-0.072187,-0.036875,0.999956,-0.008287,-0.003938,-0.001695,-0.588646,0.168429,0.626525,-0.482280
27991,NaN,-8.246965,-6.775815,-4.460758,8.524613,-7.819808,-9.872251,-0.332255,-1.134758,-0.469504,-0.382812,0.303467,-0.572510,-0.082374,-0.067639,-0.044963,0.999980,-0.001661,-0.005674,-0.002348,-0.586894,0.163747,0.630766,-0.480496
27992,NaN,-9.966457,-6.212780,-5.237854,9.551660,-8.440679,-11.509776,1.154551,-1.266684,-0.652813,-0.393066,0.292969,-0.574463,-0.099530,-0.061497,-0.053365,0.999958,0.005773,-0.006333,-0.003264,-0.585415,0.155196,0.632226,-0.483211
27993,NaN,-11.737417,-5.761442,-6.598319,11.226431,-8.718090,-13.340052,3.015174,-1.706673,-0.729323,-0.405273,0.273438,-0.572266,-0.117007,-0.056174,-0.067837,0.999843,0.015075,-0.008533,-0.003646,-0.584826,0.138722,0.630145,-0.491581
27994,NaN,-9.017818,-1.906765,-7.101195,9.507518,-4.182131,-15.054333,4.887621,-2.779372,-0.536013,-0.427734,0.241455,-0.571777,-0.089223,-0.017065,-0.072690,0.999601,0.024435,-0.013895,-0.002680,-0.580571,0.115802,0.626388,-0.507115
27995,NaN,-3.417514,3.887150,-5.301263,3.622893,2.054711,-15.939169,5.626159,-3.586577,-0.187917,-0.454346,0.213623,-0.565186,-0.033193,0.040385,-0.052492,0.999443,0.028126,-0.017930,-0.000939,-0.573354,0.088734,0.622108,-0.525712
27996,NaN,-3.076751,4.586139,-6.357225,3.673646,3.444770,-16.560269,5.948210,-4.538690,-0.254161,-0.476807,0.181396,-0.552246,-0.029276,0.047776,-0.062846,0.999300,0.029734,-0.022688,-0.001271,-0.562173,0.058851,0.619166,-0.545098
27997,NaN,-0.906074,2.122875,-5.392025,3.092227,3.657215,-13.195946,6.217479,-5.640881,-0.219955,-0.505615,0.153320,-0.532715,-0.007524,0.022904,-0.053452,0.999119,0.031078,-0.028196,-0.001099,-0.547105,0.024319,0.617524,-0.564579
27998,NaN,1.118674,-0.172893,-3.121733,1.739420,2.825585,-9.705965,6.037910,-5.466107,0.097802,-0.538574,0.123291,-0.509277,0.012035,-0.000786,-0.030929,0.999171,0.030181,-0.027323,0.000489,-0.530268,-0.007393,0.614907,-0.583653
27999,NaN,3.557705,-2.693146,-1.042565,0.767252,2.091621,-5.808592,5.750123,-4.611723,0.608110,-0.559082,0.101807,-0.483643,0.035898,-0.026524,-0.010367,0.999316,0.028744,-0.023053,0.003040,-0.514070,-0.035138,0.609983,-0.602012
28000,NaN,8.603165,0.584224,2.991180,-6.219794,2.625273,-3.671642,5.011507,-3.865339,0.880366,-0.577637,0.084717,-0.470703,0.085406,0.005440,0.031706,0.999490,0.025053,-0.019323,0.004401,-0.498525,-0.057003,0.604671,-0.618544
28001,NaN,15.109490,7.055879,8.174618,-16.741400,2.853207,-2.301029,3.261315,-3.774795,0.638599,-0.596436,0.078125,-0.449463,0.149279,0.069661,0.085716,0.999684,0.016305,-0.018872,0.003193,-0.484335,-0.075749,0.604037,-0.628347
28002,NaN,16.107280,6.941614,11.698576,-18.962254,-0.283803,-0.603036,0.580876,-2.385968,-0.025242,-0.600830,0.086670,-0.434814,0.159669,0.069052,0.119097,0.999925,0.002904,-0.011930,-0.000126,-0.476987,-0.084777,0.607926,-0.629064
28003,NaN,20.727144,6.351217,16.415337,-23.345062,-1.881859,3.999952,-3.916491,2.469474,-0.167476,-0.586426,0.099609,-0.458008,0.209322,0.066502,0.160294,0.999732,-0.019581,0.012346,-0.000837,-0.487010,-0.069088,0.614034,-0.617260
28004,NaN,11.669054,3.348753,13.771586,-15.479051,-3.885139,-0.747763,-3.382125,7.106933,-1.758243,-0.558838,0.097656,-0.498291,0.121772,0.034706,0.132868,0.999187,-0.016906,0.035525,-0.008789,-0.515055,-0.044322,0.606054,-0.604526
28005,NaN,-7.916201,1.907322,7.414072,-2.139934,-9.799563,-14.353518,1.917629,5.884772,-3.206795,-0.547607,0.067627,-0.519287,-0.076620,0.019589,0.076607,0.999393,0.009586,0.029418,-0.016031,-0.542470,-0.042097,0.583704,-0.602697
28006,NaN,-21.367172,-9.068878,-15.361900,23.632628,-3.744664,-24.026406,7.607981,2.299831,-1.935158,-0.550049,0.011963,-0.514648,-0.216271,-0.082740,-0.154390,0.999164,0.038029,0.011496,-0.009673,-0.552990,-0.061463,0.553646,-0.619597
28007,NaN,8.457578,-22.656854,-29.968854,29.009457,24.210401,-2.471352,10.770815,-2.736711,0.963905,-0.561768,-0.018066,-0.486816,0.089811,-0.209626,-0.310080,0.998445,0.053826,-0.013676,0.004817,-0.538728,-0.097699,0.527027,-0.649976
28008,NaN,45.391147,-12.332357,8.749813,-13.249951,18.369319,32.324665,2.631911,-2.860426,5.099048,-0.582275,0.031006,-0.474609,0.455580,-0.112917,0.092475,0.999486,0.013157,-0.014300,0.025491,-0.513100,-0.100649,0.528389,-0.668883
28009,NaN,67.045662,13.797780,35.571336,-57.586422,13.525658,39.647596,-11.304439,4.158290,3.961856,-0.554199,0.082764,-0.510986,0.674371,0.170563,0.332682,0.997991,-0.056484,0.020778,0.019796,-0.515727,-0.048017,0.556522,-0.649618
28010,NaN,14.776087,35.816812,-14.881185,-24.976934,25.931164,-30.459821,1.340159,5.174920,-0.199902,-0.541260,0.067627,-0.530029,0.144245,0.359026,-0.150171,0.999642,0.006700,0.025872,-0.000999,-0.530307,-0.035258,0.538573,-0.653813
28011,NaN,-13.141986,0.767918,-24.005108,17.550295,9.190678,-28.707965,1.557207,1.419385,-1.001238,-0.547363,0.061279,-0.527832,-0.133072,0.010206,-0.239038,0.999932,0.007786,0.007097,-0.005006,-0.537542,-0.038774,0.529467,-0.655141
28012,NaN,-6.756914,-16.027402,4.615968,12.563235,-9.950753,-1.629305,1.876214,-2.641224,0.304816,-0.566406,0.061279,-0.504395,-0.067913,-0.160795,0.043757,0.999868,0.009381,-0.013206,0.001524,-0.529156,-0.051708,0.530402,-0.660298
28013,NaN,6.271698,-5.934295,-8.144677,5.582579,9.527513,-5.461582,1.943912,-4.043152,0.439535,-0.585205,0.050537,-0.487305,0.064483,-0.058416,-0.080726,0.999746,0.009719,-0.020214,0.002197,-0.516608,-0.070159,0.534759,-0.665001
28014,NaN,9.748520,0.773833,-11.025971,-0.303053,14.677613,-8.531366,2.752781,-3.753454,0.813835,-0.606201,0.046143,-0.461914,0.099493,0.009640,-0.108281,0.999721,0.013763,-0.018766,0.004069,-0.502798,-0.087605,0.535428,-0.672931
28015,NaN,14.920435,2.990762,-6.433548,-7.137743,13.882695,-4.408598,3.096018,-4.723312,1.531834,-0.631592,0.052490,-0.434326,0.150421,0.032011,-0.060308,0.999572,0.015478,-0.023613,0.007658,-0.483518,-0.108308,0.537602,-0.682249
28016,NaN,27.361861,4.800472,-2.769922,-17.127240,16.709397,4.560120,1.783322,-5.981686,1.450314,-0.646484,0.056641,-0.392090,0.273916,0.050186,-0.019068,0.999487,0.008915,-0.029903,0.007250,-0.461323,-0.129120,0.546476,-0.686931
28017,NaN,28.455474,11.725282,-2.196431,-24.076836,15.529691,1.631898,-0.959029,-5.455598,0.830496,-0.672119,0.065186,-0.366699,0.284533,0.118352,-0.014768,0.999608,-0.004795,-0.027274,0.004152,-0.444055,-0.144622,0.563025,-0.681838
28018,NaN,23.227658,10.987805,-0.488194,-21.575711,10.500340,-0.614390,-0.803317,-5.483855,0.070989,-0.688965,0.069336,-0.332764,0.232263,0.109957,0.001046,0.999616,-0.004016,-0.027416,0.000355,-0.428827,-0.161331,0.577757,-0.675483
28019,NaN,21.627890,6.855062,-5.963762,-16.410501,13.725397,-0.193738,-0.122650,-5.141013,0.676385,-0.695557,0.075684,-0.298828,0.217484,0.069251,-0.054099,0.999664,-0.000613,-0.025702,0.003382,-0.411795,-0.177871,0.589864,-0.671451
28020,NaN,26.342583,-1.961972,-0.552979,-14.337347,8.922609,10.504463,-0.740691,-4.589900,0.718661,-0.704102,0.083984,-0.269287,0.263527,-0.018678,0.000588,0.999723,-0.003703,-0.022947,0.003593,-0.396431,-0.189643,0.602258,-0.666456
28021,NaN,28.956694,-2.892747,6.395385,-17.127607,1.799835,14.498526,-0.656621,-4.058542,0.791882,-0.717041,0.092529,-0.239746,0.288299,-0.027561,0.069905,0.999781,-0.003283,-0.020291,0.003959,-0.382297,-0.200963,0.613438,-0.661178
28022,NaN,24.076907,-2.204129,9.152328,-15.348127,-3.065546,10.761777,0.732273,-3.012727,0.964578,-0.725830,0.105469,-0.229248,0.239459,-0.021228,0.095058,0.999868,0.003661,-0.015063,0.004823,-0.369120,-0.209396,0.617644,-0.662133
28023,NaN,19.307445,0.834848,10.380608,-14.760385,-5.967216,5.277766,2.079804,-2.764278,1.394414,-0.731934,0.103271,-0.208008,0.191555,0.008589,0.106549,0.999826,0.010398,-0.013821,0.006972,-0.354065,-0.219536,0.617455,-0.667226
28024,NaN,15.606380,1.876164,12.906684,-13.335662,-9.749467,2.050568,1.948521,-2.870108,1.393816,-0.736572,0.118164,-0.189209,0.154059,0.018567,0.131469,0.999825,0.009742,-0.014350,0.006969,-0.338393,-0.228278,0.617436,-0.672422
28025,NaN,12.040864,0.954579,12.231510,-9.921185,-10.191044,-0.158932,2.068560,-2.745536,1.251633,-0.743164,0.124512,-0.176514,0.118656,0.009015,0.124047,0.999833,0.010342,-0.013727,0.006258,-0.323824,-0.238502,0.616572,-0.676826
28026,NaN,9.274172,1.671961,7.532366,-7.987576,-6.311591,-3.340104,2.389238,-2.530974,1.223180,-0.747559,0.135254,-0.161865,0.091676,0.016372,0.076685,0.999830,0.011946,-0.012654,0.006116,-0.309017,-0.247182,0.613915,-0.683021
28027,NaN,6.595306,3.985231,3.247000,-7.516054,-2.783278,-7.429469,2.028114,-2.286975,1.166605,-0.753906,0.133057,-0.151123,0.065340,0.039898,0.033624,0.999866,0.010140,-0.011434,0.005833,-0.296132,-0.255801,0.611913,-0.687338
28028,NaN,3.814986,4.892432,0.906485,-6.164704,-0.992225,-10.379417,1.734866,-1.805050,1.126228,-0.760498,0.141602,-0.142822,0.037787,0.049055,0.009832,0.999906,0.008674,-0.009025,0.005631,-0.284533,-0.261162,0.609981,-0.691924
28029,NaN,2.301032,5.939473,0.671582,-5.819967,-1.119269,-12.240923,1.660556,-1.579583,1.075160,-0.762451,0.143555,-0.127930,0.022634,0.059458,0.007389,0.999920,0.008303,-0.007898,0.005376,-0.274517,-0.266930,0.607852,-0.695633
28030,NaN,0.174545,7.578991,1.883304,-5.359625,-2.744018,-14.788776,1.234122,-1.645275,0.975675,-0.758545,0.154297,-0.119629,0.001219,0.075679,0.019312,0.999935,0.006170,-0.008226,0.004878,-0.264500,-0.271423,0.607053,-0.698467
28031,NaN,1.816159,9.218210,1.399364,-7.632116,-2.501371,-14.884576,0.912023,-1.554060,0.882834,-0.762939,0.160645,-0.111084,0.017643,0.092195,0.014552,0.999950,0.004560,-0.007770,0.004414,-0.256199,-0.276553,0.607087,-0.699518
28032,NaN,0.823326,9.365412,0.553257,-7.018515,-1.789759,-15.831932,0.495712,-0.833364,0.837183,-0.769531,0.165039,-0.111084,0.007817,0.093673,0.005798,0.999979,0.002479,-0.004167,0.004186,-0.250093,-0.277615,0.607537,-0.700915
28033,NaN,-0.266690,8.378117,1.639794,-5.427603,-2.755742,-15.804309,-0.270084,-0.420759,0.681859,-0.771729,0.171387,-0.111084,-0.002987,0.083793,0.016279,0.999991,-0.001350,-0.002104,0.003409,-0.247617,-0.277833,0.609910,-0.699646
28034,NaN,2.656028,6.716982,4.501278,-6.142796,-5.312977,-12.356639,-0.801469,0.017620,0.384492,-0.769775,0.175781,-0.104980,0.026435,0.067400,0.044741,0.999990,-0.004007,0.000088,0.001922,-0.247479,-0.275664,0.613190,-0.697683
28036,NaN,1.972260,1.390327,6.511005,-3.897804,-13.184090,-7.853832,-0.935395,1.115036,0.265915,-0.772217,0.186523,-0.126221,0.040816,0.029127,0.129502,0.999891,-0.009354,0.011150,0.002659,-0.255915,-0.265009,0.617507,-0.694955
28037,NaN,2.690103,-1.057463,5.210979,-1.014647,-4.975264,-6.694111,-1.000555,1.618476,0.009745,-0.776611,0.182373,-0.143066,0.027322,-0.010313,0.051942,0.999955,-0.005003,0.008092,0.000049,-0.262234,-0.258124,0.618869,-0.693979
28038,NaN,3.188317,-3.389346,2.525151,0.069384,-2.021771,-4.920171,-0.810972,2.222501,-0.330210,-0.778564,0.180176,-0.155762,0.032106,-0.033845,0.025033,0.999929,-0.004055,0.011112,-0.001651,-0.272271,-0.251342,0.618066,-0.693318
28039,NaN,2.647507,-3.348764,1.964932,0.391561,-1.455529,-5.361594,-0.915476,3.073312,-0.562155,-0.778564,0.176025,-0.174561,0.026680,-0.033473,0.019394,0.999868,-0.004577,0.015366,-0.002811,-0.284874,-0.241208,0.616240,-0.693480
28040,NaN,1.430556,1.716393,2.965078,-2.326572,-2.889820,-9.677090,-2.154061,3.256271,-0.689000,-0.771973,0.167480,-0.189453,0.014843,0.017430,0.029225,0.999804,-0.010770,0.016280,-0.003445,-0.300785,-0.229841,0.617842,-0.689182
28041,NaN,2.081556,2.511066,0.122778,-3.244759,0.089020,-10.151752,-3.337162,3.390036,-0.817015,-0.774414,0.173828,-0.214844,0.020930,0.025037,0.000455,0.999709,-0.016684,0.016949,-0.004085,-0.317862,-0.215662,0.623098,-0.681324
28042,NaN,3.915327,6.676275,-4.074544,-6.909859,4.716555,-12.361104,-4.021116,3.587523,-0.939344,-0.765869,0.167480,-0.238037,0.038708,0.065734,-0.042771,0.999626,-0.020103,0.017935,-0.004696,-0.337401,-0.200743,0.629511,-0.670506
28043,NaN,9.568234,9.220517,-10.155236,-11.227727,12.338696,-10.966434,-3.486577,3.663833,-1.146287,-0.763916,0.169678,-0.252930,0.094301,0.089853,-0.104869,0.999664,-0.017431,0.018317,-0.005731,-0.356203,-0.186184,0.633633,-0.661032
28044,NaN,21.552501,8.344209,-1.447016,-19.956985,7.401439,-0.697863,-2.835136,3.326966,-1.503592,-0.757568,0.167725,-0.280273,0.215850,0.081570,-0.019224,0.999733,-0.014174,0.016633,-0.007517,-0.375163,-0.175760,0.635180,-0.651849
28045,NaN,40.297569,17.963619,-2.069154,-38.283776,15.255766,6.064345,-3.113176,3.675847,-1.750519,-0.753174,0.161377,-0.305664,0.404020,0.175675,-0.030867,0.999672,-0.015564,0.018377,-0.008752,-0.395195,-0.163509,0.636663,-0.641674
28046,NaN,35.574885,7.578331,-5.767995,-25.537254,18.008437,9.663831,-3.520423,5.669025,-1.498826,-0.736328,0.157227,-0.345947,0.354448,0.071975,-0.069030,0.999415,-0.017599,0.028340,-0.007493,-0.421745,-0.144141,0.634724,-0.631252
28047,NaN,19.275070,-8.621711,-2.295039,-4.303261,7.810165,9.462521,-3.556441,6.294474,-0.986837,-0.719727,0.165771,-0.379883,0.191504,-0.087626,-0.027441,0.999335,-0.017778,0.031465,-0.004933,-0.447154,-0.119883,0.631526,-0.621978
28048,NaN,26.448118,-10.864453,-0.609965,-6.768548,9.298023,16.371195,-4.238083,4.223907,-1.277009,-0.705078,0.168213,-0.411621,0.263605,-0.110505,-0.009345,0.999532,-0.021187,0.021116,-0.006384,-0.467833,-0.102466,0.633748,-0.607450
28049,NaN,35.997741,-9.087749,0.447935,-12.931556,13.488499,22.271188,-4.242180,3.485151,-1.457729,-0.697021,0.178955,-0.428711,0.359330,-0.093464,0.000178,0.999597,-0.021208,0.017423,-0.007288,-0.485327,-0.086606,0.637464,-0.592112
28050,NaN,38.197791,-6.771920,-1.556039,-13.440259,17.597230,22.074928,-2.894641,4.554621,-1.384123,-0.677979,0.181152,-0.460449,0.381025,-0.070658,-0.023237,0.999612,-0.014471,0.022770,-0.006920,-0.506003,-0.071762,0.633685,-0.580736
28051,NaN,29.742907,-6.154953,0.769456,-9.964369,12.814821,15.866142,-1.605120,5.587620,-0.541020,-0.663330,0.181152,-0.496582,0.297331,-0.062334,-0.000116,0.999574,-0.008024,0.027934,-0.002705,-0.525675,-0.053231,0.623737,-0.576008
28052,NaN,22.227219,-2.324253,4.212813,-10.462259,8.380966,8.556008,-1.918901,4.795362,-0.024733,-0.638428,0.198486,-0.524170,0.223198,-0.022899,0.037004,0.999667,-0.009593,0.023974,-0.000124,-0.541977,-0.035866,0.616029,-0.570511
28053,NaN,20.600777,0.882139,3.369443,-10.873783,10.078895,4.904897,-2.057824,4.950051,0.104766,-0.615723,0.211426,-0.549805,0.206751,0.009241,0.028489,0.999641,-0.010288,0.024747,0.000524,-0.557137,-0.015905,0.608277,-0.565105
28054,NaN,18.762136,2.827874,3.559402,-11.017782,10.319069,2.218064,-2.733911,4.375183,0.106255,-0.601318,0.228516,-0.579590,0.188319,0.028824,0.031088,0.999667,-0.013668,0.021873,0.000531,-0.571110,0.002918,0.603191,-0.556763
28055,NaN,17.018698,5.818599,3.471135,-11.769261,11.139809,-1.276870,-3.718475,3.935515,0.435355,-0.572266,0.250000,-0.590332,0.170684,0.059147,0.030262,0.999631,-0.018590,0.019675,0.002177,-0.581541,0.025733,0.602074,-0.546493
28056,NaN,15.979790,6.706417,0.666928,-9.423490,13.149702,-3.566644,-3.391621,3.142059,0.214614,-0.556396,0.278076,-0.603271,0.159792,0.067307,0.003019,0.999732,-0.016957,0.015709,0.001073,-0.590775,0.043282,0.601590,-0.535912
28058,NaN,12.569922,6.941763,-0.250450,-14.312419,24.017544,-3.263181,-2.722094,3.017625,0.166698,-0.521484,0.320801,-0.633301,0.250787,0.138911,-0.016366,0.999173,-0.027213,0.030168,0.001667,-0.606403,0.076424,0.597784,-0.518738
28059,NaN,5.859477,-0.190969,-1.051073,-0.462420,4.704137,-6.189101,-2.586563,2.380685,0.182955,-0.511475,0.338135,-0.637695,0.058466,-0.001998,-0.011182,0.999845,-0.012932,0.011903,0.000915,-0.612922,0.089294,0.596745,-0.510146
28060,NaN,1.732463,-4.845851,-1.974318,3.712423,-0.042332,-5.738793,-2.626271,1.727768,-0.066371,-0.501465,0.355225,-0.646484,0.017141,-0.048719,-0.019253,0.999876,-0.013131,0.008638,-0.000332,-0.617036,0.101471,0.598111,-0.501231
28061,NaN,-1.577727,-6.431109,-2.653558,5.727027,-3.050354,-6.849012,-2.422876,0.935205,-0.302935,-0.506104,0.374512,-0.638184,-0.015996,-0.064602,-0.025680,0.999915,-0.012114,0.004676,-0.001515,-0.620214,0.108799,0.601072,-0.492148
28062,NaN,-5.325806,-6.689055,-2.775418,6.623163,-6.028712,-9.040199,-2.094447,0.263305,-0.513936,-0.500244,0.387451,-0.635986,-0.053466,-0.067039,-0.026982,0.999941,-0.010472,0.001317,-0.002570,-0.621131,0.114320,0.605662,-0.484046
28063,NaN,-7.439314,-6.516557,-3.404935,7.431422,-7.307807,-10.691242,-1.613254,-0.402065,-0.701333,-0.504883,0.398193,-0.636230,-0.074554,-0.065177,-0.033673,0.999959,-0.008066,-0.002010,-0.003507,-0.621490,0.114847,0.610884,-0.476846
28064,NaN,-8.707766,-5.524496,-4.496669,8.162527,-7.259252,-12.503693,-0.848033,-0.856732,-0.834067,-0.515625,0.402344,-0.631836,-0.087115,-0.055073,-0.045106,0.999973,-0.004240,-0.004284,-0.004170,-0.620394,0.112817,0.616040,-0.472101
28065,NaN,-10.554380,-5.880353,-5.330317,9.456322,-8.332159,-13.754265,0.373475,-1.090851,-0.982815,-0.525879,0.391602,-0.635986,-0.105538,-0.058185,-0.053988,0.999971,0.001867,-0.005454,-0.004914,-0.620276,0.104877,0.618788,-0.470490
28066,NaN,-12.297131,-5.956405,-6.351429,10.848278,-8.925989,-15.259242,2.245861,-1.638584,-1.011959,-0.542236,0.370117,-0.640137,-0.122739,-0.058217,-0.065179,0.999891,0.011229,-0.008193,-0.005060,-0.618732,0.090842,0.619058,-0.475065
28067,NaN,-9.854287,-1.383070,-6.483151,8.353546,-4.315921,-17.066765,4.089671,-2.716319,-0.737674,-0.560547,0.346680,-0.641846,-0.097695,-0.012122,-0.066422,0.999692,0.020446,-0.013580,-0.003688,-0.614341,0.068447,0.617638,-0.486233
28068,NaN,-4.876463,4.212129,-5.462736,3.381178,1.810216,-17.338873,4.937476,-3.459996,-0.415138,-0.584961,0.310303,-0.641602,-0.047733,0.043566,-0.054395,0.999544,0.024684,-0.017297,-0.002075,-0.606112,0.043486,0.616128,-0.501123
28069,NaN,-3.751629,4.906849,-6.261201,3.015779,3.650132,-17.223238,5.539350,-4.631407,-0.438902,-0.619873,0.269531,-0.630615,-0.035964,0.050873,-0.062064,0.999346,0.027691,-0.023152,-0.002194,-0.594236,0.012815,0.615799,-0.517214
28070,NaN,-1.394550,1.043510,-5.665268,3.851602,3.314089,-12.860882,6.199910,-5.699562,-0.321514,-0.644287,0.235107,-0.613281,-0.012312,0.012212,-0.056659,0.999112,0.030990,-0.028489,-0.001607,-0.577431,-0.021410,0.616172,-0.535207
28071,NaN,1.202466,-2.537671,-3.625649,3.653418,2.247274,-8.192546,6.140788,-5.818282,0.015207,-0.687744,0.198730,-0.587402,0.013089,-0.024254,-0.036642,0.999106,0.030695,-0.029083,0.000076,-0.558663,-0.055522,0.615907,-0.552695
28072,NaN,3.863760,-5.641464,-2.520989,3.969700,1.964719,-4.026072,5.905529,-5.042546,0.733819,-0.705811,0.170654,-0.563965,0.039489,-0.055513,-0.025870,0.999240,0.029520,-0.025206,0.003668,-0.539087,-0.083717,0.613401,-0.571066
28073,NaN,8.836672,-4.598146,-0.724764,0.037245,3.537124,-0.472552,5.619939,-4.763553,1.046538,-0.732666,0.146973,-0.544678,0.088765,-0.045329,-0.006416,0.999308,0.028093,-0.023812,0.005231,-0.519030,-0.110040,0.610206,-0.588343
28074,NaN,15.253635,5.063215,6.924789,-14.003593,2.449640,0.389212,4.436020,-4.495283,0.855902,-0.757324,0.125488,-0.520996,0.150698,0.049677,0.073758,0.999492,0.022176,-0.022473,0.004279,-0.500139,-0.132178,0.608970,-0.601287
28075,NaN,20.620754,7.376808,12.784721,-20.954344,-0.593493,4.455999,1.484963,-2.702681,0.253369,-0.763672,0.123291,-0.508301,0.204357,0.073062,0.131161,0.999880,0.007425,-0.013513,0.001267,-0.490378,-0.144083,0.611353,-0.604166
28076,NaN,23.497033,4.949282,14.558370,-21.378431,-1.584147,8.324453,-3.502409,1.286249,0.299485,-0.751953,0.157715,-0.529785,0.235819,0.052367,0.143169,0.999825,-0.017511,0.006431,0.001497,-0.495887,-0.130744,0.618870,-0.594981
28077,NaN,19.556982,5.144654,15.013303,-20.127879,-2.341928,5.133933,-5.902088,6.308877,-0.672521,-0.720703,0.168701,-0.578613,0.200322,0.055055,0.142273,0.999062,-0.029501,0.031535,-0.003362,-0.521280,-0.100192,0.619586,-0.578223
28078,NaN,2.349400,1.050661,10.234124,-7.374191,-6.645311,-6.240446,-1.940860,7.709440,-3.281810,-0.696533,0.136719,-0.618652,0.027590,0.011062,0.101225,0.999075,-0.009701,0.038535,-0.016404,-0.555174,-0.082998,0.602878,-0.566950
28079,NaN,-17.014220,-4.294766,-4.854797,11.772413,-6.905782,-21.859012,4.804387,4.823100,-3.623713,-0.675781,0.076660,-0.643555,-0.171989,-0.038726,-0.045379,0.999257,0.024016,0.024110,-0.018114,-0.578140,-0.094380,0.573575,-0.572590
28080,NaN,-10.717776,-22.038947,-25.335875,33.984956,7.520334,-15.290342,9.999868,-0.151131,-0.215941,-0.686768,0.020996,-0.641113,-0.107209,-0.207247,-0.264024,0.998749,0.049978,-0.000755,-0.001079,-0.572927,-0.124280,0.544563,-0.599800
28081,NaN,29.541495,-13.476737,-10.238275,6.109185,21.541475,15.830215,5.474277,-1.273514,3.231981,-0.703857,0.027344,-0.626221,0.298170,-0.127130,-0.104040,0.999475,0.027367,-0.006366,0.016157,-0.556372,-0.135663,0.533381,-0.622535
28082,NaN,43.905060,1.014581,34.967495,-32.432154,-3.953384,35.823022,-6.315150,-0.406539,4.014638,-0.691162,0.091553,-0.641602,0.437870,0.029991,0.349828,0.999298,-0.031568,-0.002032,0.020068,-0.546736,-0.108635,0.556497,-0.616109
28083,NaN,28.634444,29.130460,-13.020325,-27.433483,32.935009,-10.466856,-0.571669,4.515014,1.910531,-0.671875,0.083252,-0.671143,0.280499,0.293617,-0.137417,0.999695,-0.002858,0.022573,0.009552,-0.553929,-0.088683,0.546646,-0.621672
28084,NaN,2.030807,16.572780,-26.049170,-1.233908,24.690176,-28.416516,3.377099,2.602040,-0.665064,-0.664795,0.061768,-0.677490,0.017502,0.170036,-0.257885,0.999767,0.016884,0.013009,-0.003325,-0.561529,-0.091816,0.528509,-0.630026
28085,NaN,-2.967286,-6.940599,-5.637770,9.306789,1.318692,-10.446733,1.721052,-1.652006,0.014871,-0.681641,0.055420,-0.666748,-0.029197,-0.068918,-0.057215,0.999929,0.008605,-0.008260,0.000074,-0.556544,-0.103009,0.527728,-0.633365
28086,NaN,10.086216,-6.862127,2.951795,0.525789,2.345439,2.505844,1.041483,-4.025262,0.830048,-0.709229,0.063721,-0.632812,0.100530,-0.068363,0.031187,0.999775,0.005207,-0.020125,0.004150,-0.542684,-0.116509,0.535925,-0.636164
28087,NaN,8.892100,2.288588,-9.379894,-1.420941,12.943813,-8.167280,1.234639,-3.554951,0.555698,-0.729980,0.048828,-0.619873,0.090503,0.023708,-0.092055,0.999819,0.006173,-0.017774,0.002778,-0.530757,-0.130786,0.541965,-0.638331
28088,NaN,13.737397,1.781732,-5.957329,-4.822842,12.396367,-2.712762,1.359575,-4.373256,1.073039,-0.755371,0.052979,-0.583984,0.138531,0.018949,-0.056426,0.999723,0.006797,-0.021864,0.005365,-0.514497,-0.145477,0.549765,-0.641785
28089,NaN,21.538618,2.033714,0.385322,-11.319806,10.280555,5.493645,0.652545,-4.383000,1.481974,-0.774902,0.067871,-0.554443,0.215073,0.021909,0.008639,0.999727,0.003262,-0.021913,0.007409,-0.497177,-0.158304,0.560071,-0.643487
28090,NaN,22.355270,2.012983,-2.919326,-11.125447,12.704565,5.255255,-0.625840,-4.980963,1.285459,-0.804688,0.078369,-0.516357,0.224053,0.021489,-0.023683,0.999664,-0.003129,-0.024902,0.006427,-0.479473,-0.169193,0.575275,-0.640733
28091,NaN,20.830757,8.893555,-0.063877,-17.434409,9.383582,1.183726,-0.464037,-5.089437,0.688642,-0.823975,0.082520,-0.476074,0.207930,0.089658,0.004449,0.999668,-0.002320,-0.025444,0.003443,-0.462965,-0.183619,0.589575,-0.635884
28092,NaN,22.896944,7.315462,-3.669737,-16.547604,12.314223,3.058968,0.353285,-4.834334,0.584833,-0.843018,0.086914,-0.448486,0.229550,0.073883,-0.031023,0.999702,0.001766,-0.024169,0.002924,-0.446442,-0.198102,0.599979,-0.633616
28093,NaN,24.012865,5.744399,-3.978923,-16.306163,11.699870,5.105060,0.148362,-5.074653,0.761763,-0.859863,0.093018,-0.406250,0.240813,0.058387,-0.033641,0.999671,0.000742,-0.025370,0.003808,-0.428665,-0.213507,0.611605,-0.629762
28094,NaN,28.059393,0.441623,4.091790,-16.792695,3.364016,12.788597,-0.558836,-4.458988,0.811795,-0.877197,0.105957,-0.372559,0.279568,0.005678,0.047144,0.999739,-0.002794,-0.022293,0.004059,-0.413007,-0.223887,0.623602,-0.624836
28095,NaN,26.773960,0.146276,7.586148,-16.923867,-1.567332,12.219827,0.430327,-4.075542,0.845663,-0.883789,0.114258,-0.349365,0.266111,0.002419,0.081300,0.999781,0.002151,-0.020376,0.004228,-0.397316,-0.236202,0.631668,-0.622370
28096,NaN,21.704056,1.028907,9.683646,-15.253605,-5.430917,7.613725,2.005189,-3.173087,1.087662,-0.902832,0.120850,-0.330322,0.215410,0.010469,0.100367,0.999809,0.010025,-0.015864,0.005438,-0.381513,-0.246657,0.632867,-0.626967
28097,NaN,17.824994,2.890047,11.424248,-14.608311,-8.360874,3.349522,2.846814,-3.042276,1.436155,-0.906982,0.118652,-0.315430,0.176275,0.028515,0.117342,0.999757,0.014233,-0.015210,0.007180,-0.364152,-0.258338,0.631473,-0.633953
28098,NaN,14.857399,3.345753,11.434335,-12.980231,-9.339026,0.528887,2.351361,-2.613957,1.337374,-0.913574,0.125000,-0.296387,0.146837,0.033081,0.116661,0.999823,0.011756,-0.013069,0.006686,-0.348606,-0.266715,0.630364,-0.640296
28099,NaN,10.314321,1.791642,8.015824,-8.438555,-6.934442,-2.427522,1.876529,-2.626886,1.203784,-0.926514,0.137695,-0.279541,0.101970,0.017771,0.081670,0.999852,0.009382,-0.013134,0.006019,-0.334458,-0.275779,0.630462,-0.643896
28100,NaN,8.861164,2.405221,4.721422,-7.688773,-4.047505,-4.236716,1.764201,-2.205017,1.094595,-0.930664,0.133301,-0.266846,0.087951,0.024111,0.048399,0.999885,0.008821,-0.011025,0.005473,-0.321561,-0.282425,0.629872,-0.648148
28101,NaN,5.530972,4.064472,1.441720,-6.690912,-1.185218,-8.076457,1.611308,-1.719439,1.005246,-0.937256,0.146240,-0.258301,0.054976,0.040801,0.015219,0.999918,0.008056,-0.008597,0.005026,-0.311206,-0.288530,0.628755,-0.651589
28102,NaN,2.855383,5.087129,-0.295746,-5.729753,0.280857,-10.912392,1.331589,-1.549932,0.915624,-0.937744,0.156982,-0.247803,0.028341,0.051019,-0.002398,0.999937,0.006658,-0.007749,0.004578,-0.301459,-0.292834,0.628073,-0.654900
28103,NaN,1.928244,6.796596,1.177185,-6.409195,-1.370412,-12.700688,1.001551,-1.579360,0.809597,-0.952393,0.150391,-0.241455,0.018912,0.067982,0.012263,0.999948,0.005008,-0.007897,0.004048,-0.293003,-0.298041,0.628296,-0.656174
28104,NaN,1.447489,8.163739,2.399195,-7.050309,-2.733053,-13.974470,0.555742,-1.490302,0.727519,-0.946289,0.161133,-0.230957,0.013998,0.081622,0.024324,0.999962,0.002779,-0.007451,0.003638,-0.285145,-0.301527,0.629678,-0.656719
28105,NaN,2.342085,8.640749,2.005089,-7.967817,-2.407583,-13.670815,0.037096,-0.939614,0.681609,-0.956787,0.163330,-0.230957,0.023032,0.086483,0.020176,0.999983,0.000185,-0.004698,0.003408,-0.280567,-0.303542,0.631858,-0.655667
28106,NaN,1.299899,7.735149,1.663806,-6.586304,-2.005187,-13.922431,-0.520763,-0.324771,0.597140,-0.957275,0.174072,-0.233154,0.012741,0.077433,0.016457,0.999991,-0.002604,-0.001624,0.002986,-0.278422,-0.302068,0.634882,-0.654340
28107,NaN,2.936966,6.353511,3.159845,-6.580933,-3.426665,-11.794177,-0.968567,0.052095,0.297533,-0.952881,0.171875,-0.235352,0.029283,0.063731,0.031282,0.999987,-0.004843,0.000260,0.001488,-0.279806,-0.300580,0.638326,-0.651076
28108,NaN,3.505100,4.155670,4.884143,-5.299110,-5.031486,-9.926378,-1.105261,0.809280,0.023943,-0.955078,0.176270,-0.248047,0.035243,0.041829,0.048468,0.999977,-0.005526,0.004046,0.000120,-0.284015,-0.296397,0.640774,-0.648763
28109,NaN,2.077374,0.795683,5.566425,-1.907839,-5.584226,-8.759485,-1.226378,1.413706,-0.076083,-0.957520,0.178467,-0.264893,0.021169,0.008289,0.055465,0.999956,-0.006132,0.007068,-0.000380,-0.291383,-0.291219,0.642450,-0.646178
28110,NaN,2.265535,-0.650971,5.230003,-1.049833,-5.206611,-7.645344,-1.308393,1.658580,-0.188587,-0.946777,0.169922,-0.281738,0.023082,-0.006190,0.052151,0.999944,-0.006542,0.008293,-0.000943,-0.299259,-0.284626,0.643912,-0.644057
28111,NaN,2.301729,-2.326990,3.864430,0.129039,-3.832379,-6.504771,-1.362874,2.035904,-0.414237,-0.953125,0.167725,-0.309326,0.023362,-0.023055,0.038565,0.999923,-0.006814,0.010179,-0.002071,-0.309868,-0.278176,0.644405,-0.641360
28113,NaN,1.942499,-2.751260,2.729014,1.291017,-5.364076,-3.125770,-1.071757,2.890964,-0.683406,-0.931641,0.157227,-0.357910,0.040043,-0.054715,0.054022,0.999501,-0.010716,0.028905,-0.006833,-0.335754,-0.260665,0.640062,-0.640035
28114,NaN,2.338386,2.112514,1.255300,-3.241877,-0.861369,-9.309534,-2.447608,3.244726,-0.853945,-0.927490,0.148682,-0.385254,0.023671,0.021173,0.011912,0.999784,-0.012237,0.016222,-0.004269,-0.352778,-0.249600,0.640919,-0.634406
28115,NaN,2.895175,2.865609,-1.350360,-3.782327,1.998410,-9.475011,-3.307689,3.391930,-0.927969,-0.912598,0.150879,-0.408691,0.028844,0.028288,-0.014463,0.999709,-0.016537,0.016958,-0.004639,-0.370665,-0.235993,0.644050,-0.626191
28116,NaN,5.468281,6.264952,-1.513647,-7.804275,3.235333,-9.588707,-4.169083,3.594098,-0.983213,-0.895996,0.153320,-0.442627,0.054689,0.062033,-0.017417,0.999609,-0.020843,0.017968,-0.004915,-0.390869,-0.220804,0.648714,-0.614522
28117,NaN,10.555838,7.459914,-6.631202,-10.160348,9.882335,-6.635469,-4.122354,4.083276,-1.075992,-0.887695,0.155518,-0.465820,0.104549,0.072618,-0.069964,0.999565,-0.020609,0.020413,-0.005379,-0.411847,-0.203683,0.651900,-0.603260
28118,NaN,19.725054,6.254105,-3.622392,-14.784263,9.614002,1.598812,-3.192532,3.857741,-1.196850,-0.872803,0.157715,-0.493408,0.196857,0.060733,-0.041003,0.999669,-0.015961,0.019287,-0.005984,-0.431914,-0.190062,0.651812,-0.593690
28119,NaN,43.594851,13.422875,-0.007305,-33.886160,15.419815,16.536901,-3.200590,3.473343,-1.234520,-0.851807,0.157715,-0.523193,0.436652,0.131430,-0.009771,0.999702,-0.016001,0.017365,-0.006172,-0.449858,-0.176895,0.652419,-0.583684
28120,NaN,39.717119,13.850352,-7.356507,-27.819358,23.193129,12.787920,-3.644606,6.129166,-1.243645,-0.818359,0.164307,-0.578369,0.395463,0.134522,-0.088180,0.999345,-0.018219,0.030639,-0.006217,-0.477255,-0.155659,0.647331,-0.573550
28121,NaN,18.326570,-8.406795,-3.007390,-1.050980,6.953901,9.318511,-2.991271,7.508149,-0.847018,-0.782715,0.175293,-0.620850,0.181637,-0.085345,-0.035644,0.999175,-0.014952,0.037530,-0.004234,-0.505958,-0.129698,0.636782,-0.567181
28122,NaN,22.366882,-13.007713,-0.654899,0.083921,5.583896,15.459759,-4.510508,4.577381,-1.000564,-0.761963,0.192383,-0.646240,0.222831,-0.131374,-0.008702,0.999471,-0.022549,0.022883,-0.005002,-0.526861,-0.109468,0.636577,-0.552453
28123,NaN,28.977905,-10.949448,-0.485038,-3.692706,9.406577,19.473418,-4.380475,4.003566,-1.050182,-0.747559,0.203125,-0.667725,0.289056,-0.111169,-0.008219,0.999546,-0.021899,0.020015,-0.005250,-0.544706,-0.090254,0.637252,-0.537642
28124,NaN,34.325194,-9.718527,-1.158964,-5.345538,13.397421,22.834517,-2.247247,3.745897,-0.924336,-0.718018,0.203369,-0.695312,0.342514,-0.098940,-0.016905,0.999751,-0.011235,0.018728,-0.004621,-0.560779,-0.078044,0.632101,-0.529041
28125,NaN,28.582375,-5.014643,2.136879,-7.748299,10.854572,16.046185,-1.230330,4.504910,-0.133616,-0.699219,0.209717,-0.722900,0.286179,-0.050231,0.015234,0.999727,-0.006151,0.022523,-0.000668,-0.575741,-0.063169,0.622490,-0.526344
28126,NaN,22.598980,-3.580249,3.989495,-7.271212,7.851272,10.799174,-1.476960,4.629871,0.222467,-0.663574,0.222656,-0.752686,0.226876,-0.035280,0.034911,0.999704,-0.007384,0.023147,0.001112,-0.590584,-0.047180,0.612552,-0.523225
28127,NaN,18.106686,-1.993711,4.805813,-7.095999,6.245562,6.481800,-1.416324,4.329768,0.202326,-0.642578,0.229248,-0.778076,0.182072,-0.019431,0.044262,0.999740,-0.007081,0.021647,0.001012,-0.603541,-0.031127,0.603355,-0.520319
28128,NaN,18.312059,2.281854,7.521850,-11.480780,7.239210,4.776148,-1.863052,4.240862,0.452335,-0.617920,0.248535,-0.795410,0.184604,0.023910,0.071095,0.999729,-0.009314,0.021202,0.002261,-0.615997,-0.014301,0.594922,-0.516151
28129,NaN,14.431495,5.025354,3.348006,-8.965539,9.450247,-1.152483,-2.762013,3.911503,0.420739,-0.590820,0.263672,-0.812500,0.144817,0.050988,0.029950,0.999711,-0.013809,0.019556,0.002103,-0.626611,0.005468,0.589859,-0.509308
28130,NaN,14.016646,6.671297,1.280242,-7.968242,11.669338,-3.261640,-2.711444,2.885210,0.274756,-0.566162,0.289307,-0.816895,0.140231,0.067053,0.009872,0.999803,-0.013556,0.014425,0.001374,-0.634962,0.020865,0.587194,-0.501588
28131,NaN,11.991640,7.988907,-0.250959,-6.812044,12.179264,-6.217835,-2.494773,2.769236,0.268568,-0.560303,0.304443,-0.827637,0.119750,0.079997,-0.005166,0.999825,-0.012473,0.013845,0.001343,-0.642094,0.036427,0.584531,-0.494685
28132,NaN,8.838355,4.886021,-0.525708,-3.887481,8.820222,-6.754991,-2.004353,2.324141,0.328702,-0.537354,0.317383,-0.834229,0.088230,0.048942,-0.006773,0.999881,-0.010021,0.011620,0.001643,-0.648365,0.048229,0.581525,-0.489005
28133,NaN,4.330145,-0.914084,0.012147,-0.127378,2.529198,-6.183304,-1.660328,1.853158,0.207109,-0.531250,0.330078,-0.838623,0.043310,-0.009097,-0.000204,0.999922,-0.008301,0.009266,0.001036,-0.652842,0.058653,0.579487,-0.484306
28134,NaN,0.911549,-4.759587,-0.654235,3.074997,-1.567825,-6.348800,-1.649759,1.056578,-0.125904,-0.522949,0.340820,-0.832275,0.009052,-0.047654,-0.006197,0.999952,-0.008249,0.005283,-0.000630,-0.656403,0.064891,0.579701,-0.478405
28135,NaN,-1.926541,-6.087151,-1.236499,4.598181,-4.057622,-7.648085,-1.509738,0.219785,-0.326170,-0.529785,0.353760,-0.830322,-0.019378,-0.060931,-0.011884,0.999970,-0.007549,0.001099,-0.001631,-0.657355,0.069337,0.582687,-0.472813
28136,NaN,-4.169420,-6.480832,-1.687691,5.414576,-5.694914,-9.117326,-1.202259,-0.443823,-0.481528,-0.538330,0.353760,-0.825928,-0.041813,-0.064808,-0.016580,0.999977,-0.006011,-0.002219,-0.002408,-0.657442,0.069605,0.586816,-0.467517
28137,NaN,-6.082486,-6.260774,-2.885497,6.518254,-6.376755,-10.982873,-0.674479,-0.885408,-0.584765,-0.546631,0.351562,-0.813232,-0.060880,-0.062527,-0.028913,0.999980,-0.003372,-0.004427,-0.002924,-0.656007,0.067946,0.591504,-0.463855
28138,NaN,-8.135292,-5.774450,-3.945452,7.442514,-6.974025,-13.139001,0.270515,-1.187163,-0.716661,-0.557129,0.347168,-0.811035,-0.081323,-0.057399,-0.040015,0.999975,0.001353,-0.005936,-0.003583,-0.654854,0.061092,0.594689,-0.462362
28139,NaN,-10.447502,-6.484530,-4.706409,8.858098,-8.423648,-14.703279,1.756647,-1.405871,-0.834093,-0.577393,0.317139,-0.812988,-0.104406,-0.063989,-0.048363,0.999928,0.008783,-0.007029,-0.004170,-0.653134,0.049515,0.595451,-0.465191
28140,NaN,-11.368293,-5.244644,-5.917913,9.447080,-7.396715,-16.725203,3.715600,-2.186797,-0.683162,-0.595459,0.282959,-0.802002,-0.113196,-0.050933,-0.061374,0.999762,0.018577,-0.010933,-0.003416,-0.649513,0.029301,0.593695,-0.474132
28141,NaN,-6.909860,0.605368,-6.739423,6.048834,-0.406207,-17.346672,5.127211,-3.191365,-0.309224,-0.623779,0.237793,-0.795166,-0.068002,0.007903,-0.068298,0.999543,0.025632,-0.015954,-0.001546,-0.641272,0.004066,0.591681,-0.488536
28142,NaN,-2.769723,4.913612,-5.500563,1.438344,4.073314,-16.400256,5.634651,-3.797081,-0.083452,-0.652344,0.197021,-0.775635,-0.026643,0.050680,-0.054105,0.999423,0.028168,-0.018982,-0.000417,-0.630425,-0.024377,0.589534,-0.504401
28143,NaN,-1.433435,4.098449,-6.555453,2.045245,5.372504,-15.174986,6.083910,-4.840510,-0.180220,-0.695312,0.149902,-0.749756,-0.012725,0.042971,-0.064588,0.999244,0.030412,-0.024196,-0.000901,-0.615443,-0.056358,0.588977,-0.520731
28144,NaN,0.635967,0.860166,-5.212628,2.527195,4.436682,-11.305415,6.366084,-5.513543,-0.174823,-0.727783,0.104736,-0.713379,0.007796,0.010244,-0.051616,0.999113,0.031821,-0.027560,-0.000874,-0.597671,-0.091623,0.588658,-0.536542
28145,NaN,2.970312,-2.545508,-2.951095,2.803244,2.813741,-6.943707,6.164154,-5.142039,0.180438,-0.760498,0.063965,-0.689697,0.030484,-0.024518,-0.029499,0.999194,0.030812,-0.025703,0.000902,-0.578800,-0.123316,0.587083,-0.552374
28146,NaN,5.263555,-4.110080,-0.930763,2.109650,1.891163,-3.694213,5.652731,-4.419456,0.820839,-0.787109,0.038086,-0.651367,0.053008,-0.040621,-0.009292,0.999348,0.028258,-0.022092,0.004103,-0.559953,-0.150232,0.584319,-0.567850
28147,NaN,10.354400,0.210942,3.877783,-5.491445,1.345952,-0.309834,4.676526,-4.658018,0.965486,-0.812012,0.018799,-0.611084,0.102594,0.001661,0.041217,0.999444,0.023378,-0.023286,0.004827,-0.539834,-0.173732,0.584462,-0.580345
28148,NaN,15.703974,8.829548,10.408231,-17.421065,-0.546291,1.546195,2.240583,-4.446667,0.641388,-0.834961,0.014404,-0.579102,0.154378,0.087594,0.108519,0.999685,0.011202,-0.022231,0.003207,-0.523088,-0.191566,0.590292,-0.584155
28149,NaN,20.766762,7.860941,12.100874,-19.300474,-1.041733,6.492948,-1.244474,-2.132946,-0.081397,-0.839600,0.025146,-0.572998,0.206397,0.079285,0.122723,0.999924,-0.006222,-0.010664,-0.000407,-0.518235,-0.194858,0.599356,-0.578131
28150,NaN,21.604817,8.970286,14.341507,-21.652198,-2.045935,6.913542,-5.731551,2.290307,-0.320676,-0.815186,0.059326,-0.607178,0.217799,0.093367,0.138286,0.999523,-0.028653,0.011450,-0.001603,-0.531743,-0.175076,0.609224,-0.561644
28151,NaN,14.221046,8.207032,14.089316,-18.384778,-3.299147,1.090592,-5.924196,7.281582,-2.092150,-0.770752,0.057373,-0.664307,0.148028,0.084562,0.133092,0.998844,-0.029610,0.036394,-0.010457,-0.564407,-0.145153,0.603943,-0.543717
28152,NaN,-9.508985,1.593918,7.308602,-2.485020,-9.637089,-16.686262,-0.509441,7.198563,-4.069899,-0.729248,0.010498,-0.699951,-0.092027,0.018025,0.076392,0.999142,-0.002546,0.035983,-0.020344,-0.597602,-0.137132,0.581202,-0.535043
28153,NaN,-27.743756,-9.066166,-20.939940,24.789432,-0.013517,-35.801122,7.751081,1.690560,-2.481475,-0.735596,-0.062500,-0.690918,-0.280242,-0.079057,-0.210252,0.999136,0.038744,0.008450,-0.012404,-0.603368,-0.162946,0.553200,-0.550786
28154,NaN,5.460257,-23.232491,-30.930513,32.583458,21.290645,-6.656703,10.185519,-2.223984,0.684912,-0.744629,-0.107666,-0.661133,0.058881,-0.216010,-0.319947,0.998636,0.050904,-0.011115,0.003423,-0.586596,-0.198386,0.531404,-0.578064
