// Start Time: Unknown
// Update Rate: 100.0Hz
// Filter Profile: human (46.1)
// Firmware Version: 4.4.0
PacketCounter,SampleTimeFine,Acc_X,Acc_Y,Acc_Z,FreeAcc_X,FreeAcc_Y,FreeAcc_Z,Gyr_X,Gyr_Y,Gyr_Z,Mag_X,Mag_Y,Mag_Z,VelInc_X,VelInc_Y,VelInc_Z,OriInc_q0,OriInc_q1,OriInc_q2,OriInc_q3,Quat_q0,Quat_q1,Quat_q2,Quat_q3
60031,NaN,15.347304,-6.075858,-3.816978,0.000000,0.000000,7.128983,0.757675,0.981994,-0.894691,-0.691406,0.252930,0.026367,0.153009,-0.061297,-0.039153,0.999971,0.003788,0.004910,-0.004473,0.599617,-0.096781,-0.778580,0.157817
60032,NaN,16.485093,-5.093254,-2.198240,-0.000000,0.000000,7.580615,0.817932,0.905576,-0.904472,-0.689209,0.252930,0.022217,0.164516,-0.051585,-0.022938,0.999971,0.004090,0.004528,-0.004522,0.656839,-0.280200,-0.698159,-0.051218
60033,NaN,16.275768,-4.148406,-1.152635,-1.879963,1.594651,6.841376,0.874050,0.704922,-0.858329,-0.686768,0.242188,0.015869,0.162535,-0.042129,-0.012283,0.999975,0.004370,0.003525,-0.004292,0.633115,-0.136476,-0.755088,0.101888
60034,NaN,15.627427,-3.619418,-0.288972,-2.459800,1.759747,5.943282,0.998131,0.472919,-0.785173,-0.697266,0.238037,0.009521,0.156123,-0.036791,-0.003442,0.999977,0.004991,0.002365,-0.003926,0.635967,-0.130589,-0.753601,0.102846
60035,NaN,15.074446,-2.600153,0.588425,-3.066198,2.415502,4.989623,1.146362,0.282213,-0.647098,-0.692871,0.235840,0.003174,0.150667,-0.026521,0.005521,0.999977,0.005732,0.001411,-0.003235,0.638648,-0.124127,-0.752205,0.104444
60036,NaN,14.115972,-1.177942,1.220281,-3.417389,3.365052,3.571427,1.252801,0.142773,-0.479073,-0.697266,0.240234,-0.001221,0.141139,-0.012193,0.012027,0.999977,0.006264,0.000714,-0.002395,0.640198,-0.118396,-0.751375,0.107535
60037,NaN,13.414965,0.351113,1.549984,-3.387664,4.376300,2.510401,1.312244,0.044086,-0.244415,-0.703613,0.233643,-0.001221,0.134157,0.003246,0.015492,0.999978,0.006561,0.000220,-0.001222,0.647161,-0.108666,-0.746839,0.107731
60038,NaN,13.222155,1.550624,1.346936,-3.144136,5.435628,2.003080,1.234664,-0.031008,0.055949,-0.699463,0.240234,-0.007812,0.132215,0.015460,0.013585,0.999981,0.006173,-0.000155,0.000280,0.647674,-0.104861,-0.746229,0.112537
60039,NaN,13.151367,2.318776,0.631804,-2.061870,5.697163,2.104741,1.076891,-0.089078,0.384364,-0.699463,0.242432,-0.011963,0.131466,0.023406,0.006502,0.999984,0.005384,-0.000445,0.001922,0.661668,-0.087731,-0.737389,0.103706
60040,NaN,13.107555,2.406328,0.048506,-1.517568,5.853550,2.063033,0.996952,-0.158218,0.738567,-0.695801,0.255127,-0.005859,0.130985,0.024544,0.000710,0.999980,0.004985,-0.000791,0.003693,0.661127,-0.087072,-0.737058,0.109893
60041,NaN,13.270900,2.509264,-0.569041,-0.507788,5.224712,2.644410,1.040995,-0.273231,1.091274,-0.697754,0.255127,-0.010010,0.132577,0.025845,-0.005376,0.999971,0.005205,-0.001366,0.005456,0.676557,-0.061264,-0.728181,0.090942
60042,NaN,14.829630,3.763132,-2.034458,0.703197,7.029216,3.909849,1.118365,-0.416390,1.445447,-0.691895,0.270264,-0.012451,0.148060,0.038814,-0.019821,0.999956,0.005592,-0.002082,0.007227,0.674696,-0.062551,-0.728606,0.100026
60043,NaN,16.044481,4.788524,-4.045258,2.814742,7.206643,5.577279,0.823725,-0.624689,1.722984,-0.688232,0.285156,-0.008301,0.160148,0.049430,-0.039751,0.999950,0.004119,-0.003123,0.008615,0.683058,-0.032721,-0.725916,0.073533
60044,NaN,16.579907,2.934312,-5.131405,3.806913,5.842741,6.348741,0.518069,-0.741809,2.054024,-0.680176,0.302246,-0.004395,0.165674,0.031177,-0.050620,0.999937,0.002590,-0.003709,0.010270,0.679652,-0.038132,-0.727878,0.082545
60045,NaN,20.259081,-0.948427,-9.168774,7.410565,1.119241,11.144446,0.174823,-0.815531,2.492405,-0.674316,0.319336,-0.002441,0.203059,-0.006876,-0.090867,0.999914,0.000874,-0.004078,0.012462,0.673833,-0.011717,-0.736971,0.051827
60046,NaN,23.050896,-10.187777,-12.221783,10.445756,-7.000834,15.213661,0.033946,-0.819138,3.176152,-0.664307,0.343018,0.003662,0.232586,-0.098174,-0.121285,0.999866,0.000170,-0.004096,0.015880,0.669903,-0.023092,-0.739436,0.062694
60047,NaN,23.678126,-19.189399,-11.576516,8.157475,-16.141264,17.310411,-0.076920,-0.839586,4.235903,-0.643799,0.370850,0.009766,0.241258,-0.186860,-0.114686,0.999767,-0.000385,-0.004198,0.021178,0.642142,-0.026654,-0.763823,0.059310
60048,NaN,25.909692,-21.795218,-10.390573,6.228836,-17.277147,20.465008,-0.114405,-0.968957,5.089781,-0.625732,0.409424,0.009277,0.265030,-0.211316,-0.102509,0.999664,-0.000572,-0.004844,0.025446,0.636702,-0.046161,-0.766033,0.075322
60049,NaN,25.333342,-21.140946,-10.254167,3.263114,-13.073569,21.998945,-0.119340,-1.121022,5.660344,-0.601562,0.452148,0.015381,0.259750,-0.204179,-0.100974,0.999584,-0.000597,-0.005604,0.028298,0.596916,-0.091174,-0.788402,0.117477
60050,NaN,27.892751,-15.885845,-8.378760,0.163714,-5.742249,22.856465,-0.116109,-1.162899,5.638423,-0.574951,0.488525,0.021240,0.283738,-0.150952,-0.082058,0.999586,-0.000580,-0.005814,0.028188,0.588720,-0.113023,-0.789044,0.134326
60051,NaN,23.025557,-12.536421,-6.772875,-1.902705,-0.499991,17.190256,-0.345055,-1.031453,5.458358,-0.552246,0.520508,0.027344,0.233908,-0.119128,-0.066319,0.999613,-0.001725,-0.005157,0.027288,0.552533,-0.161477,-0.797522,0.180533
60052,NaN,19.204549,-10.518722,-4.722872,-2.838356,0.578365,12.396618,-0.475360,-1.044636,5.329425,-0.527344,0.546143,0.033691,0.195001,-0.100127,-0.045973,0.999629,-0.002377,-0.005223,0.026644,0.542968,-0.183036,-0.796238,0.194135
60053,NaN,15.517909,-7.971853,-3.782884,-2.980602,2.677451,7.581128,-0.736431,-1.005098,5.088912,-0.496338,0.578369,0.037598,0.157329,-0.075870,-0.036758,0.999657,-0.003682,-0.005025,0.025442,0.518283,-0.218091,-0.795730,0.225017
60054,NaN,11.831603,-5.594422,-2.592438,-2.683341,3.004274,2.905243,-0.684167,-0.945046,4.736887,-0.469238,0.601807,0.041504,0.119718,-0.053207,-0.025176,0.999703,-0.003420,-0.004725,0.023682,0.508294,-0.237581,-0.793547,0.235533
60055,NaN,8.612924,-2.617385,-1.473493,-2.264356,3.813483,-1.842616,-0.537679,-0.804731,4.217867,-0.450439,0.621094,0.045654,0.086714,-0.024388,-0.014320,0.999766,-0.002688,-0.004023,0.021088,0.495047,-0.260267,-0.789365,0.253167
60056,NaN,5.929721,-0.067314,-0.685572,-1.604926,4.047547,-5.729327,-0.578886,-0.613059,3.647724,-0.425049,0.633789,0.045654,0.059317,0.000389,-0.006674,0.999825,-0.002894,-0.003065,0.018238,0.487170,-0.275274,-0.786730,0.260664
60057,NaN,3.551692,1.847728,0.405362,-1.337978,3.721503,-9.069835,-0.642043,-0.390924,3.079442,-0.412842,0.650879,0.052002,0.035219,0.019034,0.004062,0.999874,-0.003210,-0.001955,0.015397,0.481906,-0.288863,-0.782958,0.267023
60058,NaN,-0.217676,3.936519,1.066889,-0.089812,2.383169,-13.128317,-0.773241,-0.176989,2.413969,-0.395996,0.666016,0.056152,-0.002661,0.039376,0.010514,0.999919,-0.003866,-0.000885,0.012070,0.476835,-0.299916,-0.780867,0.270047
60059,NaN,-2.427262,6.107039,2.299880,0.106618,2.049418,-16.465835,-0.870526,0.022551,1.659246,-0.387695,0.672363,0.058105,-0.024776,0.060966,0.022736,0.999956,-0.004353,0.000113,0.008296,0.476312,-0.307155,-0.779091,0.267956
60060,NaN,-2.825459,7.067318,2.793501,0.096396,2.280105,-17.592470,-1.025067,0.213854,0.907523,-0.383545,0.676514,0.066650,-0.028546,0.070686,0.027603,0.999976,-0.005125,0.001069,0.004538,0.474343,-0.313411,-0.778543,0.265789
60061,NaN,-3.139399,7.397232,2.629381,0.498227,2.357009,-17.917273,-1.133634,0.375450,0.186247,-0.387939,0.674561,0.075195,-0.031414,0.074091,0.025933,0.999982,-0.005668,0.001877,0.000931,0.476687,-0.315931,-0.779027,0.257048
60062,NaN,-4.292566,6.799139,2.269846,1.133823,1.189347,-18.004505,-1.145837,0.527588,-0.520279,-0.394043,0.670166,0.073242,-0.042689,0.068232,0.022421,0.999977,-0.005729,0.002638,-0.002601,0.477590,-0.317306,-0.780046,0.250505
60063,NaN,-5.287926,6.347087,2.067527,1.575348,0.351898,-18.174231,-1.052100,0.694381,-1.203218,-0.409180,0.666016,0.077393,-0.052424,0.063895,0.020522,0.999962,-0.005260,0.003472,-0.006016,0.482243,-0.315074,-0.782191,0.237376
60064,NaN,-5.657873,6.378930,2.103668,1.684703,0.260142,-18.427729,-0.978199,0.869291,-1.846032,-0.423828,0.659424,0.083740,-0.055895,0.064410,0.020967,0.999936,-0.004891,0.004346,-0.009230,0.486262,-0.311225,-0.784114,0.227715
60065,NaN,-5.546107,6.228394,1.707236,1.983076,0.519002,-18.074685,-0.913849,1.045261,-2.439085,-0.440918,0.653076,0.081787,-0.054606,0.063031,0.017072,0.999902,-0.004569,0.005226,-0.012195,0.492097,-0.304832,-0.787350,0.212128
60066,NaN,-5.406267,5.695715,1.248655,2.182685,0.484315,-17.443151,-0.794183,1.206086,-3.000577,-0.463867,0.629639,0.082031,-0.053124,0.057809,0.012580,0.999861,-0.003971,0.006030,-0.015002,0.498749,-0.296211,-0.789689,0.199751
60067,NaN,-5.753636,4.969300,1.066173,2.266666,0.022004,-17.146845,-0.658994,1.351511,-3.534101,-0.486816,0.612549,0.079834,-0.056573,0.050734,0.010880,0.999816,-0.003295,0.006757,-0.017669,0.505647,-0.285479,-0.793522,0.182057
60068,NaN,-5.315929,4.077680,0.710080,2.159279,-0.106523,-16.193152,-0.514657,1.452426,-3.982027,-0.516357,0.597656,0.071533,-0.052280,0.041842,0.007376,0.999772,-0.002573,0.007262,-0.019909,0.514184,-0.272239,-0.795822,0.167834
60069,NaN,-4.767007,2.980550,1.957649,0.550757,-0.334714,-15.730373,-0.362101,1.507378,-4.269290,-0.541260,0.571777,0.075928,-0.046870,0.030848,0.019877,0.999742,-0.001810,0.007536,-0.021345,0.521136,-0.257926,-0.799667,0.149749
60070,NaN,-4.162250,0.580615,2.291307,-0.601111,-1.724619,-14.236736,-0.418324,1.426687,-4.416651,-0.570557,0.544189,0.065430,-0.041315,0.006769,0.023195,0.999729,-0.002091,0.007133,-0.022081,0.529465,-0.242356,-0.801741,0.134689
60071,NaN,-3.953462,-2.888339,1.558344,-0.848749,-4.421559,-12.287753,-0.628170,1.296386,-4.471438,-0.595459,0.518311,0.067871,-0.040064,-0.027942,0.015931,0.999724,-0.003141,0.006481,-0.022355,0.535001,-0.227309,-0.805264,0.116850
60072,NaN,-3.404698,-5.957701,-0.731496,0.361319,-6.890573,-9.859943,-0.639596,1.247553,-4.412275,-0.615967,0.494873,0.057373,-0.035394,-0.058829,-0.006908,0.999732,-0.003198,0.006237,-0.022059,0.541732,-0.211924,-0.807099,0.101024
60073,NaN,-3.145514,-8.365799,-2.755218,1.660448,-9.062676,-8.209969,-0.523299,1.290341,-4.192883,-0.638672,0.462891,0.057861,-0.033376,-0.083043,-0.027123,0.999756,-0.002616,0.006451,-0.020963,0.546257,-0.197195,-0.809214,0.088827
60074,NaN,-2.327173,-10.052828,-4.084821,2.320868,-10.428074,-6.810581,-0.484851,1.359834,-3.822498,-0.652832,0.439209,0.047363,-0.025464,-0.100154,-0.040437,0.999791,-0.002424,0.006799,-0.019111,0.552864,-0.183617,-0.809315,0.075066
60075,NaN,-2.638550,-12.351284,-4.106778,2.143793,-12.702699,-6.586640,-0.677632,1.325214,-3.373315,-0.669189,0.415771,0.049805,-0.028735,-0.123179,-0.040465,0.999830,-0.003388,0.006626,-0.016866,0.555243,-0.171980,-0.810671,0.070289
60076,NaN,-4.069769,-14.755815,-4.682978,2.680474,-15.592282,-7.383493,-0.991021,1.127480,-2.851319,-0.681396,0.396484,0.050049,-0.043058,-0.147184,-0.045862,0.999870,-0.004955,0.005637,-0.014256,0.559890,-0.163548,-0.810236,0.057378
60077,NaN,-5.643061,-16.607221,-6.149233,4.523135,-17.910230,-7.763141,-0.890378,1.010324,-2.364955,-0.691650,0.381592,0.043701,-0.058698,-0.165658,-0.060462,0.999907,-0.004452,0.005051,-0.011824,0.558974,-0.155236,-0.812160,0.062014
60078,NaN,-7.051109,-17.507951,-6.264238,4.932632,-19.254991,-9.191455,-0.308290,0.931450,-1.951102,-0.697510,0.366455,0.041748,-0.072505,-0.174475,-0.062039,0.999940,-0.001541,0.004657,-0.009755,0.563088,-0.148454,-0.811119,0.054583
60079,NaN,-7.116857,-16.184315,-4.298092,4.026686,-17.742745,-9.981668,0.106363,0.733003,-1.514536,-0.697266,0.357910,0.039795,-0.072548,-0.161274,-0.042803,0.999964,0.000532,0.003665,-0.007573,0.559501,-0.138944,-0.813760,0.073809
60080,NaN,-6.529898,-13.447317,-2.284208,2.427923,-14.864061,-11.172629,0.468443,0.703657,-1.125775,-0.701172,0.347168,0.033447,-0.066135,-0.134049,-0.022925,0.999975,0.002342,0.003518,-0.005629,0.563091,-0.133309,-0.812381,0.072075
60083,NaN,-6.291615,-22.241531,-13.576941,37.135253,-68.741193,9.230751,-0.680019,0.204949,0.663651,-0.688721,0.357910,0.046387,-0.183304,-0.673193,-0.399892,0.999894,-0.010200,0.003074,0.009954,0.554999,-0.142052,-0.813826,0.097389
60084,NaN,16.171108,18.559649,-2.539697,-0.597980,22.951950,-0.580467,-3.388421,-0.278979,1.045327,-0.686768,0.362305,0.052734,0.160778,0.185975,-0.028321,0.999842,-0.016941,-0.001395,0.005226,0.550860,-0.155550,-0.815379,0.086685
60085,NaN,17.436596,0.862277,-23.605453,15.071059,8.272317,13.986993,0.234051,-0.435016,0.494784,-0.682373,0.362061,0.052734,0.174856,0.009331,-0.235664,0.999994,0.001170,-0.002175,0.002474,0.534245,-0.150154,-0.822831,0.122410
60086,NaN,21.939804,-22.871047,-2.709242,-8.793252,-12.819009,17.938268,-0.913612,-0.970794,-0.359299,-0.680420,0.364258,0.067627,0.219111,-0.229222,-0.024982,0.999976,-0.004568,-0.004854,-0.001796,0.529772,-0.150519,-0.826234,0.118418
60087,NaN,29.384900,-12.215580,0.390706,-13.910237,0.274677,18.810291,1.388113,-0.364420,0.071669,-0.680176,0.362061,0.056885,0.293886,-0.122076,0.003595,0.999974,0.006941,-0.001822,0.000358,0.515745,-0.140921,-0.831278,0.152073
60088,NaN,11.402114,-4.507018,10.572200,-14.766265,-0.786150,-3.222411,-0.554797,-0.255950,-0.147333,-0.684570,0.360107,0.061279,0.113853,-0.044860,0.105992,0.999995,-0.002774,-0.001280,-0.000737,0.514399,-0.141544,-0.832459,0.149567
60089,NaN,17.546118,-11.824179,7.601796,-15.210634,-4.895672,6.002928,0.142937,-0.039884,0.201369,-0.680176,0.360107,0.065674,0.175565,-0.118119,0.075969,0.999999,0.000715,-0.000199,0.001007,0.506021,-0.132398,-0.833759,0.176803
60090,NaN,15.201464,-4.812493,0.144430,-7.226264,1.739514,4.294767,-0.880270,0.135689,0.391083,-0.678223,0.366455,0.065430,0.152109,-0.047821,0.001552,0.999988,-0.004401,0.000678,0.001955,0.505652,-0.136375,-0.833925,0.174031
60091,NaN,12.176130,-10.078968,-8.027319,1.350732,-2.338775,7.708364,-0.222089,0.123127,0.089603,-0.674072,0.366455,0.065430,0.121757,-0.100824,-0.080236,0.999999,-0.001110,0.000616,0.000448,0.500613,-0.122499,-0.833203,0.200381
60092,NaN,9.187642,-8.077627,-7.462719,2.261553,-1.908127,4.208630,-0.020499,0.002771,-0.282031,-0.676270,0.368652,0.063232,0.091761,-0.080913,-0.074620,0.999999,-0.000102,0.000014,-0.001410,0.500894,-0.121378,-0.833389,0.199588
60093,NaN,10.417743,-8.549695,-7.096713,1.549213,-1.440127,5.270933,0.560901,-0.017323,-0.526114,-0.680176,0.362061,0.063477,0.103959,-0.085571,-0.071198,0.999993,0.002804,-0.000087,-0.002631,0.495911,-0.101186,-0.832275,0.226167
60094,NaN,11.025326,-8.084824,-4.639716,-0.838575,-1.513323,4.521008,0.456293,0.191891,-0.747346,-0.686523,0.355713,0.063477,0.109906,-0.081153,-0.046688,0.999990,0.002281,0.000959,-0.003737,0.497780,-0.097161,-0.831653,0.226114
60095,NaN,13.799660,-8.260573,-5.212731,-1.513182,-0.188697,7.025137,0.457406,0.475290,-0.916371,-0.690674,0.351562,0.054932,0.137492,-0.083116,-0.052644,0.999984,0.002287,0.002376,-0.004582,0.496081,-0.081809,-0.828942,0.245085
60096,NaN,16.417653,-7.549593,-5.959927,-2.055676,1.554684,9.039588,0.484764,0.764564,-1.064159,-0.692627,0.344971,0.046387,0.163542,-0.076221,-0.060409,0.999976,0.002424,0.003823,-0.005321,0.500739,-0.077132,-0.826866,0.244137
60097,NaN,18.460279,-6.384352,-6.521731,-2.529605,3.661265,10.293606,0.581177,0.912311,-1.221532,-0.698486,0.327881,0.033691,0.183908,-0.064777,-0.066245,0.999967,0.002906,0.004562,-0.006108,0.501637,-0.057696,-0.822216,0.262664
60098,NaN,19.866001,-5.081362,-4.813721,-4.617715,4.496780,10.239645,0.722589,0.947908,-1.343301,-0.707031,0.330078,0.025146,0.198082,-0.051969,-0.049263,0.999960,0.003613,0.004739,-0.006716,0.507486,-0.051604,-0.819244,0.261982
60099,NaN,20.322835,-4.322137,-2.723266,-6.556821,4.364214,9.605489,0.846798,0.883077,-1.466677,-0.719238,0.312988,0.020996,0.202781,-0.044591,-0.028316,0.999954,0.004234,0.004415,-0.007333,0.509563,-0.030158,-0.813470,0.278752
60100,NaN,18.547756,-3.014094,-1.282316,-6.972956,4.089498,7.198877,1.066492,0.708777,-1.570877,-0.719238,0.308838,0.012451,0.185186,-0.031525,-0.013645,0.999949,0.005332,0.003544,-0.007854,0.514770,-0.022038,-0.810373,0.278967
60101,NaN,16.363566,-0.984864,0.132702,-7.509031,4.183064,4.146669,1.364430,0.507031,-1.607399,-0.725342,0.300293,0.004150,0.163552,-0.011170,0.000839,0.999941,0.006822,0.002535,-0.008037,0.516966,0.000763,-0.803577,0.294974
60102,NaN,14.742630,0.636343,1.089132,-7.909033,4.394370,1.894898,1.549973,0.338513,-1.593527,-0.733154,0.281006,-0.004150,0.147489,0.005105,0.010685,0.999937,0.007750,0.001693,-0.007967,0.520637,0.010672,-0.800359,0.297067
60103,NaN,12.057495,2.660989,1.924229,-8.069005,4.395385,-1.343052,1.415777,0.285505,-1.488551,-0.737305,0.274658,-0.006348,0.120795,0.025575,0.019253,0.999946,0.007079,0.001427,-0.007443,0.521593,0.038383,-0.791930,0.315144
60104,NaN,9.902204,2.576930,1.768682,-6.887184,3.705438,-2.982090,1.223316,0.325989,-1.223857,-0.737061,0.266113,-0.014648,0.099206,0.025054,0.017680,0.999961,0.006116,0.001630,-0.006119,0.524556,0.045904,-0.788886,0.316847
60105,NaN,9.145326,0.617542,0.337060,-4.586195,2.491265,-2.270024,0.913142,0.321118,-0.845670,-0.740967,0.259521,-0.023193,0.091484,0.005774,0.003251,0.999979,0.004566,0.001606,-0.004228,0.524832,0.070806,-0.779789,0.333866
60106,NaN,7.937178,-0.589798,-2.471911,-1.277945,2.918250,-2.111560,0.059127,0.516029,-0.531746,-0.745361,0.261719,-0.025391,0.079292,-0.006102,-0.024926,0.999993,0.000296,0.002580,-0.002659,0.527707,0.072172,-0.778143,0.332883
60107,NaN,6.855780,-5.045719,-5.702494,3.877332,1.407179,-0.433699,-0.318132,0.583823,0.019374,-0.743164,0.261719,-0.029785,0.068396,-0.050541,-0.057144,0.999994,-0.001591,0.002919,0.000097,0.527252,0.091373,-0.770018,0.347460
60108,NaN,7.040574,-4.910575,-7.391811,5.004713,2.610760,0.008668,-0.640407,0.221944,0.679775,-0.741211,0.268066,-0.025635,0.070491,-0.049103,-0.073839,0.999988,-0.003202,0.001110,0.003399,0.527212,0.086681,-0.770847,0.346884
60109,NaN,6.245713,-7.913095,-6.981934,6.556586,0.198997,0.547948,-0.469157,-0.328614,1.484049,-0.739746,0.283203,-0.025635,0.063157,-0.078827,-0.069531,0.999968,-0.002346,-0.001643,0.007420,0.521704,0.093423,-0.768631,0.358195
60110,NaN,7.593266,-10.898125,-8.003030,8.047297,-0.887711,3.412871,0.115373,-0.956630,2.399378,-0.729492,0.300293,-0.015137,0.077614,-0.108011,-0.079724,0.999916,0.000577,-0.004783,0.011997,0.513632,0.086208,-0.771976,0.364421
60111,NaN,11.240129,-11.174374,-8.370078,6.461630,0.460622,6.898532,1.015781,-1.520083,3.158984,-0.717529,0.328125,-0.009033,0.114778,-0.109519,-0.083394,0.999833,0.005079,-0.007600,0.015794,0.500105,0.086099,-0.773106,0.380511
60112,NaN,15.964503,-12.625516,-8.321433,4.251633,1.095537,11.731589,1.979832,-2.065108,3.722305,-0.709961,0.355957,-0.003174,0.162804,-0.122424,-0.082769,0.999725,0.009898,-0.010325,0.018610,0.484051,0.080566,-0.775893,0.396478
60113,NaN,21.576136,-9.305074,-6.868375,-2.227906,4.429340,14.157772,2.561179,-2.282659,4.096200,-0.689697,0.392334,0.000732,0.218368,-0.087728,-0.067347,0.999643,0.012804,-0.011412,0.020479,0.465355,0.076901,-0.777226,0.416474
60114,NaN,23.624751,-8.135509,-6.882814,-5.030889,6.422309,14.783311,2.770484,-2.338821,4.612532,-0.675781,0.422363,0.009033,0.238817,-0.074929,-0.067113,0.999570,0.013850,-0.011692,0.023059,0.445398,0.070260,-0.778338,0.436892
60115,NaN,26.106106,-7.921893,-6.292619,-8.207104,7.470873,15.887323,2.460635,-2.285109,5.081551,-0.649170,0.460693,0.010742,0.263651,-0.071784,-0.060837,0.999536,0.012301,-0.011424,0.025404,0.423882,0.063715,-0.778935,0.457739
60116,NaN,27.839086,-8.475513,-5.974887,-10.555941,8.132813,16.734180,1.887362,-2.022625,5.186670,-0.626709,0.495117,0.008057,0.281044,-0.076938,-0.057666,0.999568,0.009435,-0.010112,0.025930,0.403351,0.052117,-0.780218,0.475239
60117,NaN,25.977192,-8.508631,-4.454055,-11.370679,6.818654,14.499507,1.353270,-1.551817,4.992505,-0.602051,0.527100,0.010010,0.262121,-0.078267,-0.043058,0.999635,0.006766,-0.007758,0.024959,0.383253,0.047339,-0.779939,0.492515
60118,NaN,22.848838,-6.260351,-2.714723,-12.141707,6.178164,9.755643,0.965449,-1.207228,4.856735,-0.577148,0.557129,0.013916,0.230076,-0.056901,-0.026045,0.999675,0.004827,-0.006035,0.024281,0.366233,0.033208,-0.780771,0.505141
60119,NaN,19.692177,-6.329983,-1.401587,-11.241967,4.143681,7.104194,0.459369,-0.864272,4.703726,-0.552490,0.589111,0.011475,0.198396,-0.058614,-0.013299,0.999711,0.002297,-0.004321,0.023516,0.346678,0.033553,-0.779893,0.520054
60120,NaN,16.641845,-6.302052,-0.620196,-9.971530,2.936133,4.642280,-0.013546,-0.624621,4.441985,-0.527344,0.610596,0.015381,0.167781,-0.059304,-0.005675,0.999748,-0.000068,-0.003123,0.022208,0.332607,0.017824,-0.781560,0.527465
60121,NaN,13.283511,-3.505754,0.208732,-9.265153,2.229136,0.084063,-0.430398,-0.538077,4.149348,-0.502441,0.636230,0.021729,0.133518,-0.032287,0.002517,0.999779,-0.002152,-0.002690,0.020745,0.312751,0.024422,-0.781637,0.539106
60122,NaN,10.167528,-0.923983,0.536473,-8.164055,2.257371,-4.089079,-0.685390,-0.461232,3.794169,-0.479736,0.659668,0.027832,0.101813,-0.007290,0.005627,0.999812,-0.003427,-0.002306,0.018970,0.300746,0.009761,-0.784521,0.542203
60123,NaN,8.285817,0.345867,0.672127,-7.314295,1.775339,-6.267447,-0.905626,-0.371833,3.319825,-0.458740,0.674805,0.029785,0.082773,0.004864,0.006855,0.999850,-0.004528,-0.001859,0.016598,0.281441,0.022910,-0.785363,0.550882
60124,NaN,7.541580,1.007980,1.236130,-7.230445,1.409993,-7.543837,-1.118728,-0.349765,2.817422,-0.446289,0.687500,0.044678,0.075241,0.011210,0.012432,0.999884,-0.005593,-0.001749,0.014087,0.272402,0.011233,-0.789168,0.550350
60125,NaN,4.569324,2.003291,1.689697,-5.257975,0.299688,-9.908899,-1.306415,-0.284472,2.323532,-0.427002,0.691650,0.051270,0.045432,0.020672,0.016828,0.999910,-0.006532,-0.001422,0.011617,0.254671,0.030497,-0.790835,0.555691
60126,NaN,0.973122,2.705724,1.949392,-2.438922,-0.467130,-12.241886,-1.390172,-0.197839,1.742136,-0.421143,0.706787,0.068115,0.009475,0.027275,0.019314,0.999937,-0.006951,-0.000989,0.008710,0.249244,0.022386,-0.795165,0.552348
60127,NaN,-0.630873,3.567615,2.166543,-1.360568,-0.749144,-13.737868,-1.382317,-0.055563,1.100248,-0.414795,0.708740,0.065918,-0.006511,0.035789,0.021417,0.999961,-0.006911,-0.000278,0.005501,0.235586,0.046003,-0.796490,0.554966
60128,NaN,-1.102691,3.163623,2.182818,-0.783203,-0.961984,-13.614019,-1.273935,0.083578,0.440576,-0.412842,0.715088,0.078857,-0.011088,0.031750,0.021631,0.999977,-0.006370,0.000418,0.002203,0.234984,0.042515,-0.800009,0.550419
60129,NaN,-2.196799,2.578942,2.125453,0.417277,-1.282288,-13.577781,-1.045202,0.256274,-0.211836,-0.410645,0.708740,0.089600,-0.021913,0.025923,0.021147,0.999985,-0.005226,0.001281,-0.001059,0.226818,0.069020,-0.799479,0.551926
60130,NaN,-2.665905,2.760435,1.991871,0.780559,-1.127894,-13.913051,-0.708718,0.403961,-0.841987,-0.419189,0.708740,0.091797,-0.026502,0.027787,0.019874,0.999983,-0.003544,0.002020,-0.004210,0.230997,0.070466,-0.800672,0.548269
60131,NaN,-2.817013,3.207769,2.216676,0.629329,-1.116575,-14.449036,-0.403306,0.552632,-1.401394,-0.435791,0.693848,0.087646,-0.027883,0.032318,0.022179,0.999970,-0.002017,0.002763,-0.007007,0.228109,0.098562,-0.797153,0.550271
60132,NaN,-2.928296,3.331395,2.604018,0.492663,-1.416503,-14.732437,-0.274748,0.663798,-1.906618,-0.444336,0.687500,0.087646,-0.028877,0.033626,0.026090,0.999948,-0.001374,0.003319,-0.009533,0.236124,0.104016,-0.796171,0.547301
60133,NaN,-2.514049,2.830859,2.863111,0.206376,-1.771669,-14.211455,-0.224757,0.788136,-2.380125,-0.465332,0.676758,0.089844,-0.024688,0.028636,0.028697,0.999921,-0.001124,0.003941,-0.011900,0.237589,0.132715,-0.790624,0.548500
60134,NaN,-2.387087,1.973390,2.852290,0.395285,-2.052660,-13.467459,-0.120442,0.913169,-2.797230,-0.488525,0.663818,0.081299,-0.023461,0.020081,0.028619,0.999892,-0.000602,0.004566,-0.013986,0.248925,0.141111,-0.787927,0.545248
60135,NaN,-2.696398,0.853616,2.212942,1.310768,-1.816592,-12.619348,0.059146,0.994851,-3.202273,-0.505371,0.648926,0.072754,-0.026712,0.008959,0.022265,0.999859,0.000296,0.004974,-0.016011,0.253819,0.170354,-0.779717,0.546440
60136,NaN,-2.929743,0.223760,1.547373,1.895357,-1.407411,-12.147998,0.398836,1.065958,-3.621840,-0.530273,0.623291,0.071045,-0.029168,0.002736,0.015635,0.999820,0.001994,0.005329,-0.018108,0.267485,0.182036,-0.774049,0.544209
60137,NaN,-3.517916,-0.265839,1.198540,2.655209,-1.147320,-12.161058,0.662016,1.085858,-4.000011,-0.559814,0.608398,0.060303,-0.035158,-0.001995,0.012169,0.999780,0.003310,0.005429,-0.019999,0.275140,0.211583,-0.762347,0.546221
60138,NaN,-3.636815,-0.650657,1.346891,2.868213,-1.396087,-12.111891,0.775773,1.073561,-4.264898,-0.589111,0.589111,0.049805,-0.036424,-0.005783,0.013641,0.999751,0.003879,0.005367,-0.021323,0.289990,0.225921,-0.754050,0.544311
60139,NaN,-3.752815,-1.921087,1.344560,3.752220,-1.650001,-11.479382,0.689530,0.998749,-4.411476,-0.609863,0.563477,0.043701,-0.037873,-0.018425,0.013570,0.999738,0.003447,0.004993,-0.022055,0.299339,0.253435,-0.741150,0.544852
60140,NaN,-4.104324,-4.271418,0.523284,5.749529,-1.463401,-10.212737,0.534769,0.934079,-4.480361,-0.628174,0.533447,0.041748,-0.041962,-0.041795,0.005315,0.999735,0.002674,0.004670,-0.022400,0.314249,0.268226,-0.732421,0.541168
60141,NaN,-4.085668,-6.948393,-1.367006,8.061246,-0.158415,-8.463193,0.413716,0.900620,-4.467917,-0.650635,0.501465,0.035645,-0.042456,-0.068519,-0.013624,0.999738,0.002068,0.004503,-0.022338,0.325124,0.291224,-0.720258,0.539177
60142,NaN,-3.711808,-9.284255,-2.950887,9.966155,0.834785,-6.872702,0.455526,0.963092,-4.336289,-0.671143,0.473633,0.027588,-0.039260,-0.091940,-0.029533,0.999751,0.002277,0.004815,-0.021680,0.339538,0.304911,-0.710971,0.535037
60143,NaN,-3.058631,-10.971759,-3.800374,11.204370,1.351234,-5.714824,0.478487,1.044090,-4.060199,-0.693848,0.443604,0.019287,-0.033002,-0.108973,-0.038097,0.999777,0.002392,0.005220,-0.020299,0.352147,0.319916,-0.700525,0.531894
60144,NaN,-2.492795,-12.824008,-3.314645,12.518530,0.503854,-4.846222,0.457284,1.075505,-3.709675,-0.705566,0.413818,0.010986,-0.027478,-0.127670,-0.033296,0.999811,0.002286,0.005377,-0.018547,0.364982,0.330794,-0.691348,0.528584
60145,NaN,-3.274741,-13.670356,-2.167273,13.606550,-0.809402,-5.752349,0.231864,1.012542,-3.321291,-0.711670,0.400879,0.011230,-0.035121,-0.136108,-0.021657,0.999849,0.001159,0.005062,-0.016606,0.378772,0.336262,-0.685501,0.523018
60146,NaN,-3.750646,-12.519616,-1.675897,12.880138,-0.965244,-7.210062,-0.098985,0.910967,-2.945527,-0.725830,0.379395,0.013672,-0.039420,-0.124633,-0.016521,0.999881,-0.000495,0.004555,-0.014727,0.389718,0.343749,-0.679000,0.518570
60147,NaN,-8.020072,-19.964603,-5.097643,21.993613,0.393379,-7.578365,0.026481,0.816617,-2.443354,-0.731689,0.362305,0.011719,-0.082839,-0.198638,-0.050668,0.999917,0.000132,0.004083,-0.012216,0.403637,0.340224,-0.678604,0.510707
60148,NaN,-13.759979,-65.521929,-44.641826,72.582354,26.738926,12.364319,-2.847573,-1.400751,-0.438054,-0.729492,0.358154,0.031006,-0.135956,-0.661197,-0.437988,0.999872,-0.014237,-0.007003,-0.002190,0.404796,0.339497,-0.687869,0.497714
60149,NaN,16.241010,-36.589973,-14.054047,27.385354,0.027521,22.593371,-0.381566,0.089583,-0.084471,-0.727295,0.355957,0.031006,0.162193,-0.366236,-0.139915,0.999998,-0.001908,0.000448,-0.000422,0.420505,0.307131,-0.705231,0.481141
60150,NaN,18.240665,7.905135,1.673003,-15.497244,0.760023,2.727888,-2.170331,-0.144267,0.603659,-0.725586,0.364502,0.039551,0.182155,0.079778,0.015998,0.999936,-0.010851,-0.000721,0.003018,0.421850,0.300767,-0.711637,0.474505
60151,NaN,9.246644,26.359458,2.788845,-26.274671,9.116630,-13.636941,-0.699712,0.003363,0.056408,-0.718994,0.360107,0.046143,0.092393,0.263716,0.026964,0.999994,-0.003499,0.000017,0.000282,0.436048,0.267089,-0.728280,0.456217
60152,NaN,4.394708,-4.458336,-12.610232,6.328371,9.341005,-1.392292,-0.601408,-1.059246,0.102830,-0.725342,0.362305,0.054688,0.044637,-0.044939,-0.125732,0.999981,-0.003007,-0.005296,0.000514,0.432752,0.267815,-0.732085,0.452828
60153,NaN,19.258416,-16.595913,-17.535329,10.702479,7.549839,18.156106,0.226014,-0.497457,0.226989,-0.723145,0.360107,0.058838,0.193208,-0.165542,-0.175060,0.999996,0.001130,-0.002487,0.001135,0.439527,0.244332,-0.743634,0.440598
60154,NaN,13.105602,-2.806899,-0.782651,-4.029854,-0.389199,2.987970,0.145861,-0.075710,0.017415,-0.716797,0.360107,0.058838,0.131061,-0.028052,-0.007797,1.000000,0.000729,-0.000379,0.000087,0.439029,0.244755,-0.743500,0.441086
60155,NaN,3.219215,-0.554028,0.541133,-1.482887,-0.600206,-6.913742,-0.045249,-0.628511,0.014939,-0.720703,0.351562,0.065430,0.032175,-0.005537,0.005514,0.999995,-0.000226,-0.003143,0.000075,0.445336,0.222534,-0.754627,0.427425
60156,NaN,13.007959,-12.527565,-0.488223,2.617317,-5.770938,7.105635,-0.536287,-0.522231,0.029729,-0.714355,0.351562,0.072021,0.130110,-0.125268,-0.004207,0.999993,-0.002681,-0.002611,0.000149,0.443895,0.222342,-0.756964,0.424884
60157,NaN,12.645665,-8.242916,0.153343,-0.962668,-4.085718,4.687721,-0.486920,-0.191583,-0.042808,-0.714600,0.355713,0.069824,0.126437,-0.082452,0.001855,0.999997,-0.002435,-0.000958,-0.000214,0.451178,0.200237,-0.766441,0.410987
60158,NaN,9.778917,-3.995142,-3.351060,-0.552875,0.994808,1.211034,-0.549727,-0.272242,0.101027,-0.712402,0.353516,0.073975,0.097855,-0.039994,-0.033268,0.999995,-0.002749,-0.001361,0.000505,0.450475,0.199168,-0.768283,0.408834
60159,NaN,12.427417,-4.772216,-5.712859,-0.164156,2.551944,4.446061,-0.392809,-0.226400,0.149152,-0.712402,0.353516,0.073975,0.124374,-0.047741,-0.056894,0.999997,-0.001964,-0.001132,0.000746,0.455969,0.178633,-0.776400,0.396718
60160,NaN,11.944822,-3.625821,-5.434292,-0.838508,2.975532,3.446266,-0.201785,-0.261502,0.139496,-0.712402,0.355713,0.080566,0.119544,-0.036230,-0.054150,0.999998,-0.001009,-0.001308,0.000697,0.454857,0.178150,-0.777520,0.396019
60161,NaN,10.577092,-5.014521,-3.785632,-0.270606,0.677036,2.468171,-0.037606,-0.382690,0.166985,-0.705811,0.353516,0.082764,0.105885,-0.050064,-0.037644,0.999998,-0.000188,-0.001913,0.000835,0.458362,0.160849,-0.784162,0.386163
60163,NaN,10.026071,-6.384127,-2.206289,-0.306038,-2.965034,14.181062,0.148672,-0.451329,0.132893,-0.708008,0.355713,0.091309,0.200888,-0.127351,-0.043409,0.999988,0.001487,-0.004513,0.001329,0.454064,0.162229,-0.785861,0.387207
60164,NaN,8.078198,-5.680406,-2.061318,0.204672,-1.381124,0.178496,-0.041647,-0.529888,0.069334,-0.706055,0.357910,0.091064,0.080856,-0.056780,-0.020387,0.999996,-0.000208,-0.002649,0.000347,0.456343,0.147532,-0.791810,0.378182
60165,NaN,6.443071,-5.831017,-3.435962,1.979279,-0.683123,-0.705799,-0.074020,-0.511014,0.026691,-0.712646,0.364258,0.095215,0.064526,-0.058314,-0.034173,0.999997,-0.000370,-0.002555,0.000133,0.454322,0.148223,-0.793134,0.377571
60166,NaN,5.720033,-6.102465,-4.608936,3.155531,-0.234725,-0.802216,-0.015808,-0.461262,-0.060238,-0.708252,0.357910,0.097656,0.057288,-0.061046,-0.045952,0.999997,-0.000079,-0.002306,-0.000301,0.456887,0.134165,-0.798347,0.368641
60167,NaN,5.943776,-6.023359,-5.344591,3.433923,0.355557,-0.418237,0.157750,-0.405366,-0.167645,-0.703857,0.353516,0.102051,0.059495,-0.060241,-0.053373,0.999997,0.000789,-0.002027,-0.000838,0.455470,0.135942,-0.798868,0.368614
60168,NaN,7.138184,-5.630022,-5.367539,2.533019,0.676470,0.414115,0.306328,-0.332187,-0.257311,-0.706055,0.355713,0.099854,0.071399,-0.056310,-0.053643,0.999997,0.001532,-0.001661,-0.001287,0.458252,0.123930,-0.802669,0.361066
60169,NaN,7.985665,-5.687982,-5.639053,2.275758,0.933229,1.226919,0.414056,-0.219726,-0.333870,-0.708008,0.353516,0.104004,0.079824,-0.056896,-0.056421,0.999996,0.002070,-0.001099,-0.001669,0.457714,0.126615,-0.802215,0.361825
60170,NaN,8.451555,-5.524066,-5.504833,1.834181,0.942205,1.500811,0.538549,-0.099152,-0.410031,-0.712402,0.353516,0.101807,0.084430,-0.055265,-0.055155,0.999994,0.002693,-0.000496,-0.002050,0.461481,0.115391,-0.804799,0.354991
60171,NaN,8.913656,-5.507197,-5.324387,1.489040,0.909451,1.810008,0.608783,0.051702,-0.466335,-0.709961,0.347168,0.099854,0.088994,-0.055117,-0.053435,0.999993,0.003044,0.000259,-0.002332,0.462161,0.118579,-0.803325,0.356392
60172,NaN,9.521867,-5.221685,-5.026847,0.838271,0.970626,2.085041,0.622633,0.231987,-0.506059,-0.714111,0.344971,0.091309,0.095028,-0.052300,-0.050542,0.999991,0.003113,0.001160,-0.002530,0.467034,0.108376,-0.804635,0.350282
60173,NaN,10.190095,-4.941068,-5.050463,0.433364,1.317421,2.509452,0.647441,0.496200,-0.553579,-0.714111,0.342773,0.084961,0.101638,-0.049528,-0.050917,0.999988,0.003237,0.002481,-0.002768,0.469642,0.111244,-0.802033,0.351858
60174,NaN,10.606789,-5.184511,-5.161960,0.497457,1.279428,2.999149,0.630312,0.701912,-0.601439,-0.724854,0.343018,0.082764,0.105729,-0.052000,-0.052155,0.999984,0.003152,0.003510,-0.003007,0.476621,0.100710,-0.802032,0.345592
60175,NaN,12.308101,-5.251059,-5.285807,-0.133776,1.635709,4.480910,0.667283,0.857743,-0.663367,-0.726807,0.336426,0.067871,0.122678,-0.052740,-0.053560,0.999980,0.003336,0.004289,-0.003317,0.480860,0.103476,-0.798486,0.347112
60176,NaN,13.052366,-5.188665,-5.200340,-0.448994,1.788027,5.050967,0.705806,0.964218,-0.755049,-0.728760,0.332275,0.063477,0.130074,-0.052193,-0.052815,0.999975,0.003529,0.004821,-0.003775,0.488582,0.095034,-0.797256,0.341525
60177,NaN,13.119940,-5.512991,-4.766520,-0.434441,1.319706,5.130921,0.761052,1.016251,-0.864986,-0.732666,0.325928,0.044434,0.130715,-0.055512,-0.048541,0.999970,0.003805,0.005081,-0.004325,0.493732,0.098602,-0.793040,0.342918
60178,NaN,14.052990,-5.683017,-3.587565,-1.479565,0.658380,5.680109,0.866239,1.022581,-0.906786,-0.739258,0.325928,0.042236,0.140084,-0.057308,-0.036840,0.999967,0.004331,0.005113,-0.004534,0.501535,0.092310,-0.791031,0.337951
60179,NaN,14.947163,-5.645927,-2.624345,-2.395941,0.282022,6.198444,0.941610,0.981584,-0.935987,-0.745361,0.315186,0.027344,0.149074,-0.057031,-0.027243,0.999966,0.004708,0.004908,-0.004680,0.506546,0.096711,-0.786521,0.339769
60180,NaN,15.035524,-4.817983,-1.843369,-3.231399,0.489185,5.743417,1.054889,0.859502,-0.960632,-0.751465,0.311035,0.016602,0.150040,-0.048801,-0.019335,0.999965,0.005274,0.004297,-0.004803,0.513192,0.093208,-0.784202,0.336115
60181,NaN,13.893849,-4.387380,-1.196768,-3.196103,0.180171,4.451593,1.104643,0.671234,-0.984734,-0.751465,0.308838,0.010254,0.138679,-0.044488,-0.012678,0.999967,0.005523,0.003356,-0.004924,0.516946,0.098772,-0.780140,0.338220
60182,NaN,13.375267,-3.449320,-1.011243,-3.429783,0.692158,3.587820,1.226250,0.504153,-0.902580,-0.759766,0.300293,-0.002441,0.133569,-0.035032,-0.010663,0.999968,0.006131,0.002521,-0.004513,0.521602,0.097706,-0.778133,0.335998
60183,NaN,12.549239,-2.661195,-0.571151,-3.659202,0.826487,2.468088,1.365283,0.355092,-0.792181,-0.763672,0.291748,-0.006592,0.125375,-0.027068,-0.006118,0.999967,0.006826,0.001775,-0.003961,0.523628,0.103749,-0.774502,0.339405
60184,NaN,11.559811,-1.461794,0.075521,-4.241772,1.136028,0.980266,1.447093,0.218305,-0.692256,-0.770020,0.291748,-0.017334,0.115547,-0.015022,0.000521,0.999967,0.007235,0.001092,-0.003461,0.526250,0.104625,-0.772618,0.339376
60185,NaN,10.411599,-0.223451,0.474926,-4.631910,1.548682,-0.602717,1.416767,0.105216,-0.528848,-0.765869,0.291748,-0.023926,0.104112,-0.002543,0.004677,0.999971,0.007084,0.000526,-0.002644,0.526795,0.110214,-0.769640,0.343502
60186,NaN,9.964732,0.621494,0.624996,-4.968474,1.991680,-1.361646,1.298964,0.022403,-0.322482,-0.767822,0.289795,-0.028076,0.099658,0.006014,0.006278,0.999978,0.006495,0.000112,-0.001612,0.527653,0.111279,-0.768347,0.344735
60187,NaN,8.926310,0.415958,0.673735,-4.451978,1.584220,-2.198485,1.150693,-0.051938,-0.048725,-0.774658,0.296143,-0.026123,0.089262,0.004099,0.006784,0.999983,0.005753,-0.000260,-0.000244,0.526886,0.114589,-0.766463,0.348991
60188,NaN,9.956694,0.651122,0.441915,-4.851833,2.112555,-1.342046,1.048651,-0.160737,0.218015,-0.772461,0.296143,-0.028320,0.099556,0.006596,0.004534,0.999985,0.005243,-0.000804,0.001090,0.525801,0.114806,-0.766019,0.351522
60189,NaN,11.838593,-0.160858,0.565480,-5.324110,1.815720,0.620658,1.062877,-0.192113,0.479498,-0.774658,0.302490,-0.028320,0.118384,-0.001355,0.005761,0.999983,0.005314,-0.000961,0.002397,0.523601,0.116099,-0.764920,0.356736
60190,NaN,12.716621,-1.080449,1.086344,-5.618472,1.009832,1.653454,1.068906,-0.220579,0.717690,-0.766113,0.304688,-0.030518,0.127192,-0.010406,0.010947,0.999979,0.005344,-0.001103,0.003588,0.520958,0.115996,-0.764515,0.361476
60191,NaN,13.808053,-0.526330,0.526171,-6.072251,2.060770,2.438666,0.937440,-0.231346,0.996903,-0.768799,0.319580,-0.034912,0.138098,-0.004600,0.005399,0.999976,0.004687,-0.001157,0.004984,0.517713,0.115042,-0.763985,0.367512
60192,NaN,15.341121,0.842106,-1.577062,-6.131748,4.837389,3.511895,0.683943,-0.113571,1.179556,-0.769287,0.330322,-0.035156,0.153367,0.009379,-0.015653,0.999977,0.003420,-0.000568,0.005898,0.514374,0.113418,-0.763876,0.372894
60193,NaN,17.302971,0.292156,-4.395184,-4.842216,6.950955,5.904432,0.084250,0.111043,1.406021,-0.756836,0.345459,-0.033203,0.172979,0.004156,-0.044046,0.999975,0.000421,0.000555,0.007030,0.512113,0.108055,-0.764214,0.376883
60194,NaN,17.795548,-2.002696,-6.894791,-2.194903,7.344951,7.778745,-0.681003,0.289216,1.764566,-0.757324,0.360352,-0.037598,0.178024,-0.018692,-0.069140,0.999954,-0.003405,0.001446,0.008823,0.509479,0.101246,-0.765672,0.379378
60195,NaN,17.673776,-3.594682,-9.688421,0.539466,8.331066,8.880781,-1.120784,0.204874,2.117384,-0.751709,0.379639,-0.033691,0.177010,-0.034617,-0.096869,0.999928,-0.005604,0.001024,0.010587,0.506775,0.089889,-0.768295,0.380555
60196,NaN,18.571336,-10.135134,-10.401318,3.764499,4.669472,12.986691,-1.479428,0.156961,2.630523,-0.737305,0.403076,-0.023193,0.186950,-0.099664,-0.103418,0.999886,-0.007397,0.000785,0.013152,0.502183,0.078131,-0.771918,0.381904
60197,NaN,18.142543,-16.843258,-10.491789,6.899247,0.219594,16.172481,-1.094145,-0.192518,3.196292,-0.727539,0.431152,-0.023682,0.184192,-0.166074,-0.103829,0.999857,-0.005470,-0.000963,0.015981,0.495690,0.063405,-0.775631,0.385574
60198,NaN,18.211663,-16.633099,-11.027321,6.430266,1.085407,16.404304,-0.646209,-0.623205,3.592553,-0.711426,0.460938,-0.010986,0.185410,-0.163374,-0.109168,0.999829,-0.003231,-0.003116,0.017962,0.486127,0.050141,-0.779806,0.391241
60199,NaN,19.577131,-16.854314,-10.345366,4.495210,1.418400,17.610718,-0.177194,-0.984389,3.859601,-0.699463,0.486572,-0.009277,0.199481,-0.164808,-0.102331,0.999801,-0.000886,-0.004922,0.019297,0.474685,0.036578,-0.783360,0.399603
60200,NaN,20.050122,-12.723030,-8.010074,-0.098940,3.374839,15.017892,0.199777,-1.156727,3.943177,-0.674805,0.518799,-0.003174,0.203416,-0.123159,-0.079054,0.999788,0.000999,-0.005783,0.019714,0.462258,0.023713,-0.786794,0.408301
60201,NaN,18.263242,-10.809950,-7.264802,-1.170108,4.104485,12.207656,0.273559,-1.226775,3.815422,-0.658447,0.544434,0.005127,0.185090,-0.104486,-0.071662,0.999798,0.001368,-0.006133,0.019076,0.449516,0.011837,-0.789368,0.417964
60202,NaN,17.284119,-9.012466,-6.598122,-2.424789,4.917731,10.021308,0.364255,-1.145290,3.561350,-0.639893,0.563721,0.009277,0.174783,-0.086905,-0.065144,0.999823,0.001821,-0.005726,0.017806,0.437547,0.000946,-0.791786,0.426177
60203,NaN,14.474054,-7.013418,-4.749928,-3.233830,4.288279,6.073586,0.202355,-0.886147,3.321426,-0.625732,0.589355,0.008789,0.146087,-0.067668,-0.046923,0.999852,0.001012,-0.004431,0.016606,0.426893,-0.009871,-0.793195,0.434174
60204,NaN,10.928471,-6.139649,-3.269245,-2.683227,2.715028,2.565887,-0.042477,-0.746694,3.172780,-0.604980,0.612793,0.015137,0.110361,-0.059658,-0.032269,0.999867,-0.000212,-0.003733,0.015863,0.416881,-0.020366,-0.795153,0.439917
60205,NaN,9.014355,-5.324180,-2.141878,-2.760146,1.887515,0.336377,-0.384790,-0.649693,2.953853,-0.592773,0.636475,0.019043,0.090986,-0.051943,-0.021023,0.999884,-0.001924,-0.003248,0.014769,0.407711,-0.031479,-0.796964,0.444556
60206,NaN,7.973915,-3.587151,-1.203669,-3.462684,1.988494,-1.941815,-0.642845,-0.555363,2.698354,-0.572021,0.651367,0.023193,0.080247,-0.034829,-0.011701,0.999900,-0.003214,-0.002777,0.013491,0.399083,-0.041257,-0.799553,0.446929
60207,NaN,6.460657,-0.752265,-0.613157,-3.787141,2.738901,-5.248052,-0.715141,-0.395764,2.422635,-0.559570,0.664062,0.031738,0.064703,-0.006761,-0.005979,0.999918,-0.003576,-0.001979,0.012113,0.391904,-0.051480,-0.801379,0.448946
60208,NaN,5.237190,2.218194,0.573193,-4.590586,3.206643,-8.663851,-0.727307,-0.199256,2.058157,-0.547119,0.681396,0.035645,0.052134,0.022740,0.005702,0.999940,-0.003636,-0.000996,0.010291,0.385775,-0.059030,-0.803375,0.449756
60209,NaN,4.109866,4.072211,1.656358,-4.974092,3.112375,-11.149813,-0.906625,-0.014555,1.630622,-0.538574,0.683350,0.044434,0.040763,0.041130,0.016381,0.999956,-0.004533,-0.000073,0.008153,0.381763,-0.067292,-0.804929,0.449241
60210,NaN,2.428534,4.230806,1.903591,-3.960274,2.309241,-12.343332,-1.112707,0.106003,1.237856,-0.534912,0.698486,0.052734,0.024032,0.042562,0.018787,0.999965,-0.005563,0.000530,0.006189,0.378243,-0.072169,-0.807376,0.447065
60211,NaN,0.964529,3.754287,1.695288,-2.632769,1.538294,-12.745410,-1.156200,0.185580,0.878458,-0.530762,0.700439,0.054932,0.009496,0.037682,0.016726,0.999973,-0.005781,0.000928,0.004392,0.376598,-0.078312,-0.809275,0.443976
60212,NaN,0.283614,3.925662,1.340846,-1.917794,1.588059,-13.142711,-1.089976,0.232866,0.495935,-0.526367,0.702637,0.063477,0.002754,0.039336,0.013191,0.999981,-0.005450,0.001164,0.002480,0.375094,-0.079986,-0.811660,0.440584
60213,NaN,-0.151593,4.173857,1.244634,-1.563629,1.632031,-13.538886,-0.996120,0.287233,0.070066,-0.522461,0.708984,0.071777,-0.001513,0.041799,0.012240,0.999987,-0.004981,0.001436,0.000350,0.375699,-0.082768,-0.813280,0.436548
60214,NaN,-0.399531,4.297329,1.469498,-1.561825,1.484096,-13.830658,-0.880281,0.341762,-0.359717,-0.531006,0.704834,0.076172,-0.003893,0.043045,0.014512,0.999987,-0.004401,0.001709,-0.001799,0.376584,-0.080689,-0.815296,0.432396
60215,NaN,-1.242592,3.951531,1.864916,-1.175115,0.677032,-14.148244,-0.780962,0.418479,-0.760017,-0.541504,0.700439,0.078369,-0.012237,0.039635,0.018520,0.999983,-0.003905,0.002092,-0.003800,0.379609,-0.079962,-0.816493,0.427601
60216,NaN,-1.751295,3.986094,1.956442,-0.917468,0.466248,-14.473604,-0.689712,0.451540,-1.130457,-0.545654,0.696289,0.076172,-0.017243,0.040026,0.019466,0.999976,-0.003449,0.002258,-0.005652,0.382680,-0.074571,-0.818093,0.422752
60217,NaN,-1.606068,4.162424,1.762464,-0.957575,0.826273,-14.439921,-0.618729,0.510463,-1.470050,-0.560547,0.687744,0.082764,-0.015709,0.041795,0.017536,0.999965,-0.003094,0.002552,-0.007350,0.387629,-0.070815,-0.818947,0.417198
60218,NaN,-1.846344,4.138145,1.559482,-0.704177,0.906693,-14.465269,-0.612821,0.566103,-1.784026,-0.566650,0.678955,0.089355,-0.018049,0.041591,0.015519,0.999952,-0.003064,0.002830,-0.008920,0.392572,-0.062873,-0.820199,0.411349
60219,NaN,-2.288755,3.633890,1.608621,-0.386312,0.433665,-14.361644,-0.616279,0.671732,-2.092658,-0.581299,0.668457,0.089355,-0.022451,0.036625,0.016050,0.999935,-0.003081,0.003359,-0.010463,0.399408,-0.056875,-0.820757,0.404471
60220,NaN,-2.832788,2.626712,1.402648,0.286272,-0.246981,-13.905097,-0.696796,0.782263,-2.402639,-0.600098,0.655518,0.089355,-0.027954,0.026653,0.014044,0.999914,-0.003484,0.003911,-0.012013,0.406452,-0.047091,-0.821611,0.396906
60221,NaN,-3.359993,1.463210,1.038391,1.109100,-0.948246,-13.330996,-0.808668,0.892302,-2.668098,-0.618896,0.636230,0.095947,-0.033354,0.015120,0.010473,0.999893,-0.004043,0.004461,-0.013340,0.415176,-0.039536,-0.821947,0.387904
60222,NaN,-3.776824,0.253929,0.837298,1.774944,-1.744109,-12.785291,-0.881114,0.978323,-2.867385,-0.637451,0.614990,0.098389,-0.037685,0.003117,0.008545,0.999876,-0.004405,0.004891,-0.014336,0.423867,-0.028881,-0.822389,0.378390
60223,NaN,-3.935266,-0.710710,0.733375,2.150836,-2.366299,-12.323126,-1.088189,1.052962,-2.945048,-0.652100,0.599854,0.098633,-0.039412,-0.006486,0.007578,0.999863,-0.005441,0.005265,-0.014725,0.433550,-0.021063,-0.822533,0.367464
60224,NaN,-3.326544,-1.903341,-0.526396,2.987971,-2.237051,-10.828551,-1.492629,1.102795,-2.952748,-0.668701,0.584961,0.092285,-0.033570,-0.018577,-0.004940,0.999848,-0.007463,0.005514,-0.014763,0.442796,-0.012059,-0.823289,0.354938
60225,NaN,-2.859543,-4.544380,-2.204401,4.700658,-3.130709,-8.475956,-1.779744,1.176446,-2.948872,-0.687256,0.559326,0.109619,-0.029391,-0.045207,-0.021470,0.999834,-0.008898,0.005882,-0.014744,0.452689,-0.005943,-0.823889,0.340947
60226,NaN,-3.081443,-7.471986,-3.644168,6.805271,-4.754741,-6.701676,-1.776500,1.258259,-2.876125,-0.701660,0.541992,0.112061,-0.032113,-0.074583,-0.035579,0.999837,-0.008882,0.006291,-0.014380,0.462373,0.001158,-0.824197,0.326969
60227,NaN,-3.154766,-9.417382,-5.389673,8.791138,-5.544697,-5.380042,-1.702187,1.263709,-2.716953,-0.707275,0.518555,0.116699,-0.033163,-0.094184,-0.052889,0.999852,-0.008511,0.006318,-0.013584,0.471961,0.006356,-0.823925,0.313625
60228,NaN,-2.888183,-10.815491,-6.591450,10.035037,-6.191264,-4.361451,-1.610710,1.223204,-2.492764,-0.721924,0.503662,0.118896,-0.030630,-0.108306,-0.064859,0.999871,-0.008053,0.006116,-0.012463,0.480901,0.011131,-0.823577,0.300553
60229,NaN,-2.803643,-11.806898,-7.167157,10.776495,-6.927034,-3.938937,-1.595201,1.121763,-2.187810,-0.734375,0.486328,0.121338,-0.029728,-0.118316,-0.070565,0.999893,-0.007976,0.005609,-0.010939,0.488842,0.014620,-0.823070,0.288746
60230,NaN,-2.912271,-13.112361,-7.705119,11.645867,-8.064073,-3.558448,-1.473721,1.014981,-1.875222,-0.744385,0.469238,0.125732,-0.030741,-0.131403,-0.075930,0.999916,-0.007368,0.005075,-0.009376,0.496053,0.016071,-0.822784,0.276948
60231,NaN,-3.611449,-14.206320,-7.851435,12.450214,-9.310228,-3.912837,-1.163885,0.902045,-1.594967,-0.743896,0.452148,0.125977,-0.037599,-0.142220,-0.077520,0.999941,-0.005819,0.004510,-0.007975,0.502034,0.018499,-0.821986,0.268252
60232,NaN,-9.776207,-22.652688,-14.209294,23.102374,-15.432059,-3.588626,-0.777980,0.609140,-1.210605,-0.745850,0.449951,0.128174,-0.099563,-0.226478,-0.140910,0.999969,-0.003890,0.003046,-0.006053,0.506695,0.018010,-0.821733,0.260174
60233,NaN,-14.633265,-56.178977,-49.909006,64.145122,-30.417709,18.839626,-2.502444,-1.588721,0.291293,-0.730957,0.449951,0.149658,-0.141575,-0.568194,-0.493144,0.999889,-0.012512,-0.007943,0.001456,0.499955,0.012541,-0.828953,0.250450
60234,NaN,17.005245,-38.219349,-11.428326,10.686506,-24.638341,24.234896,0.537053,-0.150287,0.866968,-0.730957,0.454102,0.143066,0.171792,-0.381143,-0.115179,0.999987,0.002685,-0.000751,0.004335,0.499461,0.002432,-0.829360,0.250389
60235,NaN,18.777476,0.717322,14.532766,-21.618641,-0.812918,-0.000303,0.614212,-0.023420,0.631561,-0.729004,0.456299,0.145264,0.187735,0.007320,0.145372,0.999990,0.003071,-0.000117,0.003158,0.498558,0.001379,-0.828654,0.254502
60236,NaN,10.870362,26.034846,9.550755,-19.790499,21.539077,-15.433103,1.295400,0.078829,0.041720,-0.724854,0.462891,0.140869,0.108687,0.259745,0.097148,0.999979,0.006477,0.000394,0.000209,0.499910,-0.002607,-0.827249,0.256401
60237,NaN,11.039592,-6.121549,-3.148940,-1.421011,-1.145436,3.068664,-0.643363,-0.725222,-0.057143,-0.722412,0.454102,0.151855,0.110491,-0.061347,-0.030892,0.999988,-0.003217,-0.003626,-0.000286,0.496965,-0.003047,-0.829883,0.253596
60238,NaN,24.143159,-21.650911,-11.305281,2.275210,-7.934231,23.523990,-0.791818,0.460255,0.542782,-0.718262,0.456299,0.147461,0.241759,-0.216300,-0.112752,0.999986,-0.003959,0.002301,0.002714,0.498941,-0.013103,-0.830041,0.248834
60239,NaN,12.027486,-8.886454,-2.312005,-2.045980,-3.573074,4.748244,-0.245117,1.159078,0.302672,-0.716064,0.454102,0.138916,0.120273,-0.088711,-0.023708,0.999981,-0.001226,0.005795,0.001513,0.503345,-0.016411,-0.827424,0.248484
60240,NaN,2.919130,1.419435,-4.795819,2.325600,3.915002,-6.234937,-0.426101,0.164704,0.068804,-0.720215,0.452148,0.138916,0.029147,0.014102,-0.048012,0.999997,-0.002131,0.000824,0.000344,0.504591,-0.022921,-0.827757,0.244299
60241,NaN,10.134269,-9.344982,-4.962517,1.191447,-3.471835,4.371289,-0.672645,0.431760,-0.105012,-0.718018,0.447754,0.141113,0.101187,-0.093670,-0.049529,0.999992,-0.003363,0.002159,-0.000525,0.506420,-0.024709,-0.827499,0.241191
60242,NaN,6.923013,-9.503679,-3.979843,1.902970,-4.948345,1.411373,-0.124750,0.510307,-0.224169,-0.720215,0.449951,0.141113,0.069022,-0.095139,-0.039915,0.999996,-0.000624,0.002552,-0.001121,0.509406,-0.029533,-0.826580,0.237483
60243,NaN,7.629375,-4.893633,-4.424408,1.094897,-0.522624,0.200219,0.058519,0.236403,-0.372574,-0.724121,0.443604,0.136963,0.076150,-0.049065,-0.044348,0.999998,0.000293,0.001182,-0.001863,0.510828,-0.028123,-0.825967,0.236733
60244,NaN,10.885388,-5.253108,-4.460277,-0.332749,0.084205,3.066080,0.008295,0.209843,-0.518419,-0.721924,0.441406,0.134766,0.108670,-0.052811,-0.044719,0.999996,0.000041,0.001049,-0.002592,0.512874,-0.030890,-0.825675,0.232953
60245,NaN,12.707882,-6.605344,-3.093907,-2.060452,-1.133331,4.649762,-0.081602,0.289900,-0.568481,-0.726074,0.435059,0.130615,0.126845,-0.066427,-0.031096,0.999995,-0.000408,0.001449,-0.002842,0.514712,-0.029089,-0.825115,0.231106
60246,NaN,12.780308,-7.394660,-2.825944,-2.149516,-1.953325,4.937446,-0.015139,0.275352,-0.628953,-0.734375,0.428467,0.124268,0.127531,-0.074350,-0.028430,0.999994,-0.000076,0.001377,-0.003145,0.517048,-0.031123,-0.824682,0.227140
60247,NaN,13.616810,-7.400049,-3.609779,-1.777612,-1.523186,5.926680,0.304676,0.235789,-0.667124,-0.729980,0.426514,0.120117,0.135878,-0.074399,-0.036371,0.999993,0.001523,0.001179,-0.003336,0.518816,-0.027852,-0.823829,0.226627
60248,NaN,12.866395,-4.688285,-3.688135,-1.809074,0.683848,4.236702,0.365829,0.249758,-0.640817,-0.734375,0.426514,0.115723,0.128467,-0.047227,-0.037128,0.999992,0.001829,0.001249,-0.003204,0.521022,-0.028365,-0.823011,0.224465
60249,NaN,12.302453,-4.571584,-4.236238,-1.025492,0.764526,3.918981,0.470753,0.210494,-0.643671,-0.744873,0.419922,0.111572,0.122832,-0.046011,-0.042600,0.999991,0.002354,0.001052,-0.003218,0.522667,-0.024726,-0.822024,0.224687
60250,NaN,11.479567,-4.766313,-3.988911,-0.774474,0.249649,3.216010,0.598174,0.191452,-0.629534,-0.744629,0.413574,0.109375,0.114607,-0.047904,-0.040142,0.999990,0.002991,0.000957,-0.003148,0.524585,-0.024241,-0.821089,0.223687
60251,NaN,10.641664,-4.311954,-3.590719,-0.768059,0.259107,2.190385,0.686627,0.163622,-0.607193,-0.746826,0.413574,0.111572,0.106256,-0.043318,-0.036143,0.999989,0.003433,0.000818,-0.003036,0.526008,-0.020130,-0.819962,0.224885
60252,NaN,10.059243,-4.487750,-3.366717,-0.617875,-0.147857,1.687705,0.739011,0.170327,-0.585974,-0.755371,0.413574,0.100830,0.100432,-0.045047,-0.033919,0.999989,0.003695,0.000852,-0.002930,0.527757,-0.019144,-0.818909,0.224710
60253,NaN,9.325928,-4.182937,-3.626550,-0.066851,0.000360,1.032448,0.747251,0.174275,-0.581932,-0.759521,0.409424,0.094482,0.093106,-0.041964,-0.036503,0.999988,0.003736,0.000871,-0.002910,0.529184,-0.014986,-0.817661,0.226208
60254,NaN,8.338864,-3.903430,-3.784989,0.493533,0.035551,0.129870,0.732218,0.199388,-0.584523,-0.759277,0.407227,0.094482,0.083236,-0.039139,-0.038076,0.999989,0.003661,0.000997,-0.002923,0.531008,-0.013830,-0.816525,0.226109
60255,NaN,7.653992,-3.922610,-3.613580,0.703010,-0.232420,-0.513230,0.743906,0.200633,-0.596092,-0.763428,0.400879,0.085938,0.076386,-0.039319,-0.036359,0.999988,0.003720,0.001003,-0.002980,0.532540,-0.009649,-0.815189,0.227541
60256,NaN,7.084696,-4.103931,-3.393038,0.841204,-0.630706,-1.012563,0.749025,0.193310,-0.615561,-0.767822,0.400879,0.081543,0.070688,-0.041129,-0.034153,0.999988,0.003745,0.000967,-0.003078,0.534344,-0.008183,-0.814042,0.227474
60257,NaN,7.112462,-3.938796,-3.156780,0.639182,-0.570026,-1.133242,0.736650,0.164836,-0.591679,-0.769775,0.398682,0.079590,0.070982,-0.039481,-0.031772,0.999989,0.003683,0.000824,-0.002958,0.535706,-0.003995,-0.812785,0.228876
60258,NaN,7.073601,-3.020303,-3.287795,0.590454,0.282116,-1.473666,0.676441,0.155818,-0.558295,-0.771729,0.390137,0.073242,0.070626,-0.030289,-0.033035,0.999990,0.003382,0.000779,-0.002791,0.537259,-0.002800,-0.811809,0.228715
60259,NaN,7.312232,-3.198147,-3.185509,0.483834,0.134114,-1.234103,0.600810,0.154678,-0.534079,-0.782227,0.388184,0.066650,0.073012,-0.032081,-0.032008,0.999992,0.003004,0.000773,-0.002670,0.538495,0.000804,-0.810713,0.229709
60260,NaN,7.560600,-3.199827,-3.203381,0.428022,0.190437,-1.012483,0.557841,0.156703,-0.498677,-0.777832,0.383789,0.069092,0.075501,-0.032097,-0.032182,0.999993,0.002789,0.000784,-0.002493,0.539955,0.001557,-0.809866,0.229268
60261,NaN,7.372407,-3.360904,-2.887682,0.308842,-0.129464,-1.217659,0.529803,0.126639,-0.467228,-0.779785,0.379395,0.062500,0.073627,-0.033704,-0.029013,0.999994,0.002649,0.000633,-0.002336,0.540989,0.004732,-0.808914,0.230147
60262,NaN,7.684321,-3.533884,-2.731955,0.113664,-0.275346,-0.929453,0.546163,0.090773,-0.436827,-0.784180,0.381592,0.058350,0.076753,-0.035432,-0.027451,0.999994,0.002731,0.000454,-0.002184,0.542084,0.005405,-0.808252,0.229878
60263,NaN,7.990584,-3.853624,-2.476043,-0.118066,-0.594459,-0.622301,0.561489,0.084397,-0.395148,-0.786133,0.377441,0.058350,0.079819,-0.038624,-0.024902,0.999994,0.002807,0.000422,-0.001976,0.542854,0.008425,-0.807369,0.231072
60264,NaN,8.224388,-3.799707,-2.515782,-0.169686,-0.479212,-0.423920,0.511197,0.083730,-0.359885,-0.788330,0.373047,0.056152,0.082165,-0.038080,-0.025289,0.999995,0.002556,0.000419,-0.001799,0.543807,0.008846,-0.806758,0.230950
60265,NaN,8.450319,-3.629726,-2.219368,-0.533098,-0.395933,-0.375138,0.480414,0.092526,-0.326034,-0.792480,0.371094,0.052002,0.084434,-0.036381,-0.022320,0.999996,0.002402,0.000463,-0.001630,0.544525,0.011359,-0.805940,0.232000
60266,NaN,8.934831,-3.634444,-2.342259,-0.600254,-0.239404,0.092304,0.465232,0.083815,-0.290666,-0.792480,0.375244,0.052002,0.089286,-0.036420,-0.023545,0.999996,0.002326,0.000419,-0.001453,0.545375,0.011539,-0.805370,0.231974
60267,NaN,9.375381,-3.555776,-2.804204,-0.363354,0.108767,0.592162,0.446564,0.174032,-0.247571,-0.794678,0.371094,0.045410,0.093685,-0.035611,-0.028203,0.999996,0.002233,0.000870,-0.001238,0.546327,0.013550,-0.804367,0.233102
60268,NaN,9.572990,-3.019095,-2.824321,-0.544384,0.649806,0.580347,0.415981,0.199206,-0.189330,-0.790283,0.371094,0.043457,0.095673,-0.030223,-0.028401,0.999997,0.002080,0.000996,-0.000947,0.547503,0.013214,-0.803531,0.233245
60269,NaN,9.833835,-2.778159,-3.300356,-0.264902,1.118503,0.864086,0.360148,0.259970,-0.116156,-0.792236,0.366699,0.043457,0.098279,-0.027779,-0.033181,0.999997,0.001801,0.001300,-0.000581,0.548650,0.014361,-0.802396,0.234386
60270,NaN,9.413338,-2.881363,-3.543391,0.172705,1.040569,0.596736,0.314420,0.247307,-0.055584,-0.796631,0.368896,0.030518,0.094081,-0.028784,-0.035596,0.999998,0.001572,0.001237,-0.000278,0.549853,0.013292,-0.801544,0.234546
60271,NaN,9.673719,-2.984164,-3.458715,0.053882,0.996913,0.838694,0.334598,0.242136,0.020147,-0.796387,0.362549,0.032715,0.096698,-0.029774,-0.034754,0.999998,0.001673,0.001211,0.000101,0.550768,0.013844,-0.800493,0.235954
60272,NaN,9.900264,-2.999031,-3.337611,-0.113909,1.022052,1.008189,0.356808,0.243506,0.101693,-0.794678,0.375244,0.028320,0.098977,-0.029880,-0.033550,0.999998,0.001784,0.001218,0.000508,0.551758,0.012358,-0.799602,0.236741
60273,NaN,10.012337,-3.139246,-3.233106,-0.186548,0.919639,1.126875,0.391523,0.209052,0.181617,-0.796631,0.373291,0.028320,0.100118,-0.031238,-0.032497,0.999997,0.001958,0.001045,0.000908,0.552345,0.012462,-0.798578,0.238816
60274,NaN,10.358187,-3.111631,-2.667405,-0.811926,0.855745,1.264207,0.454833,0.167807,0.262081,-0.790527,0.377441,0.023926,0.103600,-0.030920,-0.026831,0.999996,0.002274,0.000839,0.001310,0.552828,0.010797,-0.797772,0.240467
60275,NaN,10.867318,-2.730701,-1.880444,-1.797450,1.058714,1.355994,0.438578,0.122240,0.361175,-0.792725,0.379639,0.019775,0.108711,-0.027069,-0.018930,0.999996,0.002193,0.000611,0.001806,0.552847,0.010419,-0.796930,0.243216
60276,NaN,11.087779,-2.910643,-1.133095,-2.489954,0.727576,1.410726,0.409242,0.092514,0.479990,-0.786621,0.392578,0.019531,0.110942,-0.028817,-0.011441,0.999995,0.002046,0.000463,0.002400,0.552751,0.008015,-0.796366,0.245364
60277,NaN,11.414256,-3.008901,-0.728833,-2.950583,0.632543,1.622495,0.420510,0.040033,0.597776,-0.791260,0.398926,0.015137,0.114230,-0.029732,-0.007374,0.999993,0.002103,0.000200,0.002989,0.552148,0.006745,-0.795765,0.248687
60278,NaN,12.239804,-2.828588,-0.509666,-3.539676,1.015204,2.208659,0.444084,-0.029800,0.735525,-0.782471,0.396729,0.012939,0.122502,-0.027824,-0.005141,0.999991,0.002220,-0.000149,0.003678,0.551216,0.003813,-0.795448,0.251812
60279,NaN,13.417642,-2.471214,-0.586441,-4.070924,1.779014,3.100304,0.467717,-0.083707,0.882683,-0.784912,0.403320,0.012939,0.134286,-0.024106,-0.005865,0.999987,0.002339,-0.000419,0.004413,0.549748,0.001693,-0.795103,0.256096
60280,NaN,15.344032,-2.690831,-1.081309,-4.393622,2.471093,4.966912,0.591554,-0.147270,1.036149,-0.776855,0.420410,0.012695,0.153585,-0.026081,-0.010778,0.999982,0.002958,-0.000736,0.005181,0.547917,-0.001599,-0.794845,0.260781
60281,NaN,16.955735,-3.278133,-0.315662,-5.614433,2.277518,6.362299,0.840483,-0.245561,1.188970,-0.770752,0.433105,0.008301,0.169752,-0.031759,-0.003083,0.999973,0.004202,-0.001228,0.005945,0.545374,-0.003705,-0.794397,0.267370
60282,NaN,20.362617,-2.208606,-0.284839,-7.428654,4.422621,8.757278,1.072485,-0.237457,1.410073,-0.775391,0.441895,0.003906,0.203778,-0.020635,-0.002720,0.999960,0.005362,-0.001187,0.007050,0.542613,-0.006733,-0.793618,0.275130
60283,NaN,22.075857,-0.137433,-0.678471,-8.511481,7.146374,9.273857,1.078610,-0.130093,1.572358,-0.762939,0.456787,0.008057,0.220764,0.000397,-0.006642,0.999954,0.005393,-0.000650,0.007862,0.539936,-0.009869,-0.792405,0.283664
60284,NaN,20.076886,2.769428,-1.706765,-7.767816,9.652273,6.316470,0.873564,-0.239670,1.518228,-0.756836,0.467529,0.010010,0.200571,0.029291,-0.016702,0.999961,0.004368,-0.001198,0.007591,0.536886,-0.013431,-0.791739,0.291069
60285,NaN,19.500345,5.002724,-2.619276,-7.546477,11.916895,4.788017,0.835024,-0.435757,1.415821,-0.764160,0.486816,0.003174,0.194698,0.051514,-0.025555,0.999964,0.004175,-0.002179,0.007079,0.533128,-0.016163,-0.791578,0.298191
60286,NaN,19.905941,5.275942,-4.293597,-6.543998,13.224721,5.180255,0.620508,-0.450384,1.601072,-0.743164,0.501709,0.003174,0.198724,0.054483,-0.042321,0.999961,0.003102,-0.002252,0.008005,0.529013,-0.020116,-0.791724,0.304817
60287,NaN,21.727803,-1.229283,-6.888282,-3.436292,10.044466,10.394781,0.095851,-0.304050,1.941792,-0.732910,0.516602,0.013672,0.217488,-0.010149,-0.068557,0.999952,0.000479,-0.001520,0.009709,0.524825,-0.027087,-0.792156,0.310346
60288,NaN,20.933215,-11.779684,-12.142703,4.057608,4.065566,16.481427,-0.706525,-0.278192,2.744557,-0.727539,0.548828,0.019531,0.211094,-0.115335,-0.120724,0.999899,-0.003533,-0.001391,0.013722,0.519380,-0.039215,-0.793583,0.314535
60289,NaN,20.900267,-18.861141,-13.321179,6.362280,-0.534396,20.669666,-1.142133,-0.497088,3.479448,-0.704834,0.578857,0.030029,0.212579,-0.185688,-0.131620,0.999829,-0.005710,-0.002485,0.017396,0.511614,-0.055200,-0.795860,0.319079
60290,NaN,21.489408,-22.203421,-11.586403,4.556576,-3.027741,22.729092,-1.056027,-0.678243,3.985307,-0.684570,0.610840,0.040283,0.219658,-0.218294,-0.113965,0.999782,-0.005280,-0.003391,0.019925,0.502304,-0.072841,-0.798072,0.324754
60291,NaN,19.750519,-24.670523,-12.012662,5.254462,-4.640440,23.258345,-0.856887,-1.046998,4.397655,-0.664307,0.642822,0.052734,0.203494,-0.242783,-0.118026,0.999735,-0.004284,-0.005235,0.021986,0.490532,-0.090822,-0.800287,0.332671
60292,NaN,22.238491,-19.370045,-9.778060,0.168568,0.573711,21.249303,0.080865,-1.262843,4.227984,-0.639404,0.668457,0.054688,0.227024,-0.188894,-0.096434,0.999757,0.000404,-0.006314,0.021138,0.478554,-0.105816,-0.801178,0.343369
60293,NaN,18.889392,-13.467213,-7.362803,-1.811239,3.123263,14.255174,0.208265,-1.321015,4.030947,-0.618896,0.698486,0.060791,0.192037,-0.130747,-0.072504,0.999775,0.001041,-0.006605,0.020153,0.466335,-0.119174,-0.801675,0.354465
60294,NaN,15.051919,-8.903025,-6.338990,-1.785383,4.611443,8.117936,0.119159,-1.274331,3.862044,-0.587402,0.719971,0.067139,0.152600,-0.086059,-0.062474,0.999793,0.000596,-0.006371,0.019309,0.454573,-0.132483,-0.802001,0.364151
60295,NaN,11.164829,-6.994322,-4.785638,-1.537811,3.590455,3.648260,0.016287,-1.122709,3.632279,-0.568848,0.747803,0.071045,0.113160,-0.067893,-0.047230,0.999819,0.000081,-0.005613,0.018160,0.443377,-0.144943,-0.801979,0.373146
60296,NaN,8.793528,-5.144971,-3.486865,-1.711279,3.228912,0.315946,0.050030,-1.098750,3.313896,-0.545898,0.766846,0.072998,0.088961,-0.049973,-0.034394,0.999848,0.000250,-0.005493,0.016569,0.433013,-0.156427,-0.801826,0.380927
60297,NaN,7.635139,-2.809992,-2.022035,-2.599776,3.623938,-2.714609,0.128681,-1.035795,2.906748,-0.527100,0.781982,0.072998,0.076852,-0.026973,-0.019841,0.999881,0.000643,-0.005179,0.014533,0.423363,-0.165810,-0.801461,0.388498
60298,NaN,5.973998,0.222701,-0.569736,-3.078883,4.006421,-6.567710,0.087964,-0.886466,2.451620,-0.512451,0.794678,0.079102,0.059731,0.002962,-0.005431,0.999915,0.000440,-0.004432,0.012258,0.415366,-0.174051,-0.801095,0.394238
60299,NaN,4.271660,2.668450,0.842785,-3.340458,3.859187,-9.970953,-0.089385,-0.692820,1.987991,-0.497803,0.807617,0.081299,0.042419,0.027111,0.008563,0.999944,-0.000447,-0.003464,0.009940,0.408561,-0.180824,-0.800943,0.398586
60300,NaN,2.381318,3.716243,1.685451,-2.887211,2.928626,-12.138307,-0.368666,-0.485742,1.591337,-0.489746,0.818115,0.081055,0.023475,0.037381,0.016843,0.999964,-0.001843,-0.002429,0.007957,0.403392,-0.187239,-0.801239,0.400291
60301,NaN,0.817446,3.732372,1.923710,-2.089524,1.836305,-13.062471,-0.571152,-0.272272,1.147695,-0.481201,0.818115,0.091797,0.007934,0.037424,0.019141,0.999979,-0.002856,-0.001361,0.005738,0.399450,-0.192439,-0.801847,0.400560
60302,NaN,0.092386,3.842457,2.082537,-1.736312,1.371543,-13.582825,-0.641444,-0.069886,0.658159,-0.477051,0.826660,0.102539,0.000790,0.038494,0.020702,0.999989,-0.003207,-0.000349,0.003291,0.397530,-0.196422,-0.802669,0.398888
60303,NaN,-0.163993,4.371027,2.370765,-1.780513,1.401019,-14.242149,-0.639861,0.108739,0.158853,-0.477295,0.828857,0.100342,-0.001662,0.043785,0.023569,0.999994,-0.003199,0.000544,0.000794,0.397009,-0.198546,-0.803575,0.396523
60304,NaN,-0.229872,4.815103,2.370333,-1.718383,1.662783,-14.622959,-0.675425,0.252227,-0.284209,-0.483643,0.824463,0.111084,-0.002200,0.048234,0.023543,0.999992,-0.003377,0.001261,-0.001421,0.398210,-0.199411,-0.804728,0.392526
60305,NaN,-0.490449,5.100870,2.367596,-1.549321,1.720815,-14.960798,-0.696121,0.363207,-0.691132,-0.494141,0.820312,0.113281,-0.004685,0.051107,0.023507,0.999986,-0.003481,0.001816,-0.003456,0.400318,-0.198725,-0.806057,0.387978
60306,NaN,-0.993202,4.869838,2.260257,-1.168621,1.378653,-14.964747,-0.751076,0.451270,-1.054151,-0.504883,0.822510,0.117432,-0.009624,0.048834,0.022441,0.999977,-0.003755,0.002256,-0.005271,0.403725,-0.196995,-0.807675,0.381916
60307,NaN,-1.570298,4.390714,1.967913,-0.610087,0.924324,-14.751281,-0.798129,0.530366,-1.385925,-0.519775,0.811768,0.124023,-0.015346,0.044092,0.019544,0.999965,-0.003991,0.002652,-0.006930,0.407703,-0.194014,-0.809472,0.375355
60308,NaN,-1.915847,4.082946,1.653119,-0.179855,0.742372,-14.554996,-0.799866,0.601075,-1.732668,-0.536865,0.807617,0.124023,-0.018754,0.041059,0.016424,0.999950,-0.003999,0.003005,-0.008663,0.412891,-0.189899,-0.811417,0.367507
60309,NaN,-1.603535,3.540391,1.546423,-0.312665,0.711695,-13.922685,-0.741386,0.698951,-2.065614,-0.555664,0.794678,0.128174,-0.015614,0.035624,0.015388,0.999934,-0.003707,0.003495,-0.010328,0.418780,-0.184320,-0.813252,0.359542
60310,NaN,-1.525161,3.117794,1.982263,-0.754484,0.378949,-13.719398,-0.632286,0.835538,-2.376524,-0.574707,0.788330,0.128174,-0.014797,0.031418,0.019786,0.999916,-0.003161,0.004178,-0.011882,0.426130,-0.177638,-0.814781,0.350699
60311,NaN,-1.736736,2.949338,2.308863,-0.950395,0.097064,-13.829138,-0.655089,0.972368,-2.644636,-0.597900,0.773193,0.132568,-0.016862,0.029794,0.023074,0.999895,-0.003275,0.004862,-0.013223,0.434092,-0.169946,-0.816130,0.341490
60312,NaN,-2.094129,2.492478,2.132693,-0.651655,-0.250717,-13.641190,-0.857832,1.116779,-2.852385,-0.621094,0.756104,0.128418,-0.020463,0.025310,0.021334,0.999874,-0.004289,0.005584,-0.014261,0.443017,-0.162211,-0.817506,0.330314
60313,NaN,-2.564244,1.002320,1.505088,0.120474,-1.251913,-12.687144,-1.162049,1.242836,-3.004708,-0.648438,0.737061,0.137207,-0.025393,0.010494,0.015149,0.999851,-0.005810,0.006214,-0.015023,0.452041,-0.154531,-0.818995,0.317846
60314,NaN,-3.086436,-0.539322,0.966397,0.861731,-2.409159,-11.862826,-1.409091,1.331878,-3.074142,-0.671387,0.719971,0.135254,-0.030876,-0.004849,0.009905,0.999835,-0.007045,0.006659,-0.015370,0.461475,-0.147368,-0.820470,0.303566
60315,NaN,-3.286404,-2.691146,-0.319050,2.100328,-3.679310,-10.252870,-1.664934,1.354288,-3.061905,-0.690186,0.698486,0.141846,-0.033291,-0.026428,-0.002745,0.999825,-0.008324,0.006771,-0.015309,0.470360,-0.140678,-0.821993,0.288615
60316,NaN,-3.359533,-5.378369,-2.908439,4.427633,-5.022045,-7.852504,-1.780214,1.339500,-2.973610,-0.710693,0.674805,0.150635,-0.034584,-0.053529,-0.028378,0.999827,-0.008901,0.006697,-0.014867,0.479042,-0.134714,-0.823357,0.272861
60317,NaN,-3.576623,-8.536775,-4.927989,6.390671,-7.198129,-5.654632,-1.584061,1.311416,-2.844512,-0.736084,0.657715,0.150879,-0.037298,-0.085230,-0.048363,0.999846,-0.007920,0.006557,-0.014222,0.487171,-0.128566,-0.824175,0.258595
60318,NaN,-4.247029,-10.666904,-6.426224,8.098090,-9.034414,-4.723197,-1.368034,1.199711,-2.612537,-0.748535,0.645020,0.157471,-0.044244,-0.106534,-0.063271,0.999873,-0.006840,0.005998,-0.013062,0.494717,-0.122923,-0.824587,0.245358
60319,NaN,-4.278200,-11.658733,-6.777139,8.460868,-9.981647,-4.434316,-1.173000,1.012448,-2.308735,-0.767334,0.629883,0.157471,-0.044467,-0.116474,-0.066866,0.999903,-0.005865,0.005062,-0.011543,0.500945,-0.117536,-0.824869,0.234158
60320,NaN,-4.313526,-12.470469,-6.728767,8.470047,-10.875969,-4.394402,-0.731431,0.869401,-1.967394,-0.777344,0.612793,0.149170,-0.044651,-0.124515,-0.066640,0.999935,-0.003657,0.004347,-0.009837,0.506462,-0.112629,-0.824650,0.225305
60321,NaN,-5.926139,-12.744427,-5.051596,7.778827,-12.299996,-6.458307,-0.145473,0.806121,-1.646391,-0.788086,0.606445,0.151367,-0.060511,-0.126986,-0.050181,0.999958,-0.000727,0.004031,-0.008232,0.511528,-0.107112,-0.823673,0.220065
60322,NaN,-8.269584,-11.809029,-2.850868,6.894804,-12.977783,-9.840213,0.650702,0.847175,-1.433336,-0.796387,0.597900,0.136475,-0.083660,-0.117400,-0.028538,0.999960,0.003253,0.004236,-0.007167,0.516926,-0.100875,-0.821544,0.218351
60323,NaN,-26.674577,-34.797406,-5.257497,18.848346,-39.768725,-13.444752,1.173715,0.647134,-1.117961,-0.793945,0.593750,0.147217,-0.268857,-0.346162,-0.053742,0.999962,0.005868,0.003236,-0.005590,0.521367,-0.093952,-0.819131,0.219940
60324,NaN,-14.233178,-61.955458,-47.749504,52.650549,-48.259826,25.106141,-2.556814,-1.404444,2.038884,-0.779541,0.610840,0.151367,-0.132645,-0.626984,-0.470465,0.999842,-0.012783,-0.007022,0.010194,0.511900,-0.107685,-0.824563,0.215541
60325,NaN,15.404526,-11.224623,-3.691363,-3.110984,-2.763984,9.150227,0.966516,0.895172,0.859408,-0.775391,0.617188,0.144775,0.154356,-0.111401,-0.038144,0.999969,0.004833,0.004476,0.004297,0.515160,-0.109716,-0.820750,0.221229
60326,NaN,15.576731,22.365500,10.056189,-16.747568,23.643611,-11.920998,-1.799253,0.163334,1.140921,-0.764893,0.621338,0.155518,0.154566,0.225431,0.098413,0.999943,-0.008996,0.000817,0.005704,0.513169,-0.119734,-0.821737,0.216957
60327,NaN,-1.881253,4.899656,-21.700831,20.115799,8.645019,-5.443664,0.671795,-0.308610,0.511748,-0.762695,0.619385,0.157715,-0.018604,0.049677,-0.216871,0.999990,0.003359,-0.001543,0.002559,0.511732,-0.119778,-0.821493,0.221206
60328,NaN,18.782650,-22.993130,-7.241072,-1.577813,-10.530496,18.831454,-2.174875,-0.742197,-0.224994,-0.754150,0.619141,0.162109,0.187828,-0.230907,-0.069206,0.999933,-0.010874,-0.003711,-0.001125,0.507322,-0.124441,-0.825950,0.212002
60329,NaN,30.333993,-18.066463,-0.853323,-12.647143,-2.868671,23.036664,2.002626,0.293406,0.022492,-0.756348,0.621338,0.151367,0.303346,-0.180530,-0.010786,0.999949,0.010013,0.001467,0.000112,0.509720,-0.119760,-0.823035,0.220130
60330,NaN,9.178277,-1.434835,4.367716,-8.010461,1.594697,-3.594512,-0.992591,0.071646,0.073978,-0.758545,0.621338,0.161865,0.091804,-0.014098,0.043715,0.999988,-0.004963,0.000358,0.000370,0.509009,-0.123097,-0.823973,0.216390
60331,NaN,19.615171,-13.012994,1.682587,-10.103140,-3.488100,11.227357,0.247680,0.141570,-0.041598,-0.758301,0.619385,0.153320,0.196136,-0.130191,0.016526,0.999999,0.001238,0.000708,-0.000208,0.509778,-0.122451,-0.823378,0.217212
60332,NaN,18.637046,-7.343037,-2.490503,-5.988176,2.091324,9.350534,-0.113230,0.631165,0.359209,-0.751709,0.617188,0.155762,0.186422,-0.073110,-0.025452,0.999993,-0.000566,0.003156,0.001796,0.511584,-0.124988,-0.821750,0.217682
60333,NaN,10.812895,-5.691357,-4.966990,-0.266545,0.786155,3.351359,-0.449589,0.256235,0.021620,-0.756104,0.617188,0.157715,0.108071,-0.057014,-0.049680,0.999997,-0.002248,0.001281,0.000108,0.512319,-0.126508,-0.821576,0.215724
60334,NaN,12.225832,-9.384412,-5.333578,-0.503386,-1.757852,6.393536,0.047054,0.177496,-0.058849,-0.758545,0.627930,0.155518,0.122183,-0.093868,-0.053466,1.000000,0.000235,0.000887,-0.000294,0.512824,-0.126328,-0.821192,0.216094
60335,NaN,9.482066,-8.478509,-4.159497,-0.314845,-2.411415,3.347169,0.393054,0.149977,-0.214116,-0.762695,0.619385,0.146973,0.094699,-0.084804,-0.041833,0.999997,0.001965,0.000750,-0.001071,0.513906,-0.124606,-0.820524,0.217059
60336,NaN,9.033408,-7.357054,-2.423204,-1.650272,-2.026409,1.796388,0.354538,0.103213,-0.387461,-0.764648,0.617188,0.144775,0.090179,-0.073702,-0.024409,0.999996,0.001773,0.000516,-0.001937,0.514637,-0.122125,-0.820200,0.217961
60337,NaN,9.651191,-7.990648,-3.247827,-1.111635,-2.156432,2.901791,0.403230,0.207559,-0.428342,-0.770996,0.614990,0.134033,0.096307,-0.080047,-0.032740,0.999995,0.002016,0.001038,-0.002142,0.516187,-0.119560,-0.819492,0.218380
60338,NaN,10.134294,-7.066667,-4.415151,-0.235313,-0.892920,3.274786,0.421941,0.301939,-0.523657,-0.772949,0.610840,0.138428,0.101091,-0.070838,-0.044454,0.999993,0.002110,0.001510,-0.002618,0.517899,-0.116456,-0.818648,0.219166
60339,NaN,9.984285,-6.600451,-5.603895,0.965429,-0.301940,3.364243,0.519044,0.348986,-0.639251,-0.772705,0.604248,0.125732,0.099533,-0.066177,-0.056384,0.999990,0.002595,0.001745,-0.003196,0.520313,-0.112880,-0.817548,0.219426
60340,NaN,10.047556,-6.158120,-5.556153,0.964543,0.070646,3.180016,0.612041,0.376722,-0.739448,-0.779053,0.600098,0.123535,0.100142,-0.061781,-0.055939,0.999987,0.003060,0.001884,-0.003697,0.522656,-0.108458,-0.816391,0.220394
60341,NaN,9.765388,-6.183737,-4.970949,0.663201,-0.258556,2.749313,0.706546,0.403021,-0.848245,-0.785400,0.595947,0.114990,0.097290,-0.062074,-0.050125,0.999983,0.003533,0.002015,-0.004241,0.525597,-0.103595,-0.815013,0.220836
60342,NaN,9.127195,-6.068204,-4.199053,0.339068,-0.649913,1.901496,0.776569,0.452357,-0.945078,-0.795898,0.589355,0.108643,0.090889,-0.060948,-0.042433,0.999979,0.003883,0.002262,-0.004725,0.528532,-0.097985,-0.813525,0.221880
60343,NaN,8.284266,-5.686445,-3.506599,0.156002,-0.880151,0.792055,0.783742,0.513626,-1.029949,-0.801758,0.574463,0.098145,0.082458,-0.057151,-0.035502,0.999976,0.003919,0.002568,-0.005150,0.532122,-0.092296,-0.811791,0.222086
60344,NaN,7.742176,-5.320464,-3.170135,0.157431,-0.905237,0.059129,0.770146,0.571105,-1.089633,-0.816895,0.574463,0.087402,0.077039,-0.053502,-0.032127,0.999974,0.003851,0.002855,-0.005448,0.535647,-0.086216,-0.809980,0.222668
60345,NaN,7.240214,-4.932416,-3.082850,0.357808,-0.834145,-0.569946,0.737934,0.599981,-1.140208,-0.820801,0.568115,0.076660,0.072027,-0.049621,-0.031228,0.999972,0.003690,0.003000,-0.005701,0.539638,-0.080293,-0.808029,0.222336
60346,NaN,6.717071,-4.491708,-3.148839,0.683059,-0.668303,-1.193213,0.744505,0.578699,-1.184518,-0.828857,0.553223,0.072510,0.066812,-0.045195,-0.031850,0.999971,0.003722,0.002893,-0.005923,0.543231,-0.073875,-0.806170,0.222559
60347,NaN,6.221734,-4.145020,-3.425351,1.186057,-0.513108,-1.691527,0.788573,0.537748,-1.186999,-0.832764,0.540283,0.060059,0.061878,-0.041682,-0.034584,0.999971,0.003943,0.002689,-0.005935,0.546983,-0.067550,-0.804255,0.222306
60348,NaN,6.196574,-3.528924,-3.327813,1.108499,-0.037358,-2.022033,0.824368,0.483910,-1.155964,-0.841309,0.538330,0.049316,0.061680,-0.035508,-0.033574,0.999972,0.004122,0.002420,-0.005780,0.550133,-0.060917,-0.802457,0.222947
60349,NaN,6.194892,-2.958833,-3.131631,0.922574,0.372660,-2.332853,0.789139,0.433148,-1.118545,-0.853760,0.527588,0.042969,0.061714,-0.029810,-0.031567,0.999974,0.003946,0.002166,-0.005593,0.553331,-0.054746,-0.800715,0.222898
60350,NaN,5.966103,-2.911767,-2.962956,0.911797,0.255431,-2.604718,0.693298,0.394257,-1.039809,-0.855469,0.516846,0.038818,0.059450,-0.029324,-0.029848,0.999979,0.003466,0.001971,-0.005199,0.555909,-0.048853,-0.799189,0.223327
60351,NaN,5.457465,-3.161606,-2.576508,0.853225,-0.286891,-3.059361,0.608060,0.346266,-0.950850,-0.864014,0.512695,0.034424,0.054379,-0.031796,-0.025956,0.999983,0.003040,0.001731,-0.004754,0.558481,-0.043755,-0.797775,0.223024
60352,NaN,5.380146,-3.147975,-2.413090,0.780054,-0.375476,-3.184793,0.591118,0.254041,-0.878026,-0.865967,0.506104,0.023926,0.053632,-0.031644,-0.024292,0.999985,0.002956,0.001270,-0.004390,0.560261,-0.038643,-0.796655,0.223506
60353,NaN,5.993454,-3.267770,-2.234504,0.459392,-0.376864,-2.654509,0.585533,0.175215,-0.759942,-0.867676,0.497559,0.026123,0.059790,-0.032839,-0.022493,0.999988,0.002928,0.000876,-0.003800,0.561902,-0.034177,-0.795656,0.223672
60354,NaN,6.570856,-2.973779,-1.752386,-0.211801,-0.113623,-2.394304,0.482011,0.135141,-0.648005,-0.867432,0.491211,0.019775,0.065600,-0.029908,-0.017640,0.999992,0.002410,0.000676,-0.003240,0.562909,-0.030147,-0.794907,0.224384
60355,NaN,6.795725,-3.340009,-1.521687,-0.393854,-0.477112,-2.113975,0.356871,0.150011,-0.528733,-0.878174,0.491211,0.015381,0.067857,-0.033552,-0.015328,0.999995,0.001784,0.000750,-0.002644,0.564136,-0.027216,-0.794169,0.224290
60356,NaN,6.745612,-4.028784,-1.886866,0.133634,-1.008317,-1.796457,0.316714,0.203278,-0.443417,-0.875977,0.484863,0.015625,0.067347,-0.040407,-0.019001,0.999996,0.001584,0.001016,-0.002217,0.565149,-0.024517,-0.793357,0.224921
60357,NaN,6.414142,-4.222744,-1.782439,0.235622,-1.330433,-2.045822,0.324051,0.196426,-0.381694,-0.873535,0.480469,0.009277,0.064043,-0.042321,-0.017956,0.999996,0.001620,0.000982,-0.001908,0.566382,-0.022315,-0.792491,0.225103
60358,NaN,6.982679,-3.909152,-1.730654,-0.053581,-0.906156,-1.675712,0.427330,0.099860,-0.298297,-0.875732,0.478516,0.002686,0.069760,-0.039158,-0.017425,0.999996,0.002137,0.000499,-0.001491,0.566821,-0.019730,-0.791812,0.226623
60359,NaN,8.111420,-2.743087,-1.921447,-0.521079,0.524933,-1.068289,0.489556,0.083623,-0.178921,-0.884277,0.478516,0.004883,0.081082,-0.027456,-0.019316,0.999997,0.002448,0.000418,-0.000895,0.567388,-0.017737,-0.791045,0.228045
60360,NaN,9.225243,-2.063407,-2.178089,-0.827473,1.549724,-0.272224,0.295599,0.143256,-0.049756,-0.879883,0.476318,0.007080,0.092232,-0.020625,-0.021877,0.999999,0.001478,0.000716,-0.000249,0.567698,-0.016541,-0.790354,0.229750
60361,NaN,9.055790,-2.860314,-2.656371,-0.126968,0.964800,0.000468,0.172505,0.232304,0.046736,-0.882080,0.476318,0.000732,0.090534,-0.028559,-0.026694,0.999999,0.000863,0.001162,0.000234,0.568562,-0.016510,-0.789502,0.230546
60362,NaN,8.856495,-3.681743,-2.545969,0.056069,0.159539,0.109310,0.166671,0.236263,0.084177,-0.881836,0.474121,-0.010010,0.088550,-0.036759,-0.025595,0.999999,0.000833,0.001181,0.000421,0.569083,-0.016328,-0.788679,0.232084
60363,NaN,9.638393,-3.487225,-2.394179,-0.379186,0.531056,0.692812,0.230872,0.256084,0.151839,-0.882080,0.482666,-0.012207,0.096380,-0.034771,-0.024105,0.999998,0.001154,0.001280,0.000759,0.569921,-0.016576,-0.787678,0.233407
60364,NaN,10.398714,-3.446562,-2.159571,-0.848226,0.746774,1.295799,0.221482,0.259086,0.218675,-0.873779,0.484863,-0.012207,0.103997,-0.034328,-0.021768,0.999998,0.001107,0.001295,0.001093,0.570378,-0.016794,-0.786710,0.235531
60365,NaN,11.092718,-3.073944,-1.679320,-1.594482,1.155197,1.652067,0.159908,0.246823,0.304500,-0.875732,0.484863,-0.012207,0.110953,-0.030557,-0.016955,0.999998,0.000800,0.001234,0.001522,0.570988,-0.017835,-0.785800,0.237009
60366,NaN,11.577941,-2.895852,-1.255781,-2.180291,1.364138,1.908952,0.098223,0.240577,0.408870,-0.873779,0.489258,-0.018799,0.115823,-0.028716,-0.012711,0.999997,0.000491,0.001203,0.002044,0.571139,-0.019124,-0.785002,0.239178
60367,NaN,12.265600,-2.664139,-1.153962,-2.558740,1.805098,2.396664,0.078611,0.206603,0.517159,-0.867432,0.493408,-0.020996,0.122712,-0.026320,-0.011677,0.999996,0.000393,0.001033,0.002586,0.571322,-0.021185,-0.784275,0.240945
60368,NaN,13.039116,-2.692902,-0.900648,-3.054365,2.009937,3.021322,0.091503,0.177669,0.620093,-0.872070,0.501953,-0.021240,0.130466,-0.026520,-0.009135,0.999995,0.000458,0.000888,0.003100,0.570976,-0.023234,-0.783626,0.243674
60369,NaN,13.486898,-3.101849,-0.582227,-3.405401,1.770417,3.496140,0.169936,0.133822,0.703598,-0.863770,0.510498,-0.023438,0.134973,-0.030539,-0.005939,0.999993,0.000850,0.000669,0.003518,0.570644,-0.025678,-0.782960,0.246334
60370,NaN,14.324479,-2.674344,-0.715923,-3.698847,2.572281,4.063769,0.276873,0.086813,0.801487,-0.859619,0.517090,-0.019043,0.143347,-0.026159,-0.007258,0.999991,0.001384,0.000434,0.004007,0.569741,-0.027776,-0.782290,0.250293
60371,NaN,14.822888,-2.040664,-0.674587,-4.083127,3.398402,4.191410,0.319106,0.093057,0.900085,-0.855713,0.525635,-0.025635,0.148316,-0.019728,-0.006847,0.999988,0.001596,0.000465,0.004500,0.569001,-0.030513,-0.781501,0.254092
60372,NaN,15.214608,-1.953588,-0.713951,-4.235423,3.760870,4.460558,0.334944,0.108481,0.992149,-0.854004,0.538574,-0.030029,0.152237,-0.018769,-0.007254,0.999986,0.001675,0.000542,0.004961,0.567948,-0.033214,-0.780624,0.258764
60373,NaN,15.783847,-1.903429,-0.813255,-4.383499,4.196397,4.904198,0.445819,0.116010,1.103388,-0.845459,0.544922,-0.034424,0.157935,-0.018145,-0.008265,0.999982,0.002229,0.000580,0.005517,0.567021,-0.036414,-0.779530,0.263617
60374,NaN,18.017701,-1.474642,-0.114337,-5.949434,5.285109,6.419782,0.673179,0.087199,1.194965,-0.843750,0.555664,-0.034668,0.180260,-0.013665,-0.001269,0.999976,0.003366,0.000436,0.005975,0.565670,-0.038931,-0.778169,0.270102
60375,NaN,19.451943,-1.415434,1.734561,-8.175802,5.383961,7.144731,0.726794,0.176092,1.351338,-0.833252,0.566406,-0.043213,0.194625,-0.012902,0.017126,0.999970,0.003634,0.000880,0.006757,0.564639,-0.042379,-0.776412,0.276713
60376,NaN,17.810426,-1.107585,2.200249,-8.113019,5.085710,5.405309,0.815272,0.283764,1.585885,-0.827393,0.583496,-0.050049,0.178216,-0.009752,0.021708,0.999959,0.004076,0.001419,0.007929,0.563522,-0.046277,-0.774107,0.284710
60377,NaN,19.816974,2.064520,0.119030,-7.785314,9.605085,5.811298,1.048603,0.342461,1.831533,-0.812988,0.600586,-0.060791,0.197971,0.022453,0.000966,0.999943,0.005243,0.001712,0.009157,0.562435,-0.050905,-0.771191,0.293838
60378,NaN,18.885745,4.397393,-2.090662,-6.121168,12.309463,4.021078,1.254528,0.222760,2.021924,-0.800781,0.617676,-0.063232,0.188376,0.046011,-0.020832,0.999929,0.006272,0.001114,0.010109,0.560500,-0.055182,-0.768125,0.304596
60379,NaN,18.611123,5.257181,-5.684450,-3.128197,14.648414,3.675913,0.976888,0.023378,2.293958,-0.792725,0.639160,-0.072021,0.185483,0.054979,-0.056602,0.999922,0.004884,0.000117,0.011469,0.557306,-0.061294,-0.765888,0.314750
60380,NaN,21.192761,-0.027424,-8.877405,-0.014135,13.313703,8.913147,0.038366,0.010928,2.834270,-0.772217,0.664795,-0.070068,0.211898,0.002746,-0.088785,0.999900,0.000192,0.000055,0.014171,0.552891,-0.071964,-0.764826,0.322761
60381,NaN,23.235368,-1.863889,-10.691714,1.121992,14.075888,11.594018,-1.274206,0.070921,3.270682,-0.745361,0.697021,-0.057617,0.232587,-0.015518,-0.106894,0.999846,-0.006371,0.000355,0.016353,0.547324,-0.088105,-0.765400,0.326859
60382,NaN,24.526836,-8.157294,-11.426392,2.420848,10.687575,16.236147,-2.201208,0.105338,3.641477,-0.720947,0.735352,-0.045166,0.246655,-0.078342,-0.113519,0.999774,-0.011005,0.000527,0.018206,0.540900,-0.108453,-0.766898,0.327921
60383,NaN,22.621891,-16.563951,-9.866424,2.815327,3.365102,19.583283,-2.233580,0.197534,4.122098,-0.694092,0.765381,-0.030518,0.229487,-0.162022,-0.097067,0.999725,-0.011167,0.000988,0.020609,0.533523,-0.130600,-0.767588,0.330312
60384,NaN,19.311011,-17.052422,-10.600376,4.158420,2.195886,17.643748,-2.188603,-0.090870,4.527052,-0.658691,0.801514,-0.007324,0.196968,-0.167241,-0.104073,0.999684,-0.010942,-0.000454,0.022633,0.524414,-0.154065,-0.768181,0.333394
60385,NaN,17.775355,-18.203506,-9.655232,3.267795,0.981875,17.183316,-2.014551,-0.167465,5.057390,-0.621338,0.835693,0.013672,0.182376,-0.178421,-0.094591,0.999629,-0.010072,-0.000837,0.025284,0.513579,-0.178441,-0.767805,0.338927
60386,NaN,21.136171,-23.412276,-8.643428,0.447588,0.166240,22.884721,-1.502765,-0.620104,5.205600,-0.579590,0.874268,0.036865,0.217633,-0.229150,-0.084032,0.999628,-0.007513,-0.003100,0.026025,0.501199,-0.201708,-0.766912,0.346352
60387,NaN,23.318022,-20.519421,-10.750301,0.405313,5.596259,22.570110,-0.926177,-0.868460,5.072362,-0.539795,0.904053,0.045410,0.238753,-0.199677,-0.105541,0.999658,-0.004630,-0.004342,0.025359,0.487963,-0.221911,-0.765321,0.356273
60388,NaN,20.299339,-13.674807,-8.212901,-1.307743,8.309928,14.592827,-0.421809,-0.606112,4.866240,-0.504150,0.929688,0.051514,0.206490,-0.131924,-0.081225,0.999697,-0.002109,-0.003030,0.024329,0.476776,-0.241023,-0.761776,0.366457
60389,NaN,15.077865,-8.646107,-5.630965,-1.680618,7.673764,6.680939,-0.527335,-0.531359,4.636196,-0.468750,0.961914,0.064209,0.152879,-0.083081,-0.055683,0.999724,-0.002636,-0.002657,0.023179,0.465474,-0.258904,-0.758218,0.376043
60390,NaN,12.733936,-5.345995,-4.112244,-2.100069,7.922219,2.038130,-0.613590,-0.534027,4.356813,-0.430908,0.983154,0.074707,0.128574,-0.050793,-0.040622,0.999754,-0.003068,-0.002670,0.021782,0.454906,-0.276541,-0.754567,0.383685
60391,NaN,9.891632,-3.987302,-2.900686,-2.001427,6.484734,-1.090019,-0.790454,-0.331985,4.028437,-0.401367,1.002441,0.081055,0.099742,-0.037983,-0.028689,0.999788,-0.003952,-0.001660,0.020141,0.444720,-0.292846,-0.751114,0.390247
60392,NaN,7.629976,-1.534208,-2.016637,-1.631381,5.945747,-4.653444,-0.880042,-0.158283,3.660289,-0.371826,1.015137,0.091553,0.076580,-0.014031,-0.020042,0.999823,-0.004400,-0.000791,0.018300,0.436302,-0.309067,-0.747387,0.394373
60393,NaN,6.193534,0.869777,-0.996102,-1.634055,5.780766,-7.808146,-1.011912,0.055577,3.189912,-0.350830,1.030029,0.100098,0.061784,0.009633,-0.010025,0.999860,-0.005059,0.000278,0.015949,0.428577,-0.323266,-0.744233,0.397414
60394,NaN,5.524583,3.408065,-0.174741,-1.627940,6.226291,-10.676886,-1.227802,0.381171,2.634139,-0.334229,1.044922,0.112793,0.054787,0.034792,-0.002064,0.999893,-0.006139,0.001906,0.013170,0.423515,-0.337393,-0.741135,0.396887
60395,NaN,3.929859,5.242026,0.778544,-1.389000,5.440392,-13.276659,-1.399581,0.688780,2.089331,-0.325684,1.044922,0.127930,0.038773,0.052879,0.007282,0.999915,-0.006998,0.003444,0.010446,0.419507,-0.349441,-0.738872,0.394934
60396,NaN,2.759038,6.194904,1.830659,-1.517655,4.564282,-14.931515,-1.481370,0.898641,1.579170,-0.315186,1.053467,0.140625,0.027180,0.062297,0.017723,0.999931,-0.007407,0.004493,0.007896,0.417958,-0.361197,-0.736635,0.390151
60397,NaN,2.410526,5.906217,1.927173,-1.389761,4.117261,-14.864754,-1.414077,1.029648,1.078384,-0.321777,1.059814,0.157715,0.023883,0.059325,0.018730,0.999947,-0.007070,0.005148,0.005392,0.417053,-0.370117,-0.735261,0.385320
60398,NaN,1.486492,5.758449,2.204602,-1.205940,3.214629,-15.145682,-1.167081,1.177149,0.525682,-0.328369,1.057861,0.157715,0.014841,0.057751,0.021622,0.999962,-0.005835,0.005886,0.002628,0.419103,-0.377857,-0.733520,0.378847
60399,NaN,0.670916,6.045148,1.924408,-0.520395,2.731730,-15.554090,-0.920330,1.251721,-0.053732,-0.341309,1.059814,0.168213,0.006845,0.060537,0.018923,0.999970,-0.004602,0.006259,-0.000269,0.422027,-0.381952,-0.732726,0.372987
60400,NaN,0.398010,6.482289,1.669157,-0.035122,2.803510,-15.903915,-0.784511,1.318710,-0.640547,-0.364990,1.060059,0.170410,0.004297,0.064874,0.016410,0.999965,-0.003923,0.006593,-0.003203,0.427461,-0.384860,-0.732030,0.365092
60401,NaN,0.346274,6.715376,1.416794,0.293164,2.999245,-15.988524,-0.707354,1.413954,-1.228466,-0.388428,1.053467,0.176758,0.003974,0.067180,0.013903,0.999950,-0.003537,0.007070,-0.006142,0.433479,-0.384441,-0.732633,0.357142
60402,NaN,0.438116,6.155616,1.456697,0.101560,2.938181,-15.430579,-0.593501,1.542809,-1.769663,-0.418457,1.049316,0.172363,0.005037,0.061556,0.014347,0.999927,-0.002967,0.007714,-0.008848,0.442033,-0.383172,-0.733094,0.346930
60403,NaN,-0.180314,5.495133,1.774775,-0.175418,2.171742,-15.163349,-0.468230,1.695492,-2.242625,-0.452393,1.036621,0.172363,-0.001037,0.055007,0.017630,0.999898,-0.002341,0.008477,-0.011213,0.451179,-0.378892,-0.734387,0.336977
60404,NaN,-0.068094,5.082795,2.049319,-0.585623,2.183115,-14.805444,-0.402168,1.861160,-2.684012,-0.492920,1.030273,0.170166,0.000192,0.050870,0.020392,0.999865,-0.002011,0.009305,-0.013419,0.462601,-0.374263,-0.735237,0.324585
60405,NaN,0.288950,4.351757,2.165996,-1.011262,2.254248,-14.008620,-0.379093,2.043523,-3.075579,-0.543945,1.013184,0.163574,0.003779,0.043505,0.021542,0.999828,-0.001895,0.010217,-0.015377,0.474299,-0.367089,-0.736762,0.312200
60406,NaN,0.492659,3.813556,2.155072,-1.209413,2.295920,-13.375496,-0.405086,2.215130,-3.428789,-0.588379,0.991943,0.163818,0.005818,0.038084,0.021412,0.999790,-0.002025,0.011075,-0.017143,0.487809,-0.360049,-0.737666,0.297080
60407,NaN,1.051875,3.087486,1.911897,-1.324011,2.497707,-12.322759,-0.494710,2.371926,-3.733556,-0.643555,0.970459,0.153076,0.011318,0.030715,0.018912,0.999752,-0.002473,0.011859,-0.018666,0.501075,-0.350923,-0.739162,0.281809
60408,NaN,1.728441,2.091179,1.519193,-1.351689,2.568800,-10.926637,-0.579179,2.525617,-4.002303,-0.692139,0.940674,0.144775,0.017888,0.020601,0.014909,0.999716,-0.002896,0.012627,-0.020010,0.515671,-0.342302,-0.739855,0.263682
60409,NaN,1.857287,0.963723,0.898102,-1.045008,2.018941,-9.687587,-0.680407,2.665816,-4.230372,-0.740723,0.915039,0.136230,0.018889,0.009270,0.008699,0.999682,-0.003402,0.013328,-0.021150,0.529764,-0.331818,-0.740892,0.245613
60410,NaN,1.982338,-0.177510,0.099765,-0.547022,1.342375,-8.445551,-0.800279,2.756653,-4.408502,-0.795166,0.878662,0.121582,0.019789,-0.002208,0.000733,0.999654,-0.004001,0.013782,-0.022040,0.544582,-0.322146,-0.741030,0.224781
60411,NaN,2.465189,-0.665740,-0.604196,-0.049713,1.250528,-7.506728,-0.908115,2.832946,-4.547113,-0.845459,0.842529,0.104736,0.024403,-0.007243,-0.006357,0.999631,-0.004540,0.014163,-0.022733,0.558509,-0.310841,-0.741397,0.204391
60412,NaN,3.569911,-1.726521,-1.518844,0.431360,1.027854,-5.715753,-1.019488,2.843094,-4.651460,-0.901855,0.795410,0.090088,0.035064,-0.018165,-0.015599,0.999616,-0.005097,0.014214,-0.023254,0.572604,-0.300495,-0.740862,0.181525
60413,NaN,4.326862,-3.404711,-3.215780,1.597570,-0.155901,-3.642771,-0.957635,2.815813,-4.752336,-0.949951,0.752686,0.069092,0.041984,-0.035210,-0.032588,0.999607,-0.004788,0.014077,-0.023759,0.585668,-0.288077,-0.740528,0.160071
60414,NaN,4.837753,-5.494014,-4.265587,2.098057,-1.998957,-1.852353,-0.654142,2.717814,-4.848641,-0.997803,0.707764,0.056641,0.046441,-0.056222,-0.043113,0.999608,-0.003270,0.013587,-0.024240,0.598925,-0.275354,-0.739239,0.137821
60415,NaN,5.951583,-6.963565,-4.357227,1.780111,-3.047028,-0.303824,-0.286925,2.558624,-4.912854,-1.036621,0.654541,0.022949,0.057218,-0.071123,-0.044213,0.999615,-0.001434,0.012791,-0.024561,0.611127,-0.259719,-0.738265,0.118473
60416,NaN,7.026919,-8.874583,-4.759150,1.689718,-4.709966,1.399340,-0.048770,2.367376,-4.871755,-1.081787,0.594482,-0.002197,0.067510,-0.090425,-0.048380,0.999633,-0.000244,0.011835,-0.024356,0.622821,-0.244378,-0.736641,0.098663
60417,NaN,7.357020,-10.782419,-5.601022,2.154658,-6.933464,2.393736,0.059829,2.193604,-4.722062,-1.123047,0.545410,-0.029541,0.070378,-0.109494,-0.056826,0.999661,0.000299,0.010967,-0.023608,0.633077,-0.227806,-0.735311,0.081463
60418,NaN,7.932238,-12.451972,-6.111947,2.320108,-8.888487,3.259698,0.011494,2.099349,-4.504190,-1.151367,0.491943,-0.058838,0.075845,-0.126250,-0.061935,0.999691,0.000057,0.010496,-0.022519,0.642681,-0.213041,-0.733186,0.063347
60419,NaN,8.170207,-13.525864,-5.816586,1.887405,-10.328503,3.349470,-0.215952,2.021047,-4.201990,-1.171387,0.449219,-0.075439,0.078244,-0.136990,-0.058821,0.999728,-0.001080,0.010104,-0.021008,0.651002,-0.198920,-0.731047,0.046879
60420,NaN,7.930935,-13.554360,-5.964524,2.076251,-11.051803,2.665283,-0.632128,1.909051,-3.808336,-1.190918,0.395752,-0.096191,0.076136,-0.137203,-0.059950,0.999768,-0.003160,0.009545,-0.019040,0.658215,-0.188286,-0.728325,0.029054
60421,NaN,7.528943,-13.585710,-6.763623,2.851449,-11.875665,1.926299,-1.130135,1.834417,-3.359285,-1.210938,0.357178,-0.123535,0.072370,-0.137471,-0.067535,0.999801,-0.005650,0.009171,-0.016795,0.664175,-0.180008,-0.725480,0.012145
60422,NaN,6.574572,-13.706041,-7.427168,3.376120,-12.852810,0.657168,-1.683367,1.784170,-2.888560,-1.222412,0.316650,-0.137939,0.063092,-0.138606,-0.073680,0.999820,-0.008416,0.008920,-0.014442,0.669229,-0.175780,-0.721940,-0.006034
60423,NaN,5.184419,-14.205862,-8.424555,4.045939,-14.283478,-0.911080,-2.156234,1.717103,-2.432973,-1.234131,0.286621,-0.159180,0.049387,-0.143570,-0.083134,0.999831,-0.010781,0.008585,-0.012164,0.673332,-0.174139,-0.718157,-0.023472
60424,NaN,3.475326,-14.908568,-9.566010,4.660722,-15.948892,-2.760755,-2.396233,1.609709,-2.041813,-1.248535,0.269531,-0.180420,0.032459,-0.150559,-0.094129,0.999844,-0.011981,0.008048,-0.010209,0.676668,-0.174984,-0.714026,-0.040838
60425,NaN,1.730656,-15.727988,-11.107633,5.532662,-17.776087,-4.605658,-2.326554,1.410335,-1.692360,-1.254395,0.248291,-0.186523,0.015193,-0.158693,-0.109348,0.999872,-0.011632,0.007051,-0.008461,0.679222,-0.176510,-0.710178,-0.056105
60426,NaN,-0.191661,-15.726738,-12.098708,6.109684,-18.635295,-6.792723,-1.948103,1.134195,-1.398699,-1.255859,0.233154,-0.203369,-0.003702,-0.158414,-0.119430,0.999912,-0.009740,0.005671,-0.006993,0.681043,-0.177870,-0.706970,-0.068821
60427,NaN,-2.063787,-15.666146,-12.385450,6.094525,-19.109125,-8.934312,-1.438630,0.787951,-1.150164,-1.259766,0.218262,-0.209717,-0.022026,-0.157423,-0.122639,0.999950,-0.007193,0.003940,-0.005751,0.682106,-0.178431,-0.704789,-0.078526
60428,NaN,-4.309692,-15.146858,-11.475862,5.249208,-18.688959,-11.503764,-0.800426,0.421841,-0.979707,-1.270020,0.205322,-0.209473,-0.044081,-0.151712,-0.114059,0.999978,-0.004002,0.002109,-0.004898,0.682442,-0.177301,-0.704037,-0.084669
60429,NaN,-2.840262,-13.631610,-7.845337,2.345073,-15.789374,-10.607296,0.039356,0.323825,-0.954053,-1.271484,0.188232,-0.219971,-0.029179,-0.136163,-0.078433,0.999987,0.000197,0.001619,-0.004770,0.683191,-0.173678,-0.703796,-0.088078
60430,NaN,13.454933,-19.156499,-6.875223,-0.580805,-18.555333,6.018770,0.845214,-0.199985,-0.645021,-1.281982,0.181885,-0.221924,0.134000,-0.191705,-0.069428,0.999985,0.004226,-0.001000,-0.003225,0.682903,-0.168130,-0.705632,-0.086364
60432,NaN,51.173014,-13.882611,-4.143404,-2.665789,-15.601388,95.370063,0.534151,0.067371,0.929749,-1.276367,0.207520,-0.224609,1.025923,-0.267671,-0.085006,0.999942,0.005341,0.000674,0.009297,0.685028,-0.170983,-0.704039,-0.076360
60433,NaN,5.624759,-4.155414,-7.223975,5.292754,-5.561561,-3.320703,-2.023636,0.082282,1.441885,-1.272949,0.233398,-0.222656,0.056519,-0.041876,-0.071840,0.999923,-0.010118,0.000411,0.007209,0.684080,-0.182244,-0.702009,-0.077491
60434,NaN,-11.787370,1.650353,-2.049172,2.482951,-1.087712,-21.581831,0.634905,-0.803542,1.810563,-1.271484,0.250488,-0.218750,-0.117934,0.015502,-0.020915,0.999946,0.003174,-0.004018,0.009053,0.682490,-0.186737,-0.703325,-0.068339
60435,NaN,0.812705,10.274375,5.591865,-1.651617,11.543779,-11.038802,0.948882,-0.315407,0.986611,-1.271973,0.265381,-0.218994,0.007532,0.102515,0.056418,0.999975,0.004744,-0.001577,0.004933,0.682545,-0.186392,-0.704102,-0.060256
60436,NaN,8.457289,-1.735845,-6.180905,5.170491,-2.168000,-0.795626,-1.829612,-0.607811,1.032390,-1.266113,0.278320,-0.199707,0.084850,-0.017484,-0.061392,0.999940,-0.009148,-0.003039,0.005162,0.678958,-0.196451,-0.704630,-0.062608
60437,NaN,11.418420,-14.436934,-12.103231,5.884800,-15.221329,4.984322,-1.847733,-1.088817,1.397662,-1.270996,0.293213,-0.182861,0.115846,-0.144670,-0.119069,0.999918,-0.009238,-0.005444,0.006988,0.673635,-0.207415,-0.706610,-0.062425
60438,NaN,11.191762,-11.023337,-1.859563,-2.530661,-8.238139,3.452006,-0.315110,-0.611224,1.244227,-1.265137,0.310303,-0.180908,0.112656,-0.109563,-0.018079,0.999975,-0.001576,-0.003056,0.006221,0.671507,-0.213067,-0.707271,-0.058716
60439,NaN,8.288143,-7.300006,1.061105,-3.816981,-4.296558,-0.321730,-0.153998,-0.508369,1.047341,-1.267578,0.321045,-0.170410,0.083235,-0.072556,0.010878,0.999983,-0.000770,-0.002542,0.005237,0.669778,-0.216766,-0.708149,-0.054168
60440,NaN,9.605140,-6.738873,-3.829905,0.868597,-5.150553,1.370081,-0.502075,-0.724088,1.090825,-1.261963,0.344482,-0.155762,0.096555,-0.066958,-0.037782,0.999975,-0.002510,-0.003620,0.005454,0.666936,-0.222509,-0.709248,-0.051510
60441,NaN,8.264459,-4.413149,-4.214885,2.090823,-3.410798,-0.350327,-0.319717,-0.602564,0.945683,-1.264404,0.351074,-0.151611,0.082979,-0.043807,-0.041829,0.999983,-0.001599,-0.003013,0.004728,0.664613,-0.226400,-0.710457,-0.047782
60442,NaN,9.116059,-4.017756,-1.905067,0.077074,-1.891105,0.151811,0.008198,-0.448478,0.802189,-1.256348,0.361572,-0.145264,0.091363,-0.039811,-0.018848,0.999989,0.000041,-0.002242,0.004011,0.663201,-0.229336,-0.711043,-0.044582
60443,NaN,10.040822,-4.548505,-1.231529,-0.764521,-1.768779,1.110212,0.113882,-0.390435,0.843451,-1.254150,0.365967,-0.141113,0.100623,-0.045054,-0.012145,0.999989,0.000569,-0.001952,0.004217,0.662051,-0.231386,-0.711725,-0.039941
60444,NaN,9.705671,-3.305427,-1.521232,-0.018585,-0.758555,0.524789,0.064942,-0.442875,0.894369,-1.248291,0.378906,-0.141113,0.097237,-0.032615,-0.015008,0.999987,0.000325,-0.002214,0.004472,0.660707,-0.234449,-0.712170,-0.036238
60445,NaN,9.128303,-2.244439,-1.346323,0.224240,0.185130,-0.321075,-0.094482,-0.477113,0.870529,-1.246582,0.393799,-0.132812,0.091411,-0.022053,-0.013235,0.999988,-0.000472,-0.002386,0.004353,0.658971,-0.237327,-0.713019,-0.032212
60446,NaN,9.323456,-3.994951,-1.695259,-0.140939,-1.335968,0.383137,-0.158184,-0.501610,0.838681,-1.246826,0.402344,-0.126465,0.093443,-0.039571,-0.016687,0.999988,-0.000791,-0.002508,0.004193,0.657108,-0.240926,-0.713651,-0.029418
60447,NaN,9.186761,-5.958654,-2.438700,-0.208162,-3.277366,0.914110,0.103251,-0.387856,0.746058,-1.242920,0.410889,-0.120361,0.092136,-0.059231,-0.024239,0.999991,0.000516,-0.001939,0.003730,0.655872,-0.242731,-0.714335,-0.025276
60448,NaN,9.013308,-4.768135,-1.522683,-0.600694,-1.878051,0.306851,0.111628,-0.324444,0.622153,-1.240967,0.417236,-0.115967,0.090305,-0.047392,-0.015107,0.999994,0.000558,-0.001622,0.003111,0.654910,-0.244636,-0.714662,-0.022444
60449,NaN,9.229197,-4.275845,-2.661790,0.637547,-1.706156,0.542423,0.062074,-0.223422,0.525475,-1.241455,0.427979,-0.114014,0.092434,-0.042507,-0.026528,0.999996,0.000310,-0.001117,0.002627,0.654163,-0.245779,-0.715043,-0.019403
60450,NaN,8.944921,-4.929557,-2.620006,0.367366,-2.305450,0.469643,0.208831,-0.118096,0.424969,-1.241455,0.430176,-0.120605,0.089569,-0.049078,-0.026199,0.999997,0.001044,-0.000590,0.002125,0.654023,-0.246636,-0.714935,-0.017122
60451,NaN,8.716215,-4.555655,-2.348103,0.281164,-1.912351,0.112216,0.268766,-0.059051,0.346556,-1.239502,0.434326,-0.120605,0.087248,-0.045374,-0.023516,0.999998,0.001344,-0.000295,0.001733,0.654088,-0.246470,-0.714997,-0.014166
60452,NaN,8.954006,-4.115405,-1.738258,-0.107571,-1.206771,0.120306,0.232459,0.007930,0.275964,-1.235107,0.432373,-0.120605,0.089596,-0.041010,-0.017434,0.999998,0.001162,0.000040,0.001380,0.654408,-0.246705,-0.714655,-0.012442
60453,NaN,9.321203,-3.885931,-1.564442,-0.172873,-0.795361,0.374079,0.165894,0.042024,0.228937,-1.239746,0.443115,-0.122803,0.093253,-0.038740,-0.015696,0.999999,0.000829,0.000210,0.001145,0.654695,-0.246476,-0.714504,-0.010403
60454,NaN,9.633970,-3.769990,-2.283458,0.551299,-0.811209,0.736167,0.191563,0.068805,0.194665,-1.235352,0.440918,-0.125000,0.096368,-0.037584,-0.022904,0.999999,0.000958,0.000344,0.000973,0.655172,-0.246550,-0.714058,-0.009166
60455,NaN,9.495662,-3.902274,-2.773991,0.989855,-1.117627,0.716385,0.309644,0.131098,0.157811,-1.231201,0.443115,-0.125000,0.094969,-0.038905,-0.027862,0.999998,0.001548,0.000655,0.000789,0.655948,-0.245624,-0.713689,-0.007003
60456,NaN,9.040330,-3.756823,-2.685461,1.003333,-1.104695,0.228519,0.402741,0.207076,0.129289,-1.235352,0.440918,-0.129150,0.090400,-0.037455,-0.027024,0.999997,0.002014,0.001035,0.000646,0.657171,-0.244767,-0.712872,-0.005395
60457,NaN,8.709663,-4.090470,-2.278604,0.554447,-1.367331,-0.034906,0.489593,0.264054,0.091576,-1.231201,0.443115,-0.139893,0.087085,-0.040809,-0.023001,0.999996,0.002448,0.001320,0.000458,0.658630,-0.243036,-0.712131,-0.003007
60458,NaN,8.700533,-3.576396,-2.028405,0.544608,-0.834857,-0.241346,0.431630,0.276295,0.074796,-1.224609,0.445068,-0.142090,0.086990,-0.035687,-0.020481,0.999997,0.002158,0.001381,0.000374,0.660124,-0.241886,-0.711144,-0.001559
60459,NaN,9.176014,-3.544048,-1.687704,0.273064,-0.531498,0.149775,0.406840,0.286846,0.060590,-1.226807,0.443115,-0.150635,0.091746,-0.035378,-0.017081,0.999997,0.002034,0.001434,0.000303,0.661553,-0.240342,-0.710340,0.000373
60460,NaN,9.507130,-3.232647,-1.679496,0.413163,-0.142617,0.359088,0.398263,0.338662,0.084323,-1.226807,0.445312,-0.155029,0.095056,-0.032253,-0.017020,0.999996,0.001991,0.001693,0.000422,0.663219,-0.239334,-0.709124,0.001661
60461,NaN,9.222177,-2.487962,-1.617326,0.652266,0.442269,-0.156963,0.306532,0.377631,0.121119,-1.227051,0.449463,-0.159424,0.092206,-0.024799,-0.016385,0.999997,0.001533,0.001888,0.000606,0.664843,-0.238365,-0.707923,0.003290
60462,NaN,9.307125,-2.361315,-1.559453,0.683328,0.602405,-0.127632,0.119185,0.392188,0.153316,-1.222412,0.443115,-0.156982,0.093058,-0.023532,-0.015791,0.999998,0.000596,0.001961,0.000767,0.666356,-0.238528,-0.706442,0.003756
60463,NaN,9.310238,-2.746267,-1.144622,0.204023,0.398190,-0.048858,-0.031716,0.399535,0.189269,-1.220459,0.449463,-0.174316,0.093105,-0.027376,-0.011628,0.999998,-0.000159,0.001998,0.000946,0.667649,-0.238960,-0.705070,0.004343
60464,NaN,9.278895,-3.420794,-0.983109,-0.132708,-0.152569,0.123368,-0.042769,0.382426,0.229336,-1.220703,0.458008,-0.172363,0.092809,-0.034104,-0.010001,0.999997,-0.000214,0.001912,0.001147,0.668926,-0.239930,-0.703528,0.004503
60465,NaN,9.315809,-3.605331,-0.666206,-0.454318,-0.188479,0.186536,0.016787,0.333940,0.276862,-1.218506,0.453857,-0.176514,0.093197,-0.035924,-0.006821,0.999998,0.000084,0.001670,0.001384,0.670040,-0.240534,-0.702252,0.005594
60466,NaN,9.382565,-2.986674,-0.553798,-0.316647,0.434853,0.034643,0.081685,0.300621,0.316331,-1.216797,0.464600,-0.180908,0.093864,-0.029716,-0.005691,0.999998,0.000408,0.001503,0.001582,0.671170,-0.241389,-0.700870,0.006582
60467,NaN,9.280966,-2.517829,-0.538024,-0.142739,0.844712,-0.219399,0.013991,0.275633,0.392540,-1.212402,0.464600,-0.187256,0.092851,-0.024996,-0.005510,0.999997,0.000070,0.001378,0.001963,0.672069,-0.242430,-0.699632,0.008089
60468,NaN,9.378795,-3.023210,-0.473985,-0.331270,0.484686,0.035225,-0.088565,0.267118,0.464757,-1.214844,0.473145,-0.187500,0.093851,-0.030016,-0.004852,0.999996,-0.000443,0.001336,0.002324,0.672862,-0.244374,-0.698181,0.009019
60471,NaN,8.927650,-3.713733,-0.898020,-0.306203,-0.975599,19.301610,-0.121302,0.235696,0.594656,-1.194092,0.496582,-0.198486,0.268712,-0.109068,-0.027690,0.999952,-0.001820,0.003535,0.008920,0.674705,-0.251579,-0.693761,0.013322
60472,NaN,9.036679,-3.787482,-1.285471,0.310776,-0.373194,0.057610,0.000643,0.169717,0.692398,-1.192383,0.507324,-0.198486,0.090486,-0.037562,-0.012932,0.999994,0.000003,0.000849,0.003462,0.675231,-0.253999,-0.692322,0.015449
60473,NaN,9.209693,-3.568608,-1.339512,0.477711,-0.071412,0.142910,0.056812,0.145308,0.735047,-1.186035,0.509521,-0.200684,0.092217,-0.035343,-0.013472,0.999993,0.000284,0.000727,0.003675,0.675676,-0.256106,-0.691038,0.018361
60474,NaN,9.247834,-3.705448,-1.147284,0.291075,-0.048176,0.211358,0.076375,0.127067,0.764816,-1.181885,0.520264,-0.205078,0.092612,-0.036696,-0.011546,0.999992,0.000382,0.000635,0.003824,0.676124,-0.258511,-0.689627,0.021049
60475,NaN,9.119889,-4.001293,-1.121438,0.202066,-0.272874,0.203524,0.089754,0.119721,0.804620,-1.177979,0.526611,-0.205322,0.091352,-0.039641,-0.011287,0.999992,0.000449,0.000599,0.004023,0.676493,-0.260755,-0.688311,0.024318
60476,NaN,9.114306,-4.373277,-1.083445,0.085707,-0.510062,0.341221,0.149079,0.115168,0.835285,-1.174072,0.539551,-0.205322,0.091318,-0.043344,-0.010919,0.999991,0.000745,0.000576,0.004176,0.676963,-0.263148,-0.686817,0.027510
60477,NaN,9.468202,-4.570844,-0.870313,-0.113136,-0.391595,0.729136,0.245979,0.135642,0.850134,-1.170166,0.552490,-0.211914,0.094869,-0.045295,-0.008823,0.999990,0.001230,0.000678,0.004251,0.677558,-0.265026,-0.685338,0.031430
60478,NaN,9.884060,-4.413786,-1.082908,0.217229,-0.075062,1.063671,0.306000,0.161660,0.862972,-1.161621,0.552490,-0.209717,0.099021,-0.043694,-0.010976,0.999989,0.001530,0.000808,0.004315,0.678361,-0.266979,-0.683601,0.035192
60479,NaN,10.475140,-4.766062,-1.588923,0.684891,-0.204470,1.782858,0.363261,0.207482,0.862256,-1.155762,0.569580,-0.218506,0.104939,-0.047179,-0.016084,0.999989,0.001816,0.001037,0.004311,0.679324,-0.268516,-0.681809,0.039441
60480,NaN,11.230559,-5.240027,-1.577862,0.652252,-0.200695,2.661529,0.465685,0.224914,0.842004,-1.147217,0.573730,-0.222900,0.112507,-0.051890,-0.016026,0.999988,0.002328,0.001125,0.004210,0.680528,-0.269856,-0.679823,0.043591
60481,NaN,11.597120,-5.223388,-1.225467,0.436041,0.168790,2.956759,0.612506,0.263456,0.829271,-1.141113,0.584473,-0.235840,0.116170,-0.051714,-0.012567,0.999986,0.003063,0.001317,0.004146,0.681985,-0.270444,-0.677795,0.048483
60482,NaN,11.831766,-4.575171,-0.807013,0.347545,1.033825,2.851558,0.695153,0.313291,0.853746,-1.136963,0.591064,-0.236084,0.118498,-0.045217,-0.008413,0.999984,0.003476,0.001566,0.004269,0.683755,-0.271049,-0.675402,0.053331
60483,NaN,12.683452,-3.375928,-0.298149,0.384605,2.669464,3.035660,0.660263,0.391258,0.945686,-1.124268,0.595215,-0.250977,0.126986,-0.033148,-0.003340,0.999981,0.003301,0.001956,0.004728,0.685631,-0.271902,-0.672717,0.058584
60484,NaN,13.509998,-2.073657,0.158171,0.506448,4.378304,3.126271,0.490046,0.508781,1.114111,-1.115967,0.608154,-0.257568,0.135216,-0.019987,0.001188,0.999978,0.002450,0.002544,0.005571,0.687654,-0.274123,-0.669309,0.063364
60485,NaN,14.144053,-1.369362,0.180848,0.868264,5.396234,3.305437,0.302094,0.603518,1.340574,-1.114502,0.627441,-0.266357,0.141533,-0.012747,0.001362,0.999972,0.001510,0.003018,0.006703,0.689572,-0.277607,-0.665389,0.068422
60486,NaN,14.796199,-1.054854,0.254764,1.100709,6.143494,3.646347,0.186743,0.624910,1.600651,-1.089111,0.640137,-0.272949,0.148047,-0.009366,0.002076,0.999963,0.000934,0.003125,0.008003,0.691323,-0.282503,-0.660933,0.073697
60487,NaN,14.990236,-1.010405,0.673649,0.891985,6.594775,3.673895,0.161143,0.594389,1.881421,-1.076904,0.661621,-0.283936,0.150008,-0.008698,0.006283,0.999951,0.000806,0.002972,0.009407,0.692725,-0.288271,-0.656217,0.080077
60488,NaN,15.635571,-0.898033,0.963047,0.898720,7.328557,4.032137,0.247733,0.560446,2.194177,-1.051758,0.683105,-0.296875,0.156468,-0.007276,0.009182,0.999935,0.001239,0.002802,0.010971,0.693983,-0.294828,-0.650980,0.087682
60489,NaN,17.011843,-0.444224,0.639941,1.703271,8.590909,4.791731,0.417176,0.554599,2.507746,-1.033203,0.706787,-0.310059,0.170173,-0.002321,0.005921,0.999915,0.002086,0.002773,0.012538,0.695193,-0.301716,-0.645183,0.097015
60490,NaN,19.589359,-0.116180,0.372083,2.649897,10.488408,6.522555,0.661050,0.570934,2.810842,-1.012695,0.732422,-0.321045,0.195894,0.001580,0.003164,0.999892,0.003305,0.002855,0.014054,0.696580,-0.308740,-0.638578,0.108052
60491,NaN,22.382492,0.762209,-0.346337,4.262122,12.935188,7.967962,0.949117,0.598137,3.049736,-0.979004,0.755859,-0.344727,0.223662,0.011052,-0.004085,0.999868,0.004745,0.002991,0.015248,0.698182,-0.315473,-0.631220,0.120751
60492,NaN,25.789326,3.625428,-1.838119,7.233082,17.152825,8.490657,1.048822,0.721448,3.193986,-0.951660,0.777344,-0.362061,0.257201,0.040465,-0.019105,0.999852,0.005244,0.003607,0.015969,0.700067,-0.322290,-0.622947,0.134061
60493,NaN,26.817452,5.698481,-2.770804,9.080914,19.567589,7.330788,0.984509,0.884389,3.244318,-0.918213,0.805176,-0.377441,0.267077,0.061463,-0.028595,0.999847,0.004922,0.004422,0.016221,0.702126,-0.329600,-0.613854,0.146852
60494,NaN,25.650900,6.434457,-4.037032,10.523700,19.500238,5.173551,0.832590,1.059427,3.292977,-0.882080,0.822266,-0.398926,0.255184,0.068725,-0.041444,0.999842,0.004163,0.005297,0.016464,0.704207,-0.337518,-0.604010,0.159205
60495,NaN,21.865561,5.970873,-6.009725,11.816318,16.571392,1.830891,0.755998,1.238486,3.368549,-0.848389,0.841553,-0.426758,0.217229,0.063606,-0.061210,0.999832,0.003780,0.006192,0.016842,0.706473,-0.346166,-0.593196,0.170833
60496,NaN,17.939464,2.125820,-7.853027,12.288287,11.084460,0.868988,0.697806,1.439826,3.564337,-0.806152,0.867188,-0.441895,0.178403,0.024720,-0.079735,0.999809,0.003489,0.007199,0.017821,0.708758,-0.355444,-0.581242,0.182975
60497,NaN,17.964792,-2.256926,-9.163988,13.219519,8.021121,3.327426,-0.000073,1.777996,3.882896,-0.757324,0.888672,-0.448486,0.179217,-0.019087,-0.093234,0.999772,-0.000000,0.008889,0.019413,0.710297,-0.368534,-0.567814,0.192996
60498,NaN,17.564027,1.437467,-10.412813,15.197510,9.950554,-0.380323,-1.923377,2.012531,4.103851,-0.709229,0.925049,-0.448730,0.174249,0.016946,-0.106041,0.999693,-0.009616,0.010062,0.020517,0.708274,-0.388851,-0.554798,0.198349
60499,NaN,15.988532,5.638712,-9.828135,15.219971,11.417595,-5.126796,-4.052498,2.342736,4.130219,-0.648193,0.965576,-0.416992,0.157529,0.057624,-0.101295,0.999513,-0.020259,0.011712,0.020648,0.702552,-0.417067,-0.542102,0.196474
60500,NaN,12.607789,2.022809,-8.417032,12.523606,7.025058,-4.551584,-5.366711,2.576494,3.957380,-0.597900,0.999512,-0.378662,0.124572,0.020406,-0.086328,0.999361,-0.026828,0.012880,0.019783,0.693995,-0.448910,-0.529737,0.190340
60501,NaN,9.590239,-3.356719,-7.682920,9.766652,2.011631,-1.886040,-5.683636,2.630218,3.574581,-0.552002,1.033691,-0.340332,0.095495,-0.034047,-0.077124,0.999350,-0.028412,0.013148,0.017869,0.684458,-0.480595,-0.517483,0.180985
60502,NaN,8.107762,-7.298821,-6.436916,7.039819,-0.384012,0.710320,-4.962465,2.723494,3.423766,-0.507812,1.059326,-0.301758,0.081459,-0.073181,-0.063662,0.999453,-0.024808,0.013615,0.017116,0.676094,-0.508641,-0.504155,0.173230
60503,NaN,8.849186,-10.466578,-6.894032,6.745400,-1.257777,3.909445,-4.244799,2.553912,3.034488,-0.469971,1.082764,-0.276367,0.089210,-0.104764,-0.067854,0.999578,-0.021221,0.012768,0.015170,0.668914,-0.532894,-0.491086,0.165565
60504,NaN,12.971559,-1.767623,-10.115040,13.947418,3.231186,-1.523234,-3.893396,2.843931,2.146318,-0.429199,1.086914,-0.252686,0.128457,-0.018282,-0.102631,0.999652,-0.019465,0.014218,0.010730,0.663499,-0.553360,-0.478919,0.155560
60505,NaN,7.781083,5.788365,-9.459606,13.405866,1.772095,-10.606768,-4.038765,3.842473,1.521615,-0.408203,1.097412,-0.222656,0.075526,0.056518,-0.097212,0.999583,-0.020191,0.019210,0.007607,0.660130,-0.573386,-0.464723,0.139603
60506,NaN,2.837485,8.248339,-6.888978,9.738268,-0.090079,-15.167085,-4.144265,3.922227,0.973208,-0.386719,1.099365,-0.194580,0.026598,0.081157,-0.071114,0.999581,-0.020718,0.019608,0.004865,0.656392,-0.591828,-0.451697,0.121896
60507,NaN,2.945385,6.154377,-6.178805,8.527203,-0.665424,-13.211562,-4.067747,3.618721,0.681134,-0.367676,1.101562,-0.156006,0.028108,0.060360,-0.063541,0.999624,-0.020336,0.018091,0.003405,0.651899,-0.608892,-0.439946,0.103567
60508,NaN,3.157645,1.522757,-7.387107,7.569140,-2.893448,-8.726271,-3.872628,3.556376,0.465946,-0.359131,1.101318,-0.128174,0.030220,0.013858,-0.074694,0.999652,-0.019361,0.017780,0.002329,0.647449,-0.624175,-0.428798,0.085718
60509,NaN,2.772658,-0.375491,-8.495368,7.045958,-4.690868,-6.925561,-3.342572,3.533582,0.132333,-0.352295,1.090576,-0.108643,0.026224,-0.005162,-0.085347,0.999704,-0.016711,0.017666,0.000662,0.644346,-0.636762,-0.418111,0.067343
60510,NaN,2.076010,0.522182,-9.360480,7.268845,-5.933734,-7.778030,-2.814369,3.575394,-0.272464,-0.350342,1.094727,-0.089355,0.019088,0.003874,-0.094017,0.999740,-0.014071,0.017875,-0.001362,0.642769,-0.646306,-0.408309,0.049195
60511,NaN,1.145156,1.213811,-10.170586,7.143122,-7.328057,-8.594119,-2.293158,3.623173,-0.834062,-0.356445,1.083984,-0.074219,0.009652,0.010927,-0.102022,0.999761,-0.011465,0.018114,-0.004170,0.642771,-0.652815,-0.399753,0.029602
60512,NaN,1.404480,0.705486,-10.298419,6.826488,-7.651276,-7.977021,-1.813588,3.653068,-1.427776,-0.371094,1.071289,-0.063477,0.012206,0.006028,-0.103276,0.999767,-0.009067,0.018264,-0.007138,0.644198,-0.656187,-0.392857,0.009472
60513,NaN,1.426917,-0.248785,-9.487456,5.623459,-7.359371,-7.300061,-1.393185,3.703112,-1.910580,-0.390137,1.062744,-0.054932,0.012481,-0.003275,-0.095096,0.999759,-0.006965,0.018514,-0.009552,0.646762,-0.656992,-0.387190,-0.011989
60514,NaN,1.215697,-0.618779,-8.385545,4.457067,-6.791436,-7.326915,-1.139837,3.680190,-2.287572,-0.413330,1.045654,-0.059082,0.010536,-0.006793,-0.084022,0.999749,-0.005699,0.018399,-0.011437,0.649827,-0.655875,-0.382647,-0.033664
60515,NaN,1.421473,-0.455105,-7.832239,4.172624,-6.386327,-7.496002,-1.001294,3.645223,-2.649376,-0.438477,1.030762,-0.061035,0.012719,-0.005119,-0.078539,0.999734,-0.005006,0.018224,-0.013246,0.652800,-0.653279,-0.379329,-0.056462
60516,NaN,2.624249,-0.015827,-7.692198,4.965141,-5.895301,-7.235729,-0.841447,3.614187,-3.019542,-0.470215,1.013672,-0.067383,0.024837,-0.000865,-0.077377,0.999714,-0.004207,0.018069,-0.015096,0.655851,-0.649104,-0.377059,-0.079687
60517,NaN,3.055737,1.107339,-7.642482,5.683137,-5.740843,-7.887112,-0.798159,3.582549,-3.431839,-0.497314,0.989990,-0.073730,0.029362,0.010256,-0.077000,0.999684,-0.003990,0.017911,-0.017157,0.658327,-0.643586,-0.376197,-0.104297
60518,NaN,3.620005,1.672439,-7.087811,6.013726,-5.167963,-8.007692,-0.800321,3.548728,-3.839003,-0.537354,0.968750,-0.079834,0.035243,0.015756,-0.071573,0.999650,-0.004001,0.017742,-0.019193,0.660179,-0.636938,-0.376330,-0.129804
60520,NaN,4.996033,1.179945,-7.212125,12.597410,-10.647895,-3.395027,-1.033393,3.451067,-4.342625,-0.614746,0.904541,-0.081543,0.095718,0.017864,-0.147800,0.998409,-0.010328,0.034492,-0.043403,0.659778,-0.621848,-0.379523,-0.184283
60521,NaN,5.920447,0.917379,-7.909102,6.430346,-6.251189,-5.570091,-1.448181,3.299414,-4.810222,-0.656738,0.874756,-0.089844,0.058077,0.007190,-0.080112,0.999549,-0.007240,0.016495,-0.024047,0.656791,-0.614193,-0.382097,-0.213057
60522,NaN,6.562703,0.510221,-8.468145,6.228614,-7.049542,-4.663136,-1.899264,3.141265,-5.135026,-0.698242,0.831787,-0.083008,0.064374,0.002628,-0.085732,0.999502,-0.009495,0.015704,-0.025671,0.651055,-0.606824,-0.385704,-0.243154
60523,NaN,7.705711,-1.199510,-8.725454,5.049304,-7.703262,-2.596678,-2.257799,2.983653,-5.433732,-0.744141,0.789062,-0.086914,0.075364,-0.015051,-0.088229,0.999456,-0.011287,0.014916,-0.027164,0.642985,-0.599756,-0.389531,-0.274097
60524,NaN,9.136691,-2.959952,-9.168251,3.728759,-8.521012,-0.340593,-2.527476,2.795742,-5.733214,-0.785400,0.739990,-0.084229,0.089157,-0.033343,-0.092534,0.999412,-0.012635,0.013976,-0.028660,0.632537,-0.592332,-0.394484,-0.305650
60525,NaN,11.050063,-4.021153,-9.680021,2.930239,-9.300210,1.883557,-2.668950,2.615496,-6.008891,-0.826660,0.686523,-0.077148,0.107927,-0.044780,-0.097646,0.999374,-0.013342,0.013075,-0.030038,0.620200,-0.584574,-0.399688,-0.337453
60526,NaN,13.230808,-5.069469,-10.312979,1.931049,-10.208719,4.295201,-2.757059,2.439903,-6.226777,-0.861328,0.628662,-0.078613,0.129350,-0.056183,-0.103971,0.999346,-0.013782,0.012197,-0.031127,0.606078,-0.575924,-0.405920,-0.369066
60527,NaN,15.519373,-6.515245,-10.087291,0.188355,-10.289742,6.889643,-2.928792,2.287913,-6.278525,-0.891602,0.572998,-0.071533,0.151857,-0.071440,-0.101607,0.999335,-0.014641,0.011437,-0.031386,0.590287,-0.567475,-0.411396,-0.400359
60528,NaN,16.615653,-8.404486,-10.654947,-2.671872,-11.093686,8.348470,-3.257422,2.148601,-6.227239,-0.921631,0.510742,-0.066406,0.162250,-0.090877,-0.106864,0.999325,-0.016283,0.010741,-0.031129,0.572645,-0.559280,-0.416500,-0.431059
60529,NaN,17.543152,-10.331091,-12.208508,-5.874956,-12.699207,9.357752,-3.379635,1.999150,-6.163436,-0.945557,0.450928,-0.067871,0.170876,-0.110687,-0.121979,0.999332,-0.016894,0.009994,-0.030810,0.553680,-0.551464,-0.420453,-0.461027
60530,NaN,18.607427,-15.614721,-13.374800,-12.029174,-14.033655,10.851082,-2.787364,1.791493,-6.055697,-0.967041,0.390869,-0.067139,0.180002,-0.163518,-0.133134,0.999404,-0.013934,0.008956,-0.030272,0.544061,-0.533972,-0.435703,-0.478576
60531,NaN,20.159767,-19.145545,-12.598737,-16.872814,-13.067747,12.002920,-1.919015,1.660712,-5.872946,-0.986328,0.331055,-0.074951,0.194793,-0.198450,-0.125742,0.999488,-0.009593,0.008302,-0.029360,0.528210,-0.522177,-0.442053,-0.502906
60532,NaN,16.964979,-19.288466,-11.349991,-18.463862,-11.739646,7.786152,-1.179506,1.368938,-5.600350,-0.995361,0.277344,-0.084717,0.163372,-0.198188,-0.113474,0.999567,-0.005897,0.006844,-0.027998,0.518067,-0.505337,-0.454473,-0.519323
60533,NaN,13.657345,-16.331700,-11.403527,-16.670840,-11.525332,3.317916,-1.031687,0.847285,-5.043734,-1.002197,0.230225,-0.086426,0.131906,-0.167270,-0.113745,0.999660,-0.005158,0.004236,-0.025216,0.504098,-0.494203,-0.462191,-0.536683
60534,NaN,13.230481,-19.393426,-13.418954,-20.450459,-13.299497,1.850016,-0.978046,0.400337,-4.170222,-1.005127,0.191650,-0.085693,0.127947,-0.197286,-0.133489,0.999769,-0.004890,0.002002,-0.020850,0.494112,-0.483263,-0.471621,-0.547617
60535,NaN,9.739943,-23.651311,-12.834874,-24.987907,-11.906545,-2.548834,-0.517850,0.066004,-3.151493,-1.006348,0.161621,-0.081055,0.093611,-0.238339,-0.127764,0.999872,-0.002589,0.000330,-0.015757,0.484308,-0.476896,-0.477596,-0.556703
60536,NaN,6.167361,-23.515652,-9.557254,-24.534274,-8.283057,-6.376700,-0.590561,-0.300923,-1.818600,-1.001465,0.146729,-0.076416,0.059673,-0.235986,-0.094786,0.999953,-0.002953,-0.001505,-0.009093,0.478401,-0.473597,-0.482412,-0.560462
60537,NaN,6.557472,-21.884093,-7.360780,-22.901411,-6.001755,-5.864152,-1.196616,-0.522824,-0.332272,-1.001709,0.148682,-0.065918,0.065400,-0.219384,-0.072125,0.999977,-0.005983,-0.002614,-0.001661,0.473348,-0.477139,-0.481086,-0.562882
60538,NaN,9.976188,-17.840735,-4.950432,-19.042492,-3.927627,-1.796226,-1.931490,-0.461826,1.069858,-0.991211,0.157227,-0.057373,0.100827,-0.178335,-0.047550,0.999936,-0.009657,-0.002309,0.005349,0.471230,-0.485025,-0.474946,-0.563134
60539,NaN,11.980872,-14.969313,-3.146584,-16.107070,-2.180947,0.831777,-3.053698,-0.001659,1.694440,-0.994385,0.183105,-0.053467,0.121074,-0.149128,-0.029185,0.999848,-0.015268,-0.000008,0.008472,0.468503,-0.496201,-0.462172,-0.566292
60540,NaN,4.455290,-20.860099,-3.082081,-21.294180,-0.340183,-6.515321,-2.793206,-0.471530,2.882692,-0.978271,0.217285,-0.034668,0.047625,-0.208332,-0.027800,0.999796,-0.013965,-0.002357,0.014412,0.468949,-0.510361,-0.448694,-0.564174
60541,NaN,12.976836,-6.132481,-7.064756,-7.555861,-6.809720,2.534007,-3.077444,-0.552339,2.986564,-0.972900,0.242920,-0.021973,0.130868,-0.060450,-0.069352,0.999766,-0.015386,-0.002761,0.014932,0.468156,-0.525742,-0.433583,-0.562521
60542,NaN,25.643146,15.160442,6.657437,16.207850,1.718553,15.994962,-1.767397,-0.133349,2.085162,-0.968994,0.260010,-0.018066,0.254784,0.154848,0.065386,0.999906,-0.008837,-0.000667,0.010425,0.468588,-0.535143,-0.423142,-0.561247
60543,NaN,16.510420,2.410420,17.380665,6.346536,15.226428,7.747151,-0.969555,-0.123130,1.994204,-0.958984,0.281494,-0.011963,0.164740,0.026591,0.173783,0.999938,-0.004848,-0.000616,0.009971,0.471286,-0.541973,-0.415348,-0.558248
60544,NaN,5.642158,-20.138477,3.610256,-18.549388,7.471554,-2.707669,-1.568343,-0.336973,2.914903,-0.955811,0.307129,-0.007812,0.059283,-0.200243,0.037774,0.999862,-0.007841,-0.001685,0.014574,0.474043,-0.552899,-0.403615,-0.553788
60545,NaN,5.760271,-31.070338,-14.252433,-33.029796,-7.057486,-2.016905,-1.701037,-1.163817,2.969056,-0.937256,0.332764,0.013184,0.063036,-0.310990,-0.139524,0.999837,-0.008505,-0.005819,0.014844,0.475120,-0.566081,-0.393390,-0.546861
60546,NaN,17.342008,-15.531282,-20.579037,-18.255040,-17.287591,8.443367,-1.179217,-1.839578,2.453884,-0.929443,0.352051,0.030029,0.177195,-0.154358,-0.203260,0.999865,-0.005896,-0.009197,0.012269,0.474551,-0.578935,-0.387373,-0.538124
60547,NaN,11.315479,4.955753,-0.602377,6.088626,-2.483628,0.661848,0.034161,-1.171921,2.053943,-0.921631,0.373291,0.046875,0.112671,0.050717,-0.005354,0.999930,0.000171,-0.005859,0.010269,0.477859,-0.585971,-0.384273,-0.529739
60548,NaN,1.621360,-1.669123,-5.554439,-2.796215,-5.016651,-8.001706,-1.807962,-1.104336,1.830741,-0.915771,0.390381,0.065918,0.016674,-0.017041,-0.055300,0.999902,-0.009040,-0.005521,0.009153,0.474991,-0.596947,-0.376571,-0.525578
60549,NaN,9.106165,-8.453846,-3.516394,-7.389162,-1.526898,0.666703,-1.415299,-0.699593,1.683838,-0.903320,0.401123,0.068115,0.091891,-0.084012,-0.034248,0.999933,-0.007076,-0.003498,0.008419,0.473829,-0.605303,-0.369462,-0.522104
60550,NaN,7.981624,-1.165022,-1.757262,-0.079534,-1.717829,-1.738475,-1.300806,-0.747225,1.561648,-0.895020,0.409668,0.087402,0.079969,-0.011139,-0.017200,0.999941,-0.006504,-0.003736,0.007808,0.472385,-0.613399,-0.363019,-0.518469
60551,NaN,9.812819,-1.680092,-4.095235,-0.745765,-3.831196,0.219687,-0.867485,-0.930555,1.512005,-0.886963,0.426758,0.097900,0.098441,-0.016234,-0.040424,0.999951,-0.004337,-0.004653,0.007560,0.471919,-0.620600,-0.358312,-0.513576
60552,NaN,10.410036,-6.778747,1.583786,-3.480770,3.145925,1.798195,-0.405741,-0.759907,1.404192,-0.878906,0.437500,0.108398,0.104511,-0.067022,0.016371,0.999966,-0.002029,-0.003799,0.007021,0.472603,-0.626288,-0.354488,-0.508673
60553,NaN,10.071969,-4.697291,-0.390731,-2.044987,0.706103,1.095026,-0.774743,-0.735634,1.404088,-0.868408,0.446045,0.123291,0.101059,-0.046278,-0.003356,0.999961,-0.003874,-0.003678,0.007020,0.472413,-0.632478,-0.349845,-0.504387
60554,NaN,10.525131,-3.305915,-2.651845,-1.185910,-1.834154,1.321368,-0.510771,-0.601523,1.287326,-0.862549,0.460938,0.118896,0.105540,-0.032447,-0.026118,0.999972,-0.002554,-0.003008,0.006437,0.472492,-0.637853,-0.345408,-0.500588
60555,NaN,10.264149,-5.710833,-3.519776,-3.574396,-1.871586,1.766353,-0.039796,-0.417976,1.161994,-0.862793,0.471680,0.123047,0.103044,-0.056517,-0.034971,0.999981,-0.000199,-0.002090,0.005810,0.474530,-0.641012,-0.342582,-0.496550
60556,NaN,9.613578,-5.756750,-2.225400,-3.255799,-0.618437,1.120264,0.190105,-0.250486,1.065075,-0.856934,0.484619,0.125000,0.096468,-0.057033,-0.022188,0.999985,0.000951,-0.001252,0.005325,0.477552,-0.642936,-0.340627,-0.492495
60557,NaN,9.296987,-2.706787,-0.064804,0.199098,0.475417,-0.143230,-0.028489,-0.188019,0.986772,-0.850342,0.486572,0.125000,0.093102,-0.026609,-0.000557,0.999987,-0.000142,-0.000940,0.004934,0.479551,-0.645164,-0.337828,-0.489558
60558,NaN,9.962169,-3.864010,-1.481412,-0.989544,-0.543055,0.915547,-0.149114,-0.091371,0.946912,-0.844238,0.493164,0.124756,0.099810,-0.038179,-0.014740,0.999988,-0.000746,-0.000457,0.004735,0.481433,-0.647273,-0.335021,-0.486848
60559,NaN,9.322074,-4.523341,-1.372435,-1.650985,-0.229942,0.505547,-0.090129,-0.005488,0.876690,-0.837891,0.499512,0.129150,0.093418,-0.044830,-0.013702,0.999990,-0.000451,-0.000027,0.004383,0.483249,-0.648989,-0.331973,-0.484847
