// Start Time: Unknown
// Update Rate: 100.0Hz
// Filter Profile: human (46.1)
// Firmware Version: 4.4.0
PacketCounter,SampleTimeFine,Acc_X,Acc_Y,Acc_Z,FreeAcc_X,FreeAcc_Y,FreeAcc_Z,Gyr_X,Gyr_Y,Gyr_Z,Mag_X,Mag_Y,Mag_Z,VelInc_X,VelInc_Y,VelInc_Z,OriInc_q0,OriInc_q1,OriInc_q2,OriInc_q3,Quat_q0,Quat_q1,Quat_q2,Quat_q3
48759,NaN,5.602846,0.314989,4.435870,-0.000000,0.000000,-2.659700,-1.554405,2.293799,0.123192,-0.537598,0.353271,-0.686523,0.056530,0.003526,0.043686,0.999904,-0.007772,0.011469,0.000616,0.761124,-0.209988,-0.387992,-0.475456
48760,NaN,6.019598,-0.629264,3.930194,-0.000000,0.000000,-2.596318,-1.910317,1.822998,0.302103,-0.527588,0.372559,-0.690918,0.060560,-0.005829,0.038808,0.999912,-0.009551,0.009115,0.001510,0.811914,-0.223386,-0.425686,-0.331187
48761,NaN,6.066899,-0.651068,2.968005,0.178846,-1.164084,-3.130506,-1.938891,1.785556,0.390660,-0.517334,0.381104,-0.695312,0.060943,-0.006107,0.029197,0.999911,-0.009694,0.008928,0.001953,0.791162,-0.221614,-0.400421,-0.405725
48762,NaN,4.478938,-0.863333,2.228491,-0.110992,-1.076175,-4.852709,-1.774150,1.354921,0.396138,-0.505127,0.398193,-0.697510,0.044956,-0.008348,0.022056,0.999936,-0.008871,0.006774,0.001981,0.792662,-0.226662,-0.390998,-0.409185
48763,NaN,3.398496,-1.467830,1.776405,-0.745560,-1.223398,-5.964674,-1.475737,0.806839,0.307687,-0.499023,0.408936,-0.693359,0.034079,-0.014495,0.017734,0.999963,-0.007379,0.004034,0.001538,0.793381,-0.230414,-0.384742,-0.411617
48764,NaN,2.606577,-2.375130,1.699690,-1.731041,-1.386762,-6.587049,-1.079195,0.161480,0.086601,-0.501221,0.415527,-0.697754,0.026090,-0.023648,0.017104,0.999985,-0.005396,0.000807,0.000433,0.792615,-0.234526,-0.381775,-0.413530
48765,NaN,1.545867,-2.963268,1.919550,-2.691607,-1.030376,-7.253616,-0.634917,-0.414988,-0.118153,-0.507812,0.421875,-0.695557,0.015401,-0.029581,0.019321,0.999993,-0.003175,-0.002075,-0.000591,0.791579,-0.238063,-0.382217,-0.413085
48766,NaN,0.788418,-2.951632,1.976596,-2.993014,-0.599704,-7.832082,-0.271998,-0.986759,-0.312902,-0.516357,0.424072,-0.687012,0.007740,-0.029502,0.019845,0.999986,-0.001360,-0.004934,-0.001565,0.788711,-0.240577,-0.385928,-0.413663
48767,NaN,0.649388,-2.613735,2.497566,-2.982567,0.031047,-7.669268,0.038919,-1.549507,-0.513621,-0.528809,0.415283,-0.674316,0.006233,-0.026158,0.025020,0.999967,0.000195,-0.007747,-0.002568,0.786369,-0.244011,-0.392041,-0.410349
48768,NaN,0.356793,-2.387525,2.963844,-3.121754,0.644605,-7.703038,0.228529,-1.955579,-0.676291,-0.550049,0.413086,-0.665771,0.003197,-0.023920,0.029644,0.999946,0.001143,-0.009778,-0.003381,0.781385,-0.245785,-0.401002,-0.410152
48769,NaN,-0.353217,-2.225147,3.624985,-3.533537,1.541280,-7.981198,0.242332,-2.180299,-0.765590,-0.560303,0.404541,-0.655029,-0.004012,-0.022281,0.036181,0.999933,0.001212,-0.010901,-0.003828,0.777659,-0.249620,-0.408855,-0.407155
48770,NaN,-1.247646,-1.556834,3.585506,-3.279713,2.283648,-8.883297,0.251785,-2.326393,-0.861283,-0.572998,0.400391,-0.650635,-0.012959,-0.015558,0.035687,0.999922,0.001259,-0.011632,-0.004306,0.771403,-0.251597,-0.419456,-0.407054
48771,NaN,-2.300779,-0.875830,3.154098,-2.845082,2.798599,-10.097952,0.506526,-2.530155,-0.963578,-0.598145,0.393799,-0.637939,-0.023446,-0.008725,0.031224,0.999905,0.002533,-0.012650,-0.004818,0.766490,-0.253719,-0.425928,-0.408295
48772,NaN,-2.567202,0.061072,2.341712,-1.764679,2.797615,-10.878685,0.972484,-2.798489,-0.988683,-0.618896,0.378662,-0.620850,-0.025993,0.000626,0.023058,0.999878,0.004862,-0.013992,-0.004943,0.759652,-0.253568,-0.439840,-0.406414
48773,NaN,-2.424285,0.541127,0.766666,-0.550051,1.835296,-11.569535,1.469660,-2.944214,-1.011711,-0.637207,0.359375,-0.610107,-0.024325,0.005479,0.007349,0.999852,0.007348,-0.014720,-0.005058,0.752902,-0.252963,-0.446567,-0.411979
48774,NaN,-1.934705,1.037895,-0.657984,0.704888,0.813259,-11.836224,2.143986,-2.994721,-1.122947,-0.660156,0.344482,-0.594971,-0.019188,0.010559,-0.006755,0.999815,0.010719,-0.014973,-0.005614,0.746474,-0.248507,-0.463594,-0.407555
48775,NaN,1.271267,-0.630406,-0.412817,-0.047181,-1.139257,-8.872590,2.977701,-3.029188,-1.022474,-0.674316,0.320801,-0.590576,0.012742,-0.006309,-0.004029,0.999761,0.014887,-0.015145,-0.005112,0.739752,-0.242571,-0.474128,-0.411252
48776,NaN,5.291899,-0.201200,2.674885,-0.484835,-0.065104,-3.900273,2.782254,-3.096571,-0.722103,-0.692627,0.299316,-0.571289,0.052488,-0.002581,0.027531,0.999777,0.013910,-0.015482,-0.003610,0.734136,-0.236882,-0.492072,-0.403480
48777,NaN,10.936644,2.418136,5.164500,1.243385,1.267642,2.392373,1.819534,-2.744468,-0.541908,-0.709473,0.294922,-0.560547,0.108706,0.023406,0.053355,0.999861,0.009097,-0.013722,-0.002709,0.727926,-0.235720,-0.501336,-0.404007
48778,NaN,16.050612,0.950825,6.736880,-0.296344,-0.006544,7.617476,2.160340,-1.750238,-0.572466,-0.715088,0.271484,-0.553955,0.159933,0.008311,0.068864,0.999899,0.010801,-0.008751,-0.002862,0.724855,-0.229934,-0.512694,-0.398572
48779,NaN,17.023932,2.166026,1.623473,3.374567,-3.467928,6.731717,2.954161,-1.455452,-0.619457,-0.722900,0.250000,-0.553955,0.170179,0.020878,0.017786,0.999860,0.014770,-0.007277,-0.003097,0.722132,-0.222074,-0.520303,-0.398113
48780,NaN,19.120960,4.997272,-3.794233,8.797210,-6.282494,7.160853,3.567974,-1.477616,-0.570294,-0.737305,0.230713,-0.549561,0.191621,0.050076,-0.035635,0.999810,0.017839,-0.007388,-0.002851,0.720977,-0.210608,-0.533273,-0.389174
48781,NaN,18.870772,0.869923,-0.002731,3.036369,-5.566691,7.981880,3.299575,-1.504439,-0.390016,-0.739014,0.215576,-0.542969,0.188717,0.008315,0.001532,0.999834,0.016497,-0.007522,-0.001950,0.721036,-0.199247,-0.548590,-0.373439
48782,NaN,16.068080,-0.338286,6.395798,-2.576493,-0.831693,7.271423,1.659937,-1.586008,-0.015701,-0.751465,0.207031,-0.536621,0.160167,-0.003933,0.065198,0.999934,0.008300,-0.007930,-0.000079,0.718263,-0.196167,-0.557386,-0.367338
48783,NaN,13.789352,1.248853,5.212235,-1.093128,0.390612,4.935938,0.734563,-1.368135,-0.008864,-0.757568,0.202881,-0.530029,0.137533,0.012289,0.053109,0.999970,0.003673,-0.006841,-0.000044,0.717818,-0.193909,-0.568536,-0.352000
48784,NaN,10.190581,0.202393,3.388111,-1.140656,-0.435586,0.858571,0.904583,-1.197076,-0.181473,-0.759521,0.196289,-0.519531,0.101702,0.001776,0.034499,0.999971,0.004523,-0.005985,-0.000907,0.714952,-0.192248,-0.574584,-0.348909
48785,NaN,7.702569,-0.345049,1.363605,-0.470959,-1.360776,-2.116361,1.305521,-1.474160,-0.134253,-0.771973,0.187744,-0.512939,0.076920,-0.003594,0.014180,0.999951,0.006527,-0.007371,-0.000671,0.713736,-0.187887,-0.585640,-0.335120
48786,NaN,7.392038,-0.353311,-0.721587,0.883813,-2.590127,-2.899193,1.565388,-1.852259,-0.019543,-0.780273,0.185547,-0.496094,0.073983,-0.003487,-0.006558,0.999926,0.007827,-0.009261,-0.000098,0.709697,-0.185333,-0.594848,-0.328842
48787,NaN,8.226135,-0.065733,0.051586,0.528044,-1.879717,-1.821332,1.364091,-2.042871,0.248650,-0.786621,0.185547,-0.485596,0.082251,-0.000562,0.001352,0.999924,0.006820,-0.010214,0.001243,0.707380,-0.182547,-0.607549,-0.311729
48788,NaN,10.575049,0.782873,1.360646,0.149835,-0.786882,0.848001,0.871731,-1.950013,0.492357,-0.792969,0.185547,-0.470703,0.105591,0.008026,0.014671,0.999940,0.004359,-0.009750,0.002462,0.702977,-0.183988,-0.615319,-0.305541
48789,NaN,12.184522,1.333195,1.244670,0.592655,-0.473615,2.484063,0.499049,-1.552984,0.558784,-0.799316,0.187500,-0.458008,0.121706,0.013639,0.013426,0.999963,0.002495,-0.007765,0.002794,0.701905,-0.183740,-0.623806,-0.290576
48790,NaN,13.006172,1.806290,1.012037,0.999884,-0.227701,3.317124,0.676845,-1.483605,0.520264,-0.807617,0.185303,-0.451660,0.129934,0.018364,0.011146,0.999963,0.003384,-0.007418,0.002601,0.698630,-0.185137,-0.629496,-0.285265
48791,NaN,13.681146,3.018380,0.579729,1.989754,0.652368,4.052065,0.881608,-1.426154,0.446556,-0.807617,0.185303,-0.438965,0.136697,0.030460,0.006906,0.999962,0.004408,-0.007131,0.002233,0.697003,-0.183176,-0.637971,-0.271341
48792,NaN,13.190010,3.254726,-0.307402,2.680295,0.545082,3.498190,0.851194,-1.312214,0.337707,-0.815918,0.181152,-0.428223,0.131861,0.032780,-0.002070,0.999968,0.004256,-0.006561,0.001689,0.694033,-0.183062,-0.643369,-0.266238
48793,NaN,11.965360,2.900291,-0.257976,2.244807,0.680488,2.276312,0.664037,-1.070438,0.310926,-0.818115,0.187500,-0.417725,0.119619,0.029196,-0.001843,0.999979,0.003320,-0.005352,0.001555,0.691655,-0.181623,-0.649937,-0.257312
48794,NaN,10.531024,1.283412,0.346996,0.663284,0.015117,0.781089,0.541730,-1.308816,0.079695,-0.824463,0.183105,-0.411377,0.105279,0.012865,0.004194,0.999975,0.002709,-0.006544,0.000398,0.687979,-0.181688,-0.655071,-0.254080
48795,NaN,10.478850,1.306891,1.759947,-0.617778,0.986478,0.829409,0.432180,-1.628475,-0.068980,-0.830566,0.180908,-0.394287,0.104645,0.012994,0.018480,0.999964,0.002161,-0.008142,-0.000345,0.682870,-0.181237,-0.662574,-0.248671
48796,NaN,9.867609,0.487303,2.075687,-1.506512,0.658825,0.147684,0.497944,-1.856844,-0.093168,-0.836914,0.178711,-0.381592,0.098480,0.004774,0.021684,0.999954,0.002490,-0.009284,-0.000466,0.677022,-0.181529,-0.669586,-0.245646
48797,NaN,10.697710,0.877918,2.359040,-1.724083,1.180606,0.976466,0.842181,-2.078739,-0.135581,-0.845215,0.176514,-0.366699,0.106730,0.008604,0.024737,0.999937,0.004211,-0.010393,-0.000678,0.670296,-0.180758,-0.678352,-0.240559
48798,NaN,10.485821,1.335385,1.515742,-0.977177,1.203969,0.752512,1.061607,-2.233384,-0.148378,-0.855713,0.174316,-0.347656,0.104690,0.013191,0.016397,0.999923,0.005308,-0.011167,-0.000742,0.663451,-0.179369,-0.687196,-0.235418
48799,NaN,10.600763,2.104890,0.871499,-0.244355,1.593539,0.909297,1.067949,-2.355830,-0.058346,-0.859619,0.163574,-0.332764,0.105900,0.020967,0.010075,0.999916,0.005340,-0.011779,-0.000292,0.656048,-0.178844,-0.696044,-0.230516
48800,NaN,11.036272,2.512182,0.854448,-0.275124,2.043870,1.348879,1.007804,-2.347986,-0.011854,-0.870117,0.165771,-0.313721,0.110253,0.025067,0.009966,0.999918,0.005039,-0.011740,-0.000059,0.648711,-0.178190,-0.704861,-0.224929
48801,NaN,11.030253,3.223730,1.223444,-0.431804,2.967766,1.347728,0.990696,-2.276320,0.011098,-0.874268,0.161377,-0.298828,0.110151,0.032178,0.013648,0.999923,0.004953,-0.011381,0.000055,0.641113,-0.178135,-0.712938,-0.221275
48802,NaN,11.170697,4.686694,1.415297,-0.060193,4.442512,1.545404,0.772865,-2.228319,0.028943,-0.880615,0.163330,-0.277832,0.111532,0.046825,0.015577,0.999930,0.003864,-0.011141,0.000145,0.633845,-0.178214,-0.720860,-0.216427
48803,NaN,11.105537,5.170716,1.906777,-0.381967,5.202622,1.433927,0.490767,-2.063132,0.040782,-0.878174,0.159180,-0.260742,0.110839,0.051681,0.020339,0.999944,0.002454,-0.010315,0.000204,0.626242,-0.180839,-0.726498,-0.217528
48804,NaN,10.650798,4.941290,2.450871,-1.076025,5.433484,0.825838,0.296710,-1.823637,0.062586,-0.888916,0.163330,-0.250244,0.106263,0.049409,0.025552,0.999957,0.001484,-0.009118,0.000313,0.619928,-0.182114,-0.732443,-0.214596
48805,NaN,9.855995,4.086983,3.124370,-2.019254,5.129809,-0.158102,0.191411,-1.567892,0.063574,-0.888916,0.165527,-0.235352,0.098298,0.040871,0.032054,0.999969,0.000957,-0.007839,0.000318,0.613491,-0.186852,-0.734947,-0.220383
48806,NaN,8.982419,3.157729,3.803770,-3.033094,4.807800,-1.279943,0.089323,-1.314389,0.082267,-0.895264,0.161133,-0.222656,0.089559,0.031597,0.038641,0.999978,0.000447,-0.006572,0.000411,0.608823,-0.188325,-0.738983,-0.218569
48807,NaN,8.055248,2.415727,4.186521,-3.545338,4.452508,-2.339094,-0.014943,-1.101128,0.116066,-0.888672,0.158936,-0.216309,0.080306,0.024207,0.042306,0.999985,-0.000075,-0.005506,0.000580,0.603759,-0.194963,-0.738695,-0.227584
48808,NaN,7.310581,2.112147,4.467053,-3.840476,4.409461,-3.204574,-0.143827,-0.933647,0.182232,-0.897461,0.169678,-0.208008,0.072877,0.021220,0.044996,0.999988,-0.000719,-0.004668,0.000911,0.600372,-0.197132,-0.741162,-0.226652
48809,NaN,6.960788,2.140209,4.876710,-3.972105,4.742129,-3.603864,-0.350086,-0.820388,0.241878,-0.895264,0.169678,-0.201660,0.069381,0.021572,0.049014,0.999989,-0.001750,-0.004102,0.001209,0.596433,-0.205983,-0.738411,-0.237883
48810,NaN,7.043044,1.766302,5.766535,-4.905487,5.034469,-3.765619,-0.555227,-0.678066,0.269310,-0.897705,0.176025,-0.195312,0.070210,0.017918,0.057854,0.999989,-0.002776,-0.003390,0.001347,0.593673,-0.209438,-0.739486,-0.238429
48811,NaN,7.585783,1.052122,6.803494,-6.067216,5.255252,-3.447991,-0.532050,-0.430286,0.313220,-0.893311,0.173828,-0.193115,0.075694,0.010821,0.068169,0.999993,-0.002660,-0.002151,0.001566,0.591094,-0.219561,-0.734253,-0.251541
48812,NaN,8.605142,0.601203,7.919919,-7.370940,5.682607,-2.705507,-0.296227,0.054031,0.342972,-0.897705,0.178223,-0.195312,0.086062,0.006277,0.079167,0.999997,-0.001481,0.000270,0.001715,0.591399,-0.221629,-0.733341,-0.251674
48813,NaN,10.084628,1.158765,8.176259,-7.238614,6.409607,-1.071274,-0.032448,0.711514,0.304658,-0.895508,0.178223,-0.201660,0.101118,0.011755,0.081401,0.999992,-0.000162,0.003558,0.001523,0.594378,-0.228651,-0.724197,-0.264523
48814,NaN,11.033028,1.224695,7.380351,-6.695383,5.900402,0.089386,0.065775,1.482741,0.271167,-0.887207,0.182617,-0.218750,0.110857,0.012373,0.072987,0.999972,0.000329,0.007414,0.001356,0.600165,-0.227471,-0.719545,-0.265166
48815,NaN,12.350725,0.637351,6.106616,-5.984940,4.505794,1.767750,-0.206723,2.388417,0.192484,-0.883057,0.178223,-0.241943,0.124218,0.006555,0.059579,0.999928,-0.001034,0.011942,0.000962,0.608982,-0.231965,-0.704414,-0.281308
48816,NaN,13.895094,1.295091,4.158487,-4.068286,3.402172,3.748151,-0.962204,3.435381,0.042409,-0.872803,0.187012,-0.267334,0.139634,0.013173,0.039127,0.999841,-0.004811,0.017176,0.000212,0.619930,-0.230176,-0.692437,-0.288507
48817,NaN,14.234262,1.610465,2.533529,-2.141283,1.985557,4.437330,-1.876468,4.337118,-0.130904,-0.868652,0.189209,-0.301270,0.142856,0.016229,0.022089,0.999721,-0.009381,0.021684,-0.000654,0.632529,-0.234440,-0.668695,-0.312717
48818,NaN,13.242055,2.528396,1.020359,0.133567,1.151190,3.655883,-2.499857,4.770941,-0.085417,-0.856445,0.197998,-0.337402,0.132619,0.025326,0.006725,0.999637,-0.012498,0.023852,-0.000427,0.645188,-0.234516,-0.649556,-0.326822
48819,NaN,13.140334,3.264993,1.306394,1.086157,1.187058,3.693093,-2.389561,4.667127,0.144742,-0.841797,0.204346,-0.373291,0.131631,0.032874,0.009602,0.999656,-0.011946,0.023333,0.000724,0.657291,-0.238682,-0.623389,-0.349836
48820,NaN,15.789706,5.321954,2.844412,2.106101,2.700228,6.738724,-1.750708,4.366277,0.104689,-0.831543,0.206787,-0.405029,0.158433,0.053528,0.024521,0.999723,-0.008753,0.021829,0.000523,0.668813,-0.237059,-0.605679,-0.360062
48821,NaN,20.357726,6.147700,2.642308,3.614666,1.218456,11.272618,-1.122144,4.205142,-0.119943,-0.812744,0.210938,-0.434814,0.204105,0.061486,0.021790,0.999763,-0.005610,0.021024,-0.000600,0.679111,-0.235548,-0.583323,-0.378231
48822,NaN,23.339226,2.732980,0.640643,2.797167,-3.829677,13.209762,-0.476083,3.998934,-0.373957,-0.800049,0.211182,-0.460205,0.233508,0.026901,0.001674,0.999796,-0.002380,0.019993,-0.001870,0.689369,-0.228464,-0.569164,-0.385521
48823,NaN,22.021267,-0.888568,-1.343959,1.471701,-8.074604,10.683846,-0.062775,3.759238,-0.638722,-0.787109,0.202637,-0.491943,0.219878,-0.009593,-0.017572,0.999818,-0.000314,0.018795,-0.003193,0.697724,-0.221146,-0.552106,-0.399318
48824,NaN,19.483581,-1.509712,-1.792373,1.379364,-8.608160,7.767371,-0.137792,3.462896,-0.801486,-0.774414,0.198486,-0.519531,0.194424,-0.015891,-0.021282,0.999842,-0.000689,0.017314,-0.004007,0.705422,-0.212465,-0.540548,-0.406259
48825,NaN,15.965018,-2.674393,-3.183477,1.157833,-9.656949,3.512028,-1.062487,3.272104,-0.719680,-0.753418,0.202881,-0.540771,0.159004,-0.027495,-0.034295,0.999846,-0.005312,0.016360,-0.003598,0.711576,-0.208137,-0.524925,-0.418082
48826,NaN,13.085578,-3.875100,-2.609507,-0.318131,-9.162231,0.627611,-2.171344,3.125917,-0.454255,-0.747314,0.213623,-0.557861,0.130342,-0.039342,-0.027710,0.999816,-0.010856,0.015629,-0.002271,0.716442,-0.208097,-0.509639,-0.428573
48827,NaN,11.378110,-2.268247,-0.366943,-0.276534,-6.194860,-0.000422,-2.205410,3.098348,-0.048929,-0.728516,0.219971,-0.574707,0.113703,-0.022762,-0.005181,0.999819,-0.011026,0.015491,-0.000245,0.722670,-0.209425,-0.493020,-0.436831
48828,NaN,10.701598,-0.881045,3.189724,-0.897781,-2.780263,1.000763,-1.812872,2.851440,0.187166,-0.720459,0.232910,-0.593994,0.107465,-0.008430,0.030445,0.999857,-0.009064,0.014257,0.000936,0.728107,-0.210179,-0.478489,-0.443546
48829,NaN,12.296042,-1.143031,5.921762,-1.993815,-1.829410,3.612487,-1.579378,2.384049,0.163031,-0.710205,0.243652,-0.606689,0.123664,-0.010869,0.057834,0.999897,-0.007897,0.011920,0.000815,0.733800,-0.211062,-0.465922,-0.447110
48830,NaN,13.273663,-2.416225,7.094981,-3.207105,-2.286203,4.912874,-1.777283,2.529798,0.364176,-0.693848,0.262939,-0.619629,0.133665,-0.023298,0.069473,0.999879,-0.008886,0.012648,0.001821,0.738544,-0.212750,-0.452225,-0.452529
48831,NaN,14.445900,-1.550032,3.648330,-0.207607,-5.111821,4.265923,-2.180256,2.914586,0.582885,-0.673096,0.275879,-0.638916,0.145015,-0.014695,0.034536,0.999830,-0.010901,0.014572,0.002914,0.745618,-0.215797,-0.435723,-0.455665
48832,NaN,12.405436,-0.769199,2.832775,0.740866,-4.554589,2.070292,-1.825158,2.978305,0.686952,-0.656738,0.291016,-0.651611,0.124483,-0.007017,0.026542,0.999842,-0.009125,0.014891,0.003435,0.751585,-0.217278,-0.419650,-0.460221
48833,NaN,10.380482,0.333213,4.461248,0.855798,-2.010471,1.277208,-0.978864,2.565751,0.570708,-0.640137,0.303955,-0.662354,0.104355,0.003843,0.043258,0.999902,-0.004894,0.012828,0.002853,0.758766,-0.216805,-0.407284,-0.459771
48834,NaN,11.230378,0.772659,5.455914,1.254264,-1.753947,2.509146,-0.634568,2.429144,0.357162,-0.625244,0.301758,-0.677246,0.112941,0.008098,0.053165,0.999920,-0.003173,0.012145,0.001786,0.763786,-0.214339,-0.396188,-0.462304
48835,NaN,9.239605,-0.145374,4.820632,0.425113,-1.740310,0.454479,-0.843944,2.466234,0.265977,-0.610840,0.314697,-0.694336,0.092983,-0.001130,0.047067,0.999914,-0.004220,0.012331,0.001330,0.769817,-0.213036,-0.384971,-0.462379
48836,NaN,7.258107,-0.782867,3.378998,0.054669,-2.104680,-2.049007,-1.217880,2.390623,0.391180,-0.596436,0.323242,-0.707031,0.072993,-0.007484,0.032965,0.999908,-0.006089,0.011953,0.001956,0.773955,-0.212931,-0.372502,-0.465721
48837,NaN,5.604029,-1.267652,2.306145,-0.284627,-2.212677,-4.037584,-1.532059,2.227972,0.612083,-0.575439,0.338379,-0.707275,0.056331,-0.012330,0.022530,0.999904,-0.007660,0.011140,0.003060,0.779224,-0.215541,-0.360084,-0.465502
48838,NaN,4.441027,-1.108786,1.784016,-0.207055,-1.881200,-5.279241,-1.636864,1.985848,0.801879,-0.569824,0.359863,-0.716064,0.044629,-0.010765,0.017487,0.999909,-0.008184,0.009929,0.004009,0.782831,-0.218721,-0.347640,-0.467422
48839,NaN,2.964635,-0.840988,1.506474,-0.254915,-1.106596,-6.576050,-1.616411,1.676354,0.930220,-0.553223,0.370361,-0.718262,0.029810,-0.008151,0.014882,0.999921,-0.008082,0.008382,0.004651,0.787523,-0.223448,-0.336991,-0.465097
48840,NaN,1.135396,-0.703612,1.410928,-0.670951,-0.051091,-7.990058,-1.588299,1.240590,1.024293,-0.547363,0.389893,-0.722656,0.011477,-0.006866,0.014093,0.999936,-0.007941,0.006203,0.005121,0.790171,-0.228529,-0.327246,-0.465096
48841,NaN,1.685015,-1.214093,1.802322,-0.998892,-0.340633,-7.273469,-1.489657,0.590346,1.066001,-0.539307,0.402588,-0.720703,0.016967,-0.011916,0.018063,0.999954,-0.007448,0.002952,0.005330,0.793013,-0.235486,-0.320831,-0.461243
48842,NaN,1.968571,-0.953884,1.657649,-0.581222,-0.469780,-7.171793,-1.181316,0.393288,0.866174,-0.537598,0.421875,-0.718750,0.019759,-0.009355,0.016593,0.999971,-0.005907,0.001966,0.004331,0.794227,-0.240646,-0.315518,-0.460153
48843,NaN,0.568878,-1.538035,1.551857,-1.567553,0.008363,-8.187850,-0.823579,-0.077810,0.629951,-0.529297,0.421875,-0.714600,0.005731,-0.015298,0.015584,0.999986,-0.004118,-0.000389,0.003150,0.795566,-0.245742,-0.313695,-0.456379
48844,NaN,-0.062518,-1.988064,1.995309,-2.320105,0.473300,-8.286041,-0.490158,-0.510575,0.434052,-0.533691,0.432617,-0.710449,-0.000633,-0.019833,0.020000,0.999991,-0.002451,-0.002553,0.002170,0.795146,-0.249536,-0.314071,-0.454789
48845,NaN,-0.089163,-1.920219,2.544169,-2.419391,0.902779,-7.941994,-0.267420,-0.936018,0.274120,-0.544189,0.430420,-0.706055,-0.000984,-0.019169,0.025463,0.999987,-0.001337,-0.004680,0.001371,0.794866,-0.253794,-0.317147,-0.450771
48846,NaN,0.240118,-1.681443,3.159257,-2.258727,1.277029,-7.336196,-0.102622,-1.344405,0.045192,-0.554932,0.434814,-0.699707,0.002193,-0.016798,0.031616,0.999977,-0.000513,-0.006722,0.000226,0.792688,-0.257298,-0.322194,-0.449037
48847,NaN,0.333993,-1.854703,3.898860,-2.602478,1.690957,-6.792756,0.052077,-1.608859,-0.190330,-0.565674,0.434570,-0.688965,0.003009,-0.018560,0.039009,0.999967,0.000260,-0.008044,-0.000952,0.790511,-0.261004,-0.328941,-0.445833
48848,NaN,-0.451224,-2.159825,4.801775,-3.465126,2.643061,-6.824058,0.121949,-1.755278,-0.350075,-0.580322,0.432617,-0.676270,-0.004971,-0.021619,0.047962,0.999960,0.000610,-0.008776,-0.001750,0.786971,-0.263849,-0.336594,-0.444707
48849,NaN,-1.329832,-1.602215,5.401308,-3.521339,3.824594,-7.266870,0.107855,-1.955794,-0.474898,-0.590576,0.423828,-0.667725,-0.013864,-0.016019,0.053871,0.999949,0.000539,-0.009779,-0.002374,0.783410,-0.267563,-0.344775,-0.442503
48850,NaN,-1.616248,-0.250615,5.398505,-2.472595,4.634493,-7.757132,0.130411,-2.243840,-0.612428,-0.609619,0.421631,-0.656982,-0.016774,-0.002491,0.053798,0.999932,0.000652,-0.011219,-0.003062,0.778309,-0.270943,-0.354648,-0.441645
48851,NaN,-1.102339,0.857399,4.164616,-0.956633,4.018001,-8.318047,0.306726,-2.535175,-0.711655,-0.626221,0.406738,-0.642090,-0.011520,0.008551,0.041515,0.999912,0.001534,-0.012676,-0.003558,0.773091,-0.274650,-0.365258,-0.439868
48852,NaN,-0.470485,1.113381,1.980131,0.167539,2.223969,-9.174256,0.586080,-2.759046,-0.763392,-0.647217,0.400146,-0.627197,-0.004935,0.011094,0.019767,0.999893,0.002930,-0.013795,-0.003817,0.767096,-0.277029,-0.378221,-0.437912
48853,NaN,0.365321,1.595084,0.254426,1.435412,0.768797,-9.511100,1.147591,-2.834019,-0.894661,-0.665771,0.387207,-0.612305,0.003687,0.015919,0.002688,0.999873,0.005738,-0.014169,-0.004473,0.761633,-0.277641,-0.391732,-0.435174
48854,NaN,3.045589,-0.070684,-0.330012,0.988693,-1.617949,-7.405687,2.167254,-2.697083,-0.995780,-0.686523,0.370117,-0.605713,0.030493,-0.000826,-0.002898,0.999838,0.010836,-0.013485,-0.004979,0.757070,-0.273261,-0.408036,-0.430906
48855,NaN,5.652366,-0.734544,0.254986,0.884129,-2.543898,-4.782898,2.744107,-2.822178,-0.934360,-0.704834,0.348633,-0.599121,0.056446,-0.007651,0.003243,0.999795,0.013720,-0.014110,-0.004671,0.753254,-0.267452,-0.424954,-0.424843
48856,NaN,8.658409,-0.054287,0.568105,2.035174,-3.093447,-1.965582,2.380055,-2.760239,-0.817394,-0.723389,0.327148,-0.579834,0.086491,-0.000974,0.006865,0.999826,0.011900,-0.013800,-0.004087,0.748705,-0.262569,-0.441423,-0.419099
48857,NaN,11.418765,-2.738414,2.573839,-0.630908,-3.903325,1.539498,2.805584,-2.341647,-0.754009,-0.737793,0.312256,-0.581787,0.113774,-0.028183,0.026681,0.999826,0.014027,-0.011708,-0.003770,0.745941,-0.255626,-0.456455,-0.412161
48858,NaN,13.118923,-1.856419,2.540367,0.300517,-4.016337,3.062814,3.125284,-2.028439,-0.617060,-0.749756,0.290771,-0.571045,0.130866,-0.019376,0.026434,0.999822,0.015625,-0.010142,-0.003085,0.743902,-0.246696,-0.471167,-0.404663
48859,NaN,14.006471,2.499200,-0.636827,5.527008,-4.147237,2.640236,3.296607,-1.868793,-0.466279,-0.761719,0.265137,-0.564453,0.140171,0.024751,-0.004649,0.999818,0.016482,-0.009343,-0.002331,0.743047,-0.237357,-0.485020,-0.395346
48860,NaN,13.858738,1.936386,0.690921,4.109948,-3.237612,3.183837,3.474259,-1.711198,-0.325043,-0.769775,0.252197,-0.562256,0.138551,0.019001,0.008427,0.999811,0.017370,-0.008555,-0.001625,0.742238,-0.227000,-0.498538,-0.386023
48861,NaN,13.814900,1.265881,6.190632,0.208017,0.523405,5.367929,2.520164,-1.758768,-0.056740,-0.775635,0.237061,-0.549316,0.137600,0.011828,0.063271,0.999882,0.012600,-0.008793,-0.000284,0.739378,-0.223165,-0.509135,-0.379868
48862,NaN,15.465878,3.211336,6.383603,1.650006,1.450142,7.081743,1.772231,-1.532384,-0.068236,-0.788086,0.226318,-0.544922,0.154173,0.031486,0.065299,0.999931,0.008861,-0.007662,-0.000341,0.737274,-0.219335,-0.518206,-0.373873
48863,NaN,15.461291,3.388253,4.568896,2.618879,0.404966,6.447008,1.963677,-1.126644,-0.257713,-0.798340,0.215576,-0.538574,0.154394,0.033227,0.046888,0.999935,0.009818,-0.005633,-0.001289,0.734832,-0.215785,-0.525489,-0.370567
48864,NaN,13.415604,2.902509,2.224829,3.104519,-0.814462,3.716826,2.118355,-0.978943,-0.295970,-0.793701,0.200684,-0.531982,0.134087,0.028584,0.023209,0.999931,0.010592,-0.004895,-0.001480,0.733947,-0.209024,-0.533294,-0.365006
48865,NaN,12.244973,1.191179,1.165957,2.097166,-2.208518,2.163923,2.293318,-1.205711,-0.289425,-0.808105,0.187744,-0.527832,0.122393,0.011594,0.012532,0.999915,0.011466,-0.006028,-0.001447,0.731449,-0.204084,-0.541587,-0.360577
48866,NaN,10.806811,0.097488,1.503340,0.695695,-2.178481,0.856199,1.934180,-1.245843,-0.196336,-0.814209,0.179199,-0.517090,0.107972,0.000719,0.015714,0.999933,0.009671,-0.006229,-0.000982,0.729646,-0.198712,-0.549794,-0.354761
48867,NaN,10.093553,-1.151621,3.487579,-1.770604,-1.369261,0.692447,1.547738,-1.293317,-0.006891,-0.820557,0.177002,-0.510742,0.100707,-0.011792,0.035437,0.999949,0.007739,-0.006466,-0.000034,0.726436,-0.197513,-0.556763,-0.351132
48868,NaN,9.851933,-0.609267,3.717691,-1.669303,-0.726418,0.576625,1.650344,-1.044292,0.237367,-0.828613,0.166260,-0.497803,0.098331,-0.006285,0.037639,0.999952,0.008252,-0.005221,0.001187,0.725541,-0.194005,-0.563191,-0.344627
48869,NaN,10.033031,0.757098,2.501894,0.084279,-0.575211,0.538903,1.774051,-0.911962,0.543182,-0.830566,0.161865,-0.500000,0.100194,0.007618,0.025543,0.999947,0.008870,-0.004560,0.002716,0.724264,-0.193375,-0.568316,-0.339212
48870,NaN,11.642486,2.332091,1.576511,1.969268,-0.414645,1.994896,1.762463,-1.052392,0.681284,-0.841309,0.164062,-0.491455,0.116259,0.023573,0.016584,0.999942,0.008812,-0.005262,0.003406,0.724091,-0.190703,-0.574424,-0.330698
48871,NaN,12.712291,3.524060,0.579301,3.542740,-0.331224,2.903122,1.780188,-1.198427,0.673240,-0.836914,0.159668,-0.482910,0.126964,0.035610,0.006870,0.999937,0.008901,-0.005992,0.003366,0.722431,-0.190320,-0.580566,-0.323751
48872,NaN,13.079124,4.443017,0.139621,4.421954,0.167702,3.273027,1.591975,-1.316815,0.697251,-0.843262,0.164062,-0.468262,0.130621,0.044868,0.002613,0.999941,0.007960,-0.006584,0.003486,0.721210,-0.188715,-0.587201,-0.315338
48873,NaN,13.014797,4.531910,0.218813,4.297838,0.501378,3.273304,0.976633,-1.450578,0.588276,-0.849365,0.157471,-0.459717,0.129992,0.045687,0.003354,0.999957,0.004883,-0.007253,0.002941,0.717504,-0.191703,-0.592921,-0.311259
48874,NaN,13.500152,4.869030,0.529404,4.188085,1.048001,3.883907,0.466478,-1.932574,0.157726,-0.851562,0.159668,-0.440674,0.134903,0.048782,0.006712,0.999950,0.002332,-0.009663,0.000789,0.712432,-0.193496,-0.600399,-0.307441
48875,NaN,12.590278,3.520864,1.037152,2.620884,0.755223,3.014684,0.167209,-2.147122,-0.065332,-0.870605,0.161621,-0.421631,0.125793,0.035158,0.011752,0.999942,0.000836,-0.010735,-0.000327,0.704918,-0.197892,-0.608122,-0.306785
48876,NaN,12.621389,2.591402,1.808340,1.213621,0.754202,3.119292,0.109012,-2.272432,-0.046045,-0.878906,0.155273,-0.408691,0.126003,0.025875,0.019530,0.999935,0.000545,-0.011362,-0.000230,0.698000,-0.200842,-0.616304,-0.304347
48877,NaN,11.875798,1.869189,1.844538,0.444223,0.567333,2.328392,0.404392,-2.123740,-0.017883,-0.880859,0.155273,-0.391846,0.118555,0.018642,0.019743,0.999942,0.002022,-0.010618,-0.000089,0.690701,-0.204425,-0.624115,-0.302693
48878,NaN,11.317298,1.701132,1.684399,0.234794,0.597874,1.736966,0.609487,-2.096220,0.052450,-0.891357,0.150879,-0.370605,0.112983,0.016987,0.018081,0.999940,0.003047,-0.010481,0.000262,0.684821,-0.205645,-0.632186,-0.298449
48879,NaN,11.009217,1.535850,1.551166,0.028150,0.603616,1.394362,0.622281,-2.054697,0.080736,-0.899658,0.150879,-0.357910,0.109919,0.015352,0.016689,0.999942,0.003111,-0.010273,0.000404,0.678487,-0.207567,-0.640141,-0.294603
48880,NaN,10.665471,1.556469,1.725015,-0.263861,0.936217,1.059294,0.619369,-2.043088,0.092574,-0.904053,0.155029,-0.343262,0.106464,0.015558,0.018387,0.999943,0.003097,-0.010215,0.000463,0.672688,-0.208761,-0.647851,-0.290168
48881,NaN,10.276718,1.616668,1.826878,-0.471634,1.250446,0.664516,0.725836,-2.036214,0.087617,-0.912354,0.150635,-0.323975,0.102567,0.016143,0.019372,0.999941,0.003629,-0.010181,0.000438,0.666503,-0.210070,-0.655752,-0.285717
48882,NaN,9.519141,2.050533,1.752819,-0.275372,1.746627,-0.078162,0.820903,-1.966618,0.111667,-0.918457,0.148438,-0.309326,0.095001,0.020484,0.018547,0.999943,0.004104,-0.009833,0.000558,0.661039,-0.210499,-0.663324,-0.280570
48883,NaN,8.629515,2.592408,1.785707,-0.068593,2.393054,-0.944591,0.753207,-2.037304,0.151757,-0.918457,0.148438,-0.292236,0.086087,0.025920,0.018832,0.999941,0.003766,-0.010186,0.000759,0.654916,-0.211694,-0.671038,-0.275643
48884,NaN,8.353915,3.146536,2.015039,-0.015805,3.112668,-1.207063,0.636103,-2.057906,0.189191,-0.922607,0.146240,-0.273193,0.083295,0.031478,0.021108,0.999942,0.003180,-0.010289,0.000946,0.648907,-0.213070,-0.678414,-0.270694
48885,NaN,7.926368,3.470231,2.103473,0.013326,3.570263,-1.655206,0.489482,-2.069235,0.211948,-0.930908,0.146240,-0.256348,0.079003,0.034733,0.021938,0.999943,0.002447,-0.010346,0.001060,0.642457,-0.215036,-0.685655,-0.266244
48886,NaN,7.789791,3.574158,2.252534,-0.148094,3.872945,-1.843678,0.386655,-1.991603,0.239842,-0.930908,0.146240,-0.241455,0.077625,0.035790,0.023368,0.999948,0.001933,-0.009958,0.001199,0.636331,-0.217257,-0.692274,-0.261992
48887,NaN,7.591126,3.675558,2.580649,-0.435176,4.278065,-2.111961,0.266019,-1.898421,0.254992,-0.937500,0.154785,-0.224609,0.075615,0.036817,0.026574,0.999953,0.001330,-0.009492,0.001275,0.630351,-0.219297,-0.698555,-0.258045
48888,NaN,7.374954,3.690531,2.847389,-0.701454,4.568686,-2.413309,0.087264,-1.788083,0.281821,-0.937500,0.154541,-0.209717,0.073439,0.036996,0.029148,0.999959,0.000436,-0.008940,0.001409,0.624539,-0.222305,-0.703965,-0.254880
48889,NaN,7.321845,3.617699,3.137689,-1.034798,4.792732,-2.567025,-0.125765,-1.652895,0.342585,-0.941895,0.163086,-0.195068,0.072894,0.036322,0.031957,0.999964,-0.000629,-0.008264,0.001713,0.618835,-0.226111,-0.708469,-0.252961
48890,NaN,7.216246,3.466464,3.384309,-1.354015,4.926425,-2.781335,-0.321512,-1.445921,0.418625,-0.946045,0.165283,-0.180176,0.071843,0.034870,0.034307,0.999970,-0.001608,-0.007230,0.002093,0.613860,-0.230411,-0.712042,-0.251162
48891,NaN,7.408206,3.096499,3.412402,-1.653938,4.749610,-2.683940,-0.519143,-1.220980,0.480808,-0.944092,0.169434,-0.171875,0.073797,0.031232,0.034494,0.999975,-0.002596,-0.006105,0.002404,0.609278,-0.235695,-0.714249,-0.251150
48892,NaN,7.848735,2.450433,3.581906,-2.266146,4.466948,-2.373102,-0.696552,-0.987494,0.511083,-0.948486,0.176025,-0.155029,0.078246,0.024830,0.036120,0.999978,-0.003483,-0.004937,0.002555,0.605559,-0.240878,-0.715765,-0.250911
48893,NaN,8.630145,1.360477,4.048206,-3.420397,4.061226,-1.779958,-0.743901,-0.707172,0.582004,-0.946533,0.180176,-0.157227,0.086117,0.014007,0.040735,0.999983,-0.003719,-0.003536,0.002910,0.602771,-0.246305,-0.715908,-0.251946
48894,NaN,10.040814,0.691604,4.730257,-4.545344,4.168047,-0.558611,-0.643190,-0.347373,0.663552,-0.946777,0.190918,-0.153076,0.100302,0.007401,0.047454,0.999988,-0.003216,-0.001737,0.003318,0.601565,-0.251054,-0.715318,-0.251817
48895,NaN,11.790755,1.190369,5.655929,-5.086228,5.315146,1.064206,-0.584788,0.132292,0.680137,-0.942383,0.188721,-0.155029,0.117903,0.012470,0.056445,0.999990,-0.002924,0.000661,0.003401,0.602464,-0.254620,-0.713039,-0.252548
48896,NaN,13.956126,1.859296,6.601257,-5.519500,6.612976,3.133679,-0.589739,0.710767,0.576721,-0.944824,0.199463,-0.159424,0.139740,0.019189,0.065460,0.999985,-0.002949,0.003554,0.002884,0.604967,-0.257552,-0.709408,-0.253813
48897,NaN,16.790416,2.217127,6.054095,-5.070883,6.602337,6.130181,-0.468954,1.364951,0.404606,-0.938477,0.199463,-0.172119,0.168266,0.022652,0.059341,0.999972,-0.002345,0.006825,0.002023,0.610321,-0.257700,-0.703871,-0.256251
48898,NaN,19.272128,2.820906,4.259556,-3.375768,5.791717,8.963894,-0.392215,2.183944,0.200392,-0.940918,0.203857,-0.195312,0.193142,0.028483,0.040432,0.999938,-0.001961,0.010919,0.001002,0.617721,-0.256789,-0.696401,-0.259818
48899,NaN,19.330809,2.100844,2.176861,-1.943974,3.466825,9.344567,-0.694492,3.214409,-0.066162,-0.936768,0.201904,-0.222900,0.193631,0.021013,0.018585,0.999865,-0.003472,0.016071,-0.000331,0.628541,-0.253609,-0.685090,-0.266967
48900,NaN,15.781943,0.223346,0.603007,-1.341311,0.533994,5.915127,-1.121739,4.074728,-0.172111,-0.930664,0.206299,-0.260986,0.157900,0.002119,0.002801,0.999776,-0.005608,0.020372,-0.000860,0.640705,-0.251049,-0.670852,-0.276457
48901,NaN,14.421235,1.712430,-0.430993,0.969747,0.409648,4.676801,-1.814926,4.379800,-0.180812,-0.917969,0.204102,-0.296875,0.144085,0.016935,-0.007621,0.999719,-0.009074,0.021897,-0.000904,0.653332,-0.249373,-0.653782,-0.289033
48902,NaN,14.240217,1.727199,-0.555233,1.507559,-0.151786,4.461197,-2.723232,4.250860,-0.279275,-0.916260,0.210693,-0.326660,0.142262,0.016968,-0.008810,0.999680,-0.013615,0.021252,-0.001396,0.663220,-0.251132,-0.636100,-0.304054
48903,NaN,15.424883,-0.698542,0.648760,-0.624529,-1.583535,5.546389,-2.732861,4.439770,-0.134856,-0.901611,0.215088,-0.364746,0.154339,-0.007031,0.003158,0.999660,-0.013663,0.022196,-0.000674,0.674015,-0.252241,-0.616632,-0.319129
48904,NaN,16.734641,-0.616415,1.924281,-0.891435,-1.262572,6.971130,-1.870289,4.466008,-0.073512,-0.882812,0.219482,-0.396484,0.167719,-0.006069,0.015557,0.999707,-0.009351,0.022328,-0.000368,0.685110,-0.251117,-0.598510,-0.330682
48905,NaN,19.172886,1.066721,2.222405,0.870364,-0.929421,9.474605,-1.202672,4.162511,-0.224832,-0.872314,0.219727,-0.434570,0.192147,0.010569,0.018164,0.999765,-0.006013,0.020811,-0.001124,0.696140,-0.246810,-0.581948,-0.340310
48906,NaN,19.971312,2.810838,1.170915,3.445984,-1.380189,10.043969,-0.495330,4.103062,-0.411913,-0.857666,0.219727,-0.464355,0.199954,0.027719,0.007540,0.999784,-0.002476,0.020514,-0.002059,0.706617,-0.240301,-0.567206,-0.348175
48907,NaN,17.905700,2.918644,-2.549736,6.069926,-4.237048,6.944265,-0.171105,3.833449,-0.690380,-0.851074,0.208984,-0.489746,0.178623,0.028546,-0.028949,0.999810,-0.000855,0.019166,-0.003452,0.716429,-0.231546,-0.553661,-0.355774
48908,NaN,15.966745,0.673938,-5.655067,6.287580,-7.940550,3.779857,-0.890798,3.209859,-0.808893,-0.838379,0.209229,-0.519287,0.158757,0.005836,-0.059131,0.999853,-0.004454,0.016049,-0.004044,0.722740,-0.226753,-0.541433,-0.364802
48909,NaN,13.983008,0.065880,-6.360372,6.050354,-8.722198,1.290302,-2.544126,3.089485,-0.490068,-0.819824,0.222168,-0.542725,0.138825,-0.000510,-0.065752,0.999797,-0.012720,0.015446,-0.002450,0.726954,-0.229124,-0.525539,-0.377952
48910,NaN,12.356922,0.175744,-2.134420,3.499090,-5.433106,0.934452,-3.287496,3.514164,0.097262,-0.803467,0.239258,-0.563965,0.123168,0.001443,-0.023536,0.999710,-0.016436,0.017569,0.000486,0.732396,-0.234620,-0.506290,-0.390153
48911,NaN,11.955966,1.313379,2.933415,1.775061,-1.209425,2.379314,-2.406128,3.286997,0.239292,-0.789062,0.250000,-0.579102,0.120002,0.013613,0.027202,0.999792,-0.012030,0.016434,0.001196,0.738144,-0.237467,-0.489010,-0.399527
48912,NaN,12.650525,0.919388,5.059812,0.775376,-0.393034,3.814957,-1.594260,2.884079,0.046888,-0.774414,0.258789,-0.600342,0.127214,0.009617,0.048691,0.999864,-0.007971,0.014420,0.000234,0.743297,-0.237671,-0.475058,-0.406623
48913,NaN,10.879114,-4.353621,4.597089,-3.483525,-3.231292,1.843140,-2.090674,3.086609,0.137355,-0.760010,0.273682,-0.619385,0.109518,-0.042989,0.044736,0.999826,-0.010453,0.015432,0.000687,0.748028,-0.239537,-0.458865,-0.415355
48914,NaN,8.670143,-7.153500,0.068958,-3.988171,-7.315098,-2.267360,-2.874531,3.114310,0.424641,-0.737549,0.299561,-0.638672,0.086860,-0.071344,0.000364,0.999773,-0.014372,0.015570,0.002123,0.752443,-0.244739,-0.440635,-0.423997
48915,NaN,7.000153,-4.847217,-1.662189,-1.601390,-6.741476,-4.592740,-2.320730,2.904877,0.659928,-0.725342,0.314697,-0.653809,0.069916,-0.048438,-0.017076,0.999822,-0.011603,0.014524,0.003299,0.757082,-0.248873,-0.423703,-0.430540
48916,NaN,6.851742,-2.416716,0.915689,-0.565195,-3.610391,-3.466905,-1.142863,2.459138,0.679528,-0.710938,0.323242,-0.672852,0.068706,-0.023884,0.008450,0.999902,-0.005714,0.012295,0.003398,0.762259,-0.249320,-0.411046,-0.433407
48917,NaN,9.117133,-0.406919,3.424656,0.942797,-1.916796,-0.302271,-0.611790,2.411595,0.557115,-0.687744,0.333984,-0.681396,0.091586,-0.003712,0.033156,0.999919,-0.003059,0.012058,0.002785,0.767747,-0.247483,-0.399856,-0.435237
48918,NaN,10.585564,0.878972,3.531227,2.648368,-2.089343,0.860080,-0.666980,2.870003,0.393552,-0.671143,0.342529,-0.704834,0.106330,0.009113,0.033759,0.999890,-0.003335,0.014349,0.001968,0.773432,-0.244557,-0.386855,-0.438563
48919,NaN,6.951555,0.414109,2.414570,1.703549,-1.542311,-2.809796,-1.099535,3.015853,0.350237,-0.654541,0.351318,-0.713379,0.069861,0.004392,0.023070,0.999870,-0.005497,0.015079,0.001751,0.778627,-0.242869,-0.372378,-0.442819
48920,NaN,4.390784,-0.153144,1.428053,0.843629,-1.341103,-5.473334,-1.499009,2.831356,0.456588,-0.627441,0.370605,-0.726318,0.044107,-0.001327,0.013667,0.999869,-0.007495,0.014156,0.002283,0.782988,-0.243253,-0.357432,-0.447213
48921,NaN,2.838424,-0.302304,0.965767,0.411030,-0.987713,-6.995659,-1.728175,2.669813,0.586535,-0.606689,0.381348,-0.739258,0.028519,-0.002858,0.009303,0.999869,-0.008640,0.013348,0.002933,0.786124,-0.245688,-0.342059,-0.452374
48922,NaN,1.609886,-0.424707,1.062660,-0.111182,-0.347083,-7.871477,-1.777673,2.489311,0.663630,-0.592285,0.398438,-0.747803,0.016244,-0.004100,0.010462,0.999878,-0.008888,0.012446,0.003318,0.789603,-0.248149,-0.327396,-0.455809
48923,NaN,0.510649,-0.360997,1.017814,-0.410593,0.248701,-8.718842,-1.751627,2.151087,0.715039,-0.580078,0.413574,-0.754395,0.005228,-0.003502,0.010153,0.999897,-0.008758,0.010755,0.003575,0.792214,-0.251571,-0.313951,-0.458851
48924,NaN,0.369750,-0.768257,0.996360,-0.792545,0.127087,-8.775713,-1.661335,1.513549,0.793210,-0.565918,0.432861,-0.758789,0.003803,-0.007585,0.009998,0.999929,-0.008306,0.007568,0.003966,0.794264,-0.255905,-0.303122,-0.460189
48925,NaN,1.352458,-0.670991,0.944915,-0.282400,-0.432130,-8.108084,-1.409262,1.385405,0.695959,-0.553223,0.441406,-0.759033,0.013613,-0.006596,0.009402,0.999945,-0.007046,0.006927,0.003480,0.795496,-0.259825,-0.293214,-0.462281
48926,NaN,0.221588,-1.224587,1.014510,-1.220644,0.031568,-8.770127,-1.121152,0.890528,0.529311,-0.551514,0.454102,-0.761230,0.002294,-0.012183,0.010203,0.999971,-0.005606,0.004453,0.002647,0.796545,-0.262993,-0.286383,-0.462963
48927,NaN,-0.316450,-2.062061,1.679832,-2.310305,0.451341,-8.534878,-0.790118,0.371921,0.407147,-0.539062,0.462891,-0.763428,-0.003091,-0.020560,0.016885,0.999988,-0.003951,0.001860,0.002036,0.796474,-0.266248,-0.282323,-0.463719
48928,NaN,-0.565170,-2.240879,2.262670,-2.679248,0.930508,-8.258209,-0.517195,-0.190597,0.261442,-0.547607,0.460693,-0.759033,-0.005644,-0.022358,0.022679,0.999995,-0.002586,-0.000953,0.001307,0.796120,-0.269117,-0.281532,-0.463152
48929,NaN,-0.694996,-1.916724,3.100398,-2.608976,1.735177,-7.824806,-0.307943,-0.772737,0.055308,-0.553955,0.462646,-0.748535,-0.007064,-0.019121,0.031006,0.999991,-0.001540,-0.003864,0.000277,0.794866,-0.272237,-0.283894,-0.462039
48930,NaN,-0.365711,-1.683491,3.950113,-2.445124,2.259066,-7.076082,-0.123457,-1.333237,-0.190603,-0.571045,0.464844,-0.742188,-0.003936,-0.016807,0.039486,0.999977,-0.000617,-0.006666,-0.000953,0.792347,-0.275530,-0.289159,-0.461147
48931,NaN,0.609126,-1.474089,4.617481,-2.018398,2.308910,-6.010121,0.037310,-1.686590,-0.394452,-0.577148,0.458496,-0.737793,0.005673,-0.014761,0.046221,0.999962,0.000187,-0.008433,-0.001972,0.788357,-0.279227,-0.295970,-0.461440
48932,NaN,1.224997,-1.676103,5.402114,-2.164334,2.497368,-5.061828,0.104088,-1.742078,-0.505968,-0.596191,0.456299,-0.725098,0.011736,-0.016819,0.054116,0.999959,0.000520,-0.008710,-0.002530,0.784725,-0.282075,-0.303770,-0.460830
48933,NaN,1.332098,-1.397354,6.816169,-2.237420,3.648270,-4.167336,0.017290,-1.701600,-0.548310,-0.610840,0.456299,-0.716553,0.012702,-0.014015,0.068270,0.999960,0.000086,-0.008508,-0.002742,0.781041,-0.285072,-0.311185,-0.460296
48934,NaN,2.211614,-0.330352,7.900152,-1.249931,4.496699,-3.057805,-0.084533,-1.720462,-0.552647,-0.621338,0.454102,-0.708008,0.021426,-0.003330,0.079189,0.999959,-0.000423,-0.008602,-0.002763,0.776941,-0.288490,-0.318482,-0.460115
48935,NaN,3.234682,0.390841,7.467157,-0.185362,4.027076,-2.733065,-0.036904,-1.715297,-0.563357,-0.640381,0.447510,-0.688965,0.031716,0.003832,0.074945,0.999959,-0.000185,-0.008576,-0.002817,0.772842,-0.291737,-0.325607,-0.459983
48936,NaN,3.057709,0.565305,5.015563,0.409503,2.438940,-4.454713,0.237315,-1.835693,-0.647399,-0.657227,0.443359,-0.686768,0.030133,0.005495,0.050440,0.999952,0.001187,-0.009178,-0.003237,0.768674,-0.293973,-0.334174,-0.459399
48937,NaN,2.438838,0.108269,3.620182,0.046324,1.576074,-5.741030,0.655236,-2.062158,-0.794078,-0.671631,0.430420,-0.673828,0.024017,0.000868,0.036454,0.999934,0.003276,-0.010311,-0.003970,0.763982,-0.295136,-0.344238,-0.459050
48938,NaN,3.345465,-1.274262,3.236569,-0.890302,0.329663,-5.081028,1.195426,-2.233669,-1.007672,-0.688232,0.417480,-0.667236,0.033026,-0.013104,0.032659,0.999907,0.005977,-0.011168,-0.005038,0.759518,-0.293934,-0.356967,-0.457504
48939,NaN,6.452391,-2.810460,3.555730,-1.496321,-1.494438,-2.216669,1.734557,-2.335857,-1.112145,-0.710693,0.395996,-0.650146,0.063946,-0.028773,0.036059,0.999879,0.008672,-0.011679,-0.005561,0.755642,-0.290404,-0.371333,-0.454733
48940,NaN,10.203986,-1.836914,2.658743,0.603068,-3.423319,0.310245,1.638589,-2.808488,-0.990087,-0.731445,0.381104,-0.639404,0.101561,-0.019098,0.027861,0.999856,0.008193,-0.014042,-0.004950,0.750448,-0.288718,-0.387051,-0.451289
48941,NaN,16.176158,-3.307158,3.894209,0.345868,-5.545097,6.214890,1.612768,-2.970776,-0.680913,-0.758545,0.365967,-0.626465,0.161048,-0.033946,0.041066,0.999851,0.008063,-0.014853,-0.003404,0.745238,-0.288228,-0.402403,-0.446785
48942,NaN,22.375766,-3.384205,3.569366,1.735797,-8.164552,11.521924,2.308908,-2.808970,-0.503489,-0.772705,0.344482,-0.611572,0.223144,-0.034837,0.038432,0.999832,0.011544,-0.014044,-0.002517,0.741665,-0.284837,-0.418683,-0.439893
48943,NaN,23.751156,-1.187229,1.073849,4.618269,-9.336615,11.591859,3.019129,-2.350282,-0.489204,-0.784912,0.327393,-0.602783,0.237335,-0.012641,0.013341,0.999814,0.015095,-0.011751,-0.002446,0.739998,-0.277714,-0.434622,-0.431720
48944,NaN,19.588147,0.622196,1.014450,4.877139,-6.575216,8.022035,3.058339,-1.889703,-0.599056,-0.797119,0.303711,-0.600586,0.195791,0.005461,0.012082,0.999834,0.015291,-0.009448,-0.002995,0.738723,-0.269129,-0.448972,-0.424595
48945,NaN,12.006927,0.846167,4.064810,1.662232,-0.988205,2.743478,2.610133,-1.718881,-0.804203,-0.811279,0.284424,-0.596191,0.119745,0.007439,0.041780,0.999870,0.013050,-0.008594,-0.004021,0.736897,-0.261076,-0.462147,-0.418619
48946,NaN,8.842038,0.779643,4.802623,0.287931,0.825163,0.241418,2.166237,-1.860042,-0.787706,-0.817139,0.271484,-0.579102,0.087997,0.006923,0.048924,0.999890,0.010831,-0.009300,-0.003938,0.733699,-0.255138,-0.474510,-0.414042
48947,NaN,7.957659,2.215194,2.662579,2.138674,0.358526,-1.409476,1.999640,-1.914349,-0.708983,-0.833496,0.250000,-0.574707,0.079393,0.021598,0.027604,0.999898,0.009998,-0.009571,-0.003545,0.730174,-0.250158,-0.486608,-0.409243
48948,NaN,7.388457,1.642250,2.211877,1.592162,0.007276,-2.089970,2.069207,-1.910038,-0.572065,-0.843994,0.243652,-0.559814,0.073714,0.015977,0.022990,0.999897,0.010346,-0.009550,-0.002860,0.726870,-0.245094,-0.498478,-0.403866
48949,NaN,8.244957,1.564578,1.139223,2.084312,-1.030936,-1.669317,2.069496,-1.961820,-0.311920,-0.855957,0.226318,-0.546875,0.082356,0.015393,0.012361,0.999897,0.010347,-0.009809,-0.001560,0.723651,-0.241003,-0.510123,-0.397519
48950,NaN,9.757156,1.372703,1.522634,1.809664,-1.205897,-0.082774,2.007366,-2.059700,-0.060180,-0.870605,0.217773,-0.531982,0.097411,0.013537,0.016367,0.999897,0.010036,-0.010298,-0.000301,0.720623,-0.237655,-0.521583,-0.390094
48951,NaN,11.585792,1.389079,2.780880,1.209289,-0.652240,2.103671,1.874047,-2.016073,0.118318,-0.878906,0.209229,-0.521240,0.115561,0.013691,0.029104,0.999905,0.009370,-0.010080,0.000592,0.717125,-0.236020,-0.532072,-0.383309
48952,NaN,12.484692,1.685120,2.766584,1.404833,-0.567109,2.995935,1.796697,-1.708493,0.273677,-0.891357,0.207031,-0.510742,0.124581,0.016766,0.028882,0.999922,0.008983,-0.008542,0.001368,0.715170,-0.233562,-0.541275,-0.375502
48953,NaN,12.252054,2.596187,1.738680,2.566204,-0.527391,2.556978,1.474614,-1.412881,0.373137,-0.893555,0.207031,-0.502197,0.122344,0.026057,0.018443,0.999946,0.007373,-0.007064,0.001866,0.713146,-0.232799,-0.548434,-0.369388
48954,NaN,11.225441,1.369948,1.858982,1.310700,-0.764553,1.546835,1.149270,-1.148948,0.426774,-0.897705,0.207031,-0.489502,0.112115,0.013829,0.019313,0.999965,0.005746,-0.005745,0.002134,0.712098,-0.231985,-0.554136,-0.363364
48955,NaN,10.696089,1.260246,1.497416,1.301517,-0.832216,0.950594,1.332630,-1.277383,0.356062,-0.905762,0.194092,-0.482910,0.106839,0.012690,0.015741,0.999956,0.006663,-0.006387,0.001780,0.709838,-0.231863,-0.560306,-0.358366
48956,NaN,9.954067,0.897846,1.593284,0.778598,-0.681702,0.254829,1.668365,-1.506924,0.202855,-0.905762,0.194092,-0.466064,0.099407,0.008942,0.016757,0.999936,0.008342,-0.007534,0.001014,0.707870,-0.229196,-0.568371,-0.351202
48957,NaN,9.323086,0.973488,1.816010,0.499131,-0.201115,-0.279936,1.843748,-1.648812,0.097319,-0.922607,0.187500,-0.461670,0.093072,0.009608,0.019017,0.999923,0.009219,-0.008244,0.000487,0.704846,-0.226694,-0.577140,-0.344544
48958,NaN,9.245855,1.430879,2.015723,0.558078,0.376534,-0.265958,1.938965,-1.719547,0.014959,-0.922119,0.178955,-0.442627,0.092279,0.014114,0.021089,0.999916,0.009695,-0.008597,0.000075,0.702050,-0.222847,-0.586474,-0.336918
48959,NaN,8.552990,1.955787,1.243666,1.254141,0.445422,-1.051906,1.886704,-1.712823,-0.010023,-0.930420,0.174561,-0.432129,0.085419,0.019431,0.013352,0.999919,0.009433,-0.008564,-0.000050,0.698383,-0.220169,-0.595402,-0.330579
48960,NaN,8.842234,3.050250,0.707985,2.292266,0.886405,-0.760230,1.784719,-1.590091,0.056471,-0.936768,0.172363,-0.421387,0.088352,0.030458,0.008054,0.999929,0.008923,-0.007950,0.000282,0.695659,-0.216718,-0.603799,-0.323295
48961,NaN,8.311633,2.854736,0.586232,2.073180,0.890851,-1.299018,1.566066,-1.401219,0.057185,-0.938232,0.155273,-0.408691,0.083063,0.028521,0.006668,0.999945,0.007830,-0.007006,0.000286,0.693123,-0.213637,-0.611311,-0.316604
48962,NaN,8.175982,3.366700,-0.709144,3.231273,0.510362,-1.567682,1.221311,-1.617678,0.065983,-0.942627,0.157471,-0.395996,0.081801,0.033734,-0.006224,0.999949,0.006106,-0.008088,0.000330,0.689553,-0.212156,-0.618747,-0.310898
48963,NaN,7.842143,2.420869,-0.023720,1.958283,0.470005,-1.856379,0.766006,-1.618463,0.070416,-0.952881,0.153076,-0.381104,0.078411,0.024235,0.000490,0.999960,0.003830,-0.008092,0.000352,0.685354,-0.212164,-0.625636,-0.306359
48964,NaN,7.656118,1.582707,0.363222,0.997568,0.251997,-2.054281,0.692272,-1.612971,0.059562,-0.959229,0.155029,-0.366211,0.076524,0.015836,0.004304,0.999961,0.003461,-0.008065,0.000298,0.681109,-0.212441,-0.632135,-0.302266
48965,NaN,7.525075,1.633765,0.389429,0.913157,0.423590,-2.168552,0.661384,-1.634333,0.166628,-0.961182,0.150879,-0.351318,0.075202,0.016386,0.004563,0.999961,0.003307,-0.008172,0.000833,0.676767,-0.213092,-0.638719,-0.297683
48966,NaN,8.085311,1.333459,0.937944,0.215526,0.594366,-1.589011,0.621877,-1.567015,0.134968,-0.969727,0.150879,-0.334473,0.080767,0.013359,0.010054,0.999964,0.003109,-0.007835,0.000675,0.672603,-0.213744,-0.644780,-0.293560
48967,NaN,8.191706,1.480445,1.176820,0.038242,0.947023,-1.459193,0.514685,-1.515395,0.170930,-0.974121,0.157227,-0.325928,0.081812,0.014843,0.012427,0.999968,0.002573,-0.007577,0.000855,0.668386,-0.214696,-0.650639,-0.289542
48968,NaN,8.747981,1.689494,0.992152,0.214368,1.017327,-0.908563,0.338180,-1.485878,0.170398,-0.978027,0.150635,-0.313232,0.087388,0.016952,0.010600,0.999971,0.001691,-0.007429,0.000852,0.664143,-0.216265,-0.655891,-0.286268
48969,NaN,9.192168,1.554176,0.874719,0.102588,0.900335,-0.493153,0.304084,-1.480935,0.164819,-0.975830,0.150635,-0.300537,0.091841,0.015603,0.009451,0.999971,0.001520,-0.007405,0.000824,0.659720,-0.217827,-0.661240,-0.282989
48970,NaN,9.546658,1.437599,1.155307,-0.294761,1.074114,-0.153613,0.358385,-1.456006,0.178473,-0.982422,0.154785,-0.285889,0.095366,0.014440,0.012273,0.999971,0.001792,-0.007280,0.000892,0.655531,-0.219288,-0.666336,-0.279622
48971,NaN,9.394214,1.470630,1.244654,-0.431169,1.274693,-0.317906,0.428822,-1.356914,0.228088,-0.982178,0.150635,-0.270996,0.093838,0.014786,0.013115,0.999974,0.002144,-0.006785,0.001140,0.651670,-0.220456,-0.671290,-0.275853
48972,NaN,9.179165,1.691181,0.808660,-0.033621,1.268362,-0.530459,0.487971,-1.329474,0.252227,-0.995117,0.156982,-0.262451,0.091714,0.017007,0.008738,0.999974,0.002440,-0.006647,0.001261,0.648077,-0.221540,-0.675999,-0.271921
48973,NaN,9.105653,2.030657,0.290757,0.491828,1.294600,-0.582224,0.556302,-1.412993,0.248264,-0.994873,0.152588,-0.247559,0.091007,0.020410,0.003607,0.999970,0.002781,-0.007065,0.001241,0.644127,-0.222419,-0.681191,-0.267598
48974,NaN,9.133620,2.422703,0.091747,0.800551,1.571167,-0.528850,0.541743,-1.465809,0.250527,-0.995117,0.163330,-0.235107,0.091295,0.024338,0.001653,0.999969,0.002709,-0.007329,0.001253,0.640052,-0.223482,-0.686337,-0.263308
48975,NaN,9.501823,2.634077,0.081497,0.811849,1.828363,-0.157343,0.468554,-1.463531,0.220746,-0.999023,0.154785,-0.215820,0.094979,0.026443,0.001572,0.999970,0.002343,-0.007318,0.001104,0.635709,-0.224588,-0.691510,-0.259320
48976,NaN,9.697699,2.694500,0.057244,0.749039,1.967880,0.029742,0.442136,-1.436957,0.196565,-1.003418,0.163330,-0.205322,0.096943,0.027038,0.001329,0.999971,0.002211,-0.007185,0.000983,0.631475,-0.225719,-0.696410,-0.255546
48977,NaN,9.864680,2.696567,0.092587,0.599964,2.101437,0.178011,0.427837,-1.400272,0.184140,-0.999023,0.158936,-0.190674,0.098612,0.027053,0.001674,0.999973,0.002139,-0.007001,0.000921,0.627178,-0.226722,-0.701279,-0.251900
48978,NaN,10.116130,2.696019,0.192354,0.394700,2.274393,0.400594,0.393703,-1.349991,0.206925,-1.003418,0.163086,-0.175781,0.101117,0.027060,0.002659,0.999975,0.001969,-0.006750,0.001035,0.623136,-0.227907,-0.705755,-0.248334
48979,NaN,10.202239,2.667787,0.269163,0.210373,2.410866,0.454591,0.317605,-1.279136,0.276843,-1.009766,0.165283,-0.165283,0.101965,0.026814,0.003386,0.999977,0.001588,-0.006396,0.001384,0.619189,-0.229410,-0.709914,-0.244946
48980,NaN,10.068426,2.619589,0.308356,0.086381,2.503673,0.289452,0.198607,-1.214554,0.360899,-1.009766,0.167236,-0.154785,0.100615,0.026374,0.003721,0.999979,0.000993,-0.006073,0.001804,0.615535,-0.231559,-0.713489,-0.241725
48981,NaN,10.286941,2.734252,0.526506,-0.108945,2.845411,0.456920,0.065707,-1.154022,0.454469,-1.011963,0.175781,-0.142090,0.102774,0.027574,0.005867,0.999981,0.000329,-0.005770,0.002272,0.611910,-0.234306,-0.716669,-0.238858
48982,NaN,10.507838,2.937192,0.735810,-0.226214,3.256105,0.624191,-0.091467,-1.084696,0.530600,-1.005615,0.173584,-0.129395,0.104958,0.029654,0.007914,0.999982,-0.000457,-0.005423,0.002653,0.608538,-0.237778,-0.719243,-0.236287
48983,NaN,10.812020,2.570966,0.784748,-0.580134,3.128709,0.864340,-0.212091,-0.953579,0.581117,-1.008057,0.186523,-0.118896,0.108006,0.026032,0.008335,0.999984,-0.001060,-0.004768,0.002906,0.605419,-0.241582,-0.721254,-0.234306
48984,NaN,11.205988,1.563907,0.828926,-1.331508,2.510771,1.170446,-0.217234,-0.751480,0.622233,-1.006104,0.190918,-0.114746,0.111978,0.015997,0.008693,0.999988,-0.001086,-0.003757,0.003111,0.603168,-0.245360,-0.722513,-0.232295
48985,NaN,12.213879,0.327056,0.890507,-2.323006,1.770338,2.084686,-0.165810,-0.503774,0.658305,-1.003906,0.195068,-0.112549,0.122104,0.003680,0.009210,0.999991,-0.000829,-0.002519,0.003292,0.601805,-0.248778,-0.723057,-0.230497
48986,NaN,13.430499,0.059282,0.958339,-2.707626,1.802478,3.253272,-0.181224,-0.219304,0.673962,-1.008545,0.205811,-0.110596,0.134291,0.001054,0.009730,0.999993,-0.000906,-0.001097,0.003370,0.601560,-0.252010,-0.722665,-0.228850
48987,NaN,14.749888,0.077202,1.043145,-2.906624,2.063406,4.538145,-0.247641,0.049656,0.650761,-1.010742,0.208008,-0.110596,0.147498,0.001265,0.010393,0.999994,-0.001238,0.000248,0.003254,0.602101,-0.255019,-0.721401,-0.228077
48988,NaN,16.795911,0.620903,1.402355,-3.035690,2.955867,6.512173,-0.268924,0.322963,0.585134,-1.006836,0.220703,-0.112793,0.167962,0.006719,0.013744,0.999994,-0.001345,0.001615,0.002926,0.603587,-0.257569,-0.719372,-0.227696
48989,NaN,18.402865,1.588554,1.683787,-2.713703,4.033002,8.086827,-0.298251,0.714748,0.442026,-1.007080,0.222900,-0.119141,0.184051,0.016317,0.016156,0.999990,-0.001491,0.003574,0.002210,0.606238,-0.259229,-0.716249,-0.228612
48990,NaN,18.744129,2.158891,1.547717,-2.104056,4.345959,8.492486,-0.442819,1.199184,0.235673,-1.006836,0.216553,-0.138184,0.187504,0.021842,0.014305,0.999979,-0.002214,0.005996,0.001178,0.610216,-0.260038,-0.711787,-0.231033
48991,NaN,16.965471,0.765944,1.749696,-2.733333,3.110673,6.749937,-0.546316,1.721485,0.010843,-1.004883,0.216553,-0.150879,0.169796,0.007714,0.016015,0.999959,-0.002732,0.008607,0.000054,0.615614,-0.259740,-0.705761,-0.235491
48992,NaN,15.887610,0.388435,2.087724,-2.886434,2.755714,5.711173,-0.713536,2.133181,-0.211006,-1.007080,0.218750,-0.172119,0.159091,0.003787,0.019168,0.999936,-0.003568,0.010666,-0.001055,0.621927,-0.258663,-0.698584,-0.241414
48993,NaN,15.577877,0.450020,2.669148,-2.996468,2.900188,5.438337,-1.135196,2.499268,-0.408279,-1.009033,0.210449,-0.195068,0.156105,0.004326,0.024717,0.999904,-0.005676,0.012496,-0.002041,0.628655,-0.257727,-0.689758,-0.250207
48994,NaN,15.690264,0.050034,3.728428,-3.765494,3.008165,5.576945,-1.641712,2.971300,-0.581874,-1.000488,0.206055,-0.218506,0.157435,0.000336,0.034945,0.999852,-0.008208,0.014856,-0.002909,0.635965,-0.257124,-0.679013,-0.261490
48995,NaN,15.376722,0.733544,3.830337,-3.003029,3.195033,5.431943,-1.994654,3.555676,-0.657364,-0.996338,0.201904,-0.256592,0.154439,0.007192,0.035489,0.999787,-0.009973,0.017777,-0.003287,0.644518,-0.256538,-0.665602,-0.275244
48996,NaN,15.578653,1.273923,3.264203,-1.826038,2.746533,5.809718,-2.290831,3.871953,-0.684563,-0.988037,0.204102,-0.288330,0.156421,0.012554,0.029473,0.999741,-0.011453,0.019358,-0.003423,0.653357,-0.256245,-0.650678,-0.289969
48997,NaN,14.842424,2.062048,2.580160,-0.339845,2.345161,5.205754,-2.510959,4.121269,-0.652301,-0.984131,0.210693,-0.324219,0.148977,0.020431,0.022478,0.999704,-0.012554,0.020604,-0.003261,0.662456,-0.256276,-0.633973,-0.305864
48998,NaN,15.031700,2.254566,2.284230,0.454677,1.727973,5.452266,-2.511386,4.255580,-0.447759,-0.973633,0.210938,-0.364502,0.150804,0.022466,0.019354,0.999692,-0.012556,0.021276,-0.002239,0.671839,-0.256587,-0.616417,-0.320666
48999,NaN,16.534829,2.654145,1.771221,1.641759,0.870572,6.922834,-2.253234,4.358172,-0.186910,-0.957275,0.221680,-0.398438,0.165702,0.026557,0.013805,0.999699,-0.011265,0.021789,-0.000934,0.681913,-0.256494,-0.597958,-0.334143
49000,NaN,17.835363,3.725699,1.036393,3.552780,0.200730,8.085098,-1.865700,4.432130,-0.035158,-0.944580,0.217529,-0.438721,0.178526,0.037296,0.006061,0.999711,-0.009328,0.022159,-0.000176,0.692515,-0.255269,-0.579602,-0.345429
49001,NaN,16.838583,3.657490,-1.101894,5.260082,-1.918290,6.519121,-1.247392,4.453878,-0.142559,-0.925781,0.221924,-0.474609,0.168107,0.036370,-0.014992,0.999732,-0.006236,0.022267,-0.000713,0.703406,-0.251358,-0.561816,-0.355530
49002,NaN,14.536468,1.196597,-3.548150,4.928810,-5.314134,3.331444,-0.418890,3.870940,-0.382933,-0.913086,0.219971,-0.512695,0.144664,0.011610,-0.038311,0.999809,-0.002094,0.019353,-0.001915,0.712938,-0.244824,-0.547831,-0.362851
49003,NaN,12.631382,-0.754110,-4.991427,4.211981,-7.501888,0.722951,-0.514915,3.181730,-0.505443,-0.902588,0.219971,-0.540283,0.125479,-0.007991,-0.051895,0.999867,-0.002574,0.015908,-0.002527,0.719983,-0.239381,-0.535948,-0.370244
49004,NaN,10.422004,-1.561498,-5.583681,3.692862,-8.098290,-1.875237,-1.665671,3.137613,-0.206740,-0.888184,0.235107,-0.565918,0.103312,-0.016195,-0.057329,0.999842,-0.008328,0.015687,-0.001034,0.725901,-0.238975,-0.521732,-0.379149
49005,NaN,9.410869,-1.665644,-4.102788,2.635057,-6.984363,-2.571203,-2.550629,3.204263,0.106533,-0.871582,0.245850,-0.587158,0.093447,-0.017141,-0.042312,0.999790,-0.012752,0.016020,0.000533,0.731219,-0.242292,-0.504977,-0.389373
49006,NaN,8.859420,-1.693127,0.194375,0.237745,-3.793175,-1.630704,-2.185196,2.951444,0.137847,-0.859375,0.256592,-0.608398,0.088623,-0.016857,0.000820,0.999831,-0.010925,0.014756,0.000689,0.736169,-0.244840,-0.489680,-0.397897
49007,NaN,8.894674,-1.497502,3.435992,-1.147562,-1.416439,-0.334477,-1.620876,2.460219,0.087579,-0.842529,0.263184,-0.625488,0.089368,-0.014663,0.033382,0.999891,-0.008104,0.012301,0.000438,0.740261,-0.246016,-0.477241,-0.404636
49008,NaN,7.719727,-0.927120,2.659330,-0.374175,-1.378381,-1.720520,-2.050149,2.238685,0.157843,-0.832764,0.284668,-0.636230,0.077496,-0.008943,0.025820,0.999885,-0.010250,0.011193,0.000789,0.743316,-0.249421,-0.464557,-0.411652
49009,NaN,9.754290,-2.708179,1.978700,-0.943431,-3.712928,-0.235746,-2.320369,1.976242,0.231685,-0.818359,0.297363,-0.651123,0.097765,-0.026744,0.019133,0.999883,-0.011601,0.009881,0.001158,0.745369,-0.254413,-0.452098,-0.418696
49010,NaN,9.641697,-2.237922,0.699409,0.154714,-4.503234,-0.972263,-1.860226,2.527879,0.348221,-0.799561,0.310303,-0.668213,0.096536,-0.022152,0.005981,0.999875,-0.009301,0.012639,0.001741,0.749353,-0.256806,-0.438283,-0.424768
49011,NaN,7.844422,-1.278411,1.255513,0.408363,-2.992681,-2.354828,-1.333502,2.551539,0.304491,-0.781006,0.321045,-0.689453,0.078616,-0.012585,0.011637,0.999895,-0.006667,0.012757,0.001522,0.753776,-0.256973,-0.425486,-0.429823
49012,NaN,8.280761,-0.108207,2.840579,1.007302,-1.561384,-1.257325,-0.948858,2.717924,0.114348,-0.764404,0.329834,-0.706543,0.083184,-0.000903,0.027282,0.999896,-0.004744,0.013589,0.000572,0.758507,-0.254922,-0.413012,-0.434860
49013,NaN,6.991706,0.551993,3.268468,1.183489,-0.517809,-2.183878,-1.039866,2.756285,-0.065438,-0.747559,0.333984,-0.719238,0.070360,0.005663,0.031688,0.999891,-0.005199,0.013781,-0.000327,0.762626,-0.252667,-0.400393,-0.440733
49014,NaN,5.263450,0.506646,2.556833,1.035364,-0.404941,-4.045570,-1.400710,2.732711,-0.066550,-0.724365,0.340576,-0.744873,0.052979,0.005224,0.024810,0.999882,-0.007003,0.013663,-0.000333,0.766091,-0.251820,-0.386923,-0.447193
49015,NaN,3.301267,-0.358642,1.802542,0.050412,-0.502484,-6.068321,-1.718316,2.636010,0.094609,-0.708008,0.359863,-0.755615,0.033248,-0.003418,0.017618,0.999876,-0.008591,0.013180,0.000473,0.769121,-0.252613,-0.372887,-0.453425
49016,NaN,1.831010,-0.753119,1.084718,-0.450942,-0.503857,-7.658859,-1.858187,2.441623,0.291184,-0.685303,0.375000,-0.768555,0.018452,-0.007405,0.010692,0.999881,-0.009291,0.012208,0.001456,0.771895,-0.254734,-0.358873,-0.458802
49017,NaN,-0.773037,-1.111369,0.676777,-1.454192,0.406068,-9.917769,-1.891344,2.012940,0.485829,-0.675293,0.394287,-0.775146,-0.007634,-0.011067,0.006950,0.999902,-0.009456,0.010064,0.002429,0.774118,-0.258221,-0.346182,-0.462841
49018,NaN,2.445797,-0.856531,1.252646,-0.302628,-0.799674,-7.064345,-1.645309,1.840449,0.562022,-0.656494,0.407227,-0.777344,0.024596,-0.008394,0.012370,0.999920,-0.008226,0.009202,0.002810,0.776418,-0.261280,-0.334497,-0.465855
49019,NaN,1.261823,-0.553250,0.993611,-0.324937,-0.222992,-8.160370,-1.416427,1.710442,0.532460,-0.648438,0.424316,-0.785889,0.012717,-0.005429,0.009866,0.999935,-0.007082,0.008552,0.002662,0.778604,-0.263634,-0.323902,-0.468360
49020,NaN,0.637724,-0.906547,1.321294,-0.920226,0.202655,-8.368255,-1.138819,1.325081,0.479702,-0.634033,0.432861,-0.790283,0.006486,-0.008975,0.013221,0.999959,-0.005694,0.006625,0.002398,0.780340,-0.265728,-0.315430,-0.470066
49021,NaN,1.168086,-1.371099,1.757476,-1.230429,0.016866,-7.617521,-0.890112,0.824148,0.371216,-0.629883,0.441406,-0.794678,0.011779,-0.013611,0.017587,0.999980,-0.004451,0.004121,0.001856,0.781302,-0.267816,-0.309677,-0.471106
49022,NaN,2.119016,-1.617506,2.338945,-1.218180,-0.212764,-6.488842,-0.663347,0.357883,0.184264,-0.632080,0.445801,-0.786133,0.021247,-0.016078,0.023405,0.999992,-0.003317,0.001789,0.000921,0.781396,-0.269845,-0.306467,-0.471891
49023,NaN,2.308296,-1.615654,3.020576,-1.283590,0.172197,-5.890294,-0.529096,0.017544,-0.014169,-0.625732,0.445801,-0.790527,0.023084,-0.016078,0.030246,0.999996,-0.002645,0.000088,-0.000071,0.780665,-0.271829,-0.305210,-0.472777
49024,NaN,2.296953,-1.288498,3.501357,-1.089616,0.671028,-5.622445,-0.484156,-0.304659,-0.204107,-0.638672,0.452148,-0.779785,0.022903,-0.012824,0.035080,0.999995,-0.002421,-0.001523,-0.001021,0.779056,-0.274124,-0.305530,-0.473898
49025,NaN,1.801524,-1.282859,4.069690,-1.386150,1.390593,-5.617650,-0.509300,-0.534619,-0.330926,-0.640625,0.447754,-0.777588,0.017885,-0.012754,0.040777,0.999992,-0.002546,-0.002673,-0.001655,0.776745,-0.276852,-0.306882,-0.475230
49026,NaN,1.315340,-1.536375,4.383562,-1.858942,1.829654,-5.750334,-0.520195,-0.702195,-0.432965,-0.647217,0.454346,-0.771484,0.012966,-0.015278,0.043921,0.999988,-0.002601,-0.003511,-0.002165,0.773910,-0.279871,-0.308968,-0.476734
49027,NaN,1.065323,-1.503865,4.830282,-2.017191,2.350355,-5.673281,-0.397632,-0.828162,-0.558861,-0.657715,0.452148,-0.769287,0.010411,-0.014972,0.048376,0.999986,-0.001988,-0.004141,-0.002794,0.770728,-0.282502,-0.311999,-0.478359
49028,NaN,0.989144,-0.642048,6.243349,-1.571544,3.804706,-4.972843,-0.088532,-1.036199,-0.680757,-0.670410,0.447754,-0.764893,0.009546,-0.006426,0.062486,0.999981,-0.000443,-0.005181,-0.003404,0.767343,-0.284251,-0.316736,-0.479650
49029,NaN,2.200413,0.822263,8.110397,-0.260409,5.124550,-3.106968,0.072019,-1.325432,-0.684008,-0.685059,0.441406,-0.754150,0.021494,0.008119,0.081250,0.999972,0.000360,-0.006627,-0.003420,0.763685,-0.286041,-0.322914,-0.480304
49030,NaN,3.925395,1.574836,8.198609,0.915722,4.607833,-1.873290,0.002681,-1.452827,-0.609783,-0.693359,0.437012,-0.741455,0.038705,0.015629,0.082269,0.999969,0.000013,-0.007264,-0.003049,0.759855,-0.288524,-0.329330,-0.480538
49031,NaN,3.864266,1.718502,6.236776,1.404746,3.297283,-3.184190,-0.103611,-1.455954,-0.611581,-0.710449,0.439209,-0.737305,0.038240,0.017100,0.062638,0.999969,-0.000518,-0.007280,-0.003058,0.755813,-0.291350,-0.335409,-0.481002
49032,NaN,2.696525,1.283168,4.263957,1.038254,2.319770,-5.269632,-0.102289,-1.572981,-0.742192,-0.718506,0.430664,-0.726562,0.026676,0.012754,0.042844,0.999962,-0.000511,-0.007865,-0.003711,0.751212,-0.294261,-0.342175,-0.481671
49033,NaN,2.324266,0.626723,3.619491,0.419009,1.828003,-5.891195,0.304301,-1.592456,-0.975723,-0.741699,0.421875,-0.719971,0.022983,0.006099,0.036388,0.999955,0.001521,-0.007962,-0.004879,0.746547,-0.295201,-0.350226,-0.482561
49034,NaN,3.772544,-1.369304,2.340220,-0.783476,-0.589258,-5.271566,1.170022,-1.660119,-1.180059,-0.764160,0.398438,-0.715576,0.037448,-0.014052,0.023632,0.999931,0.005850,-0.008300,-0.005900,0.742469,-0.292749,-0.360963,-0.482435
49035,NaN,7.360271,-2.163913,2.049871,-0.590739,-2.851593,-2.425225,1.581900,-2.245617,-1.102728,-0.778564,0.379150,-0.698486,0.073246,-0.022209,0.021148,0.999890,0.007909,-0.011228,-0.005513,0.737986,-0.290203,-0.374604,-0.480448
49036,NaN,12.939258,-3.110465,5.949587,-1.323853,-2.683810,4.453636,1.103017,-2.710262,-0.792091,-0.803711,0.374756,-0.683594,0.128447,-0.031949,0.061066,0.999885,0.005515,-0.013551,-0.003960,0.732523,-0.291124,-0.388359,-0.477320
49037,NaN,21.034923,-2.064030,8.337802,0.568665,-3.865459,12.569274,1.112396,-2.550848,-0.550595,-0.817871,0.355469,-0.666504,0.209205,-0.021691,0.085932,0.999899,0.005562,-0.012754,-0.002753,0.727802,-0.291995,-0.401048,-0.473501
49038,NaN,24.980584,-1.104977,4.259773,3.238166,-8.170665,13.980712,1.694374,-2.096389,-0.458565,-0.836670,0.344727,-0.653564,0.249315,-0.011997,0.045114,0.999907,0.008472,-0.010482,-0.002293,0.724919,-0.289843,-0.413319,-0.468669
49039,NaN,20.698513,-1.465667,0.870015,2.775578,-8.862392,8.763535,2.287980,-1.833093,-0.583448,-0.844727,0.325439,-0.651367,0.206851,-0.015373,0.010423,0.999888,0.011439,-0.009165,-0.002917,0.722994,-0.284583,-0.426114,-0.463378
49040,NaN,13.347726,-1.997223,3.513436,-0.414309,-3.630484,3.646016,2.067616,-1.762790,-0.760513,-0.854492,0.303955,-0.634033,0.133084,-0.020849,0.036096,0.999900,0.010338,-0.008814,-0.003802,0.720346,-0.279542,-0.438316,-0.459170
49041,NaN,8.504991,-1.145808,5.524928,-1.570365,0.474941,0.260835,1.561282,-1.966592,-0.845508,-0.875244,0.291016,-0.627686,0.084451,-0.012251,0.055988,0.999912,0.007806,-0.009833,-0.004227,0.716206,-0.276554,-0.450168,-0.455978
49042,NaN,7.394883,0.646759,4.548293,0.018344,1.018032,-1.166983,1.429817,-2.186918,-0.919724,-0.891846,0.278076,-0.608398,0.073473,0.005800,0.046331,0.999904,0.007149,-0.010934,-0.004598,0.711095,-0.274320,-0.462487,-0.452988
49043,NaN,6.682580,1.405261,3.385730,0.869838,0.800832,-2.283190,1.529529,-2.120235,-0.864629,-0.899658,0.258789,-0.601807,0.066520,0.013502,0.034668,0.999905,0.007647,-0.010601,-0.004323,0.706259,-0.271657,-0.474660,-0.449554
49044,NaN,6.905297,1.269231,1.630325,1.369492,-0.654629,-2.766768,1.594441,-2.219776,-0.668499,-0.916260,0.248047,-0.582764,0.068907,0.012327,0.017168,0.999901,0.007972,-0.011099,-0.003342,0.701584,-0.269400,-0.486943,-0.445073
49045,NaN,8.961276,0.693309,1.884807,0.861553,-1.318884,-0.765495,1.555120,-2.248469,-0.385230,-0.928711,0.237305,-0.565674,0.089406,0.006609,0.019906,0.999905,0.007775,-0.011242,-0.001926,0.697270,-0.267976,-0.498799,-0.439549
49046,NaN,10.954076,0.686022,2.570349,0.613661,-1.281612,1.369659,1.496002,-2.073746,-0.069875,-0.943115,0.226562,-0.552979,0.109268,0.006624,0.026888,0.999918,0.007480,-0.010368,-0.000349,0.693892,-0.267119,-0.509368,-0.433249
49047,NaN,12.644098,1.534821,2.566011,1.378824,-1.223857,3.048414,1.476066,-1.963859,0.130794,-0.951416,0.224365,-0.533691,0.126170,0.015235,0.027013,0.999924,0.007380,-0.009819,0.000654,0.691078,-0.266557,-0.519214,-0.426351
49048,NaN,13.365518,1.934026,2.026259,1.913926,-1.463854,3.628716,1.438148,-1.769131,0.209579,-0.961914,0.219971,-0.523193,0.133448,0.019328,0.021583,0.999934,0.007191,-0.008845,0.001048,0.688804,-0.265883,-0.528078,-0.419510
49049,NaN,13.309673,2.306665,1.960720,2.120389,-1.082158,3.627518,1.523540,-1.778450,0.208242,-0.963867,0.213379,-0.506104,0.132890,0.023049,0.020965,0.999931,0.007618,-0.008892,0.001041,0.686500,-0.264886,-0.537152,-0.412336
49050,NaN,13.261328,2.460291,1.824628,2.164492,-0.865101,3.596440,1.574656,-1.874648,0.147806,-0.974365,0.209229,-0.495605,0.132415,0.024550,0.019682,0.999925,0.007873,-0.009373,0.000739,0.683804,-0.263720,-0.546596,-0.405088
49051,NaN,11.473897,2.087555,1.267547,1.884282,-0.831745,1.735876,1.171945,-1.487590,0.239239,-0.984619,0.202637,-0.482666,0.114615,0.020935,0.013651,0.999954,0.005860,-0.007438,0.001196,0.681704,-0.263349,-0.553800,-0.399040
49052,NaN,10.654004,1.327350,1.539304,0.948664,-0.657812,0.971729,0.757860,-1.603325,0.164655,-0.988770,0.202637,-0.468018,0.106401,0.013301,0.016297,0.999960,0.003789,-0.008017,0.000823,0.678564,-0.264407,-0.560538,-0.394255
49053,NaN,10.325312,0.554505,1.934887,-0.043662,-0.533547,0.693198,0.888290,-1.792690,-0.014660,-0.999023,0.194092,-0.453125,0.103074,0.005449,0.020298,0.999950,0.004441,-0.008963,-0.000073,0.674609,-0.264849,-0.568459,-0.389373
49054,NaN,9.663565,0.201794,1.746275,-0.388673,-0.592646,-0.016279,1.256404,-1.804084,-0.111749,-1.009766,0.193848,-0.440430,0.096474,0.001851,0.018345,0.999939,0.006282,-0.009020,-0.000559,0.670887,-0.263787,-0.577103,-0.383769
49055,NaN,9.226965,0.305239,1.588970,-0.360328,-0.441837,-0.462431,1.403998,-1.778516,-0.140387,-1.015625,0.185303,-0.427490,0.092125,0.002872,0.016730,0.999936,0.007020,-0.008892,-0.000702,0.667253,-0.262048,-0.586004,-0.377761
49056,NaN,9.180344,1.077438,1.386717,0.260676,-0.025533,-0.469693,1.327973,-1.673565,-0.041305,-1.019531,0.176758,-0.412598,0.091685,0.010660,0.014706,0.999943,0.006640,-0.008368,-0.000207,0.663973,-0.260639,-0.594117,-0.371796
49057,NaN,9.065432,2.099852,1.178749,1.105286,0.549706,-0.514537,1.011624,-1.208735,0.159800,-1.021729,0.178955,-0.402100,0.090564,0.021009,0.012441,0.999969,0.005058,-0.006044,0.000799,0.661935,-0.259976,-0.599873,-0.366616
49058,NaN,9.365619,1.712649,0.520395,1.120411,-0.142720,-0.344759,0.729894,-1.267163,0.073035,-1.030273,0.180908,-0.391602,0.093614,0.017140,0.005860,0.999973,0.003649,-0.006336,0.000365,0.659199,-0.260092,-0.605294,-0.362530
49059,NaN,8.229275,2.671731,-0.310768,2.310621,0.070251,-1.469383,0.302591,-1.271415,0.073371,-1.034424,0.178711,-0.378906,0.082300,0.026752,-0.002544,0.999979,0.001513,-0.006357,0.000367,0.655815,-0.261591,-0.610019,-0.359657
49060,NaN,8.575944,1.607882,0.480908,0.910651,0.091055,-1.122215,0.250935,-1.498548,-0.009698,-1.034180,0.176514,-0.364014,0.085721,0.016068,0.005472,0.999971,0.001255,-0.007493,-0.000048,0.651536,-0.263423,-0.615379,-0.356955
49061,NaN,7.688085,0.964689,0.697833,0.201766,0.093308,-2.036201,0.450563,-1.428472,0.011990,-1.040527,0.170166,-0.353271,0.076828,0.009635,0.007549,0.999972,0.002253,-0.007142,0.000060,0.647681,-0.264502,-0.620906,-0.353588
49062,NaN,7.275288,0.986589,0.130435,0.503277,-0.192164,-2.489523,0.539468,-1.595339,-0.030425,-1.044678,0.176514,-0.332275,0.072741,0.009850,0.001911,0.999965,0.002697,-0.007977,-0.000152,0.643365,-0.265468,-0.627044,-0.349891
49063,NaN,7.106831,0.668607,0.335812,0.053081,-0.114951,-2.667783,0.502398,-1.621159,-0.045416,-1.051025,0.172119,-0.321533,0.071039,0.006661,0.003951,0.999964,0.002512,-0.008106,-0.000227,0.638787,-0.266503,-0.633276,-0.346250
49064,NaN,7.224013,0.491714,0.569553,-0.314822,0.035912,-2.556593,0.538109,-1.638351,-0.050589,-1.057129,0.167725,-0.302490,0.072191,0.004882,0.006300,0.999963,0.002691,-0.008192,-0.000253,0.634205,-0.267447,-0.639485,-0.342513
49065,NaN,7.374857,0.672305,0.903251,-0.472821,0.483142,-2.383135,0.559330,-1.518189,-0.034435,-1.061035,0.161377,-0.285645,0.073678,0.006684,0.009611,0.999967,0.002797,-0.007591,-0.000172,0.629960,-0.268123,-0.645378,-0.338745
49066,NaN,7.342378,0.924976,0.784522,-0.277669,0.638259,-2.403505,0.483895,-1.502392,-0.025221,-1.065430,0.165527,-0.274902,0.073363,0.009221,0.008419,0.999969,0.002419,-0.007512,-0.000126,0.625698,-0.269050,-0.650944,-0.335240
49067,NaN,7.434879,1.000946,0.707503,-0.253650,0.706975,-2.315045,0.441716,-1.466032,-0.008419,-1.067383,0.159180,-0.264404,0.074295,0.009990,0.007642,0.999971,0.002209,-0.007330,-0.000042,0.621432,-0.270059,-0.656351,-0.331805
49068,NaN,7.610717,1.130405,0.608027,-0.177847,0.788547,-2.137009,0.426151,-1.411003,0.036556,-1.073730,0.159180,-0.249512,0.076060,0.011304,0.006641,0.999973,0.002131,-0.007055,0.000183,0.617420,-0.271185,-0.661375,-0.328380
49069,NaN,7.408470,1.184860,0.542476,-0.144046,0.867855,-2.342161,0.398966,-1.339678,0.084644,-1.073730,0.163330,-0.232666,0.074041,0.011868,0.005944,0.999975,0.001995,-0.006698,0.000423,0.613600,-0.272394,-0.666115,-0.324941
49070,NaN,7.356357,1.438277,0.181631,0.224347,0.839309,-2.365410,0.365243,-1.338480,0.133780,-1.077637,0.156738,-0.219971,0.073539,0.014428,0.002335,0.999976,0.001826,-0.006692,0.000669,0.609842,-0.273884,-0.670618,-0.321485
49071,NaN,7.487925,1.637266,-0.158324,0.518997,0.792067,-2.204992,0.328398,-1.358989,0.154496,-1.077881,0.163330,-0.203125,0.074875,0.016433,-0.001048,0.999975,0.001642,-0.006795,0.000772,0.605914,-0.275545,-0.675135,-0.318019
49072,NaN,7.556108,1.814100,-0.640926,0.896723,0.627452,-2.092730,0.328206,-1.334918,0.175335,-1.082031,0.167480,-0.188232,0.075586,0.018217,-0.005875,0.999976,0.001641,-0.006675,0.000877,0.602124,-0.277255,-0.679445,-0.314534
49073,NaN,7.602240,1.617338,-0.959278,0.888568,0.351450,-2.039918,0.383419,-1.357553,0.205537,-1.086182,0.165283,-0.179688,0.076068,0.016269,-0.009045,0.999975,0.001917,-0.006788,0.001028,0.598294,-0.278889,-0.683906,-0.310706
49074,NaN,7.994426,1.470292,-0.722787,0.517425,0.537735,-1.686372,0.355038,-1.370280,0.255263,-1.086426,0.169434,-0.166992,0.079972,0.014817,-0.006654,0.999974,0.001775,-0.006851,0.001276,0.594484,-0.280818,-0.688184,-0.306810
49075,NaN,8.343636,1.447700,-0.278365,0.107858,0.969795,-1.396257,0.288329,-1.332011,0.292206,-1.088135,0.163086,-0.145996,0.083431,0.014602,-0.002207,0.999976,0.001442,-0.006660,0.001461,0.590679,-0.282962,-0.692232,-0.303060
49076,NaN,8.854281,1.470060,-0.169035,-0.073151,1.190830,-0.915314,0.297269,-1.297695,0.343456,-1.086426,0.175781,-0.133301,0.088526,0.014855,-0.001094,0.999976,0.001486,-0.006488,0.001717,0.587115,-0.285229,-0.696014,-0.299175
49077,NaN,9.074377,1.381923,-0.082005,-0.280101,1.319171,-0.732993,0.364786,-1.228932,0.401177,-1.090576,0.177979,-0.120605,0.090718,0.014002,-0.000237,0.999977,0.001824,-0.006145,0.002006,0.583887,-0.287344,-0.699646,-0.294967
49078,NaN,9.262433,1.544533,-0.196317,-0.159559,1.465690,-0.536817,0.428633,-1.209817,0.446021,-1.097168,0.184326,-0.112305,0.092599,0.015655,-0.001370,0.999977,0.002143,-0.006049,0.002230,0.580914,-0.289427,-0.703155,-0.290421
49079,NaN,9.732952,2.030644,-0.181692,0.070793,1.953566,-0.062617,0.460636,-1.230265,0.478712,-1.092773,0.184326,-0.101562,0.097289,0.020543,-0.001171,0.999976,0.002303,-0.006151,0.002394,0.577882,-0.291507,-0.706746,-0.285634
49080,NaN,10.426189,2.747117,-0.215014,0.463419,2.596047,0.643994,0.407163,-1.234440,0.508646,-1.092773,0.188477,-0.084717,0.104202,0.027740,-0.001451,0.999976,0.002036,-0.006172,0.002543,0.574825,-0.293881,-0.710137,-0.280920
49081,NaN,10.989806,3.137189,-0.103830,0.536775,3.132938,1.165615,0.274152,-1.216518,0.549511,-1.094971,0.190674,-0.074219,0.109815,0.031674,-0.000327,0.999977,0.001371,-0.006083,0.002748,0.571615,-0.296696,-0.713245,-0.276603
49082,NaN,11.398773,3.090708,-0.100985,0.389877,3.290868,1.523579,0.169994,-1.152349,0.583871,-1.093018,0.197021,-0.061523,0.113900,0.031240,-0.000327,0.999979,0.000850,-0.005762,0.002919,0.568553,-0.299876,-0.715894,-0.272614
49083,NaN,11.724912,2.883954,0.084025,0.025760,3.467274,1.753353,0.101562,-1.083453,0.619352,-1.093262,0.207764,-0.049072,0.117152,0.029202,0.001490,0.999980,0.000508,-0.005417,0.003097,0.565612,-0.303218,-0.718210,-0.268916
49084,NaN,12.282560,2.588043,0.296617,-0.453058,3.638485,2.195706,0.080563,-1.006880,0.647342,-1.091309,0.216309,-0.042725,0.122724,0.026276,0.003595,0.999982,0.000403,-0.005034,0.003237,0.562978,-0.306659,-0.720173,-0.265266
49085,NaN,12.874746,2.231202,0.413080,-0.915812,3.707310,2.690245,0.113890,-0.901776,0.653593,-1.091553,0.220459,-0.032227,0.128653,0.022730,0.004724,0.999984,0.000569,-0.004509,0.003268,0.560725,-0.309819,-0.721877,-0.261713
49086,NaN,13.916041,1.612706,0.613389,-1.695710,3.736797,3.595984,0.156690,-0.765406,0.672957,-1.091797,0.229004,-0.021729,0.139080,0.016590,0.006679,0.999987,0.000783,-0.003827,0.003365,0.559078,-0.312802,-0.723177,-0.258073
49087,NaN,15.065038,1.216843,0.882081,-2.358917,3.984145,4.601706,0.110211,-0.559956,0.685824,-1.089600,0.233398,-0.019531,0.150582,0.012680,0.009249,0.999990,0.000551,-0.002800,0.003429,0.558083,-0.315626,-0.723812,-0.254989
49088,NaN,16.372412,1.775737,1.118169,-2.288802,4.870223,5.791815,-0.077755,-0.264410,0.683509,-1.093994,0.237549,-0.019531,0.163647,0.018321,0.011391,0.999993,-0.000389,-0.001322,0.003418,0.557870,-0.318648,-0.723369,-0.252945
49089,NaN,17.914969,3.127537,0.636186,-1.161879,5.773566,7.404955,-0.344388,0.103410,0.598738,-1.098389,0.239746,-0.021729,0.179058,0.031822,0.006215,0.999994,-0.001722,0.000517,0.002994,0.558451,-0.321572,-0.721667,-0.252823
49090,NaN,19.072724,4.502835,-0.766135,0.694001,5.883622,8.883054,-0.615660,0.532757,0.417034,-1.096436,0.241943,-0.032227,0.190611,0.045401,-0.008309,0.999990,-0.003078,0.002664,0.002085,0.559905,-0.324115,-0.718725,-0.254736
49091,NaN,17.847328,3.762217,-1.813312,1.154483,4.307407,7.965928,-0.748880,1.010911,0.202253,-1.100830,0.250488,-0.038574,0.178340,0.037732,-0.019176,0.999980,-0.003744,0.005055,0.001011,0.562586,-0.325560,-0.714559,-0.258674
49092,NaN,16.634253,2.238840,-1.699399,0.265470,3.012606,6.783922,-0.808064,1.357950,-0.050499,-1.092285,0.244141,-0.049316,0.166227,0.022274,-0.018213,0.999969,-0.004040,0.006790,-0.000252,0.566039,-0.325882,-0.709756,-0.263907
49093,NaN,15.764654,0.642627,-0.120264,-1.680261,2.795213,5.624588,-0.943235,1.621175,-0.200526,-1.098633,0.239990,-0.070312,0.157636,0.006258,-0.002510,0.999956,-0.004716,0.008106,-0.001003,0.569986,-0.325587,-0.704170,-0.270654
49094,NaN,15.455604,-0.479124,1.678138,-3.478366,3.165584,5.012799,-1.364590,1.824085,-0.268662,-1.102783,0.235840,-0.093506,0.154694,-0.004891,0.015404,0.999934,-0.006823,0.009120,-0.001343,0.573785,-0.326036,-0.697518,-0.279177
49095,NaN,16.241981,-0.607219,3.553255,-4.652119,4.383112,5.547378,-1.915048,2.232883,-0.301818,-1.100830,0.235840,-0.121094,0.162794,-0.005989,0.033774,0.999891,-0.009575,0.011164,-0.001509,0.578006,-0.327224,-0.688780,-0.290544
49096,NaN,16.174020,0.452193,4.873973,-4.335094,5.767167,5.467476,-2.413873,2.976446,-0.309735,-1.103027,0.233887,-0.146484,0.162448,0.004839,0.046268,0.999815,-0.012069,0.014881,-0.001549,0.583750,-0.328744,-0.677053,-0.304570
49097,NaN,15.368547,1.673832,4.956098,-2.952051,6.101161,4.938004,-2.749366,3.709688,-0.353142,-1.103027,0.227539,-0.195068,0.154597,0.017119,0.046465,0.999732,-0.013746,0.018547,-0.001766,0.591164,-0.329734,-0.662314,-0.321155
49098,NaN,13.450898,3.373409,4.506924,-0.727809,6.134843,3.393765,-3.021712,4.288149,-0.405533,-1.090576,0.231934,-0.235107,0.135496,0.034107,0.041657,0.999654,-0.015107,0.021438,-0.002027,0.599526,-0.330318,-0.645230,-0.339320
49099,NaN,13.507614,4.878048,2.942249,1.812627,5.093208,3.812028,-3.032835,4.439936,-0.396415,-1.086670,0.236328,-0.279785,0.135771,0.048920,0.025672,0.999637,-0.015162,0.022197,-0.001982,0.608035,-0.330356,-0.627031,-0.357758
49100,NaN,15.704283,6.435213,2.414279,3.762811,4.739213,6.224187,-2.824909,4.405637,-0.320917,-1.080322,0.234375,-0.317627,0.157614,0.064399,0.019765,0.999656,-0.014123,0.022026,-0.001604,0.616397,-0.329938,-0.608902,-0.374745
49101,NaN,17.761532,6.228695,0.912112,4.745757,2.408084,8.262280,-2.638562,4.405799,-0.300973,-1.070068,0.238770,-0.366455,0.177840,0.062098,0.004385,0.999669,-0.013191,0.022027,-0.001505,0.624766,-0.328630,-0.590501,-0.391125
49102,NaN,16.607866,4.793909,-0.618950,4.607449,-0.317355,6.854473,-2.525625,4.448094,-0.474886,-1.051025,0.236816,-0.404541,0.165990,0.047431,-0.010483,0.999670,-0.012627,0.022238,-0.002374,0.632613,-0.326305,-0.572255,-0.407247
49103,NaN,14.782376,3.121761,-3.695584,4.735027,-4.261175,4.375376,-2.256951,4.095141,-0.646091,-1.042969,0.241211,-0.447021,0.147120,0.030299,-0.040319,0.999721,-0.011284,0.020474,-0.003230,0.639211,-0.322973,-0.555445,-0.422585
49104,NaN,13.321973,2.268542,-6.644733,5.283905,-7.547493,2.097817,-1.988105,3.415073,-0.817904,-1.028076,0.239014,-0.478760,0.132146,0.021467,-0.068927,0.999796,-0.009940,0.017074,-0.004089,0.643626,-0.319768,-0.541539,-0.436153
49105,NaN,13.308009,0.041829,-5.888533,2.923129,-8.256167,1.808475,-1.523610,2.987800,-0.862052,-1.019531,0.232666,-0.508301,0.132180,-0.000611,-0.060862,0.999850,-0.007618,0.014938,-0.004310,0.647329,-0.315576,-0.529795,-0.447989
49106,NaN,11.678484,-0.803556,-4.268151,1.428831,-7.128387,0.305616,-1.614154,3.232508,-0.564511,-1.000732,0.239258,-0.540039,0.116051,-0.008718,-0.044493,0.999833,-0.008070,0.016162,-0.002822,0.651971,-0.312005,-0.516521,-0.459121
49107,NaN,9.878085,-0.871483,-2.973735,0.801316,-5.826609,-1.293399,-2.192806,3.292938,-0.293144,-0.984375,0.250000,-0.576172,0.098261,-0.009196,-0.031259,0.999803,-0.010963,0.016464,-0.001466,0.656260,-0.310596,-0.501052,-0.470957
49108,NaN,9.476599,-1.201673,0.610663,-0.779283,-2.926224,-0.732652,-2.661018,3.102944,-0.198429,-0.967773,0.265137,-0.595459,0.094835,-0.012041,0.004796,0.999791,-0.013304,0.015514,-0.000992,0.659295,-0.311451,-0.484809,-0.482999
49109,NaN,9.493855,-1.268925,2.811733,-1.472344,-1.253719,-0.019636,-2.762422,2.948416,-0.192028,-0.945068,0.278076,-0.618896,0.095329,-0.012404,0.026886,0.999795,-0.013811,0.014741,-0.000960,0.661545,-0.312745,-0.468580,-0.494957
49110,NaN,9.261071,-1.973367,2.743057,-1.998908,-1.662854,-0.303719,-2.913981,2.957751,-0.155193,-0.930908,0.303955,-0.640137,0.092991,-0.019417,0.026342,0.999784,-0.014569,0.014788,-0.000776,0.663390,-0.314625,-0.451729,-0.506820
49111,NaN,9.380259,-1.820038,0.606315,-1.145032,-3.727640,-1.068570,-3.438483,2.818686,-0.069727,-0.910156,0.318848,-0.655273,0.093872,-0.018140,0.005053,0.999753,-0.017191,0.014092,-0.000349,0.664015,-0.318503,-0.433619,-0.519244
49112,NaN,10.330503,-1.226642,0.937126,-0.494748,-3.879692,-0.127649,-3.210245,2.815071,-0.013802,-0.891846,0.336182,-0.674316,0.103424,-0.012137,0.008112,0.999772,-0.016050,0.014074,-0.000069,0.664817,-0.321743,-0.415864,-0.530620
49113,NaN,8.838670,-0.197867,1.601468,0.322963,-2.641922,-1.231538,-2.460798,2.928804,0.092897,-0.868896,0.349121,-0.697754,0.088610,-0.001751,0.014741,0.999817,-0.012303,0.014643,0.000464,0.667080,-0.322158,-0.399341,-0.540134
49114,NaN,10.043773,0.480082,2.805884,0.982864,-2.278704,0.327050,-1.652738,2.877023,-0.026034,-0.854492,0.359863,-0.717041,0.100828,0.005011,0.026569,0.999862,-0.008263,0.014384,-0.000130,0.669998,-0.319797,-0.385271,-0.548087
49115,NaN,10.200797,0.411523,3.217340,0.956886,-2.322370,0.592035,-1.578381,3.104786,-0.237980,-0.831543,0.368408,-0.742676,0.102496,0.004239,0.030552,0.999848,-0.007892,0.015523,-0.001190,0.672704,-0.315949,-0.370849,-0.556882
49116,NaN,9.333932,-0.200076,3.038787,0.371382,-2.446911,-0.312026,-1.755269,3.314841,-0.332218,-0.808350,0.377197,-0.763916,0.093823,-0.001899,0.028852,0.999823,-0.008776,0.016573,-0.001661,0.675031,-0.311944,-0.355273,-0.566397
49117,NaN,7.800165,-0.627551,2.121183,-0.032274,-2.718574,-2.174760,-2.040545,3.522302,-0.298143,-0.779297,0.396484,-0.785156,0.078351,-0.006185,0.019897,0.999792,-0.010202,0.017610,-0.001491,0.677120,-0.308148,-0.337996,-0.576465
49118,NaN,5.602366,-0.730382,1.386736,-0.241671,-2.279690,-4.466235,-2.323608,3.578630,-0.118055,-0.754395,0.411377,-0.800293,0.056257,-0.007183,0.012946,0.999772,-0.011617,0.017892,-0.000590,0.679090,-0.305424,-0.319290,-0.586179
49119,NaN,4.359852,-0.477252,0.824045,-0.044216,-2.094816,-5.872750,-2.351494,3.533849,0.043120,-0.723145,0.430908,-0.817383,0.043737,-0.004672,0.007524,0.999775,-0.011757,0.017668,0.000216,0.681114,-0.302951,-0.300272,-0.595098
49120,NaN,3.644508,-0.077544,0.493675,0.316927,-1.971194,-6.723221,-2.209006,3.426539,0.167822,-0.689941,0.456543,-0.828369,0.036523,-0.000695,0.004319,0.999792,-0.011044,0.017132,0.000839,0.683266,-0.300460,-0.281715,-0.602916
49121,NaN,3.595997,0.168937,0.523793,0.578564,-1.995069,-6.826420,-2.068304,3.252680,0.278111,-0.662842,0.471680,-0.843262,0.036036,0.001789,0.004634,0.999813,-0.010341,0.016262,0.001390,0.685450,-0.297966,-0.263919,-0.609690
49122,NaN,3.224893,-0.006939,0.648815,0.385789,-1.756915,-7.058700,-2.044499,3.092411,0.391378,-0.635986,0.495117,-0.854248,0.032344,0.000057,0.005988,0.999826,-0.010222,0.015461,0.001957,0.687555,-0.296004,-0.246461,-0.615554
49123,NaN,2.635052,-0.634165,0.847761,-0.274820,-1.316739,-7.311771,-2.003474,2.831100,0.469025,-0.613281,0.512451,-0.862793,0.026482,-0.006197,0.008166,0.999847,-0.010017,0.014155,0.002345,0.689415,-0.294628,-0.229864,-0.620535
49124,NaN,0.425628,-1.548344,0.882689,-1.426499,0.213412,-8.682606,-1.952377,2.379294,0.560902,-0.588135,0.525146,-0.867188,0.004405,-0.015384,0.008926,0.999878,-0.009761,0.011896,0.002804,0.690926,-0.294578,-0.214753,-0.624281
49125,NaN,3.979061,-1.887731,1.663048,-1.212771,-1.926937,-5.692287,-1.722859,2.037401,0.568643,-0.567627,0.546631,-0.867432,0.040012,-0.018622,0.016385,0.999907,-0.008614,0.010187,0.002843,0.692286,-0.294680,-0.201509,-0.627135
49126,NaN,3.156402,-2.269448,1.673345,-1.649402,-1.375415,-6.165677,-1.540893,1.988544,0.483577,-0.553223,0.563965,-0.878174,0.031784,-0.022490,0.016592,0.999918,-0.007704,0.009942,0.002418,0.693475,-0.294235,-0.189067,-0.629899
49127,NaN,2.632752,-2.666939,1.648724,-2.074111,-1.046622,-6.441536,-1.397570,1.650799,0.402015,-0.530273,0.576660,-0.878418,0.026517,-0.026501,0.016454,0.999940,-0.006988,0.008254,0.002010,0.694203,-0.294187,-0.178368,-0.632235
49128,NaN,2.815923,-2.858826,1.586174,-2.210340,-1.261315,-6.328209,-1.258946,1.343701,0.329746,-0.524170,0.585205,-0.872314,0.028313,-0.028442,0.015851,0.999956,-0.006295,0.006718,0.001649,0.694557,-0.294584,-0.169234,-0.634170
49129,NaN,3.078384,-2.624264,1.701516,-1.897557,-1.411775,-6.116144,-1.107398,1.047690,0.247913,-0.513916,0.595947,-0.874512,0.030905,-0.026110,0.016998,0.999970,-0.005537,0.005238,0.001240,0.694576,-0.295270,-0.161736,-0.635784
49130,NaN,2.974931,-2.691361,2.193128,-1.874832,-1.046922,-5.776314,-0.945134,0.793647,0.172740,-0.501465,0.604492,-0.872559,0.029860,-0.026784,0.021940,0.999981,-0.004726,0.003968,0.000864,0.694353,-0.296157,-0.155719,-0.637115
49131,NaN,2.885932,-2.828767,2.692206,-1.912132,-0.687249,-5.402490,-0.858229,0.594400,0.119072,-0.499512,0.611084,-0.874512,0.028956,-0.028155,0.026957,0.999986,-0.004291,0.002972,0.000595,0.693912,-0.297309,-0.150759,-0.638252
49132,NaN,2.824494,-2.872893,2.825559,-1.912012,-0.565627,-5.313881,-0.829582,0.444531,0.059564,-0.493164,0.615234,-0.868408,0.028316,-0.028603,0.028312,0.999989,-0.004148,0.002223,0.000298,0.693192,-0.298804,-0.146481,-0.639332
49133,NaN,2.506279,-2.566428,2.941081,-1.609824,-0.242361,-5.469002,-0.802788,0.289080,0.005294,-0.491455,0.628174,-0.868408,0.025106,-0.025545,0.029477,0.999991,-0.004014,0.001445,0.000026,0.692210,-0.300654,-0.142912,-0.640335
49134,NaN,2.305979,-2.444102,3.284002,-1.427677,0.127545,-5.338177,-0.752547,0.101654,-0.016452,-0.493652,0.628174,-0.864258,0.023075,-0.024319,0.032920,0.999993,-0.003763,0.000508,-0.000082,0.691089,-0.302913,-0.140176,-0.641085
49135,NaN,2.450362,-2.161794,4.096840,-0.948343,0.507521,-4.683875,-0.640553,-0.115228,-0.046772,-0.493896,0.636719,-0.864258,0.024475,-0.021492,0.041051,0.999995,-0.003203,-0.000576,-0.000234,0.689880,-0.305460,-0.138590,-0.641524
49136,NaN,2.534366,-1.820309,5.280157,-0.343120,1.166825,-3.801258,-0.482289,-0.360904,-0.094178,-0.500244,0.638672,-0.857910,0.025240,-0.018088,0.052891,0.999995,-0.002411,-0.001805,-0.000471,0.688583,-0.308209,-0.138433,-0.641636
49137,NaN,2.670569,-1.655960,6.662279,0.137101,1.924457,-2.703709,-0.308008,-0.594234,-0.143673,-0.504395,0.638672,-0.857910,0.026496,-0.016476,0.066727,0.999994,-0.001540,-0.002971,-0.000718,0.687228,-0.311072,-0.139702,-0.641432
49138,NaN,2.894555,-1.835980,8.249997,0.330291,2.772913,-1.326635,-0.150109,-0.838836,-0.222597,-0.512939,0.638672,-0.853760,0.028579,-0.018330,0.082634,0.999990,-0.000751,-0.004194,-0.001113,0.685684,-0.314114,-0.142450,-0.640998
49139,NaN,3.624453,-2.107590,9.954823,0.515279,3.336176,0.447942,-0.049527,-0.970834,-0.323158,-0.523438,0.636719,-0.853516,0.035727,-0.021109,0.099728,0.999987,-0.000248,-0.004854,-0.001616,0.683869,-0.317145,-0.146105,-0.640621
49140,NaN,4.195697,-2.335656,11.268123,0.630395,3.819709,1.808022,-0.101644,-0.948854,-0.410824,-0.533936,0.634521,-0.843018,0.041374,-0.023385,0.112890,0.999987,-0.000508,-0.004744,-0.002054,0.681685,-0.320222,-0.149675,-0.640594
49141,NaN,4.263677,-2.626668,12.156071,0.537685,4.452421,2.545863,-0.277395,-0.923529,-0.457321,-0.544678,0.636475,-0.836670,0.042015,-0.026194,0.121792,0.999986,-0.001387,-0.004618,-0.002287,0.679081,-0.323743,-0.152630,-0.640893
49142,NaN,4.352285,-2.295819,13.221110,1.119232,5.186554,3.258486,-0.602930,-1.015640,-0.496961,-0.553223,0.638672,-0.830322,0.042794,-0.022666,0.132498,0.999979,-0.003015,-0.005078,-0.002485,0.675719,-0.328652,-0.154950,-0.641391
49143,NaN,4.821560,-1.608172,14.256798,2.141907,5.628006,4.073401,-0.972735,-1.208229,-0.513028,-0.570312,0.649414,-0.817627,0.047313,-0.015509,0.142932,0.999967,-0.004864,-0.006041,-0.002565,0.671530,-0.335343,-0.156697,-0.641903
49144,NaN,5.762498,-0.629126,15.420350,3.591523,5.809681,5.178380,-1.261773,-1.226766,-0.534127,-0.576660,0.649414,-0.804932,0.056662,-0.005469,0.154589,0.999958,-0.006309,-0.006134,-0.002671,0.666706,-0.343078,-0.157657,-0.642608
49145,NaN,5.756648,0.522889,13.239600,4.348810,4.445144,3.226663,-1.459603,-0.877108,-0.616849,-0.583252,0.657959,-0.794434,0.057003,0.006020,0.132605,0.999959,-0.007298,-0.004385,-0.003084,0.661526,-0.350160,-0.156878,-0.644330
49146,NaN,3.741008,0.678590,7.288575,2.909518,2.030884,-2.397246,-1.328887,-0.455380,-0.900760,-0.596191,0.662109,-0.785889,0.037276,0.007102,0.072924,0.999965,-0.006644,-0.002277,-0.004504,0.655913,-0.355298,-0.155676,-0.647539
49147,NaN,3.543796,-2.152138,4.928380,-0.419509,0.889499,-3.447809,-0.374054,-0.270040,-1.344179,-0.602051,0.649414,-0.790039,0.035226,-0.021666,0.049372,0.999975,-0.001870,-0.001350,-0.006721,0.650700,-0.356213,-0.157674,-0.651798
49148,NaN,16.794760,-5.552365,13.855498,-0.269139,-2.558280,12.508471,1.370292,0.611118,-1.268250,-0.601807,0.638672,-0.804688,0.168009,-0.057534,0.137652,0.999952,0.006851,0.003056,-0.006341,0.649453,-0.348739,-0.162405,-0.655909
49149,NaN,19.335091,-5.268474,22.869980,2.123076,1.304580,20.492662,0.188146,1.355323,-0.671475,-0.591553,0.645020,-0.804688,0.194716,-0.053551,0.227333,0.999971,0.000941,0.006777,-0.003357,0.648687,-0.343004,-0.159730,-0.660333
49150,NaN,12.799164,-3.468294,11.142408,0.584271,-1.826503,7.400892,-3.649540,-0.422766,-0.067814,-0.596191,0.666504,-0.781738,0.127744,-0.032682,0.112303,0.999831,-0.018247,-0.002114,-0.000339,0.641753,-0.356117,-0.149144,-0.662638
49151,NaN,3.451534,-3.738926,-15.180158,-7.551225,-12.041894,-17.181606,0.244803,-0.654056,-0.375516,-0.602295,0.657959,-0.785889,0.034942,-0.037269,-0.151733,0.999992,0.001224,-0.003270,-0.001878,0.640480,-0.357090,-0.152673,-0.662543
49152,NaN,3.118333,-12.758577,6.179477,-10.321587,3.488509,-0.221866,1.084873,-1.545950,-0.252154,-0.619141,0.651367,-0.781494,0.030547,-0.127958,0.061339,0.999955,0.005424,-0.007730,-0.001261,0.640367,-0.358521,-0.161664,-0.659740
49153,NaN,5.423855,-4.077014,13.154093,0.018576,5.526978,3.917466,-0.414274,-1.607278,-0.517109,-0.631836,0.651367,-0.766602,0.053073,-0.040635,0.132055,0.999962,-0.002071,-0.008036,-0.002586,0.636615,-0.364657,-0.166289,-0.658858
49154,NaN,5.966701,-1.866663,7.016506,0.558601,0.834317,-0.468840,-0.595674,-1.361475,-0.699262,-0.640381,0.651367,-0.762451,0.059122,-0.018664,0.070624,0.999966,-0.002978,-0.006807,-0.003496,0.632068,-0.370437,-0.169932,-0.659083
49155,NaN,4.880522,1.897022,-1.496105,1.771832,-4.739602,-7.799610,1.279046,-1.348254,-0.825776,-0.656982,0.636475,-0.764160,0.048982,0.018862,-0.014510,0.999948,0.006395,-0.006741,-0.004129,0.630563,-0.370042,-0.179841,-0.658116
49156,NaN,7.057962,0.132942,0.308294,0.681894,-4.672235,-4.556140,2.034930,-1.661487,-0.763032,-0.671143,0.617188,-0.759766,0.070555,0.001025,0.003681,0.999906,0.010174,-0.008307,-0.003815,0.630260,-0.368365,-0.193172,-0.655564
49157,NaN,10.506819,-0.872550,3.597458,0.665462,-4.407020,0.396526,1.710294,-1.632989,-0.565351,-0.687500,0.597900,-0.765869,0.104744,-0.009334,0.036753,0.999926,0.008551,-0.008165,-0.002827,0.629950,-0.367696,-0.204896,-0.652672
49158,NaN,11.852296,-1.515940,5.568238,0.480485,-3.615138,2.855251,1.254075,-1.442646,-0.327324,-0.700195,0.593506,-0.761719,0.118092,-0.015705,0.056438,0.999953,0.006270,-0.007213,-0.001637,0.629675,-0.368093,-0.214127,-0.649743
49159,NaN,10.548662,-1.453107,3.313013,-0.071398,-4.272868,0.487663,1.311473,-1.477098,-0.199734,-0.706055,0.580566,-0.757324,0.105224,-0.014856,0.033811,0.999951,0.006557,-0.007385,-0.000999,0.629837,-0.368487,-0.223365,-0.646244
49160,NaN,9.422648,-1.728025,3.556775,-0.406080,-3.181591,-0.110453,1.392186,-1.707265,-0.147887,-0.718506,0.572021,-0.752930,0.093906,-0.017601,0.036249,0.999939,0.006961,-0.008536,-0.000739,0.629974,-0.369424,-0.233501,-0.641978
49161,NaN,9.064920,-1.714713,5.148144,-0.182919,-1.571965,0.632825,1.423346,-1.864958,-0.116563,-0.733154,0.561279,-0.754883,0.090155,-0.017570,0.052200,0.999931,0.007117,-0.009325,-0.000583,0.630011,-0.370739,-0.244131,-0.637212
49162,NaN,8.944752,-0.896138,6.058803,0.695034,-0.663201,0.985165,1.350896,-1.985273,-0.126479,-0.747803,0.550537,-0.746338,0.088835,-0.009431,0.061409,0.999928,0.006754,-0.009926,-0.000632,0.629639,-0.372619,-0.254907,-0.632244
49163,NaN,8.769361,-0.223094,5.454034,1.183231,-0.872606,0.411403,1.351907,-2.089859,-0.168415,-0.762451,0.544189,-0.741943,0.087115,-0.002677,0.055436,0.999922,0.006759,-0.010449,-0.000842,0.628912,-0.374704,-0.266049,-0.627124
49164,NaN,8.667916,-0.146373,5.116571,1.134479,-0.864245,0.151977,1.405775,-2.280089,-0.214164,-0.776611,0.529053,-0.727051,0.086087,-0.001920,0.052137,0.999910,0.007029,-0.011400,-0.001071,0.627781,-0.377105,-0.278006,-0.621607
49165,NaN,8.745721,0.230117,4.609914,1.379525,-1.104991,-0.083243,1.414867,-2.463744,-0.266314,-0.799805,0.520508,-0.714111,0.086883,0.001854,0.047186,0.999898,0.007074,-0.012318,-0.001332,0.626130,-0.379889,-0.290616,-0.615782
49166,NaN,9.019758,0.839235,4.050280,1.873427,-1.493756,-0.183695,1.427767,-2.597194,-0.347030,-0.820557,0.505371,-0.701416,0.089675,0.007941,0.041727,0.999889,0.007139,-0.012985,-0.001735,0.623926,-0.382861,-0.303772,-0.609801
49167,NaN,9.434068,1.318748,3.396607,2.249093,-2.012015,-0.160557,1.426770,-2.684718,-0.426525,-0.839111,0.494629,-0.688477,0.093900,0.012738,0.035320,0.999882,0.007134,-0.013423,-0.002133,0.621199,-0.385877,-0.317298,-0.603766
49169,NaN,9.330150,1.516101,2.571115,4.546826,-4.534757,8.693876,1.441772,-2.688071,-0.476342,-0.870117,0.471191,-0.658691,0.185263,0.028644,0.056836,0.999523,0.014415,-0.026876,-0.004763,0.615058,-0.391445,-0.344386,-0.591500
49170,NaN,8.856329,1.798259,2.283513,2.411225,-1.911492,-1.014452,1.405328,-2.586596,-0.373393,-0.884521,0.458252,-0.641602,0.088290,0.017651,0.024103,0.999890,0.007026,-0.012933,-0.001867,0.612163,-0.394059,-0.357243,-0.585107
49171,NaN,8.875424,2.058804,1.945447,2.611955,-1.973813,-1.090722,1.209730,-2.568509,-0.250955,-0.897217,0.451660,-0.624512,0.088519,0.020354,0.020716,0.999898,0.006048,-0.012842,-0.001255,0.609160,-0.397373,-0.369104,-0.578603
49172,NaN,9.080255,2.740060,1.589230,3.261340,-2.124277,-1.018934,0.890614,-2.546698,-0.180582,-0.911865,0.447266,-0.607422,0.090614,0.027244,0.017169,0.999909,0.004453,-0.012733,-0.000903,0.605622,-0.401628,-0.379836,-0.572400
49173,NaN,8.953934,2.825270,1.482456,3.309906,-1.927550,-1.113458,0.607628,-2.566730,-0.170466,-0.932617,0.438721,-0.584229,0.089363,0.028129,0.016058,0.999913,0.003038,-0.012833,-0.000852,0.601424,-0.406766,-0.389659,-0.566565
49174,NaN,8.889351,3.013981,1.864728,3.464536,-1.305886,-0.988356,0.225043,-2.536212,-0.174759,-0.938965,0.436523,-0.567139,0.088674,0.030040,0.019807,0.999919,0.001125,-0.012681,-0.000874,0.596356,-0.412863,-0.398345,-0.561449
49175,NaN,8.684028,2.676641,1.445470,3.097906,-1.421318,-1.266035,-0.243772,-2.470480,-0.262597,-0.953613,0.436523,-0.541748,0.086688,0.026671,0.015494,0.999922,-0.001219,-0.012352,-0.001313,0.590146,-0.419961,-0.405541,-0.557582
49176,NaN,8.238688,2.112084,1.264038,2.489169,-1.263107,-1.680048,-0.649269,-2.606700,-0.344444,-0.966064,0.432129,-0.514160,0.082250,0.021022,0.013645,0.999908,-0.003246,-0.013033,-0.001722,0.582431,-0.428360,-0.412226,-0.554392
49177,NaN,8.205479,1.519430,1.536199,1.871459,-0.799417,-1.575380,-0.871593,-2.712587,-0.409966,-0.976562,0.434082,-0.486572,0.081868,0.015096,0.016407,0.999896,-0.004358,-0.013562,-0.002050,0.573774,-0.437519,-0.418549,-0.551523
49178,NaN,7.835530,2.051370,1.311544,2.363899,-0.707288,-1.987587,-0.819932,-2.729265,-0.400236,-0.995605,0.434082,-0.461182,0.078208,0.020414,0.014100,0.999896,-0.004100,-0.013646,-0.002001,0.565045,-0.446462,-0.425080,-0.548363
49179,NaN,8.156783,0.993164,1.490853,1.298679,-0.401608,-1.573138,-0.682810,-2.746259,-0.410175,-1.010498,0.434082,-0.433594,0.081373,0.009818,0.015993,0.999898,-0.003414,-0.013731,-0.002051,0.556500,-0.454994,-0.431843,-0.544794
49180,NaN,7.998994,0.784149,1.716947,1.064647,0.073707,-1.663829,-0.478001,-2.686504,-0.382935,-1.014404,0.433838,-0.401855,0.079765,0.007731,0.018223,0.999905,-0.002390,-0.013432,-0.001915,0.548448,-0.462713,-0.438985,-0.540735
49181,NaN,7.822351,0.594404,1.540949,0.845237,0.146719,-1.864259,-0.322417,-2.599228,-0.381453,-1.029297,0.433838,-0.376465,0.078026,0.005821,0.016415,0.999912,-0.001612,-0.012996,-0.001907,0.540915,-0.469738,-0.446089,-0.536435
49182,NaN,7.471873,0.590592,1.214999,0.802149,0.081399,-2.262804,-0.200851,-2.550234,-0.344548,-1.031250,0.431641,-0.351074,0.074566,0.005790,0.013096,0.999917,-0.001004,-0.012751,-0.001723,0.533714,-0.476251,-0.453359,-0.531790
49183,NaN,7.528751,0.460886,1.301806,0.657416,0.355671,-2.195122,-0.184131,-2.565850,-0.301710,-1.043701,0.425049,-0.325684,0.075119,0.004508,0.013978,0.999916,-0.000921,-0.012829,-0.001509,0.526610,-0.482831,-0.460402,-0.526864
49184,NaN,7.497549,0.540409,1.536521,0.726113,0.783761,-2.215211,-0.261537,-2.496826,-0.242521,-1.047852,0.425049,-0.300293,0.074782,0.005334,0.016293,0.999920,-0.001308,-0.012484,-0.001213,0.519475,-0.489435,-0.466974,-0.522048
49185,NaN,7.571703,0.408959,1.452870,0.586199,0.884669,-2.165494,-0.316409,-2.445138,-0.182604,-1.052002,0.424805,-0.274902,0.075536,0.004045,0.015447,0.999924,-0.001582,-0.012225,-0.000913,0.512473,-0.496166,-0.472916,-0.517244
49186,NaN,7.679340,0.103024,1.033720,0.265562,0.652908,-2.095700,-0.297091,-2.349838,-0.104554,-1.060303,0.424805,-0.253662,0.076665,0.001006,0.011237,0.999930,-0.001485,-0.011749,-0.000523,0.505797,-0.502652,-0.478529,-0.512367
49187,NaN,7.904367,-0.084683,0.905318,0.080312,0.701837,-1.887784,-0.239328,-2.252907,-0.027100,-1.060303,0.427002,-0.234619,0.078935,-0.000846,0.009944,0.999936,-0.001197,-0.011264,-0.000135,0.499701,-0.508922,-0.483657,-0.507320
49188,NaN,8.133511,0.045954,0.736760,0.215643,0.702367,-1.679018,-0.183685,-2.127551,0.066262,-1.064453,0.426758,-0.207275,0.081250,0.000494,0.008232,0.999943,-0.000918,-0.010638,0.000331,0.494153,-0.514837,-0.488440,-0.502178
49189,NaN,8.305163,0.224985,0.833212,0.416950,0.960760,-1.528881,-0.189605,-1.960361,0.156990,-1.062256,0.426758,-0.188232,0.082963,0.002323,0.009143,0.999951,-0.000948,-0.009802,0.000785,0.489245,-0.520576,-0.492386,-0.497188
49190,NaN,8.651760,0.510203,0.625406,0.722795,0.909295,-1.201465,-0.178150,-1.778678,0.244738,-1.066406,0.430908,-0.173340,0.086451,0.005214,0.007019,0.999959,-0.000891,-0.008893,0.001224,0.484916,-0.525940,-0.495762,-0.492405
49191,NaN,8.680357,0.860371,0.280200,1.090234,0.694238,-1.181626,-0.098902,-1.549452,0.314374,-1.074951,0.435303,-0.156494,0.086765,0.008742,0.003470,0.999969,-0.000495,-0.007747,0.001572,0.481572,-0.530748,-0.498440,-0.487804
49192,NaN,8.680922,1.114395,-0.293113,1.355318,0.236964,-1.164456,0.010767,-1.346538,0.397215,-1.068604,0.435303,-0.145996,0.086804,0.011316,-0.002346,0.999975,0.000054,-0.006733,0.001986,0.479127,-0.534904,-0.500767,-0.483268
49193,NaN,8.879860,1.354720,-0.753755,1.626570,-0.107644,-0.947197,0.071386,-1.178069,0.465199,-1.066650,0.437256,-0.137451,0.088809,0.013756,-0.007010,0.999980,0.000357,-0.005890,0.002326,0.477480,-0.538724,-0.502514,-0.478820
49194,NaN,9.074422,1.658568,-1.167063,1.968637,-0.417537,-0.734843,0.089373,-0.980693,0.534723,-1.066650,0.439453,-0.129150,0.090755,0.016833,-0.011218,0.999984,0.000447,-0.004903,0.002674,0.476451,-0.542111,-0.503750,-0.474706
49195,NaN,9.155556,1.888392,-1.405636,2.248927,-0.573016,-0.648669,0.102489,-0.857094,0.599618,-1.064941,0.452393,-0.125000,0.091557,0.019165,-0.013654,0.999986,0.000512,-0.004285,0.002998,0.475984,-0.545395,-0.504410,-0.470695
49196,NaN,9.132744,2.005451,-1.437328,2.421363,-0.535579,-0.683386,0.087310,-0.791805,0.646972,-1.069336,0.458740,-0.118652,0.091318,0.020356,-0.014003,0.999987,0.000437,-0.003959,0.003235,0.475657,-0.548587,-0.504868,-0.466809
49197,NaN,9.264427,1.994370,-1.224577,2.487823,-0.240691,-0.589956,0.068314,-0.737267,0.673563,-1.058594,0.460938,-0.110107,0.092621,0.020260,-0.011897,0.999987,0.000342,-0.003686,0.003368,0.475547,-0.551830,-0.504935,-0.463012
49198,NaN,9.220606,1.938816,-0.927238,2.500534,0.117848,-0.681911,0.108374,-0.712296,0.679263,-1.052490,0.473633,-0.101807,0.092172,0.019706,-0.008933,0.999988,0.000542,-0.003561,0.003396,0.475522,-0.554836,-0.505149,-0.459196
49199,NaN,9.807172,2.069066,-0.711272,2.744675,0.466685,-0.157862,0.221353,-0.710546,0.701830,-1.048584,0.478027,-0.099854,0.098023,0.021042,-0.006741,0.999987,0.001107,-0.003553,0.003509,0.475944,-0.557697,-0.505401,-0.454996
49200,NaN,10.222468,2.055192,-0.626910,2.833763,0.679986,0.218367,0.343917,-0.732426,0.708710,-1.052979,0.486572,-0.093506,0.102173,0.020924,-0.005859,0.999986,0.001720,-0.003662,0.003544,0.476559,-0.560226,-0.506102,-0.450442
49201,NaN,10.476460,2.149656,-0.525191,3.027117,0.892037,0.419260,0.341473,-0.759281,0.715657,-1.046631,0.490723,-0.087158,0.104706,0.021880,-0.004817,0.999985,0.001707,-0.003796,0.003578,0.477197,-0.562915,-0.506677,-0.445745
49202,NaN,11.205726,2.164937,-0.357213,3.183692,1.250160,1.081476,0.282718,-0.782013,0.695351,-1.046875,0.497070,-0.087158,0.111994,0.022043,-0.003103,0.999985,0.001414,-0.003910,0.003477,0.477451,-0.565626,-0.507377,-0.441222
49203,NaN,11.663107,2.323745,-0.199272,3.466472,1.560498,1.457391,0.245929,-0.769930,0.676255,-1.042725,0.501465,-0.074707,0.116558,0.023634,-0.001515,0.999986,0.001230,-0.003850,0.003381,0.477676,-0.568435,-0.507846,-0.436806
49204,NaN,12.546812,2.115591,-0.219780,3.425306,1.776170,2.314048,0.176100,-0.688038,0.674046,-1.038818,0.510010,-0.072510,0.125402,0.021580,-0.001747,0.999988,0.000880,-0.003440,0.003370,0.477790,-0.571097,-0.508131,-0.432861
49205,NaN,13.448503,1.486210,0.100225,2.984920,2.342076,3.175183,0.020017,-0.646390,0.640235,-1.036621,0.510010,-0.066162,0.134432,0.015292,0.001438,0.999990,0.000100,-0.003232,0.003201,0.477583,-0.574059,-0.507894,-0.429436
49206,NaN,13.691606,0.901612,0.903387,2.512436,3.272004,3.304845,-0.260218,-0.622310,0.552577,-1.034668,0.516357,-0.055664,0.136861,0.009406,0.009448,0.999990,-0.001301,-0.003112,0.002763,0.476332,-0.577274,-0.507415,-0.427075
49207,NaN,13.633027,0.692224,1.608743,2.377268,4.030276,3.111373,-0.607758,-0.510951,0.447749,-1.030518,0.524902,-0.053711,0.136273,0.007277,0.016414,0.999990,-0.003039,-0.002555,0.002239,0.474229,-0.580932,-0.506047,-0.426076
49208,NaN,13.426006,1.614013,1.467472,3.322851,3.850788,2.802616,-0.931311,-0.171251,0.380219,-1.028320,0.522705,-0.047363,0.134216,0.016464,0.014713,0.999987,-0.004657,-0.000856,0.001901,0.471798,-0.584302,-0.503541,-0.427136
49209,NaN,13.814740,3.002519,0.451138,4.783485,2.816726,3.196890,-1.125579,0.368841,0.389882,-1.028320,0.524902,-0.047363,0.138096,0.030318,0.004087,0.999981,-0.005628,0.001844,0.001949,0.470259,-0.587129,-0.499129,-0.430124
49210,NaN,14.656971,4.189281,-0.603820,6.074683,1.715797,4.075866,-1.285163,1.027357,0.454745,-1.020264,0.533447,-0.055908,0.146440,0.042183,-0.007061,0.999964,-0.006426,0.005137,0.002274,0.469920,-0.588873,-0.492787,-0.435391
49211,NaN,15.549058,5.031737,-1.241174,7.035958,0.908937,4.962013,-1.614390,1.592085,0.498291,-1.024414,0.533447,-0.064453,0.155257,0.050595,-0.014056,0.999933,-0.008072,0.007960,0.002491,0.470139,-0.590378,-0.484043,-0.442861
49212,NaN,16.157885,5.541461,-0.933433,7.659443,0.879555,5.458208,-2.095872,1.904552,0.478245,-1.016113,0.537842,-0.070801,0.161344,0.055688,-0.011454,0.999897,-0.010479,0.009522,0.002391,0.469478,-0.591973,-0.473679,-0.452533
49213,NaN,15.467881,5.671534,0.319004,7.820340,1.545581,4.608020,-2.758184,2.127987,0.401337,-1.014160,0.540039,-0.077148,0.154581,0.057047,0.000760,0.999846,-0.013790,0.010639,0.002007,0.467187,-0.594482,-0.461195,-0.464357
49214,NaN,14.566760,5.700479,1.136922,7.822920,1.726424,3.669693,-3.548948,2.347402,0.338063,-1.010010,0.546387,-0.083496,0.145683,0.057421,0.008643,0.999772,-0.017743,0.011736,0.001690,0.462636,-0.597720,-0.446607,-0.478791
49215,NaN,13.204564,4.825036,1.724790,6.876619,1.777668,2.440553,-4.113147,2.684340,0.258438,-1.001709,0.550781,-0.092041,0.132190,0.048738,0.014475,0.999698,-0.020564,0.013420,0.001292,0.456813,-0.601194,-0.429658,-0.495260
49216,NaN,11.922363,4.091064,1.722741,5.962157,1.302064,1.348843,-4.207867,3.071328,0.097802,-0.999512,0.546631,-0.106934,0.119440,0.041294,0.014528,0.999661,-0.021037,0.015355,0.000489,0.450766,-0.602922,-0.412050,-0.513332
49217,NaN,10.586864,4.022432,0.486722,5.329275,-0.444949,0.181125,-4.136437,3.400153,-0.113163,-0.999756,0.550781,-0.111084,0.105944,0.040229,0.002234,0.999641,-0.020680,0.016999,-0.000566,0.444845,-0.603059,-0.393979,-0.532178
49218,NaN,9.348618,3.876819,-1.813570,4.164206,-3.069502,-0.928315,-4.165060,3.469258,-0.380373,-0.997314,0.542236,-0.123779,0.093217,0.038179,-0.020554,0.999631,-0.020823,0.017344,-0.001902,0.437874,-0.601807,-0.376464,-0.551697
49219,NaN,9.388460,4.142598,-5.306458,2.894064,-6.840214,-0.965632,-4.210092,3.342327,-0.583408,-0.997314,0.540283,-0.138428,0.093089,0.040003,-0.055477,0.999635,-0.021048,0.016710,-0.002917,0.429722,-0.600477,-0.359168,-0.570758
49220,NaN,10.607974,4.575570,-6.373108,2.514883,-8.401172,0.043489,-3.982158,3.104151,-0.668670,-1.001709,0.542480,-0.149170,0.105214,0.044100,-0.066258,0.999676,-0.019909,0.015519,-0.003343,0.421219,-0.598462,-0.343330,-0.588679
49221,NaN,12.960946,5.060083,-5.479259,2.988724,-8.334084,2.236818,-3.247563,2.967491,-0.775933,-0.995117,0.531738,-0.159668,0.128962,0.049180,-0.057516,0.999751,-0.016236,0.014836,-0.003879,0.414200,-0.595077,-0.329774,-0.604624
49222,NaN,14.962128,5.041224,-3.482441,3.477453,-7.145663,4.266409,-2.352099,3.101809,-0.894272,-0.997070,0.525391,-0.180664,0.149273,0.049312,-0.037726,0.999801,-0.011760,0.015508,-0.004471,0.409438,-0.588669,-0.319174,-0.619644
49223,NaN,15.253288,4.444022,-1.806418,3.283827,-5.854809,4.698695,-2.247591,3.248573,-1.017013,-0.988525,0.514648,-0.203857,0.152430,0.043440,-0.021033,0.999792,-0.011237,0.016242,-0.005085,0.404762,-0.581452,-0.308504,-0.634750
49224,NaN,14.216906,4.087317,-1.918722,2.432441,-6.015594,3.617577,-2.819949,3.241274,-1.212008,-0.992432,0.506104,-0.216553,0.142070,0.039714,-0.022056,0.999751,-0.014099,0.016205,-0.006060,0.397514,-0.574546,-0.296811,-0.650986
49225,NaN,13.032016,3.026396,-3.014479,0.494712,-6.518185,2.242162,-3.031183,3.255984,-1.407204,-0.988037,0.497559,-0.233398,0.130008,0.028866,-0.032708,0.999728,-0.015155,0.016278,-0.007035,0.388941,-0.567721,-0.284454,-0.667461
49226,NaN,12.855872,2.186643,-3.106978,-0.768659,-6.353022,1.965634,-3.268200,3.241052,-1.521803,-0.989990,0.487061,-0.250244,0.128188,0.020356,-0.033490,0.999706,-0.016339,0.016204,-0.007608,0.378975,-0.560621,-0.271871,-0.684228
49227,NaN,13.760380,0.766189,-2.643077,-2.260086,-5.566213,2.868199,-3.303248,3.131137,-1.560206,-0.985596,0.480713,-0.269287,0.137218,0.006129,-0.028691,0.999711,-0.016515,0.015654,-0.007800,0.368515,-0.553879,-0.258951,-0.700256
49228,NaN,14.203714,-0.304425,-2.895343,-3.814329,-5.350494,3.111030,-3.015650,2.853339,-1.580858,-0.985352,0.474121,-0.279785,0.141573,-0.004621,-0.030914,0.999753,-0.015077,0.014266,-0.007904,0.358125,-0.546971,-0.247848,-0.714941
49229,NaN,12.631533,-1.618316,-3.819135,-5.612107,-4.889855,1.202613,-2.783808,2.788372,-1.579782,-0.982910,0.457031,-0.296631,0.125633,-0.017723,-0.039707,0.999775,-0.013918,0.013941,-0.007898,0.348227,-0.539902,-0.237188,-0.728688
49230,NaN,11.175967,-0.163572,-1.914221,-3.442867,-4.093910,0.185747,-3.517024,2.477625,-1.540942,-0.978516,0.455078,-0.298584,0.111493,-0.002848,-0.020482,0.999739,-0.017584,0.012387,-0.007704,0.335860,-0.534768,-0.224550,-0.742158
49231,NaN,10.607215,1.811076,-0.904039,-1.563409,-4.624107,-0.180835,-3.715645,2.251932,-1.550906,-0.984863,0.448486,-0.307129,0.106094,0.017101,-0.010559,0.999734,-0.018577,0.011259,-0.007754,0.322597,-0.530764,-0.211088,-0.754760
49232,NaN,9.477310,1.344870,-0.390827,-1.620021,-3.728475,-1.138203,-3.127430,2.448183,-1.457734,-0.976074,0.442139,-0.315430,0.094808,0.012682,-0.005271,0.999776,-0.015636,0.012240,-0.007288,0.311202,-0.524669,-0.199550,-0.766848
49233,NaN,9.117480,1.287343,-0.733853,-2.083037,-3.855312,-1.681573,-2.929586,2.139002,-1.558962,-0.971680,0.433594,-0.328125,0.091184,0.012044,-0.008494,0.999805,-0.014647,0.010694,-0.007794,0.299599,-0.519365,-0.189060,-0.777661
49234,NaN,9.146319,1.497479,-0.688795,-2.192147,-3.999441,-1.715472,-2.764636,1.824001,-1.673662,-0.975586,0.422852,-0.332275,0.091515,0.014104,-0.007921,0.999828,-0.013822,0.009119,-0.008368,0.287480,-0.514512,-0.180283,-0.787484
49235,NaN,8.688231,1.276426,-0.546090,-2.339900,-3.615112,-2.140413,-2.665271,1.739274,-1.621327,-0.977539,0.410156,-0.338379,0.086929,0.011979,-0.006380,0.999841,-0.013326,0.008696,-0.008106,0.275747,-0.509949,-0.171452,-0.796567
49236,NaN,8.343510,0.270336,-0.475782,-3.007996,-2.663089,-2.479870,-2.596759,1.622501,-1.524435,-0.970947,0.407959,-0.346924,0.083410,0.002000,-0.005464,0.999854,-0.012983,0.008112,-0.007622,0.264298,-0.505472,-0.163126,-0.805006
49237,NaN,8.245747,-0.234386,-0.442177,-3.420942,-2.176086,-2.615329,-2.649122,1.626191,-1.348217,-0.970947,0.401611,-0.355469,0.082399,-0.002964,-0.005055,0.999857,-0.013245,0.008131,-0.006741,0.253449,-0.501254,-0.153719,-0.812944
49238,NaN,8.060380,-0.472750,-0.717978,-3.848096,-2.025807,-2.972027,-2.745951,1.608829,-1.233525,-0.970703,0.399414,-0.355225,0.080511,-0.005328,-0.007757,0.999854,-0.013729,0.008044,-0.006167,0.242647,-0.496978,-0.143972,-0.820614
49239,NaN,7.855519,-0.288694,-0.921296,-3.962720,-2.174759,-3.316043,-2.821416,1.500883,-1.178046,-0.968506,0.395264,-0.359619,0.078464,-0.003484,-0.009756,0.999855,-0.014106,0.007504,-0.005890,0.231832,-0.493323,-0.133502,-0.827686
49240,NaN,7.747147,-0.140828,-0.941156,-3.993661,-2.221505,-3.485168,-2.919220,1.321508,-1.166738,-0.966309,0.390869,-0.363770,0.077397,-0.002002,-0.009897,0.999855,-0.014595,0.006607,-0.005833,0.220548,-0.490213,-0.123121,-0.834201
49241,NaN,7.436572,-0.781789,-1.054244,-4.372241,-1.559667,-3.856623,-2.928829,1.103365,-1.153548,-0.968506,0.393066,-0.361572,0.074259,-0.008404,-0.010832,0.999861,-0.014643,0.005517,-0.005767,0.209190,-0.488064,-0.112520,-0.839865
49242,NaN,7.128279,-1.279062,-0.992635,-4.496433,-0.927171,-4.124539,-2.884765,0.827942,-1.147915,-0.968506,0.388672,-0.363770,0.071166,-0.013344,-0.010031,0.999871,-0.014423,0.004140,-0.005739,0.197664,-0.486745,-0.102687,-0.844668
49243,NaN,6.886370,-1.836162,-1.036458,-4.704882,-0.282196,-4.367394,-2.786554,0.591606,-1.158314,-0.970459,0.388672,-0.353027,0.068725,-0.018904,-0.010307,0.999882,-0.013932,0.002958,-0.005791,0.186254,-0.486351,-0.093162,-0.848583
49244,NaN,6.211638,-2.498132,-0.651674,-4.370716,0.714136,-4.749515,-2.623725,0.420761,-1.201730,-0.970459,0.384521,-0.348877,0.061951,-0.025438,-0.006315,0.999894,-0.013118,0.002104,-0.006008,0.174847,-0.486269,-0.084892,-0.851918
49245,NaN,5.379890,-2.845647,-0.159976,-3.699080,1.466332,-5.204822,-2.415211,0.218790,-1.216037,-0.970215,0.377930,-0.346680,0.053623,-0.028800,-0.001312,0.999908,-0.012076,0.001094,-0.006080,0.163854,-0.486892,-0.077383,-0.854459
49246,NaN,4.744965,-2.859060,0.228610,-3.049767,1.806785,-5.549479,-2.140209,-0.015421,-1.253078,-0.976074,0.367188,-0.346680,0.047269,-0.028860,0.002598,0.999923,-0.010701,-0.000077,-0.006265,0.153171,-0.488079,-0.071613,-0.856265
49247,NaN,4.084087,-2.650954,0.589287,-2.322071,1.904719,-5.935306,-1.822612,-0.251575,-1.279313,-0.978027,0.362793,-0.327637,0.040663,-0.026715,0.006187,0.999937,-0.009113,-0.001258,-0.006396,0.143129,-0.490068,-0.067142,-0.857228
49248,NaN,3.531343,-2.171996,0.916758,-1.591624,1.688895,-6.257074,-1.495636,-0.490713,-1.270603,-0.984131,0.354248,-0.323242,0.035152,-0.021874,0.009417,0.999949,-0.007478,-0.002454,-0.006353,0.133748,-0.492690,-0.064485,-0.857444
49249,NaN,3.110143,-1.612961,1.280993,-0.879516,1.355642,-6.450547,-1.192027,-0.767009,-1.261178,-0.988037,0.345703,-0.312500,0.030950,-0.016248,0.013025,0.999955,-0.005960,-0.003835,-0.006306,0.125134,-0.496353,-0.063013,-0.856741
49250,NaN,3.082261,-0.749455,1.597239,-0.321810,0.642164,-6.334613,-0.934535,-1.116483,-1.224537,-0.991943,0.332764,-0.293457,0.030686,-0.007607,0.016179,0.999955,-0.004673,-0.005582,-0.006123,0.117117,-0.501216,-0.063018,-0.855041
49251,NaN,3.926085,0.227143,2.224562,0.116289,-0.234975,-5.302116,-0.759680,-1.521839,-1.115029,-1.004395,0.322021,-0.278564,0.039102,0.002138,0.022535,0.999948,-0.003798,-0.007609,-0.005575,0.109944,-0.507796,-0.063475,-0.852072
49252,NaN,5.309840,1.710166,2.996201,0.579783,-1.619830,-3.718801,-0.741652,-1.887445,-0.974399,-1.006104,0.317627,-0.253174,0.052896,0.016956,0.030399,0.999937,-0.003708,-0.009437,-0.004872,0.103206,-0.515809,-0.064088,-0.848046
49253,NaN,6.838016,2.904253,3.485747,0.714984,-2.786042,-2.127071,-0.897502,-2.248684,-0.783750,-1.010010,0.306885,-0.233887,0.068097,0.028934,0.035494,0.999919,-0.004487,-0.011243,-0.003919,0.096823,-0.525521,-0.063481,-0.842866
49254,NaN,7.179452,1.810544,3.127357,0.155627,-1.772117,-1.974608,-1.012692,-2.625884,-0.585935,-1.011719,0.300293,-0.202148,0.071429,0.018057,0.032121,0.999897,-0.005063,-0.013129,-0.002930,0.090742,-0.536743,-0.062288,-0.836536
49255,NaN,7.044256,0.706149,2.411079,-0.469748,-0.777627,-2.389477,-0.958572,-3.061229,-0.327382,-1.015869,0.302490,-0.170410,0.070074,0.007065,0.025151,0.999870,-0.004793,-0.015305,-0.001637,0.085819,-0.549818,-0.060560,-0.828654
49256,NaN,8.361860,0.110086,2.152085,-1.079324,-0.296078,-1.250885,-0.787188,-3.414939,0.025398,-1.018066,0.304443,-0.134521,0.083235,0.001200,0.022940,0.999846,-0.003936,-0.017074,0.000127,0.082597,-0.564139,-0.058954,-0.819420
49257,NaN,10.944831,0.157806,3.213071,-0.658411,-0.287560,1.571885,-0.609767,-3.478201,0.361224,-1.024414,0.308594,-0.100830,0.108864,0.001877,0.034022,0.999843,-0.003049,-0.017390,0.001806,0.081303,-0.578667,-0.056887,-0.809505
49258,NaN,14.346714,0.914617,5.215129,0.707590,-0.863660,5.438415,-0.542313,-3.129261,0.488233,-1.020020,0.312744,-0.075439,0.142605,0.009640,0.054361,0.999871,-0.002711,-0.015646,0.002441,0.080688,-0.591538,-0.054805,-0.800356
49259,NaN,18.605737,2.250034,8.178179,3.019696,-1.941049,10.317140,-0.784543,-2.473956,0.556426,-1.018066,0.319092,-0.052246,0.184963,0.023343,0.083984,0.999912,-0.003923,-0.012369,0.002782,0.079893,-0.601863,-0.051036,-0.792952
49260,NaN,23.130762,3.543286,10.825828,5.009660,-3.171774,15.279394,-1.534118,-1.446841,0.538038,-1.018066,0.321289,-0.033203,0.230420,0.036891,0.109648,0.999941,-0.007670,-0.007234,0.002690,0.076910,-0.608232,-0.044175,-0.788788
49261,NaN,20.874365,4.748498,10.955952,6.035750,-4.447203,13.036903,-2.589385,0.140036,-0.011210,-1.013672,0.321289,-0.033203,0.208823,0.048885,0.108786,0.999916,-0.012947,0.000700,-0.000056,0.069001,-0.608632,-0.033964,-0.789717
49262,NaN,13.137500,3.318000,8.236592,4.979289,-3.121563,4.914816,-2.782763,1.086785,-0.547511,-1.011230,0.304199,-0.041504,0.131911,0.033954,0.081181,0.999885,-0.013913,0.005434,-0.002737,0.058420,-0.605034,-0.024552,-0.793674
49263,NaN,9.022572,2.895159,5.650656,3.305872,-2.854371,0.318366,-2.372249,1.371934,-1.027673,-1.013184,0.295654,-0.054199,0.090758,0.029149,0.055540,0.999893,-0.011861,0.006859,-0.005138,0.047313,-0.600102,-0.017868,-0.798323
49264,NaN,5.856968,3.262904,6.025329,4.370361,-3.073007,-2.552671,-1.858204,1.690402,-1.263668,-1.017090,0.284912,-0.062500,0.059281,0.032811,0.059450,0.999901,-0.009291,0.008452,-0.006318,0.036713,-0.593500,-0.014145,-0.803872
49265,NaN,5.305473,3.948217,7.077877,5.385501,-3.713882,-2.669109,-1.516542,1.964919,-1.475664,-1.020752,0.261475,-0.085693,0.054037,0.039618,0.069951,0.999896,-0.007582,0.009824,-0.007378,0.026402,-0.585727,-0.012090,-0.809988
49266,NaN,4.386717,1.255327,-5.713459,-6.742322,-1.652757,-7.516891,0.888185,2.197349,-1.859441,-1.022461,0.246582,-0.104492,0.043352,0.012404,-0.057557,0.999887,0.004441,0.010986,-0.009297,0.021476,-0.576387,-0.021165,-0.816620
49267,NaN,4.966406,-3.072212,-13.271538,-14.366030,1.951413,-9.673925,4.414265,0.537272,-0.922247,-1.022217,0.238037,-0.110840,0.049173,-0.028009,-0.133486,0.999742,0.022069,0.002686,-0.004611,0.030466,-0.573486,-0.041805,-0.817581
49268,NaN,11.910084,-1.922490,-8.892235,-12.527358,0.772217,-1.622986,4.491347,-1.236213,0.127459,-1.020264,0.244385,-0.104492,0.119660,-0.017157,-0.088585,0.999729,0.022455,-0.006181,0.000637,0.043457,-0.577636,-0.060274,-0.812905
49269,NaN,20.161561,-2.595716,-0.260584,-7.064830,2.452328,9.091164,2.090007,-2.025459,0.805966,-1.022461,0.248535,-0.087646,0.201732,-0.025129,-0.000829,0.999886,0.010450,-0.010127,0.004030,0.052137,-0.585603,-0.066898,-0.806149
49270,NaN,22.605484,1.605910,6.893392,-0.062124,-0.704221,13.863950,-1.603218,-1.511311,1.266587,-1.018555,0.259277,-0.070801,0.225416,0.018049,0.070500,0.999919,-0.008016,-0.007556,0.006333,0.051895,-0.592447,-0.057382,-0.801886
49271,NaN,19.991777,5.614750,6.975789,1.392715,-5.052893,11.455810,-5.276421,0.859494,0.578730,-1.022949,0.265625,-0.074951,0.200044,0.058525,0.067375,0.999639,-0.026379,0.004297,0.002893,0.038799,-0.590335,-0.034296,-0.805496
49272,NaN,7.085009,3.582888,-3.751535,-5.454084,-3.997279,-4.211603,-4.768345,1.622827,-0.610409,-1.016357,0.257080,-0.085449,0.070645,0.034696,-0.038925,0.999678,-0.023839,0.008113,-0.003052,0.022391,-0.584384,-0.016844,-0.810994
49273,NaN,1.979805,-2.466176,-7.913421,-8.224611,2.139960,-10.440283,-3.149730,0.052660,-0.765887,-1.018311,0.252930,-0.070801,0.019679,-0.025979,-0.078737,0.999869,-0.015748,0.000263,-0.003829,0.010068,-0.584396,-0.006327,-0.811382
49274,NaN,3.542427,-5.324975,-5.345482,-6.249384,5.233498,-8.072089,-2.231259,-1.584190,0.087755,-1.018311,0.259277,-0.047607,0.035867,-0.053824,-0.052574,0.999906,-0.011156,-0.007921,0.000439,0.003704,-0.590866,0.002643,-0.806757
49275,NaN,7.056549,-1.823853,-0.793780,-2.826108,1.752459,-3.278800,-1.644633,-1.590667,0.370184,-1.016113,0.254883,-0.028564,0.070659,-0.018169,-0.007226,0.999933,-0.008223,-0.007953,0.001851,0.000345,-0.597284,0.010317,-0.801964
49276,NaN,9.587579,2.303413,0.208742,-2.544672,-2.436979,-0.600935,-0.832488,-0.826335,0.211957,-1.009521,0.254883,-0.022217,0.095842,0.023145,0.002387,0.999982,-0.004162,-0.004132,0.001060,-0.001390,-0.600579,0.014057,-0.799441
49277,NaN,11.061718,2.304598,-1.252417,-4.290436,-2.443861,0.427452,0.153367,-0.702786,0.113353,-1.011963,0.263428,-0.015869,0.110647,0.023118,-0.012118,0.999993,0.000767,-0.003514,0.000567,-0.000441,-0.603393,0.013766,-0.797325
49278,NaN,12.046209,3.594248,-2.169449,-5.345721,-3.741822,1.148874,0.555494,-1.244127,0.055243,-1.014160,0.265381,0.000977,0.120584,0.036034,-0.020845,0.999977,0.002777,-0.006221,0.000276,0.001390,-0.608355,0.011491,-0.793580
49279,NaN,12.633696,3.677292,-0.147945,-3.376893,-3.865255,2.303743,-0.174502,-1.569295,-0.232664,-1.007568,0.259033,0.018066,0.126386,0.036625,-0.000520,0.999968,-0.000872,-0.007846,-0.001163,0.000012,-0.614593,0.011441,-0.788761
49280,NaN,10.749872,2.789784,0.162258,-2.431831,-2.898626,0.630027,-0.828622,-1.744155,-0.779381,-1.011230,0.246094,0.037109,0.107587,0.027488,0.002446,0.999946,-0.004143,-0.008721,-0.003897,-0.005675,-0.621521,0.012081,-0.783284
49281,NaN,9.958817,0.628538,0.011451,-2.164031,-0.653893,-0.093718,-1.052681,-2.198292,-0.782228,-1.013184,0.239502,0.058350,0.099603,0.005900,0.001178,0.999918,-0.005263,-0.010991,-0.003911,-0.011890,-0.630113,0.013810,-0.776290
49282,NaN,9.559120,0.097315,0.107237,-1.756245,-0.063357,-0.415604,-1.021699,-2.274471,-0.580306,-1.006348,0.228760,0.081543,0.095573,0.000705,0.002155,0.999918,-0.005108,-0.011372,-0.002901,-0.017377,-0.638913,0.015853,-0.768919
