// Start Time: Unknown
// Update Rate: 100.0Hz
// Filter Profile: human (46.1)
// Firmware Version: 4.4.0
PacketCounter,SampleTimeFine,Acc_X,Acc_Y,Acc_Z,FreeAcc_X,FreeAcc_Y,FreeAcc_Z,Gyr_X,Gyr_Y,Gyr_Z,Mag_X,Mag_Y,Mag_Z,VelInc_X,VelInc_Y,VelInc_Z,OriInc_q0,OriInc_q1,OriInc_q2,OriInc_q3,Quat_q0,Quat_q1,Quat_q2,Quat_q3
14323,NaN,0.571012,0.616982,9.593805,-0.000000,-0.000000,-0.182121,-0.064125,-0.092309,0.166610,-0.272949,-0.102051,-1.062500,0.005661,0.006205,0.095939,0.999999,-0.000321,-0.000462,0.000833,-0.087330,-0.032123,-0.029553,-0.995223
14324,NaN,0.510896,0.625664,9.602190,-0.000000,-0.000000,-0.176583,-0.048297,-0.116056,0.173854,-0.272949,-0.102051,-1.053955,0.005048,0.006284,0.096023,0.999999,-0.000241,-0.000580,0.000869,-0.084247,-0.028874,-0.030310,-0.995565
14325,NaN,0.282361,0.613339,9.559100,0.250462,-0.032400,-0.233100,-0.034814,-0.130811,0.182901,-0.276855,-0.110596,-1.053955,0.002755,0.006153,0.095592,0.999999,-0.000174,-0.000654,0.000915,-0.082455,-0.030848,-0.029956,-0.995667
14326,NaN,0.267586,0.565839,9.457094,0.280318,-0.000839,-0.339051,-0.053227,-0.168184,0.210783,-0.283447,-0.104248,-1.051758,0.002590,0.005686,0.094572,0.999999,-0.000266,-0.000841,0.001054,-0.081439,-0.031695,-0.029589,-0.995735
14327,NaN,0.694636,0.773793,9.425945,-0.161026,-0.144973,-0.332036,-0.038273,-0.130462,0.229769,-0.279297,-0.102051,-1.058105,0.006876,0.007764,0.094262,0.999999,-0.000191,-0.000652,0.001149,-0.080322,-0.032368,-0.029318,-0.995812
14328,NaN,0.207785,0.867332,9.430261,0.315653,-0.319630,-0.351004,0.018187,-0.083911,0.251874,-0.288086,-0.097900,-1.053955,0.002027,0.008667,0.094304,0.999999,0.000091,-0.000420,0.001259,-0.079077,-0.032830,-0.029334,-0.995896
14329,NaN,-0.236740,0.826828,9.281488,0.761730,-0.358897,-0.529549,0.010809,-0.127217,0.297790,-0.281250,-0.106445,-1.051758,-0.002439,0.008260,0.092814,0.999999,0.000054,-0.000636,0.001489,-0.077611,-0.033509,-0.029294,-0.995990
14330,NaN,-0.495545,0.768207,9.643060,1.069705,-0.326361,-0.191176,-0.057056,-0.210663,0.347065,-0.288086,-0.093506,-1.049805,-0.005070,0.007701,0.096423,0.999998,-0.000285,-0.001053,0.001735,-0.075923,-0.034587,-0.028870,-0.996095
14331,NaN,-0.407700,0.836632,10.351907,1.051133,-0.352732,0.521661,-0.081657,-0.299566,0.356890,-0.292236,-0.097900,-1.051758,-0.004247,0.008401,0.103509,0.999997,-0.000408,-0.001498,0.001784,-0.074205,-0.036056,-0.028305,-0.996189
14332,NaN,0.103954,1.283072,11.641621,0.616520,-0.663981,1.864782,-0.060480,-0.339123,0.315681,-0.294434,-0.091309,-1.051758,0.000822,0.012867,0.116414,0.999997,-0.000302,-0.001696,0.001578,-0.072691,-0.037768,-0.027820,-0.996251
14333,NaN,0.946135,1.583456,12.484371,-0.151056,-0.813211,2.780076,-0.134634,-0.325858,0.249021,-0.305176,-0.093506,-1.051758,0.009238,0.015930,0.124848,0.999998,-0.000673,-0.001629,0.001245,-0.071525,-0.039283,-0.027027,-0.996298
14334,NaN,1.396219,1.719411,12.632187,-0.568741,-0.901827,2.967808,-0.171021,-0.209384,0.148390,-0.305176,-0.084961,-1.043457,0.013817,0.017312,0.126322,0.999999,-0.000855,-0.001047,0.000742,-0.070848,-0.040285,-0.026071,-0.996332
14335,NaN,0.869456,1.041664,12.500629,0.041627,-0.335813,2.756807,-0.185333,0.038221,0.071292,-0.303223,-0.084961,-1.052002,0.008715,0.010536,0.124995,0.999999,-0.000927,0.000191,0.000356,-0.070531,-0.039970,-0.025256,-0.996388
14336,NaN,-1.048670,0.205744,12.126278,2.015894,0.164707,2.191375,-0.410145,-0.060802,0.169669,-0.305664,-0.076416,-1.043457,-0.010525,0.002297,0.121255,0.999997,-0.002051,-0.000304,0.000848,-0.069775,-0.040149,-0.023158,-0.996485
14337,NaN,0.473390,0.284560,10.812391,0.390569,0.194736,1.004986,-0.567580,-0.076289,0.210249,-0.307861,-0.072266,-1.047852,0.004689,0.003157,0.108117,0.999995,-0.002838,-0.000381,0.001051,-0.068858,-0.040195,-0.020368,-0.996608
14338,NaN,-0.542279,0.777134,9.758177,1.253850,-0.532518,-0.103726,-0.579272,-0.374386,0.174708,-0.314453,-0.059326,-1.037354,-0.005612,0.008049,0.097548,0.999994,-0.002896,-0.001872,0.000874,-0.068142,-0.041879,-0.017318,-0.996646
14339,NaN,-0.531095,1.449650,9.642496,1.182099,-1.245794,-0.199597,-0.291403,-0.638181,0.167545,-0.325195,-0.061523,-1.041504,-0.005631,0.014632,0.096386,0.999993,-0.001457,-0.003191,0.000838,-0.067432,-0.044732,-0.015730,-0.996596
14340,NaN,1.017999,1.808162,11.690976,-0.141423,-1.379820,1.979690,-0.293639,-0.645315,0.189170,-0.333740,-0.054932,-1.035156,0.009786,0.018263,0.116915,0.999993,-0.001468,-0.003227,0.000946,-0.066606,-0.047863,-0.014007,-0.996532
14341,NaN,1.940613,1.811913,12.259068,-0.937489,-1.300392,2.627695,-0.509847,-0.549185,0.103967,-0.333740,-0.052979,-1.037109,0.019060,0.018442,0.122597,0.999993,-0.002549,-0.002746,0.000520,-0.066265,-0.050131,-0.011521,-0.996475
14342,NaN,1.765565,1.485435,11.603458,-0.727268,-1.090150,1.945105,-0.661784,-0.638512,-0.029360,-0.346924,-0.040039,-1.031006,0.017287,0.015236,0.116040,0.999989,-0.003309,-0.003193,-0.000147,-0.066613,-0.053090,-0.008019,-0.996333
14343,NaN,1.603622,1.075617,11.397510,-0.475983,-0.789592,1.710360,-0.801044,-0.691495,-0.150823,-0.351562,-0.031494,-1.033203,0.015650,0.011201,0.113985,0.999986,-0.004005,-0.003457,-0.000754,-0.067628,-0.056061,-0.004251,-0.996125
14344,NaN,1.344233,0.136204,11.746100,0.014484,0.003387,2.010795,-0.845389,-0.757040,-0.211291,-0.366699,-0.020752,-1.026855,0.012999,0.001845,0.117504,0.999983,-0.004227,-0.003785,-0.001056,-0.068932,-0.059540,0.000157,-0.995843
14345,NaN,1.221123,-0.590028,11.781218,0.319020,0.610241,2.026257,-0.797611,-0.863184,-0.218621,-0.379395,-0.018555,-1.028809,0.011696,-0.005443,0.117886,0.999982,-0.003988,-0.004316,-0.001093,-0.070286,-0.063396,0.003908,-0.995503
14346,NaN,1.439332,-0.913070,11.770147,0.248021,0.861441,2.046336,-0.685594,-0.991252,-0.233866,-0.383789,-0.010010,-1.014160,0.013799,-0.008743,0.117801,0.999981,-0.003428,-0.004956,-0.001169,-0.071646,-0.068092,0.007595,-0.995074
14347,NaN,1.565898,-0.875057,11.792110,0.232322,0.758318,2.088603,-0.621222,-1.094764,-0.243132,-0.396973,0.004883,-1.011963,0.015003,-0.008403,0.118031,0.999979,-0.003106,-0.005474,-0.001216,-0.073049,-0.073131,0.010674,-0.994586
14348,NaN,2.139873,-0.914683,11.523424,-0.233451,0.804251,1.913420,-0.564905,-1.222929,-0.265215,-0.409912,0.009277,-1.007812,0.020682,-0.008849,0.115387,0.999976,-0.002825,-0.006115,-0.001326,-0.074507,-0.079019,0.013832,-0.993989
14349,NaN,2.685545,-1.204549,11.496787,-0.586580,1.100415,1.989086,-0.475045,-1.329731,-0.296678,-0.431152,0.007080,-1.005615,0.026073,-0.011811,0.115171,0.999974,-0.002375,-0.006649,-0.001483,-0.076086,-0.085293,0.016385,-0.993311
14350,NaN,3.008381,-1.650666,11.350711,-0.696036,1.527618,1.925833,-0.413725,-1.461290,-0.308244,-0.443848,0.011230,-0.997070,0.029228,-0.016317,0.113757,0.999970,-0.002069,-0.007306,-0.001541,-0.077672,-0.092416,0.018864,-0.992507
14351,NaN,3.287153,-2.005684,10.835692,-0.833466,1.892488,1.499319,-0.218652,-1.523234,-0.293813,-0.458740,0.015625,-0.988525,0.032016,-0.019986,0.108625,0.999969,-0.001093,-0.007616,-0.001469,-0.079087,-0.099863,0.020422,-0.991643
14352,NaN,3.425936,-1.946155,10.872438,-0.797427,1.822847,1.579121,0.026224,-1.479144,-0.241759,-0.471680,0.017578,-0.984375,0.033430,-0.019517,0.108971,0.999972,0.000131,-0.007396,-0.001209,-0.080119,-0.107229,0.020756,-0.990784
14353,NaN,3.516934,-0.849033,11.448619,-0.768819,0.700829,2.148741,0.116403,-1.435277,-0.211023,-0.488525,0.015625,-0.978027,0.034338,-0.008594,0.114730,0.999974,0.000582,-0.007176,-0.001055,-0.080915,-0.114513,0.020949,-0.989899
14354,NaN,3.448902,0.029511,11.781673,-0.596150,-0.211258,2.447035,0.013177,-1.492439,-0.196760,-0.503174,0.013428,-0.967285,0.033609,0.000254,0.118070,0.999972,0.000066,-0.007462,-0.000984,-0.081723,-0.121923,0.021374,-0.988939
14355,NaN,3.482124,0.020221,11.163842,-0.584173,-0.197017,1.865234,-0.118886,-1.636988,-0.189850,-0.518311,0.019775,-0.963135,0.033906,0.000236,0.111918,0.999966,-0.000594,-0.008185,-0.000949,-0.082516,-0.130203,0.022834,-0.987784
14356,NaN,3.633299,-0.664578,10.749320,-0.527984,0.483967,1.530774,-0.222066,-1.731896,-0.168895,-0.533203,0.019775,-0.952393,0.035395,-0.006556,0.107810,0.999962,-0.001110,-0.008659,-0.000844,-0.083293,-0.138679,0.024535,-0.986523
14357,NaN,4.158717,-1.110392,10.472644,-0.823471,0.965523,1.438549,-0.228974,-1.793258,-0.144189,-0.552246,0.017578,-0.943848,0.040638,-0.011013,0.105106,0.999959,-0.001145,-0.008966,-0.000721,-0.083900,-0.147740,0.026628,-0.985101
14358,NaN,4.650797,-1.390577,10.257799,-1.100636,1.283505,1.408882,-0.191573,-1.833384,-0.123107,-0.571533,0.028320,-0.929199,0.045556,-0.013835,0.103012,0.999957,-0.000958,-0.009167,-0.000616,-0.084400,-0.156700,0.028249,-0.983628
14359,NaN,5.007980,-1.682481,9.986061,-1.256364,1.590443,1.301290,-0.121904,-1.831684,-0.089893,-0.583984,0.023926,-0.920654,0.049155,-0.016786,0.100324,0.999958,-0.000610,-0.009158,-0.000449,-0.084604,-0.166116,0.030014,-0.982012
14360,NaN,5.027800,-1.641849,9.991962,-1.080091,1.511375,1.338967,-0.051506,-1.822151,-0.057198,-0.603271,0.026123,-0.909912,0.049360,-0.016407,0.100376,0.999958,-0.000258,-0.009111,-0.000286,-0.084651,-0.175043,0.030989,-0.980425
14361,NaN,5.013209,-1.410325,9.978156,-0.898070,1.229752,1.339107,0.009735,-1.843348,-0.039848,-0.622314,0.026123,-0.901367,0.049207,-0.014118,0.100237,0.999958,0.000049,-0.009217,-0.000199,-0.084435,-0.184714,0.032354,-0.978624
14362,NaN,4.961030,-1.168352,9.703717,-0.789178,0.978861,1.075590,0.077827,-1.864910,-0.029949,-0.641357,0.028076,-0.886475,0.048701,-0.011729,0.097490,0.999956,0.000389,-0.009324,-0.000150,-0.084205,-0.193869,0.032732,-0.976859
14363,NaN,4.552389,-1.057079,9.708779,-0.217594,0.761617,0.933061,0.104634,-1.918260,-0.025195,-0.660400,0.025879,-0.875977,0.044589,-0.010627,0.097513,0.999954,0.000523,-0.009591,-0.000126,-0.083753,-0.204024,0.033796,-0.974791
14364,NaN,4.280156,-1.084404,9.793780,0.272576,0.710347,0.903245,0.046418,-1.973783,-0.008037,-0.670898,0.025879,-0.865234,0.041832,-0.010869,0.098351,0.999951,0.000232,-0.009869,-0.000040,-0.083407,-0.213655,0.034386,-0.972734
14365,NaN,4.196956,-1.131561,9.901537,0.626253,0.677087,0.961381,-0.013340,-2.063409,0.003210,-0.696533,0.025879,-0.856689,0.040945,-0.011308,0.099442,0.999947,-0.000067,-0.010317,0.000016,-0.082863,-0.224359,0.036159,-0.970304
14366,NaN,4.213843,-0.841527,9.979803,0.817672,0.346401,1.016346,0.023685,-2.160298,0.000069,-0.709229,0.034424,-0.839844,0.041057,-0.008427,0.100244,0.999942,0.000118,-0.010801,0.000000,-0.082441,-0.234836,0.036937,-0.967828
14367,NaN,4.445679,-0.595436,9.821033,0.744285,0.098795,0.957768,0.089751,-2.241676,-0.011160,-0.734619,0.032227,-0.824951,0.043352,-0.006001,0.098698,0.999937,0.000449,-0.011208,-0.000056,-0.081761,-0.246229,0.038283,-0.964998
14368,NaN,4.516419,-0.516125,9.321725,0.672858,0.055079,0.536150,0.102304,-2.314153,-0.003934,-0.749512,0.030029,-0.807861,0.044082,-0.005210,0.093729,0.999933,0.000512,-0.011571,-0.000020,-0.081206,-0.257421,0.038729,-0.962102
14369,NaN,4.748729,-0.482249,8.891444,0.503847,0.050648,0.265968,0.054839,-2.440549,0.011992,-0.772461,0.023682,-0.786621,0.046398,-0.004844,0.089484,0.999926,0.000274,-0.012202,0.000060,-0.080379,-0.269520,0.040275,-0.958789
14370,NaN,5.225130,-0.336585,8.808876,0.282965,-0.057809,0.430490,0.092974,-2.502723,0.021365,-0.785400,0.027832,-0.767578,0.051144,-0.003401,0.088732,0.999922,0.000465,-0.012513,0.000107,-0.079641,-0.281529,0.040861,-0.955368
14371,NaN,5.123565,-0.260501,8.698018,0.554890,-0.182559,0.268355,0.143079,-2.578881,-0.025010,-0.808594,0.025635,-0.746338,0.050108,-0.002674,0.087629,0.999917,0.000715,-0.012894,-0.000125,-0.078805,-0.294147,0.041894,-0.951584
14372,NaN,4.922019,-0.258173,8.423173,0.827275,-0.204830,-0.091033,0.168261,-2.715145,-0.083574,-0.827637,0.027588,-0.725098,0.048070,-0.002673,0.084887,0.999907,0.000841,-0.013575,-0.000418,-0.078379,-0.307122,0.042037,-0.947505
14373,NaN,5.450485,-0.106932,8.128650,0.481395,-0.292536,-0.041796,0.170876,-2.854235,-0.111226,-0.852783,0.023193,-0.701904,0.053337,-0.001169,0.082052,0.999898,0.000854,-0.014271,-0.000556,-0.077821,-0.320834,0.042813,-0.942962
14374,NaN,5.905101,-0.024276,7.466905,-0.004005,-0.262647,-0.296925,0.160276,-2.981860,-0.124901,-0.871826,0.025391,-0.674316,0.057929,-0.000339,0.075538,0.999888,0.000801,-0.014909,-0.000624,-0.077506,-0.334945,0.043013,-0.938059
14375,NaN,6.346961,0.036722,6.950869,-0.385958,-0.244827,-0.411418,0.165825,-3.089944,-0.123832,-0.888672,0.018799,-0.653076,0.062386,0.000270,0.070478,0.999880,0.000829,-0.015449,-0.000619,-0.076933,-0.349570,0.043761,-0.932720
14376,NaN,6.833555,-0.188951,6.671467,-0.592379,0.038116,-0.279509,0.226708,-3.196202,-0.096129,-0.909668,0.018799,-0.616943,0.067257,-0.001998,0.067793,0.999872,0.001133,-0.015980,-0.000481,-0.076276,-0.364539,0.043760,-0.927027
14377,NaN,7.336164,-0.314450,6.499999,-0.735704,0.196361,-0.036197,0.240799,-3.271945,-0.066694,-0.928711,0.018799,-0.589355,0.072284,-0.003248,0.066185,0.999865,0.001204,-0.016359,-0.000333,-0.075233,-0.379899,0.044228,-0.920902
14378,NaN,7.725057,-0.217614,6.221768,-0.894973,0.143678,0.066762,0.242533,-3.330088,-0.057321,-0.947754,0.022949,-0.561768,0.076200,-0.002275,0.063490,0.999861,0.001213,-0.016650,-0.000287,-0.074289,-0.395283,0.044250,-0.914481
14379,NaN,8.023264,-0.126895,5.760798,-1.108955,0.100228,0.001915,0.251718,-3.400463,-0.040859,-0.964111,0.010010,-0.525879,0.079238,-0.001359,0.058959,0.999855,0.001259,-0.017001,-0.000204,-0.073024,-0.411107,0.044704,-0.907557
14380,NaN,8.265697,-0.014551,4.911178,-1.586828,0.090933,-0.330799,0.221788,-3.440286,-0.022582,-0.976807,0.014160,-0.489746,0.081796,-0.000210,0.050524,0.999851,0.001109,-0.017201,-0.000113,-0.071891,-0.426743,0.044901,-0.900392
14381,NaN,8.429467,-0.035003,4.069506,-2.002165,0.192137,-0.671369,0.158433,-3.457530,-0.008684,-0.998047,0.016113,-0.464355,0.083574,-0.000387,0.042144,0.999850,0.000792,-0.017287,-0.000043,-0.070622,-0.442679,0.045784,-0.892722
14382,NaN,8.204643,0.019011,3.389357,-2.103429,0.172777,-1.190514,0.144180,-3.516590,-0.050335,-1.010498,0.013916,-0.428467,0.081434,0.000144,0.035329,0.999845,0.000721,-0.017582,-0.000252,-0.069711,-0.458369,0.046264,-0.884815
14383,NaN,7.609563,-0.005953,2.897613,-1.855964,0.174506,-1.886805,0.172856,-3.550546,-0.090147,-1.025391,0.013916,-0.392334,0.075565,-0.000119,0.030321,0.999842,0.000864,-0.017752,-0.000451,-0.068703,-0.474666,0.046867,-0.876228
14384,NaN,6.778349,-0.186746,2.467655,-1.467150,0.319993,-2.755086,0.210622,-3.578810,-0.105556,-1.040039,0.013672,-0.356445,0.067327,-0.001930,0.025882,0.999839,0.001053,-0.017893,-0.000528,-0.067816,-0.490365,0.046916,-0.867607
14385,NaN,6.234206,-0.237136,1.934404,-1.384612,0.376256,-3.440849,0.302425,-3.537122,-0.096064,-1.046143,0.011475,-0.312012,0.061986,-0.002432,0.020439,0.999842,0.001512,-0.017685,-0.000480,-0.066470,-0.506463,0.046877,-0.858417
14386,NaN,5.763089,-0.180066,1.577492,-1.265357,0.317835,-3.979296,0.405806,-3.437009,-0.085764,-1.056396,0.004883,-0.282227,0.057348,-0.001859,0.016758,0.999850,0.002029,-0.017184,-0.000429,-0.064995,-0.521293,0.046054,-0.849652
14387,NaN,5.529885,-0.011712,0.762204,-1.706606,0.230803,-4.503077,0.512557,-3.390058,-0.085391,-1.064697,0.002686,-0.248291,0.055159,-0.000162,0.008557,0.999853,0.002563,-0.016949,-0.000427,-0.063039,-0.536572,0.045055,-0.840290
14388,NaN,4.808414,-0.244666,0.395681,-1.535711,0.452349,-5.255035,0.787738,-3.293288,-0.013039,-1.066895,0.006836,-0.212402,0.048010,-0.002467,0.004738,0.999857,0.003939,-0.016466,-0.000065,-0.060229,-0.550582,0.042742,-0.831508
14389,NaN,4.681357,-0.587967,0.570195,-1.125723,0.737615,-5.254961,0.979518,-3.176814,0.125039,-1.068604,0.000244,-0.178467,0.046719,-0.005881,0.006416,0.999862,0.004897,-0.015883,0.000625,-0.056122,-0.564825,0.040266,-0.822315
14390,NaN,4.770291,-0.470439,0.860313,-0.768196,0.568121,-5.037480,1.043814,-2.992644,0.202807,-1.070801,0.010986,-0.148926,0.047572,-0.004703,0.009291,0.999874,0.005219,-0.014963,0.001014,-0.051731,-0.577310,0.037383,-0.814026
14391,NaN,4.788096,-0.225407,1.101427,-0.431663,0.274905,-4.921240,0.938635,-2.910236,0.179880,-1.076660,-0.001953,-0.114990,0.047716,-0.002265,0.011699,0.999883,0.004693,-0.014551,0.000899,-0.047501,-0.590133,0.035161,-0.805140
14392,NaN,4.403612,-0.219927,1.047559,-0.235126,0.248874,-5.293953,0.894190,-2.865117,0.131610,-1.079102,0.008545,-0.083496,0.043882,-0.002219,0.011095,0.999887,0.004471,-0.014325,0.000658,-0.043824,-0.601789,0.032627,-0.796784
14393,NaN,4.389181,-0.488886,1.162945,0.042997,0.491919,-5.272727,1.040150,-2.847590,0.079107,-1.078857,0.008545,-0.049561,0.043723,-0.004934,0.012227,0.999885,0.005201,-0.014237,0.000396,-0.039657,-0.614054,0.029660,-0.787709
14394,NaN,4.248323,-0.541551,1.099438,0.142206,0.543715,-5.427111,1.064589,-2.803101,0.054628,-1.072266,0.006348,-0.026367,0.042325,-0.005464,0.011559,0.999888,0.005323,-0.014015,0.000273,-0.035753,-0.625228,0.026188,-0.779183
14395,NaN,4.342838,-0.719219,0.907824,0.073833,0.734175,-5.379162,1.078173,-2.696995,0.013145,-1.074219,0.006104,0.003174,0.043302,-0.007240,0.009624,0.999895,0.005391,-0.013485,0.000066,-0.031698,-0.636534,0.022845,-0.770258
14396,NaN,4.429010,-0.909839,1.025208,0.297055,0.919009,-5.278240,1.132991,-2.561835,-0.005002,-1.074463,0.014648,0.030762,0.044154,-0.009160,0.010766,0.999902,0.005665,-0.012809,-0.000025,-0.027816,-0.646518,0.018870,-0.762158
14397,NaN,5.024087,-1.036164,0.997844,0.300946,1.056432,-4.703574,1.011296,-2.457753,-0.027588,-1.074219,0.012451,0.056152,0.050112,-0.010421,0.010542,0.999912,0.005056,-0.012288,-0.000138,-0.024094,-0.656553,0.015640,-0.753732
14398,NaN,5.910424,-0.861790,0.749918,0.050386,0.913748,-3.862967,0.804419,-2.383077,-0.073210,-1.061523,0.012207,0.081299,0.059006,-0.008671,0.008168,0.999921,0.004022,-0.011915,-0.000366,-0.021541,-0.665585,0.012655,-0.745904
14399,NaN,6.805836,-0.634700,0.463268,-0.196789,0.704989,-3.000981,0.615842,-2.201037,-0.030508,-1.065430,0.008057,0.106689,0.068001,-0.006373,0.005362,0.999935,0.003079,-0.011005,-0.000153,-0.018910,-0.674316,0.010958,-0.738119
14400,NaN,8.299019,-0.275804,-0.159072,-0.808643,0.385950,-1.556184,0.371687,-2.045329,0.037476,-1.061279,0.014404,0.123779,0.083001,-0.002741,-0.000747,0.999946,0.001858,-0.010226,0.000187,-0.017406,-0.681862,0.009906,-0.731207
14401,NaN,10.113260,-0.222695,-0.714921,-1.303459,0.347181,0.238002,0.253683,-1.820063,0.098856,-1.061035,0.012207,0.148926,0.101193,-0.002169,-0.006231,0.999958,0.001268,-0.009100,0.000494,-0.015557,-0.688979,0.009913,-0.724547
14402,NaN,11.561909,-0.451171,-0.959401,-1.441350,0.569179,1.693747,0.313521,-1.405356,0.250917,-1.052734,0.018555,0.159424,0.115688,-0.004352,-0.008788,0.999973,0.001568,-0.007027,0.001255,-0.013498,-0.694064,0.009751,-0.719721
14403,NaN,12.539134,-0.369144,-1.041717,-1.406780,0.435797,2.688555,0.413341,-0.948724,0.324755,-1.054932,0.020508,0.165771,0.125445,-0.003467,-0.009830,0.999985,0.002067,-0.004744,0.001624,-0.010337,-0.697991,0.009873,-0.715963
14404,NaN,14.018801,-0.423589,-0.644201,-0.940390,0.434504,4.188998,0.474262,-0.698913,0.268184,-1.048584,0.022705,0.170166,0.140215,-0.004033,-0.005962,0.999990,0.002371,-0.003495,0.001341,-0.007688,-0.700498,0.009148,-0.713554
14405,NaN,13.326537,-0.748687,-0.715263,-0.906654,0.704272,3.504613,0.239914,-0.280100,0.280461,-1.050781,0.022705,0.176514,0.133286,-0.007292,-0.006975,0.999997,0.001200,-0.001400,0.001402,-0.005363,-0.702022,0.009685,-0.712069
14406,NaN,12.461541,-0.671173,-0.531518,-0.690046,0.593304,2.645030,0.185021,-0.093757,0.227191,-1.046875,0.033447,0.174316,0.124625,-0.006565,-0.005263,0.999999,0.000925,-0.000469,0.001136,-0.003901,-0.702350,0.009827,-0.711754
14407,NaN,11.992913,-0.239372,-0.098458,-0.234010,0.119114,2.180143,-0.026871,-0.045570,0.140446,-1.048828,0.031250,0.176270,0.119931,-0.002310,-0.000957,1.000000,-0.000134,-0.000228,0.000702,-0.003036,-0.703031,0.010816,-0.711070
14408,NaN,10.918314,0.252932,0.131924,-0.000713,-0.376249,1.102870,-0.350873,0.034484,0.031247,-1.044434,0.027100,0.169922,0.109183,0.002549,0.001296,0.999998,-0.001754,0.000172,0.000156,-0.004161,-0.702901,0.012174,-0.711171
14409,NaN,10.123553,0.627272,-0.378529,-0.505303,-0.738393,0.297827,-0.360360,0.107501,-0.062664,-1.052979,0.029297,0.172119,0.101235,0.006234,-0.003851,0.999998,-0.001802,0.000538,-0.000313,-0.005266,-0.702999,0.013581,-0.711041
14410,NaN,9.512197,0.841356,-1.538283,-1.676856,-0.903349,-0.329641,-0.092810,0.146992,-0.126712,-1.044434,0.027100,0.169922,0.095116,0.008346,-0.015457,0.999999,-0.000464,0.000735,-0.000634,-0.006053,-0.702483,0.013462,-0.711547
14411,NaN,9.328646,0.611429,-2.254358,-2.382834,-0.647312,-0.518459,0.245877,0.122988,-0.175655,-1.052979,0.024902,0.174316,0.093278,0.006060,-0.022593,0.999999,0.001229,0.000615,-0.000878,-0.005508,-0.702565,0.012234,-0.711493
14412,NaN,9.330525,0.218224,-2.396295,-2.522818,-0.241640,-0.516154,0.483398,0.079822,-0.197511,-1.042480,0.029297,0.163574,0.093298,0.002148,-0.023995,0.999997,0.002417,0.000399,-0.000988,-0.004518,-0.702305,0.009819,-0.711794
14413,NaN,9.353022,0.121724,-2.224590,-2.339195,-0.149374,-0.488070,0.558409,0.048482,-0.191231,-1.054932,0.022705,0.172119,0.093526,0.001190,-0.022265,0.999996,0.002792,0.000242,-0.000956,-0.002964,-0.702736,0.007377,-0.711406
14414,NaN,9.337184,-0.163697,-1.783769,-1.896662,0.135680,-0.497329,0.501322,0.007348,-0.165662,-1.046631,0.029297,0.172119,0.093370,-0.001670,-0.017845,0.999997,0.002507,0.000037,-0.000828,-0.001793,-0.702722,0.005012,-0.711444
14415,NaN,9.460011,-0.711428,-1.266833,-1.358083,0.678810,-0.362945,0.349007,-0.062624,-0.131521,-1.048584,0.024902,0.174316,0.094599,-0.007154,-0.012651,0.999998,0.001745,-0.000313,-0.000658,-0.000772,-0.703590,0.003506,-0.710597
14416,NaN,9.352424,-1.111452,-0.515499,-0.594976,1.084166,-0.461780,0.110592,-0.152935,-0.124414,-1.042480,0.029053,0.174316,0.093521,-0.011170,-0.005090,0.999999,0.000553,-0.000765,-0.000622,-0.000822,-0.704136,0.002677,-0.710059
14417,NaN,9.507880,-1.070834,0.227174,0.179732,1.043717,-0.300780,-0.205973,-0.191970,-0.126665,-1.050537,0.020508,0.174316,0.095070,-0.010766,0.002374,0.999999,-0.001030,-0.000960,-0.000633,-0.001701,-0.705447,0.003185,-0.708754
14418,NaN,9.898515,-0.950349,0.361026,0.332084,0.932424,0.088542,-0.381669,-0.182067,-0.120986,-1.041992,0.020508,0.180664,0.098976,-0.009556,0.003719,0.999998,-0.001908,-0.000910,-0.000605,-0.003473,-0.706090,0.004113,-0.708102
14419,NaN,9.519201,-0.359064,0.657243,0.659139,0.341465,-0.292973,-0.350607,-0.198493,-0.136894,-1.046387,0.018311,0.182861,0.095183,-0.003644,0.006673,0.999998,-0.001753,-0.000992,-0.000684,-0.004899,-0.707352,0.005120,-0.706826
14420,NaN,9.393565,0.801252,1.724159,1.731477,-0.825246,-0.422549,-0.616141,-0.304591,-0.188352,-1.041748,0.009766,0.182861,0.093917,0.007977,0.017360,0.999994,-0.003081,-0.001523,-0.000942,-0.007736,-0.708414,0.006640,-0.705723
14421,NaN,10.348876,-0.128805,-1.650541,-1.581489,0.178625,0.546223,-0.304628,-0.245531,-0.101938,-1.043945,0.011963,0.187012,0.103508,-0.001366,-0.016376,0.999998,-0.001523,-0.001228,-0.000510,-0.008921,-0.709733,0.007571,-0.704373
14422,NaN,10.668808,-0.026827,-2.770300,-2.677272,0.104616,0.879365,0.396820,-0.199388,0.010024,-1.041992,0.018311,0.182861,0.106716,-0.000208,-0.027597,0.999998,0.001984,-0.000997,0.000050,-0.007470,-0.710452,0.006219,-0.703679
14423,NaN,10.057671,-0.446648,-3.245569,-3.124086,0.501191,0.280812,0.895268,-0.065068,0.076190,-1.041992,0.016357,0.189209,0.100589,-0.004283,-0.032442,0.999990,0.004476,-0.000325,0.000381,-0.003769,-0.711217,0.003542,-0.702954
14424,NaN,9.329832,-0.519253,-2.586541,-2.470517,0.529452,-0.452042,0.988107,-0.085419,0.132194,-1.039795,0.016357,0.191162,0.093313,-0.005003,-0.025851,0.999987,0.004941,-0.000427,0.000661,0.000211,-0.711525,0.000541,-0.702660
14425,NaN,9.711405,-0.333333,-1.533907,-1.389610,0.304350,-0.078641,0.655061,-0.146959,0.167576,-1.044189,0.022705,0.197510,0.097128,-0.003202,-0.015278,0.999994,0.003275,-0.000735,0.000838,0.003371,-0.712620,-0.000957,-0.701541
14426,NaN,9.977375,-0.202064,-0.885237,-0.721583,0.155278,0.178691,0.320730,-0.172073,0.128054,-1.037842,0.024902,0.193359,0.099783,-0.001943,-0.008770,0.999998,0.001604,-0.000860,0.000640,0.004962,-0.713219,-0.001628,-0.700922
14427,NaN,9.753336,-0.028195,-0.761208,-0.569558,-0.035688,-0.046311,0.149040,-0.118807,0.102816,-1.040039,0.024902,0.201660,0.097538,-0.000226,-0.007554,0.999999,0.000745,-0.000594,0.000514,0.006092,-0.714209,-0.001585,-0.699904
14428,NaN,9.546278,0.216805,-0.555122,-0.354957,-0.285965,-0.258693,0.037175,-0.087353,0.068154,-1.033691,0.026855,0.199463,0.095464,0.002202,-0.005509,1.000000,0.000186,-0.000437,0.000341,0.006463,-0.714515,-0.001473,-0.699589
14429,NaN,9.518918,0.402727,-0.561470,-0.334078,-0.481182,-0.286719,-0.097353,-0.139967,0.027205,-1.040039,0.024902,0.201660,0.095193,0.004038,-0.005550,1.000000,-0.000487,-0.000700,0.000136,0.006420,-0.715555,-0.000863,-0.698526
14430,NaN,9.696037,0.287828,-0.768630,-0.522752,-0.370174,-0.103081,-0.192520,-0.186981,0.004425,-1.038086,0.029053,0.201660,0.096967,0.002873,-0.007598,0.999999,-0.000963,-0.000935,0.000022,0.005745,-0.716215,-0.000179,-0.697856
14431,NaN,9.841834,0.098401,-0.702021,-0.420544,-0.183777,0.043963,-0.250679,-0.202966,-0.010849,-1.037842,0.024902,0.206055,0.098425,0.000970,-0.006922,0.999999,-0.001253,-0.001015,-0.000054,0.004991,-0.717449,0.000795,-0.696593
14432,NaN,9.972723,-0.054213,-0.754454,-0.451289,-0.029251,0.178449,-0.198080,-0.174861,-0.020914,-1.033691,0.029053,0.208008,0.099734,-0.000560,-0.007457,0.999999,-0.000990,-0.000874,-0.000105,0.004208,-0.718064,0.001407,-0.695963
14433,NaN,10.067550,-0.329085,-0.876837,-0.542010,0.242913,0.280871,-0.023154,-0.129143,-0.016698,-1.037842,0.024658,0.210205,0.100681,-0.003300,-0.008703,1.000000,-0.000116,-0.000646,-0.000083,0.004237,-0.719008,0.001551,-0.694987
14434,NaN,10.021839,-0.462420,-0.902167,-0.558819,0.377503,0.237696,0.143068,-0.085353,-0.013289,-1.033691,0.026855,0.205811,0.100222,-0.004624,-0.008982,1.000000,0.000715,-0.000427,-0.000066,0.004706,-0.719303,0.001006,-0.694680
14435,NaN,9.935052,-0.491926,-0.864919,-0.505431,0.403450,0.151102,0.243270,-0.046834,-0.013410,-1.035645,0.024658,0.208008,0.099352,-0.004915,-0.008632,0.999999,0.001216,-0.000234,-0.000067,0.005698,-0.719934,0.000241,-0.694019
14436,NaN,9.903974,-0.394213,-0.738395,-0.376412,0.306169,0.114745,0.227394,-0.033254,-0.007860,-1.031738,0.031250,0.208008,0.099041,-0.003938,-0.007372,0.999999,0.001137,-0.000166,-0.000039,0.006489,-0.720044,-0.000576,-0.693897
14437,NaN,9.908047,-0.210845,-0.691617,-0.312195,0.118296,0.116095,0.138796,-0.029062,-0.002898,-1.035889,0.031250,0.214355,0.099081,-0.002105,-0.006903,1.000000,0.000694,-0.000145,-0.000014,0.007149,-0.720594,-0.000937,-0.693320
14438,NaN,9.864582,-0.193898,-0.768513,-0.388160,0.100174,0.075562,0.059015,-0.021535,0.002168,-1.035889,0.026855,0.212158,0.098647,-0.001936,-0.007675,1.000000,0.000295,-0.000108,0.000011,0.007368,-0.720668,-0.001133,-0.693240
14439,NaN,9.787607,-0.110566,-0.825894,-0.433212,0.011775,0.000761,0.013572,-0.020383,0.014399,-1.035645,0.024658,0.214355,0.097877,-0.001098,-0.008249,1.000000,0.000068,-0.000102,0.000072,0.007631,-0.721170,-0.001004,-0.692715
14440,NaN,9.813461,-0.090270,-0.830441,-0.433702,-0.011018,0.026701,0.003932,-0.034619,0.029552,-1.033691,0.024658,0.210205,0.098136,-0.000888,-0.008287,1.000000,0.000020,-0.000173,0.000148,0.007747,-0.721291,-0.000911,-0.692588
14441,NaN,9.856476,-0.111590,-0.759293,-0.345785,0.003665,0.067572,0.023093,-0.035428,0.044340,-1.033691,0.029053,0.212158,0.098566,-0.001093,-0.007576,1.000000,0.000115,-0.000177,0.000222,0.008116,-0.721827,-0.000716,-0.692025
14442,NaN,9.897367,-0.073549,-0.624292,-0.205456,-0.038262,0.102420,0.052419,-0.028921,0.056155,-1.031738,0.029053,0.205811,0.098975,-0.000706,-0.006229,1.000000,0.000262,-0.000145,0.000281,0.008499,-0.721927,-0.000695,-0.691916
14443,NaN,9.828737,-0.097957,-0.527696,-0.098034,-0.021431,0.030181,0.056042,-0.030207,0.065215,-1.035889,0.029053,0.216553,0.098288,-0.000946,-0.005262,1.000000,0.000280,-0.000151,0.000326,0.009062,-0.722421,-0.000546,-0.691394
14444,NaN,9.674355,0.006240,-0.407582,0.020262,-0.128313,-0.130620,0.030199,-0.043610,0.057871,-1.029785,0.039795,0.214355,0.096744,0.000091,-0.004055,1.000000,0.000151,-0.000218,0.000289,0.009371,-0.722573,-0.000442,-0.691231
14445,NaN,9.708617,0.035517,-0.472449,-0.027296,-0.167043,-0.093991,-0.011219,-0.057493,0.044818,-1.031494,0.029053,0.216553,0.097087,0.000377,-0.004697,1.000000,-0.000056,-0.000287,0.000224,0.009625,-0.723138,-0.000149,-0.690637
14446,NaN,9.705108,-0.000618,-0.588424,-0.137483,-0.136151,-0.091684,-0.043148,-0.070174,0.034854,-1.029785,0.035400,0.209961,0.097053,0.000009,-0.005850,1.000000,-0.000216,-0.000351,0.000174,0.009589,-0.723384,0.000124,-0.690379
14447,NaN,9.694952,-0.108277,-0.711270,-0.244775,-0.035181,-0.094222,-0.068022,-0.084760,0.024903,-1.031494,0.029053,0.218506,0.096953,-0.001073,-0.007071,1.000000,-0.000340,-0.000424,0.000125,0.009544,-0.724022,0.000529,-0.689710
14448,NaN,9.698462,-0.180670,-0.867466,-0.392707,0.033859,-0.081812,-0.083959,-0.092328,0.015185,-1.029541,0.031250,0.214355,0.096989,-0.001803,-0.008629,1.000000,-0.000420,-0.000462,0.000076,0.009292,-0.724346,0.000870,-0.689373
14449,NaN,9.776685,-0.275894,-0.905851,-0.409402,0.124822,0.000419,-0.086495,-0.097411,0.007663,-1.035645,0.026855,0.216553,0.097771,-0.002759,-0.009010,1.000000,-0.000432,-0.000487,0.000038,0.009104,-0.725015,0.001270,-0.688672
14450,NaN,9.831782,-0.305441,-0.810569,-0.302485,0.154644,0.051330,-0.077750,-0.084674,0.008771,-1.029541,0.031250,0.212158,0.098321,-0.003053,-0.008063,1.000000,-0.000389,-0.000423,0.000044,0.008853,-0.725312,0.001567,-0.688362
14451,NaN,9.835364,-0.329447,-0.730206,-0.205424,0.176873,0.051522,-0.074225,-0.068322,0.009818,-1.031738,0.031250,0.220703,0.098356,-0.003292,-0.007267,1.000000,-0.000371,-0.000342,0.000049,0.008709,-0.725866,0.001933,-0.687779
14452,NaN,9.811996,-0.264936,-0.602568,-0.072516,0.113341,0.020442,-0.073740,-0.050364,0.014309,-1.027344,0.033203,0.218506,0.098122,-0.002645,-0.006000,1.000000,-0.000369,-0.000252,0.000072,0.008491,-0.726044,0.002237,-0.687592
14453,NaN,9.778076,-0.249920,-0.567314,-0.025863,0.095615,-0.015481,-0.073298,-0.039629,0.018496,-1.033691,0.029053,0.216553,0.097782,-0.002492,-0.005653,1.000000,-0.000366,-0.000198,0.000092,0.008390,-0.726482,0.002629,-0.687129
14454,NaN,9.801117,-0.265700,-0.725243,-0.178283,0.108183,0.016605,-0.052856,-0.039097,0.020651,-1.027344,0.031250,0.216553,0.098013,-0.002649,-0.007233,1.000000,-0.000264,-0.000195,0.000103,0.008269,-0.726621,0.002886,-0.686983
14455,NaN,9.812645,-0.223430,-0.677366,-0.117340,0.062285,0.024950,-0.036451,-0.041860,0.019222,-1.031494,0.026855,0.222900,0.098128,-0.002226,-0.006753,1.000000,-0.000182,-0.000209,0.000096,0.008292,-0.727047,0.003152,-0.686530
14456,NaN,9.818280,-0.202915,-0.655496,-0.090847,0.040435,0.029039,-0.032914,-0.040460,0.014620,-1.029541,0.035400,0.214355,0.098184,-0.002023,-0.006535,1.000000,-0.000165,-0.000202,0.000073,0.008223,-0.727189,0.003318,-0.686380
14457,NaN,9.838784,-0.152855,-0.707399,-0.129551,-0.013656,0.051818,-0.027179,-0.037473,0.013667,-1.022949,0.029053,0.220703,0.098389,-0.001523,-0.007055,1.000000,-0.000136,-0.000187,0.000068,0.008258,-0.727586,0.003529,-0.685958
14458,NaN,9.793051,-0.181952,-0.722802,-0.144347,0.014707,0.007615,-0.021540,-0.030387,0.017912,-1.029541,0.035400,0.220703,0.097932,-0.001812,-0.007213,1.000000,-0.000108,-0.000152,0.000090,0.008242,-0.727693,0.003668,-0.685844
14459,NaN,9.826305,-0.199404,-0.765742,-0.175046,0.027936,0.043832,-0.021173,-0.029375,0.012292,-1.033691,0.031250,0.218506,0.098264,-0.001989,-0.007643,1.000000,-0.000106,-0.000147,0.000061,0.008293,-0.728048,0.003847,-0.685466
14460,NaN,9.857663,-0.206978,-0.725070,-0.129174,0.034158,0.072869,-0.023523,-0.037677,0.013364,-1.025146,0.031250,0.222656,0.098578,-0.002064,-0.007232,1.000000,-0.000118,-0.000188,0.000067,0.008253,-0.728180,0.003976,-0.685325
14461,NaN,9.874240,-0.244074,-0.611406,-0.003574,0.068597,0.083236,-0.027953,-0.049174,0.015087,-1.029297,0.024658,0.220703,0.098744,-0.002434,-0.006089,1.000000,-0.000140,-0.000246,0.000075,0.008280,-0.728590,0.004186,-0.684887
14462,NaN,9.859741,-0.223770,-0.562658,0.049640,0.047764,0.065390,-0.037225,-0.056024,0.011149,-1.025391,0.035400,0.224854,0.098599,-0.002233,-0.005599,1.000000,-0.000186,-0.000280,0.000056,0.008184,-0.728786,0.004353,-0.684679
14463,NaN,9.833744,-0.196368,-0.586145,0.036803,0.017936,0.040381,-0.041817,-0.054596,0.014093,-1.027344,0.031250,0.224854,0.098339,-0.001958,-0.005834,1.000000,-0.000209,-0.000273,0.000070,0.008149,-0.729201,0.004604,-0.684236
14464,NaN,9.839193,-0.119877,-0.543247,0.085561,-0.059362,0.041670,-0.036686,-0.049398,0.010153,-1.025146,0.031250,0.220703,0.098393,-0.001195,-0.005408,1.000000,-0.000183,-0.000247,0.000051,0.008052,-0.729373,0.004766,-0.684052
14465,NaN,9.782322,-0.090338,-0.651777,-0.015495,-0.090822,-0.008693,-0.023421,-0.045352,0.007998,-1.029297,0.026855,0.222900,0.097825,-0.000900,-0.006495,1.000000,-0.000117,-0.000227,0.000040,0.008062,-0.729741,0.004928,-0.683659
14466,NaN,9.743368,-0.101341,-0.684136,-0.045849,-0.079746,-0.045237,-0.022209,-0.045046,0.004782,-1.025146,0.031250,0.222656,0.097435,-0.001012,-0.006819,1.000000,-0.000111,-0.000225,0.000024,0.007999,-0.729898,0.005021,-0.683491
14467,NaN,9.763186,-0.101053,-0.716280,-0.066781,-0.082212,-0.023313,-0.030552,-0.038185,0.003904,-1.027344,0.033203,0.224854,0.097633,-0.001010,-0.007144,1.000000,-0.000153,-0.000191,0.000020,0.007956,-0.730229,0.005187,-0.683136
14468,NaN,9.763153,-0.156475,-0.742092,-0.088951,-0.026786,-0.020563,-0.049986,-0.036257,-0.000664,-1.027344,0.029053,0.231201,0.097633,-0.001567,-0.007403,1.000000,-0.000250,-0.000181,-0.000003,0.007772,-0.730358,0.005356,-0.683000
14469,NaN,9.729086,-0.190715,-0.685358,-0.025927,0.007473,-0.057664,-0.077633,-0.029080,-0.001802,-1.031738,0.033203,0.229004,0.097292,-0.001911,-0.006839,1.000000,-0.000388,-0.000145,-0.000009,0.007541,-0.730652,0.005657,-0.682685
14470,NaN,9.736469,-0.177558,-0.746558,-0.083169,-0.005350,-0.046380,-0.076302,-0.033983,-0.000886,-1.025146,0.031250,0.231201,0.097366,-0.001779,-0.007448,1.000000,-0.000382,-0.000170,-0.000004,0.007261,-0.730773,0.005915,-0.682556
14471,NaN,9.748205,-0.239779,-0.700332,-0.027661,0.055963,-0.036617,-0.065846,-0.034034,-0.000503,-1.033691,0.026855,0.227051,0.097483,-0.002400,-0.006986,1.000000,-0.000329,-0.000170,-0.000003,0.007079,-0.731073,0.006176,-0.682235
14472,NaN,9.760269,-0.195947,-0.651468,0.025325,0.012270,-0.028779,-0.056578,-0.030794,0.003263,-1.023193,0.031250,0.222656,0.097604,-0.001960,-0.006499,1.000000,-0.000283,-0.000154,0.000016,0.006884,-0.731182,0.006382,-0.682118
14473,NaN,9.766202,-0.174279,-0.628696,0.056603,-0.010762,-0.024888,-0.050511,-0.035138,0.005683,-1.022949,0.026855,0.227051,0.097663,-0.001742,-0.006269,1.000000,-0.000253,-0.000176,0.000028,0.006766,-0.731471,0.006613,-0.681807
14474,NaN,9.786515,-0.122737,-0.679873,0.010411,-0.062752,-0.002024,-0.037893,-0.032485,0.000369,-1.025146,0.026855,0.229248,0.097866,-0.001228,-0.006783,1.000000,-0.000189,-0.000162,0.000002,0.006630,-0.731586,0.006744,-0.681684
