// Start Time: Unknown
// Update Rate: 100.0Hz
// Filter Profile: human (46.1)
// Firmware Version: 4.4.0
PacketCounter,SampleTimeFine,Acc_X,Acc_Y,Acc_Z,FreeAcc_X,FreeAcc_Y,FreeAcc_Z,Gyr_X,Gyr_Y,Gyr_Z,Mag_X,Mag_Y,Mag_Z,VelInc_X,VelInc_Y,VelInc_Z,OriInc_q0,OriInc_q1,OriInc_q2,OriInc_q3,Quat_q0,Quat_q1,Quat_q2,Quat_q3
57401,NaN,9.660730,-0.009563,-2.184836,-0.000000,0.000000,0.092023,0.227622,0.063309,0.079980,-0.674316,-0.279785,0.525146,0.096600,-0.000032,-0.021879,0.999999,0.001138,0.000317,0.000400,-0.206994,-0.737006,0.259364,-0.588817
57402,NaN,9.613773,0.011452,-2.018264,0.040689,-0.231981,0.007835,0.270751,0.059309,0.052589,-0.678711,-0.275391,0.525146,0.096132,0.000167,-0.020211,0.999999,0.001354,0.000297,0.000263,-0.204389,-0.734688,0.267738,-0.588876
57403,NaN,9.595980,0.525080,-1.856446,-0.174882,-0.730360,-0.053542,0.262870,0.043729,0.032952,-0.674805,-0.269043,0.527100,0.095955,0.005291,-0.018579,0.999999,0.001314,0.000219,0.000165,-0.203385,-0.734783,0.267040,-0.589422
57404,NaN,9.629691,0.577116,-2.057092,-0.361177,-0.656762,0.022650,0.219390,0.036272,0.025385,-0.674805,-0.269043,0.522949,0.096292,0.005806,-0.020582,0.999999,0.001097,0.000181,0.000127,-0.202553,-0.734863,0.266449,-0.589876
57405,NaN,9.642370,0.282573,-2.071944,-0.190721,-0.424418,0.042849,0.159966,0.032560,0.026939,-0.677002,-0.269043,0.529297,0.096420,0.002855,-0.020733,1.000000,0.000800,0.000163,0.000135,-0.201929,-0.734893,0.266043,-0.590236
57406,NaN,9.607433,0.013654,-2.112957,-0.063714,-0.187070,0.022377,0.139584,0.031047,0.016890,-0.677002,-0.269043,0.527100,0.096071,0.000159,-0.021144,1.000000,0.000698,0.000155,0.000084,-0.201420,-0.734920,0.265652,-0.590552
57407,NaN,9.516465,-0.181944,-2.144798,0.015617,-0.002460,-0.055838,0.129894,0.030485,-0.002515,-0.677002,-0.266846,0.524902,0.095161,-0.001807,-0.021464,1.000000,0.000649,0.000152,-0.000013,-0.200990,-0.734964,0.265228,-0.590834
57408,NaN,9.632997,-0.477635,-2.124260,0.231640,0.198984,0.058584,0.169418,0.037970,-0.029634,-0.678955,-0.269043,0.524902,0.096325,-0.004773,-0.021265,1.000000,0.000847,0.000190,-0.000148,-0.200520,-0.735062,0.264569,-0.591167
57409,NaN,9.769250,-0.586708,-2.057988,0.368571,0.226612,0.178838,0.241277,0.044443,-0.065729,-0.678955,-0.269043,0.522949,0.097686,-0.005874,-0.020609,0.999999,0.001206,0.000222,-0.000329,-0.199886,-0.735259,0.263569,-0.591583
57410,NaN,9.780318,-0.287603,-2.178662,0.088990,0.069728,0.210841,0.287660,0.032337,-0.104576,-0.674805,-0.264893,0.524902,0.097798,-0.002896,-0.021807,0.999999,0.001438,0.000162,-0.000523,-0.199181,-0.735581,0.262300,-0.591985
57411,NaN,9.545495,-0.125953,-2.020818,0.072095,-0.110216,-0.055706,0.276010,0.030063,-0.133613,-0.679199,-0.264893,0.527100,0.095451,-0.001295,-0.020224,0.999999,0.001380,0.000150,-0.000668,-0.198601,-0.735941,0.260962,-0.592324
57412,NaN,9.359365,0.011542,-1.951476,0.012649,-0.223885,-0.254663,0.265825,0.023027,-0.154233,-0.677246,-0.260498,0.529053,0.093591,0.000069,-0.019525,0.999999,0.001329,0.000115,-0.000771,-0.198109,-0.736326,0.259584,-0.592615
57413,NaN,9.172936,0.160491,-1.810876,0.003780,-0.388559,-0.469413,0.180417,0.016315,-0.163757,-0.677002,-0.266846,0.529297,0.091729,0.001546,-0.018115,0.999999,0.000902,0.000082,-0.000819,-0.197951,-0.736669,0.258430,-0.592747
57414,NaN,9.341433,0.393095,-1.913015,-0.182958,-0.523673,-0.285422,0.006521,0.001988,-0.166729,-0.674805,-0.269043,0.527100,0.093417,0.003854,-0.019131,1.000000,0.000033,0.000010,-0.000834,-0.198444,-0.736868,0.257778,-0.592618
57415,NaN,9.456003,0.461604,-1.870570,-0.164603,-0.607604,-0.182952,-0.020999,0.008495,-0.149155,-0.676758,-0.275391,0.527344,0.094563,0.004544,-0.018710,1.000000,-0.000105,0.000042,-0.000746,-0.198975,-0.737014,0.257282,-0.592474
57416,NaN,9.561029,0.458628,-2.024027,-0.255231,-0.515273,-0.045925,-0.057490,-0.000665,-0.133914,-0.670410,-0.266846,0.533447,0.095613,0.004516,-0.020241,1.000000,-0.000287,-0.000003,-0.000670,-0.199650,-0.737113,0.256904,-0.592287
57417,NaN,9.542362,0.358290,-2.198068,-0.322502,-0.319001,-0.024390,-0.054877,-0.004078,-0.117787,-0.678711,-0.275391,0.529297,0.095426,0.003521,-0.021980,1.000000,-0.000274,-0.000020,-0.000589,-0.200196,-0.737222,0.256637,-0.592084
57418,NaN,9.690963,0.308659,-2.313335,-0.348007,-0.219507,0.146843,-0.032737,0.007407,-0.111032,-0.674561,-0.273438,0.529297,0.096910,0.003029,-0.023137,1.000000,-0.000164,0.000037,-0.000555,-0.200766,-0.737303,0.256228,-0.591967
57419,NaN,9.677168,0.335758,-2.338827,-0.381346,-0.214906,0.139137,0.003102,0.017560,-0.091439,-0.674561,-0.273438,0.529297,0.096771,0.003314,-0.023397,1.000000,0.000016,0.000088,-0.000457,-0.201047,-0.737371,0.255864,-0.591944
57420,NaN,9.671710,0.493366,-2.371462,-0.500529,-0.307878,0.140398,0.005059,0.044207,-0.065109,-0.674805,-0.269043,0.529297,0.096713,0.004903,-0.023736,1.000000,0.000025,0.000221,-0.000326,-0.201417,-0.737344,0.255453,-0.592029
57421,NaN,9.722384,0.747161,-2.455427,-0.715432,-0.458616,0.206791,0.008334,0.072952,-0.002600,-0.677002,-0.269043,0.529297,0.097215,0.007471,-0.024589,1.000000,0.000042,0.000365,-0.000013,-0.201487,-0.737140,0.255345,-0.592306
57422,NaN,9.863052,1.187438,-2.504438,-1.006404,-0.789671,0.352231,0.039673,0.097105,0.076719,-0.676758,-0.271240,0.527100,0.098614,0.011917,-0.025090,1.000000,0.000198,0.000486,0.000384,-0.201431,-0.736847,0.255257,-0.592728
57423,NaN,9.873299,1.309328,-2.388485,-1.008047,-0.961361,0.334274,0.077545,0.129155,0.190439,-0.683350,-0.269043,0.529297,0.098705,0.013197,-0.023943,0.999999,0.000388,0.000646,0.000952,-0.200746,-0.736299,0.255599,-0.593494
57424,NaN,9.689902,1.403512,-2.268411,-1.025661,-1.088812,0.125729,0.116609,0.162621,0.331788,-0.681152,-0.269043,0.524902,0.096857,0.014209,-0.022755,0.999998,0.000583,0.000813,0.001659,-0.199862,-0.735622,0.256053,-0.594434
57425,NaN,9.603847,1.798535,-2.040535,-1.145044,-1.548247,-0.018610,0.118694,0.173244,0.493510,-0.685791,-0.258301,0.529053,0.095976,0.018234,-0.020478,0.999996,0.000593,0.000866,0.002468,-0.198180,-0.734592,0.257341,-0.595714
57426,NaN,9.718366,2.184351,-1.773089,-1.197760,-2.055034,0.021114,0.116167,0.161871,0.688777,-0.683838,-0.256104,0.526855,0.097093,0.022188,-0.017797,0.999994,0.000581,0.000809,0.003444,-0.196407,-0.733504,0.258966,-0.596936
57427,NaN,9.881469,2.534075,-1.735672,-1.420634,-2.430057,0.144892,0.109769,0.136205,0.909978,-0.688232,-0.249756,0.522461,0.098686,0.025800,-0.017410,0.999989,0.000549,0.000681,0.004550,-0.193463,-0.732019,0.261839,-0.598465
57428,NaN,10.019253,2.601942,-1.781355,-1.539574,-2.531351,0.264494,0.081013,0.105432,1.117637,-0.692871,-0.239014,0.522217,0.100036,0.026586,-0.017856,0.999984,0.000405,0.000527,0.005588,-0.190726,-0.730527,0.264960,-0.599792
57429,NaN,10.027661,2.293041,-1.814803,-1.460653,-2.357907,0.257600,0.060111,0.076851,1.333293,-0.695312,-0.230469,0.520020,0.100114,0.023604,-0.018179,0.999978,0.000301,0.000384,0.006666,-0.186606,-0.728571,0.269571,-0.601410
57430,NaN,9.988357,1.941127,-1.757816,-1.283618,-2.189973,0.196284,0.054466,0.032120,1.509681,-0.695801,-0.217529,0.526367,0.099730,0.020169,-0.017589,0.999971,0.000272,0.000161,0.007548,-0.182979,-0.726755,0.273982,-0.602727
57431,NaN,9.742031,1.748794,-1.811737,-1.335803,-2.080954,-0.059180,0.004855,-0.045851,1.638035,-0.704834,-0.206787,0.526123,0.097277,0.018285,-0.018095,0.999966,0.000024,-0.000229,0.008190,-0.177956,-0.724629,0.279952,-0.604046
57432,NaN,9.984828,0.873269,-2.493975,-1.374163,-1.137293,0.360565,0.005503,-0.082928,1.721973,-0.709717,-0.194092,0.523682,0.099778,0.009593,-0.024898,0.999963,0.000028,-0.000415,0.008610,-0.173977,-0.722787,0.285212,-0.604951
57433,NaN,10.498303,-0.369777,-2.900812,-0.968530,-0.176388,1.040593,0.130604,-0.056484,1.760105,-0.707764,-0.187500,0.525879,0.105018,-0.002755,-0.028980,0.999961,0.000653,-0.000282,0.008800,-0.168093,-0.720533,0.291215,-0.606441
57434,NaN,10.791193,-1.993979,-3.002601,-0.098494,0.958471,1.523523,0.324898,-0.011254,1.744748,-0.708496,-0.164062,0.525391,0.108082,-0.018949,-0.030051,0.999961,0.001624,-0.000056,0.008724,-0.163072,-0.718740,0.295390,-0.607918
57435,NaN,10.785909,-2.295783,-2.787050,0.126875,0.910973,1.524187,0.529176,0.067130,1.698905,-0.715332,-0.153320,0.522949,0.108039,-0.021967,-0.027966,0.999960,0.002646,0.000336,0.008494,-0.156099,-0.716430,0.299820,-0.610302
57436,NaN,10.617748,-1.666883,-3.003298,-0.565330,0.473886,1.322268,0.751122,0.192764,1.673806,-0.718262,-0.134033,0.522705,0.106282,-0.015666,-0.030195,0.999957,0.003756,0.000964,0.008369,-0.149651,-0.714316,0.302460,-0.613086
57437,NaN,9.744955,-0.099779,-2.767131,-1.549353,-0.791335,0.167351,0.979371,0.356175,1.713915,-0.723145,-0.116699,0.522461,0.097403,-0.000027,-0.027847,0.999950,0.004897,0.001781,0.008569,-0.141431,-0.711330,0.305297,-0.617091
57438,NaN,7.817545,0.759178,-2.509637,-2.087373,-1.201641,-1.926929,1.113005,0.477902,1.752841,-0.725830,-0.099609,0.520020,0.078044,0.008416,-0.025238,0.999943,0.005565,0.002389,0.008764,-0.133895,-0.708460,0.306815,-0.621307
57439,NaN,7.687560,-0.611925,-4.120086,-2.687308,0.710212,-1.522976,0.995973,0.522649,1.767526,-0.728516,-0.080322,0.511230,0.076816,-0.005234,-0.041429,0.999945,0.004980,0.002613,0.008837,-0.125670,-0.704752,0.309615,-0.625835
57440,NaN,9.057645,-0.808621,-3.945104,-2.522715,0.288419,-0.231038,0.725321,0.562029,1.813797,-0.737549,-0.069580,0.510986,0.090533,-0.007121,-0.039732,0.999948,0.003627,0.002810,0.009069,-0.119292,-0.701353,0.312429,-0.629493
57441,NaN,10.136644,0.020698,-3.096199,-2.476509,-1.261180,0.415256,0.592390,0.593469,1.870852,-0.742432,-0.052490,0.508545,0.101266,0.001247,-0.031260,0.999947,0.002962,0.002967,0.009354,-0.112247,-0.696879,0.316755,-0.633583
57442,NaN,9.517164,-0.747237,-1.616481,-0.955539,-1.400866,-0.280168,0.641335,0.631642,1.897437,-0.741211,-0.028809,0.499756,0.095185,-0.006517,-0.016487,0.999945,0.003207,0.003158,0.009487,-0.106372,-0.693306,0.319886,-0.636934
57443,NaN,8.735524,-3.131051,-0.530414,1.159724,-0.031832,-0.590703,0.606930,0.642506,1.935789,-0.750244,-0.015869,0.501465,0.087635,-0.030446,-0.005679,0.999943,0.003035,0.003212,0.009679,-0.099125,-0.688447,0.324304,-0.641126
57444,NaN,8.292971,-4.075841,0.649034,2.548274,0.097939,-0.907601,0.438172,0.709380,1.966928,-0.755127,0.001221,0.490479,0.083347,-0.039954,0.006107,0.999943,0.002191,0.003547,0.009834,-0.093640,-0.684075,0.328320,-0.644576
57445,NaN,7.329496,-3.328521,0.338024,1.765459,-0.089987,-1.952185,0.210914,0.747949,1.952250,-0.760010,0.018311,0.488037,0.073627,-0.032571,0.003071,0.999945,0.001055,0.003740,0.009761,-0.087850,-0.678520,0.333949,-0.648360
57446,NaN,6.657630,-2.412523,-0.539720,0.460694,-0.147335,-2.727497,0.058534,0.711606,1.923625,-0.762451,0.031250,0.481445,0.066784,-0.023482,-0.005642,0.999947,0.000293,0.003558,0.009618,-0.083809,-0.673777,0.338885,-0.651274
57447,NaN,6.296541,-2.899510,-1.096168,0.199778,0.569162,-2.820560,-0.161181,0.634712,1.906420,-0.760498,0.039795,0.470703,0.063203,-0.028402,-0.011139,0.999949,-0.000806,0.003174,0.009532,-0.079215,-0.668377,0.345548,-0.653906
57448,NaN,7.742988,-4.581090,-1.324960,0.740640,1.356849,-0.851431,-0.442643,0.611338,1.829361,-0.767578,0.052734,0.472656,0.077804,-0.045130,-0.013387,0.999951,-0.002213,0.003057,0.009147,-0.076536,-0.663726,0.351812,-0.655620
57449,NaN,9.283736,-4.478239,-1.550396,0.221382,0.726214,0.582858,-0.695281,0.644792,1.734692,-0.767578,0.057129,0.459717,0.093171,-0.044029,-0.015650,0.999951,-0.003476,0.003224,0.008673,-0.074288,-0.658262,0.359584,-0.657170
57450,NaN,9.284118,-4.779054,-2.086557,-0.135846,1.156231,0.771763,-0.737300,0.689909,1.655563,-0.768311,0.076416,0.465820,0.093161,-0.047098,-0.021012,0.999953,-0.003686,0.003449,0.008278,-0.073125,-0.653495,0.366202,-0.658402
57451,NaN,9.049323,-5.577092,-2.353787,0.032745,1.871435,0.912490,-0.725942,0.728931,1.555267,-0.768555,0.082764,0.457031,0.090838,-0.055151,-0.023668,0.999957,-0.003630,0.003645,0.007776,-0.071711,-0.647952,0.373390,-0.659996
57452,NaN,9.172529,-6.167894,-2.580677,0.091433,2.290003,1.304154,-0.683133,0.744707,1.400929,-0.770752,0.087158,0.446289,0.092058,-0.061123,-0.025940,0.999963,-0.003416,0.003723,0.007005,-0.071152,-0.643111,0.379536,-0.661286
57453,NaN,9.500164,-5.736841,-1.544019,0.513103,1.160061,1.320059,-0.555405,0.733788,1.237479,-0.775391,0.095703,0.446289,0.095297,-0.056823,-0.015631,0.999970,-0.002777,0.003669,0.006187,-0.070239,-0.638118,0.385078,-0.663013
57454,NaN,9.461916,-5.849104,-0.142947,1.601171,0.343962,1.190805,-0.420726,0.756870,1.095039,-0.775635,0.102051,0.446045,0.094932,-0.057975,-0.001666,0.999976,-0.002104,0.003784,0.005475,-0.069400,-0.633892,0.389270,-0.664705
57455,NaN,9.580157,-5.421536,0.745901,1.922254,-0.599112,1.035059,-0.412642,0.743932,0.969394,-0.782227,0.106445,0.439453,0.096090,-0.053735,0.007213,0.999979,-0.002063,0.003720,0.004847,-0.068935,-0.629375,0.393447,-0.666584
57456,NaN,9.273811,-4.984066,1.190145,1.988080,-1.100681,0.536034,-0.490312,0.652531,0.869625,-0.786621,0.110596,0.433105,0.092992,-0.049408,0.011720,0.999982,-0.002452,0.003263,0.004348,-0.069152,-0.625656,0.397471,-0.667675
57457,NaN,8.442728,-5.514722,1.085409,2.314803,-0.399804,0.053979,-0.579198,0.548452,0.782988,-0.784668,0.114990,0.424316,0.084672,-0.054785,0.010781,0.999984,-0.002896,0.002742,0.003915,-0.069443,-0.622057,0.401658,-0.668501
57458,NaN,8.106665,-5.918321,0.876337,2.414266,0.089145,-0.031305,-0.593092,0.460110,0.646417,-0.784668,0.114990,0.420166,0.081277,-0.058895,0.008751,0.999988,-0.002965,0.002301,0.003232,-0.070223,-0.619245,0.405032,-0.668994
57459,NaN,8.343880,-6.261841,0.531728,2.262943,0.386179,0.377671,-0.577955,0.355108,0.494827,-0.786865,0.119385,0.420166,0.083603,-0.062396,0.005349,0.999991,-0.002890,0.001776,0.002474,-0.071080,-0.616846,0.408368,-0.669092
57460,NaN,7.914014,-6.376598,-0.261671,1.791853,1.109881,0.133087,-0.447986,0.306355,0.333914,-0.789062,0.119385,0.417969,0.079242,-0.063640,-0.002595,0.999995,-0.002240,0.001532,0.001670,-0.071731,-0.614941,0.410368,-0.669552
57461,NaN,7.261017,-6.361793,-1.019304,1.344778,1.831208,-0.374891,-0.322789,0.257013,0.171746,-0.786621,0.114990,0.415771,0.072652,-0.063572,-0.010184,0.999998,-0.001614,0.001285,0.000859,-0.072680,-0.613609,0.411882,-0.669742
57462,NaN,7.740822,-6.462338,-1.195966,1.146313,1.812879,0.112628,-0.234806,0.210230,-0.023708,-0.788818,0.110840,0.422363,0.077388,-0.064647,-0.011965,0.999999,-0.001174,0.001051,-0.000119,-0.073526,-0.612737,0.412308,-0.670186
57463,NaN,8.559775,-6.663052,-0.696674,1.460860,1.302802,0.879361,-0.164811,0.158012,-0.228201,-0.782227,0.110840,0.413818,0.085516,-0.066734,-0.006979,0.999999,-0.000824,0.000790,-0.001141,-0.075128,-0.612615,0.412101,-0.670248
57464,NaN,10.158765,-7.135001,0.152235,2.021964,0.439381,2.428647,-0.183994,0.111175,-0.468118,-0.790771,0.108643,0.420166,0.101421,-0.071586,0.001532,0.999997,-0.000920,0.000556,-0.002341,-0.076842,-0.612869,0.411399,-0.670252
57465,NaN,11.137220,-7.217346,0.391410,2.074977,0.002191,3.301222,-0.198063,0.053777,-0.745666,-0.794922,0.102295,0.418213,0.111103,-0.072584,0.003956,0.999993,-0.000990,0.000269,-0.003728,-0.080065,-0.614140,0.409752,-0.669720
57466,NaN,11.472593,-7.022316,-0.025025,1.632198,0.089101,3.538727,-0.200620,-0.018942,-1.040393,-0.790283,0.091553,0.420410,0.114359,-0.070819,-0.000169,0.999986,-0.001003,-0.000095,-0.005202,-0.083764,-0.615858,0.407427,-0.669108
57467,NaN,11.407341,-7.441789,-0.645710,1.556078,0.898094,3.703741,-0.175949,-0.158875,-1.323482,-0.789795,0.080811,0.420654,0.113583,-0.075176,-0.006301,0.999977,-0.000880,-0.000794,-0.006617,-0.088416,-0.618997,0.403996,-0.667692
57468,NaN,11.216112,-8.076780,-0.382259,2.324785,1.338030,3.751316,-0.092800,-0.347879,-1.655547,-0.800049,0.065674,0.418701,0.111494,-0.081694,-0.003591,0.999964,-0.000464,-0.001739,-0.008278,-0.092929,-0.622917,0.399627,-0.666061
57469,NaN,11.563814,-8.803360,0.602615,3.652795,1.218025,4.214063,0.060054,-0.547471,-2.059309,-0.788818,0.048584,0.429688,0.114707,-0.089220,0.006314,0.999943,0.000300,-0.002737,-0.010296,-0.098509,-0.628847,0.393243,-0.663482
57470,NaN,13.116196,-9.150053,1.829558,4.744950,0.314278,5.565113,0.232631,-0.723028,-2.567199,-0.786133,0.031494,0.432129,0.129906,-0.093195,0.018659,0.999910,0.001163,-0.003615,-0.012836,-0.104259,-0.635733,0.385039,-0.660847
57471,NaN,15.266285,-9.216122,2.922566,5.627378,-0.770164,7.340964,0.405051,-0.909257,-3.151302,-0.785156,0.003418,0.438965,0.151051,-0.094610,0.029725,0.999863,0.002025,-0.004546,-0.015756,-0.111629,-0.644928,0.374103,-0.657004
57472,NaN,18.214931,-7.933426,4.159822,5.811191,-3.000124,9.401920,0.591927,-1.114785,-3.813316,-0.777344,-0.030762,0.452393,0.180356,-0.082909,0.042365,0.999798,0.002959,-0.005574,-0.019065,-0.119330,-0.654972,0.360810,-0.653137
57473,NaN,22.901343,-4.714608,4.712562,4.451607,-6.512471,12.694350,0.696414,-1.353425,-4.604348,-0.774170,-0.062988,0.461426,0.227520,-0.052563,0.048492,0.999706,0.003482,-0.006766,-0.023019,-0.129619,-0.667919,0.344158,-0.647023
57474,NaN,29.351205,1.505187,3.188460,-0.038706,-11.170210,17.553322,0.655807,-1.618865,-5.612187,-0.760010,-0.103760,0.474854,0.293507,0.006705,0.034292,0.999568,0.003279,-0.008093,-0.028057,-0.142388,-0.681755,0.324401,-0.640077
57475,NaN,36.355365,10.803904,-1.498232,-7.944146,-16.034443,23.651807,0.570681,-1.942688,-6.756840,-0.743164,-0.155273,0.495117,0.367047,0.095712,-0.011143,0.999378,0.002853,-0.009711,-0.033777,-0.158837,-0.698911,0.300725,-0.629174
57476,NaN,40.697415,17.594529,-7.707508,-14.547996,-16.977424,29.229348,0.916165,-2.051080,-7.857184,-0.719971,-0.206787,0.508789,0.414229,0.160102,-0.072093,0.999165,0.004580,-0.010253,-0.039275,-0.178168,-0.716228,0.271214,-0.617832
57477,NaN,46.949145,11.701978,-8.416867,-7.999930,-11.045456,37.353665,1.269912,-1.694643,-8.180139,-0.694580,-0.254150,0.524658,0.474452,0.098193,-0.079498,0.999108,0.006348,-0.008471,-0.040889,-0.196443,-0.733042,0.239269,-0.605648
57478,NaN,49.935898,4.654695,-9.687954,-1.708267,-2.224373,41.180108,2.711557,-0.389056,-7.340690,-0.678223,-0.290527,0.531738,0.500837,0.029480,-0.095429,0.999233,0.013554,-0.001945,-0.036694,-0.210591,-0.744386,0.203013,-0.600272
57479,NaN,24.084316,-28.661476,-10.139790,11.824790,29.021709,13.029475,4.888370,1.057239,-5.306202,-0.671875,-0.288330,0.536133,0.232608,-0.290246,-0.109708,0.999335,0.024436,0.005285,-0.026525,-0.209274,-0.751249,0.167344,-0.603179
57480,NaN,-13.196122,-67.330099,-4.399577,25.303080,60.593467,-30.139068,6.476972,0.873125,-2.861969,-0.670410,-0.269043,0.550781,-0.141814,-0.669437,-0.065115,0.999364,0.032378,0.004365,-0.014307,-0.195529,-0.756523,0.135596,-0.609143
57481,NaN,-18.240494,13.211355,-4.842786,-14.074899,-10.096386,-25.000447,1.051356,-0.463814,0.300658,-0.674561,-0.275635,0.546631,-0.182492,0.132093,-0.048157,0.999982,0.005257,-0.002319,0.001503,-0.190337,-0.758744,0.133975,-0.608383
57482,NaN,6.898243,34.775228,-3.851801,-17.440029,-28.931836,1.607758,-2.261589,0.227807,2.252489,-0.683594,-0.262695,0.539795,0.065017,0.348034,-0.042528,0.999872,-0.011307,0.001139,0.011262,-0.191662,-0.753575,0.150121,-0.610617
57483,NaN,15.069985,-16.013144,12.035855,20.785101,8.200575,1.544790,-1.696409,2.121432,4.079789,-0.709961,-0.245361,0.515869,0.155185,-0.155977,0.120063,0.999700,-0.008481,0.010606,0.020397,-0.187152,-0.742182,0.168585,-0.621063
57484,NaN,4.108660,-18.929808,2.755047,12.442586,14.835252,-7.020637,-3.202776,1.529043,4.926717,-0.731934,-0.230225,0.496338,0.045949,-0.187736,0.030227,0.999539,-0.016011,0.007644,0.024630,-0.184991,-0.728850,0.195480,-0.629558
57485,NaN,3.532264,6.755867,-5.540699,-7.849466,-2.981654,-5.535328,-4.183025,0.610239,4.535542,-0.742920,-0.219482,0.483154,0.033624,0.067154,-0.056919,0.999520,-0.020912,0.003051,0.022674,-0.186484,-0.718274,0.224506,-0.631587
57486,NaN,7.089763,6.168405,-6.186921,-8.005067,-2.238184,-2.230823,-4.385309,0.495550,4.714996,-0.758789,-0.200195,0.469971,0.069283,0.061951,-0.063399,0.999479,-0.021923,0.002477,0.023571,-0.187675,-0.705721,0.255424,-0.633636
57487,NaN,4.947045,-0.518156,-0.796703,-0.061087,0.198622,-4.779804,-4.241880,0.627951,4.726310,-0.767578,-0.189453,0.461182,0.049552,-0.004181,-0.008027,0.999491,-0.021206,0.003139,0.023628,-0.188395,-0.693352,0.284809,-0.634550
57488,NaN,2.870595,1.242956,-0.265109,-0.969463,-1.255172,-7.103716,-3.662263,0.493293,4.408212,-0.781006,-0.178711,0.446045,0.028416,0.013006,-0.002956,0.999586,-0.018309,0.002466,0.022038,-0.187644,-0.680743,0.311742,-0.635764
57489,NaN,1.151563,5.405040,-0.135074,-3.762936,-4.038237,-9.519941,-3.033750,0.508318,3.787914,-0.790039,-0.163574,0.435059,0.010485,0.054226,-0.002200,0.999702,-0.015167,0.002541,0.018938,-0.186687,-0.670168,0.333700,-0.636135
57490,NaN,-2.508416,4.835070,0.567143,-2.828183,-3.202703,-13.238028,-2.296198,0.572548,3.026709,-0.801270,-0.148682,0.428223,-0.025797,0.048025,0.005192,0.999815,-0.011480,0.002863,0.015133,-0.186188,-0.659953,0.351316,-0.637474
57491,NaN,-6.317640,2.465609,0.348181,-1.058482,-0.444661,-16.505462,-1.344594,0.430333,2.171538,-0.805908,-0.135742,0.430176,-0.063432,0.023992,0.003455,0.999916,-0.006723,0.002152,0.010857,-0.184468,-0.653452,0.362330,-0.638506
57492,NaN,-9.565840,1.534083,0.108076,-0.193902,1.203692,-19.424269,-0.206171,0.314344,1.321477,-0.810303,-0.133545,0.427979,-0.095755,0.014710,0.001216,0.999976,-0.001031,0.001572,0.006607,-0.181941,-0.648957,0.367538,-0.640834
57493,NaN,-10.920817,2.051951,-0.016750,-0.434173,1.318096,-20.837601,0.859522,0.231396,0.519742,-0.812988,-0.122803,0.419189,-0.109261,0.020236,0.000046,0.999987,0.004298,0.001157,0.002599,-0.177935,-0.648024,0.366248,-0.643635
57494,NaN,-9.516859,3.716988,-0.579367,-2.075891,0.227805,-19.830700,1.552670,0.141619,-0.192054,-0.817627,-0.109863,0.421143,-0.095137,0.037304,-0.005437,0.999969,0.007763,0.000708,-0.000960,-0.174077,-0.648668,0.361031,-0.646980
57495,NaN,-7.376376,4.976263,-1.177260,-3.563421,-0.832452,-18.008278,1.831939,0.083723,-0.752761,-0.813232,-0.112061,0.423340,-0.073580,0.050145,-0.011284,0.999951,0.009160,0.000419,-0.003764,-0.170739,-0.651308,0.352566,-0.649879
57496,NaN,-5.807697,4.589277,-1.405427,-3.605704,-0.910686,-16.365094,1.858741,-0.014107,-1.148130,-0.808838,-0.114258,0.429932,-0.057811,0.046353,-0.013629,0.999940,0.009294,-0.000071,-0.005741,-0.168339,-0.654784,0.342944,-0.652157
57497,NaN,-4.213154,3.282062,-1.318742,-2.816391,-0.529023,-14.508298,1.800187,-0.124142,-1.396682,-0.810791,-0.120605,0.429932,-0.041892,0.033231,-0.012916,0.999935,0.009001,-0.000621,-0.006983,-0.166803,-0.659045,0.332577,-0.653627
57498,NaN,-2.650292,2.182870,-0.722618,-1.782332,-0.553397,-12.783847,1.658235,-0.198342,-1.511957,-0.808350,-0.129395,0.438721,-0.026330,0.022087,-0.007070,0.999937,0.008291,-0.000992,-0.007560,-0.165972,-0.663651,0.322402,-0.654276
57499,NaN,-1.219658,1.275660,-0.310044,-0.983102,-0.499614,-11.225061,1.448973,-0.263902,-1.529759,-0.806396,-0.127197,0.440674,-0.012094,0.012871,-0.003023,0.999944,0.007245,-0.001319,-0.007649,-0.165760,-0.668134,0.312780,-0.654439
57500,NaN,-0.138232,0.194501,-0.045514,-0.151555,-0.091156,-9.979211,1.269789,-0.307333,-1.487273,-0.799561,-0.135742,0.443115,-0.001367,0.001958,-0.000445,0.999951,0.006349,-0.001537,-0.007436,-0.165949,-0.672650,0.303915,-0.653941
57501,NaN,0.481366,-0.786582,0.474835,0.844170,0.218790,-9.251108,1.083881,-0.335886,-1.421200,-0.799561,-0.140137,0.445312,0.004750,-0.007925,0.004714,0.999959,0.005419,-0.001679,-0.007106,-0.166460,-0.676767,0.295850,-0.653261
57502,NaN,1.182509,-1.487511,0.800795,1.518790,0.451917,-8.493126,0.906000,-0.339948,-1.328633,-0.786133,-0.150879,0.451904,0.011712,-0.014989,0.007960,0.999966,0.004530,-0.001700,-0.006643,-0.167248,-0.680718,0.288681,-0.652162
57503,NaN,2.036036,-2.427236,0.658346,1.972422,1.152670,-7.521169,0.923229,-0.310234,-1.219803,-0.786133,-0.155029,0.454102,0.020202,-0.024426,0.006502,0.999970,0.004616,-0.001551,-0.006099,-0.167656,-0.684229,0.281762,-0.651408
57504,NaN,2.134121,-3.063637,0.873947,2.530389,1.550300,-7.384196,1.047945,-0.208816,-1.103920,-0.779541,-0.155029,0.460693,0.021162,-0.030799,0.008601,0.999970,0.005240,-0.001044,-0.005520,-0.167330,-0.687393,0.274802,-0.651134
57505,NaN,1.771497,-2.599964,0.842604,2.225349,1.302101,-7.822664,0.981467,-0.107279,-0.962233,-0.779297,-0.161621,0.456543,0.017585,-0.026125,0.008307,0.999976,0.004907,-0.000536,-0.004811,-0.166963,-0.689857,0.268375,-0.651303
57506,NaN,1.522043,-1.909351,0.324002,1.393916,1.117989,-8.117324,0.812459,-0.046312,-0.789143,-0.777100,-0.165771,0.460693,0.015144,-0.019166,0.003166,0.999984,0.004062,-0.000232,-0.003946,-0.166537,-0.691720,0.263179,-0.651557
57507,NaN,1.361487,-1.083979,-0.338972,0.370014,0.872662,-8.314322,0.642205,-0.022564,-0.611526,-0.774902,-0.163818,0.460693,0.013582,-0.010870,-0.003423,0.999990,0.003211,-0.000113,-0.003058,-0.166302,-0.693113,0.258980,-0.651818
57508,NaN,1.482108,-0.417339,-0.961937,-0.522250,0.674935,-8.210235,0.356373,0.000551,-0.419441,-0.770752,-0.163818,0.467285,0.014812,-0.004187,-0.009627,0.999996,0.001782,0.000003,-0.002097,-0.166269,-0.693910,0.256535,-0.651946
57509,NaN,1.562219,-0.136156,-1.546659,-1.160822,0.768160,-8.105748,0.156970,0.031499,-0.228116,-0.774902,-0.165771,0.465088,0.015618,-0.001367,-0.015470,0.999999,0.000785,0.000157,-0.001141,-0.166533,-0.694217,0.255198,-0.652077
57510,NaN,1.541332,-0.315183,-1.659719,-1.151915,0.981273,-8.098072,-0.029087,0.070217,-0.035539,-0.777100,-0.163818,0.467285,0.015407,-0.003157,-0.016602,1.000000,-0.000145,0.000351,-0.000178,-0.166666,-0.694014,0.255283,-0.652225
57511,NaN,1.400848,-1.022723,-1.580110,-0.684331,1.532600,-8.173202,-0.188975,0.085722,0.156912,-0.770996,-0.159424,0.467041,0.014010,-0.010231,-0.015797,0.999999,-0.000945,0.000429,0.000785,-0.166944,-0.693363,0.256365,-0.652422
57512,NaN,0.850672,-1.337286,-1.116554,-0.132158,1.600193,-8.726140,-0.253178,0.099955,0.333632,-0.768555,-0.165771,0.467285,0.008523,-0.013373,-0.011153,0.999998,-0.001266,0.000500,0.001668,-0.166661,-0.692445,0.258458,-0.652644
57513,NaN,0.406547,-1.110336,-0.733779,0.046908,1.258992,-9.221678,-0.418802,0.105376,0.514437,-0.768555,-0.161621,0.462891,0.004090,-0.011108,-0.007317,0.999994,-0.002094,0.000527,0.002572,-0.166593,-0.691071,0.261509,-0.652902
57514,NaN,0.443853,-0.728616,-0.161597,0.295235,0.614669,-9.275084,-0.403651,0.103740,0.664663,-0.773193,-0.157227,0.462891,0.004462,-0.007275,-0.001604,0.999992,-0.002018,0.000519,0.003323,-0.165739,-0.689579,0.265264,-0.653182
57515,NaN,0.507205,0.045094,0.287823,0.208907,-0.279257,-9.343109,-0.374868,0.158000,0.763718,-0.771240,-0.148682,0.464844,0.005073,0.000476,0.002873,0.999991,-0.001874,0.000790,0.003819,-0.164770,-0.687720,0.268980,-0.653866
57516,NaN,-0.055853,0.950853,-0.270670,-0.777242,-0.593904,-9.966537,-0.428174,0.194039,0.816971,-0.771240,-0.148682,0.467041,-0.000600,0.009500,-0.002726,0.999989,-0.002141,0.000970,0.004085,-0.163618,-0.685674,0.273247,-0.654535
57517,NaN,-0.926444,2.270867,-0.530623,-1.762610,-1.342321,-10.990829,-0.679090,0.158739,0.849409,-0.777832,-0.144287,0.454102,-0.009365,0.022651,-0.005376,0.999985,-0.003395,0.000794,0.004247,-0.163405,-0.683416,0.278241,-0.654846
57518,NaN,-1.691800,3.963173,-0.824660,-3.006042,-2.347413,-11.981117,-1.013879,0.106570,0.853432,-0.769531,-0.137939,0.456055,-0.017091,0.039517,-0.008438,0.999978,-0.005069,0.000533,0.004267,-0.164079,-0.681115,0.284544,-0.654367
57519,NaN,3.997412,-15.844502,2.978313,11.839013,9.909446,-3.686151,-0.407699,0.875277,1.171691,-0.778564,-0.120850,0.447266,0.041032,-0.158146,0.029928,0.999971,-0.002038,0.004376,0.005858,-0.162899,-0.676218,0.289135,-0.657719
57520,NaN,19.559567,-111.663642,-5.211686,62.914060,85.373134,30.544319,-1.232073,0.262167,5.245322,-0.782227,-0.075684,0.446533,0.224728,-1.111291,-0.045541,0.999636,-0.006160,0.001311,0.026223,-0.149849,-0.666468,0.310935,-0.660822
57521,NaN,54.805257,-86.756703,-0.789259,45.669907,53.212997,65.062206,3.172835,1.759986,8.405336,-0.791504,0.001465,0.445312,0.583661,-0.843209,-0.026434,0.998953,0.015859,0.008797,0.042012,-0.114121,-0.649259,0.326806,-0.677228
57522,NaN,18.098732,118.153521,-22.948898,-90.412416,-79.430214,-27.958513,-3.438365,-1.404532,2.159244,-0.784668,-0.007080,0.443359,0.169948,1.179246,-0.248557,0.999769,-0.017191,-0.007022,0.010795,-0.112447,-0.647041,0.348915,-0.668544
57523,NaN,17.372599,33.637633,20.765745,-6.999863,-42.474119,-6.467619,-2.772789,0.879173,3.246250,-0.781006,0.010010,0.447510,0.169102,0.341975,0.202192,0.999763,-0.013863,0.004396,0.016230,-0.112098,-0.636716,0.368103,-0.668226
57524,NaN,34.483571,-18.070625,-23.874682,-13.005246,16.179229,30.864051,-1.555007,-0.731791,3.857379,-0.777344,0.031250,0.447021,0.349126,-0.175843,-0.236095,0.999777,-0.007774,-0.003659,0.019285,-0.102381,-0.630995,0.386305,-0.664930
57525,NaN,27.095317,-2.191975,-10.175638,-11.513474,-1.632062,16.781638,-0.718743,0.394049,2.167734,-0.780029,0.046387,0.446777,0.270971,-0.019350,-0.102218,0.999933,-0.003594,0.001970,0.010838,-0.098220,-0.625079,0.395302,-0.665857
57526,NaN,13.336739,4.426667,-0.037003,-5.478043,-7.872707,0.457307,-0.413682,-0.596654,1.519106,-0.771729,0.054932,0.453125,0.133027,0.045278,-0.000066,0.999965,-0.002068,-0.002983,0.007595,-0.092923,-0.624151,0.402259,-0.663316
57527,NaN,67.302594,-8.147848,7.861582,-2.813330,-25.590120,53.393383,-1.608660,-0.254149,0.925689,-0.773926,0.050537,0.455322,0.673290,-0.077722,0.080107,0.999956,-0.008043,-0.001271,0.004628,-0.094381,-0.622349,0.410580,-0.659695
57528,NaN,84.410632,22.184168,4.832164,-28.763949,-50.362239,55.583000,-1.162584,0.611143,2.031181,-0.776611,0.069824,0.446533,0.841933,0.230666,0.044423,0.999927,-0.005813,0.003056,0.010156,-0.092750,-0.615914,0.420456,-0.659745
57529,NaN,1.087264,-19.075344,-16.669616,-0.333409,22.590358,1.696477,-0.201529,0.076867,3.244049,-0.773193,0.091309,0.448486,0.013902,-0.190712,-0.166509,0.999868,-0.001008,0.000384,0.016220,-0.082842,-0.608659,0.431016,-0.660982
57530,NaN,-1.103448,-22.110915,-6.339260,9.615878,18.250169,0.422188,0.168713,0.026064,1.559933,-0.773438,0.097900,0.454834,-0.009318,-0.221133,-0.063578,0.999969,0.000844,0.000130,0.007800,-0.078001,-0.605843,0.434906,-0.661610
57531,NaN,-2.349298,-15.344250,3.462616,12.771549,8.069676,-4.840601,0.676802,-0.343154,0.237326,-0.771484,0.106445,0.452393,-0.023370,-0.153586,0.034066,0.999992,0.003384,-0.001716,0.001187,-0.074442,-0.606714,0.433513,-0.662135
57532,NaN,5.155660,-16.332069,7.678245,14.591911,2.806283,1.653338,0.851414,-0.408613,-0.732637,-0.771240,0.102051,0.456787,0.050801,-0.163833,0.076190,0.999982,0.004257,-0.002043,-0.003663,-0.073573,-0.610323,0.428679,-0.662062
57533,NaN,3.222835,-12.568460,10.212733,14.651798,-0.112539,-2.199861,1.322896,-0.302323,-1.659959,-0.766602,0.091309,0.457031,0.031026,-0.126617,0.101339,0.999943,0.006614,-0.001512,-0.008300,-0.074402,-0.615327,0.419319,-0.663332
57534,NaN,8.853319,-9.652475,6.623984,8.949814,-1.666779,1.699881,1.366524,-0.308613,-2.191651,-0.768555,0.080566,0.455078,0.087363,-0.097937,0.065709,0.999915,0.006832,-0.001543,-0.010958,-0.076759,-0.621365,0.408275,-0.664323
57535,NaN,14.060488,-5.074228,1.463655,1.293019,-3.168452,4.811422,0.812470,-0.300237,-2.436899,-0.770264,0.067871,0.459473,0.139950,-0.052510,0.014636,0.999916,0.004062,-0.001501,-0.012184,-0.081732,-0.627591,0.398084,-0.664063
57536,NaN,16.022450,-4.127511,-3.736470,-3.407990,-1.010264,6.772476,0.350182,-0.392060,-2.538361,-0.769531,0.046387,0.461914,0.159757,-0.043240,-0.037126,0.999916,0.001751,-0.001960,-0.012691,-0.088230,-0.633856,0.389192,-0.662549
57537,NaN,19.064870,-3.344029,-5.132910,-5.190516,-1.510604,9.468245,-0.015142,-0.255045,-2.576949,-0.770996,0.027100,0.464355,0.190262,-0.035897,-0.051084,0.999916,-0.000076,-0.001275,-0.012884,-0.096332,-0.639650,0.381153,-0.660523
57538,NaN,17.928069,-1.548298,-4.636247,-5.396957,-2.325707,7.815519,0.063279,-0.137667,-2.595367,-0.768066,0.005615,0.460449,0.179092,-0.017793,-0.046245,0.999916,0.000316,-0.000688,-0.012976,-0.104462,-0.644987,0.372710,-0.658914
57539,NaN,14.810206,-2.795974,-3.489257,-3.005341,-0.802150,5.341430,0.565212,-0.197207,-2.631795,-0.773926,-0.009521,0.462646,0.147752,-0.029807,-0.034829,0.999909,0.002826,-0.000986,-0.013159,-0.110954,-0.650771,0.362427,-0.657900
57540,NaN,12.064148,-1.881285,-2.240142,-2.019936,-1.079712,2.387599,0.981507,-0.245981,-2.757599,-0.767090,-0.022217,0.462891,0.120395,-0.020364,-0.022351,0.999892,0.004907,-0.001230,-0.013788,-0.116515,-0.657064,0.350318,-0.657243
57541,NaN,9.721674,0.030619,-0.968631,-1.745828,-2.330410,-0.487153,1.220832,-0.368381,-2.810363,-0.768311,-0.045898,0.465576,0.097226,-0.001002,-0.009511,0.999881,0.006104,-0.001842,-0.014051,-0.121102,-0.663824,0.337243,-0.656459
57542,NaN,9.092173,0.517908,-0.598742,-1.505003,-2.573136,-1.186965,1.330103,-0.480777,-2.766745,-0.761475,-0.060791,0.474365,0.090996,0.003959,-0.005740,0.999879,0.006650,-0.002404,-0.013833,-0.125129,-0.670822,0.323909,-0.655304
57543,NaN,8.038058,1.099191,-0.038701,-1.157145,-2.924866,-2.334571,1.318646,-0.488812,-2.642854,-0.761230,-0.069580,0.476562,0.080517,0.009930,-0.000123,0.999888,0.006593,-0.002444,-0.013214,-0.128581,-0.677447,0.310990,-0.654078
57544,NaN,7.174272,1.893901,0.569936,-0.932870,-3.559419,-3.344383,1.029376,-0.463041,-2.469186,-0.749756,-0.086670,0.487549,0.071955,0.018021,0.005960,0.999908,0.005147,-0.002315,-0.012346,-0.132661,-0.683479,0.299406,-0.652391
57545,NaN,6.828774,1.537446,0.434786,-0.690819,-3.023605,-3.522747,0.573310,-0.435537,-2.203705,-0.753906,-0.095215,0.491943,0.068442,0.014608,0.004539,0.999933,0.002866,-0.002178,-0.011018,-0.137250,-0.688527,0.290269,-0.650259
57546,NaN,6.754934,0.046318,-0.315181,-0.331211,-1.306657,-3.186057,0.092290,-0.332898,-1.850253,-0.746582,-0.114502,0.488037,0.067555,-0.000160,-0.003039,0.999956,0.000461,-0.001664,-0.009251,-0.142692,-0.692454,0.283625,-0.647846
57547,NaN,6.597181,-0.863088,-1.108228,-0.374272,-0.018602,-3.078104,-0.232855,-0.149112,-1.474371,-0.750732,-0.125244,0.488281,0.065914,-0.009130,-0.011023,0.999972,-0.001164,-0.000746,-0.007372,-0.148079,-0.694836,0.279368,-0.645932
57548,NaN,6.135210,-0.195343,-1.145102,-0.740153,-0.369167,-3.623530,-0.451830,0.070052,-1.097399,-0.745850,-0.135986,0.488281,0.061336,-0.002316,-0.011468,0.999982,-0.002259,0.000350,-0.005487,-0.153570,-0.695855,0.276752,-0.644679
57549,NaN,5.546868,-0.077903,-1.103348,-0.755308,-0.324724,-4.216700,-0.684616,0.205229,-0.685312,-0.750000,-0.144531,0.484131,0.055454,-0.001007,-0.011087,0.999988,-0.003423,0.001026,-0.003427,-0.158464,-0.695601,0.276408,-0.643915
57550,NaN,5.250345,-1.486457,-1.359054,-0.118986,1.033262,-4.286309,-0.947736,0.218518,-0.225163,-0.751953,-0.148682,0.479980,0.052472,-0.014988,-0.013577,0.999988,-0.004739,0.001093,-0.001126,-0.163052,-0.694510,0.278291,-0.643136
57551,NaN,5.030407,-3.246296,-1.706157,0.668773,2.673914,-4.230818,-1.140592,0.232712,0.228676,-0.753906,-0.155273,0.473633,0.050321,-0.032502,-0.016935,0.999982,-0.005703,0.001164,0.001143,-0.166619,-0.692496,0.282553,-0.642535
57552,NaN,5.193576,-4.540880,-1.414499,1.709897,3.466771,-3.926160,-1.043439,0.231835,0.606715,-0.751709,-0.150879,0.471436,0.052057,-0.045324,-0.013969,0.999981,-0.005217,0.001159,0.003034,-0.168812,-0.690033,0.287636,-0.642357
57553,NaN,5.570767,-5.719967,-1.235408,2.591708,4.156365,-3.387355,-0.931598,0.221877,0.917492,-0.756348,-0.144531,0.471191,0.055956,-0.057000,-0.012150,0.999978,-0.004658,0.001109,0.004587,-0.169417,-0.687194,0.293595,-0.642546
57554,NaN,5.428149,-7.170829,-0.912956,3.748160,5.027033,-3.301297,-0.824413,0.262521,1.251437,-0.756348,-0.142334,0.464844,0.054717,-0.071404,-0.008906,0.999971,-0.004122,0.001313,0.006257,-0.168649,-0.683803,0.300261,-0.643285
57555,NaN,5.215454,-7.531950,-0.470100,4.305494,4.973888,-3.419441,-0.558153,0.230922,1.589537,-0.761230,-0.129395,0.466797,0.052746,-0.074915,-0.004552,0.999964,-0.002791,0.001155,0.007948,-0.165806,-0.680172,0.307280,-0.644556
57556,NaN,5.619724,-5.359050,0.024861,3.260581,2.837198,-3.361443,-0.393857,0.294723,1.833871,-0.768066,-0.118652,0.464355,0.056686,-0.053072,0.000270,0.999955,-0.001969,0.001474,0.009169,-0.161586,-0.676012,0.314592,-0.646474
57557,NaN,5.881575,-2.106803,0.006033,1.095959,0.263456,-3.667789,-0.208635,0.480434,1.939107,-0.768311,-0.105957,0.455566,0.059016,-0.020496,-0.000060,0.999950,-0.001043,0.002402,0.009695,-0.156792,-0.671201,0.321412,-0.649307
57558,NaN,5.947066,-0.406959,-0.740260,-0.662247,-0.622940,-3.875242,-0.078479,0.608400,2.033326,-0.775635,-0.084473,0.453125,0.059485,-0.003468,-0.007582,0.999944,-0.000392,0.003042,0.010166,-0.151285,-0.665787,0.328089,-0.652839
57559,NaN,5.709336,0.320914,-0.199473,-0.798541,-1.509927,-4.351890,-0.149232,0.709027,2.185919,-0.780273,-0.073730,0.446533,0.057046,0.003831,-0.002200,0.999934,-0.000746,0.003545,0.010929,-0.145820,-0.659724,0.335290,-0.656568
57560,NaN,5.089483,0.026756,1.204631,0.408076,-2.095235,-5.038106,-0.330889,0.791152,2.448244,-0.789551,-0.056396,0.441895,0.050933,0.000911,0.011844,0.999916,-0.001654,0.003956,0.012241,-0.140041,-0.652651,0.343920,-0.660419
57561,NaN,4.881271,-0.948005,1.877931,1.446286,-1.843174,-5.041819,-0.464393,0.834977,2.721601,-0.788086,-0.032959,0.439453,0.049013,-0.008771,0.018596,0.999896,-0.002322,0.004175,0.013608,-0.134011,-0.644816,0.353710,-0.664186
57562,NaN,3.858542,-0.601962,2.652300,1.834747,-2.390373,-6.179010,-0.674666,0.892855,2.885915,-0.792969,-0.013672,0.424072,0.038784,-0.005372,0.026369,0.999880,-0.003373,0.004464,0.014429,-0.128039,-0.636158,0.364648,-0.667788
57563,NaN,2.574446,-5.535776,3.196057,5.479799,0.990439,-5.753836,-0.509138,1.165550,2.889822,-0.796143,0.012207,0.415283,0.026726,-0.054895,0.031947,0.999875,-0.002546,0.005828,0.014449,-0.122138,-0.626587,0.374745,-0.672337
57564,NaN,-2.534253,-6.335103,-0.801839,3.900708,5.655141,-9.813010,-0.081035,1.169977,2.743692,-0.805176,0.029297,0.408447,-0.024517,-0.063694,-0.007848,0.999889,-0.000405,0.005850,0.013718,-0.115166,-0.617214,0.382903,-0.677620
57565,NaN,-7.914572,12.166331,-0.158555,-6.000631,-5.604655,-21.781791,-0.236569,1.198254,1.784896,-0.805664,0.040039,0.404053,-0.080235,0.120949,-0.001250,0.999942,-0.001183,0.005991,0.008924,-0.112154,-0.609559,0.388498,-0.681856
57566,NaN,-5.069008,-10.429281,0.237529,7.910109,8.469556,-10.275665,-0.084543,0.862848,1.724295,-0.810547,0.059326,0.395020,-0.049777,-0.104724,0.002636,0.999953,-0.000423,0.004314,0.008621,-0.108053,-0.603107,0.393566,-0.685341
57567,NaN,3.659502,-15.005432,-8.825413,1.838815,14.630402,0.137299,-0.322518,0.270913,2.500039,-0.804688,0.076660,0.394775,0.038349,-0.149724,-0.088064,0.999920,-0.001613,0.001355,0.012500,-0.101001,-0.597031,0.402030,-0.686822
57568,NaN,6.017996,11.440534,-11.844915,-17.446734,-1.548760,-9.030868,-0.559456,0.143127,1.992604,-0.800781,0.089355,0.396973,0.058953,0.114665,-0.118812,0.999946,-0.002797,0.000716,0.009963,-0.095670,-0.592098,0.410049,-0.687115
57569,NaN,20.903498,-0.096788,-19.430339,-20.119368,5.691934,9.611823,-0.920851,-0.558609,1.738057,-0.792480,0.097900,0.403076,0.209580,-0.000041,-0.193717,0.999948,-0.004604,-0.002793,0.008690,-0.091290,-0.589977,0.418603,-0.684372
57570,NaN,32.291160,-5.667103,-13.655500,-15.726469,0.749437,22.021467,-1.421014,-0.538780,1.257519,-0.801514,0.106445,0.409424,0.323629,-0.055602,-0.135286,0.999951,-0.007105,-0.002694,0.006287,-0.089781,-0.588803,0.427633,-0.679985
57571,NaN,29.404975,-5.593632,-3.943305,-8.024334,-5.189492,18.825697,0.120602,-0.073981,1.307815,-0.793213,0.114990,0.409424,0.294422,-0.053988,-0.039357,0.999978,0.000603,-0.000370,0.006539,-0.084834,-0.586296,0.431097,-0.680600
57572,NaN,31.654686,-5.137199,7.771348,-0.767246,-14.626643,19.755240,0.745376,0.395282,1.333883,-0.791504,0.132324,0.402588,0.317034,-0.049546,0.076900,0.999969,0.003727,0.001976,0.006669,-0.078820,-0.582798,0.432455,-0.683459
57573,NaN,28.512306,-1.757695,9.880747,-0.730978,-17.022670,15.154246,0.625465,0.794293,1.504406,-0.794189,0.145020,0.393799,0.285635,-0.015736,0.097623,0.999959,0.003127,0.003971,0.007522,-0.073584,-0.577050,0.434370,-0.687693
57574,NaN,19.841855,-3.091876,4.325277,-1.561884,-9.059022,8.557082,-0.036584,0.944699,1.696439,-0.796875,0.160156,0.391602,0.198873,-0.029225,0.042320,0.999953,-0.000183,0.004723,0.008482,-0.070012,-0.570396,0.438995,-0.690674
57575,NaN,10.310554,-5.735607,-2.304636,-1.826491,0.838040,2.039522,-0.408212,0.720418,1.630763,-0.797119,0.168701,0.385010,0.103485,-0.056561,-0.023303,0.999958,-0.002041,0.003602,0.008154,-0.067134,-0.564159,0.444786,-0.692375
57576,NaN,4.043189,-8.277634,-3.364811,1.044017,5.564665,-1.804434,-0.315412,0.310625,1.315241,-0.795166,0.177246,0.378418,0.040923,-0.082561,-0.033581,0.999976,-0.001577,0.001553,0.006576,-0.064309,-0.560417,0.449378,-0.692717
57577,NaN,0.270438,-10.047037,0.340282,6.086703,5.536095,-4.030395,-0.057069,-0.029979,0.896769,-0.793213,0.179443,0.386963,0.003154,-0.100456,0.003432,0.999990,-0.000285,-0.000150,0.004484,-0.061304,-0.558479,0.452094,-0.692787
57578,NaN,-0.775313,-11.598857,5.022059,10.731864,3.607044,-4.140660,0.105575,-0.258135,0.390356,-0.791260,0.185791,0.382568,-0.007591,-0.116030,0.050149,0.999997,0.000528,-0.001291,0.001952,-0.059217,-0.558839,0.452887,-0.692160
57579,NaN,0.529522,-10.650974,8.024230,11.852019,0.433815,-3.692781,0.104391,-0.282254,-0.105874,-0.789062,0.183594,0.384766,0.005126,-0.106554,0.080194,0.999999,0.000522,-0.001411,-0.000529,-0.058661,-0.560084,0.452314,-0.691576
57580,NaN,3.297543,-9.028146,6.756506,8.998574,-0.796678,-2.301215,-0.164687,-0.193284,-0.503327,-0.791016,0.177246,0.386963,0.032683,-0.090308,0.067671,0.999996,-0.000823,-0.000966,-0.002517,-0.060463,-0.561947,0.451571,-0.690394
57581,NaN,8.104150,-8.131027,0.740243,2.462138,0.827660,1.394037,-0.390998,-0.147066,-0.885174,-0.799072,0.164307,0.393555,0.080675,-0.081653,0.007621,0.999988,-0.001955,-0.000735,-0.004426,-0.064292,-0.564327,0.450474,-0.688821
57582,NaN,11.239581,-8.843007,-4.805008,-2.072569,3.838802,4.629602,-0.466675,-0.202533,-1.251633,-0.796631,0.153809,0.393799,0.111887,-0.089243,-0.047729,0.999977,-0.002333,-0.001013,-0.006258,-0.069499,-0.567790,0.448582,-0.686701
57583,NaN,12.612605,-9.510109,-5.575348,-2.491635,4.316260,6.179812,-0.283722,-0.303784,-1.639094,-0.793945,0.140869,0.396240,0.125425,-0.096210,-0.055427,0.999964,-0.001419,-0.001519,-0.008195,-0.075256,-0.572390,0.444993,-0.684607
57584,NaN,14.430528,-9.791413,-2.180376,-0.231027,1.555390,7.691117,-0.027828,-0.372033,-1.998614,-0.791260,0.121582,0.400635,0.143357,-0.099353,-0.021523,0.999948,-0.000139,-0.001860,-0.009993,-0.081360,-0.578213,0.439532,-0.682541
57585,NaN,15.777363,-9.734511,1.881331,2.526273,-1.582095,8.580896,0.226787,-0.368972,-2.339542,-0.801270,0.104492,0.398682,0.156585,-0.099203,0.018991,0.999929,0.001134,-0.001845,-0.011697,-0.087879,-0.584665,0.432114,-0.680971
57586,NaN,14.971593,-9.703277,3.394392,4.186627,-2.015540,7.743308,0.488938,-0.401993,-2.682290,-0.800537,0.083008,0.403320,0.148328,-0.099111,0.034002,0.999905,0.002445,-0.002010,-0.013411,-0.094752,-0.592114,0.422776,-0.679474
57587,NaN,15.313827,-9.683840,2.868659,4.082792,-1.407757,8.015344,0.608209,-0.527545,-3.160537,-0.799805,0.059326,0.407959,0.151506,-0.099329,0.028788,0.999867,0.003041,-0.002638,-0.015802,-0.102568,-0.600797,0.411547,-0.677607
57588,NaN,17.106104,-8.916804,1.961746,2.962478,-1.455038,9.293245,0.685203,-0.713343,-3.767104,-0.796631,0.027100,0.412842,0.169270,-0.092436,0.019910,0.999810,0.003426,-0.003566,-0.018834,-0.111847,-0.611284,0.398171,-0.674745
57589,NaN,21.097221,-6.601179,1.828208,1.149306,-3.650170,12.034002,0.764819,-0.925630,-4.523189,-0.797607,-0.002930,0.421875,0.209320,-0.070830,0.018989,0.999726,0.003824,-0.004628,-0.022614,-0.122903,-0.623674,0.382177,-0.670721
57590,NaN,27.774065,-1.605614,1.929472,-2.237788,-8.417366,16.675720,0.948350,-1.200425,-5.436597,-0.781250,-0.045654,0.437500,0.277044,-0.023690,0.020859,0.999601,0.004741,-0.006001,-0.027179,-0.135964,-0.638513,0.362536,-0.665118
57591,NaN,36.121192,6.871732,0.991037,-8.047829,-15.099546,22.740055,1.153789,-1.586348,-6.388323,-0.777588,-0.090820,0.444580,0.363063,0.057069,0.013137,0.999442,0.005768,-0.007930,-0.031936,-0.150581,-0.655796,0.339184,-0.657428
57592,NaN,40.504311,18.953488,-4.085425,-17.813422,-20.480840,25.946736,1.135854,-1.895877,-7.468422,-0.758301,-0.150879,0.460693,0.412103,0.174445,-0.035950,0.999242,0.005678,-0.009477,-0.037333,-0.168381,-0.675261,0.311877,-0.646841
57593,NaN,39.638742,14.824607,-6.158258,-14.116305,-14.478083,27.856960,1.132484,-1.766198,-8.133513,-0.741455,-0.204590,0.472168,0.402503,0.132289,-0.057266,0.999118,0.005661,-0.008828,-0.040656,-0.187965,-0.694012,0.281972,-0.635223
57594,NaN,41.766265,2.344812,-5.888034,-3.394615,-3.451050,32.143685,1.146292,-1.202494,-7.530589,-0.718262,-0.251709,0.485840,0.418502,0.008026,-0.056290,0.999257,0.005730,-0.006011,-0.037644,-0.206830,-0.709258,0.252493,-0.624838
57595,NaN,33.757916,-7.648274,-7.371261,2.546750,8.004503,24.560581,2.805163,-0.075494,-6.471109,-0.706543,-0.281738,0.490723,0.334920,-0.086306,-0.074751,0.999378,0.014023,-0.000377,-0.032349,-0.216887,-0.720124,0.220706,-0.621024
57596,NaN,14.744268,-42.234385,-6.054675,20.870134,37.866420,3.131366,5.419853,1.280526,-4.306406,-0.708984,-0.269043,0.492676,0.137890,-0.423517,-0.072918,0.999381,0.027094,0.006401,-0.021528,-0.212623,-0.726490,0.186332,-0.626326
57597,NaN,-11.280423,-51.619126,3.333151,27.707959,42.352839,-25.329822,5.376734,0.783245,-0.855356,-0.713867,-0.258301,0.499023,-0.114917,-0.516358,0.019898,0.999622,0.026880,0.003916,-0.004276,-0.196438,-0.730277,0.165484,-0.633026
57598,NaN,-13.843715,18.711611,-4.311045,-14.854850,-14.090976,-21.692353,-0.028150,-0.403092,1.466810,-0.718506,-0.245361,0.498779,-0.139717,0.186088,-0.043417,0.999971,-0.000141,-0.002015,0.007334,-0.191328,-0.730024,0.171545,-0.633270
57599,NaN,6.362839,29.846488,-1.867888,-15.797859,-24.902246,-1.749972,-2.162966,0.571042,2.458076,-0.731689,-0.238770,0.481445,0.059896,0.298990,-0.022085,0.999862,-0.010814,0.002855,0.012290,-0.191918,-0.723940,0.186793,-0.635757
57600,NaN,12.036504,-10.205569,11.084151,15.941143,2.454206,0.755027,-1.659372,2.210371,3.856305,-0.753418,-0.228027,0.463867,0.123512,-0.098777,0.110317,0.999719,-0.008296,0.011051,0.019280,-0.187813,-0.711171,0.203764,-0.646098
57601,NaN,6.260645,-15.205438,3.859002,11.894507,10.271309,-3.628462,-2.480755,1.801821,4.676715,-0.773682,-0.202148,0.444092,0.066486,-0.150040,0.039872,0.999609,-0.012402,0.009008,0.023381,-0.183304,-0.697980,0.226630,-0.654112
57602,NaN,3.006408,6.087126,-3.281940,-6.097783,-3.395089,-6.959492,-3.348288,1.140970,4.361117,-0.786865,-0.189209,0.426758,0.028544,0.060942,-0.034005,0.999606,-0.016739,0.005704,0.021803,-0.182157,-0.685441,0.251595,-0.658551
57603,NaN,4.616442,14.733508,-5.694616,-13.456968,-8.812493,-6.349461,-4.243221,0.785335,4.146460,-0.793945,-0.169922,0.413574,0.042882,0.146992,-0.060240,0.999552,-0.021213,0.003926,0.020729,-0.183968,-0.673467,0.278943,-0.659385
57604,NaN,4.295556,8.712809,-0.953993,-6.431313,-6.651856,-6.707400,-4.001481,0.697603,3.867555,-0.809570,-0.156982,0.402588,0.041225,0.087720,-0.011437,0.999607,-0.020005,0.003488,0.019335,-0.185982,-0.661398,0.304233,-0.659853
57605,NaN,1.447930,6.882462,0.639942,-4.160881,-5.701604,-9.604276,-3.421299,0.500293,3.359828,-0.812012,-0.144287,0.391602,0.013333,0.069151,0.005184,0.999709,-0.017105,0.002501,0.016798,-0.186935,-0.651260,0.326073,-0.659236
57606,NaN,-1.351868,6.267438,-1.047723,-4.901525,-3.452563,-12.313797,-2.872862,0.384489,2.676324,-0.824951,-0.142090,0.383057,-0.014376,0.062327,-0.011347,0.999805,-0.014363,0.001922,0.013381,-0.188479,-0.642458,0.343609,-0.658525
57607,NaN,-3.095961,6.486939,-2.373732,-5.860893,-2.141643,-14.097411,-2.458377,0.312379,1.878341,-0.831543,-0.137695,0.376465,-0.031603,0.064277,-0.024481,0.999879,-0.012291,0.001562,0.009391,-0.190724,-0.635804,0.357397,-0.656997
57608,NaN,-4.762143,6.802591,-2.761077,-6.162052,-1.550195,-15.829339,-2.004109,0.284070,1.057294,-0.831787,-0.133301,0.374268,-0.048019,0.067492,-0.028221,0.999935,-0.010020,0.001420,0.005286,-0.194785,-0.630750,0.366773,-0.655508
57609,NaN,-5.390686,5.686938,-2.823795,-5.323904,-0.509498,-16.197850,-1.453802,0.250846,0.309394,-0.835938,-0.139893,0.367920,-0.054030,0.056579,-0.028582,0.999972,-0.007269,0.001254,0.001547,-0.198831,-0.627921,0.372255,-0.653917
57610,NaN,-4.780435,3.566587,-3.289597,-4.180356,1.130072,-15.070256,-0.963320,0.169884,-0.283809,-0.843994,-0.150391,0.374512,-0.047782,0.035575,-0.033027,0.999987,-0.004817,0.000849,-0.001419,-0.203595,-0.626864,0.374103,-0.652409
57611,NaN,-3.470909,2.383034,-4.192944,-4.090247,2.307793,-13.452850,-0.676697,0.144476,-0.773345,-0.841553,-0.161133,0.368164,-0.034647,0.023822,-0.041985,0.999987,-0.003383,0.000722,-0.003867,-0.208528,-0.627135,0.373730,-0.650802
57612,NaN,-2.491062,1.860788,-4.724039,-4.188021,2.843863,-12.334071,-0.451174,0.157046,-1.129479,-0.837158,-0.165527,0.364014,-0.024843,0.018642,-0.047263,0.999981,-0.002256,0.000785,-0.005647,-0.214308,-0.628359,0.371309,-0.649128
57613,NaN,-2.261340,1.133292,-4.842116,-3.763581,3.339135,-11.940992,-0.160362,0.180648,-1.327359,-0.838867,-0.176270,0.357666,-0.022581,0.011444,-0.048410,0.999977,-0.000802,0.000903,-0.006637,-0.219472,-0.630044,0.367452,-0.647963
57614,NaN,-2.648833,0.659299,-4.422423,-3.115723,3.367361,-12.254368,0.154044,0.192416,-1.396969,-0.836426,-0.187012,0.366455,-0.026484,0.006812,-0.044194,0.999975,0.000770,0.000962,-0.006985,-0.224111,-0.632327,0.362157,-0.647131
57615,NaN,-3.308047,0.433390,-3.668273,-2.420964,3.016484,-12.915376,0.405288,0.152457,-1.387423,-0.831787,-0.195557,0.360352,-0.033077,0.004638,-0.036648,0.999974,0.002026,0.000762,-0.006937,-0.227611,-0.634777,0.356273,-0.646777
57616,NaN,-3.736169,0.015597,-2.933138,-1.632735,2.756901,-13.319227,0.532286,0.051585,-1.325674,-0.833496,-0.206299,0.358154,-0.037367,0.000482,-0.029321,0.999974,0.002661,0.000258,-0.006628,-0.230490,-0.637799,0.350113,-0.646148
57617,NaN,-3.607236,-0.452030,-2.500257,-1.055510,2.679368,-13.155494,0.560076,-0.103447,-1.254171,-0.820557,-0.210449,0.366943,-0.036087,-0.004224,-0.025033,0.999976,0.002800,-0.000517,-0.006271,-0.232591,-0.640952,0.344410,-0.645340
57618,NaN,-2.992759,-0.967137,-2.435715,-0.722535,2.853768,-12.488204,0.578482,-0.281332,-1.202735,-0.817871,-0.221191,0.375732,-0.029950,-0.009421,-0.024427,0.999977,0.002892,-0.001407,-0.006014,-0.234324,-0.644821,0.338892,-0.643778
57619,NaN,-2.136512,-1.248492,-2.487350,-0.644068,2.943607,-11.610047,0.688918,-0.435143,-1.179216,-0.815674,-0.227783,0.371582,-0.021384,-0.012273,-0.024963,0.999974,0.003445,-0.002176,-0.005896,-0.235177,-0.649004,0.333368,-0.642146
57620,NaN,-1.271569,-1.285177,-2.341011,-0.599811,2.735316,-10.765075,0.868870,-0.529584,-1.188042,-0.811035,-0.234131,0.386719,-0.012729,-0.012674,-0.023499,0.999969,0.004344,-0.002648,-0.005940,-0.235447,-0.653924,0.327250,-0.640200
57621,NaN,-0.404035,-0.864860,-1.966859,-0.712315,2.060063,-9.981340,1.051082,-0.553199,-1.196303,-0.802246,-0.238525,0.388916,-0.004037,-0.008521,-0.019725,0.999964,0.005255,-0.002766,-0.005981,-0.234948,-0.658859,0.320608,-0.638682
57622,NaN,0.440732,-0.796764,-1.366765,-0.383487,1.472868,-9.195673,1.124360,-0.541176,-1.155498,-0.797852,-0.240723,0.397461,0.004399,-0.007916,-0.013700,0.999964,0.005622,-0.002706,-0.005777,-0.234196,-0.663975,0.313775,-0.637051
57623,NaN,0.732323,-1.323554,-0.657028,0.477304,1.302779,-8.921223,1.112166,-0.530443,-1.072876,-0.791260,-0.249268,0.401855,0.007270,-0.013238,-0.006625,0.999967,0.005561,-0.002652,-0.005364,-0.233103,-0.668621,0.307275,-0.635760
57624,NaN,0.438017,-1.905406,-0.148721,1.239296,1.400434,-9.223256,0.989217,-0.524746,-0.946508,-0.789062,-0.249268,0.412598,0.004294,-0.019067,-0.001570,0.999973,0.004946,-0.002624,-0.004732,-0.232108,-0.673109,0.301525,-0.634139
57625,NaN,0.585532,-2.540297,-0.015319,1.770386,1.759803,-9.061058,0.919659,-0.541090,-0.818853,-0.780518,-0.251465,0.414795,0.005752,-0.025426,-0.000254,0.999977,0.004598,-0.002705,-0.004094,-0.230810,-0.677105,0.296468,-0.632742
57626,NaN,1.077502,-3.453729,0.409369,2.707874,2.096467,-8.576196,1.150705,-0.507404,-0.696503,-0.776123,-0.251465,0.425537,0.010645,-0.034597,0.003922,0.999974,0.005753,-0.002537,-0.003482,-0.228449,-0.681266,0.291025,-0.631659
57627,NaN,0.862576,-4.310567,1.556875,4.103690,2.008039,-8.876711,1.258015,-0.420591,-0.563909,-0.769775,-0.247314,0.436279,0.008472,-0.043227,0.015315,0.999974,0.006290,-0.002103,-0.002820,-0.225348,-0.684827,0.285598,-0.631398
57628,NaN,0.167632,-4.329370,1.650258,4.135356,2.085135,-9.598974,1.123016,-0.365802,-0.424385,-0.761475,-0.242920,0.436279,0.001554,-0.043389,0.016262,0.999980,0.005615,-0.001829,-0.002122,-0.222368,-0.688025,0.281018,-0.631033
57629,NaN,-0.556995,-4.396561,1.195258,3.783824,2.555580,-10.281878,0.942868,-0.361843,-0.236483,-0.763672,-0.240967,0.444824,-0.005643,-0.044015,0.011735,0.999987,0.004714,-0.001809,-0.001182,-0.219381,-0.690532,0.277621,-0.630844
57630,NaN,-0.647168,-4.862248,0.919913,3.855065,3.127683,-10.325001,0.732961,-0.327469,-0.010059,-0.763672,-0.238770,0.451172,-0.006489,-0.048655,0.009010,0.999992,0.003665,-0.001637,-0.000050,-0.216439,-0.692527,0.275679,-0.630525
57631,NaN,-0.487167,-4.758187,0.375696,3.362032,3.410454,-10.102958,0.668436,-0.262339,0.248919,-0.757568,-0.232422,0.453369,-0.004817,-0.047600,0.003592,0.999993,0.003342,-0.001312,0.001245,-0.212998,-0.693722,0.274709,-0.630806
57632,NaN,-0.307302,-3.554121,0.928728,2.991186,2.143183,-10.032324,0.670427,-0.188767,0.497273,-0.757812,-0.225830,0.457520,-0.002993,-0.035580,0.009165,0.999991,0.003352,-0.000944,0.002486,-0.208814,-0.694471,0.274599,-0.631429
57633,NaN,-0.521680,-2.193391,1.551396,2.571178,0.748591,-10.377114,0.227024,-0.146878,0.739558,-0.758057,-0.215088,0.461670,-0.005147,-0.021971,0.015485,0.999992,0.001135,-0.000734,0.003698,-0.205509,-0.694144,0.276595,-0.632001
57634,NaN,-0.576918,-1.246399,1.528221,1.943107,0.051922,-10.478597,-0.183227,-0.170191,0.939364,-0.760498,-0.213135,0.459473,-0.005724,-0.012477,0.015289,0.999988,-0.000916,-0.000851,0.004697,-0.202887,-0.693294,0.280708,-0.631967
57635,NaN,-0.380871,-0.825031,2.196134,2.189469,-0.724148,-10.387635,-0.556979,-0.115280,1.104851,-0.752197,-0.200195,0.463623,-0.003776,-0.008210,0.021982,0.999981,-0.002785,-0.000576,0.005524,-0.201183,-0.691523,0.286403,-0.631897
57636,NaN,-0.629891,0.143586,2.493795,1.770883,-1.618914,-10.750490,-0.736886,-0.006522,1.203038,-0.752441,-0.193848,0.459229,-0.006309,0.001490,0.024932,0.999975,-0.003684,-0.000033,0.006015,-0.199862,-0.689153,0.292992,-0.631885
57637,NaN,1.820137,-30.753600,2.849292,22.345174,20.880732,-5.136057,0.310019,0.951747,1.911245,-0.764160,-0.165771,0.445801,0.021273,-0.307386,0.027920,0.999942,0.001550,0.004759,0.009556,-0.194160,-0.683611,0.297625,-0.637494
57638,NaN,44.776004,-137.492119,-23.135362,71.429141,108.394491,57.875162,0.269406,0.732389,8.060190,-0.779785,-0.084473,0.450928,0.501792,-1.355106,-0.234960,0.999180,0.001347,0.003661,0.040290,-0.168309,-0.668975,0.323590,-0.647637
57639,NaN,47.238552,113.242169,0.783960,-75.734848,-94.083717,11.781747,-0.326629,-1.712792,4.017343,-0.764648,-0.088623,0.466064,0.449436,1.141619,0.009895,0.999760,-0.001633,-0.008563,0.020085,-0.153604,-0.667581,0.339444,-0.644608
57640,NaN,24.347940,70.731216,1.476609,-47.132369,-57.754829,-3.447403,-2.079256,0.460600,1.468795,-0.773682,-0.075928,0.455078,0.238298,0.709174,0.006847,0.999916,-0.010396,0.002303,0.007344,-0.156292,-0.661996,0.350960,-0.643554
57641,NaN,13.462121,-6.762051,-15.773045,-8.080435,11.406330,6.929841,-3.671285,-1.192787,4.282391,-0.765625,-0.060791,0.465820,0.137001,-0.067574,-0.155677,0.999585,-0.018354,-0.005963,0.021409,-0.152527,-0.655172,0.377726,-0.636245
57642,NaN,74.264336,-27.255757,-1.703279,9.948569,-3.798666,68.591613,-2.198880,0.499862,2.550077,-0.769775,-0.069336,0.457275,0.745999,-0.263239,-0.015966,0.999855,-0.010994,0.002499,0.012750,-0.152568,-0.647180,0.392723,-0.635335
57643,NaN,108.415233,81.153186,16.715293,-60.466386,-97.416140,64.146389,-3.986382,0.948325,2.843235,-0.777344,-0.032959,0.447998,1.073165,0.829887,0.145626,0.999689,-0.019930,0.004741,0.014215,-0.158269,-0.635340,0.413735,-0.632548
57644,NaN,-22.176992,-16.758403,-24.124384,-0.732654,35.120102,-20.788360,2.335928,0.244602,7.437712,-0.772705,0.020752,0.449463,-0.215703,-0.172851,-0.242976,0.999240,0.011677,0.001223,0.037179,-0.128130,-0.620790,0.429211,-0.643413
57645,NaN,-2.971338,-39.009645,-10.255647,20.978241,31.248066,4.984350,-2.126767,0.074178,4.105886,-0.775635,0.041992,0.447021,-0.021720,-0.391658,-0.098388,0.999733,-0.010633,0.000371,0.020528,-0.121669,-0.610210,0.448631,-0.641538
57646,NaN,-13.704967,-16.180607,-1.622347,13.414656,15.769976,-14.671442,0.593376,0.097114,2.162532,-0.778320,0.057129,0.444580,-0.135298,-0.163226,-0.016640,0.999937,0.002967,0.000486,0.010812,-0.113254,-0.605587,0.453274,-0.644190
57647,NaN,-22.101436,-17.577509,10.869771,24.915127,11.069631,-22.938511,0.610406,-0.202131,0.682287,-0.778564,0.065674,0.448730,-0.220522,-0.176858,0.107936,0.999989,0.003052,-0.001011,0.003411,-0.108769,-0.605029,0.453481,-0.645341
57648,NaN,0.797809,-15.469907,15.925801,21.331053,-2.768781,-4.255561,2.437310,-0.341251,0.558766,-0.772949,0.084961,0.450684,0.008144,-0.156602,0.157371,0.999920,0.012186,-0.001706,0.002794,-0.098825,-0.606238,0.447551,-0.649929
57649,NaN,20.063455,-4.226624,14.577077,8.193373,-16.013928,7.774700,1.645899,-0.392183,0.097268,-0.773193,0.091309,0.452637,0.200370,-0.043369,0.145810,0.999964,0.008229,-0.001961,0.000486,-0.092659,-0.608085,0.442673,-0.652448
57650,NaN,16.235424,-5.110265,-3.264214,-2.873894,-1.518236,7.210656,0.010400,-0.359488,-0.183331,-0.770752,0.082764,0.452881,0.162366,-0.051250,-0.032353,0.999998,0.000052,-0.001797,-0.000917,-0.092407,-0.609658,0.442288,-0.651275
57651,NaN,7.826663,-7.072301,-10.460049,-4.627182,8.104042,1.745854,-0.284013,-0.409498,-0.309685,-0.768555,0.082764,0.459229,0.078371,-0.070993,-0.104339,0.999996,-0.001420,-0.002047,-0.001548,-0.093395,-0.611541,0.442454,-0.649253
57652,NaN,11.325627,-5.826091,-4.225136,-1.763755,1.598848,3.393269,-0.051192,-0.416552,-0.488868,-0.763916,0.076416,0.461426,0.113201,-0.058548,-0.042001,0.999995,-0.000256,-0.002083,-0.002444,-0.094243,-0.613978,0.441353,-0.647577
57653,NaN,11.067770,-5.596544,-0.335535,0.983335,-1.086797,2.507253,-0.073427,-0.224703,-0.520537,-0.766113,0.074219,0.461426,0.110535,-0.056254,-0.003210,0.999996,-0.000367,-0.001124,-0.002603,-0.095678,-0.615817,0.440094,-0.646477
57654,NaN,8.604388,-6.077048,-0.397331,1.880730,0.298530,0.555392,-0.285608,-0.213838,-0.695562,-0.770508,0.074219,0.465820,0.085836,-0.061075,-0.003794,0.999992,-0.001428,-0.001069,-0.003478,-0.098356,-0.617924,0.439013,-0.644797
57655,NaN,8.725898,-7.142579,-1.239274,2.058257,1.501445,1.241797,-0.336471,-0.196794,-0.954990,-0.763428,0.056885,0.472412,0.086929,-0.071862,-0.012186,0.999987,-0.001682,-0.000984,-0.004775,-0.102061,-0.620481,0.437236,-0.642971
57656,NaN,8.106922,-6.056136,-1.187629,1.598403,1.128215,0.186327,-0.389251,-0.162911,-1.192771,-0.764893,0.041992,0.472656,0.080716,-0.061066,-0.011692,0.999980,-0.001946,-0.000815,-0.005964,-0.106725,-0.623423,0.434906,-0.640944
57657,NaN,7.268529,-5.955806,-1.279516,1.746021,1.539817,-0.619265,-0.430617,-0.166530,-1.418763,-0.764404,0.027100,0.475098,0.072271,-0.060099,-0.012606,0.999972,-0.002153,-0.000833,-0.007094,-0.112269,-0.626794,0.431938,-0.638713
57658,NaN,6.981639,-6.104355,-1.452940,1.904201,1.940973,-0.828146,-0.433995,-0.178465,-1.637735,-0.770752,0.018311,0.473145,0.069326,-0.061644,-0.014334,0.999964,-0.002170,-0.000892,-0.008189,-0.118514,-0.630680,0.428309,-0.636199
57659,NaN,7.428727,-6.089606,-1.445923,1.956529,1.847116,-0.479023,-0.348236,-0.216978,-1.862903,-0.768066,0.005615,0.471191,0.073731,-0.061610,-0.014272,0.999955,-0.001741,-0.001085,-0.009314,-0.125088,-0.635124,0.423648,-0.633635
57660,NaN,8.423766,-5.330013,-1.346476,1.488319,1.050545,0.079711,-0.228775,-0.236910,-2.045672,-0.760742,-0.020264,0.473633,0.083702,-0.054173,-0.013304,0.999946,-0.001144,-0.001185,-0.010228,-0.131773,-0.640020,0.418030,-0.631080
57661,NaN,8.875038,-4.241787,-1.166459,0.950506,0.217029,0.044556,-0.208110,-0.239198,-2.160934,-0.762451,-0.032959,0.476074,0.088299,-0.043386,-0.011514,0.999940,-0.001041,-0.001196,-0.010804,-0.138769,-0.645115,0.411900,-0.628417
57662,NaN,8.895264,-3.908190,-1.413327,0.711427,0.306474,-0.025289,-0.199716,-0.237334,-2.204981,-0.759766,-0.050293,0.476318,0.088531,-0.040074,-0.013988,0.999938,-0.000999,-0.001187,-0.011025,-0.145876,-0.650224,0.405583,-0.625644
57663,NaN,8.990717,-3.644583,-1.906842,0.341540,0.586736,0.050737,-0.185187,-0.219923,-2.218515,-0.754883,-0.065186,0.485107,0.089516,-0.037458,-0.018935,0.999937,-0.000926,-0.001100,-0.011092,-0.152982,-0.655235,0.399081,-0.622895
57664,NaN,8.962040,-3.023382,-2.236655,-0.160492,0.566467,-0.111594,-0.126030,-0.185397,-2.219125,-0.751953,-0.084473,0.487549,0.089298,-0.031240,-0.022264,0.999938,-0.000630,-0.000927,-0.011095,-0.159907,-0.660110,0.392357,-0.620274
57665,NaN,8.631757,-2.959572,-2.401046,-0.136954,0.881368,-0.419482,-0.019951,-0.133939,-2.230170,-0.749023,-0.105957,0.483643,0.085996,-0.030558,-0.023950,0.999938,-0.000100,-0.000670,-0.011151,-0.166637,-0.664843,0.385137,-0.617969
57666,NaN,8.499330,-2.942890,-2.375098,0.024845,1.028850,-0.567264,0.059139,-0.084072,-2.231917,-0.750977,-0.116699,0.483643,0.084668,-0.030368,-0.023724,0.999938,0.000296,-0.000420,-0.011159,-0.173164,-0.669441,0.377616,-0.615849
57667,NaN,8.559211,-2.328003,-2.137001,-0.114014,0.581433,-0.708173,0.116913,-0.039671,-2.242402,-0.746094,-0.131592,0.486084,0.085328,-0.024225,-0.021367,0.999937,0.000585,-0.000198,-0.011212,-0.179611,-0.673855,0.369757,-0.613954
57668,NaN,8.430582,-1.779776,-1.903995,-0.207707,0.228166,-0.993995,0.145451,-0.004144,-2.225356,-0.743164,-0.150879,0.484375,0.084101,-0.018720,-0.019052,0.999938,0.000727,-0.000021,-0.011127,-0.185892,-0.678073,0.361827,-0.612161
57669,NaN,8.753475,-1.476540,-2.057282,-0.401641,0.182381,-0.711134,0.101294,-0.018742,-2.184378,-0.740723,-0.163818,0.484619,0.087369,-0.015710,-0.020572,0.999940,0.000506,-0.000094,-0.010922,-0.192209,-0.682135,0.354103,-0.610212
57670,NaN,9.150367,-0.432145,-2.079308,-1.025698,-0.473754,-0.487462,0.027979,-0.044383,-2.133339,-0.735840,-0.178955,0.491211,0.091455,-0.005294,-0.020773,0.999943,0.000140,-0.000222,-0.010666,-0.198512,-0.686037,0.346793,-0.608014
57671,NaN,9.337451,0.729493,-1.882321,-1.573981,-1.316473,-0.482652,-0.102217,-0.077574,-2.074295,-0.728760,-0.193848,0.485107,0.093451,0.006316,-0.018790,0.999946,-0.000511,-0.000388,-0.010371,-0.205042,-0.689729,0.340042,-0.605477
57672,NaN,9.400447,1.097543,-1.722457,-1.580026,-1.572304,-0.454900,-0.261326,-0.116026,-1.973880,-0.726074,-0.210938,0.489502,0.094117,0.010024,-0.017184,0.999950,-0.001307,-0.000580,-0.009869,-0.211655,-0.693166,0.334152,-0.602549
57673,NaN,9.331860,1.164196,-1.646727,-1.440241,-1.540784,-0.501419,-0.429760,-0.138904,-1.816777,-0.714844,-0.228271,0.487793,0.093430,0.010758,-0.016426,0.999956,-0.002149,-0.000695,-0.009084,-0.218395,-0.696133,0.329278,-0.599399
57674,NaN,9.178474,1.211117,-1.872936,-1.510296,-1.278775,-0.576857,-0.550853,-0.147278,-1.660640,-0.716553,-0.239014,0.485840,0.091895,0.011297,-0.018694,0.999961,-0.002754,-0.000736,-0.008303,-0.225019,-0.698727,0.325306,-0.596090
57675,NaN,9.103841,1.755325,-2.268086,-2.060738,-1.262521,-0.578906,-0.606425,-0.180521,-1.510615,-0.713867,-0.253906,0.488037,0.091188,0.016796,-0.022650,0.999966,-0.003032,-0.000903,-0.007553,-0.231357,-0.701015,0.322023,-0.592751
57676,NaN,9.404574,1.973403,-2.532103,-2.256855,-1.187383,-0.208172,-0.696937,-0.210515,-1.373697,-0.706787,-0.268799,0.486328,0.094205,0.018999,-0.025289,0.999970,-0.003485,-0.001053,-0.006868,-0.237486,-0.703042,0.319516,-0.589272
57677,NaN,9.794041,0.969651,-2.521126,-1.365699,-0.490094,0.242790,-0.620716,-0.204571,-1.225329,-0.702148,-0.279541,0.486328,0.098023,0.009018,-0.025140,0.999976,-0.003104,-0.001023,-0.006127,-0.242964,-0.704847,0.317268,-0.586089
57678,NaN,9.951670,0.438686,-2.512731,-0.848225,-0.085363,0.425183,-0.465111,-0.157275,-1.099669,-0.697754,-0.286133,0.490967,0.099558,0.003781,-0.025058,0.999982,-0.002326,-0.000786,-0.005498,-0.247565,-0.706507,0.314938,-0.583415
57679,NaN,9.618355,0.675662,-2.425612,-0.912581,-0.188495,0.085978,-0.375586,-0.107485,-1.003384,-0.697266,-0.296875,0.488770,0.096229,0.006228,-0.024216,0.999986,-0.001878,-0.000537,-0.005017,-0.251664,-0.707924,0.312613,-0.581190
57680,NaN,9.614628,0.795023,-2.145870,-0.734862,-0.408593,0.034655,-0.350846,-0.059745,-0.920920,-0.694824,-0.303223,0.486816,0.096188,0.007470,-0.021443,0.999988,-0.001754,-0.000299,-0.004605,-0.255407,-0.709152,0.310429,-0.579228
57681,NaN,9.815530,0.577715,-1.811681,-0.256395,-0.473263,0.170812,-0.210761,-0.039558,-0.825823,-0.686035,-0.309570,0.480469,0.098182,0.005353,-0.018103,0.999991,-0.001054,-0.000198,-0.004129,-0.258499,-0.710271,0.308153,-0.577697
57682,NaN,9.833336,0.679741,-1.733426,-0.215235,-0.551603,0.177820,-0.141451,-0.055614,-0.733183,-0.687988,-0.320312,0.485107,0.098362,0.006425,-0.017312,0.999993,-0.000707,-0.000278,-0.003666,-0.260993,-0.711393,0.306034,-0.576321
57683,NaN,9.796459,0.923442,-1.793225,-0.382812,-0.626123,0.162285,-0.128976,-0.095499,-0.642151,-0.683594,-0.320312,0.487061,0.098002,0.008908,-0.017891,0.999995,-0.000645,-0.000477,-0.003211,-0.263172,-0.712477,0.304239,-0.574939
57684,NaN,9.668346,1.315760,-1.917201,-0.719799,-0.751892,0.076704,-0.162638,-0.126357,-0.558938,-0.681396,-0.324707,0.487305,0.096732,0.012872,-0.019121,0.999996,-0.000813,-0.000632,-0.002795,-0.265134,-0.713515,0.302864,-0.573475
57685,NaN,9.571197,1.613489,-1.962299,-0.936370,-0.880408,0.006154,-0.240100,-0.149493,-0.466760,-0.681152,-0.329102,0.489502,0.095764,0.015888,-0.019571,0.999996,-0.001200,-0.000747,-0.002334,-0.267119,-0.714329,0.302079,-0.571953
57686,NaN,9.558517,1.482015,-1.952959,-0.793029,-0.776695,-0.007415,-0.283540,-0.156482,-0.369415,-0.678955,-0.331055,0.487305,0.095628,0.014616,-0.019476,0.999997,-0.001418,-0.000782,-0.001847,-0.268869,-0.715008,0.301752,-0.570455
57687,NaN,9.632801,1.005433,-2.118258,-0.499992,-0.328698,0.083303,-0.308315,-0.167098,-0.285655,-0.678711,-0.335449,0.487305,0.096360,0.009884,-0.021117,0.999997,-0.001542,-0.000835,-0.001428,-0.270550,-0.715498,0.301829,-0.569003
57688,NaN,9.724245,0.683914,-2.427999,-0.415553,0.112022,0.224172,-0.309214,-0.154436,-0.224907,-0.671875,-0.343994,0.483398,0.097269,0.006692,-0.024215,0.999998,-0.001546,-0.000772,-0.001125,-0.271979,-0.715887,0.302101,-0.567687
57689,NaN,9.816839,0.342035,-2.550687,-0.196677,0.429439,0.324874,-0.286006,-0.109702,-0.195095,-0.674072,-0.343994,0.485352,0.098186,0.003288,-0.025458,0.999998,-0.001430,-0.000549,-0.000975,-0.273406,-0.716102,0.302357,-0.566593
57690,NaN,9.854192,-0.035264,-2.565530,0.105193,0.698440,0.345529,-0.184251,-0.053957,-0.186938,-0.674072,-0.348389,0.485596,0.098548,-0.000468,-0.025628,0.999999,-0.000921,-0.000270,-0.000935,-0.274535,-0.716306,0.302274,-0.565833
