// Start Time: Unknown
// Update Rate: 100.0Hz
// Filter Profile: human (46.1)
// Firmware Version: 4.4.0
PacketCounter,SampleTimeFine,Acc_X,Acc_Y,Acc_Z,FreeAcc_X,FreeAcc_Y,FreeAcc_Z,Gyr_X,Gyr_Y,Gyr_Z,Mag_X,Mag_Y,Mag_Z,VelInc_X,VelInc_Y,VelInc_Z,OriInc_q0,OriInc_q1,OriInc_q2,OriInc_q3,Quat_q0,Quat_q1,Quat_q2,Quat_q3
13057,NaN,14.250799,0.955344,1.434369,-0.000000,0.000000,4.541868,0.041224,-1.041967,0.376150,-0.810547,-0.011719,-0.483887,0.142412,0.009818,0.015088,0.999985,0.000206,-0.005210,0.001881,0.739652,-0.020613,-0.668596,-0.073955
13058,NaN,8.132484,-0.368903,2.042932,-1.910700,-0.931286,-1.693041,-0.160003,-0.394537,0.452878,-0.810547,-0.011719,-0.479736,0.081292,-0.003489,0.020593,0.999995,-0.000800,-0.001973,0.002264,0.713098,-0.029293,-0.691781,-0.109873
13059,NaN,4.497030,-0.451697,1.141941,-1.128320,-0.725899,-5.348248,-0.075752,-0.308761,0.611645,-0.808594,-0.005371,-0.479736,0.044966,-0.004375,0.011491,0.999994,-0.000379,-0.001544,0.003058,0.712351,-0.031848,-0.692746,-0.107908
13060,NaN,2.760348,0.075090,-0.513421,0.563269,-0.317312,-7.079426,0.179440,-0.767925,0.805667,-0.819336,0.003174,-0.471191,0.027620,0.000867,-0.005027,0.999984,0.000897,-0.003840,0.004028,0.711008,-0.034094,-0.694587,-0.104183
13061,NaN,3.157701,-0.120855,-1.362910,1.335870,-0.676819,-6.714266,0.473688,-1.515164,1.042889,-0.830078,0.005371,-0.454346,0.031685,-0.001012,-0.013392,0.999955,0.002368,-0.007576,0.005214,0.706338,-0.036819,-0.700011,-0.098568
13062,NaN,7.007674,-0.490366,-1.821974,1.633422,-1.365022,-2.874855,0.707235,-2.031877,1.304459,-0.834229,0.009521,-0.443848,0.070287,-0.004383,-0.017522,0.999921,0.003536,-0.010159,0.006522,0.699549,-0.040250,-0.707710,-0.090323
13063,NaN,10.227762,-0.116849,-1.844310,1.527016,-1.065759,0.412239,0.729333,-1.890970,1.500231,-0.845459,0.026855,-0.429199,0.102451,-0.000335,-0.017477,0.999921,0.003647,-0.009455,0.007501,0.693627,-0.043858,-0.714295,-0.082107
13064,NaN,11.575611,0.331893,-1.485377,1.018927,-0.375550,1.811677,0.642333,-1.604647,1.612076,-0.843262,0.028809,-0.412109,0.115838,0.004298,-0.013912,0.999930,0.003212,-0.008023,0.008060,0.687675,-0.047358,-0.720975,-0.071094
13065,NaN,13.171644,0.805739,-1.411957,0.794406,0.291560,3.431634,0.521315,-1.398916,1.595009,-0.856689,0.052490,-0.401855,0.131741,0.009143,-0.013175,0.999940,0.002607,-0.006994,0.007975,0.683282,-0.051810,-0.725550,-0.063396
13066,NaN,13.925501,1.045618,-0.972259,0.159725,0.873845,4.157386,0.337419,-1.231169,1.463082,-0.856689,0.056641,-0.397461,0.139230,0.011490,-0.008847,0.999953,0.001687,-0.006156,0.007315,0.678161,-0.055728,-0.730778,-0.054359
13067,NaN,13.923509,0.711287,-0.158712,-0.821169,0.881340,4.077595,0.057430,-1.037833,1.229337,-0.863525,0.073730,-0.385010,0.139194,0.007969,-0.000863,0.999968,0.000287,-0.005189,0.006147,0.674697,-0.060306,-0.733947,-0.049690
13068,NaN,12.418004,0.197033,0.206990,-1.269246,0.558347,2.530865,0.013557,-0.982064,0.972795,-0.861572,0.078125,-0.382812,0.124156,0.002574,0.002680,0.999976,0.000068,-0.004910,0.004864,0.670597,-0.064163,-0.737577,-0.046508
13069,NaN,11.324387,0.130517,0.119870,-1.186511,0.565945,1.436467,0.106358,-0.904814,0.808835,-0.870117,0.086670,-0.368164,0.113230,0.001762,0.001712,0.999981,0.000532,-0.004524,0.004044,0.667470,-0.066999,-0.740363,-0.043112
13070,NaN,9.262866,0.139426,0.307084,-1.234229,0.593578,-0.645470,0.231756,-0.820926,0.750200,-0.874756,0.093018,-0.365967,0.092609,0.001738,0.003453,0.999984,0.001159,-0.004105,0.003751,0.664737,-0.069714,-0.742660,-0.041475
13071,NaN,8.572333,-0.081096,0.622058,-1.570164,0.467680,-1.375067,0.411707,-0.924390,0.759785,-0.874756,0.094971,-0.355469,0.085696,-0.000499,0.006615,0.999980,0.002059,-0.004622,0.003799,0.661593,-0.071357,-0.745538,-0.037098
13072,NaN,7.932906,0.041559,0.730227,-1.624328,0.623654,-2.038509,0.421994,-0.795986,0.883716,-0.872803,0.101562,-0.355469,0.079296,0.000750,0.007619,0.999980,0.002110,-0.003980,0.004419,0.659705,-0.074291,-0.747006,-0.035379
13073,NaN,7.625464,0.013205,0.913558,-1.817271,0.681374,-2.382006,0.402818,-0.694752,1.015202,-0.879150,0.105713,-0.347168,0.076220,0.000500,0.009401,0.999979,0.002014,-0.003474,0.005076,0.657426,-0.076875,-0.748976,-0.030267
13074,NaN,7.752180,0.286507,1.137237,-2.016807,1.053121,-2.309735,0.481603,-0.751030,1.093132,-0.879639,0.118652,-0.344971,0.077461,0.003261,0.011671,0.999975,0.002408,-0.003755,0.005466,0.656445,-0.080540,-0.749517,-0.028598
13075,NaN,7.978963,0.324233,0.955918,-1.909389,1.171464,-2.088461,0.619178,-0.818753,1.136242,-0.882080,0.129395,-0.332520,0.079730,0.003665,0.009897,0.999971,0.003096,-0.004094,0.005681,0.653769,-0.082880,-0.751813,-0.022218
13076,NaN,8.350284,0.456972,0.819145,-1.802891,1.379566,-1.722431,0.727281,-0.885550,1.156560,-0.879883,0.129395,-0.328369,0.083437,0.005022,0.008579,0.999967,0.003636,-0.004428,0.005783,0.652990,-0.086827,-0.752078,-0.021076
13077,NaN,8.534814,0.313504,0.639770,-1.733916,1.330415,-1.531805,0.778218,-0.866847,1.115785,-0.884521,0.142090,-0.322021,0.085300,0.003585,0.006781,0.999967,0.003891,-0.004334,0.005579,0.650165,-0.088570,-0.754481,-0.014130
13078,NaN,8.631767,0.557387,0.517873,-1.576043,1.605804,-1.444734,0.773864,-0.859943,1.020861,-0.884521,0.148438,-0.317871,0.086264,0.005993,0.005572,0.999970,0.003869,-0.004300,0.005104,0.650006,-0.092573,-0.754108,-0.015590
13079,NaN,9.029570,1.061210,0.316216,-1.421122,2.210362,-1.103337,0.729279,-0.915479,0.905923,-0.888916,0.150635,-0.305176,0.090231,0.011008,0.003615,0.999973,0.003646,-0.004577,0.004530,0.646944,-0.093688,-0.756701,-0.009472
13080,NaN,9.684059,1.485977,0.399834,-1.500578,2.734898,-0.516653,0.631769,-0.924416,0.827024,-0.889160,0.159180,-0.301025,0.096758,0.015246,0.004493,0.999976,0.003159,-0.004622,0.004135,0.646733,-0.097911,-0.756283,-0.013626
13081,NaN,10.657946,2.421786,0.300364,-1.475303,3.856171,0.311486,0.416034,-0.945773,0.783470,-0.886963,0.163574,-0.296875,0.106468,0.024628,0.003558,0.999979,0.002080,-0.004729,0.003917,0.643400,-0.099591,-0.758970,-0.009056
13082,NaN,11.339730,3.178760,0.518343,-1.566473,4.704240,0.882048,0.118921,-0.864558,0.791252,-0.893555,0.167725,-0.290527,0.113246,0.032233,0.005692,0.999983,0.000595,-0.004323,0.003956,0.643210,-0.107165,-0.757914,-0.019033
13083,NaN,11.724544,3.891275,0.844152,-1.875336,5.608621,1.065940,-0.181094,-0.783148,0.806946,-0.895996,0.178467,-0.281982,0.117053,0.039393,0.008865,0.999984,-0.000905,-0.003916,0.004035,0.640212,-0.110878,-0.759971,-0.016704
13084,NaN,11.764044,4.271588,1.204785,-1.863329,5.979544,1.089719,-0.428732,-0.714664,0.788187,-0.883301,0.184814,-0.277832,0.117427,0.043205,0.012375,0.999984,-0.002144,-0.003573,0.003941,0.641631,-0.123377,-0.756144,-0.036526
13085,NaN,11.523623,3.510059,2.019330,-2.815701,5.483516,0.732164,-0.514471,-0.579679,0.734306,-0.894043,0.191162,-0.265137,0.115047,0.035576,0.020436,0.999986,-0.002572,-0.002898,0.003672,0.639247,-0.127908,-0.757445,-0.035757
13086,NaN,10.616620,2.681820,3.126211,-3.668070,4.821751,-0.170435,-0.405434,-0.614375,0.652151,-0.894531,0.204102,-0.265381,0.105981,0.027228,0.031533,0.999988,-0.002027,-0.003072,0.003261,0.639536,-0.142295,-0.753088,-0.060036
13087,NaN,10.219553,2.134402,3.915127,-4.553691,4.541799,-0.704552,-0.151051,-0.793268,0.548473,-0.896729,0.206299,-0.256836,0.101980,0.021654,0.039540,0.999988,-0.000755,-0.003966,0.002742,0.636599,-0.145080,-0.755180,-0.058286
13088,NaN,10.129466,1.835346,4.072020,-4.565378,4.360009,-0.718593,0.076230,-0.885695,0.475494,-0.894531,0.210449,-0.250488,0.101069,0.018578,0.041175,0.999987,0.000381,-0.004428,0.002377,0.636401,-0.157202,-0.751023,-0.079032
13089,NaN,10.004264,1.482152,3.994422,-4.660215,4.047332,-0.860702,0.253935,-0.879460,0.441189,-0.898926,0.216797,-0.244385,0.099833,0.014991,0.040402,0.999987,0.001270,-0.004397,0.002206,0.633464,-0.158396,-0.753565,-0.075983
13090,NaN,10.110086,1.104836,4.091669,-4.705285,3.824698,-0.679919,0.441536,-0.801790,0.417074,-0.894531,0.212646,-0.238037,0.100912,0.011168,0.041346,0.999987,0.002208,-0.004009,0.002085,0.633366,-0.170814,-0.748621,-0.096106
13091,NaN,10.869243,0.599338,4.289893,-5.242687,3.572977,0.018406,0.583151,-0.610540,0.369552,-0.892822,0.223389,-0.235840,0.108550,0.006068,0.043248,0.999989,0.002916,-0.003053,0.001848,0.631750,-0.170643,-0.750511,-0.092231
13092,NaN,11.790875,-0.026251,4.590839,-5.686803,3.339848,0.985773,0.616797,-0.362249,0.258787,-0.896973,0.218994,-0.231689,0.117826,-0.000252,0.046121,0.999993,0.003084,-0.001811,0.001294,0.632294,-0.183799,-0.743958,-0.113792
13093,NaN,12.077380,-0.523542,4.237052,-5.634101,2.786342,1.348988,0.559933,-0.014304,0.087533,-0.892578,0.218994,-0.233643,0.120773,-0.005301,0.042364,0.999996,0.002800,-0.000072,0.000438,0.632803,-0.182362,-0.744238,-0.111418
13094,NaN,12.005035,-0.050430,2.618856,-3.789761,2.473728,1.610969,0.454815,0.400908,-0.135175,-0.896729,0.214844,-0.238037,0.120102,-0.000645,0.025946,0.999995,0.002274,0.002005,-0.000676,0.635878,-0.189969,-0.736471,-0.131075
13095,NaN,12.345938,0.364884,1.642421,-2.730555,2.388502,2.107495,0.263285,0.876858,-0.427696,-0.896973,0.214844,-0.248535,0.123537,0.003364,0.015887,0.999987,0.001316,0.004384,-0.002138,0.639069,-0.186980,-0.734252,-0.132296
13096,NaN,13.826788,1.051421,1.292717,-2.011185,2.716167,3.697675,-0.013695,1.463486,-0.737769,-0.892578,0.208496,-0.261230,0.138395,0.010005,0.011914,0.999966,-0.000068,0.007317,-0.003689,0.644922,-0.191093,-0.723953,-0.153136
13097,NaN,15.114509,2.064162,1.174171,-1.394631,3.425464,5.033166,-0.214869,1.950818,-1.051024,-0.894287,0.197754,-0.278076,0.151356,0.019858,0.010244,0.999938,-0.001074,0.009754,-0.005255,0.650934,-0.186477,-0.718457,-0.159157
13098,NaN,15.651106,2.061649,1.535141,-1.416983,3.134345,5.670126,-0.301633,2.222162,-1.415178,-0.887695,0.187012,-0.294922,0.156809,0.019529,0.013580,0.999912,-0.001508,0.011110,-0.007076,0.657215,-0.186978,-0.707158,-0.181758
13099,NaN,14.933722,0.422847,2.518153,-2.862572,1.811867,4.953572,-0.286315,2.340237,-1.804814,-0.885010,0.165771,-0.309570,0.149648,0.002913,0.023427,0.999890,-0.001432,0.011701,-0.009024,0.663510,-0.179392,-0.700816,-0.190868
13100,NaN,14.660115,-0.666305,3.335377,-3.928344,0.739941,4.695656,-0.108802,2.132560,-2.120868,-0.876465,0.155029,-0.334717,0.146864,-0.008202,0.031793,0.999887,-0.000544,0.010662,-0.010604,0.669158,-0.170593,-0.692542,-0.208594
13101,NaN,15.218673,-0.591475,3.413669,-3.891498,0.378016,5.297117,0.149037,1.984373,-2.270468,-0.882080,0.133545,-0.343018,0.152435,-0.007669,0.032620,0.999886,0.000745,0.009921,-0.011352,0.673713,-0.160145,-0.687915,-0.217342
13102,NaN,14.570376,-0.238224,2.808787,-3.089691,-0.125441,4.701524,0.393174,2.059858,-2.282183,-0.875244,0.116455,-0.368408,0.145942,-0.004100,0.026579,0.999880,0.001966,0.010299,-0.011410,0.677998,-0.149253,-0.681604,-0.231211
13103,NaN,13.246668,-0.137432,1.614515,-1.891062,-0.941346,3.363933,0.588317,2.073905,-2.235326,-0.864258,0.095215,-0.387207,0.132598,-0.002901,0.014764,0.999879,0.002941,0.010369,-0.011176,0.682839,-0.137228,-0.676839,-0.238302
13104,NaN,13.121187,-0.034083,0.091786,-0.471857,-2.061469,3.136843,0.590810,1.960014,-2.197560,-0.863770,0.075928,-0.404053,0.131198,-0.001783,-0.000372,0.999887,0.002954,0.009800,-0.010987,0.686081,-0.127765,-0.670844,-0.250874
13105,NaN,13.021261,-1.034736,-0.416085,-0.474391,-3.512003,2.766103,0.413402,1.948105,-2.113398,-0.859131,0.065186,-0.418701,0.130045,-0.011712,-0.005451,0.999895,0.002067,0.009740,-0.010567,0.690157,-0.116804,-0.665958,-0.257954
13106,NaN,12.915882,-1.947611,-0.435731,-0.879597,-4.613052,2.383124,0.068412,1.962536,-2.029577,-0.847900,0.039551,-0.433350,0.128901,-0.020783,-0.005630,0.999900,0.000342,0.009812,-0.010148,0.692919,-0.107965,-0.660948,-0.267124
13107,NaN,13.177511,-2.331885,-0.318815,-1.095970,-5.266268,2.444572,-0.606788,2.022776,-1.926547,-0.847900,0.037598,-0.450195,0.131502,-0.024599,-0.004446,0.999898,-0.003034,0.010114,-0.009632,0.696633,-0.100993,-0.654101,-0.276867
13108,NaN,12.666917,-2.015297,-0.358581,-0.823303,-5.184365,1.895265,-1.459772,1.996061,-1.864810,-0.834961,0.031250,-0.465088,0.126431,-0.021364,-0.004695,0.999880,-0.007299,0.009980,-0.009324,0.699519,-0.096338,-0.647321,-0.286998
13109,NaN,12.327704,-2.636295,0.114979,-1.508051,-5.636378,1.362538,-2.189978,1.849614,-1.870284,-0.826416,0.026855,-0.484131,0.123029,-0.027508,0.000308,0.999854,-0.010949,0.009248,-0.009351,0.701665,-0.095282,-0.638515,-0.301473
13110,NaN,12.577184,-2.041042,0.030460,-1.105771,-5.493557,1.630331,-2.422675,1.841876,-1.929922,-0.813477,0.014160,-0.500977,0.125564,-0.021626,-0.000595,0.999838,-0.012113,0.009209,-0.009649,0.702796,-0.095239,-0.630996,-0.314407
13111,NaN,13.553748,0.539124,0.294021,0.180148,-3.963519,3.161392,-2.133219,1.978660,-2.020581,-0.813477,0.014160,-0.513672,0.135603,0.004043,0.001551,0.999843,-0.010666,0.009893,-0.010102,0.704737,-0.093242,-0.621553,-0.329126
13112,NaN,12.991298,1.866460,0.725032,0.714211,-2.837189,3.001722,-1.625425,2.281594,-2.012256,-0.796387,0.003418,-0.532715,0.130163,0.017406,0.005621,0.999851,-0.008127,0.011407,-0.010061,0.708464,-0.089289,-0.612236,-0.339519
13113,NaN,11.708821,2.430745,1.279814,0.702266,-2.008183,2.023870,-1.271858,2.488776,-1.933751,-0.781250,-0.002930,-0.551758,0.117462,0.023247,0.011188,0.999856,-0.006359,0.012443,-0.009668,0.712131,-0.083647,-0.602036,-0.351319
13114,NaN,10.181468,1.712388,2.149394,-0.299448,-1.748833,0.582326,-1.441505,2.718776,-1.763045,-0.770752,-0.002930,-0.570801,0.102240,0.016372,0.019986,0.999843,-0.007207,0.013593,-0.008815,0.717731,-0.078871,-0.590984,-0.359692
13115,NaN,8.758185,1.242261,2.740055,-0.959281,-1.449989,-0.717252,-1.610996,2.791303,-1.546978,-0.758057,-0.004883,-0.592041,0.088046,0.011956,0.026076,0.999840,-0.008055,0.013956,-0.007734,0.722449,-0.075060,-0.578586,-0.371041
13116,NaN,7.602288,0.882128,3.107900,-1.374652,-1.182389,-1.754192,-1.424256,2.675741,-1.349500,-0.739014,-0.009033,-0.615234,0.076487,0.008522,0.029996,0.999862,-0.007121,0.013378,-0.006747,0.728484,-0.071175,-0.567828,-0.376585
13117,NaN,6.898072,0.795585,3.389464,-1.568138,-0.949237,-2.306617,-1.105968,2.499547,-1.148089,-0.726318,-0.007080,-0.623779,0.069442,0.007742,0.032985,0.999890,-0.005530,0.012497,-0.005740,0.732947,-0.067243,-0.556987,-0.384749
13118,NaN,6.336320,0.652813,3.188477,-1.422550,-1.012323,-2.906849,-0.873203,2.268207,-0.931999,-0.711670,-0.004639,-0.649170,0.063749,0.006369,0.031135,0.999915,-0.004366,0.011341,-0.004660,0.739110,-0.063180,-0.547964,-0.386600
13119,NaN,6.142933,0.951943,2.581655,-0.690489,-1.148438,-3.216536,-0.776217,2.075315,-0.698514,-0.703125,-0.002441,-0.664062,0.061726,0.009403,0.025140,0.999933,-0.003881,0.010376,-0.003492,0.743153,-0.060135,-0.538979,-0.391930
13120,NaN,5.984672,1.449701,1.851085,0.280938,-1.173244,-3.497028,-0.770634,1.912045,-0.446947,-0.686035,-0.006836,-0.670410,0.060052,0.014433,0.017882,0.999944,-0.003853,0.009560,-0.002235,0.748948,-0.058609,-0.530620,-0.392535
13121,NaN,5.373810,2.126877,1.678105,0.861563,-0.558413,-3.882910,-0.850288,1.706706,-0.244009,-0.680176,0.003906,-0.683350,0.053904,0.021273,0.016231,0.999954,-0.004251,0.008533,-0.001220,0.752717,-0.057811,-0.522607,-0.396178
13122,NaN,4.648429,2.980217,1.173539,1.794909,0.132972,-4.462318,-1.077449,1.551883,-0.082728,-0.669678,0.010498,-0.700195,0.046585,0.029844,0.011213,0.999955,-0.005387,0.007759,-0.000414,0.758687,-0.058469,-0.514728,-0.395007
13123,NaN,3.118151,2.764623,1.460683,1.278468,0.908101,-5.684742,-1.220253,1.347161,0.046668,-0.661621,0.019043,-0.702393,0.031272,0.027741,0.014227,0.999959,-0.006101,0.006736,0.000233,0.761862,-0.060574,-0.507173,-0.398338
13124,NaN,1.067133,1.916705,2.461980,-0.301897,1.936305,-7.160659,-1.112028,1.048211,0.192629,-0.657715,0.029785,-0.706787,0.010781,0.019314,0.024456,0.999970,-0.005560,0.005241,0.000963,0.766445,-0.063610,-0.500390,-0.397651
13125,NaN,-0.893427,1.092003,3.726191,-2.085463,3.076261,-8.376525,-0.826924,0.456340,0.309627,-0.651367,0.031738,-0.706787,-0.008866,0.011060,0.037237,0.999988,-0.004135,0.002282,0.001548,0.767933,-0.066666,-0.496894,-0.398663
13126,NaN,-1.793087,0.254566,4.795556,-3.570847,3.538487,-8.809959,-0.504421,-0.050628,0.449172,-0.649414,0.040527,-0.707031,-0.017949,0.002626,0.047944,0.999994,-0.002522,-0.000253,0.002246,0.769864,-0.070343,-0.495066,-0.396574
13127,NaN,-2.765059,-0.448033,5.000128,-4.375551,3.700277,-9.712590,-0.325709,-0.423847,0.607094,-0.666748,0.046875,-0.706787,-0.027743,-0.004483,0.049950,0.999992,-0.001629,-0.002119,0.003035,0.769901,-0.073960,-0.495836,-0.394880
13128,NaN,-3.134805,-0.635350,4.836511,-4.456552,3.693051,-10.163266,-0.149462,-0.707806,0.704060,-0.662598,0.051025,-0.700684,-0.031496,-0.006428,0.048259,0.999987,-0.000747,-0.003539,0.003520,0.770156,-0.078626,-0.496551,-0.392574
13129,NaN,-3.912647,-0.687630,4.711686,-4.562197,3.989363,-10.931889,0.145249,-0.939354,0.727591,-0.677490,0.057617,-0.694336,-0.039322,-0.007053,0.046927,0.999982,0.000726,-0.004697,0.003638,0.769298,-0.081737,-0.500160,-0.389024
13130,NaN,-4.585772,-0.009095,4.524048,-4.096174,4.690919,-11.459563,0.596941,-1.255641,0.699810,-0.681641,0.055420,-0.687988,-0.046140,-0.000387,0.044951,0.999970,0.002985,-0.006278,0.003499,0.767990,-0.084933,-0.503982,-0.385979
13131,NaN,-5.003600,0.915839,3.208701,-2.625853,4.805650,-12.298631,1.162010,-1.751924,0.689805,-0.698486,0.048828,-0.675049,-0.050346,0.008800,0.031699,0.999939,0.005810,-0.008759,0.003449,0.765356,-0.085607,-0.512629,-0.379623
13132,NaN,-4.927008,1.531933,1.185109,-0.719185,4.091877,-13.093666,1.822128,-2.499702,0.775544,-0.715332,0.044678,-0.657959,-0.049473,0.015023,0.011371,0.999873,0.009110,-0.012498,0.003878,0.760930,-0.087065,-0.523063,-0.373913
13133,NaN,-2.638986,1.066547,1.014191,-0.489292,2.520913,-11.404930,2.186660,-3.375892,0.960893,-0.736084,0.033691,-0.632568,-0.026608,0.010430,0.009809,0.999786,0.010933,-0.016878,0.004804,0.754689,-0.087574,-0.539465,-0.362977
13134,NaN,5.594293,0.899822,2.619643,-0.586144,-0.443154,-3.614010,1.686413,-3.560190,1.166201,-0.755127,0.033691,-0.607178,0.055411,0.009095,0.027262,0.999789,0.008431,-0.017800,0.005831,0.747954,-0.091912,-0.553192,-0.355100
13135,NaN,10.192812,1.435093,0.591460,1.743968,-2.880332,-0.068221,1.331039,-3.095835,1.112738,-0.776123,0.029297,-0.585938,0.101738,0.014871,0.007588,0.999843,0.006655,-0.015478,0.005563,0.741862,-0.095518,-0.566535,-0.345767
13136,NaN,15.664097,0.533998,0.813196,1.457441,-5.373280,4.860263,1.749912,-2.825760,0.958936,-0.790771,0.031494,-0.560303,0.156477,0.006006,0.010394,0.999850,0.008749,-0.014128,0.004794,0.736633,-0.097607,-0.577638,-0.337902
13137,NaN,29.375408,3.022445,6.351649,-0.370079,-5.324577,19.916784,1.604610,-2.685693,0.873232,-0.805664,0.033447,-0.547607,0.292730,0.030972,0.067699,0.999868,0.008023,-0.013428,0.004366,0.731039,-0.098768,-0.589739,-0.328685
13138,NaN,40.287853,10.047992,3.447543,6.633700,-4.855046,31.032250,1.471185,-1.863819,0.653420,-0.811768,0.027100,-0.530762,0.402199,0.101519,0.038970,0.999924,0.007356,-0.009319,0.003267,0.728087,-0.098996,-0.597207,-0.321609
13139,NaN,31.569791,3.115625,-2.786868,6.490332,-9.951247,19.733198,1.480716,-1.055365,0.408016,-0.815918,0.022705,-0.528564,0.315774,0.031997,-0.025968,0.999957,0.007403,-0.005277,0.002040,0.726294,-0.096542,-0.603203,-0.315155
13140,NaN,13.966776,-1.556425,-0.265916,0.374284,-6.132368,2.829217,0.299517,-0.094757,-0.368911,-0.817871,0.018555,-0.528564,0.139640,-0.015818,-0.002617,0.999997,0.001498,-0.000474,-0.001845,0.726537,-0.094618,-0.603485,-0.314640
13141,NaN,3.745650,-1.707228,0.973153,-1.502533,-2.121886,-6.476294,-0.242207,-0.097317,-0.424230,-0.824219,0.016357,-0.526367,0.037415,-0.017140,0.009770,0.999997,-0.001211,-0.000487,-0.002121,0.725459,-0.094396,-0.603657,-0.316854
13142,NaN,-1.795741,-0.913638,0.869165,-1.361644,0.352817,-11.496822,-0.139671,-0.396381,-0.157989,-0.817871,0.016357,-0.520020,-0.017982,-0.009116,0.008662,0.999997,-0.000698,-0.001982,-0.000790,0.725115,-0.094963,-0.604446,-0.315966
13143,NaN,-2.497549,1.386198,-0.008812,0.638813,1.926884,-11.822244,0.106317,-1.367975,0.288057,-0.830566,0.018311,-0.507324,-0.024994,0.013826,-0.000252,0.999975,0.000532,-0.006840,0.001440,0.721469,-0.097633,-0.609424,-0.313932
13144,NaN,5.178452,3.097723,-0.113523,2.146892,0.698152,-4.215613,0.406066,-2.086147,0.660432,-0.837158,0.026855,-0.492676,0.051689,0.031150,-0.000533,0.999938,0.002030,-0.010431,0.003302,0.717331,-0.101418,-0.616693,-0.307962
13145,NaN,9.867250,4.041908,0.473755,2.332117,0.408578,0.594727,0.472986,-1.843981,0.872263,-0.847900,0.033203,-0.477783,0.098445,0.040836,0.005742,0.999945,0.002365,-0.009220,0.004361,0.713189,-0.105270,-0.623560,-0.302412
13146,NaN,10.438768,3.166971,0.382709,1.862740,-0.308565,0.937928,0.360718,-1.429749,1.075101,-0.854492,0.039795,-0.467285,0.104184,0.032222,0.004630,0.999958,0.001804,-0.007149,0.005375,0.711371,-0.109454,-0.628156,-0.295618
13147,NaN,11.764573,2.530921,0.230423,1.627616,-1.078053,2.063710,0.083266,-1.198201,1.277644,-0.863037,0.046143,-0.454590,0.117464,0.026059,0.003019,0.999962,0.000416,-0.005991,0.006388,0.709514,-0.114963,-0.631819,-0.290134
13148,NaN,13.730481,2.225870,0.129254,1.613566,-1.667830,3.902542,-0.127238,-0.965811,1.391242,-0.863525,0.061035,-0.450439,0.137137,0.023214,0.001940,0.999964,-0.000636,-0.004829,0.006956,0.709124,-0.121137,-0.633891,-0.283992
13149,NaN,14.637816,1.751042,0.415899,1.160226,-1.903980,4.765710,-0.279648,-0.623815,1.326722,-0.868164,0.076172,-0.444092,0.146244,0.018487,0.004590,0.999972,-0.001398,-0.003119,0.006634,0.708841,-0.127243,-0.634885,-0.279778
13150,NaN,12.186824,-0.274068,1.343357,-0.778269,-2.291055,2.209883,-0.425675,-0.454876,0.979113,-0.872559,0.080322,-0.444092,0.121849,-0.002115,0.013716,0.999983,-0.002128,-0.002274,0.004896,0.709184,-0.132332,-0.635059,-0.276127
13151,NaN,10.107521,-1.510922,1.788426,-1.925092,-2.474301,0.077422,-0.324038,-0.725740,0.640938,-0.872559,0.084717,-0.431641,0.101057,-0.014756,0.018275,0.999987,-0.001620,-0.003629,0.003205,0.707540,-0.136543,-0.636753,-0.274388
13152,NaN,9.088139,-1.744784,2.270441,-2.508573,-2.089904,-0.861032,0.010705,-0.865749,0.458135,-0.872803,0.093262,-0.427490,0.090822,-0.017241,0.023097,0.999988,0.000054,-0.004329,0.002291,0.706172,-0.138912,-0.639363,-0.270627
13153,NaN,8.493060,-0.943131,2.725350,-2.507115,-0.992086,-1.258242,0.420259,-1.049376,0.444641,-0.885498,0.091064,-0.418945,0.084807,-0.009301,0.027679,0.999982,0.002101,-0.005247,0.002223,0.703696,-0.140293,-0.643317,-0.266969
13154,NaN,8.239924,0.146020,3.058203,-2.244335,0.208861,-1.316311,0.993002,-1.341347,0.514148,-0.881348,0.097412,-0.410400,0.082188,0.001518,0.031141,0.999962,0.004965,-0.006707,0.002571,0.701568,-0.139945,-0.648809,-0.259355
13155,NaN,8.946119,1.544908,2.486951,-1.092605,1.026838,-0.519995,1.428618,-1.560159,0.635252,-0.889648,0.095215,-0.389160,0.089214,0.015551,0.025677,0.999939,0.007143,-0.007801,0.003176,0.698285,-0.139036,-0.655651,-0.251374
13156,NaN,9.371767,2.537056,1.973697,-0.245549,1.652408,-0.047035,1.659529,-1.601289,0.776757,-0.891846,0.095215,-0.382812,0.093455,0.025565,0.020698,0.999926,0.008297,-0.008006,0.003884,0.695907,-0.137533,-0.662487,-0.240643
13157,NaN,9.772836,3.383958,1.456036,0.494267,2.199906,0.384931,1.718417,-1.533676,0.945120,-0.902588,0.103760,-0.365967,0.097450,0.034169,0.015601,0.999923,0.008592,-0.007668,0.004725,0.693089,-0.136546,-0.669190,-0.230579
13158,NaN,10.168946,3.682200,1.075264,0.879760,2.390074,0.752865,1.671353,-1.530691,1.086861,-0.906494,0.097168,-0.357422,0.101400,0.037278,0.011840,0.999921,0.008357,-0.007653,0.005434,0.689183,-0.141447,-0.674186,-0.224708
13159,NaN,10.771806,3.367240,0.898353,0.732313,2.160942,1.276320,1.492888,-1.545885,1.127449,-0.911133,0.107910,-0.346924,0.107451,0.034206,0.010069,0.999926,0.007464,-0.007729,0.005637,0.686240,-0.141857,-0.680344,-0.214670
13160,NaN,10.852129,2.483852,0.625948,0.446571,1.456146,1.232944,1.106450,-1.498257,1.152827,-0.909180,0.114258,-0.336426,0.108324,0.025425,0.007211,0.999940,0.005532,-0.007491,0.005764,0.682520,-0.147349,-0.684646,-0.209082
13161,NaN,11.463875,2.335080,0.148231,0.677568,1.242280,1.801470,0.489160,-1.428183,1.122307,-0.911621,0.127197,-0.321777,0.114491,0.023988,0.002358,0.999956,0.002446,-0.007141,0.005611,0.679131,-0.151035,-0.689174,-0.202506
13162,NaN,12.382805,1.862206,-0.485771,0.921242,0.648666,2.667895,-0.227245,-1.198515,1.095109,-0.917969,0.131348,-0.315430,0.123750,0.019295,-0.004138,0.999966,-0.001136,-0.005993,0.005475,0.675365,-0.160353,-0.690987,-0.201758
13163,NaN,12.859105,2.200073,-1.116300,1.580102,0.780259,3.161723,-0.813699,-0.887297,1.075332,-0.922852,0.150635,-0.304932,0.128519,0.022648,-0.010684,0.999967,-0.004068,-0.004436,0.005377,0.672705,-0.167734,-0.692278,-0.200209
13164,NaN,12.477073,1.993979,-0.639900,1.097162,0.999844,2.751455,-1.082029,-0.662730,1.062241,-0.918945,0.161377,-0.298828,0.124683,0.020569,-0.006096,0.999966,-0.005410,-0.003314,0.005311,0.670207,-0.178291,-0.691530,-0.202046
13165,NaN,11.669739,1.623191,0.221452,0.212200,1.285393,1.899181,-1.028644,-0.648417,0.993160,-0.923340,0.169922,-0.290283,0.116607,0.016824,0.002507,0.999969,-0.005143,-0.003242,0.004966,0.668026,-0.185849,-0.691756,-0.201679
13166,NaN,10.754526,1.450041,1.161326,-0.612379,1.777754,0.937863,-0.827035,-0.693658,0.938387,-0.925781,0.180664,-0.279785,0.107434,0.015054,0.011925,0.999974,-0.004135,-0.003468,0.004692,0.665566,-0.194566,-0.691483,-0.202529
13167,NaN,10.008584,0.913677,2.139881,-1.697358,1.981122,0.126045,-0.545158,-0.822875,0.887847,-0.923828,0.189209,-0.275635,0.099955,0.009640,0.021784,0.999978,-0.002726,-0.004114,0.004439,0.663071,-0.200306,-0.692789,-0.200644
13168,NaN,9.731323,0.409787,3.106711,-2.769424,2.215763,-0.224287,-0.221648,-0.947467,0.867450,-0.924316,0.201904,-0.271484,0.097146,0.004554,0.031523,0.999979,-0.001108,-0.004737,0.004337,0.660387,-0.206437,-0.694049,-0.198917
13169,NaN,9.775517,0.191156,4.111088,-3.767362,2.709662,-0.275323,0.187763,-1.144701,0.833736,-0.928467,0.206299,-0.252441,0.097509,0.002279,0.041671,0.999974,0.000939,-0.005723,0.004169,0.657416,-0.209871,-0.697136,-0.194316
13170,NaN,10.453982,0.387504,4.302333,-3.896169,3.134605,0.333143,0.639911,-1.333927,0.767703,-0.926270,0.206299,-0.248291,0.104234,0.004136,0.043732,0.999965,0.003200,-0.006670,0.003838,0.654256,-0.213077,-0.700460,-0.189483
13171,NaN,10.890978,0.598885,3.709593,-3.407219,3.128778,0.738721,0.983226,-1.424165,0.676428,-0.935059,0.214844,-0.231445,0.108621,0.006172,0.037900,0.999957,0.004916,-0.007121,0.003382,0.650923,-0.213597,-0.705298,-0.182291
13172,NaN,11.197433,0.643999,2.695572,-2.632181,2.752352,1.075728,1.123897,-1.204213,0.638331,-0.930908,0.216797,-0.227295,0.111788,0.006643,0.027666,0.999961,0.005619,-0.006021,0.003192,0.648816,-0.213910,-0.708793,-0.175761
13173,NaN,10.931852,0.390095,1.962669,-2.210836,2.229064,0.848084,1.228368,-0.908435,0.583918,-0.937256,0.218994,-0.222900,0.109216,0.004097,0.020148,0.999967,0.006142,-0.004542,0.002920,0.647397,-0.212814,-0.712170,-0.168526
13174,NaN,9.922451,-0.084370,1.350195,-1.897543,1.489049,-0.093280,1.414497,-0.598980,0.508997,-0.930908,0.223145,-0.218750,0.099185,-0.000688,0.013794,0.999967,0.007072,-0.002995,0.002545,0.647643,-0.211081,-0.713971,-0.162016
13175,NaN,8.885132,-0.001575,0.982815,-1.490268,1.327660,-1.099033,1.642160,-0.384216,0.471952,-0.935059,0.221191,-0.216797,0.088832,0.000112,0.009999,0.999962,0.008211,-0.001921,0.002360,0.648356,-0.207779,-0.716019,-0.154204
13176,NaN,8.508883,0.344618,1.494249,-1.729686,1.868419,-1.550135,1.689875,-0.201754,0.428211,-0.935303,0.223389,-0.223145,0.085066,0.003501,0.015058,0.999962,0.008449,-0.001009,0.002141,0.650114,-0.204861,-0.716633,-0.147721
13177,NaN,8.835809,0.350742,2.594602,-2.721520,2.438714,-1.352635,1.359165,-0.012264,0.235325,-0.937256,0.218994,-0.227295,0.088352,0.003435,0.025975,0.999976,0.006796,-0.000061,0.001177,0.651615,-0.201319,-0.717418,-0.142060
13178,NaN,10.080629,0.812852,2.981132,-2.913291,3.124277,-0.173265,0.783940,0.269690,-0.082056,-0.939453,0.221191,-0.229248,0.100850,0.007971,0.029707,0.999991,0.003920,0.001348,-0.000410,0.653886,-0.198549,-0.716430,-0.140496
13179,NaN,11.252377,1.546808,2.410785,-2.124491,3.569034,1.030203,0.381329,0.696753,-0.406988,-0.937256,0.216797,-0.235596,0.112638,0.015193,0.023745,0.999990,0.001907,0.003484,-0.002035,0.656462,-0.195382,-0.714816,-0.141141
13180,NaN,12.207364,1.831258,1.915491,-1.526640,3.566469,2.061228,0.295366,1.104925,-0.681296,-0.941162,0.208252,-0.246094,0.122238,0.017869,0.018507,0.999978,0.001477,0.005525,-0.003406,0.660652,-0.192214,-0.711048,-0.144924
13181,NaN,12.907528,2.494958,2.025490,-1.271278,4.097316,2.777916,0.437485,1.444366,-0.958605,-0.932617,0.199707,-0.258789,0.129335,0.024287,0.019375,0.999960,0.002187,0.007222,-0.004793,0.665482,-0.186335,-0.707486,-0.147907
13182,NaN,13.530653,3.180677,2.591320,-1.353041,4.766547,3.429388,0.599572,1.629905,-1.290942,-0.927979,0.184814,-0.277832,0.135713,0.030856,0.024902,0.999941,0.002998,0.008149,-0.006455,0.671209,-0.179661,-0.702616,-0.153397
13183,NaN,14.235646,2.157080,2.611485,-1.769940,3.603557,4.258456,0.638623,1.831293,-1.675976,-0.938232,0.167725,-0.296631,0.142762,0.020295,0.024875,0.999918,0.003193,0.009156,-0.008380,0.676871,-0.170240,-0.698408,-0.158400
13184,NaN,14.076649,0.555111,2.947010,-2.665693,1.946665,4.195742,0.667766,1.807329,-2.057377,-0.929199,0.148438,-0.313477,0.141072,0.004005,0.028211,0.999901,0.003339,0.009036,-0.010287,0.682436,-0.160307,-0.693459,-0.166425
13185,NaN,14.503279,0.348431,2.789981,-2.556562,1.280970,4.680682,0.721804,1.685707,-2.333428,-0.928467,0.122803,-0.330078,0.145288,0.001692,0.026684,0.999890,0.003609,0.008428,-0.011667,0.686839,-0.148363,-0.690102,-0.173206
13186,NaN,15.073143,1.873656,2.380188,-1.428249,1.983963,5.365634,0.702808,1.759366,-2.421513,-0.927734,0.099365,-0.344727,0.151145,0.016828,0.022535,0.999882,0.003514,0.008796,-0.012107,0.691537,-0.137248,-0.685293,-0.182518
13187,NaN,15.061896,3.529354,1.859646,-0.142756,2.781584,5.516971,0.427271,2.135358,-2.280117,-0.925293,0.084473,-0.363770,0.151196,0.033534,0.017057,0.999876,0.002136,0.010676,-0.011400,0.696978,-0.126023,-0.679779,-0.190370
13188,NaN,14.017460,2.253369,1.553317,-0.235176,1.137550,4.421490,0.069604,2.582014,-2.071698,-0.914307,0.065186,-0.388916,0.140583,0.021074,0.013727,0.999863,0.000348,0.012909,-0.010358,0.703642,-0.118360,-0.670833,-0.202146
13189,NaN,13.210264,1.682689,0.210329,0.901603,-0.262018,3.472243,-0.036543,2.676155,-1.907165,-0.903320,0.048096,-0.409912,0.132267,0.015566,0.000331,0.999865,-0.000183,0.013380,-0.009535,0.710572,-0.109401,-0.662419,-0.210524
13190,NaN,12.253576,1.118912,-0.711817,1.650797,-1.406005,2.319686,0.093813,2.617538,-1.743228,-0.900879,0.033203,-0.431152,0.122520,0.010125,-0.008717,0.999876,0.000469,0.013087,-0.008716,0.717018,-0.102934,-0.652885,-0.221429
13191,NaN,11.611537,0.221620,-0.691692,1.371750,-2.373609,1.493520,0.197886,2.396125,-1.600581,-0.894043,0.020508,-0.454346,0.116034,0.001295,-0.008306,0.999896,0.000989,0.011980,-0.008003,0.723094,-0.094366,-0.645270,-0.227720
13192,NaN,11.460520,-0.533369,0.311598,0.261790,-2.860127,1.298976,0.005985,2.049899,-1.531463,-0.881104,0.009766,-0.475342,0.114584,-0.006211,0.001941,0.999918,0.000030,0.010249,-0.007657,0.727228,-0.089918,-0.637397,-0.238284
13193,NaN,11.550788,-0.840821,1.426781,-0.748251,-2.907573,1.463128,-0.514858,1.724424,-1.517342,-0.883057,-0.000977,-0.489990,0.115557,-0.009250,0.013295,0.999931,-0.002574,0.008622,-0.007587,0.730635,-0.084924,-0.631151,-0.246189
13194,NaN,12.123673,-1.071088,1.792139,-1.059765,-3.325835,1.983630,-1.180573,1.588199,-1.556812,-0.872559,-0.000977,-0.500732,0.121287,-0.011553,0.017025,0.999921,-0.005903,0.007941,-0.007784,0.732375,-0.085167,-0.623442,-0.260180
13195,NaN,12.516315,-0.535732,1.434620,-0.369672,-3.375032,2.331022,-1.918953,1.718072,-1.628865,-0.861572,-0.011475,-0.519775,0.125232,-0.006246,0.013328,0.999884,-0.009594,0.008590,-0.008144,0.734711,-0.084902,-0.615276,-0.272815
13196,NaN,12.348103,0.714841,0.852213,0.844456,-2.831583,2.227799,-2.413353,1.996082,-1.643617,-0.851074,-0.013672,-0.540771,0.123611,0.006225,0.007210,0.999844,-0.012066,0.009980,-0.008218,0.736393,-0.089011,-0.604170,-0.291170
13197,NaN,11.871038,2.290282,0.698721,1.936154,-1.773805,2.008787,-2.600820,2.436210,-1.594945,-0.834229,-0.007080,-0.560059,0.118959,0.022031,0.005249,0.999809,-0.013003,0.012180,-0.007974,0.740135,-0.090235,-0.592009,-0.305915
13198,NaN,10.115988,2.616333,0.893205,1.973957,-1.142969,0.422630,-2.492252,2.753863,-1.516563,-0.823730,-0.007080,-0.585449,0.101462,0.025492,0.007216,0.999799,-0.012460,0.013768,-0.007582,0.744022,-0.092552,-0.577714,-0.322663
13199,NaN,8.379911,2.319751,1.383473,1.387644,-0.743079,-1.150542,-2.270382,2.741311,-1.403156,-0.806885,-0.004883,-0.604492,0.084137,0.022754,0.012423,0.999817,-0.011351,0.013706,-0.007015,0.748493,-0.092535,-0.564396,-0.335636
13200,NaN,7.364728,1.012165,2.184786,-0.008652,-1.126249,-2.146913,-2.130099,2.606223,-1.269638,-0.792236,-0.002686,-0.625732,0.073986,0.009878,0.020779,0.999838,-0.010650,0.013030,-0.006348,0.751765,-0.094322,-0.550754,-0.350174
13201,NaN,6.538574,-0.352773,2.952754,-1.446216,-1.526988,-2.944606,-1.910963,2.450797,-1.122119,-0.777344,-0.004639,-0.640625,0.065721,-0.003619,0.028758,0.999864,-0.009554,0.012253,-0.005610,0.755550,-0.094140,-0.538649,-0.360748
13202,NaN,6.165666,-0.943039,3.187838,-1.958294,-1.768758,-3.324087,-1.614240,2.324142,-0.975604,-0.762695,0.001709,-0.663818,0.061976,-0.009478,0.031236,0.999888,-0.008071,0.011620,-0.004878,0.758474,-0.094871,-0.526611,-0.372019
13203,NaN,5.587337,-1.482390,3.045446,-2.221468,-2.051136,-4.020679,-1.283976,2.168413,-0.826564,-0.748291,0.010254,-0.674561,0.056138,-0.014862,0.029942,0.999912,-0.006420,0.010842,-0.004133,0.761976,-0.093551,-0.516343,-0.379515
13204,NaN,5.220825,-1.590682,2.756478,-2.088789,-2.174203,-4.493436,-0.920544,1.982830,-0.676364,-0.737549,0.001953,-0.695801,0.052425,-0.015958,0.027119,0.999935,-0.004603,0.009914,-0.003382,0.764487,-0.093113,-0.506564,-0.387662
13205,NaN,5.239602,-1.027212,2.439079,-1.412563,-2.046530,-4.495429,-0.608169,1.869714,-0.578616,-0.731201,0.006104,-0.699951,0.052591,-0.010351,0.023931,0.999947,-0.003041,0.009348,-0.002893,0.767784,-0.090371,-0.498479,-0.392249
13206,NaN,5.155017,-0.094868,2.336010,-0.652883,-1.505270,-4.395383,-0.456130,1.774080,-0.521499,-0.716553,0.006104,-0.723389,0.051752,-0.001031,0.022904,0.999955,-0.002281,0.008870,-0.002607,0.770243,-0.088703,-0.490287,-0.398090
13207,NaN,5.154095,1.341657,2.061701,0.601866,-0.770504,-4.186094,-0.537579,1.673581,-0.476335,-0.710205,0.006104,-0.727539,0.051743,0.013348,0.020149,0.999959,-0.002688,0.008368,-0.002382,0.773134,-0.086299,-0.482960,-0.401953
13208,NaN,5.250179,2.220744,1.717213,1.546865,-0.507262,-4.086101,-0.798803,1.632219,-0.353744,-0.693359,0.010498,-0.740234,0.052678,0.022182,0.016654,0.999957,-0.003994,0.008161,-0.001769,0.775151,-0.086699,-0.474494,-0.408019
13209,NaN,4.822943,2.759888,1.733604,1.903977,0.018191,-4.312069,-0.995254,1.456251,-0.204690,-0.685059,0.019043,-0.746826,0.048382,0.027634,0.016847,0.999961,-0.004976,0.007281,-0.001023,0.777734,-0.087125,-0.466886,-0.411772
13210,NaN,4.142350,2.815244,2.175861,1.584648,0.601018,-4.621726,-1.021228,1.214319,-0.035537,-0.677002,0.027832,-0.765869,0.041559,0.028255,0.021362,0.999969,-0.005106,0.006072,-0.000178,0.778984,-0.090059,-0.459394,-0.417169
13211,NaN,2.923803,2.197075,3.117817,0.315586,1.362835,-5.214939,-1.018980,0.860861,0.128941,-0.677246,0.034180,-0.763916,0.029357,0.022148,0.030939,0.999978,-0.005095,0.004304,0.000645,0.780762,-0.092554,-0.453844,-0.419369
13212,NaN,2.026110,1.708387,4.816856,-1.252659,2.466335,-5.061524,-0.983873,0.273756,0.311465,-0.668945,0.044922,-0.768311,0.020300,0.017352,0.048056,0.999986,-0.004919,0.001369,0.001557,0.780554,-0.097940,-0.449907,-0.422761
13213,NaN,1.364445,1.502921,6.694743,-2.672831,3.753794,-4.549172,-0.957762,-0.309520,0.436752,-0.681885,0.053467,-0.761963,0.013508,0.015379,0.066895,0.999985,-0.004789,-0.001548,0.002184,0.780308,-0.103341,-0.448866,-0.423036
13214,NaN,0.697379,1.233944,7.762066,-3.604608,4.634269,-4.541255,-0.999151,-0.825937,0.536053,-0.686768,0.070557,-0.751465,0.006620,0.012745,0.077585,0.999975,-0.004996,-0.004130,0.002680,0.777930,-0.111678,-0.448909,-0.425245
13215,NaN,0.624714,1.010376,7.849258,-3.800585,4.681822,-4.649677,-0.972017,-1.214551,0.585780,-0.695312,0.076904,-0.751465,0.005740,0.010503,0.078478,0.999965,-0.004860,-0.006073,0.002929,0.775888,-0.119380,-0.451219,-0.424438
13216,NaN,-0.238517,1.263795,7.091893,-3.277854,4.999881,-5.787182,-0.735676,-1.393956,0.620797,-0.701904,0.085449,-0.742920,-0.002919,0.012890,0.070853,0.999964,-0.003678,-0.006970,0.003104,0.772115,-0.128469,-0.453633,-0.426089
13217,NaN,-1.807702,2.205120,4.595736,-1.420012,5.010848,-8.354827,-0.068541,-1.613278,0.673914,-0.717041,0.092041,-0.726074,-0.018521,0.022005,0.045802,0.999962,-0.000343,-0.008066,0.003370,0.769825,-0.133721,-0.459259,-0.422573
13218,NaN,-3.712258,2.859390,1.851371,0.302190,4.781609,-11.371123,1.031296,-2.106564,0.795957,-0.735840,0.083252,-0.715332,-0.037429,0.028351,0.018267,0.999923,0.005156,-0.010533,0.003980,0.766584,-0.137105,-0.468061,-0.417696
13219,NaN,-6.151233,1.381114,-0.917738,0.336571,3.384656,-15.199358,2.082055,-2.878963,0.977456,-0.758789,0.074707,-0.689941,-0.061440,0.013611,-0.009920,0.999830,0.010410,-0.014394,0.004887,0.763193,-0.137429,-0.482688,-0.407016
13220,NaN,-4.178833,-0.410199,1.487439,-2.060649,2.624223,-12.763481,2.429782,-3.859028,1.353615,-0.783936,0.065918,-0.660156,-0.042034,-0.004560,0.014011,0.999717,0.012148,-0.019293,0.006767,0.757385,-0.140391,-0.500353,-0.395356
13221,NaN,8.197612,-0.352112,2.575359,-0.471813,-2.257645,-1.528573,1.491148,-4.129522,1.866818,-0.807617,0.081055,-0.634766,0.081451,-0.002959,0.027416,0.999715,0.007455,-0.020646,0.009333,0.751582,-0.147566,-0.517478,-0.381530
13222,NaN,16.882753,-2.416826,-0.368352,1.330712,-8.702727,4.797731,0.846965,-3.174469,1.936323,-0.824707,0.087402,-0.613525,0.169082,-0.022524,-0.001099,0.999818,0.004235,-0.015871,0.009681,0.746797,-0.156845,-0.528485,-0.372018
13223,NaN,28.299266,-1.224305,5.805031,-0.173038,-7.806984,18.026242,0.755936,-2.372783,2.018929,-0.835693,0.102295,-0.594727,0.282384,-0.009618,0.061363,0.999872,0.003780,-0.011863,0.010094,0.744785,-0.163780,-0.537093,-0.360558
13224,NaN,43.776109,9.065492,4.881821,10.256617,-6.053375,33.551309,0.304116,-1.644385,1.511621,-0.846436,0.110840,-0.586182,0.436638,0.093880,0.052552,0.999936,0.001521,-0.008222,0.007558,0.743208,-0.170257,-0.541862,-0.353610
13225,NaN,36.600408,8.656592,-4.790560,15.194149,-9.299811,23.655024,0.620212,-1.704718,0.216083,-0.854736,0.106445,-0.569092,0.366299,0.087103,-0.044515,0.999958,0.003101,-0.008523,0.001080,0.739474,-0.171574,-0.549080,-0.349646
13226,NaN,16.802761,-0.030448,0.877445,1.821993,-4.984769,6.153879,0.061776,-1.053590,-0.961709,-0.862793,0.095703,-0.566895,0.167974,-0.001115,0.009659,0.999975,0.000309,-0.005268,-0.004809,0.735107,-0.170488,-0.553758,-0.351998
13227,NaN,5.116750,-2.383150,3.073601,-3.134241,-1.360523,-4.369093,-0.436777,-0.545042,-0.940382,-0.866943,0.093506,-0.564941,0.050971,-0.024004,0.030927,0.999983,-0.002184,-0.002725,-0.004702,0.731564,-0.170476,-0.555778,-0.356179
13228,NaN,-1.362812,-1.650389,2.840057,-3.312518,1.144445,-10.416328,-0.170510,-0.474569,-0.494973,-0.868896,0.087158,-0.560547,-0.013736,-0.016446,0.028382,0.999994,-0.000853,-0.002373,-0.002475,0.729915,-0.169734,-0.557770,-0.356800
13229,NaN,-5.291336,0.956869,2.087244,-1.402839,3.744099,-13.970077,0.395169,-1.127407,-0.051419,-0.879639,0.091309,-0.547852,-0.053028,0.009541,0.020593,0.999982,0.001976,-0.005637,-0.000257,0.727007,-0.170186,-0.562616,-0.354908
13230,NaN,-1.882458,2.784854,0.247122,1.580644,2.687196,-11.093543,0.773888,-2.391062,0.414288,-0.887939,0.089111,-0.522461,-0.018911,0.027800,0.002353,0.999919,0.003869,-0.011955,0.002071,0.722031,-0.172387,-0.572231,-0.348576
13231,NaN,6.173420,4.022576,-0.980115,4.086304,0.362617,-3.614303,0.797562,-2.722965,0.633019,-0.905273,0.099854,-0.507568,0.061731,0.040458,-0.008800,0.999894,0.003988,-0.013614,0.003165,0.715960,-0.176077,-0.582838,-0.341611
13232,NaN,8.260931,4.330042,-0.496336,4.027678,0.476808,-1.399350,0.696352,-2.394408,0.835570,-0.915527,0.095459,-0.482178,0.082478,0.043660,-0.003824,0.999914,0.003482,-0.011972,0.004178,0.710753,-0.180682,-0.591493,-0.335142
13233,NaN,10.324222,3.354246,-0.732726,3.579251,-0.689461,0.438432,0.552529,-2.049700,1.084717,-0.926514,0.110352,-0.471680,0.103125,0.034120,-0.006176,0.999929,0.002763,-0.010248,0.005423,0.706962,-0.185378,-0.598674,-0.327765
13234,NaN,13.138729,2.432301,-1.089324,3.334672,-2.004056,3.016398,0.360101,-1.675838,1.372112,-0.928711,0.114746,-0.457031,0.131301,0.025242,-0.009748,0.999940,0.001800,-0.008379,0.006860,0.704464,-0.191107,-0.603743,-0.320472
13235,NaN,16.338008,1.541990,-1.590410,3.298548,-3.378706,5.983917,0.114213,-1.191777,1.581582,-0.929443,0.134033,-0.446533,0.163342,0.016720,-0.014921,0.999951,0.000571,-0.005959,0.007908,0.703479,-0.197410,-0.606575,-0.313389
13236,NaN,16.309673,-1.403707,-0.929658,0.869142,-4.791355,5.843677,-0.192360,-0.771678,1.423796,-0.933838,0.142578,-0.444336,0.163225,-0.012884,-0.008654,0.999967,-0.000962,-0.003858,0.007119,0.703455,-0.203061,-0.607731,-0.307539
13237,NaN,13.964774,-3.959994,0.900247,-2.337011,-4.799839,3.715211,-0.438536,-0.738446,0.942690,-0.938477,0.155273,-0.431885,0.139798,-0.038921,0.009604,0.999980,-0.002193,-0.003692,0.004713,0.702204,-0.208630,-0.608677,-0.304787
13238,NaN,11.264372,-3.339185,1.934203,-2.852944,-3.055547,1.336328,-0.588586,-0.596242,0.606420,-0.940674,0.157471,-0.434082,0.112686,-0.032992,0.019775,0.999987,-0.002943,-0.002981,0.003032,0.701210,-0.212494,-0.609597,-0.302560
13239,NaN,8.495381,-2.139139,2.473693,-2.637877,-1.265995,-1.192663,-0.465665,-0.661296,0.510506,-0.945068,0.168213,-0.423340,0.084925,-0.021116,0.025067,0.999989,-0.002328,-0.003306,0.002553,0.699467,-0.216712,-0.610653,-0.301471
13240,NaN,7.574551,-0.821240,2.485226,-1.819565,-0.082662,-2.008435,-0.164909,-0.863331,0.598463,-0.943115,0.174561,-0.412842,0.075661,-0.007965,0.025186,0.999986,-0.000825,-0.004317,0.002992,0.698382,-0.218867,-0.613344,-0.296933
13241,NaN,8.099016,0.377141,2.409016,-0.930438,0.755213,-1.439956,0.205897,-1.082571,0.728880,-0.945312,0.180908,-0.395996,0.080844,0.004041,0.024532,0.999978,0.001029,-0.005413,0.003644,0.696357,-0.222017,-0.616611,-0.292553
13242,NaN,8.577757,0.708871,2.422429,-0.717720,1.056997,-0.963125,0.498362,-1.269417,0.845079,-0.949707,0.180908,-0.394043,0.085591,0.007389,0.024786,0.999968,0.002492,-0.006347,0.004225,0.694480,-0.224362,-0.620940,-0.285995
13243,NaN,8.410098,1.053313,2.277391,-0.433970,1.360996,-1.153388,0.714023,-1.308024,0.953469,-0.954102,0.189453,-0.381348,0.083898,0.010851,0.023361,0.999961,0.003570,-0.006540,0.004767,0.692558,-0.226736,-0.625401,-0.278976
13244,NaN,8.178879,0.881189,2.064460,-0.459676,1.244965,-1.435955,1.088265,-1.377329,1.012571,-0.958496,0.193848,-0.375000,0.081598,0.009111,0.021256,0.999949,0.005441,-0.006887,0.005063,0.691562,-0.226626,-0.631002,-0.268736
13245,NaN,8.515714,0.831202,1.085535,0.213689,0.675631,-1.217185,1.396621,-1.332348,1.097946,-0.964844,0.200195,-0.366455,0.085035,0.008700,0.011482,0.999938,0.006983,-0.006662,0.005490,0.690375,-0.227069,-0.636195,-0.258994
13246,NaN,8.748063,-0.053389,1.495834,-0.700095,0.380128,-0.973405,1.481500,-1.269164,1.048835,-0.964844,0.202148,-0.353760,0.087385,-0.000189,0.015511,0.999939,0.007407,-0.006346,0.005244,0.690035,-0.225341,-0.641793,-0.247337
13247,NaN,9.579406,-0.659074,0.606292,-0.388687,-0.563707,-0.215991,1.105559,-1.257871,0.884099,-0.967285,0.208740,-0.345459,0.095782,-0.006203,0.006630,0.999955,0.005528,-0.006289,0.004420,0.688307,-0.225941,-0.646467,-0.239298
13248,NaN,10.349407,0.349574,-1.138002,1.623126,-0.751946,0.450177,0.236647,-0.736873,0.817323,-0.967529,0.217285,-0.343506,0.103520,0.003932,-0.010994,0.999984,0.001183,-0.003684,0.004087,0.687728,-0.227316,-0.648788,-0.233305
13249,NaN,10.304791,1.147396,-1.598334,2.488478,-0.311401,0.374063,-0.516215,-0.218829,0.830295,-0.963623,0.232178,-0.337158,0.103017,0.011861,-0.015901,0.999987,-0.002581,-0.001094,0.004151,0.687392,-0.232069,-0.647979,-0.231861
13250,NaN,9.560264,1.599972,-1.236797,2.483612,0.353026,-0.368383,-0.808482,-0.168266,0.810881,-0.966064,0.240723,-0.333008,0.095547,0.016337,-0.012353,0.999983,-0.004042,-0.000841,0.004054,0.687196,-0.236825,-0.646972,-0.230440
13251,NaN,9.264379,2.058725,-0.330511,2.079630,1.340340,-0.644564,-0.701462,-0.349597,0.768231,-0.966064,0.247070,-0.331055,0.092570,0.020932,-0.003216,0.999985,-0.003507,-0.001748,0.003841,0.686109,-0.242152,-0.646438,-0.229640
13252,NaN,8.953587,2.536190,0.633344,1.625477,2.395886,-0.946060,-0.425307,-0.601865,0.709880,-0.970703,0.255615,-0.318359,0.089426,0.025693,0.006548,0.999987,-0.002127,-0.003009,0.003549,0.684763,-0.245793,-0.647463,-0.226884
13253,NaN,8.358221,2.787635,1.779455,0.857703,3.392614,-1.533134,-0.111428,-0.800855,0.712523,-0.973145,0.266357,-0.312012,0.083410,0.028184,0.018113,0.999985,-0.000557,-0.004004,0.003563,0.682832,-0.249417,-0.649186,-0.223806
13254,NaN,8.504284,3.012533,2.820714,0.169768,4.323594,-1.408460,0.196434,-1.069024,0.747651,-0.975098,0.266357,-0.303467,0.084777,0.030415,0.028691,0.999978,0.000982,-0.005345,0.003738,0.680537,-0.252077,-0.652220,-0.218942
13255,NaN,9.277487,2.850427,3.339800,-0.351316,4.663329,-0.676016,0.484442,-1.304039,0.774031,-0.975342,0.274902,-0.291016,0.092443,0.028780,0.034071,0.999968,0.002422,-0.006520,0.003870,0.677720,-0.254405,-0.656184,-0.213066
13256,NaN,10.306986,2.496551,3.426183,-0.689817,4.620083,0.305680,0.729935,-1.481617,0.772780,-0.975586,0.283447,-0.278320,0.102715,0.025236,0.035115,0.999958,0.003650,-0.007408,0.003864,0.674877,-0.255136,-0.661284,-0.205307
13257,NaN,11.449519,2.032885,3.118131,-0.798054,4.288993,1.408304,0.933152,-1.557071,0.756933,-0.977539,0.285645,-0.267822,0.114170,0.020613,0.032167,0.999952,0.004666,-0.007785,0.003785,0.671663,-0.256108,-0.666490,-0.197659
13258,NaN,12.643715,1.534050,2.519616,-0.695015,3.782104,2.587901,0.950941,-1.317423,0.783354,-0.981934,0.289795,-0.257324,0.126206,0.015712,0.026102,0.999959,0.004755,-0.006587,0.003917,0.669244,-0.256894,-0.670722,-0.190395
13259,NaN,12.121700,1.044783,2.207131,-0.833017,3.309431,2.072194,0.891145,-1.000678,0.782990,-0.984131,0.291992,-0.246582,0.121063,0.010822,0.022725,0.999970,0.004456,-0.005003,0.003915,0.667757,-0.257515,-0.673885,-0.183484
13260,NaN,11.922469,0.284728,2.106284,-1.254321,2.744037,1.915839,0.843546,-0.837240,0.768383,-0.982178,0.300537,-0.242432,0.119123,0.003215,0.021575,0.999975,0.004218,-0.004186,0.003842,0.666728,-0.258142,-0.676314,-0.177301
13261,NaN,12.499984,-0.109718,2.219855,-1.600578,2.672107,2.495287,0.837149,-0.742152,0.718605,-0.982422,0.309082,-0.238281,0.124919,-0.000742,0.022659,0.999978,0.004186,-0.003711,0.003593,0.665920,-0.258465,-0.678580,-0.171101
13262,NaN,13.641546,-0.484819,2.433221,-1.995027,2.732316,3.633530,0.791864,-0.619173,0.639714,-0.982422,0.311279,-0.234131,0.136354,-0.004509,0.024736,0.999982,0.003959,-0.003096,0.003199,0.665416,-0.258626,-0.680318,-0.165834
13263,NaN,14.024016,-0.418927,2.623306,-2.115855,3.028526,3.974301,0.573288,-0.260419,0.532496,-0.984863,0.315430,-0.236328,0.140216,-0.003891,0.026404,0.999991,0.002866,-0.001302,0.002662,0.665706,-0.258776,-0.680958,-0.161763
13264,NaN,14.017879,-0.061975,2.463411,-1.751486,3.267851,3.928724,0.210736,0.167217,0.355093,-0.980469,0.313232,-0.240479,0.140200,-0.000397,0.024516,0.999998,0.001054,0.000836,0.001775,0.666897,-0.259257,-0.679913,-0.160475
13265,NaN,13.446596,0.026073,2.205894,-1.435759,3.112000,3.375598,-0.093385,0.685510,0.153079,-0.982910,0.323975,-0.246826,0.134540,0.000374,0.021598,0.999994,-0.000467,0.003428,0.000765,0.669223,-0.259569,-0.677342,-0.161159
13266,NaN,13.447367,0.462431,1.764103,-0.714151,3.151917,3.367264,-0.100054,1.102383,-0.044360,-0.982910,0.319824,-0.261719,0.134569,0.004603,0.016897,0.999985,-0.000500,0.005512,-0.000222,0.672860,-0.258973,-0.673390,-0.163520
13267,NaN,13.364982,1.903358,1.650917,0.321336,4.141177,3.137815,0.024416,1.367338,-0.260548,-0.976562,0.317627,-0.272217,0.133783,0.018857,0.015597,0.999976,0.000122,0.006837,-0.001303,0.677264,-0.256921,-0.669123,-0.166070
13268,NaN,13.414333,0.656926,2.412274,-0.881172,3.410633,3.369965,0.142730,1.442624,-0.567813,-0.982666,0.304932,-0.289062,0.134331,0.006171,0.023159,0.999970,0.000714,0.007213,-0.002839,0.681858,-0.253444,-0.664815,-0.169873
13269,NaN,14.072672,-2.158174,3.273860,-3.063978,1.485516,4.393534,0.384805,1.180936,-0.998866,-0.980469,0.307129,-0.293213,0.140806,-0.022347,0.031865,0.999968,0.001924,0.005905,-0.004994,0.685400,-0.247832,-0.662352,-0.173479
13270,NaN,15.812113,-4.034864,3.129573,-3.860435,-0.245861,6.346703,0.749496,0.978743,-1.408584,-0.984131,0.283447,-0.303711,0.157981,-0.041577,0.030368,0.999956,0.003747,0.004894,-0.007043,0.688406,-0.239848,-0.661091,-0.177565
13271,NaN,16.393137,-3.325988,2.451808,-2.850416,-0.351425,6.847071,0.906763,1.247392,-1.746870,-0.979492,0.266357,-0.322510,0.163780,-0.034798,0.023341,0.999932,0.004534,0.006237,-0.008734,0.692018,-0.229861,-0.659645,-0.182053
13272,NaN,14.828556,-1.807700,2.167098,-1.826889,0.263177,5.168287,0.684485,1.735412,-1.952804,-0.982910,0.240723,-0.341309,0.148279,-0.019596,0.020319,0.999909,0.003422,0.008677,-0.009764,0.696794,-0.219553,-0.656159,-0.189021
13273,NaN,13.042148,-0.238801,0.996693,-0.038631,0.487711,3.260044,0.239889,2.120847,-2.033293,-0.982666,0.228027,-0.364502,0.130484,-0.003725,0.008580,0.999891,0.001199,0.010604,-0.010166,0.702019,-0.210051,-0.651151,-0.197614
13274,NaN,12.066242,1.221833,-0.739720,2.239051,0.370814,2.123450,-0.199587,2.402872,-1.997258,-0.971680,0.206543,-0.387695,0.120676,0.011005,-0.008858,0.999877,-0.000998,0.012014,-0.009986,0.707670,-0.201940,-0.644248,-0.208249
13275,NaN,11.460092,2.636946,-1.900010,4.043261,0.568239,1.377265,-0.468883,2.397677,-1.946648,-0.967041,0.191650,-0.413086,0.114611,0.025207,-0.020434,0.999878,-0.002344,0.011988,-0.009733,0.712808,-0.194839,-0.637156,-0.219031
13276,NaN,11.750155,4.096525,-2.628498,5.594969,0.994227,1.565097,-0.358282,2.199421,-1.846784,-0.968750,0.178955,-0.427734,0.117574,0.039831,-0.027650,0.999895,-0.001791,0.010997,-0.009234,0.717420,-0.187878,-0.630403,-0.229351
13277,NaN,11.328992,4.556828,-2.420627,5.718680,1.222073,1.176715,0.165718,1.783047,-1.760105,-0.968262,0.159668,-0.446533,0.113464,0.044591,-0.025180,0.999921,0.000829,0.008915,-0.008800,0.721124,-0.179708,-0.625794,-0.236787
13278,NaN,11.990742,3.322292,-1.079265,4.032909,0.595771,1.992198,0.626988,1.541907,-1.724488,-0.963379,0.138184,-0.458984,0.120101,0.032223,-0.011616,0.999928,0.003135,0.007709,-0.008622,0.724405,-0.170266,-0.622286,-0.242913
13279,NaN,11.542675,0.132124,0.920591,0.582419,-1.137392,1.696400,0.704043,1.627020,-1.689763,-0.958740,0.121094,-0.475830,0.115502,0.000315,0.008269,0.999925,0.003520,0.008135,-0.008449,0.727964,-0.160501,-0.618633,-0.248198
13280,NaN,10.738651,-1.785390,2.861435,-2.128145,-1.812181,1.090289,0.092232,1.770837,-1.765162,-0.949951,0.104004,-0.494873,0.107471,-0.018815,0.027654,0.999922,0.000461,0.008854,-0.008826,0.731227,-0.152532,-0.613509,-0.256220
13281,NaN,10.055400,-2.693251,2.781793,-2.607974,-2.709497,0.284650,-1.181616,1.825857,-1.866862,-0.943359,0.097656,-0.511719,0.100547,-0.027710,0.027062,0.999897,-0.005908,0.009129,-0.009334,0.733464,-0.148801,-0.606673,-0.268023
13282,NaN,9.577367,-2.717291,1.135210,-1.333835,-3.721697,-0.605900,-2.608229,1.882513,-1.991568,-0.936768,0.087158,-0.526367,0.095601,-0.027982,0.010813,0.999821,-0.013040,0.009412,-0.009957,0.734410,-0.149809,-0.597477,-0.284992
13283,NaN,9.715203,-2.846059,-0.592991,-0.060709,-5.020792,-1.002484,-3.809244,2.155973,-1.990079,-0.924316,0.093506,-0.545654,0.096794,-0.029544,-0.006419,0.999711,-0.019044,0.010779,-0.009949,0.734955,-0.154765,-0.585443,-0.305198
13284,NaN,9.349818,-2.159219,-1.665497,1.078162,-5.257094,-1.685682,-4.394367,2.488292,-1.932417,-0.918213,0.100098,-0.571045,0.093069,-0.022869,-0.017322,0.999635,-0.021969,0.012440,-0.009661,0.735608,-0.161431,-0.570719,-0.327263
13285,NaN,9.366980,-0.620924,-1.653980,2.056123,-4.401429,-1.611982,-4.217597,2.749502,-1.867382,-0.901855,0.113037,-0.592285,0.093366,-0.007447,-0.017676,0.999640,-0.021085,0.013746,-0.009336,0.736735,-0.167085,-0.555000,-0.348252
13286,NaN,8.570511,0.121306,-0.768499,1.857932,-3.350685,-2.107363,-3.413471,2.891913,-1.761700,-0.886963,0.108887,-0.617676,0.085587,0.000313,-0.008934,0.999711,-0.017066,0.014458,-0.008808,0.738613,-0.169706,-0.539603,-0.366714
13287,NaN,8.011814,0.572482,0.216983,1.495599,-2.470019,-2.314689,-2.401914,2.836347,-1.639768,-0.872070,0.111084,-0.634766,0.080181,0.005084,0.000969,0.999794,-0.012009,0.014181,-0.008198,0.741075,-0.168945,-0.525996,-0.381567
13288,NaN,7.734554,0.020991,1.353471,0.373178,-2.214576,-2.288907,-1.576555,2.783712,-1.533812,-0.853027,0.106689,-0.664307,0.077523,-0.000283,0.012457,0.999843,-0.007882,0.013918,-0.007669,0.744003,-0.165428,-0.513812,-0.393816
13289,NaN,7.443397,-0.719635,2.460056,-0.863020,-2.055074,-2.262745,-1.035338,2.781819,-1.431230,-0.844482,0.102539,-0.681396,0.074713,-0.007606,0.023601,0.999864,-0.005176,0.013908,-0.007156,0.747382,-0.160130,-0.502529,-0.404033
13290,NaN,6.572576,-1.026834,3.387503,-1.749092,-1.457889,-2.703523,-0.705936,2.733964,-1.334969,-0.821045,0.098389,-0.704590,0.066111,-0.010591,0.033010,0.999878,-0.003530,0.013669,-0.006675,0.750888,-0.153886,-0.491835,-0.413018
13291,NaN,5.874780,-1.040740,3.629660,-1.960310,-1.160502,-3.211298,-0.576728,2.666029,-1.201619,-0.803955,0.087646,-0.725830,0.059161,-0.010659,0.035540,0.999889,-0.002884,0.013330,-0.006008,0.754445,-0.147601,-0.481495,-0.420939
13292,NaN,5.285620,-1.126312,3.859540,-2.205641,-0.933342,-3.618795,-0.571375,2.565027,-1.113552,-0.789062,0.087646,-0.742676,0.053282,-0.011450,0.037946,0.999898,-0.002857,0.012825,-0.005568,0.757784,-0.141687,-0.471325,-0.428416
13293,NaN,5.168562,-0.410908,3.422784,-1.343977,-0.860982,-3.808620,-0.669438,2.482306,-1.057991,-0.767578,0.079102,-0.763916,0.052083,-0.004271,0.033597,0.999903,-0.003347,0.012411,-0.005290,0.760830,-0.136426,-0.461180,-0.435704
13294,NaN,5.121740,0.530302,3.177021,-0.400617,-0.573704,-3.803081,-0.793408,2.365625,-1.005691,-0.752930,0.083496,-0.778809,0.051614,0.005169,0.031141,0.999910,-0.003967,0.011828,-0.005028,0.763505,-0.131994,-0.451024,-0.442962
13295,NaN,4.953783,1.465917,2.919929,0.523764,-0.227712,-3.906161,-0.988119,2.065104,-0.977567,-0.742432,0.085693,-0.791504,0.049907,0.014558,0.028613,0.999923,-0.004940,0.010325,-0.004888,0.765296,-0.129003,-0.441552,-0.450236
13296,NaN,5.528457,2.550720,2.692574,1.704001,-0.206123,-3.380555,-1.115077,1.585818,-0.919925,-0.731934,0.083496,-0.793701,0.055612,0.025400,0.026344,0.999942,-0.005575,0.007929,-0.004600,0.765984,-0.127697,-0.433473,-0.457234
13297,NaN,5.314173,2.923488,2.413426,2.175408,-0.146731,-3.659897,-1.361006,1.166022,-0.763116,-0.728027,0.098633,-0.806396,0.053392,0.029193,0.023625,0.999953,-0.006805,0.005830,-0.003816,0.765872,-0.128609,-0.426353,-0.463814
13298,NaN,5.043650,2.895740,3.010188,1.838388,0.277880,-3.533558,-1.528497,0.613077,-0.605013,-0.719727,0.103027,-0.814941,0.050616,0.029033,0.029725,0.999962,-0.007642,0.003065,-0.003025,0.764774,-0.131770,-0.420785,-0.469785
13299,NaN,4.908096,2.600283,4.602508,0.797350,1.122474,-2.731872,-1.437005,0.028877,-0.469860,-0.724121,0.111572,-0.804443,0.049149,0.026217,0.045830,0.999971,-0.007185,0.000144,-0.002349,0.762774,-0.136230,-0.417586,-0.474594
13300,NaN,3.888240,2.276062,6.151515,-0.403336,2.526201,-2.629708,-1.352223,-0.347733,-0.350839,-0.724365,0.115723,-0.808594,0.038816,0.023108,0.061427,0.999974,-0.006761,-0.001739,-0.001754,0.760275,-0.141491,-0.415890,-0.478537
13301,NaN,1.627803,1.821738,7.106378,-1.636010,4.310743,-3.878952,-1.298583,-0.675783,-0.214683,-0.737549,0.130859,-0.802490,0.016058,0.018661,0.070998,0.999973,-0.006493,-0.003379,-0.001073,0.757428,-0.147619,-0.415481,-0.481547
13302,NaN,-0.655805,1.088952,7.576302,-2.856065,5.697878,-5.524070,-1.065062,-1.043416,-0.026936,-0.743896,0.135010,-0.789795,-0.006951,0.011294,0.075668,0.999972,-0.005325,-0.005217,-0.000135,0.754383,-0.154111,-0.416800,-0.483150
13303,NaN,-1.424157,0.964228,7.658173,-3.096260,6.223638,-6.167982,-0.645500,-1.377926,0.119745,-0.756836,0.141357,-0.781250,-0.014774,0.009880,0.076450,0.999971,-0.003227,-0.006890,0.000599,0.751292,-0.160144,-0.420322,-0.482953
13304,NaN,-1.404069,1.605809,7.292380,-2.345570,6.347837,-6.358565,-0.210632,-1.527382,0.157927,-0.763184,0.139160,-0.768555,-0.014610,0.016123,0.072797,0.999970,-0.001053,-0.007637,0.000790,0.748264,-0.164950,-0.425266,-0.481706
13305,NaN,-1.961275,2.662921,5.910779,-0.880798,6.318288,-7.537264,0.240624,-1.652495,0.152588,-0.775879,0.141357,-0.753662,-0.020121,0.026543,0.058975,0.999965,0.001203,-0.008262,0.000763,0.745301,-0.168373,-0.431875,-0.479229
13306,NaN,-2.800863,3.818812,2.849712,1.429891,5.338761,-9.852884,0.839589,-2.010980,0.148876,-0.796631,0.128418,-0.745117,-0.028323,0.038048,0.028373,0.999940,0.004198,-0.010055,0.000744,0.741962,-0.170361,-0.441028,-0.475356
13307,NaN,-4.245014,3.745918,-0.227711,2.653167,4.020198,-12.796371,1.635175,-2.704702,0.209781,-0.819580,0.117676,-0.728027,-0.042456,0.037435,-0.002545,0.999875,0.008176,-0.013523,0.001049,0.737808,-0.171190,-0.454701,-0.468594
13308,NaN,-4.100515,2.955335,-0.824755,2.345944,3.089245,-13.156479,2.051232,-3.522333,0.343381,-0.842529,0.102539,-0.694092,-0.040906,0.029571,-0.008665,0.999791,0.010255,-0.017610,0.001717,0.732173,-0.172588,-0.471902,-0.459830
13309,NaN,3.048784,1.441536,0.611672,1.241089,-0.324501,-6.634718,1.716845,-4.326448,0.666080,-0.876465,0.108887,-0.660156,0.030296,0.014460,0.006898,0.999724,0.008583,-0.021630,0.003330,0.724787,-0.177799,-0.490969,-0.449468
13310,NaN,11.862955,0.812641,-0.323849,2.101110,-5.244410,0.654047,1.470623,-4.309701,0.941166,-0.906006,0.106689,-0.628174,0.118622,0.008696,-0.000620,0.999730,0.007352,-0.021547,0.004705,0.717400,-0.184384,-0.508727,-0.438790
13311,NaN,24.066314,-0.683425,6.442215,-2.061855,-6.025760,14.281443,1.461590,-3.618157,1.122526,-0.920654,0.108643,-0.596436,0.239481,-0.005980,0.068716,0.999794,0.007307,-0.018090,0.005612,0.711869,-0.189922,-0.523759,-0.427608
13312,NaN,45.039540,8.100429,12.242139,3.091230,-4.453221,37.245733,0.736166,-2.610754,1.358047,-0.939941,0.113037,-0.577393,0.448182,0.083587,0.128586,0.999885,0.003681,-0.013053,0.006790,0.708540,-0.196407,-0.533128,-0.418533
13313,NaN,46.538788,11.383392,-3.632999,14.991788,-13.508227,33.791561,0.561356,-1.739474,0.978748,-0.939941,0.119385,-0.569092,0.465114,0.116204,-0.031960,0.999946,0.002807,-0.008697,0.004894,0.706473,-0.200683,-0.539463,-0.411827
13314,NaN,18.615035,-0.754022,-0.570114,1.162338,-7.689122,7.126575,-0.507380,0.069743,-0.530432,-0.944092,0.110840,-0.573242,0.186127,-0.008048,-0.005746,0.999993,-0.002537,0.000349,-0.002652,0.705005,-0.200874,-0.538687,-0.415252
13315,NaN,1.725799,-3.265141,1.338548,-3.295027,-1.515513,-8.303693,-1.008323,-0.260318,-0.804102,-0.946045,0.110840,-0.566895,0.017109,-0.032652,0.013572,0.999978,-0.005042,-0.001302,-0.004020,0.701615,-0.202825,-0.538294,-0.420520
13316,NaN,-2.959855,-3.115890,1.606041,-3.646761,0.538495,-12.543977,-0.634736,-0.678549,-0.446320,-0.954590,0.112793,-0.556152,-0.029722,-0.031042,0.016058,0.999987,-0.003174,-0.003393,-0.002232,0.698164,-0.205266,-0.539793,-0.423151
13317,NaN,-5.815354,-0.495551,1.542532,-1.623638,2.993378,-14.797300,-0.211288,-1.226027,0.152953,-0.958984,0.119385,-0.552002,-0.058243,-0.004984,0.015074,0.999980,-0.001056,-0.006130,0.000765,0.694957,-0.209033,-0.543445,-0.421909
13318,NaN,-0.339350,1.161870,0.181056,0.822446,0.903665,-9.882242,0.198100,-2.187788,0.764842,-0.971924,0.125732,-0.532959,-0.003458,0.011604,0.001784,0.999932,0.000990,-0.010939,0.003824,0.690768,-0.215023,-0.550604,-0.416461
13319,NaN,6.268999,1.569986,0.061546,1.512841,-1.118825,-3.629945,0.464604,-2.289444,0.972682,-0.982666,0.129883,-0.505371,0.062600,0.016002,0.001369,0.999920,0.002323,-0.011447,0.004863,0.686943,-0.220873,-0.558376,-0.409318
13320,NaN,8.540980,1.808411,0.353811,1.591976,-1.303748,-1.321145,0.605906,-1.966737,1.106112,-0.993408,0.138428,-0.490723,0.085267,0.018543,0.004433,0.999932,0.003029,-0.009833,0.005530,0.684314,-0.225887,-0.565097,-0.401690
13321,NaN,10.243496,1.084186,0.419434,1.014256,-1.953691,0.258561,0.778361,-1.878704,1.349287,-0.995605,0.149170,-0.471680,0.102313,0.011513,0.005200,0.999926,0.003892,-0.009393,0.006746,0.682552,-0.230819,-0.571509,-0.392713
13322,NaN,13.723326,1.000438,0.134734,1.254671,-2.887159,3.582447,0.849209,-1.763137,1.592853,-1.008545,0.155518,-0.463379,0.137129,0.011088,0.002602,0.999920,0.004246,-0.008815,0.007964,0.681538,-0.235914,-0.577315,-0.382830
13323,NaN,16.871744,1.127775,0.030028,1.583026,-3.327747,6.689932,0.763022,-1.539368,1.612041,-1.013428,0.174805,-0.450684,0.168610,0.012633,0.001645,0.999931,0.003815,-0.007697,0.008060,0.681039,-0.240924,-0.582066,-0.373282
13324,NaN,15.430771,0.768723,0.880195,0.760024,-2.255028,5.478030,0.278972,-1.117334,1.244434,-1.013672,0.183350,-0.438232,0.154204,0.008634,0.009675,0.999964,0.001395,-0.005587,0.006222,0.680386,-0.245674,-0.584905,-0.366886
13325,NaN,11.315195,-0.340710,1.183717,-0.469285,-1.624777,1.442924,-0.097058,-1.061989,0.842770,-1.017822,0.187500,-0.423340,0.113100,-0.002924,0.012439,0.999977,-0.000485,-0.005310,0.004214,0.678697,-0.250438,-0.587279,-0.362980
13326,NaN,8.619133,0.371487,1.328338,-0.135825,-0.410038,-1.094646,-0.063041,-1.184209,0.572485,-1.022217,0.191650,-0.414795,0.086100,0.003966,0.013792,0.999978,-0.000315,-0.005921,0.002862,0.676129,-0.254484,-0.590497,-0.359723
13327,NaN,6.793156,1.459712,1.048652,0.789407,0.487310,-2.847355,-0.006020,-1.356102,0.639641,-1.024658,0.204590,-0.400146,0.067811,0.014814,0.010946,0.999972,-0.000030,-0.006780,0.003198,0.673255,-0.258852,-0.594228,-0.355833
13328,NaN,6.844385,1.944320,1.544610,0.846757,1.268901,-2.693455,0.076411,-1.423547,0.877114,-1.029053,0.208740,-0.391846,0.068245,0.019737,0.015940,0.999965,0.000382,-0.007118,0.004386,0.670623,-0.263731,-0.598044,-0.350791
13329,NaN,6.980428,1.999274,2.151817,0.505865,1.877770,-2.493516,0.224629,-1.474998,1.066942,-1.033691,0.223877,-0.372803,0.069535,0.020340,0.022054,0.999958,0.001123,-0.007375,0.005335,0.668357,-0.268771,-0.601939,-0.344573
13330,NaN,6.954981,1.912864,2.110901,0.447658,1.933524,-2.563824,0.411820,-1.512864,1.187945,-1.040039,0.230225,-0.360107,0.069272,0.019496,0.021674,0.999952,0.002059,-0.007564,0.005940,0.666329,-0.273566,-0.606117,-0.337327
13331,NaN,7.436065,1.938403,1.207114,1.041507,1.339179,-2.221277,0.488428,-1.406532,1.316731,-1.040283,0.238770,-0.343262,0.074143,0.019842,0.012641,0.999951,0.002442,-0.007033,0.006584,0.664928,-0.278315,-0.609783,-0.329510
13332,NaN,7.750122,1.671840,0.518801,1.278154,0.759849,-2.007840,0.457823,-1.362593,1.275694,-1.044922,0.247314,-0.343262,0.077355,0.017199,0.005754,0.999954,0.002289,-0.006813,0.006378,0.663436,-0.282912,-0.613297,-0.321994
13333,NaN,8.403342,1.351039,-0.484886,1.697743,-0.119238,-1.459353,0.214101,-1.226562,1.214628,-1.043213,0.264404,-0.324463,0.083977,0.014025,-0.004319,0.999962,0.001070,-0.006133,0.006073,0.661912,-0.287918,-0.615956,-0.315553
13334,NaN,8.813238,0.563933,-0.994955,1.444960,-0.900423,-1.090242,-0.220492,-0.989181,1.113872,-1.047363,0.268555,-0.311768,0.088147,0.006120,-0.009520,0.999972,-0.001102,-0.004946,0.005569,0.660233,-0.293625,-0.617301,-0.311153
13335,NaN,9.255037,-0.307087,-1.434226,1.085784,-1.694972,-0.660959,-0.675450,-0.805374,0.958313,-1.045898,0.287842,-0.301270,0.092621,-0.002675,-0.013960,0.999975,-0.003377,-0.004027,0.004792,0.658234,-0.300085,-0.617473,-0.308875
13336,NaN,9.803931,-0.922970,-1.585848,0.737540,-2.119964,-0.094410,-1.048292,-0.576956,0.819051,-1.048096,0.294189,-0.295166,0.098121,-0.008910,-0.015528,0.999974,-0.005241,-0.002885,0.004095,0.656066,-0.306941,-0.616562,-0.308572
13337,NaN,10.114911,-1.614813,-1.457114,0.138541,-2.369303,0.257507,-1.245434,-0.433775,0.724243,-1.046387,0.304932,-0.286621,0.101238,-0.015871,-0.014252,0.999972,-0.006227,-0.002169,0.003621,0.653920,-0.313947,-0.614921,-0.309352
13338,NaN,10.218437,-1.903949,-1.019401,-0.346111,-2.118862,0.408404,-1.228026,-0.347242,0.669747,-1.044434,0.315674,-0.280518,0.102265,-0.018759,-0.009901,0.999974,-0.006140,-0.001736,0.003349,0.651879,-0.320548,-0.613155,-0.310394
13339,NaN,10.196137,-1.952877,-0.368381,-0.764724,-1.546131,0.431077,-1.095566,-0.361704,0.634591,-1.048828,0.319824,-0.274170,0.102029,-0.019224,-0.003393,0.999978,-0.005478,-0.001809,0.003173,0.649988,-0.326646,-0.611590,-0.311089
13340,NaN,10.133896,-1.947472,0.326655,-1.160094,-0.898297,0.406990,-0.855595,-0.402108,0.610798,-1.044678,0.328369,-0.270020,0.101391,-0.019150,0.003553,0.999984,-0.004278,-0.002011,0.003054,0.648238,-0.331920,-0.610627,-0.311048
13341,NaN,9.578206,-1.889677,1.091385,-1.573655,-0.165036,-0.117334,-0.509159,-0.416413,0.593160,-1.047119,0.334961,-0.261475,0.095814,-0.018584,0.011161,0.999990,-0.002546,-0.002082,0.002966,0.647041,-0.336053,-0.610181,-0.309977
13342,NaN,9.390401,-1.385856,1.865512,-1.610728,0.832633,-0.310468,-0.112010,-0.551430,0.549799,-1.040771,0.341309,-0.261719,0.093890,-0.013590,0.018922,0.999992,-0.000560,-0.002757,0.002749,0.645963,-0.338956,-0.610923,-0.307592
13343,NaN,9.402633,-0.716207,2.342560,-1.336081,1.684589,-0.337107,0.307923,-0.647506,0.555077,-1.045410,0.349854,-0.249023,0.093969,-0.006938,0.023719,0.999990,0.001540,-0.003238,0.002775,0.645357,-0.340676,-0.612527,-0.303750
13344,NaN,10.122464,0.380664,2.360553,-0.420433,2.440245,0.289247,0.662918,-0.793142,0.561090,-1.049561,0.352051,-0.242676,0.101119,0.004011,0.024020,0.999983,0.003315,-0.003966,0.002805,0.644855,-0.341468,-0.615170,-0.298542
13345,NaN,11.502000,1.194702,1.942819,0.549297,2.734508,1.576664,0.887709,-0.865989,0.579675,-1.047607,0.356201,-0.238525,0.114899,0.012192,0.019980,0.999977,0.004439,-0.004330,0.002898,0.644560,-0.341701,-0.618270,-0.292448
13346,NaN,12.527802,1.344997,1.686192,0.859157,2.788903,2.559879,0.950194,-0.872962,0.578637,-1.049805,0.358398,-0.236328,0.125163,0.013730,0.017473,0.999975,0.004751,-0.004365,0.002893,0.644276,-0.341702,-0.621498,-0.286161
13347,NaN,13.440174,1.687896,1.216843,1.446442,2.806498,3.415982,0.832474,-0.813011,0.555643,-1.047852,0.366943,-0.228027,0.134303,0.017200,0.012786,0.999979,0.004162,-0.004065,0.002778,0.643955,-0.341931,-0.624333,-0.280381
13348,NaN,14.199196,1.962415,0.979581,1.831943,2.967072,4.125277,0.638036,-0.706056,0.495220,-1.052002,0.360352,-0.221436,0.141907,0.019943,0.010360,0.999986,0.003190,-0.003530,0.002476,0.643487,-0.342405,-0.626669,-0.275626
13349,NaN,14.640378,2.229099,0.897826,2.102629,3.217648,4.517012,0.422686,-0.583036,0.422883,-1.047852,0.368896,-0.213135,0.146329,0.022581,0.009452,0.999991,0.002113,-0.002915,0.002114,0.642963,-0.343197,-0.628385,-0.271932
13350,NaN,14.465265,2.152159,0.924946,2.004600,3.275140,4.328937,0.201747,-0.468417,0.394555,-1.054199,0.368896,-0.217285,0.144588,0.021797,0.009610,0.999995,0.001009,-0.002342,0.001973,0.642326,-0.344408,-0.629507,-0.269299
13351,NaN,13.876939,1.485064,1.047780,1.381811,2.989220,3.789789,-0.037849,-0.319814,0.462283,-1.048096,0.375488,-0.208984,0.138718,0.015173,0.010697,0.999996,-0.000189,-0.001599,0.002311,0.641875,-0.346441,-0.629672,-0.267374
13352,NaN,13.107432,0.354777,1.809653,0.005433,2.888288,3.104845,-0.226840,-0.276490,0.568574,-1.052490,0.381836,-0.206787,0.131038,0.003941,0.018273,0.999994,-0.001134,-0.001382,0.002843,0.641321,-0.349297,-0.629287,-0.265888
13353,NaN,12.499847,-0.144633,2.684522,-0.923600,3.287513,2.508518,-0.352557,-0.294546,0.677085,-1.048340,0.390381,-0.198486,0.124963,-0.000976,0.027031,0.999992,-0.001763,-0.001473,0.003385,0.640675,-0.352974,-0.628562,-0.264302
13354,NaN,13.389445,0.294445,3.186322,-0.775979,4.135380,3.295014,-0.370587,-0.355721,0.745830,-1.046387,0.394775,-0.198486,0.133825,0.003503,0.032095,0.999990,-0.001853,-0.001779,0.003729,0.639847,-0.356934,-0.627892,-0.262575
13355,NaN,14.657210,0.635801,3.407348,-0.491137,4.758357,4.468901,-0.202485,-0.272294,0.698264,-1.046631,0.403320,-0.198730,0.146502,0.006904,0.034266,0.999992,-0.001012,-0.001361,0.003491,0.639543,-0.360156,-0.627234,-0.260481
13356,NaN,15.638943,0.513225,3.307959,-0.391028,4.791153,5.440967,0.080169,-0.017595,0.526467,-1.048828,0.407471,-0.196533,0.156372,0.005531,0.033096,0.999996,0.000401,-0.000088,0.002632,0.640296,-0.361523,-0.626427,-0.258673
13357,NaN,15.477247,0.275694,3.097008,-0.405878,4.473801,5.321141,0.300821,0.337894,0.186891,-1.046875,0.409668,-0.202881,0.154822,0.002855,0.030713,0.999997,0.001504,0.001689,0.000934,0.642138,-0.360734,-0.625382,-0.257735
13358,NaN,13.765743,-0.011030,3.675519,-1.101712,4.485958,3.665699,0.314735,0.588449,-0.254145,-1.053223,0.403320,-0.213379,0.137764,-0.000343,0.036350,0.999994,0.001574,0.002942,-0.001271,0.644207,-0.358104,-0.624317,-0.258818
13359,NaN,13.818929,-0.236686,4.011859,-1.482570,4.501108,3.776053,0.236765,0.750630,-0.729979,-1.054932,0.394775,-0.221680,0.138329,-0.002919,0.039596,0.999986,0.001184,0.003753,-0.003650,0.646021,-0.354113,-0.623491,-0.261763
13360,NaN,14.554928,-1.092097,3.199354,-1.615353,3.227289,4.687151,0.211802,0.993092,-1.162867,-1.058838,0.377686,-0.238525,0.145639,-0.011801,0.031258,0.999970,0.001059,0.004965,-0.005814,0.647960,-0.348416,-0.622541,-0.266828
13361,NaN,14.956989,-1.068639,1.746477,-0.712590,1.880079,5.149047,0.158236,1.303997,-1.531502,-1.062744,0.362793,-0.253174,0.149592,-0.011845,0.016480,0.999949,0.000791,0.006520,-0.007657,0.650219,-0.341405,-0.621151,-0.273547
13362,NaN,14.439747,-0.007363,1.085465,0.429421,1.648847,4.566831,-0.056993,1.713848,-1.833858,-1.064453,0.347656,-0.274170,0.144475,-0.001395,0.009617,0.999921,-0.000285,0.008569,-0.009169,0.652902,-0.333439,-0.618508,-0.282817
13363,NaN,12.451539,1.778616,1.062352,1.656302,2.288622,2.489357,-0.388159,2.133964,-1.997887,-1.066162,0.328613,-0.295166,0.124789,0.016559,0.009260,0.999891,-0.001941,0.010669,-0.009989,0.655960,-0.325499,-0.614244,-0.294059
13364,NaN,11.124723,3.531928,1.385761,2.735957,3.232313,1.151290,-0.678542,2.427720,-2.063188,-1.065430,0.302979,-0.320312,0.111760,0.034212,0.012386,0.999867,-0.003393,0.012138,-0.010315,0.659202,-0.317676,-0.608483,-0.307055
13365,NaN,11.463016,4.491990,2.109618,3.100737,4.007409,1.604022,-0.693762,2.479678,-2.041817,-1.060547,0.279297,-0.339355,0.115330,0.043814,0.019516,0.999865,-0.003469,0.012398,-0.010209,0.662423,-0.309927,-0.602394,-0.319785
13366,NaN,12.399517,5.081196,2.000013,3.722236,3.817460,2.642138,-0.432614,2.502931,-2.003870,-1.060303,0.266602,-0.375244,0.124733,0.049606,0.018334,0.999869,-0.002163,0.012514,-0.010019,0.665998,-0.301155,-0.596363,-0.331818
13367,NaN,12.422157,2.995972,0.853137,2.741157,1.250438,2.634138,0.039112,2.428384,-1.899826,-1.057861,0.245361,-0.402588,0.124590,0.028776,0.007026,0.999881,0.000196,0.012141,-0.009499,0.670071,-0.291320,-0.591120,-0.341637
13368,NaN,11.557856,-0.223823,0.588225,0.238808,-1.148882,1.702260,0.558227,2.155116,-1.853721,-1.057129,0.221680,-0.423340,0.115605,-0.003324,0.004628,0.999895,0.002791,0.010775,-0.009268,0.673997,-0.280107,-0.587426,-0.349570
13369,NaN,11.099679,-2.881948,0.987736,-2.187999,-2.678744,1.165131,0.829543,1.876501,-1.904418,-1.048096,0.198242,-0.440186,0.110801,-0.029913,0.008715,0.999902,0.004148,0.009382,-0.009522,0.677280,-0.268435,-0.585150,-0.356138
13370,NaN,10.248411,-4.562288,0.476934,-3.325632,-4.234550,0.039885,0.400765,1.646144,-2.091304,-1.047363,0.172607,-0.465332,0.102034,-0.046700,0.003835,0.999909,0.002004,0.008230,-0.010456,0.678828,-0.257860,-0.582981,-0.364465
13371,NaN,9.644409,-3.923370,-0.766436,-2.191254,-4.924772,-0.872111,-0.553135,1.344473,-2.281500,-1.040527,0.157715,-0.473877,0.095934,-0.040352,-0.008200,0.999909,-0.002766,0.006722,-0.011407,0.677819,-0.250637,-0.580286,-0.375514
13372,NaN,9.861619,-3.778182,-1.716556,-1.651744,-5.813176,-0.984093,-1.694273,1.234430,-2.435501,-1.039795,0.132080,-0.488281,0.098038,-0.039125,-0.017444,0.999871,-0.008471,0.006172,-0.012177,0.674603,-0.246846,-0.575836,-0.390374
13373,NaN,9.740559,-2.753280,-3.155675,-0.190272,-6.513464,-1.449327,-2.807344,1.507857,-2.397213,-1.035645,0.127686,-0.496826,0.096823,-0.029142,-0.031887,0.999801,-0.014036,0.007539,-0.011985,0.670672,-0.246444,-0.568103,-0.408318
13374,NaN,10.173021,0.050125,-4.258459,2.529018,-6.253389,-1.088586,-3.759142,1.864350,-2.311146,-1.033447,0.125732,-0.526367,0.101318,-0.001483,-0.043515,0.999713,-0.018794,0.009321,-0.011555,0.666412,-0.248518,-0.556813,-0.429061
13375,NaN,10.662474,2.400202,-3.309479,3.840024,-4.823039,-0.201512,-3.847434,2.165671,-2.223043,-1.018555,0.119385,-0.545410,0.106508,0.022161,-0.034687,0.999695,-0.019235,0.010827,-0.011114,0.662694,-0.250449,-0.543924,-0.449731
13376,NaN,10.773751,2.884526,-1.155963,3.087340,-3.291497,0.451275,-3.139126,2.394618,-2.089825,-1.007812,0.114990,-0.570801,0.107877,0.027519,-0.013290,0.999751,-0.015694,0.011972,-0.010448,0.660382,-0.249637,-0.531402,-0.468176
13377,NaN,10.126165,2.921562,0.948688,2.106968,-1.706699,0.415207,-2.440117,2.666181,-1.945532,-0.997314,0.115234,-0.598389,0.101651,0.028330,0.007784,0.999789,-0.012200,0.013330,-0.009727,0.659734,-0.246253,-0.519191,-0.484305
13378,NaN,9.221862,2.335990,2.608985,0.865281,-0.593300,-0.004756,-2.033542,2.849124,-1.771083,-0.971680,0.106689,-0.627930,0.092779,0.022795,0.024537,0.999808,-0.010167,0.014245,-0.008855,0.660172,-0.241330,-0.506963,-0.498919
13379,NaN,7.989892,1.041787,3.808060,-0.756610,0.089416,-0.933646,-1.951539,2.971192,-1.612187,-0.963135,0.100342,-0.646973,0.080534,0.010134,0.036787,0.999810,-0.009757,0.014855,-0.008060,0.661209,-0.236248,-0.494124,-0.512670
13380,NaN,6.219482,-0.470469,4.000552,-2.134948,0.242448,-2.721324,-1.904070,2.915490,-1.461079,-0.937988,0.104736,-0.680908,0.062735,-0.004786,0.039139,0.999822,-0.009520,0.014577,-0.007305,0.662265,-0.231329,-0.481256,-0.525628
13381,NaN,5.124921,-1.702553,3.756538,-3.107048,-0.018661,-4.014457,-1.769631,2.716818,-1.351620,-0.921143,0.104736,-0.704346,0.051639,-0.017044,0.037016,0.999846,-0.008848,0.013583,-0.006758,0.663110,-0.226781,-0.469085,-0.537415
13382,NaN,4.483085,-2.050453,3.394755,-3.250262,-0.211944,-4.791049,-1.600017,2.500255,-1.313089,-0.901855,0.096191,-0.729736,0.045117,-0.020531,0.033549,0.999868,-0.008000,0.012501,-0.006565,0.663521,-0.222179,-0.457919,-0.548348
13383,NaN,4.217594,-1.537661,3.003816,-2.603845,-0.323548,-5.091460,-1.491121,2.372009,-1.284540,-0.887207,0.100586,-0.744629,0.042430,-0.015427,0.029651,0.999881,-0.007455,0.011860,-0.006422,0.663704,-0.217675,-0.447321,-0.558586
13384,NaN,4.211391,-0.651813,2.631063,-1.626010,-0.463410,-5.098499,-1.449486,2.357974,-1.186740,-0.876465,0.098633,-0.763672,0.042382,-0.006581,0.025860,0.999887,-0.007247,0.011789,-0.005933,0.664000,-0.213157,-0.436668,-0.568321
13385,NaN,4.256171,0.429280,2.537858,-0.558372,-0.384912,-4.885318,-1.456422,2.138829,-1.092390,-0.857666,0.104980,-0.776367,0.042853,0.004242,0.024890,0.999901,-0.007282,0.010694,-0.005462,0.663958,-0.209527,-0.426537,-0.577343
13386,NaN,4.791949,1.637660,2.681843,0.545829,-0.411580,-4.123375,-1.415146,1.848490,-0.892779,-0.843018,0.104980,-0.793457,0.048237,0.016349,0.026258,0.999922,-0.007076,0.009242,-0.004464,0.663783,-0.206911,-0.417191,-0.585262
13387,NaN,4.733037,2.567055,2.231237,1.602661,-0.624075,-4.243962,-1.464809,1.458605,-0.615312,-0.839111,0.113770,-0.808350,0.047570,0.025685,0.021778,0.999942,-0.007324,0.007293,-0.003077,0.663481,-0.206227,-0.408662,-0.591826
13388,NaN,4.540084,2.439107,2.173778,1.534047,-0.664626,-4.474949,-1.211689,0.816388,-0.410030,-0.830811,0.120117,-0.814697,0.045539,0.024428,0.021404,0.999971,-0.006058,0.004082,-0.002050,0.662660,-0.206927,-0.402762,-0.596528
13389,NaN,4.420298,1.628339,2.862761,0.585939,-0.279443,-4.338709,-0.739914,0.293671,-0.248474,-0.828857,0.126465,-0.808350,0.044265,0.016334,0.028502,0.999991,-0.003700,0.001468,-0.001242,0.661750,-0.208018,-0.399822,-0.599131
13390,NaN,3.025105,0.932495,4.136646,-0.370350,1.408875,-4.811633,-0.454272,-0.103436,-0.120869,-0.830811,0.124268,-0.810547,0.030235,0.009401,0.041361,0.999997,-0.002271,-0.000517,-0.000604,0.660697,-0.209526,-0.398918,-0.600368
13391,NaN,1.239486,0.026567,5.331915,-1.480555,3.272554,-5.681758,-0.480911,-0.518920,-0.062814,-0.834961,0.124268,-0.808350,0.012257,0.000390,0.053350,0.999994,-0.002405,-0.002595,-0.000314,0.658976,-0.212563,-0.399239,-0.600979
13392,NaN,0.245440,-0.373340,5.884130,-1.941280,4.270920,-6.233176,-0.724433,-0.891916,-0.004414,-0.839355,0.130859,-0.795654,0.002192,-0.003520,0.058864,0.999983,-0.003622,-0.004460,-0.000022,0.656398,-0.217550,-0.399971,-0.601529
13393,NaN,0.009272,-0.512067,5.735739,-1.978975,4.325209,-6.566663,-0.890936,-1.112338,0.050411,-0.852539,0.139404,-0.795654,-0.000225,-0.004865,0.057379,0.999975,-0.004455,-0.005562,0.000252,0.653349,-0.223932,-0.400864,-0.601912
13394,NaN,-0.408880,-0.109441,5.446373,-1.451203,4.471636,-7.030575,-0.704136,-1.191931,0.072304,-0.856934,0.145752,-0.785156,-0.004413,-0.000904,0.054441,0.999976,-0.003521,-0.005960,0.000362,0.650380,-0.229883,-0.402487,-0.601801
13395,NaN,-1.371854,0.929917,4.789724,-0.209426,4.742453,-8.036993,-0.128333,-1.323284,0.046277,-0.871582,0.141357,-0.770264,-0.014037,0.009327,0.047799,0.999978,-0.000642,-0.006616,0.000231,0.647704,-0.234387,-0.406328,-0.600366
13396,NaN,-2.826393,1.812911,3.190417,1.112856,4.491860,-10.008246,0.685094,-1.688781,0.061733,-0.886230,0.135010,-0.761719,-0.028538,0.018011,0.031726,0.999958,0.003425,-0.008444,0.000309,0.645249,-0.237262,-0.413677,-0.596852
13397,NaN,-3.633893,2.139860,0.690350,2.092981,2.995621,-12.027673,1.481057,-2.293803,0.188543,-0.904785,0.119873,-0.742432,-0.036436,0.021314,0.006644,0.999906,0.007405,-0.011469,0.000943,0.642773,-0.239714,-0.425220,-0.590396
13398,NaN,-5.145522,1.517800,-1.465552,2.170910,1.893878,-14.569455,2.138533,-3.114479,0.438959,-0.927734,0.109131,-0.721191,-0.051254,0.015227,-0.015292,0.999819,0.010692,-0.015571,0.002195,0.639909,-0.242811,-0.440846,-0.580702
13399,NaN,-3.938585,0.793704,0.164546,0.967300,2.325866,-12.946764,2.272765,-4.015080,0.716844,-0.957031,0.102539,-0.674561,-0.039438,0.007782,0.000943,0.999728,0.011363,-0.020074,0.003584,0.635734,-0.248728,-0.459285,-0.568360
13400,NaN,3.433658,0.280589,0.952036,-0.267810,-0.752998,-6.329305,1.864838,-4.600016,1.084170,-0.988525,0.100342,-0.636230,0.034090,0.002897,0.010333,0.999677,0.009323,-0.022998,0.005420,0.630380,-0.258157,-0.477620,-0.554848
13401,NaN,13.195123,0.024412,0.625602,-1.146580,-5.161344,2.291833,1.920915,-4.380153,1.198125,-1.018066,0.095947,-0.598145,0.131768,0.000955,0.009150,0.999696,0.009604,-0.021899,0.005990,0.625540,-0.267054,-0.495047,-0.540657
13402,NaN,25.874198,-1.329087,7.206593,-5.617698,-4.313014,16.128486,1.929216,-3.458215,1.275982,-1.028564,0.097900,-0.574951,0.257527,-0.012368,0.076404,0.999784,0.009645,-0.017290,0.006379,0.622884,-0.273367,-0.509194,-0.527264
13403,NaN,49.298190,9.633215,10.145519,1.861585,-6.124836,41.028731,1.451654,-2.615400,1.491730,-1.043701,0.106445,-0.553711,0.490860,0.099228,0.108597,0.999860,0.007258,-0.013076,0.007458,0.622063,-0.279518,-0.519042,-0.515270
13404,NaN,46.047980,9.526961,-3.627595,7.047996,-15.924895,34.016284,1.277857,-1.573988,1.061004,-1.045654,0.106445,-0.549561,0.460228,0.097925,-0.032033,0.999935,0.006389,-0.007870,0.005305,0.622470,-0.282266,-0.525658,-0.506498
13405,NaN,16.464570,-2.715114,-0.670605,-3.400973,-6.992490,4.967066,0.098556,-0.016732,-0.645463,-1.047607,0.097900,-0.547363,0.164557,-0.027679,-0.006706,0.999995,0.000493,-0.000084,-0.003227,0.620934,-0.280322,-0.526854,-0.508217
13406,NaN,3.461593,-1.949647,0.698491,-2.329819,-1.168560,-6.734070,-0.597464,-0.545014,-0.871983,-1.051514,0.089355,-0.538818,0.034511,-0.019626,0.007138,0.999982,-0.002987,-0.002725,-0.004360,0.616424,-0.281236,-0.528245,-0.511748
13407,NaN,-1.100842,-0.178195,1.761816,-0.706450,1.875715,-10.387303,-0.665933,-0.766299,-0.334055,-1.049561,0.095703,-0.532471,-0.011079,-0.001705,0.017582,0.999986,-0.003330,-0.003831,-0.001670,0.612607,-0.284381,-0.529351,-0.513448
13408,NaN,-2.344960,2.164403,0.799843,1.936329,2.139459,-11.392674,-0.235880,-1.557332,0.629731,-1.064697,0.104248,-0.513428,-0.023579,0.021579,0.007790,0.999964,-0.001179,-0.007787,0.003149,0.609740,-0.290739,-0.532595,-0.509932
13409,NaN,4.471932,1.984388,0.186017,1.400833,-0.553739,-5.154313,0.191599,-2.177133,1.223411,-1.069092,0.114746,-0.494385,0.044573,0.020115,0.002365,0.999922,0.000958,-0.010885,0.006117,0.607299,-0.298959,-0.537887,-0.502484
13410,NaN,8.594204,2.259769,0.796385,1.131208,-0.934543,-1.012481,0.419020,-2.105265,1.473490,-1.080078,0.127686,-0.473389,0.085682,0.023212,0.008915,0.999915,0.002095,-0.010526,0.007367,0.605905,-0.306885,-0.543083,-0.493722
13411,NaN,10.759177,2.180628,0.223282,1.171655,-1.803485,0.954495,0.583054,-1.937467,1.807857,-1.080566,0.146973,-0.458740,0.107360,0.022769,0.003339,0.999908,0.002915,-0.009687,0.009039,0.605952,-0.314801,-0.547554,-0.483640
13412,NaN,13.386300,1.116630,-0.953081,0.569736,-3.568111,3.159606,0.727759,-1.728417,2.121757,-1.098145,0.168213,-0.437744,0.133810,0.012618,-0.008330,0.999900,0.003639,-0.008642,0.010608,0.607419,-0.322528,-0.551167,-0.472475
13413,NaN,16.533586,0.639104,-1.157750,0.260177,-4.280555,6.209213,0.645798,-1.304972,2.265691,-1.103027,0.189697,-0.431396,0.165320,0.008299,-0.010474,0.999909,0.003229,-0.006525,0.011328,0.610167,-0.329882,-0.552938,-0.461664
13414,NaN,16.312391,0.041155,-0.006846,-0.443678,-3.115336,6.193033,0.171159,-0.740140,2.054422,-1.094971,0.206787,-0.425293,0.163107,0.002087,0.000536,0.999940,0.000856,-0.003701,0.010272,0.613082,-0.336721,-0.552198,-0.453681
13415,NaN,13.502250,-1.396633,0.093024,-1.549318,-2.820983,3.374695,-0.342342,-0.842880,1.496427,-1.099609,0.223877,-0.419189,0.135116,-0.012953,0.001522,0.999962,-0.001712,-0.004214,0.007482,0.613554,-0.343820,-0.551451,-0.448599
13416,NaN,11.270061,-1.781622,-0.244320,-1.659470,-2.719394,1.146178,-0.551201,-1.057055,1.003564,-1.097900,0.234619,-0.410645,0.112799,-0.017256,-0.001799,0.999970,-0.002756,-0.005285,0.005018,0.611895,-0.350649,-0.551748,-0.445201
13417,NaN,9.273322,-0.528400,-0.101798,-0.490961,-1.680780,-0.690384,-0.405021,-1.227433,0.795356,-1.100098,0.243164,-0.395996,0.092757,-0.004916,-0.000439,0.999971,-0.002025,-0.006137,0.003977,0.609556,-0.356823,-0.553178,-0.441716
13418,NaN,8.620876,0.598314,0.248327,0.465557,-0.731908,-1.211220,-0.021199,-1.262765,0.889773,-1.104736,0.253906,-0.383301,0.086163,0.006367,0.003027,0.999970,-0.000106,-0.006314,0.004449,0.607942,-0.362152,-0.555409,-0.436776
13419,NaN,8.077940,0.982854,1.224643,0.508889,0.505716,-1.614961,0.430716,-1.197157,1.054808,-1.106934,0.260254,-0.372803,0.080651,0.010227,0.012751,0.999966,0.002154,-0.005986,0.005274,0.607684,-0.366393,-0.558046,-0.430188
13420,NaN,7.797242,1.156453,1.968243,0.430786,1.418168,-1.824571,0.840637,-1.286207,1.142163,-1.107178,0.270996,-0.360107,0.077776,0.011925,0.020233,0.999954,0.004203,-0.006431,0.005711,0.608030,-0.369800,-0.561679,-0.421976
13421,NaN,8.022562,1.084746,2.019184,0.371041,1.554769,-1.623763,1.170577,-1.377739,1.172002,-1.107422,0.281494,-0.354004,0.080019,0.011196,0.020808,0.999942,0.005853,-0.006889,0.005860,0.608767,-0.372437,-0.566124,-0.412551
13422,NaN,8.482080,1.152781,1.445527,0.685425,1.159365,-1.236652,1.353079,-1.199246,1.210526,-1.107422,0.283691,-0.349609,0.084660,0.011940,0.015043,0.999941,0.006765,-0.005996,0.006053,0.610321,-0.374214,-0.570308,-0.402767
13423,NaN,8.177074,0.888442,0.888645,0.692867,0.694431,-1.598071,1.242920,-0.947400,1.219272,-1.105469,0.290039,-0.339111,0.081671,0.009325,0.009331,0.999951,0.006215,-0.004737,0.006096,0.612373,-0.375806,-0.573379,-0.393706
13424,NaN,7.930384,0.024973,0.241684,0.209239,-0.129570,-1.882461,0.883765,-0.759275,1.143400,-1.105957,0.302979,-0.330811,0.079291,0.000691,0.002720,0.999967,0.004419,-0.003796,0.005717,0.614055,-0.377873,-0.575307,-0.386226
13425,NaN,7.854271,-0.580394,-0.329488,-0.051210,-0.814505,-1.972520,0.537770,-0.601249,1.014532,-1.099854,0.311523,-0.331055,0.078580,-0.005397,-0.003074,0.999979,0.002689,-0.003006,0.005073,0.615290,-0.380313,-0.576249,-0.380417
13426,NaN,7.856326,-0.953258,-0.314696,-0.343622,-0.891884,-1.950398,0.389892,-0.456503,0.849796,-1.104004,0.315674,-0.326660,0.078610,-0.009193,-0.002986,0.999986,0.001949,-0.002283,0.004249,0.616290,-0.382440,-0.576803,-0.375799
13427,NaN,8.046036,-0.480391,-0.328327,0.143471,-0.653947,-1.773489,0.403852,-0.372642,0.674725,-1.110840,0.326416,-0.328857,0.080482,-0.004526,-0.003143,0.999991,0.002019,-0.001863,0.003374,0.617252,-0.383857,-0.577401,-0.371835
13428,NaN,8.050253,0.404204,-0.324713,0.973197,-0.224298,-1.807830,0.393134,-0.320913,0.534517,-1.106689,0.328613,-0.324707,0.080496,0.004263,-0.003110,0.999993,0.001966,-0.001605,0.002673,0.618034,-0.384801,-0.578125,-0.368421
13429,NaN,7.804200,1.143770,-0.339965,1.657368,0.123025,-2.094710,0.274671,-0.207210,0.458863,-1.104492,0.330811,-0.322510,0.078019,0.011621,-0.003303,0.999996,0.001373,-0.001036,0.002294,0.618808,-0.385678,-0.578373,-0.365805
13430,NaN,7.520604,1.561133,-0.186313,1.971012,0.473328,-2.401728,0.141669,-0.103968,0.405289,-1.100342,0.334961,-0.320557,0.075175,0.015765,-0.001813,0.999998,0.000708,-0.000520,0.002026,0.619480,-0.386617,-0.578209,-0.363932
13431,NaN,7.124314,1.636951,0.129850,1.895356,0.813643,-2.798568,0.153589,-0.109586,0.342442,-1.102783,0.339355,-0.322754,0.071214,0.016490,0.001350,0.999998,0.000768,-0.000548,0.001712,0.620084,-0.387350,-0.578152,-0.362211
13432,NaN,6.696564,1.753455,0.402701,1.862471,1.133669,-3.230387,0.359441,-0.198047,0.286719,-1.100586,0.337158,-0.322754,0.066936,0.017623,0.004125,0.999997,0.001797,-0.000990,0.001434,0.620678,-0.387429,-0.578905,-0.359897
13433,NaN,6.670074,1.899250,0.658612,1.879688,1.458094,-3.265059,0.612157,-0.334861,0.231918,-1.104736,0.339355,-0.318359,0.066667,0.019049,0.006756,0.999993,0.003061,-0.001674,0.001160,0.621310,-0.386820,-0.580580,-0.356750
13434,NaN,6.870467,1.856290,1.013150,1.685964,1.795569,-3.059252,0.736216,-0.427285,0.163652,-1.106689,0.334961,-0.316406,0.068668,0.018581,0.010347,0.999991,0.003681,-0.002136,0.000818,0.621730,-0.385763,-0.582950,-0.353282
13435,NaN,7.113818,1.733922,0.906535,1.625387,1.686925,-2.816478,0.600944,-0.449908,0.095568,-1.104736,0.334961,-0.316406,0.071109,0.017346,0.009277,0.999993,0.003005,-0.002250,0.000478,0.621744,-0.384985,-0.585209,-0.350360
13436,NaN,7.633425,1.489945,0.230678,1.737908,1.018146,-2.297018,0.288376,-0.405464,0.058161,-1.106689,0.333008,-0.314209,0.076325,0.014918,0.002483,0.999997,0.001442,-0.002027,0.000291,0.621161,-0.384952,-0.586915,-0.348571
13437,NaN,8.311746,1.111003,-0.557046,1.802498,0.184510,-1.606186,-0.044478,-0.264957,0.055799,-1.108887,0.337158,-0.305664,0.083122,0.011132,-0.005463,0.999999,-0.000222,-0.001325,0.000279,0.620396,-0.385734,-0.587540,-0.348015
13438,NaN,8.974439,0.986722,-0.564647,1.736345,0.149416,-0.935988,-0.230723,-0.097981,0.058808,-1.111084,0.337158,-0.314209,0.089744,0.009887,-0.005614,0.999999,-0.001154,-0.000490,0.000294,0.619709,-0.386769,-0.587389,-0.348344
13439,NaN,9.274326,1.164645,-0.331406,1.809728,0.446682,-0.647279,-0.354680,0.017241,0.028645,-1.111084,0.337158,-0.312012,0.092741,0.011654,-0.003343,0.999998,-0.001773,0.000086,0.000143,0.619124,-0.387941,-0.586650,-0.349326
13440,NaN,8.843953,0.912319,-0.602857,1.680099,0.074889,-1.061520,-0.443336,0.023423,-0.015148,-1.115234,0.337158,-0.309814,0.088440,0.009103,-0.006059,0.999998,-0.002217,0.000117,-0.000076,0.618245,-0.389197,-0.585898,-0.350746
13441,NaN,7.965062,-0.152843,0.207798,0.303815,0.297660,-1.854808,-0.349787,-0.098070,-0.047162,-1.109131,0.341309,-0.303711,0.079649,-0.001544,0.002120,0.999998,-0.001749,-0.000490,-0.000236,0.617194,-0.390330,-0.585667,-0.351722
13442,NaN,7.611511,-1.036181,1.334044,-1.022642,0.914124,-2.137600,-0.144631,-0.292014,-0.033338,-1.117432,0.337158,-0.303467,0.076094,-0.010365,0.013459,0.999999,-0.000723,-0.001460,-0.000167,0.615934,-0.391158,-0.586449,-0.351707
13443,NaN,7.398918,-1.721100,2.069053,-1.987673,1.287117,-2.304057,0.022263,-0.473204,0.065280,-1.119385,0.334961,-0.297119,0.073946,-0.017189,0.020864,0.999997,0.000111,-0.002366,0.000326,0.614704,-0.392131,-0.587804,-0.350511
13444,NaN,6.914046,-2.060572,1.973761,-2.288375,1.076299,-2.773480,0.026861,-0.669215,0.264627,-1.117432,0.337158,-0.286621,0.069101,-0.020517,0.019966,0.999994,0.000134,-0.003346,0.001323,0.613197,-0.393963,-0.589445,-0.348336
13445,NaN,6.752766,-1.789393,0.996532,-1.618402,0.382417,-2.954929,0.080510,-1.047063,0.606112,-1.119629,0.347656,-0.274170,0.067528,-0.017693,0.010312,0.999982,0.000403,-0.005235,0.003031,0.611315,-0.397338,-0.591579,-0.344168
13446,NaN,8.518033,-1.175048,0.300867,-0.633106,0.242367,-1.235600,0.412574,-1.587755,1.116190,-1.119873,0.356201,-0.263428,0.085217,-0.011282,0.003662,0.999951,0.002063,-0.007939,0.005581,0.609285,-0.402062,-0.594942,-0.336396
13447,NaN,11.478888,-0.593390,0.162081,0.180075,0.804446,1.652773,0.833114,-2.029468,1.542627,-1.118164,0.373291,-0.240479,0.114806,-0.005058,0.002763,0.999910,0.004165,-0.010147,0.007713,0.607463,-0.407509,-0.599360,-0.325105
13448,NaN,15.717779,-0.165747,0.562493,0.722923,2.105594,5.757169,1.070461,-2.259733,1.669491,-1.126953,0.381836,-0.221436,0.157108,-0.000382,0.007396,0.999887,0.005352,-0.011298,0.008347,0.605476,-0.412859,-0.604538,-0.312219
13449,NaN,18.518869,0.484955,1.731818,0.999571,4.224373,8.279257,0.849423,-2.147539,1.567905,-1.121094,0.401123,-0.206787,0.184943,0.006221,0.019329,0.999903,0.004247,-0.010737,0.007839,0.603126,-0.418358,-0.609058,-0.300438
13450,NaN,18.710400,-0.105274,3.494725,-0.308129,5.949780,8.264728,0.221042,-1.834863,1.396864,-1.119141,0.411865,-0.185791,0.186774,0.000213,0.036662,0.999933,0.001105,-0.009174,0.006984,0.600023,-0.424629,-0.612003,-0.291744
13451,NaN,17.878216,-0.116849,3.876286,-0.505723,6.523315,7.270838,-0.397023,-1.668918,1.395509,-1.117432,0.426758,-0.166748,0.178452,0.000156,0.040253,0.999939,-0.001985,-0.008344,0.006977,0.596071,-0.432518,-0.613420,-0.285208
13452,NaN,19.106012,0.784204,1.846900,1.452215,5.802092,8.443180,-0.272664,-1.678653,1.510701,-1.119873,0.443848,-0.147949,0.190830,0.009311,0.020059,0.999935,-0.001363,-0.008393,0.007553,0.592435,-0.440260,-0.614757,-0.277968
13453,NaN,18.525584,3.039419,0.221377,4.242800,5.705027,7.563170,0.133859,-1.693311,1.523868,-1.111816,0.463135,-0.133301,0.184989,0.031802,0.003802,0.999935,0.000669,-0.008466,0.007619,0.589603,-0.446890,-0.616553,-0.269295
13454,NaN,18.429103,3.977227,-0.952505,5.700513,5.476169,7.329649,0.095799,-1.590713,1.447255,-1.107910,0.471680,-0.122803,0.184065,0.041109,-0.008041,0.999942,0.000479,-0.007953,0.007236,0.586821,-0.453083,-0.618139,-0.261268
13455,NaN,17.808258,1.594575,-1.933474,4.141956,3.725377,7.286226,-0.390045,-1.219078,1.313172,-1.101807,0.484375,-0.108154,0.178086,0.017079,-0.018282,0.999958,-0.001950,-0.006095,0.006566,0.583858,-0.459878,-0.618195,-0.255846
13456,NaN,15.782216,-1.603763,-0.766576,0.682301,2.991563,5.769936,-0.851849,-0.810831,1.277192,-1.095947,0.499268,-0.104004,0.157950,-0.015060,-0.006960,0.999962,-0.004259,-0.004054,0.006386,0.580995,-0.467200,-0.616566,-0.253012
13457,NaN,14.310410,-3.049641,-0.143631,-0.928475,2.670812,4.543842,-0.957930,-0.446989,1.263970,-1.089844,0.512207,-0.093506,0.143296,-0.029597,-0.000973,0.999966,-0.004790,-0.002235,0.006320,0.578956,-0.474446,-0.613669,-0.251239
13458,NaN,14.191114,-2.977515,0.255154,-0.948350,3.136949,4.314462,-0.766168,-0.017364,1.101949,-1.087891,0.516602,-0.089355,0.142072,-0.028983,0.002676,0.999977,-0.003831,-0.000087,0.005510,0.578460,-0.479913,-0.610179,-0.250497
13459,NaN,14.377102,-2.986325,0.275730,-0.808520,3.258219,4.485005,-0.345698,0.476743,0.818674,-1.081787,0.525146,-0.108398,0.143898,-0.029270,0.002465,0.999987,-0.001728,0.002384,0.004093,0.580101,-0.482825,-0.606384,-0.250323
13460,NaN,14.128556,-2.418784,0.173011,-0.176308,3.284116,4.140028,0.152638,0.899998,0.448541,-1.079834,0.527344,-0.119141,0.141345,-0.023872,0.001076,0.999987,0.000763,0.004500,0.002243,0.583772,-0.482453,-0.602917,-0.250879
13461,NaN,13.762713,-1.204323,-1.045999,1.496522,2.504611,3.731379,0.512446,1.183038,0.028945,-1.077881,0.531738,-0.135986,0.137564,-0.011995,-0.011305,0.999979,0.002562,0.005915,0.000145,0.588596,-0.479568,-0.600014,-0.252097
13462,NaN,13.234127,0.152894,-2.705527,3.443263,1.306547,3.184192,0.728344,1.486409,-0.299679,-1.073486,0.520996,-0.159180,0.132138,0.001432,-0.028032,0.999965,0.003642,0.007432,-0.001498,0.594430,-0.474463,-0.597298,-0.254506
13463,NaN,11.846788,2.908265,-3.164928,5.897239,1.498736,1.223323,0.657238,1.930598,-0.541578,-1.075195,0.508301,-0.186523,0.118234,0.028869,-0.032696,0.999944,0.003286,0.009653,-0.002708,0.601030,-0.468426,-0.593638,-0.258717
13464,NaN,10.333620,4.964670,-2.627115,7.228876,2.242123,-0.810226,0.123992,2.379242,-0.749187,-1.066650,0.497559,-0.216064,0.103199,0.049277,-0.027469,0.999922,0.000620,0.011896,-0.003746,0.607380,-0.462523,-0.588420,-0.266317
13465,NaN,9.180428,5.937889,-2.595537,7.907925,2.171036,-2.130228,-0.529726,2.557768,-0.927027,-1.068604,0.491211,-0.243652,0.091735,0.058882,-0.027285,0.999904,-0.002649,0.012788,-0.004635,0.612385,-0.457970,-0.582024,-0.276579
13466,NaN,8.081073,5.015427,-2.561114,6.924996,1.316525,-2.933551,-0.947703,2.515194,-1.035877,-1.070557,0.482666,-0.262451,0.080736,0.049611,-0.026863,0.999896,-0.004738,0.012576,-0.005179,0.616034,-0.454106,-0.575417,-0.288419
13467,NaN,9.230256,3.937622,-1.829590,5.857631,1.441299,-1.587428,-0.975964,2.142487,-1.089891,-1.070312,0.472168,-0.281494,0.092311,0.038780,-0.019475,0.999916,-0.004880,0.010712,-0.005449,0.618357,-0.450864,-0.569827,-0.299423
13468,NaN,11.152787,3.767979,-1.163778,5.732698,1.982965,0.342846,-0.640344,1.815838,-1.151546,-1.067871,0.457031,-0.298340,0.111630,0.036998,-0.012770,0.999937,-0.003202,0.009079,-0.005758,0.620303,-0.446564,-0.565932,-0.309072
13469,NaN,12.614259,2.840727,0.342715,4.476129,2.903168,1.970257,0.498494,1.536069,-1.211805,-1.065430,0.442139,-0.319336,0.126333,0.027635,0.002527,0.999949,0.002492,0.007680,-0.006059,0.623857,-0.439208,-0.564605,-0.314833
13470,NaN,14.006093,-0.532180,1.433788,1.160925,2.376238,4.025964,1.278324,1.440703,-1.316592,-1.069336,0.427246,-0.344727,0.140120,-0.006331,0.013290,0.999932,0.006391,0.007203,-0.006583,0.628584,-0.428926,-0.565114,-0.318672
13471,NaN,13.323401,-4.286444,0.633522,-1.986346,-0.318101,4.052064,-0.128472,2.203201,-1.378117,-1.058350,0.414551,-0.365723,0.132994,-0.043778,0.004897,0.999915,-0.000642,0.011016,-0.006890,0.632284,-0.421903,-0.560883,-0.328063
13472,NaN,10.376719,-5.007930,-1.751243,-2.140878,-3.224656,1.179845,-2.559439,2.500318,-1.267350,-1.060547,0.414551,-0.382568,0.103222,-0.050964,-0.018157,0.999820,-0.012796,0.012501,-0.006336,0.631682,-0.421975,-0.551479,-0.344653
13473,NaN,9.665801,-5.023688,-3.722670,-1.666527,-5.206045,0.318187,-4.474695,2.268676,-1.233679,-1.047852,0.412354,-0.384766,0.095920,-0.051662,-0.037172,0.999666,-0.022371,0.011342,-0.006168,0.626159,-0.428669,-0.539013,-0.365557
13474,NaN,10.532983,-3.983697,-6.368038,0.009321,-7.413323,0.788688,-5.008860,1.759582,-1.224518,-1.047852,0.414551,-0.384766,0.104517,-0.042072,-0.063567,0.999629,-0.025041,0.008797,-0.006122,0.617681,-0.437411,-0.526887,-0.386693
13475,NaN,11.340469,-2.024393,-7.763294,1.943132,-8.305479,1.150571,-4.741887,1.547562,-1.191473,-1.045898,0.423096,-0.386963,0.112671,-0.022763,-0.077987,0.999671,-0.023707,0.007737,-0.005957,0.608881,-0.445793,-0.515363,-0.406120
13476,NaN,10.768031,0.343965,-6.184805,3.295344,-6.366840,0.331728,-3.953019,1.534424,-1.277244,-1.039307,0.414551,-0.388916,0.107215,0.001520,-0.062715,0.999755,-0.019763,0.007671,-0.006386,0.601249,-0.451081,-0.505507,-0.423660
13477,NaN,10.121984,2.828309,-3.575368,4.763168,-3.496329,-0.415073,-2.802417,1.674239,-1.361781,-1.039551,0.416748,-0.397461,0.101101,0.027082,-0.036985,0.999844,-0.014011,0.008371,-0.006809,0.596181,-0.452459,-0.497521,-0.438546
13478,NaN,10.184220,4.417928,-1.183635,5.700162,-1.128942,-0.280459,-1.850363,1.702275,-1.354058,-1.032959,0.406006,-0.412354,0.102030,0.043372,-0.013108,0.999898,-0.009252,0.008511,-0.006770,0.593145,-0.450606,-0.491547,-0.451127
13479,NaN,11.106402,3.545474,0.780825,4.505192,0.257696,0.965127,-1.316192,1.948034,-1.373276,-1.024170,0.397461,-0.427002,0.111372,0.034736,0.006494,0.999907,-0.006581,0.009740,-0.006866,0.591814,-0.446710,-0.485840,-0.462781
13480,NaN,10.130648,2.814020,2.467328,3.342532,1.590579,0.332526,-1.558917,2.411228,-1.404547,-1.021973,0.391113,-0.450195,0.101788,0.027611,0.023231,0.999872,-0.007794,0.012056,-0.007022,0.590799,-0.442033,-0.478338,-0.476189
13481,NaN,8.700867,2.173557,3.098007,2.460049,2.013440,-0.873196,-2.226308,2.398009,-1.506197,-1.011230,0.384766,-0.460693,0.087532,0.021413,0.029693,0.999838,-0.011131,0.011989,-0.007531,0.587931,-0.439237,-0.469196,-0.491185
13482,NaN,8.336597,1.563019,1.657140,1.954746,0.332888,-1.401291,-2.788399,1.973469,-1.631409,-1.007080,0.384766,-0.471436,0.083648,0.015170,0.015533,0.999821,-0.013941,0.009867,-0.008157,0.582270,-0.438417,-0.460211,-0.506911
13483,NaN,8.233166,0.706783,-0.318813,1.176068,-1.864335,-1.842547,-2.906279,1.717154,-1.763664,-1.002441,0.374023,-0.477783,0.082357,0.006288,-0.003990,0.999819,-0.014531,0.008585,-0.008818,0.575274,-0.438399,-0.451619,-0.522404
13484,NaN,8.513394,0.081418,-0.770634,0.428865,-2.562793,-1.668839,-2.751262,1.519693,-1.914857,-0.995850,0.367676,-0.481934,0.085074,-0.000113,-0.008356,0.999831,-0.013756,0.007598,-0.009574,0.567523,-0.437674,-0.444347,-0.537508
13485,NaN,8.413233,0.602558,-0.753439,0.761184,-2.639434,-1.802535,-2.547279,1.409743,-2.091916,-0.998047,0.363525,-0.486084,0.084132,0.005044,-0.008196,0.999839,-0.012736,0.007048,-0.010459,0.559366,-0.436406,-0.437999,-0.552102
13486,NaN,8.899763,1.068511,-1.177123,1.018062,-3.302702,-1.459088,-2.562963,1.359314,-2.232452,-0.997559,0.348389,-0.494385,0.089025,0.009534,-0.012503,0.999833,-0.012814,0.006796,-0.011162,0.550438,-0.434595,-0.432084,-0.566964
13487,NaN,8.310511,1.102180,-1.210601,0.832642,-3.330912,-2.069904,-2.658761,1.448953,-2.287846,-0.990967,0.344238,-0.502930,0.083131,0.009903,-0.012845,0.999820,-0.013293,0.007244,-0.011439,0.541205,-0.432794,-0.425445,-0.582050
13488,NaN,7.474085,1.002284,-1.121345,0.544871,-3.152135,-2.892726,-2.848894,1.501535,-2.347785,-0.992920,0.333496,-0.504883,0.074763,0.008979,-0.011908,0.999801,-0.014244,0.007507,-0.011738,0.531232,-0.430797,-0.418255,-0.597720
13489,NaN,6.299967,0.571667,-0.807780,0.015102,-2.599966,-3.989869,-3.116888,1.551059,-2.360153,-0.988525,0.329102,-0.511230,0.062995,0.004841,-0.008646,0.999779,-0.015583,0.007755,-0.011800,0.520590,-0.429418,-0.409803,-0.613716
13490,NaN,5.542686,0.175952,-0.551523,-0.456135,-2.168431,-4.699580,-3.349725,1.497837,-2.335455,-0.983887,0.318604,-0.519531,0.055398,0.001015,-0.005951,0.999764,-0.016747,0.007489,-0.011676,0.509113,-0.428405,-0.400712,-0.629843
13491,NaN,5.039633,0.202545,-0.044865,-0.446350,-1.605770,-5.052274,-3.441684,1.499434,-2.252553,-0.983887,0.316406,-0.523926,0.050409,0.001445,-0.000855,0.999760,-0.017207,0.007497,-0.011262,0.497529,-0.427837,-0.390778,-0.645533
13492,NaN,4.615092,-0.118470,0.666356,-0.693614,-0.801858,-5.270418,-3.398419,1.520626,-2.138798,-0.975586,0.318604,-0.528076,0.046185,-0.001569,0.006337,0.999770,-0.016991,0.007603,-0.010693,0.486151,-0.426863,-0.380674,-0.660706
13493,NaN,4.040907,-0.280060,1.149962,-0.733507,-0.178923,-5.670302,-3.213394,1.433398,-2.016733,-0.975342,0.312012,-0.530273,0.040461,-0.003026,0.011257,0.999794,-0.016066,0.007166,-0.010083,0.475258,-0.426021,-0.370793,-0.674647
13494,NaN,3.869076,-0.414995,1.166108,-0.880328,-0.101477,-5.848312,-2.924701,1.226688,-1.882214,-0.973145,0.310059,-0.538574,0.038721,-0.004345,0.011486,0.999830,-0.014623,0.006133,-0.009411,0.464819,-0.425032,-0.362110,-0.687145
13495,NaN,3.784112,-0.648528,0.762159,-1.230216,-0.372938,-6.115626,-2.518182,0.855217,-1.720400,-0.972900,0.303467,-0.536377,0.037816,-0.006715,0.007543,0.999875,-0.012590,0.004276,-0.008602,0.455045,-0.424786,-0.355074,-0.697434
13496,NaN,3.666806,-0.809190,0.160224,-1.564404,-0.803328,-6.491090,-2.073050,0.662396,-1.447788,-0.970703,0.301514,-0.534424,0.036614,-0.008341,0.001567,0.999915,-0.010365,0.003312,-0.007239,0.446683,-0.424353,-0.349523,-0.705856
13497,NaN,3.512641,-0.813901,-0.344519,-1.719866,-1.172798,-6.848537,-1.591415,0.358612,-1.194482,-0.968506,0.294922,-0.530029,0.035071,-0.008376,-0.003442,0.999949,-0.007957,0.001793,-0.005972,0.439692,-0.424540,-0.345614,-0.712030
13498,NaN,3.373614,-0.620060,-0.769568,-1.673301,-1.545806,-7.135304,-1.214156,0.094293,-0.940229,-0.972900,0.299316,-0.527832,0.033703,-0.006406,-0.007673,0.999970,-0.006071,0.000471,-0.004701,0.433871,-0.425017,-0.343203,-0.716469
13499,NaN,3.151329,-0.510367,-0.900311,-1.584451,-1.606283,-7.381392,-0.903006,-0.169400,-0.682178,-0.974854,0.297119,-0.525879,0.031503,-0.005252,-0.008953,0.999984,-0.004515,-0.000847,-0.003411,0.429208,-0.426413,-0.341772,-0.719128
13500,NaN,2.772153,-0.612975,-0.668462,-1.519201,-1.222949,-7.643864,-0.694009,-0.415589,-0.398769,-0.974854,0.294922,-0.521484,0.027723,-0.006208,-0.006606,0.999990,-0.003470,-0.002078,-0.001994,0.425531,-0.428508,-0.341145,-0.720364
13501,NaN,2.514699,-0.593512,-0.172014,-1.272887,-0.703851,-7.670288,-0.652778,-0.647149,-0.133020,-0.976807,0.292725,-0.510986,0.025148,-0.005957,-0.001619,0.999989,-0.003264,-0.003236,-0.000665,0.422541,-0.432004,-0.340445,-0.720367
13502,NaN,2.661130,-0.181157,0.440844,-0.727493,-0.376175,-7.236262,-0.727245,-0.849732,0.117653,-0.983398,0.299072,-0.508789,0.026593,-0.001780,0.004528,0.999984,-0.003636,-0.004249,0.000588,0.419891,-0.436607,-0.339487,-0.719593
13503,NaN,3.278013,0.142302,1.246199,-0.299435,0.008282,-6.315723,-0.799534,-1.000632,0.360086,-0.983643,0.309814,-0.491943,0.032715,0.001532,0.012620,0.999978,-0.003998,-0.005003,0.001800,0.417730,-0.442495,-0.337911,-0.717995
13504,NaN,4.433674,0.556758,1.978864,0.077143,0.135530,-4.928154,-0.809061,-1.065460,0.623999,-0.986084,0.324707,-0.483643,0.044213,0.005786,0.020001,0.999973,-0.004045,-0.005327,0.003120,0.416319,-0.448872,-0.335965,-0.715765
13505,NaN,5.991185,0.903231,3.045323,0.465672,0.467990,-3.063811,-0.750300,-1.099303,0.889633,-0.986328,0.329102,-0.468994,0.059702,0.009413,0.030747,0.999968,-0.003751,-0.005496,0.004448,0.415955,-0.455856,-0.333554,-0.712684
13506,NaN,7.915841,1.229369,3.822806,0.710670,0.473722,-0.977860,-0.681955,-1.250698,1.125186,-0.986572,0.343994,-0.454346,0.078846,0.012869,0.038679,0.999959,-0.003410,-0.006253,0.005626,0.416259,-0.463411,-0.331269,-0.708688
13507,NaN,10.374430,0.928900,4.778698,0.444787,0.787579,1.611175,-0.658946,-1.501838,1.333024,-0.989014,0.354736,-0.441650,0.103316,0.010138,0.048531,0.999944,-0.003295,-0.007509,0.006665,0.416941,-0.472294,-0.328947,-0.703486
13508,NaN,11.692575,-0.692727,5.332722,-0.826978,1.692514,2.918342,-0.775202,-1.558707,1.299174,-0.993652,0.371826,-0.427002,0.116546,-0.005960,0.054261,0.999941,-0.003876,-0.007793,0.006496,0.417046,-0.481326,-0.326504,-0.698422
13509,NaN,11.916193,-1.914404,5.776697,-1.530546,2.641600,3.214373,-1.051729,-1.346970,1.057178,-0.993896,0.384521,-0.410156,0.118867,-0.018208,0.058666,0.999950,-0.005259,-0.006735,0.005286,0.415982,-0.489932,-0.323074,-0.694658
13510,NaN,14.897620,-1.068959,6.897304,-0.587617,2.508117,6.435797,-1.459585,-0.823761,0.712525,-0.994141,0.395264,-0.397461,0.148726,-0.009653,0.069659,0.999959,-0.007298,-0.004119,0.003563,0.413500,-0.496786,-0.318067,-0.693581
13511,NaN,18.181028,0.939950,8.247440,1.436645,1.847514,10.036061,-1.966758,0.173285,0.198504,-0.988281,0.408203,-0.397705,0.181872,0.010389,0.082218,0.999951,-0.009834,0.000866,0.000993,0.409553,-0.500550,-0.310375,-0.696695
13512,NaN,17.484467,4.093813,7.124684,3.857898,-0.644172,9.106048,-2.205284,1.309852,-0.394821,-0.981934,0.406006,-0.408203,0.175386,0.041366,0.069645,0.999916,-0.011026,0.006549,-0.001974,0.404636,-0.499667,-0.301072,-0.704243
13513,NaN,10.675775,6.025696,4.402476,5.323391,-2.328401,1.844618,-1.595557,2.068092,-0.951958,-0.979736,0.401855,-0.420898,0.107488,0.060089,0.042436,0.999903,-0.007978,0.010340,-0.004760,0.400367,-0.494140,-0.293614,-0.713669
13514,NaN,3.555493,6.211897,2.437014,5.769442,-2.210461,-5.454521,-0.455809,1.848376,-1.202911,-0.975098,0.391113,-0.433594,0.036150,0.061958,0.023897,0.999937,-0.002279,0.009242,-0.006014,0.397608,-0.486462,-0.291358,-0.721369
13515,NaN,0.992237,6.166387,0.805373,5.448958,-2.796184,-8.347433,0.901362,1.061995,-1.152773,-0.972656,0.378174,-0.446045,0.010321,0.061568,0.008277,0.999959,0.004507,0.005310,-0.005764,0.397168,-0.479148,-0.295285,-0.724901
13516,NaN,2.764301,3.500906,0.365743,2.548263,-2.263395,-6.911975,2.483802,0.307710,-1.004946,-0.976318,0.352539,-0.458496,0.027824,0.034821,0.004048,0.999909,0.012419,0.001539,-0.005025,0.399845,-0.471361,-0.306202,-0.724005
13517,NaN,15.557027,-0.056773,-1.205998,-4.222937,-5.409552,4.200884,3.476238,-1.027131,-0.395399,-0.982178,0.341797,-0.447998,0.155628,-0.000675,-0.011272,0.999834,0.017380,-0.005135,-0.001977,0.404961,-0.467454,-0.321715,-0.716933
13518,NaN,38.775798,9.789960,-1.527271,-0.871657,-16.445216,26.663169,2.599186,-1.130452,0.542390,-0.977783,0.333252,-0.456299,0.387564,0.099119,-0.011799,0.999896,0.012995,-0.005652,0.002712,0.411049,-0.466879,-0.332176,-0.709029
13519,NaN,30.266418,3.495508,-2.888610,-4.872773,-12.359078,17.757662,0.640655,0.770951,0.022341,-0.975586,0.331299,-0.462646,0.302546,0.035084,-0.029940,0.999987,0.003203,0.003855,0.000112,0.413892,-0.462868,-0.332803,-0.709710
13520,NaN,20.877998,1.943688,-1.889247,-3.943843,-8.373180,9.096561,-1.841564,1.383690,-1.062092,-0.971436,0.331299,-0.468994,0.208740,0.018144,-0.020508,0.999920,-0.009208,0.006918,-0.005310,0.408011,-0.459842,-0.326031,-0.718175
13521,NaN,8.570916,2.536884,2.871563,1.204951,-1.305778,-0.594334,-3.850179,2.070383,-1.666953,-0.967285,0.331299,-0.477539,0.086207,0.025187,0.027339,0.999726,-0.019249,0.010351,-0.008334,0.396431,-0.457427,-0.311723,-0.732415
13522,NaN,-2.648503,0.150539,1.335662,1.449383,1.790093,-11.687562,-4.247114,1.660649,-1.456801,-0.965332,0.337646,-0.479736,-0.026360,0.001984,0.013537,0.999714,-0.021234,0.008302,-0.007283,0.383730,-0.457258,-0.296326,-0.745558
13523,NaN,-4.553340,0.356419,1.542901,2.344602,2.379986,-13.288081,-2.938286,0.141848,-0.910919,-0.965332,0.337646,-0.464844,-0.045505,0.003998,0.015405,0.999881,-0.014691,0.000709,-0.004554,0.373775,-0.460971,-0.287145,-0.751895
13524,NaN,-1.739664,1.912709,0.898942,2.524421,0.137683,-10.862087,-0.881028,-0.743926,-0.228054,-0.963135,0.337646,-0.454346,-0.017408,0.019186,0.008840,0.999983,-0.004405,-0.003720,-0.001140,0.369694,-0.464957,-0.285940,-0.751917
13525,NaN,1.867036,0.477098,-1.644308,-0.943691,-2.081866,-8.720754,1.176032,-1.222290,0.450195,-0.975830,0.337646,-0.449951,0.018759,0.004909,-0.016300,0.999962,0.005880,-0.006111,0.002251,0.372352,-0.468013,-0.291560,-0.746532
13526,NaN,6.866219,1.353364,-6.289311,-3.785329,-7.617143,-5.790472,1.291623,-1.812934,0.857942,-0.980225,0.343994,-0.435303,0.069168,0.014233,-0.062177,0.999929,0.006458,-0.009064,0.004290,0.375782,-0.473477,-0.297928,-0.738814
13527,NaN,12.168789,4.349218,-8.721218,-3.658353,-12.562357,-1.336466,0.470557,-2.308628,1.090052,-0.982178,0.348145,-0.414062,0.122443,0.044361,-0.085698,0.999916,0.002353,-0.011543,0.005450,0.377444,-0.482714,-0.301395,-0.730537
13528,NaN,18.047712,4.292333,-8.376730,-4.747243,-13.618206,4.550597,-0.459428,-2.389690,0.991974,-0.993164,0.363037,-0.395264,0.181246,0.043632,-0.081704,0.999914,-0.002297,-0.011948,0.004960,0.376160,-0.493704,-0.302024,-0.723562
13529,NaN,23.554797,2.804080,-5.471944,-5.598241,-11.583102,10.853968,-2.169595,-1.964651,0.725233,-0.991211,0.371582,-0.365723,0.235970,0.028317,-0.052709,0.999886,-0.010848,-0.009823,0.003626,0.370411,-0.505939,-0.296044,-0.720541
13530,NaN,20.383775,-0.817272,-0.801506,-5.399712,-4.913449,9.253200,-3.642965,-0.527670,0.331870,-0.991699,0.390869,-0.351074,0.203871,-0.007972,-0.007331,0.999829,-0.018214,-0.002638,0.001659,0.361337,-0.514995,-0.283245,-0.723870
13531,NaN,13.247110,-1.920165,3.516214,-2.353619,0.768297,3.803661,-3.759213,0.219818,0.113030,-0.983643,0.403564,-0.338379,0.132520,-0.018463,0.035368,0.999823,-0.018795,0.001099,0.000565,0.352306,-0.521069,-0.268900,-0.729425
13532,NaN,9.089597,-2.327189,5.974931,-0.242918,3.790032,0.642423,-2.965932,0.119499,0.275162,-0.983887,0.412109,-0.332031,0.090963,-0.022258,0.060030,0.999889,-0.014829,0.000597,0.001376,0.345492,-0.526192,-0.257354,-0.733162
13533,NaN,5.930969,-2.482055,6.548518,0.818358,4.994104,-2.157205,-1.989536,-0.533016,0.606687,-0.979736,0.418701,-0.313232,0.059208,-0.023987,0.065884,0.999942,-0.009947,-0.002665,0.003033,0.341768,-0.532343,-0.249368,-0.733226
13534,NaN,6.531976,-2.276249,4.671938,-0.112788,3.344255,-2.165747,-1.357445,-1.366431,0.870108,-0.984131,0.427002,-0.296387,0.065095,-0.022159,0.047316,0.999944,-0.006787,-0.006832,0.004350,0.339431,-0.540735,-0.244605,-0.729768
13535,NaN,7.313321,-2.285143,2.186126,-1.633297,1.406504,-2.142185,-1.208702,-1.858573,1.067600,-0.982422,0.442139,-0.270996,0.073045,-0.022326,0.022676,0.999924,-0.006043,-0.009293,0.005338,0.337751,-0.550842,-0.240442,-0.724351
13536,NaN,8.976120,-1.737151,0.861532,-2.139573,-0.214944,-0.885073,-1.263440,-1.985075,1.133146,-0.982422,0.452637,-0.245850,0.089765,-0.016804,0.009614,0.999915,-0.006317,-0.009925,0.005666,0.335780,-0.561486,-0.236267,-0.718445
13537,NaN,9.984379,-1.277800,0.649917,-1.862948,-0.826522,0.065818,-1.232764,-1.796547,1.139846,-0.982910,0.467529,-0.224609,0.099850,-0.012165,0.007472,0.999924,-0.006164,-0.008983,0.005699,0.334257,-0.571323,-0.231636,-0.712886
13538,NaN,10.270279,-1.745475,0.571987,-2.088684,-0.575813,0.392931,-1.096888,-1.494357,1.099690,-0.977051,0.489014,-0.212158,0.102750,-0.016855,0.006581,0.999942,-0.005484,-0.007472,0.005498,0.333112,-0.579740,-0.227248,-0.708023
13539,NaN,9.808029,-2.223158,0.228609,-2.436230,-0.369693,-0.059856,-0.985285,-1.170047,1.052838,-0.972656,0.489014,-0.195312,0.098179,-0.021701,0.002968,0.999957,-0.004926,-0.005850,0.005264,0.332631,-0.586705,-0.222646,-0.703962
13540,NaN,8.855149,-2.217274,-0.581850,-2.750246,-0.724356,-1.119098,-1.056672,-0.924096,0.941996,-0.968750,0.495361,-0.187012,0.088680,-0.021784,-0.005293,0.999964,-0.005283,-0.004620,0.004710,0.331626,-0.592771,-0.217860,-0.700845
13541,NaN,8.424735,-1.741063,-1.199941,-2.684112,-1.376662,-1.667338,-1.271013,-0.782430,0.847143,-0.966797,0.508057,-0.172119,0.084366,-0.017128,-0.011560,0.999963,-0.006355,-0.003912,0.004236,0.329954,-0.598532,-0.212184,-0.698475
13542,NaN,8.167957,-1.262952,-1.031227,-2.114481,-1.516972,-1.900607,-1.419688,-0.751375,0.784207,-0.964844,0.510254,-0.155273,0.081766,-0.012380,-0.009917,0.999960,-0.007098,-0.003757,0.003921,0.327453,-0.604348,-0.206268,-0.696414
13543,NaN,8.015253,-1.018691,-0.204853,-1.255146,-1.078395,-1.901633,-1.339698,-0.838758,0.787159,-0.958740,0.522949,-0.144775,0.080199,-0.009883,-0.001645,0.999961,-0.006698,-0.004194,0.003936,0.325259,-0.610261,-0.200589,-0.693939
13544,NaN,7.741051,-0.989896,0.712708,-0.461025,-0.409904,-2.000511,-1.061934,-0.980604,0.823709,-0.952637,0.533691,-0.130127,0.077414,-0.009541,0.007558,0.999965,-0.005310,-0.004903,0.004118,0.323697,-0.616248,-0.196130,-0.690646
13545,NaN,7.769683,-0.836898,1.249953,0.147859,-0.157260,-1.901746,-0.747973,-1.095321,0.855681,-0.956787,0.535889,-0.115479,0.077661,-0.007989,0.012955,0.999969,-0.003740,-0.005477,0.004278,0.323255,-0.622072,-0.192677,-0.686592
13546,NaN,7.847339,-0.591137,1.233655,0.419631,-0.347755,-1.865744,-0.527555,-1.117501,0.857595,-0.952637,0.540039,-0.109131,0.078427,-0.005542,0.012790,0.999972,-0.002638,-0.005587,0.004288,0.323287,-0.627623,-0.190145,-0.682217
13547,NaN,7.680992,-0.491041,0.974284,0.411268,-0.550560,-2.085157,-0.429941,-1.065727,0.861866,-0.940186,0.550781,-0.094482,0.076777,-0.004558,0.010162,0.999974,-0.002150,-0.005329,0.004309,0.323848,-0.632768,-0.187692,-0.677864
13548,NaN,7.749837,-0.715523,0.776958,0.222683,-0.523872,-2.012008,-0.444275,-1.036464,0.839546,-0.938232,0.561523,-0.077637,0.077486,-0.006812,0.008187,0.999975,-0.002221,-0.005182,0.004198,0.324121,-0.637826,-0.185347,-0.673624
13549,NaN,7.836221,-0.846184,0.546823,0.076236,-0.592303,-1.934633,-0.501727,-1.059320,0.845478,-0.936523,0.570068,-0.073486,0.078367,-0.008116,0.005904,0.999974,-0.002509,-0.005297,0.004227,0.324370,-0.642986,-0.182673,-0.669316
13550,NaN,7.901322,-0.796653,0.646557,0.296807,-0.564016,-1.870628,-0.549526,-1.057749,0.847572,-0.932373,0.576416,-0.058594,0.079010,-0.007613,0.006905,0.999973,-0.002748,-0.005289,0.004238,0.324278,-0.648228,-0.179961,-0.665025
13551,NaN,7.927307,-0.565076,0.970568,0.806847,-0.516357,-1.863802,-0.500628,-1.076423,0.856542,-0.926025,0.580566,-0.043945,0.079242,-0.005286,0.010146,0.999973,-0.002503,-0.005382,0.004283,0.324518,-0.653384,-0.177261,-0.660572
13552,NaN,8.067744,-0.008819,1.553208,1.732697,-0.554681,-1.800823,-0.389264,-1.094519,0.864089,-0.917725,0.589111,-0.031494,0.080590,0.000291,0.015973,0.999974,-0.001946,-0.005473,0.004320,0.324934,-0.658434,-0.175063,-0.655923
13553,NaN,8.601356,0.632011,2.177314,2.779710,-0.707084,-1.392745,-0.279807,-1.084737,0.835292,-0.917725,0.593262,-0.020752,0.085866,0.006710,0.022230,0.999976,-0.001399,-0.005424,0.004176,0.325786,-0.663173,-0.173154,-0.651216
13554,NaN,9.230926,1.161778,2.429781,3.488267,-1.036131,-0.912085,-0.217708,-0.995123,0.777688,-0.905273,0.606201,-0.014648,0.092141,0.012003,0.024744,0.999979,-0.001089,-0.004976,0.003888,0.326538,-0.667476,-0.171628,-0.646833
13555,NaN,10.143998,2.599121,2.371997,4.586856,-2.289548,-0.378703,-0.166582,-0.838070,0.711944,-0.909668,0.608398,-0.006104,0.101246,0.026372,0.024123,0.999985,-0.000833,-0.004190,0.003560,0.327552,-0.671072,-0.170079,-0.642997
13556,NaN,11.949642,4.860227,2.272029,6.289355,-4.343569,0.824707,-0.192319,-0.664276,0.641657,-0.903320,0.610352,-0.001953,0.119263,0.049007,0.023070,0.999989,-0.000962,-0.003321,0.003208,0.328202,-0.674100,-0.168551,-0.639894
13557,NaN,13.355175,6.813303,2.610126,8.066221,-5.826886,1.701536,-0.347837,-0.427802,0.487938,-0.903320,0.610352,0.000244,0.133329,0.068504,0.026268,0.999993,-0.001739,-0.002139,0.002440,0.328220,-0.676459,-0.166495,-0.637930
13558,NaN,13.511806,6.967032,3.177000,8.651756,-5.623825,1.794260,-0.618753,-0.199934,0.209036,-0.894775,0.610352,0.008545,0.135013,0.069910,0.031689,0.999994,-0.003094,-0.001000,0.001045,0.326401,-0.678309,-0.164330,-0.637460
13559,NaN,13.730418,5.793818,2.956460,7.765662,-4.983812,2.257499,-0.774953,-0.128918,-0.082062,-0.898926,0.608154,0.014893,0.137309,0.057996,0.029428,0.999992,-0.003875,-0.000645,-0.000410,0.323394,-0.679925,-0.162349,-0.637778
13560,NaN,15.247560,5.350992,2.666464,7.435179,-5.144209,3.843310,-0.739167,-0.021648,-0.300609,-0.900879,0.597656,0.010742,0.152553,0.053379,0.026484,0.999992,-0.003696,-0.000108,-0.001503,0.319652,-0.680950,-0.161271,-0.638843
13561,NaN,16.032951,5.279552,2.829474,7.550742,-5.146682,4.659083,-0.722936,0.279784,-0.477678,-0.902832,0.595459,0.019287,0.160494,0.052514,0.027880,0.999990,-0.003615,0.001399,-0.002388,0.315879,-0.680833,-0.160140,-0.641125
13562,NaN,15.926698,5.161768,2.576688,7.137077,-5.218108,4.636320,-0.780902,0.661062,-0.646225,-0.900391,0.584717,0.015137,0.159516,0.051201,0.025039,0.999982,-0.003904,0.003305,-0.003231,0.311399,-0.679413,-0.159046,-0.645084
13563,NaN,16.411257,5.874585,2.071704,7.042212,-6.214887,5.016629,-0.916125,1.047196,-0.843121,-0.904297,0.576172,0.008789,0.164463,0.058144,0.019589,0.999967,-0.004581,0.005236,-0.004216,0.306381,-0.676783,-0.157321,-0.650650
13564,NaN,15.490478,7.315873,1.238223,6.879859,-7.726177,3.897624,-1.244358,1.444746,-1.129851,-0.912354,0.559082,0.002686,0.155397,0.072352,0.010809,0.999939,-0.006222,0.007224,-0.005649,0.299316,-0.673037,-0.155163,-0.658297
13565,NaN,13.166571,7.716147,0.186585,5.727392,-8.328178,1.622176,-1.761061,1.637321,-1.509927,-0.924805,0.548340,-0.001465,0.132249,0.076171,0.000111,0.999899,-0.008805,0.008186,-0.007549,0.289652,-0.669060,-0.151984,-0.667355
13566,NaN,12.514532,6.095427,-1.350079,3.067298,-7.883040,1.323818,-2.339165,1.823785,-1.880838,-0.932617,0.524658,-0.007568,0.125576,0.059602,-0.015347,0.999846,-0.011695,0.009118,-0.009404,0.276565,-0.664794,-0.148132,-0.677951
13567,NaN,12.603571,3.507792,-2.652774,0.052753,-6.536871,1.825093,-2.695581,2.133839,-2.096657,-0.938477,0.505371,-0.011719,0.126096,0.033382,-0.028330,0.999797,-0.013477,0.010668,-0.010483,0.262015,-0.659617,-0.142985,-0.689790
13568,NaN,13.253679,0.506623,-2.284356,-1.770380,-3.872988,2.953713,-2.771602,2.373836,-2.204000,-0.946289,0.484131,-0.017822,0.132295,0.003276,-0.024469,0.999773,-0.013857,0.011868,-0.011019,0.246562,-0.653294,-0.137899,-0.702423
13569,NaN,15.291731,-2.069988,-1.446517,-2.945286,-1.464404,5.332346,-2.827602,2.639928,-2.269791,-0.954346,0.460449,-0.034424,0.152462,-0.022653,-0.016169,0.999749,-0.014137,0.013199,-0.011348,0.231105,-0.645797,-0.132095,-0.715603
13570,NaN,17.064359,-3.365948,-1.720178,-4.472557,-0.563472,7.073032,-2.974865,3.013183,-2.309051,-0.962158,0.439209,-0.053223,0.169958,-0.035901,-0.019243,0.999709,-0.014873,0.015064,-0.011544,0.214817,-0.636697,-0.125733,-0.729837
13571,NaN,17.222807,-4.078517,-2.997364,-6.516651,-0.293773,6.910087,-2.912258,3.116956,-2.454437,-0.972168,0.413574,-0.065674,0.171218,-0.043347,-0.032029,0.999697,-0.014560,0.015583,-0.012271,0.198477,-0.626734,-0.119534,-0.743991
13572,NaN,16.310302,-3.393403,-3.357452,-6.969182,-0.596699,5.674424,-2.535123,2.872649,-2.654435,-0.971680,0.396484,-0.086914,0.162129,-0.036532,-0.035456,0.999728,-0.012674,0.014362,-0.013271,0.181992,-0.616770,-0.115871,-0.756999
13573,NaN,15.048103,-1.846601,-2.899065,-6.200235,-1.309679,4.261057,-2.081323,2.472693,-2.925399,-0.979248,0.362305,-0.099121,0.149814,-0.020974,-0.030636,0.999762,-0.010406,0.012362,-0.014626,0.165884,-0.607484,-0.114737,-0.768298
13574,NaN,14.975235,-0.442482,-2.138463,-5.409874,-1.933014,4.187127,-1.784353,1.924266,-3.145159,-0.991211,0.336426,-0.105225,0.149441,-0.006976,-0.022769,0.999790,-0.008921,0.009621,-0.015725,0.149130,-0.599617,-0.116132,-0.777646
13575,NaN,15.986091,-0.501029,-1.876387,-5.845487,-1.468189,5.119546,-1.734009,1.430914,-3.283106,-0.996826,0.308594,-0.119873,0.159609,-0.007801,-0.019847,0.999802,-0.008669,0.007154,-0.016414,0.131960,-0.593342,-0.118141,-0.785223
13576,NaN,17.500590,0.331790,-1.741873,-6.250450,-1.822293,6.527094,-2.134135,1.514379,-3.293466,-1.000244,0.276611,-0.130127,0.174888,0.000242,-0.018757,0.999779,-0.010670,0.007571,-0.016466,0.113246,-0.586717,-0.118814,-0.792983
13577,NaN,17.191052,0.230383,-0.246018,-5.274439,-0.760786,6.534004,-2.646424,1.547272,-3.266941,-1.003418,0.242432,-0.140381,0.171891,-0.000549,-0.003795,0.999749,-0.013231,0.007736,-0.016333,0.093414,-0.580014,-0.116997,-0.800730
13578,NaN,17.695565,-0.325843,0.186951,-5.619846,0.348229,6.966411,-2.966776,1.811791,-3.063566,-1.004883,0.220947,-0.150879,0.176886,-0.005956,0.000342,0.999732,-0.014833,0.009058,-0.015316,0.073268,-0.572198,-0.113421,-0.808923
13579,NaN,16.432379,-1.785798,0.497595,-5.669767,2.208348,5.563048,-2.821624,2.157426,-2.721552,-1.006592,0.201660,-0.161377,0.164104,-0.020036,0.003477,0.999750,-0.014107,0.010786,-0.013607,0.055386,-0.562842,-0.108974,-0.817475
