// Start Time: Unknown
// Update Rate: 100.0Hz
// Filter Profile: human (46.1)
// Firmware Version: 4.4.0
PacketCounter,SampleTimeFine,Acc_X,Acc_Y,Acc_Z,FreeAcc_X,FreeAcc_Y,FreeAcc_Z,Gyr_X,Gyr_Y,Gyr_Z,Mag_X,Mag_Y,Mag_Z,VelInc_X,VelInc_Y,VelInc_Z,OriInc_q0,OriInc_q1,OriInc_q2,OriInc_q3,Quat_q0,Quat_q1,Quat_q2,Quat_q3
34151,NaN,25.851397,3.678662,-6.237708,0.000000,0.000000,17.033813,2.582330,-0.157941,-0.701821,-0.917480,0.322021,0.021973,0.258692,0.036679,-0.061699,0.999910,0.012911,-0.000790,-0.003509,0.483537,-0.400851,-0.673965,-0.388949
34152,NaN,20.986055,3.874478,-4.948417,0.000000,-0.000000,12.094142,3.389324,-0.291128,-1.110952,-0.921387,0.311279,0.013672,0.210146,0.038406,-0.048526,0.999840,0.016946,-0.001456,-0.005554,0.473943,-0.393227,-0.675372,-0.405738
34153,NaN,18.313777,6.509423,-2.919571,2.696078,2.699992,9.467381,4.246815,-0.270136,-1.391494,-0.923340,0.302734,-0.001221,0.183626,0.064415,-0.027575,0.999749,0.021232,-0.001351,-0.006957,0.486607,-0.379667,-0.687141,-0.383281
34154,NaN,17.127128,3.734727,-0.462250,-0.680089,3.712388,7.311893,4.008262,0.125323,-1.255763,-0.931396,0.291992,-0.009766,0.171499,0.036355,-0.003995,0.999779,0.020040,0.000627,-0.006278,0.492132,-0.365277,-0.696749,-0.372719
34155,NaN,15.562911,4.398718,-0.206710,0.004295,4.019825,5.853679,2.616469,0.245193,-0.746140,-0.929443,0.292236,-0.018311,0.155790,0.043430,-0.001687,0.999907,0.013082,0.001226,-0.003731,0.496490,-0.355712,-0.701842,-0.366585
34156,NaN,18.182533,7.235495,-1.999962,2.536753,4.181874,9.240742,0.622878,0.429346,0.244960,-0.927246,0.296387,-0.024658,0.181693,0.072640,-0.020164,0.999992,0.003114,0.002147,0.001225,0.499550,-0.354236,-0.701476,-0.364552
34157,NaN,17.617026,9.643947,-3.027597,5.428815,4.162445,9.311130,-0.941661,1.060532,1.460404,-0.927979,0.313477,-0.033691,0.175295,0.097575,-0.031665,0.999948,-0.004708,0.005303,0.007302,0.502545,-0.361734,-0.692348,-0.370474
34158,NaN,13.649561,9.145001,-1.325312,5.654429,4.752868,4.921773,-1.473098,1.576301,3.090415,-0.909912,0.354248,-0.042725,0.134948,0.093437,-0.015004,0.999822,-0.007365,0.007881,0.015451,0.510972,-0.373149,-0.679947,-0.370593
34159,NaN,11.267524,0.002085,-0.472470,-1.849169,0.932595,1.271781,-1.836248,1.727849,4.696962,-0.885742,0.401367,-0.051758,0.112588,0.002616,-0.005714,0.999645,-0.009180,0.008638,0.023482,0.517435,-0.392798,-0.657802,-0.381140
34160,NaN,13.748712,-8.973267,-7.183070,-7.282555,-8.289166,4.306101,-1.530959,1.285057,5.901558,-0.861816,0.457031,-0.056885,0.139603,-0.086185,-0.072054,0.999515,-0.007654,0.006424,0.029503,0.529648,-0.413526,-0.639653,-0.373247
34161,NaN,18.397065,-0.922776,-7.713531,0.695549,-4.838759,9.547339,-1.468293,0.853659,6.339153,-0.827148,0.512695,-0.055420,0.183821,-0.003969,-0.077878,0.999462,-0.007340,0.004268,0.031690,0.539755,-0.438130,-0.619372,-0.364808
34162,NaN,22.954837,7.571436,-4.798596,8.695178,1.723920,13.176701,-0.822554,0.730564,6.243373,-0.792236,0.559814,-0.055908,0.226863,0.082624,-0.049148,0.999498,-0.004112,0.003652,0.031212,0.551331,-0.458129,-0.601914,-0.351925
34163,NaN,25.249152,8.265837,-5.302720,10.885513,2.197114,14.893795,-0.371778,0.748306,6.228785,-0.750977,0.609131,-0.060547,0.249556,0.090362,-0.054128,0.999506,-0.001859,0.003741,0.031139,0.560593,-0.476670,-0.587329,-0.336994
34164,NaN,25.239472,7.296262,-6.733470,11.980005,0.769833,14.502790,0.679509,1.012222,6.309287,-0.711670,0.660400,-0.078369,0.249577,0.081097,-0.068336,0.999484,0.003397,0.005060,0.031541,0.575524,-0.491340,-0.570300,-0.319555
34165,NaN,23.414918,8.620901,-7.412693,14.280340,0.280502,11.942001,1.855877,1.205318,6.324525,-0.665771,0.701172,-0.100098,0.230804,0.094235,-0.074675,0.999439,0.009278,0.006025,0.031617,0.587758,-0.500761,-0.556729,-0.306319
34166,NaN,21.347619,8.666489,-7.479019,15.293933,0.122705,8.965429,2.761337,1.236370,6.189158,-0.613037,0.735352,-0.130371,0.210175,0.094237,-0.074830,0.999407,0.013804,0.006181,0.030940,0.607240,-0.507683,-0.541501,-0.283362
34167,NaN,19.502703,7.724928,-7.474861,14.709225,-0.324861,6.897858,3.419493,1.101166,5.998253,-0.569092,0.771729,-0.167236,0.192158,0.084316,-0.074410,0.999389,0.017094,0.005505,0.029985,0.620166,-0.508437,-0.533962,-0.267901
34168,NaN,17.960444,5.822722,-7.379964,13.613239,-0.779725,5.182499,3.958166,0.835817,5.790226,-0.524414,0.791016,-0.201416,0.177484,0.064841,-0.073305,0.999376,0.019787,0.004178,0.028945,0.639825,-0.510185,-0.521622,-0.241342
34169,NaN,17.059495,4.429966,-7.435859,12.540063,-1.079683,4.588117,4.321505,0.496835,5.531637,-0.477783,0.812500,-0.240234,0.169070,0.050588,-0.073732,0.999381,0.021603,0.002484,0.027652,0.648230,-0.505755,-0.523283,-0.224018
34170,NaN,17.459558,3.518517,-6.954357,12.600451,-0.386819,4.558464,4.730276,0.311229,5.098176,-0.432861,0.823242,-0.280762,0.173488,0.041252,-0.068886,0.999394,0.023647,0.001556,0.025486,0.666320,-0.503108,-0.514366,-0.195775
34171,NaN,19.544128,4.066951,-7.227021,14.030966,0.778561,6.097534,4.832644,0.294461,4.564075,-0.387695,0.827637,-0.323486,0.194313,0.046847,-0.071475,0.999447,0.024159,0.001472,0.022816,0.670268,-0.494124,-0.523754,-0.179622
34172,NaN,20.734712,4.659464,-7.784134,15.993500,1.501046,6.126798,4.428149,0.291795,3.976135,-0.355469,0.831787,-0.355469,0.206231,0.052414,-0.077025,0.999556,0.022137,0.001459,0.019878,0.685244,-0.489216,-0.516698,-0.155345
34173,NaN,17.370936,6.043640,-7.806272,15.420919,1.609416,2.786913,3.614914,0.257692,3.317929,-0.325195,0.829834,-0.378906,0.172560,0.064706,-0.077142,0.999698,0.018073,0.001288,0.016588,0.681705,-0.480858,-0.530100,-0.151817
34174,NaN,10.505181,6.123898,-6.733694,12.475308,0.858858,-3.745703,2.900959,-0.008945,2.729495,-0.303467,0.825439,-0.406494,0.104197,0.063633,-0.066421,0.999802,0.014504,-0.000045,0.013647,0.690592,-0.478116,-0.525665,-0.134774
34175,NaN,4.848538,5.685037,-4.823738,8.700947,0.559066,-8.060101,2.149256,-0.368164,2.025923,-0.284180,0.825439,-0.415039,0.047991,0.057851,-0.047531,0.999889,0.010746,-0.001841,0.010129,0.678605,-0.471804,-0.544791,-0.141773
34176,NaN,0.826667,5.237792,-2.598023,5.562488,0.925176,-11.564745,1.133409,-0.696588,1.176644,-0.281982,0.827637,-0.417236,0.008047,0.052572,-0.025654,0.999961,0.005667,-0.003483,0.005883,0.680188,-0.471638,-0.545161,-0.133044
34177,NaN,-2.280304,3.473699,-1.160871,2.532060,0.123378,-13.303731,-0.045334,-1.041052,0.266684,-0.282227,0.831787,-0.406494,-0.022788,0.034704,-0.011735,0.999986,-0.000227,-0.005205,0.001333,0.659654,-0.468750,-0.567982,-0.150090
34178,NaN,-5.097931,1.812822,-0.717932,0.225203,-1.361903,-15.093247,-1.179472,-1.405339,-0.760915,-0.297363,0.836182,-0.391846,-0.050857,0.018278,-0.007644,0.999951,-0.005897,-0.007027,-0.003805,0.652295,-0.471510,-0.573488,-0.152648
34179,NaN,-6.427304,0.405081,-0.672230,-0.784872,-2.517449,-15.726277,-2.174184,-1.649093,-1.906314,-0.317139,0.840332,-0.361816,-0.064172,0.004586,-0.007300,0.999861,-0.010870,-0.008245,-0.009531,0.623969,-0.469839,-0.598829,-0.176967
34180,NaN,-7.476971,-0.056194,-1.331447,-0.800474,-3.648491,-16.425114,-2.912456,-1.781706,-3.091275,-0.360107,0.836182,-0.327881,-0.074646,0.000392,-0.013981,0.999735,-0.014561,-0.008908,-0.015455,0.608893,-0.471122,-0.608913,-0.191098
34181,NaN,-7.416745,0.043670,-2.308158,0.424030,-4.399568,-16.199802,-3.321463,-1.776514,-4.250959,-0.400635,0.827637,-0.291504,-0.073932,0.001619,-0.023759,0.999597,-0.016605,-0.008881,-0.021252,0.575327,-0.464919,-0.636823,-0.217498
34182,NaN,-5.917929,-0.184067,-3.233687,1.115010,-4.717899,-14.503777,-3.469302,-1.658452,-5.355636,-0.449951,0.816895,-0.255127,-0.058940,-0.000826,-0.032806,0.999457,-0.017343,-0.008291,-0.026773,0.555848,-0.459398,-0.649922,-0.239973
34183,NaN,-3.531615,-0.517651,-3.717426,1.479957,-4.466788,-11.914155,-3.486723,-1.488582,-6.341914,-0.507080,0.789062,-0.224854,-0.035193,-0.004709,-0.037352,0.999318,-0.017430,-0.007441,-0.031702,0.519766,-0.443817,-0.680026,-0.265394
34184,NaN,-1.343596,-0.182135,-3.800606,1.703937,-3.657750,-9.828831,-3.514370,-1.292873,-7.160704,-0.562012,0.759033,-0.190430,-0.013260,-0.002013,-0.038058,0.999184,-0.017567,-0.006463,-0.035794,0.497651,-0.429960,-0.694054,-0.292860
34185,NaN,-0.231447,0.637825,-4.381809,2.475133,-3.387364,-8.378223,-3.514883,-1.145166,-7.845382,-0.629639,0.716309,-0.156006,-0.001831,0.005685,-0.043933,0.999060,-0.017569,-0.005724,-0.039215,0.460471,-0.404992,-0.723291,-0.317488
34186,NaN,0.383240,1.362372,-4.952766,3.025097,-3.409579,-7.414645,-3.385671,-1.046593,-8.390213,-0.681641,0.662598,-0.127441,0.004635,0.012600,-0.049724,0.998963,-0.016923,-0.005231,-0.041937,0.436042,-0.383693,-0.736561,-0.346590
34187,NaN,0.501594,1.194381,-5.357955,2.761602,-3.768914,-6.888865,-3.083614,-1.074551,-8.775863,-0.735596,0.604736,-0.101318,0.005797,0.010873,-0.053723,0.998904,-0.015412,-0.005371,-0.043863,0.398449,-0.350382,-0.763351,-0.368465
34188,NaN,1.371052,1.749102,-4.583693,2.310590,-2.730305,-6.186788,-2.646670,-1.180075,-9.046624,-0.784668,0.531982,-0.076904,0.014735,0.016232,-0.045972,0.998872,-0.013228,-0.005898,-0.045216,0.372201,-0.322915,-0.775809,-0.394097
34189,NaN,3.201421,1.870323,-3.676588,0.710758,-1.522238,-4.870433,-2.494296,-1.364245,-9.088173,-0.825439,0.465576,-0.048096,0.033056,0.016758,-0.036760,0.998867,-0.012467,-0.006819,-0.045424,0.334480,-0.284396,-0.799191,-0.410531
34190,NaN,5.357303,1.390472,-2.889658,-1.667349,-0.889701,-3.864226,-2.454504,-1.516478,-9.070460,-0.865967,0.390625,-0.025879,0.054337,0.011099,-0.028634,0.998868,-0.012268,-0.007580,-0.045335,0.305943,-0.255057,-0.808678,-0.432879
34191,NaN,7.575823,-0.597932,-1.615050,-5.495902,-0.676800,-4.367419,-2.526249,-1.600533,-8.993617,-0.889160,0.313477,-0.005615,0.075507,-0.009577,-0.015440,0.998877,-0.012627,-0.008000,-0.044951,0.268816,-0.216229,-0.824913,-0.447773
34192,NaN,10.080229,-3.040542,-1.726207,-9.271962,-1.986805,-4.930494,-2.610834,-1.632487,-8.865685,-0.910400,0.236328,0.021240,0.099451,-0.035049,-0.016009,0.998899,-0.013049,-0.008159,-0.044312,0.239125,-0.186599,-0.829937,-0.468193
34193,NaN,12.561892,-5.927419,-2.498099,-12.983008,-4.276217,-6.321227,-2.663629,-1.625059,-8.679085,-0.929199,0.163330,0.041504,0.123074,-0.064969,-0.023134,0.998937,-0.013313,-0.008122,-0.043380,0.206120,-0.149791,-0.838889,-0.480981
34194,NaN,14.852037,-10.286193,-4.201592,-16.686399,-8.055717,-9.116553,-2.498021,-1.654580,-8.421374,-0.933105,0.088379,0.055420,0.144335,-0.109503,-0.039470,0.999001,-0.012486,-0.008270,-0.042093,0.176860,-0.120882,-0.840055,-0.498413
34195,NaN,16.675718,-16.123761,-5.376152,-19.837406,-12.470602,-14.006586,-2.026675,-1.710627,-8.090688,-0.932861,0.013184,0.071533,0.160484,-0.168340,-0.050689,0.999094,-0.010130,-0.008551,-0.040441,0.152066,-0.086462,-0.846543,-0.502757
34196,NaN,17.597367,-21.355425,-4.845838,-21.602625,-14.641028,-20.193488,-1.675152,-1.781914,-7.678072,-0.934814,-0.051025,0.089600,0.168008,-0.220494,-0.045110,0.999188,-0.008373,-0.008907,-0.038380,0.124382,-0.059653,-0.846319,-0.514504
34197,NaN,18.823771,-25.405892,-4.251586,-22.372988,-17.175640,-24.707051,-1.792110,-1.918760,-7.146501,-0.926025,-0.119629,0.105713,0.179376,-0.260932,-0.038448,0.999276,-0.008958,-0.009591,-0.035724,0.110985,-0.027911,-0.852582,-0.509910
34198,NaN,21.177406,-28.644836,-4.456309,-23.841637,-18.825722,-28.931356,-2.088344,-2.001853,-6.381612,-0.909180,-0.173340,0.117432,0.202896,-0.293448,-0.039462,0.999386,-0.010440,-0.010007,-0.031902,0.085826,-0.006957,-0.848736,-0.521759
34199,NaN,24.323056,-33.229298,-5.327920,-25.551996,-23.714289,-32.360616,-2.024228,-1.862563,-5.331090,-0.899170,-0.216309,0.137451,0.234712,-0.339127,-0.047657,0.999550,-0.010120,-0.009311,-0.026651,0.087624,0.019742,-0.854679,-0.511328
34200,NaN,25.373705,-38.413363,-4.900509,-25.616531,-25.518733,-38.720648,-1.068967,-1.438970,-4.138024,-0.885254,-0.246338,0.144287,0.246049,-0.389526,-0.045144,0.999746,-0.005344,-0.007194,-0.020688,0.070980,0.033272,-0.851951,-0.517720
34201,NaN,22.196611,-40.058816,-3.407407,-21.125645,-27.677035,-39.755054,0.584033,-0.935566,-3.033000,-0.880371,-0.265625,0.155273,0.216018,-0.403794,-0.034230,0.999870,0.002920,-0.004678,-0.015164,0.092941,0.057910,-0.865566,-0.488675
34202,NaN,17.920433,-35.286053,-0.194829,-16.720863,-22.032125,-38.118347,1.777846,-0.481862,-1.941198,-0.877686,-0.280762,0.164062,0.175778,-0.354544,-0.004669,0.999910,0.008889,-0.002409,-0.009706,0.085589,0.065955,-0.869494,-0.481979
34203,NaN,12.740715,-29.731135,3.213549,-11.877876,-18.239174,-33.954258,1.748944,-0.250946,-0.754006,-0.875732,-0.276367,0.168457,0.126246,-0.298056,0.029690,0.999954,0.008745,-0.001255,-0.003770,0.119170,0.086746,-0.884123,-0.443396
34204,NaN,9.144752,-25.083687,5.242924,-9.061565,-13.326999,-31.734799,1.144243,-0.295430,0.399718,-0.875977,-0.267822,0.178955,0.091873,-0.250949,0.051129,0.999981,0.005721,-0.001477,0.001999,0.118252,0.085003,-0.886992,-0.438219
34205,NaN,7.303708,-22.896461,2.314364,-6.486608,-15.347695,-27.285769,0.506657,-0.726172,1.635679,-0.878906,-0.246338,0.185059,0.074823,-0.228416,0.022834,0.999957,0.002533,-0.003631,0.008178,0.149715,0.092411,-0.896230,-0.407207
34206,NaN,10.825669,-34.543656,-0.658919,-9.001472,-26.102397,-33.230577,0.127159,-0.816498,3.489015,-0.884521,-0.209961,0.193115,0.114286,-0.343474,-0.006350,0.999839,0.000636,-0.004082,0.017444,0.153076,0.075195,-0.898568,-0.404337
34207,NaN,30.221429,-37.925282,-5.564526,-25.731074,-38.591259,-24.996101,-1.063338,-0.968020,5.860191,-0.899414,-0.149902,0.192139,0.313414,-0.370461,-0.052161,0.999545,-0.005316,-0.004839,0.029297,0.185963,0.061293,-0.904666,-0.378470
34208,NaN,111.225055,12.649215,26.181015,-111.420995,1.112490,18.343384,-3.741668,1.139849,7.667112,-0.907959,-0.087646,0.180420,1.107648,0.173805,0.252530,0.999074,-0.018703,0.005697,0.038324,0.206596,0.025244,-0.898040,-0.387563
34209,NaN,-3.338110,17.560038,4.919543,3.371522,16.774899,-2.690060,-2.594093,-0.626377,8.261867,-0.908203,-0.023438,0.185791,-0.040759,0.174635,0.046806,0.999058,-0.012966,-0.003131,0.041296,0.248714,-0.006047,-0.897674,-0.363713
34210,NaN,-14.313440,-40.754294,-22.659962,13.146634,-42.936755,-28.836709,-1.786197,-0.749047,6.959606,-0.903809,0.036621,0.195557,-0.127956,-0.414177,-0.223418,0.999348,-0.008929,-0.003744,0.034790,0.257790,-0.040856,-0.894562,-0.362815
34211,NaN,-14.406278,-27.913565,4.568889,2.179304,-16.825116,-36.634597,-1.807988,-0.134944,6.317308,-0.905518,0.085693,0.194824,-0.135194,-0.283072,0.048143,0.999460,-0.009038,-0.000675,0.031581,0.286693,-0.062478,-0.893272,-0.340541
34212,NaN,-6.098218,-18.376967,3.643722,-2.684526,-11.307658,-25.719727,0.523889,-0.565822,4.893627,-0.896484,0.130859,0.207275,-0.056563,-0.185284,0.035789,0.999693,0.002619,-0.002829,0.024466,0.292574,-0.084527,-0.893173,-0.330906
34213,NaN,13.246215,-16.053079,-4.329029,-13.798051,-15.919000,-6.983724,2.499662,-0.536930,4.598246,-0.887207,0.177979,0.197998,0.136216,-0.156873,-0.044904,0.999654,0.012497,-0.002684,0.022989,0.311676,-0.093464,-0.898692,-0.294066
34214,NaN,17.306214,-10.067545,-7.959622,-13.077188,-12.786578,1.571998,3.094687,-0.118830,4.028263,-0.877930,0.218750,0.195312,0.175074,-0.095916,-0.081001,0.999677,0.015472,-0.000594,0.020139,0.318410,-0.106886,-0.901255,-0.273734
34215,NaN,9.740892,-10.115511,-5.020885,-8.181963,-11.030937,-4.002605,2.761702,0.199099,3.365259,-0.870361,0.248535,0.181885,0.099034,-0.098791,-0.051682,0.999763,0.013807,0.000995,0.016825,0.335925,-0.108971,-0.904464,-0.239216
34216,NaN,6.864565,-4.921913,-2.227661,-5.649414,-5.036408,-5.451449,2.102701,0.259984,3.010233,-0.862793,0.282959,0.177246,0.069344,-0.047940,-0.022875,0.999831,0.010513,0.001300,0.015050,0.341790,-0.118724,-0.904749,-0.224752
34217,NaN,12.978924,-7.028035,-4.200029,-9.422864,-7.294116,-0.144540,1.380964,0.134039,2.757214,-0.859375,0.306641,0.168213,0.130711,-0.068190,-0.042563,0.999881,0.006905,0.000670,0.013786,0.354496,-0.121348,-0.905347,-0.199884
34218,NaN,12.708523,-7.440537,-2.877307,-10.093647,-6.779890,-1.021551,0.896028,0.264494,2.603250,-0.845215,0.330078,0.170166,0.128000,-0.072613,-0.029270,0.999904,0.004480,0.001322,0.013016,0.358805,-0.131269,-0.904108,-0.191354
34219,NaN,14.858958,-10.157234,-5.319166,-10.729598,-9.842078,2.029782,0.696413,0.346553,2.273251,-0.839355,0.353760,0.159180,0.149637,-0.099689,-0.053800,0.999928,0.003482,0.001733,0.011366,0.369910,-0.133433,-0.903142,-0.172331
34220,NaN,16.404132,-9.474903,-5.946638,-11.072324,-9.010370,3.987147,0.524539,0.458809,1.919262,-0.835449,0.360107,0.156982,0.164802,-0.093013,-0.060089,0.999948,0.002623,0.002294,0.009596,0.373966,-0.140728,-0.901417,-0.166708
34221,NaN,20.524628,-10.419583,-6.244448,-13.509649,-9.249534,7.529263,0.473401,0.583334,1.528907,-0.824951,0.373047,0.150391,0.205850,-0.102475,-0.063288,0.999964,0.002367,0.002917,0.007644,0.384440,-0.140051,-0.899870,-0.151084
34222,NaN,23.472248,-8.798069,-5.424834,-15.223045,-6.820576,9.668280,0.514103,0.737811,1.159585,-0.829834,0.387939,0.141602,0.235024,-0.086477,-0.055339,0.999973,0.002570,0.003689,0.005798,0.388985,-0.143720,-0.898004,-0.147052
34223,NaN,26.618185,-7.156154,-4.816673,-16.473906,-4.548200,12.342483,0.631154,0.831634,0.844979,-0.827637,0.390137,0.132812,0.266277,-0.070282,-0.049497,0.999977,0.003156,0.004158,0.004225,0.399882,-0.139608,-0.896089,-0.132769
34224,NaN,28.993085,-3.981595,-4.284206,-16.966712,-0.963095,14.394754,0.900310,0.804723,0.557553,-0.823730,0.398682,0.119873,0.289864,-0.038811,-0.044185,0.999978,0.004502,0.004024,0.002788,0.404478,-0.139770,-0.894669,-0.128177
34225,NaN,31.748267,-0.228187,-4.946567,-16.424781,2.734355,17.668574,1.462513,0.428862,0.199580,-0.823975,0.405273,0.106934,0.317377,-0.001600,-0.050160,0.999970,0.007312,0.002144,0.000998,0.413690,-0.131445,-0.893887,-0.112023
34226,NaN,29.936954,2.221147,-4.214192,-14.931783,5.056640,16.079133,2.375640,0.172369,-0.264075,-0.830322,0.403076,0.089844,0.299363,0.022317,-0.042135,0.999928,0.011878,0.000862,-0.001320,0.415845,-0.125247,-0.894970,-0.102055
34227,NaN,25.989056,4.996501,-4.933758,-11.011754,6.951261,13.749047,3.591278,-0.127905,-0.744730,-0.834473,0.400879,0.083496,0.260107,0.049870,-0.048275,0.999832,0.017955,-0.000639,-0.003723,0.423121,-0.108620,-0.896028,-0.079406
34228,NaN,23.751331,6.367925,-3.327108,-10.729038,8.353961,10.943814,4.924192,-0.133817,-1.338727,-0.842773,0.392578,0.051270,0.237958,0.062878,-0.031557,0.999674,0.024618,-0.000669,-0.006693,0.424526,-0.092225,-0.898700,-0.060078
34229,NaN,20.411427,8.425204,-2.180091,-9.416206,10.044474,7.588051,5.499228,0.132750,-1.627204,-0.846680,0.384033,0.027832,0.204780,0.083147,-0.019640,0.999589,0.027492,0.000664,-0.008135,0.432504,-0.067558,-0.898504,-0.032671
34230,NaN,16.314972,1.436039,0.293384,-10.093911,2.854088,2.768599,4.615820,0.456803,-1.404974,-0.852783,0.377686,0.010742,0.163252,0.013147,0.002874,0.999706,0.023077,0.002284,-0.007024,0.435759,-0.051173,-0.898480,-0.015117
34231,NaN,19.252317,6.473790,-2.753760,-8.978516,7.674696,6.939295,2.377091,0.228284,-0.569316,-0.859131,0.375488,0.004395,0.192676,0.064513,-0.026990,0.999925,0.011885,0.001141,-0.002847,0.442367,-0.038027,-0.896027,-0.000828
34232,NaN,23.110327,8.090337,-8.144229,-6.877554,9.407468,13.210400,-0.652877,0.514541,0.888719,-0.855225,0.388428,0.004150,0.230531,0.081661,-0.082302,0.999981,-0.003264,0.002573,0.004444,0.444544,-0.043452,-0.894700,-0.001883
34233,NaN,19.571004,7.616394,-7.851362,-4.533180,8.907355,10.255973,-1.674917,1.421792,2.729656,-0.841309,0.418457,-0.013184,0.194085,0.078151,-0.080546,0.999847,-0.008374,0.007109,0.013648,0.455149,-0.054461,-0.888748,0.000266
34234,NaN,13.801181,2.434857,-1.565959,-6.277093,3.996046,2.163700,-1.889437,2.161253,5.060964,-0.816895,0.465576,-0.024658,0.137158,0.027668,-0.017396,0.999577,-0.009446,0.010805,0.025301,0.464038,-0.081228,-0.882078,0.002801
34235,NaN,15.453132,-12.235989,-8.183166,-3.412625,-9.907540,8.776696,-1.447024,1.693919,6.780368,-0.773682,0.521240,-0.031494,0.157878,-0.117639,-0.082297,0.999363,-0.007234,0.008468,0.033895,0.474603,-0.109984,-0.873176,0.014828
34236,NaN,20.758151,-3.604280,-9.635214,-3.364204,0.686081,13.095342,-1.854005,1.141876,7.496869,-0.741455,0.583252,-0.032471,0.208207,-0.029144,-0.097248,0.999238,-0.009268,0.005708,0.037475,0.477651,-0.147107,-0.865817,0.023884
34237,NaN,25.968012,9.383843,-4.965712,-6.081562,16.368961,12.137160,-1.223564,1.152382,7.162851,-0.704590,0.632568,-0.032959,0.255812,0.102735,-0.051749,0.999323,-0.006116,0.005761,0.035806,0.483980,-0.176770,-0.856166,0.038663
34238,NaN,28.945505,11.186074,-4.445264,-6.218250,20.594733,12.979997,-0.828904,1.072476,7.124111,-0.659180,0.690186,-0.035645,0.284986,0.121877,-0.046480,0.999343,-0.004144,0.005361,0.035613,0.486144,-0.209358,-0.846873,0.051380
34239,NaN,30.539030,9.560569,-6.884299,-3.985987,20.976275,14.987672,-0.203935,1.155501,7.376048,-0.608887,0.730957,-0.046875,0.301186,0.106695,-0.070697,0.999303,-0.001019,0.005776,0.036872,0.491827,-0.237336,-0.834826,0.069591
34240,NaN,30.315824,10.284892,-8.444141,-0.946752,22.908352,14.060088,0.955825,1.372243,7.481662,-0.552002,0.767334,-0.079102,0.298434,0.114482,-0.085971,0.999265,0.004778,0.006860,0.037399,0.495725,-0.266513,-0.821629,0.090297
34241,NaN,27.227125,11.284570,-7.958805,1.456011,23.499330,9.608808,1.999183,1.423696,7.370883,-0.501709,0.810059,-0.098877,0.267278,0.123560,-0.080303,0.999246,0.009993,0.007117,0.036845,0.503600,-0.288909,-0.805964,0.115499
34242,NaN,23.296707,10.908262,-7.247902,3.041097,22.075837,4.928935,2.795811,1.234724,7.135293,-0.440186,0.837891,-0.131104,0.228409,0.118299,-0.072288,0.999247,0.013976,0.006172,0.035668,0.508114,-0.311115,-0.790329,0.142857
34243,NaN,19.611692,9.617580,-8.110415,5.212938,19.437882,1.918561,3.518019,0.836740,6.841300,-0.385010,0.857178,-0.167480,0.192307,0.104214,-0.080128,0.999252,0.017586,0.004183,0.034198,0.514557,-0.326908,-0.773908,0.171546
34244,NaN,16.615468,8.462987,-8.754069,6.646766,17.197172,-0.636698,4.263021,0.405502,6.436721,-0.333740,0.872314,-0.214600,0.163102,0.091757,-0.085968,0.999253,0.021310,0.002027,0.032176,0.517189,-0.340949,-0.758111,0.203805
34245,NaN,14.634444,8.622290,-7.610636,6.359565,16.389286,-3.711833,4.889946,0.139069,5.802644,-0.286621,0.883057,-0.261719,0.143674,0.092245,-0.074000,0.999280,0.024444,0.000695,0.029006,0.522567,-0.348309,-0.742122,0.234219
34246,NaN,14.919431,8.561169,-5.797861,4.592366,16.983974,-5.359790,5.287193,0.038699,5.012036,-0.253906,0.878662,-0.310791,0.146951,0.090806,-0.055652,0.999337,0.026430,0.000193,0.025055,0.525702,-0.352907,-0.726610,0.266705
34247,NaN,17.061579,10.829608,-6.970046,5.749825,20.322165,-6.531127,5.205783,0.006212,4.177986,-0.221191,0.867920,-0.351074,0.168277,0.113592,-0.066795,0.999443,0.026024,0.000031,0.020886,0.531872,-0.352915,-0.712037,0.292517
34248,NaN,19.016957,11.187304,-7.705371,5.904982,22.398781,-6.733627,4.751016,-0.086404,3.302337,-0.201172,0.855225,-0.395752,0.188301,0.116779,-0.074237,0.999581,0.023752,-0.000432,0.016509,0.534896,-0.351765,-0.699192,0.318241
34249,NaN,14.775175,10.194868,-6.101578,4.786638,18.334871,-9.227891,3.902068,-0.144950,2.423505,-0.190186,0.844482,-0.425537,0.146536,0.104892,-0.058882,0.999736,0.019509,-0.000725,0.012116,0.540347,-0.348726,-0.689482,0.333211
34250,NaN,6.040912,8.641284,-4.512460,4.288942,10.073503,-13.224870,3.091206,-0.494330,1.627515,-0.187256,0.829590,-0.444580,0.059809,0.087583,-0.043629,0.999844,0.015455,-0.002472,0.008137,0.541238,-0.345109,-0.682721,0.349075
34251,NaN,-0.545427,7.490892,-2.673343,3.381721,3.732190,-15.992538,1.937027,-0.921333,0.645967,-0.193604,0.823242,-0.457520,-0.005576,0.075145,-0.026032,0.999937,0.009685,-0.004607,0.003230,0.543386,-0.340071,-0.681503,0.353040
34252,NaN,-4.419806,7.421086,-0.285074,1.669255,0.168890,-18.290497,0.444992,-1.334080,-0.543753,-0.217041,0.818848,-0.451172,-0.043976,0.074337,-0.002979,0.999972,0.002225,-0.006670,-0.002719,0.540542,-0.334646,-0.685246,0.355338
34253,NaN,-6.452549,5.641965,0.117933,1.385883,-2.490544,-17.896805,-1.193188,-1.793742,-1.737348,-0.249268,0.814697,-0.429688,-0.064037,0.056981,0.000265,0.999904,-0.005966,-0.008968,-0.008686,0.553705,-0.361159,-0.679497,0.318212
34254,NaN,-6.080530,3.204906,0.145724,1.177514,-3.318691,-15.716744,-2.602487,-2.113968,-3.002245,-0.292480,0.814697,-0.391357,-0.060323,0.032967,0.000393,0.999747,-0.013011,-0.010569,-0.015010,0.546461,-0.354711,-0.694737,0.304796
34255,NaN,-5.866848,1.220423,-0.255104,1.109514,-4.123079,-14.024080,-3.564189,-2.246357,-4.303738,-0.342041,0.814697,-0.357422,-0.058353,0.013406,-0.003439,0.999547,-0.017818,-0.011230,-0.021515,0.550368,-0.372542,-0.700698,0.259479
34256,NaN,-5.196857,0.285919,-0.816198,1.551065,-3.979691,-12.895641,-4.015120,-2.207986,-5.565279,-0.404053,0.799805,-0.316650,-0.051771,0.004129,-0.008809,0.999350,-0.020071,-0.011038,-0.027820,0.542020,-0.360990,-0.721888,0.234047
34257,NaN,-2.811989,-0.185629,-1.986426,2.153647,-2.491224,-10.833454,-4.035100,-2.005229,-6.763231,-0.469971,0.773926,-0.273926,-0.027970,-0.001313,-0.020115,0.999175,-0.020170,-0.010023,-0.033807,0.541362,-0.366641,-0.733615,0.185232
34258,NaN,0.894781,-0.225016,-3.022006,2.559694,0.084172,-7.962909,-3.804829,-1.688178,-7.804176,-0.535400,0.739746,-0.235107,0.009090,-0.003176,-0.030089,0.999022,-0.019018,-0.008438,-0.039008,0.534896,-0.346400,-0.755289,0.153075
34259,NaN,4.150734,0.076085,-3.422160,2.354173,2.148410,-5.480444,-3.489480,-1.350989,-8.614101,-0.608887,0.684082,-0.202393,0.041701,-0.001627,-0.033926,0.998898,-0.017441,-0.006752,-0.043055,0.532298,-0.338873,-0.768705,0.104479
34260,NaN,4.760891,1.040517,-3.420347,2.361893,2.935405,-5.205572,-3.265168,-1.079487,-9.246135,-0.674072,0.635010,-0.174316,0.048189,0.007628,-0.034084,0.998784,-0.016319,-0.005395,-0.046212,0.526804,-0.311062,-0.788005,0.069037
34261,NaN,4.337899,2.121898,-3.858528,3.124918,3.008695,-5.412551,-3.096916,-0.920977,-9.757994,-0.733887,0.560059,-0.149902,0.044503,0.018467,-0.038682,0.998680,-0.015478,-0.004603,-0.048768,0.521181,-0.292785,-0.801357,0.021780
34262,NaN,4.729479,2.285711,-3.916948,2.831948,2.969105,-4.707364,-2.880294,-0.866976,-10.125207,-0.780518,0.476318,-0.125244,0.048521,0.019855,-0.039261,0.998606,-0.014395,-0.004333,-0.050603,0.513872,-0.259235,-0.817625,-0.014890
34263,NaN,6.339951,3.124400,-2.492282,1.103696,4.291424,-3.772743,-2.627308,-0.859789,-10.306503,-0.829346,0.395020,-0.102783,0.064992,0.027593,-0.025024,0.998577,-0.013130,-0.004297,-0.051508,0.504863,-0.224052,-0.831901,-0.053423
34264,NaN,8.152102,1.774712,-2.242631,-0.834954,3.108852,-1.800028,-2.837094,-1.029400,-10.250140,-0.867432,0.309326,-0.078125,0.082391,0.013222,-0.022213,0.998573,-0.014179,-0.005145,-0.051226,0.493952,-0.188551,-0.844030,-0.089852
34265,NaN,9.949113,-0.022833,-1.582541,-3.402929,1.244232,-0.417624,-2.808151,-1.132061,-10.199998,-0.892334,0.223633,-0.057861,0.099387,-0.005517,-0.015210,0.998585,-0.014034,-0.005658,-0.050976,0.480572,-0.153024,-0.853995,-0.127772
34266,NaN,11.257425,-3.259866,-1.378300,-5.939465,-2.455303,0.077884,-2.925466,-1.287964,-10.037909,-0.897949,0.131348,-0.032959,0.110827,-0.038381,-0.012532,0.998613,-0.014621,-0.006437,-0.050166,0.465764,-0.117819,-0.861712,-0.163204
34267,NaN,11.984047,-5.879403,-2.604015,-6.763493,-6.339322,0.130501,-2.880273,-1.432114,-9.894840,-0.909912,0.045654,-0.020996,0.116905,-0.064986,-0.024289,0.998647,-0.014395,-0.007157,-0.049452,0.448762,-0.082938,-0.867255,-0.199007
34268,NaN,14.466925,-8.568001,-4.428546,-8.083826,-10.698115,1.244246,-2.723739,-1.600836,-9.727061,-0.909424,-0.031494,0.005859,0.140600,-0.093168,-0.041914,0.998693,-0.013613,-0.008001,-0.048614,0.430435,-0.048370,-0.871033,-0.231705
34269,NaN,18.040565,-13.649630,-6.734548,-10.339935,-17.807178,1.706263,-2.099513,-1.788361,-9.494711,-0.895996,-0.113037,0.026611,0.174221,-0.145553,-0.064272,0.998778,-0.010493,-0.008938,-0.047454,0.410648,-0.013345,-0.873502,-0.261123
34270,NaN,22.092548,-20.156884,-7.099261,-14.285049,-25.499739,-0.335359,-1.319048,-1.950987,-9.190509,-0.889160,-0.190430,0.049072,0.212014,-0.211903,-0.067520,0.998875,-0.006593,-0.009751,-0.045935,0.389588,0.021541,-0.875414,-0.285321
34271,NaN,27.562746,-24.959417,-6.245914,-19.143489,-31.615609,-2.413540,-1.045534,-2.106775,-8.752566,-0.869385,-0.263184,0.069580,0.264979,-0.261660,-0.058283,0.998973,-0.005226,-0.010530,-0.043748,0.368507,0.055245,-0.876002,-0.306221
34272,NaN,34.171291,-26.539114,-5.176730,-24.385443,-35.485987,-3.198215,-1.532007,-2.176905,-8.149633,-0.852295,-0.323486,0.092041,0.331038,-0.279395,-0.046020,0.999081,-0.007658,-0.010881,-0.040736,0.346588,0.084725,-0.874611,-0.328260
34273,NaN,37.420412,-29.984588,-3.280968,-27.660306,-39.249147,-7.962505,-2.209385,-1.789980,-7.066044,-0.835205,-0.379150,0.099365,0.363550,-0.313131,-0.026113,0.999275,-0.011044,-0.008948,-0.035322,0.330358,0.109725,-0.870244,-0.348567
34274,NaN,33.053178,-40.115120,-1.618201,-25.069261,-44.122898,-21.139232,-1.615076,-0.952200,-5.519626,-0.824951,-0.428467,0.104492,0.319355,-0.410173,-0.011355,0.999575,-0.008074,-0.004760,-0.027594,0.317345,0.129366,-0.865604,-0.365083
34275,NaN,21.894239,-44.188194,-3.455561,-13.841966,-43.013387,-29.857487,0.831561,-0.240474,-4.144844,-0.809082,-0.452148,0.122070,0.209768,-0.446145,-0.036149,0.999776,0.004157,-0.001202,-0.020723,0.312442,0.149562,-0.864348,-0.364573
34276,NaN,13.030157,-35.874767,-0.989341,-7.570122,-31.654682,-29.770485,1.862532,-0.049508,-2.692768,-0.802246,-0.469238,0.133057,0.125460,-0.360346,-0.013213,0.999866,0.009312,-0.000248,-0.013463,0.305887,0.163998,-0.865691,-0.360717
34277,NaN,8.369419,-31.080787,1.560045,-6.435800,-24.602992,-29.605621,0.317061,-0.586485,-0.992611,-0.803955,-0.482178,0.135254,0.082105,-0.311242,0.015350,0.999982,0.001585,-0.002932,-0.004963,0.296769,0.146750,-0.870309,-0.364631
34278,NaN,8.096056,-31.975461,4.867073,-8.272502,-23.171121,-32.314206,-0.734460,-0.999725,0.663611,-0.808594,-0.473633,0.143799,0.081772,-0.319302,0.050251,0.999975,-0.003672,-0.004999,0.003318,0.294162,0.140946,-0.870918,-0.367565
34279,NaN,11.701634,-30.646745,6.059737,-13.258853,-22.894739,-30.131840,-0.423382,-0.769950,2.030772,-0.821777,-0.460693,0.152100,0.119883,-0.305130,0.061702,0.999939,-0.002117,-0.003850,0.010154,0.291808,0.112711,-0.875415,-0.368501
34280,NaN,11.807433,-26.557154,6.880415,-14.344102,-19.607629,-27.184129,0.279482,-0.182954,2.947161,-0.842041,-0.439209,0.158203,0.121909,-0.263890,0.068545,0.999890,0.001397,-0.000915,0.014735,0.296251,0.099870,-0.877761,-0.363039
34281,NaN,8.134862,-16.925661,6.022020,-11.388322,-11.674293,-20.898704,0.675964,0.113352,3.489282,-0.860352,-0.409180,0.164062,0.084321,-0.168005,0.059604,0.999842,0.003380,0.000567,0.017445,0.301245,0.070963,-0.882040,-0.355275
34282,NaN,0.606691,-8.574588,-6.040452,2.112946,-10.107119,-11.748958,-0.059216,-0.608794,3.831071,-0.880615,-0.381348,0.178467,0.007892,-0.085624,-0.060357,0.999812,-0.000296,-0.003044,0.019154,0.305333,0.052884,-0.884045,-0.349913
34283,NaN,1.358174,-9.747388,-44.251003,21.704313,-34.660454,9.736692,-3.180061,-2.728275,5.250019,-0.890381,-0.347168,0.188721,0.022275,-0.103982,-0.440627,0.999436,-0.015897,-0.013639,0.026245,0.302079,0.007317,-0.884169,-0.356285
34284,NaN,112.292840,32.723110,14.577206,-91.500497,9.977594,63.794077,-0.196104,0.774407,5.180999,-0.916016,-0.293457,0.177002,1.114501,0.356317,0.141106,0.999657,-0.000980,0.003872,0.025902,0.314637,-0.014506,-0.882536,-0.349175
34285,NaN,34.672152,-60.911266,9.187738,-50.615556,-45.230970,-29.435963,0.972701,0.019734,9.793634,-0.934326,-0.199219,0.188232,0.375994,-0.591611,0.088935,0.998789,0.004862,0.000099,0.048948,0.327491,-0.066838,-0.881678,-0.333056
34286,NaN,4.751631,-42.900547,-13.853202,-12.253341,-42.165938,-21.012756,-0.175464,-1.616008,8.960012,-0.945801,-0.119873,0.195557,0.067777,-0.426392,-0.137664,0.998964,-0.000877,-0.008077,0.044785,0.334890,-0.109233,-0.880124,-0.318276
34287,NaN,-23.829563,-8.377379,13.770892,6.808958,2.106830,-37.681301,-1.129796,0.501954,6.635933,-0.949707,-0.066162,0.188477,-0.235012,-0.090827,0.138801,0.999431,-0.005648,0.002509,0.033173,0.343624,-0.148740,-0.871842,-0.315739
34288,NaN,-9.574918,-12.010423,-4.192120,2.933585,-12.450820,-19.289256,0.468993,-0.853787,5.748222,-0.945068,-0.014893,0.194092,-0.092067,-0.122686,-0.042605,0.999575,0.002345,-0.004268,0.028737,0.349182,-0.174274,-0.869403,-0.303049
34289,NaN,2.300559,-20.005231,-7.825596,-8.873075,-19.648342,-11.164924,1.947280,-0.499021,5.445302,-0.947021,0.040771,0.195312,0.028624,-0.198550,-0.080127,0.999579,0.009735,-0.002495,0.027223,0.349809,-0.210636,-0.865914,-0.288894
34290,NaN,12.348309,-8.857796,-0.170000,-13.104480,-4.484458,-3.560702,1.729499,-0.096417,4.735462,-0.948486,0.085938,0.198975,0.125535,-0.085603,-0.002389,0.999682,0.008647,-0.000482,0.023675,0.357944,-0.228186,-0.863317,-0.272930
34291,NaN,16.217257,-15.853313,-12.551468,-13.343906,-16.230487,5.360808,3.167802,0.013887,3.934299,-0.939209,0.124512,0.189941,0.165214,-0.153289,-0.127982,0.999681,0.015837,0.000069,0.019669,0.366481,-0.241213,-0.862379,-0.252607
34292,NaN,16.213609,-3.742409,-1.682381,-11.173094,0.056385,2.630948,1.910471,0.755565,3.356749,-0.938232,0.158691,0.185059,0.162666,-0.034530,-0.017777,0.999806,0.009552,0.003778,0.016783,0.376214,-0.251187,-0.859191,-0.239079
34293,NaN,9.245508,-10.975235,-8.352298,-7.692522,-10.854051,0.121224,1.854045,0.439889,3.042083,-0.932861,0.188721,0.174072,0.093917,-0.107549,-0.084732,0.999839,0.009270,0.002199,0.015210,0.383700,-0.261672,-0.856297,-0.225959
34294,NaN,12.596003,-5.693745,-6.918241,-6.827560,-4.814794,3.192120,1.148693,0.764912,2.652100,-0.920410,0.208008,0.165283,0.126430,-0.054863,-0.069984,0.999888,0.005743,0.003824,0.013260,0.391434,-0.269931,-0.852561,-0.216927
34295,NaN,18.736832,-10.043469,-4.948603,-13.696248,-4.938069,6.448700,0.742005,0.743574,2.254256,-0.919189,0.233887,0.156250,0.188296,-0.098130,-0.050552,0.999923,0.003710,0.003718,0.011271,0.398412,-0.276826,-0.848941,-0.209604
34296,NaN,25.294080,-8.003433,-4.723549,-15.634904,-1.015137,12.111055,0.469287,0.936942,1.801143,-0.913086,0.244629,0.147461,0.253422,-0.077641,-0.048606,0.999946,0.002346,0.004685,0.009006,0.404907,-0.282541,-0.845026,-0.205307
34297,NaN,28.410092,-6.645688,-3.419426,-16.669557,1.921826,14.299571,0.144919,0.961155,1.495774,-0.913330,0.255371,0.136719,0.284418,-0.064305,-0.035608,0.999960,0.000725,0.004806,0.007479,0.411260,-0.286892,-0.841265,-0.202067
34298,NaN,31.037034,-5.833453,-3.921610,-16.752649,3.230434,17.049907,0.275169,0.916670,1.196802,-0.905273,0.268066,0.127930,0.310527,-0.056421,-0.040718,0.999971,0.001376,0.004583,0.005984,0.416711,-0.290428,-0.837915,-0.199756
34299,NaN,32.301995,-1.152007,-2.624185,-14.682959,7.958248,17.984745,0.689148,0.731316,0.848854,-0.905518,0.274658,0.114990,0.322966,-0.010056,-0.027459,0.999978,0.003446,0.003657,0.004244,0.422530,-0.290355,-0.836182,-0.194841
34300,NaN,31.888508,3.618670,-2.888805,-10.997441,11.348720,18.268946,1.178836,0.289368,0.293482,-0.898926,0.272461,0.104248,0.318789,0.036826,-0.029134,0.999981,0.005894,0.001447,0.001467,0.425732,-0.288806,-0.836275,-0.189706
34301,NaN,29.329617,6.794886,-2.407055,-8.081144,13.233466,16.105623,2.180267,-0.049148,-0.369237,-0.894287,0.268311,0.091553,0.293427,0.067664,-0.023260,0.999939,0.010901,-0.000246,-0.001846,0.429460,-0.280477,-0.839386,-0.179798
34302,NaN,25.474064,8.228437,-3.003457,-5.248348,12.881465,13.256004,3.769253,-0.215932,-1.073921,-0.891846,0.259766,0.076660,0.255211,0.081458,-0.028219,0.999807,0.018845,-0.001080,-0.005369,0.432794,-0.268019,-0.844581,-0.165946
34303,NaN,24.033524,11.597150,-1.782114,-3.905292,15.813270,11.399021,4.266197,-0.150863,-1.491480,-0.895752,0.244629,0.059814,0.241205,0.114517,-0.015186,0.999744,0.021329,-0.000754,-0.007457,0.437855,-0.249223,-0.850833,-0.149180
34304,NaN,20.375188,4.956290,-4.337089,-4.459041,8.069001,9.514206,4.284649,0.240460,-1.235119,-0.888916,0.240479,0.046875,0.204005,0.049221,-0.042559,0.999751,0.021421,0.001202,-0.006175,0.443189,-0.234350,-0.854827,-0.133918
34305,NaN,17.317542,5.560806,-4.167913,-2.819166,7.871870,6.868903,3.080008,0.345588,-0.178147,-0.886719,0.238281,0.023438,0.173154,0.056090,-0.041117,0.999880,0.015399,0.001728,-0.000891,0.448692,-0.226523,-0.855910,-0.121580
34306,NaN,20.210941,12.940622,-3.328232,-1.119104,15.587229,8.702119,0.954210,0.355689,1.031568,-0.876221,0.249023,0.016846,0.201379,0.130604,-0.033020,0.999974,0.004771,0.001778,0.005158,0.451913,-0.228577,-0.854499,-0.115579
34307,NaN,19.948463,12.268345,-2.936079,-1.183294,15.248929,8.162506,-1.026075,1.058349,2.463258,-0.864258,0.272705,0.008057,0.197793,0.124970,-0.031048,0.999897,-0.005130,0.005292,0.012316,0.457202,-0.240898,-0.848231,-0.115922
34308,NaN,13.901492,6.815694,-1.626593,-1.437420,9.499720,2.434368,-1.332123,1.872938,4.477529,-0.846191,0.315430,-0.007568,0.137281,0.071127,-0.018024,0.999683,-0.006660,0.009364,0.022385,0.465993,-0.261771,-0.837515,-0.113553
34309,NaN,15.495002,-7.734253,-4.297014,-7.500933,-2.808919,6.129180,-1.413894,1.998623,6.100347,-0.824463,0.366943,-0.020996,0.156782,-0.072887,-0.044005,0.999460,-0.007068,0.009991,0.030496,0.476272,-0.289516,-0.823161,-0.108407
34310,NaN,19.229463,-8.121119,-11.969435,-3.080270,-4.291598,13.659827,-1.720861,0.998671,7.048369,-0.791748,0.418213,-0.032227,0.194422,-0.075415,-0.119996,0.999330,-0.008602,0.004992,0.035234,0.481394,-0.321883,-0.809095,-0.100078
34311,NaN,22.328646,4.542483,-8.945593,2.479532,9.145587,12.753761,-1.408174,0.860276,7.022393,-0.754883,0.471924,-0.043701,0.221135,0.052580,-0.090764,0.999350,-0.007039,0.004300,0.035104,0.486372,-0.353131,-0.794069,-0.090528
34312,NaN,25.965909,10.284261,-4.821524,3.658543,17.851639,11.886824,-0.604526,0.906126,6.824504,-0.721924,0.519043,-0.041992,0.255730,0.111466,-0.049708,0.999403,-0.003022,0.004530,0.034116,0.491702,-0.381073,-0.779068,-0.077879
34313,NaN,26.212461,9.399228,-5.614064,5.137529,17.659474,11.829819,0.090161,0.918021,6.760787,-0.674072,0.566162,-0.061768,0.258487,0.102798,-0.057288,0.999418,0.000451,0.004589,0.033797,0.498353,-0.406764,-0.763009,-0.063285
34314,NaN,26.824787,9.404802,-6.686851,7.307569,18.199852,11.814910,1.558877,1.112869,6.708118,-0.636719,0.604492,-0.087891,0.264507,0.103488,-0.067565,0.999392,0.007793,0.005563,0.033534,0.507590,-0.427869,-0.746622,-0.042850
34315,NaN,24.463541,10.389399,-7.360238,10.209275,17.706137,8.694498,2.891636,1.367892,6.545453,-0.586182,0.641113,-0.122559,0.240535,0.112877,-0.073668,0.999337,0.014455,0.006838,0.032720,0.520549,-0.444605,-0.728681,-0.019496
34316,NaN,20.649946,9.257929,-6.712822,10.360489,15.525343,4.629548,3.858329,1.300380,6.245012,-0.548340,0.671143,-0.163330,0.203015,0.100244,-0.066571,0.999305,0.019287,0.006500,0.031218,0.534110,-0.456879,-0.711284,0.007934
34317,NaN,17.749090,8.883956,-7.228271,11.410740,13.611578,1.612189,4.736669,1.022145,5.889178,-0.501709,0.690430,-0.208496,0.174375,0.095697,-0.070967,0.999273,0.023678,0.005109,0.029439,0.548599,-0.465124,-0.693803,0.036558
34318,NaN,15.169261,8.342060,-7.496507,11.751241,11.918491,-1.118656,5.631144,0.735017,5.540018,-0.460938,0.698975,-0.249023,0.148996,0.089649,-0.073050,0.999213,0.028148,0.003674,0.027693,0.562799,-0.468665,-0.677328,0.069543
34319,NaN,13.595924,7.922461,-6.827719,11.191927,11.283505,-3.369059,6.124296,0.521238,5.160359,-0.418213,0.711914,-0.309082,0.133646,0.084740,-0.066089,0.999195,0.030613,0.002605,0.025795,0.577376,-0.468950,-0.660606,0.101598
34320,NaN,14.060708,7.476519,-5.274042,9.817018,12.455692,-4.354429,6.356510,0.451979,4.634098,-0.387451,0.697021,-0.353760,0.138683,0.079625,-0.050576,0.999224,0.031774,0.002259,0.023164,0.590970,-0.465775,-0.644694,0.134826
34321,NaN,16.345635,8.762069,-5.419379,10.870927,15.164778,-4.806117,6.036115,0.504363,4.041798,-0.350586,0.694824,-0.402832,0.161487,0.092487,-0.051860,0.999337,0.030174,0.002521,0.020205,0.604317,-0.461224,-0.628947,0.162785
34322,NaN,19.131078,10.831456,-7.691865,14.083764,17.990526,-5.301491,5.121451,0.497785,3.370118,-0.322266,0.686279,-0.436768,0.189240,0.113444,-0.074530,0.999527,0.025603,0.002489,0.016848,0.614664,-0.456537,-0.615204,0.187846
34323,NaN,16.306862,10.509780,-8.023691,13.726509,15.722456,-7.560868,4.094969,0.535427,2.605672,-0.308838,0.675537,-0.470703,0.161455,0.108827,-0.078468,0.999702,0.020473,0.002677,0.013027,0.623924,-0.452572,-0.603350,0.204612
34324,NaN,7.450402,9.386609,-4.384229,8.147736,9.362485,-12.776245,2.851463,0.280435,1.895455,-0.291260,0.669189,-0.489990,0.073546,0.095179,-0.042595,0.999852,0.014257,0.001402,0.009477,0.629193,-0.449617,-0.595176,0.218463
34325,NaN,-0.122068,8.308162,-3.420495,5.343948,3.001764,-16.383098,1.188893,-0.233105,1.152259,-0.291260,0.666992,-0.494141,-0.001661,0.083274,-0.033712,0.999965,0.005944,-0.001166,0.005761,0.630829,-0.449299,-0.591854,0.223369
34326,NaN,-4.913825,6.450619,-2.017232,2.569124,-1.419702,-17.636312,-0.382203,-0.722853,0.232936,-0.297852,0.673584,-0.487793,-0.049140,0.064410,-0.020473,0.999991,-0.001911,-0.003614,0.001165,0.627567,-0.450384,-0.594029,0.224595
34327,NaN,-6.821232,3.699020,-1.632994,1.238752,-4.215440,-16.413589,-1.941436,-1.238793,-0.784536,-0.313477,0.684082,-0.473145,-0.067963,0.037094,-0.017111,0.999926,-0.009707,-0.006194,-0.003923,0.621158,-0.453011,-0.601691,0.216593
34328,NaN,-6.566178,1.531379,-2.670291,1.836810,-5.381011,-14.313603,-3.474643,-1.737253,-1.885557,-0.335205,0.690674,-0.430420,-0.065280,0.015457,-0.027539,0.999767,-0.017372,-0.008686,-0.009427,0.609961,-0.456144,-0.614975,0.204169
34329,NaN,-5.728096,0.520139,-3.616429,2.691376,-5.466190,-12.818531,-4.519254,-2.044228,-3.120715,-0.368164,0.703369,-0.396484,-0.056825,0.005263,-0.036865,0.999571,-0.022593,-0.010220,-0.015601,0.596868,-0.458374,-0.632526,0.183171
34330,NaN,-5.305182,0.161491,-4.507107,3.576995,-5.551070,-12.020344,-4.916518,-2.085118,-4.398344,-0.415527,0.703369,-0.354004,-0.052542,0.001657,-0.045661,0.999402,-0.024578,-0.010424,-0.021987,0.582682,-0.456955,-0.652946,0.159170
34331,NaN,-3.742021,-0.335722,-5.093455,4.127157,-4.755244,-10.454657,-4.658219,-1.899985,-5.637783,-0.464600,0.688477,-0.317627,-0.037032,-0.003500,-0.051207,0.999286,-0.023286,-0.009498,-0.028182,0.570216,-0.450637,-0.674457,0.129952
34332,NaN,-0.760274,-1.170650,-5.022913,3.820483,-2.967188,-7.869533,-3.984748,-1.617402,-6.718376,-0.515869,0.673340,-0.279053,-0.007607,-0.012449,-0.050047,0.999205,-0.019918,-0.008085,-0.033583,0.559700,-0.437938,-0.696250,0.100908
34333,NaN,2.430566,-1.374622,-4.492548,3.114189,-0.753636,-5.605083,-3.412658,-1.315384,-7.554643,-0.577148,0.641357,-0.253174,0.024038,-0.015420,-0.044513,0.999120,-0.017058,-0.006575,-0.037762,0.551036,-0.420500,-0.717470,0.069117
34334,NaN,3.894428,-0.153934,-4.041823,3.058400,0.951171,-5.202757,-3.028682,-1.091123,-8.226742,-0.635986,0.598389,-0.218506,0.039040,-0.003754,-0.040160,0.999025,-0.015138,-0.005454,-0.041120,0.543064,-0.398554,-0.738109,0.037822
34335,NaN,4.229612,1.547492,-3.920854,3.575431,2.107296,-5.521834,-2.730554,-0.982609,-8.782150,-0.701172,0.549316,-0.198730,0.043098,0.013059,-0.039187,0.998931,-0.013648,-0.004911,-0.043895,0.534973,-0.373309,-0.757909,0.004379
34336,NaN,4.953997,2.546154,-4.104281,3.858367,2.916506,-4.868550,-2.580265,-0.985018,-9.204071,-0.748291,0.482910,-0.170166,0.050827,0.022611,-0.041099,0.998846,-0.012896,-0.004923,-0.046003,0.526014,-0.344891,-0.776895,-0.028173
34337,NaN,6.008564,3.408304,-4.448291,3.995429,3.625892,-3.620336,-2.575752,-1.069761,-9.526352,-0.808350,0.414307,-0.145996,0.061837,0.030591,-0.044564,0.998769,-0.012873,-0.005347,-0.047612,0.515166,-0.314767,-0.794725,-0.062753
34338,NaN,7.331923,4.365314,-4.079001,3.365278,4.691144,-2.326470,-2.634114,-1.225153,-9.802639,-0.850586,0.328613,-0.119141,0.075572,0.039447,-0.040870,0.998694,-0.013165,-0.006123,-0.048992,0.502412,-0.282588,-0.811434,-0.096445
34339,NaN,9.339240,4.315103,-4.078369,1.986879,4.757644,-0.025895,-2.698705,-1.376044,-9.992289,-0.886230,0.236572,-0.085693,0.095653,0.037859,-0.040665,0.998638,-0.013487,-0.006877,-0.049939,0.487095,-0.249515,-0.826501,-0.131822
34340,NaN,12.624687,1.876042,-3.749943,-1.746173,2.914783,3.042414,-2.777292,-1.512766,-10.116790,-0.906738,0.140137,-0.067383,0.127242,0.011825,-0.036736,0.998596,-0.013880,-0.007560,-0.050560,0.470037,-0.215135,-0.839807,-0.165850
34341,NaN,15.935818,-1.750098,-3.664035,-6.222721,-0.666094,5.386600,-2.782743,-1.538721,-10.134987,-0.916260,0.039307,-0.033691,0.158456,-0.026044,-0.035096,0.998590,-0.013907,-0.007690,-0.050651,0.450988,-0.180520,-0.850703,-0.200815
34342,NaN,18.802206,-5.619673,-4.062074,-10.342212,-5.241512,6.521339,-2.783085,-1.546765,-10.007501,-0.908447,-0.061523,-0.017090,0.185183,-0.066057,-0.038307,0.998622,-0.013909,-0.007730,-0.050015,0.431239,-0.145550,-0.859251,-0.233531
34343,NaN,21.884020,-10.393401,-4.559755,-14.876125,-10.954212,6.494041,-2.439673,-1.548066,-9.730889,-0.892334,-0.151611,0.003662,0.213762,-0.114952,-0.042572,0.998712,-0.012193,-0.007737,-0.048634,0.410439,-0.110990,-0.865571,-0.264591
34344,NaN,24.579317,-16.342478,-4.166835,-19.886634,-17.309820,4.071944,-1.978849,-1.587803,-9.337508,-0.863770,-0.237549,0.026367,0.238111,-0.175053,-0.038063,0.998830,-0.009890,-0.007936,-0.046669,0.389647,-0.076625,-0.870376,-0.291116
34345,NaN,27.004853,-21.930409,-3.707869,-24.096412,-23.211070,0.370692,-1.916001,-1.701797,-8.841078,-0.843750,-0.319092,0.051270,0.260289,-0.231284,-0.032658,0.998941,-0.009577,-0.008506,-0.044190,0.368149,-0.044446,-0.873262,-0.316076
34346,NaN,31.062811,-27.204109,-3.981976,-28.452695,-29.320723,-2.707634,-2.206031,-1.730999,-8.199464,-0.807129,-0.385498,0.067383,0.299434,-0.284870,-0.034100,0.999061,-0.011027,-0.008652,-0.040984,0.346807,-0.015409,-0.873963,-0.340113
34347,NaN,33.991893,-31.846656,-3.481968,-31.893915,-34.018192,-7.316147,-2.529685,-1.467287,-7.178481,-0.779297,-0.441406,0.083496,0.328415,-0.330779,-0.028249,0.999249,-0.012645,-0.007335,-0.035883,0.328412,0.009273,-0.872088,-0.362659
34348,NaN,31.652564,-37.881307,-3.069954,-31.173903,-37.882515,-16.024885,-2.529848,-1.008249,-5.724870,-0.747559,-0.486572,0.086426,0.305639,-0.388001,-0.024271,0.999498,-0.012647,-0.005040,-0.028620,0.313594,0.028246,-0.868452,-0.382952
34349,NaN,24.781687,-41.653361,-3.691698,-25.274114,-38.922480,-24.256828,-1.587077,-0.524578,-4.122832,-0.729492,-0.516602,0.093506,0.239247,-0.421797,-0.032949,0.999753,-0.007935,-0.002623,-0.020612,0.305286,0.043284,-0.865574,-0.394601
34350,NaN,16.647812,-39.028327,-2.180863,-18.465887,-33.306959,-28.645460,-0.689218,-0.258686,-2.476927,-0.718018,-0.535889,0.104492,0.161654,-0.392377,-0.020248,0.999917,-0.003446,-0.001293,-0.012384,0.299407,0.052437,-0.863999,-0.401387
34351,NaN,8.587678,-35.919606,0.276272,-12.441488,-26.805031,-31.964830,-1.086027,-0.394712,-0.935113,-0.711426,-0.538086,0.111084,0.084188,-0.359570,0.004882,0.999972,-0.005430,-0.001974,-0.004676,0.298639,0.055129,-0.862463,-0.404887
34352,NaN,4.920834,-33.854157,2.956397,-10.840242,-22.036501,-33.810811,-1.654839,-0.662870,0.379377,-0.711426,-0.538086,0.117432,0.049746,-0.338187,0.032527,0.999958,-0.008274,-0.003314,0.001897,0.296997,0.049677,-0.860170,-0.411621
34353,NaN,9.128716,-31.708030,1.359186,-13.522016,-22.932366,-29.352227,-1.496052,-0.824233,1.601458,-0.722656,-0.529541,0.125732,0.093758,-0.316221,0.016342,0.999931,-0.007480,-0.004121,0.008007,0.300001,0.040171,-0.859170,-0.412568
34354,NaN,9.970959,-31.366718,0.877369,-14.613194,-23.076165,-28.195774,-0.733138,-0.748807,2.598393,-0.736328,-0.508057,0.131836,0.103736,-0.312301,0.010304,0.999902,-0.003666,-0.003744,0.012992,0.302267,0.026360,-0.859218,-0.411928
34355,NaN,18.124206,-51.663986,-12.728657,-19.246409,-48.453757,-30.807781,-0.261432,-1.215006,4.960281,-0.763428,-0.469482,0.145996,0.194747,-0.512086,-0.125459,0.999673,-0.001307,-0.006074,0.024799,0.310341,0.003658,-0.861594,-0.401661
34356,NaN,99.829531,-9.666729,-9.283790,-77.506445,-35.698021,43.657946,-1.733234,-0.706479,7.720731,-0.793701,-0.407227,0.140625,1.001372,-0.058824,-0.088684,0.999211,-0.008664,-0.003531,0.038594,0.322592,-0.033705,-0.858670,-0.396842
34357,NaN,42.918598,-5.338160,11.333961,-40.905131,-3.134825,7.921808,-0.850649,0.346199,9.213914,-0.826416,-0.327881,0.152344,0.431217,-0.033062,0.112764,0.998928,-0.004252,0.001730,0.046053,0.345830,-0.072110,-0.854980,-0.379750
34358,NaN,-4.585182,-4.757949,-14.486972,9.025713,-13.067629,-8.697022,-0.858518,-1.913656,8.741030,-0.845947,-0.265625,0.153320,-0.042311,-0.050103,-0.145074,0.998990,-0.004291,-0.009565,0.043690,0.353590,-0.114510,-0.852643,-0.367234
34359,NaN,-29.764468,-41.699776,-6.278794,4.048443,-32.769350,-49.469776,-2.038988,-0.063597,7.423291,-0.862793,-0.212158,0.156738,-0.281867,-0.428268,-0.058551,0.999259,-0.010192,-0.000318,0.037107,0.369156,-0.148130,-0.845313,-0.356689
34360,NaN,-14.678147,-24.000297,2.314869,-4.318771,-15.247358,-33.166746,-1.236539,-0.592594,6.510357,-0.873291,-0.160645,0.166748,-0.138942,-0.244464,0.024232,0.999447,-0.006182,-0.002962,0.032546,0.377146,-0.178900,-0.838912,-0.349261
34361,NaN,2.682434,-19.203052,3.039208,-14.297799,-11.219358,-17.214652,1.104957,-0.946348,5.717219,-0.879395,-0.104980,0.176514,0.032160,-0.191327,0.029477,0.999565,0.005524,-0.004731,0.028582,0.387173,-0.200544,-0.838657,-0.326395
34362,NaN,15.871542,-19.613656,-2.878992,-19.854086,-14.337681,-3.104857,2.109980,-0.418050,4.779849,-0.880859,-0.066406,0.184570,0.163399,-0.191953,-0.030492,0.999657,0.010549,-0.002090,0.023897,0.395208,-0.217117,-0.837827,-0.307761
34363,NaN,16.506223,-8.519497,-10.638932,-8.849072,-11.107226,6.201596,2.723057,0.296426,4.017595,-0.882324,-0.027832,0.186035,0.166550,-0.080398,-0.107752,0.999704,0.013614,0.001482,0.020086,0.408495,-0.226177,-0.838186,-0.281815
34364,NaN,13.062337,-8.674771,-6.343449,-8.947845,-8.476971,1.769812,1.992508,0.513308,3.443946,-0.889893,0.006592,0.174805,0.131919,-0.083844,-0.064617,0.999799,0.009962,0.002566,0.017219,0.417674,-0.235775,-0.835880,-0.266951
34365,NaN,11.015544,-5.116709,-2.766308,-7.306662,-3.581714,-0.381746,1.532140,0.412654,3.260810,-0.886719,0.040771,0.169922,0.110910,-0.049148,-0.028273,0.999836,0.007660,0.002063,0.016303,0.428260,-0.243762,-0.834310,-0.247184
34366,NaN,12.730870,-9.513867,-4.463368,-9.675191,-7.373740,1.345620,0.953468,0.415179,2.884526,-0.876709,0.060059,0.167725,0.128567,-0.093075,-0.045347,0.999882,0.004767,0.002076,0.014422,0.434673,-0.253215,-0.830984,-0.237502
34367,NaN,15.955133,-9.443121,-2.514694,-12.042410,-5.158872,3.544317,0.498764,0.442925,2.488426,-0.885986,0.083740,0.169434,0.160653,-0.092373,-0.025734,0.999917,0.002494,0.002215,0.012442,0.442635,-0.260151,-0.828495,-0.223586
34368,NaN,21.877690,-9.770832,-4.076837,-13.834097,-4.665559,9.618026,0.249104,0.465542,2.007509,-0.875732,0.098633,0.164795,0.219647,-0.095455,-0.041399,0.999946,0.001245,0.002328,0.010037,0.447113,-0.267386,-0.825085,-0.218699
34369,NaN,28.542102,-7.929056,-4.101843,-15.202129,-1.273227,15.908890,0.013891,0.525983,1.642276,-0.878418,0.111572,0.156006,0.285950,-0.076941,-0.041775,0.999963,0.000069,0.002630,0.008211,0.453613,-0.271854,-0.822665,-0.208692
34370,NaN,32.228112,-6.675478,-4.063667,-15.691207,0.941907,19.386705,0.141968,0.527022,1.416471,-0.876709,0.126465,0.151611,0.322634,-0.064441,-0.041533,0.999971,0.000710,0.002635,0.007082,0.457444,-0.276806,-0.819666,-0.205598
34371,NaN,33.465730,-2.795935,-3.618825,-13.498814,4.857393,20.765752,0.398632,0.394914,1.152533,-0.874756,0.135254,0.140869,0.334738,-0.025957,-0.036902,0.999979,0.001993,0.001975,0.005763,0.463366,-0.278624,-0.818303,-0.195040
34372,NaN,32.188277,1.753428,-3.287287,-10.031370,8.408958,19.828859,0.879010,0.038222,0.722260,-0.872803,0.135254,0.149414,0.321810,0.018841,-0.032853,0.999984,0.004395,0.000191,0.003611,0.465450,-0.279506,-0.818049,-0.189812
34373,NaN,30.582947,5.309673,-3.595290,-6.772195,10.886713,18.683762,2.012519,-0.327651,0.130714,-0.870850,0.141602,0.140625,0.305852,0.053651,-0.034914,0.999948,0.010062,-0.001638,0.000654,0.469623,-0.274165,-0.820893,-0.174419
34374,NaN,27.320077,7.247652,-3.492044,-4.513945,11.757396,15.731040,3.776078,-0.555754,-0.517500,-0.868408,0.137207,0.142822,0.273481,0.072402,-0.032793,0.999815,0.018879,-0.002779,-0.002587,0.471986,-0.263614,-0.826045,-0.159333
34375,NaN,23.259662,9.383864,-2.095075,-2.974925,13.383671,11.292969,5.108390,-0.638356,-1.194822,-0.866211,0.133057,0.140869,0.233214,0.092928,-0.017825,0.999651,0.025539,-0.003191,-0.005973,0.477531,-0.245586,-0.832808,-0.134471
34376,NaN,20.816207,9.854638,-2.252580,-2.182523,13.198730,9.068404,5.501644,-0.382210,-1.479128,-0.864014,0.130859,0.138672,0.208925,0.097566,-0.019434,0.999593,0.027504,-0.001911,-0.007395,0.481511,-0.226457,-0.838892,-0.114561
34377,NaN,16.026819,1.770129,-2.114994,-4.474010,5.045441,4.985670,5.002244,-0.000029,-0.960964,-0.861816,0.135254,0.130127,0.160352,0.017453,-0.020711,0.999676,0.025009,-0.000000,-0.004804,0.488961,-0.208924,-0.842017,-0.090975
34378,NaN,19.475807,4.062329,-3.039080,-4.312320,7.751623,8.252722,3.070915,-0.064086,0.145831,-0.853516,0.141602,0.127930,0.194738,0.041225,-0.029698,0.999882,0.015354,-0.000320,0.000729,0.491912,-0.202042,-0.843315,-0.077601
34379,NaN,24.131184,7.525229,-3.602368,-4.252343,12.235498,12.189929,0.673938,0.679147,1.507800,-0.854004,0.156738,0.114746,0.240611,0.077191,-0.036584,0.999960,0.003370,0.003396,0.007539,0.498427,-0.205158,-0.839616,-0.067268
34380,NaN,16.525177,4.504791,-4.088106,-1.490200,7.556713,6.021631,0.146511,1.626284,3.420761,-0.833496,0.188721,0.101562,0.164109,0.047892,-0.042184,0.999820,0.000733,0.008131,0.017103,0.506470,-0.218576,-0.831949,-0.059773
34381,NaN,15.380839,-7.317458,-2.708620,-6.546597,-2.364575,5.964631,0.047598,2.145516,5.504744,-0.824707,0.242432,0.077393,0.155442,-0.068904,-0.028765,0.999564,0.000238,0.010726,0.027520,0.519048,-0.239485,-0.819333,-0.043925
34382,NaN,19.770409,-15.297845,-10.546546,-4.513371,-9.280404,15.274869,0.293909,1.355325,6.915824,-0.796387,0.298096,0.074463,0.202109,-0.145883,-0.107043,0.999378,0.001469,0.006775,0.034572,0.526152,-0.266609,-0.807087,-0.026359
34383,NaN,23.353770,1.546652,-8.493943,1.325185,8.704036,13.472149,-0.220353,1.176801,7.158376,-0.772461,0.355957,0.065186,0.232282,0.023702,-0.086332,0.999342,-0.001102,0.005883,0.035784,0.533060,-0.294562,-0.793125,-0.005663
34384,NaN,26.560846,12.183547,-4.729659,3.570821,21.271222,10.453509,0.124324,1.235302,6.854537,-0.733154,0.398682,0.056152,0.260927,0.130863,-0.048839,0.999393,0.000621,0.006175,0.034266,0.538017,-0.321201,-0.779256,0.011293
34385,NaN,27.915406,11.767388,-5.431831,5.075330,22.417657,10.645894,0.123918,1.370015,6.845771,-0.698486,0.452148,0.046875,0.274529,0.127159,-0.056133,0.999391,0.000619,0.006849,0.034222,0.544420,-0.346410,-0.763287,0.031610
34386,NaN,29.099144,11.784350,-6.935197,7.652121,23.472088,10.773232,0.630804,1.754957,7.023746,-0.663330,0.492920,0.025146,0.285989,0.128170,-0.071483,0.999340,0.003153,0.008773,0.035111,0.550745,-0.371549,-0.745737,0.050086
34387,NaN,28.990606,13.023481,-7.369522,10.226340,24.988398,8.486613,1.148325,1.973609,7.262713,-0.617432,0.540039,0.009521,0.284173,0.141056,-0.075729,0.999276,0.005740,0.009866,0.036305,0.559441,-0.394886,-0.725068,0.073261
34388,NaN,27.153034,12.282890,-6.756409,10.888210,24.125464,5.443370,1.633516,1.935228,7.349725,-0.567139,0.580811,-0.003662,0.266097,0.133236,-0.069097,0.999245,0.008166,0.009674,0.036739,0.566570,-0.417374,-0.703993,0.095873
34389,NaN,25.007097,12.118676,-7.270887,12.518328,22.867741,2.230049,2.028525,1.755346,7.305727,-0.518555,0.608398,-0.027344,0.244763,0.130937,-0.073578,0.999243,0.010140,0.008775,0.036519,0.574423,-0.437226,-0.681266,0.121443
34390,NaN,22.511203,10.838052,-7.696912,13.142401,20.508768,-0.336960,2.348446,1.388016,7.225305,-0.470459,0.646973,-0.046875,0.220446,0.117307,-0.077167,0.999255,0.011739,0.006938,0.036118,0.579473,-0.455611,-0.659544,0.147076
34391,NaN,20.171463,8.669923,-7.831577,12.837996,17.801003,-1.974574,2.870386,0.988949,7.012370,-0.415283,0.672607,-0.070557,0.198098,0.094809,-0.077979,0.999270,0.014348,0.004944,0.035053,0.585107,-0.470267,-0.637096,0.174948
34392,NaN,18.363012,8.727619,-7.679055,12.922798,16.709792,-4.722897,3.516457,0.731077,6.578749,-0.364258,0.689697,-0.094238,0.180320,0.094584,-0.075833,0.999298,0.017578,0.003655,0.032886,0.589542,-0.481249,-0.615957,0.203560
34393,NaN,17.641767,10.166219,-6.311599,12.265114,17.346758,-8.111906,3.860846,0.607762,6.030132,-0.317139,0.698242,-0.119873,0.173034,0.108113,-0.061599,0.999355,0.019300,0.003038,0.030144,0.595696,-0.488246,-0.594377,0.231254
34394,NaN,17.169597,10.196560,-4.929550,10.874800,17.453499,-10.009780,3.824221,0.452386,5.434243,-0.276367,0.702637,-0.145264,0.168716,0.107499,-0.047659,0.999446,0.019118,0.002262,0.027166,0.599766,-0.493262,-0.575002,0.257579
34395,NaN,17.892914,10.521261,-6.102438,12.129852,17.870882,-11.025044,3.506417,0.245058,4.658269,-0.248535,0.706787,-0.160156,0.176325,0.110390,-0.059336,0.999574,0.017530,0.001225,0.023288,0.604579,-0.495769,-0.557162,0.279763
34396,NaN,17.908517,9.675541,-7.880309,13.479000,17.115731,-11.124281,2.523448,-0.076225,3.720902,-0.218262,0.708984,-0.170898,0.177261,0.101048,-0.077478,0.999747,0.012616,-0.000381,0.018603,0.605267,-0.498280,-0.544485,0.298169
34397,NaN,11.150125,9.193743,-6.765720,10.658061,11.144698,-13.912086,1.602912,-0.271711,2.747784,-0.196777,0.704590,-0.177002,0.110310,0.093996,-0.066759,0.999873,0.008014,-0.001358,0.013738,0.606311,-0.500040,-0.535274,0.309563
34398,NaN,3.487364,7.582528,-4.810634,6.594749,4.176186,-15.457583,1.026269,-0.598364,1.655403,-0.194580,0.704590,-0.168457,0.034386,0.076356,-0.047612,0.999948,0.005131,-0.002992,0.008277,0.604685,-0.500412,-0.531318,0.318819
34399,NaN,-3.056042,6.261544,-3.320480,3.396200,-1.822780,-16.499627,0.122081,-0.962179,0.448944,-0.189941,0.696045,-0.161865,-0.030541,0.062567,-0.033314,0.999986,0.000610,-0.004811,0.002245,0.603721,-0.499381,-0.532289,0.320636
34400,NaN,-7.948296,5.672041,-0.105262,-0.806420,-5.641011,-17.742681,-0.978984,-1.193990,-0.832756,-0.194336,0.693848,-0.140381,-0.079237,0.057043,-0.001805,0.999962,-0.004895,-0.005970,-0.004164,0.599414,-0.498192,-0.539507,0.318497
34401,NaN,-10.946534,3.506401,0.951439,-2.616177,-8.691660,-16.927895,-2.328936,-1.517579,-2.194039,-0.213623,0.689453,-0.114746,-0.109137,0.036364,0.008267,0.999843,-0.011644,-0.007587,-0.010970,0.594733,-0.496528,-0.552570,0.307276
34402,NaN,-11.747836,1.079281,0.389538,-2.370838,-10.240820,-15.180323,-3.496173,-1.706616,-3.687461,-0.243408,0.678711,-0.076172,-0.117278,0.013010,0.002679,0.999641,-0.017479,-0.008532,-0.018435,0.586795,-0.493942,-0.571956,0.290790
34403,NaN,-11.622710,-0.435868,-0.437549,-1.611845,-10.696745,-14.104407,-4.040223,-1.716655,-5.210616,-0.279785,0.670166,-0.041992,-0.116247,-0.001431,-0.005325,0.999420,-0.020197,-0.008582,-0.026048,0.580642,-0.487961,-0.594818,0.266347
34404,NaN,-9.009049,-0.803338,-1.561534,0.038583,-8.633594,-12.924203,-4.063378,-1.610439,-6.614930,-0.319824,0.642334,-0.005371,-0.090169,-0.005377,-0.016214,0.999214,-0.020312,-0.008050,-0.033066,0.574298,-0.477566,-0.620556,0.238795
34405,NaN,-4.765634,0.622837,-2.835287,2.392594,-4.493097,-12.097088,-3.832362,-1.416870,-7.808506,-0.364014,0.614502,0.029053,-0.047176,0.007527,-0.028824,0.999029,-0.019156,-0.007082,-0.039030,0.570687,-0.462117,-0.646677,0.206332
34406,NaN,-0.991626,2.724750,-3.705540,4.403056,-0.376843,-11.425666,-3.833802,-1.200436,-8.709469,-0.416504,0.573730,0.057373,-0.008514,0.026921,-0.037628,0.998850,-0.019162,-0.006000,-0.043531,0.566284,-0.443139,-0.673415,0.171644
34407,NaN,1.903841,3.436729,-4.847303,5.866540,2.088123,-9.449957,-3.920366,-1.026796,-9.372895,-0.464355,0.524414,0.092041,0.020841,0.032461,-0.049018,0.998697,-0.019593,-0.005132,-0.046844,0.562380,-0.421275,-0.699039,0.132670
34408,NaN,3.944948,3.179625,-6.097297,6.716850,3.017415,-6.882749,-3.813306,-0.913062,-9.878870,-0.508057,0.477295,0.120361,0.041196,0.028622,-0.061354,0.998588,-0.019058,-0.004563,-0.049371,0.556926,-0.396287,-0.723934,0.093328
34409,NaN,4.515145,3.099324,-6.281537,6.551149,3.055477,-5.671988,-3.561183,-0.826615,-10.262811,-0.551514,0.423828,0.146729,0.046883,0.027494,-0.063134,0.998517,-0.017797,-0.004131,-0.051289,0.551534,-0.368288,-0.746649,0.051857
34410,NaN,4.776266,3.703169,-5.464664,5.794873,3.645032,-5.400454,-3.136540,-0.791183,-10.543406,-0.585693,0.355225,0.168945,0.049811,0.033580,-0.054997,0.998480,-0.015675,-0.003954,-0.052690,0.544712,-0.336834,-0.767903,0.012482
34411,NaN,6.479280,4.256982,-3.167591,3.453649,5.410821,-4.440261,-2.655840,-0.839641,-10.611397,-0.615967,0.297363,0.186768,0.067046,0.038628,-0.031928,0.998496,-0.013273,-0.004196,-0.053030,0.537272,-0.303103,-0.786602,-0.026939
34412,NaN,9.048877,3.172598,-2.225641,0.983429,5.478301,-1.699317,-2.547075,-0.991922,-10.521703,-0.641602,0.228760,0.211182,0.092090,0.026625,-0.022163,0.998523,-0.012729,-0.004957,-0.052583,0.527315,-0.268273,-0.803690,-0.063649
34413,NaN,11.373409,0.937586,-0.770284,-2.660810,4.137600,0.507410,-2.484555,-1.072756,-10.430264,-0.654541,0.162354,0.235840,0.114053,0.003340,-0.007158,0.998549,-0.012417,-0.005361,-0.052126,0.515773,-0.233311,-0.818070,-0.101520
34414,NaN,12.428081,-1.863173,-0.770214,-5.110315,0.955140,1.647997,-2.598448,-1.172751,-10.307238,-0.669434,0.095947,0.251709,0.123139,-0.025091,-0.006680,0.998571,-0.012986,-0.005861,-0.051512,0.501993,-0.198137,-0.830617,-0.137188
34415,NaN,14.794245,-4.645939,-1.918917,-7.233805,-2.772886,3.748033,-2.556586,-1.273993,-10.195269,-0.677734,0.025146,0.280518,0.145427,-0.054150,-0.017598,0.998599,-0.012777,-0.006367,-0.050953,0.486543,-0.163319,-0.840467,-0.173836
34416,NaN,17.614604,-8.512798,-4.064152,-9.387403,-8.275349,5.753300,-2.143165,-1.408088,-10.030881,-0.679932,-0.037109,0.298584,0.171846,-0.094241,-0.038444,0.998660,-0.010711,-0.007037,-0.050132,0.469524,-0.127407,-0.849085,-0.205835
34417,NaN,21.239702,-14.670654,-6.466450,-12.670436,-16.333838,6.928582,-1.386476,-1.575007,-9.784316,-0.675781,-0.094971,0.321045,0.205367,-0.157307,-0.061962,0.998749,-0.006929,-0.007872,-0.048901,0.451420,-0.091070,-0.855994,-0.234949
34418,NaN,24.531949,-20.171787,-6.008614,-17.272093,-22.707702,5.355942,-0.948102,-1.721721,-9.428553,-0.665039,-0.161377,0.341309,0.235944,-0.213266,-0.057035,0.998841,-0.004739,-0.008605,-0.047125,0.432040,-0.054793,-0.862061,-0.259211
34419,NaN,27.321520,-22.498682,-4.488353,-20.984665,-25.804667,3.058580,-1.512345,-1.928442,-8.932788,-0.650146,-0.221680,0.367920,0.263205,-0.237212,-0.040550,0.998928,-0.007559,-0.009639,-0.044648,0.411826,-0.022276,-0.865317,-0.284833
34420,NaN,32.440201,-24.327285,-4.270688,-25.236964,-29.494874,2.616851,-2.618204,-2.076235,-8.159942,-0.635254,-0.275146,0.381836,0.314506,-0.256744,-0.036104,0.999028,-0.013087,-0.010378,-0.040786,0.390550,0.004688,-0.865929,-0.312435
34421,NaN,36.464848,-30.680815,-4.626530,-29.521454,-36.725814,-1.390367,-3.389093,-1.796626,-6.847050,-0.618408,-0.331055,0.389160,0.354212,-0.319743,-0.037706,0.999230,-0.016941,-0.008981,-0.034226,0.373284,0.024937,-0.862899,-0.339767
34422,NaN,34.543741,-39.943782,-5.216755,-29.774742,-43.888871,-11.351341,-2.733807,-1.089318,-5.287235,-0.610596,-0.367432,0.389648,0.334965,-0.409032,-0.044776,0.999542,-0.013667,-0.005446,-0.026432,0.359788,0.040776,-0.859234,-0.361396
34423,NaN,25.081799,-42.644703,-6.615136,-21.832127,-43.631865,-20.334036,-0.964230,-0.481203,-3.970815,-0.605469,-0.393311,0.396484,0.242437,-0.431626,-0.063489,0.999788,-0.004821,-0.002406,-0.019853,0.353414,0.055716,-0.857064,-0.370722
34424,NaN,14.670080,-37.526538,-4.823271,-13.756216,-35.033370,-24.980386,-0.139402,-0.355896,-2.550828,-0.604736,-0.412598,0.396729,0.141984,-0.377130,-0.047715,0.999917,-0.000697,-0.001779,-0.012754,0.347184,0.065730,-0.856653,-0.375883
34425,NaN,8.324545,-34.452884,-2.500436,-9.605759,-29.098213,-27.800529,-0.450682,-0.721701,-0.946077,-0.610596,-0.429688,0.407715,0.081702,-0.344972,-0.023931,0.999980,-0.002253,-0.003608,-0.004730,0.346181,0.068616,-0.856615,-0.376380
34426,NaN,7.192144,-33.477197,-1.214859,-9.589143,-27.045634,-28.534180,-0.802291,-1.053838,0.557308,-0.614990,-0.431885,0.420654,0.072912,-0.334614,-0.010424,0.999974,-0.004011,-0.005269,0.002787,0.342997,0.062848,-0.857099,-0.379190
34427,NaN,10.428419,-31.196860,-0.025261,-12.803395,-25.988784,-25.388777,-0.649517,-0.972410,1.839528,-0.632324,-0.429688,0.431152,0.107144,-0.310989,0.001275,0.999941,-0.003248,-0.004862,0.009197,0.346699,0.053300,-0.858161,-0.374859
34428,NaN,10.069413,-27.766036,0.324466,-12.762885,-23.161037,-22.968232,0.055793,-0.739682,2.822534,-0.647705,-0.421143,0.443848,0.104586,-0.276204,0.003549,0.999894,0.000279,-0.003698,0.014112,0.348778,0.039887,-0.860209,-0.369869
34429,NaN,5.612201,-20.265578,-7.403429,-3.484169,-21.135318,-15.985746,0.624287,-0.999752,3.393920,-0.659180,-0.399658,0.460693,0.059918,-0.201429,-0.074371,0.999839,0.003121,-0.004998,0.016969,0.355116,0.026113,-0.863876,-0.356270
34430,NaN,7.583730,-25.551147,-19.183958,0.712327,-32.788988,-11.420403,0.837895,-1.466483,4.438491,-0.681641,-0.376221,0.485840,0.082879,-0.252919,-0.192312,0.999718,0.004189,-0.007332,0.022190,0.356494,0.005803,-0.868308,-0.344846
34431,NaN,68.590670,31.038406,-10.805132,-35.845085,1.266255,57.250105,-1.780023,-0.964449,4.705260,-0.712402,-0.356689,0.485352,0.678887,0.325453,-0.107618,0.999672,-0.008899,-0.004822,0.023524,0.364814,-0.017561,-0.867383,-0.338007
34432,NaN,97.504610,-21.875531,21.925647,-90.260492,-23.016339,32.440664,2.656790,1.540662,7.419012,-0.740723,-0.288086,0.486328,0.983969,-0.185182,0.209089,0.999194,0.013280,0.007701,0.037085,0.383984,-0.042275,-0.867711,-0.312805
34433,NaN,5.108997,-20.954687,-7.919909,-5.638519,-22.178232,-11.753842,-0.327957,-2.450578,10.367258,-0.751465,-0.228027,0.500488,0.062816,-0.206621,-0.078137,0.998580,-0.001639,-0.012247,0.051812,0.394240,-0.089679,-0.868664,-0.286279
34434,NaN,-21.179771,-28.279604,-7.173002,7.011648,-26.435963,-33.290665,0.136704,0.627599,7.264422,-0.763184,-0.193848,0.489258,-0.201569,-0.290194,-0.071283,0.999335,0.000683,0.003137,0.036314,0.407176,-0.120007,-0.863785,-0.271442
34435,NaN,-23.392479,-10.506266,4.349316,7.041960,-6.674919,-33.940242,-1.345996,-0.926217,6.654061,-0.769043,-0.150879,0.503418,-0.230465,-0.112478,0.043161,0.999413,-0.006729,-0.004630,0.033264,0.415744,-0.150559,-0.859914,-0.255024
34436,NaN,-6.448882,-22.521859,-3.354365,-5.020393,-20.917769,-19.668166,0.236499,-1.382929,6.168146,-0.775146,-0.101562,0.515625,-0.057270,-0.227019,-0.034224,0.999500,0.001182,-0.006913,0.030836,0.417650,-0.178282,-0.858011,-0.240000
34437,NaN,11.272672,-20.515376,-1.009193,-16.202222,-16.140788,-4.732892,1.857145,-1.086330,5.159951,-0.774414,-0.063232,0.527832,0.118026,-0.202053,-0.011346,0.999609,0.009285,-0.005431,0.025796,0.424563,-0.195498,-0.858284,-0.211839
34438,NaN,18.959522,-8.234429,-6.558818,-10.542556,-6.960341,7.811329,1.980527,-0.756086,4.343654,-0.778320,-0.011719,0.535645,0.191562,-0.077548,-0.065650,0.999708,0.009902,-0.003780,0.021716,0.427747,-0.210689,-0.857483,-0.193300
34439,NaN,16.625501,-11.582552,-13.577993,-5.813375,-12.818473,10.105028,2.024123,-0.488448,4.049458,-0.779297,0.018311,0.537354,0.168869,-0.111045,-0.136510,0.999741,0.010120,-0.002442,0.020246,0.435165,-0.221718,-0.856558,-0.166675
34440,NaN,13.665897,-10.939809,-4.446272,-9.777240,-7.941917,3.129264,2.238822,-0.163401,3.413802,-0.774414,0.059082,0.536621,0.138531,-0.106538,-0.045553,0.999791,0.011193,-0.000817,0.017068,0.439717,-0.231571,-0.854808,-0.149422
34441,NaN,17.427841,-6.771766,-2.841362,-10.123604,-2.139884,6.016293,2.061436,0.100379,3.160265,-0.769043,0.091064,0.534180,0.175302,-0.064655,-0.029178,0.999822,0.010307,0.000502,0.015800,0.448001,-0.237928,-0.852704,-0.124826
34442,NaN,20.857988,-2.798873,-4.043334,-8.532981,2.285248,9.710786,1.241934,0.312032,2.932671,-0.765381,0.112549,0.535889,0.208894,-0.024674,-0.040919,0.999872,0.006209,0.001560,0.014663,0.452598,-0.247439,-0.849172,-0.113294
34443,NaN,22.015846,-7.125297,-6.988957,-8.651307,-1.575181,12.702823,0.632417,0.385289,2.725996,-0.765869,0.127686,0.518555,0.220965,-0.068022,-0.070533,0.999900,0.003162,0.001926,0.013630,0.459437,-0.254928,-0.845389,-0.096162
34444,NaN,27.092102,-5.309859,-7.680745,-9.086389,1.987836,17.291097,0.528384,0.474727,2.364015,-0.758057,0.146973,0.511963,0.271338,-0.049689,-0.077585,0.999924,0.002642,0.002374,0.011820,0.463235,-0.263475,-0.841463,-0.089070
34445,NaN,28.463906,-3.590907,-4.990963,-10.155024,5.654507,16.886903,0.335876,0.549153,2.037629,-0.751953,0.157715,0.500977,0.284846,-0.032923,-0.050749,0.999943,0.001679,0.002746,0.010188,0.469582,-0.268710,-0.837640,-0.075140
34446,NaN,28.963529,-2.691298,-4.181301,-10.107914,7.323311,16.791625,0.697620,0.465022,1.595176,-0.745605,0.161865,0.488281,0.289738,-0.024455,-0.042575,0.999959,0.003488,0.002325,0.007976,0.473064,-0.273585,-0.834621,-0.069067
34447,NaN,28.168826,1.720516,-2.661300,-8.260401,11.734673,14.632769,1.312270,0.273606,0.977952,-0.737061,0.164062,0.475342,0.281562,0.018758,-0.026879,0.999966,0.006561,0.001368,0.004890,0.478951,-0.272282,-0.832824,-0.053597
34448,NaN,26.615001,5.324173,-2.108057,-6.165997,14.534393,12.365651,1.889388,-0.068108,0.259327,-0.734863,0.166260,0.453857,0.266088,0.053782,-0.020484,0.999954,0.009447,-0.000341,0.001297,0.481303,-0.268861,-0.833089,-0.044984
34449,NaN,22.261060,5.591705,-2.517708,-4.113469,13.084230,8.762498,2.967255,-0.400722,-0.465940,-0.728516,0.170654,0.451660,0.222789,0.055759,-0.023903,0.999885,0.014836,-0.002004,-0.002330,0.486085,-0.257758,-0.834632,-0.025909
34450,NaN,22.470738,2.839056,1.564354,-8.969907,11.916114,7.303900,3.829731,-0.338316,-1.116411,-0.719727,0.166260,0.438965,0.224833,0.026825,0.016547,0.999800,0.019147,-0.001691,-0.005582,0.489383,-0.243803,-0.837207,-0.012169
34451,NaN,21.405716,3.182938,-1.824255,-5.883634,10.834581,8.066066,3.518257,-0.510473,-1.353801,-0.715332,0.166260,0.419678,0.214312,0.030687,-0.017149,0.999819,0.017590,-0.002552,-0.006769,0.494037,-0.227477,-0.839131,0.006409
34452,NaN,22.029496,-0.430218,-5.500826,-4.617610,6.968458,11.302723,2.947694,-0.313433,-1.003895,-0.710938,0.162109,0.406982,0.220358,-0.004600,-0.054729,0.999878,0.014738,-0.001567,-0.005019,0.496061,-0.215967,-0.840835,0.016685
34453,NaN,24.905924,2.522262,-3.449011,-6.456066,11.207975,11.895905,1.674878,0.191950,-0.106845,-0.704346,0.159912,0.394043,0.249040,0.025379,-0.034517,0.999964,0.008374,0.000960,-0.000534,0.501324,-0.209402,-0.839030,0.029204
34454,NaN,24.919076,10.756438,-2.740112,-4.267796,18.918848,9.371252,0.358309,0.805403,0.991677,-0.704346,0.162109,0.368408,0.248541,0.108848,-0.028209,0.999978,0.001792,0.004027,0.004958,0.504936,-0.212799,-0.835887,0.032384
34455,NaN,19.188510,6.999710,0.808349,-5.803874,14.178143,3.718692,-0.922422,1.462992,3.176718,-0.691895,0.175049,0.357666,0.190791,0.073065,0.006353,0.999836,-0.004612,0.007315,0.015883,0.512043,-0.226838,-0.827486,0.040287
34456,NaN,13.834385,-5.123846,-4.288631,-3.008368,0.842877,5.228024,-1.159341,1.446671,5.756568,-0.675781,0.207275,0.331543,0.139433,-0.047487,-0.043610,0.999543,-0.005796,0.007232,0.028778,0.515333,-0.253828,-0.817093,0.048604
34457,NaN,16.485866,-5.670011,-8.295893,-0.186555,1.835731,9.403426,-1.508151,0.800687,6.787240,-0.655518,0.245850,0.315918,0.166337,-0.051698,-0.083220,0.999388,-0.007539,0.004003,0.033929,0.516996,-0.283800,-0.805037,0.063937
34458,NaN,22.619318,7.309651,-3.855275,-0.240440,17.610602,6.604943,-0.333734,0.668338,6.459716,-0.639404,0.282227,0.300537,0.223546,0.080281,-0.039433,0.999471,-0.001668,0.003341,0.032293,0.516889,-0.310744,-0.793805,0.078343
34459,NaN,27.626615,6.982833,-1.120583,-3.198676,21.788985,8.297750,1.153621,0.769770,6.203735,-0.621094,0.314453,0.276611,0.273878,0.078416,-0.011827,0.999495,0.005767,0.003848,0.031013,0.520981,-0.330914,-0.780125,0.102366
34460,NaN,28.950325,3.828830,-2.826145,-2.315879,21.018822,10.517262,2.386461,1.146080,6.281382,-0.594482,0.357178,0.250244,0.287937,0.047695,-0.029383,0.999419,0.011930,0.005729,0.031401,0.525896,-0.349611,-0.765050,0.126113
34461,NaN,28.809393,5.842587,-5.427887,1.928679,23.127717,9.018367,3.611996,1.489819,6.314802,-0.565918,0.400146,0.213379,0.285628,0.068464,-0.055237,0.999311,0.018056,0.007447,0.031567,0.535354,-0.363409,-0.745955,0.157738
34462,NaN,27.411932,8.810250,-6.992268,5.662871,24.896133,5.209374,4.467991,1.671035,6.241382,-0.545654,0.438721,0.170166,0.270575,0.098149,-0.070075,0.999229,0.022334,0.008353,0.031199,0.544380,-0.375782,-0.726018,0.187979
34463,NaN,25.460564,11.059417,-8.200937,8.513985,25.516864,0.856355,4.954355,1.580516,6.141756,-0.514404,0.473145,0.126953,0.250366,0.120344,-0.081098,0.999191,0.024765,0.007900,0.030700,0.554875,-0.384266,-0.703504,0.222567
34464,NaN,23.350885,12.264011,-8.594131,9.827842,25.078551,-3.206211,5.483035,1.349979,5.999936,-0.478760,0.503174,0.085938,0.229073,0.131878,-0.083966,0.999152,0.027407,0.006748,0.029991,0.563018,-0.391352,-0.681506,0.255743
34465,NaN,20.225511,12.045303,-8.096936,9.514207,22.819251,-6.952468,6.039782,1.122594,5.783590,-0.447266,0.528809,0.036377,0.198169,0.128616,-0.078287,0.999110,0.030190,0.005611,0.028909,0.572373,-0.393659,-0.657277,0.292249
34466,NaN,16.403815,11.983871,-7.301198,8.619441,19.761957,-10.786237,6.311259,0.952610,5.485835,-0.413330,0.548340,-0.004395,0.160291,0.126509,-0.069859,0.999115,0.031547,0.004762,0.027421,0.579408,-0.394687,-0.633919,0.326581
34467,NaN,13.287986,12.569893,-6.655499,7.586181,17.329443,-14.376483,6.319690,0.850830,5.119100,-0.372803,0.559082,-0.047363,0.129297,0.131069,-0.063024,0.999164,0.031590,0.004253,0.025588,0.587337,-0.392141,-0.609158,0.360815
34468,NaN,11.661185,12.608007,-5.184768,5.508465,15.749909,-16.392384,5.907904,0.661128,4.732526,-0.347412,0.573975,-0.088135,0.113398,0.130253,-0.048419,0.999278,0.029532,0.003305,0.023657,0.591975,-0.390133,-0.586807,0.391177
34469,NaN,11.286086,11.253803,-2.760564,2.449447,14.666462,-16.173736,4.991094,0.329385,4.356199,-0.317383,0.580566,-0.122314,0.110322,0.115604,-0.024929,0.999450,0.024951,0.001647,0.021777,0.595468,-0.386968,-0.566015,0.418689
34470,NaN,12.079651,10.035718,-4.110058,3.382875,14.802438,-15.549793,3.833749,-0.004666,3.778660,-0.297852,0.580566,-0.143555,0.118863,0.103378,-0.039135,0.999638,0.019166,-0.000023,0.018891,0.594748,-0.386115,-0.550449,0.440677
34471,NaN,13.965343,8.529475,-6.169651,5.202500,16.068882,-14.344636,2.464604,-0.191207,2.814681,-0.278564,0.582520,-0.165039,0.138486,0.088000,-0.060490,0.999825,0.012322,-0.000956,0.014073,0.594416,-0.384353,-0.538935,0.456608
34472,NaN,9.519071,6.152932,-4.067140,3.191316,11.006372,-13.511613,1.409802,-0.279893,1.773039,-0.263428,0.584717,-0.175537,0.094695,0.062654,-0.040100,0.999935,0.007049,-0.001399,0.008865,0.592285,-0.384294,-0.533065,0.466218
34473,NaN,2.076041,5.554676,-1.965063,1.101381,3.577382,-14.814171,0.553902,-0.585675,0.784991,-0.259033,0.578369,-0.177734,0.020599,0.055682,-0.019436,0.999984,0.002769,-0.002928,0.003925,0.591818,-0.381676,-0.530995,0.471296
34474,NaN,-3.591530,5.873307,-1.335172,0.495776,-1.825969,-16.565232,-0.858578,-0.999901,-0.247293,-0.269775,0.578369,-0.171387,-0.035774,0.058719,-0.013783,0.999978,-0.004293,-0.004999,-0.001236,0.588094,-0.381213,-0.536395,0.470215
34475,NaN,-6.132319,4.801630,-0.016425,-0.507492,-4.556586,-16.108498,-2.314041,-1.400371,-1.225303,-0.278564,0.582520,-0.158447,-0.061022,0.048381,-0.001151,0.999890,-0.011570,-0.007002,-0.006126,0.584588,-0.379736,-0.547261,0.463209
34476,NaN,-6.225386,2.083602,-0.396448,0.388326,-5.296345,-13.691818,-3.562387,-1.736363,-2.206966,-0.293701,0.580566,-0.130859,-0.061980,0.021439,-0.004882,0.999743,-0.017810,-0.008681,-0.011034,0.578036,-0.380010,-0.564594,0.450222
34477,NaN,-6.258097,-0.578959,-2.070753,2.415620,-5.941421,-11.440345,-4.238906,-1.902433,-3.350058,-0.312988,0.576172,-0.103027,-0.062471,-0.005188,-0.021188,0.999590,-0.021192,-0.009511,-0.016748,0.573698,-0.376802,-0.584785,0.432340
34478,NaN,-6.925703,-2.596783,-3.507136,4.048223,-7.112809,-9.972687,-4.199434,-1.874556,-4.679908,-0.349365,0.571777,-0.077393,-0.069521,-0.025081,-0.035189,0.999462,-0.020993,-0.009371,-0.023395,0.570119,-0.370931,-0.607698,0.409974
34479,NaN,-6.416003,-4.171012,-4.484771,5.013852,-7.211347,-8.577232,-3.611758,-1.699963,-6.055602,-0.387207,0.543945,-0.053467,-0.065020,-0.040558,-0.044659,0.999343,-0.018055,-0.008498,-0.030271,0.571979,-0.357700,-0.629787,0.385045
34480,NaN,-4.498729,-4.884043,-4.897113,5.214077,-5.903305,-7.357341,-2.747341,-1.528606,-7.224293,-0.427246,0.520508,-0.044922,-0.046355,-0.047852,-0.048660,0.999224,-0.013733,-0.007641,-0.036112,0.575723,-0.339615,-0.651836,0.358210
34481,NaN,-1.881966,-1.993626,-4.976770,5.090575,-2.278282,-8.726805,-2.085797,-1.422797,-8.146678,-0.473389,0.486328,-0.027344,-0.019271,-0.019676,-0.049698,0.999091,-0.010426,-0.007112,-0.040721,0.583180,-0.314996,-0.671902,0.330495
34482,NaN,0.482726,2.283839,-4.628092,4.616710,2.144282,-10.786789,-1.862467,-1.365607,-8.842070,-0.512939,0.441406,-0.016113,0.006134,0.022154,-0.046450,0.998956,-0.009309,-0.006826,-0.044195,0.589670,-0.288168,-0.692144,0.300309
34483,NaN,2.209385,4.761817,-4.065703,3.908573,5.177632,-11.217377,-1.955969,-1.425965,-9.356403,-0.560791,0.396240,0.001465,0.024566,0.046108,-0.040944,0.998833,-0.009776,-0.007127,-0.046764,0.596815,-0.258035,-0.710936,0.267955
34484,NaN,3.585072,5.568662,-4.204577,3.831813,6.834839,-10.122054,-2.257544,-1.574432,-9.740311,-0.597656,0.342773,0.025635,0.038821,0.053367,-0.042359,0.998720,-0.011283,-0.007869,-0.048681,0.600604,-0.227743,-0.730275,0.232608
34485,NaN,5.459004,5.800573,-4.771558,3.997364,8.152455,-7.889202,-2.539507,-1.734417,-10.001019,-0.634521,0.282715,0.036865,0.057792,0.054560,-0.047931,0.998632,-0.012692,-0.008668,-0.049982,0.603752,-0.195648,-0.747793,0.194967
34486,NaN,8.460635,5.990512,-2.828779,1.371728,9.462902,-4.920423,-2.504380,-1.825113,-10.146219,-0.666748,0.218506,0.057129,0.087743,0.055152,-0.028207,0.998593,-0.012516,-0.009121,-0.050707,0.603536,-0.163255,-0.764582,0.156547
34487,NaN,10.549148,3.621456,-1.860285,-0.370428,7.512592,-1.376727,-2.874153,-1.975610,-10.088502,-0.683838,0.152100,0.075195,0.107309,0.030569,-0.018015,0.998576,-0.014364,-0.009873,-0.050419,0.602239,-0.130874,-0.778901,0.116159
34488,NaN,13.283015,2.122405,-0.494981,-2.745157,5.959050,1.933839,-3.045060,-1.970977,-10.110145,-0.698242,0.070557,0.091309,0.133716,0.014413,-0.003889,0.998558,-0.015218,-0.009850,-0.050526,0.597596,-0.099373,-0.792068,0.075044
34489,NaN,16.664868,-0.831723,0.720917,-5.330883,2.464930,5.814093,-3.240574,-1.861327,-10.080662,-0.702148,-0.004395,0.111572,0.165874,-0.016558,0.008980,0.998556,-0.016195,-0.009302,-0.050379,0.593087,-0.067732,-0.801634,0.032303
34490,NaN,19.218834,-4.539030,-0.166144,-5.921931,-2.639769,8.831626,-3.376700,-1.798287,-9.980631,-0.701660,-0.079346,0.119141,0.189606,-0.054897,0.000925,0.998572,-0.016875,-0.008987,-0.049879,0.585528,-0.037389,-0.809725,-0.010199
34491,NaN,22.438395,-8.058368,-2.419994,-5.472931,-8.251556,11.998244,-3.208413,-1.778428,-9.832805,-0.686279,-0.148193,0.124512,0.220247,-0.091835,-0.020815,0.998624,-0.016035,-0.008888,-0.049141,0.577975,-0.006583,-0.814351,-0.052284
34492,NaN,26.485583,-13.855662,-3.886917,-6.394613,-16.666606,14.459493,-2.800838,-1.742143,-9.527757,-0.656006,-0.216797,0.130127,0.258157,-0.151469,-0.034539,0.998730,-0.013998,-0.008707,-0.047619,0.567595,0.023639,-0.817918,-0.091034
34493,NaN,29.111758,-19.952856,-4.163828,-7.865893,-25.402732,13.741770,-2.570649,-1.711813,-9.064811,-0.632568,-0.274658,0.133057,0.281994,-0.212942,-0.036518,0.998854,-0.012848,-0.008556,-0.045307,0.557701,0.052927,-0.818438,-0.127781
34494,NaN,31.577158,-25.112954,-4.565237,-9.168760,-33.047919,11.896078,-2.722638,-1.606221,-8.448484,-0.604980,-0.321777,0.131836,0.305112,-0.264738,-0.039630,0.998983,-0.013609,-0.008028,-0.042228,0.545916,0.078801,-0.818101,-0.162715
34495,NaN,35.072670,-31.078862,-5.384222,-10.375695,-41.580573,9.863534,-2.783492,-1.287636,-7.536876,-0.580078,-0.358398,0.124023,0.338989,-0.324401,-0.047182,0.999172,-0.013914,-0.006436,-0.037674,0.536944,0.101171,-0.814560,-0.194801
34496,NaN,34.996678,-38.382505,-5.665404,-10.709511,-49.405736,3.357278,-2.285076,-0.705755,-6.237560,-0.559326,-0.394775,0.115967,0.337947,-0.395095,-0.050975,0.999442,-0.011423,-0.003528,-0.031182,0.528883,0.119677,-0.810616,-0.221048
34497,NaN,27.586652,-42.841256,-6.633375,-6.667510,-50.880526,-7.246985,-0.937848,-0.145891,-4.829801,-0.541504,-0.414062,0.114258,0.265458,-0.435211,-0.064107,0.999697,-0.004689,-0.000729,-0.024147,0.525554,0.136813,-0.805727,-0.236388
34498,NaN,17.764169,-40.119390,-5.694631,-2.911951,-43.750333,-15.712911,0.208994,0.017772,-3.316770,-0.528320,-0.420654,0.118652,0.170952,-0.404006,-0.057383,0.999862,0.001045,0.000089,-0.016583,0.521521,0.150711,-0.803545,-0.244166
34499,NaN,9.596426,-37.939417,-2.657407,-1.722300,-37.057124,-22.553249,0.295545,-0.300047,-1.640288,-0.528320,-0.424805,0.120850,0.092889,-0.380125,-0.026995,0.999964,0.001478,-0.001500,-0.008201,0.520665,0.157959,-0.802391,-0.245206
34500,NaN,7.615892,-37.654374,-0.411648,-2.827209,-35.202807,-24.938555,-0.061939,-0.665911,-0.097830,-0.532715,-0.418457,0.120850,0.075988,-0.376582,-0.003747,0.999994,-0.000310,-0.003330,-0.000489,0.517951,0.157359,-0.803965,-0.246181
34501,NaN,10.120589,-35.113065,2.253968,-6.279428,-33.881535,-22.183193,0.141677,-0.608956,1.198924,-0.540039,-0.399170,0.122559,0.103240,-0.350532,0.022604,0.999977,0.000708,-0.003045,0.005995,0.519697,0.152439,-0.805674,-0.239931
34502,NaN,10.701808,-30.463165,4.441402,-8.613512,-29.933323,-19.405100,0.888200,-0.244161,2.305255,-0.549072,-0.382080,0.130859,0.110468,-0.303565,0.043198,0.999923,0.004441,-0.001221,0.011526,0.520792,0.145141,-0.809067,-0.230477
34503,NaN,6.967112,-21.838431,5.917771,-8.312322,-20.818815,-17.422873,1.258484,0.079433,3.028385,-0.562744,-0.360596,0.141113,0.072994,-0.217662,0.057778,0.999865,0.006292,0.000397,0.015141,0.526649,0.136582,-0.811380,-0.213654
34504,NaN,4.324596,-11.895239,-3.744111,1.561789,-13.078880,-10.650813,0.780227,-0.360503,3.484529,-0.578613,-0.339111,0.140869,0.045376,-0.118027,-0.037822,0.999839,0.003901,-0.001802,0.017422,0.528322,0.124077,-0.815408,-0.201470
34505,NaN,1.856189,-2.167041,-34.960304,30.988236,-9.765475,3.402242,-2.089554,-2.129165,4.649052,-0.594727,-0.313232,0.142578,0.022833,-0.024822,-0.349127,0.999619,-0.010446,-0.010644,0.023242,0.528377,0.097796,-0.820550,-0.194814
34506,NaN,114.705874,56.416765,-2.623851,-42.129207,10.886586,110.400236,-1.776860,0.587746,4.229592,-0.611084,-0.272461,0.137451,1.134698,0.587969,-0.034739,0.999733,-0.008884,0.002938,0.021146,0.535666,0.076278,-0.819109,-0.190535
34507,NaN,45.516791,-62.508531,7.963572,-31.515504,-69.293453,5.746804,1.102644,-0.546405,10.705891,-0.641602,-0.199707,0.146973,0.487529,-0.599989,0.077584,0.998549,0.005511,-0.002731,0.053504,0.544889,0.035156,-0.823644,-0.153199
34508,NaN,6.562290,-35.232917,-20.950913,11.209713,-39.676804,-5.121171,-2.945915,-1.824392,10.273963,-0.652344,-0.141846,0.141846,0.085569,-0.351303,-0.203608,0.998531,-0.014722,-0.009117,0.051345,0.544993,-0.016625,-0.826941,-0.137387
34509,NaN,-35.245716,-27.355155,15.944143,-5.812217,-19.529788,-52.577597,-1.244808,0.850377,6.708585,-0.657715,-0.105225,0.136963,-0.342356,-0.284144,0.162658,0.999409,-0.006223,0.004251,0.033536,0.554921,-0.046776,-0.822036,-0.118878
34510,NaN,-11.680017,-14.591577,-0.990796,2.178007,-14.090559,-21.933994,1.139608,-1.045969,5.797089,-0.656982,-0.066650,0.153564,-0.112451,-0.149156,-0.011348,0.999550,0.005697,-0.005229,0.028981,0.554117,-0.068061,-0.823872,-0.097758
34511,NaN,1.852925,-22.935941,-6.757113,0.517330,-23.770466,-6.700160,2.169559,-0.793868,5.302496,-0.658691,-0.019531,0.150635,0.024861,-0.228006,-0.069959,0.999582,0.010846,-0.003969,0.026509,0.555912,-0.083790,-0.824197,-0.068116
34512,NaN,13.936114,-13.021114,-3.423257,-4.646916,-12.236571,4.472880,3.261972,0.003701,4.127200,-0.657471,0.006104,0.150146,0.142000,-0.126718,-0.036321,0.999654,0.016308,0.000019,0.020634,0.558538,-0.091725,-0.823263,-0.043126
34513,NaN,16.270368,-12.213698,-14.188694,5.141870,-11.968261,11.291408,4.403734,0.102020,3.468778,-0.660400,0.033936,0.149902,0.164679,-0.116128,-0.144572,0.999607,0.022016,0.000510,0.017342,0.563165,-0.093161,-0.821022,-0.009438
34514,NaN,17.763286,-1.479719,0.670125,-6.922199,1.406129,6.565723,2.461952,0.924246,3.052418,-0.661377,0.061768,0.143066,0.177860,-0.012158,0.005719,0.999797,0.012309,0.004621,0.015261,0.568164,-0.098724,-0.816924,0.008893
34515,NaN,12.516083,-5.513504,-6.344532,1.056533,-3.511452,4.810427,1.671232,0.529034,2.932037,-0.655518,0.076904,0.138428,0.125777,-0.052760,-0.064225,0.999854,0.008356,0.002645,0.014659,0.572312,-0.105532,-0.812679,0.029571
34516,NaN,12.839756,-3.943786,-6.465894,1.439141,-1.516111,4.946715,-0.004448,0.888564,2.646969,-0.654053,0.098389,0.131836,0.128616,-0.037738,-0.065229,0.999903,-0.000022,0.004443,0.013234,0.575499,-0.116450,-0.808636,0.036717
34517,NaN,17.323656,-9.845319,-6.091856,-0.934582,-5.664871,10.216611,-0.620845,0.768072,2.235468,-0.650146,0.111084,0.127197,0.174089,-0.096700,-0.061284,0.999925,-0.003104,0.003840,0.011177,0.578925,-0.127080,-0.804114,0.045803
34518,NaN,24.730419,-8.367965,-6.762294,-2.158597,-2.014114,16.994316,-0.804604,0.885334,1.688887,-0.654785,0.115479,0.125000,0.247699,-0.081863,-0.068387,0.999946,-0.004023,0.004427,0.008444,0.581581,-0.136425,-0.800592,0.046954
34519,NaN,31.138424,-8.381120,-5.167516,-5.153367,0.436065,22.433025,-0.696904,0.872572,1.251854,-0.650879,0.128418,0.120605,0.311673,-0.082043,-0.052747,0.999965,-0.003484,0.004363,0.006259,0.585258,-0.143441,-0.796319,0.052663
34520,NaN,32.726540,-6.644597,-5.687988,-4.551928,2.822065,23.636290,0.058846,0.674708,0.930627,-0.646484,0.130615,0.112061,0.327375,-0.064906,-0.058003,0.999983,0.000294,0.003374,0.004653,0.587758,-0.147180,-0.793620,0.055200
34521,NaN,32.981076,-0.679807,-3.427175,-5.486981,9.184104,21.580008,0.900213,0.305034,0.381868,-0.650879,0.134766,0.105469,0.329770,-0.006013,-0.034803,0.999987,0.004501,0.001525,0.001909,0.590420,-0.145958,-0.791136,0.064837
34522,NaN,31.581202,4.161058,-2.223580,-5.538685,13.493378,18.592952,2.175058,-0.229743,-0.282422,-0.648926,0.134766,0.099121,0.315896,0.041400,-0.021422,0.999939,0.010875,-0.001149,-0.001412,0.591180,-0.138367,-0.791237,0.072836
34523,NaN,29.371135,7.280712,-1.956921,-5.123736,15.866111,15.514989,4.013055,-0.699985,-0.946313,-0.648682,0.130615,0.094971,0.294115,0.071776,-0.017093,0.999781,0.020064,-0.003500,-0.004731,0.592350,-0.122248,-0.791128,0.091066
34524,NaN,26.247325,12.607779,-0.605744,-5.850307,19.745237,10.780028,5.378795,-0.749783,-1.813939,-0.650635,0.124023,0.088623,0.263615,0.123775,-0.001721,0.999590,0.026890,-0.003748,-0.009068,0.593277,-0.098787,-0.791654,0.107458
34525,NaN,22.599028,15.919467,-3.703195,-2.860791,21.799515,7.343353,6.047870,-0.638945,-2.490829,-0.654541,0.115479,0.077881,0.228065,0.157372,-0.031528,0.999460,0.030234,-0.003194,-0.012452,0.595828,-0.070260,-0.789672,0.128336
34526,NaN,20.097523,2.557620,-3.931550,-2.037740,8.132398,9.045099,5.841303,0.017007,-2.012672,-0.652100,0.109131,0.069336,0.201223,0.024686,-0.038603,0.999523,0.029202,0.000085,-0.010062,0.598972,-0.044927,-0.786175,0.145405
34527,NaN,20.485514,5.062643,-2.393236,-3.980688,10.333684,8.308625,4.052550,0.377842,-0.446729,-0.652344,0.113525,0.056641,0.204924,0.050645,-0.023293,0.999790,0.020261,0.001889,-0.002233,0.602662,-0.030910,-0.780470,0.163433
34528,NaN,16.180617,11.831807,-4.553518,-1.831216,16.240472,2.654177,1.575866,1.020188,1.262522,-0.652344,0.119873,0.041504,0.160822,0.119694,-0.045418,0.999936,0.007879,0.005101,0.006312,0.605830,-0.031955,-0.775834,0.173293
34529,NaN,8.428715,11.418188,-1.721958,-2.359535,13.405219,-5.443590,0.205647,1.800871,3.721701,-0.642822,0.156494,0.028076,0.081984,0.115740,-0.017846,0.999786,0.001028,0.009004,0.018607,0.610491,-0.046891,-0.767899,0.188240
34530,NaN,10.662835,-1.757964,-0.245058,-2.115838,1.976307,0.600143,-0.703675,2.069637,5.874722,-0.631348,0.197266,0.010498,0.107051,-0.014450,-0.003503,0.999509,-0.003518,0.010346,0.029369,0.612453,-0.073551,-0.760458,0.202965
34531,NaN,19.524482,-13.234861,-6.377991,3.312813,-2.661393,14.245029,-0.340350,1.529207,7.015105,-0.613770,0.246338,-0.007324,0.199234,-0.125516,-0.065076,0.999354,-0.001701,0.007644,0.035068,0.611425,-0.102268,-0.751567,0.225497
34532,NaN,22.279812,-1.453282,-5.794561,0.676203,10.255009,10.832906,-0.391839,1.464136,7.183786,-0.599854,0.284912,-0.020752,0.222699,-0.006647,-0.059558,0.999326,-0.001959,0.007319,0.035911,0.608225,-0.132072,-0.743316,0.245155
34533,NaN,23.114830,8.230854,-4.826005,-1.237930,19.954798,5.199169,-0.040418,1.350633,6.861193,-0.583984,0.323730,-0.038330,0.227812,0.090153,-0.049824,0.999389,-0.000202,0.006752,0.034299,0.604958,-0.158767,-0.732916,0.267681
34534,NaN,24.603222,8.487539,-5.400222,-0.727729,22.119487,4.899572,0.263222,1.393445,6.621377,-0.559570,0.364258,-0.051758,0.242658,0.093020,-0.055582,0.999427,0.001316,0.006966,0.033101,0.601074,-0.184041,-0.722630,0.287481
34535,NaN,24.714914,8.907735,-6.734619,0.825798,23.746439,3.251204,0.807813,1.735819,6.605765,-0.532959,0.402832,-0.075684,0.243428,0.097436,-0.069088,0.999409,0.004038,0.008677,0.033022,0.598661,-0.207239,-0.708505,0.310930
34536,NaN,23.730466,9.817431,-7.591828,2.144294,24.694048,0.309227,1.395195,2.030232,6.714511,-0.516602,0.432861,-0.099609,0.233038,0.106584,-0.077575,0.999361,0.006974,0.010149,0.033565,0.596484,-0.229905,-0.692801,0.333732
34537,NaN,22.384338,10.652898,-7.980889,2.984833,24.965533,-3.049063,1.847856,2.085814,6.790334,-0.474854,0.469238,-0.123535,0.219198,0.114770,-0.081076,0.999327,0.009237,0.010427,0.033944,0.594460,-0.250494,-0.674120,0.359767
34538,NaN,20.964748,11.514636,-7.643733,3.031859,24.692963,-6.448586,2.073672,1.903401,6.791122,-0.441162,0.497070,-0.140869,0.204828,0.122955,-0.077154,0.999325,0.010366,0.009515,0.033948,0.590859,-0.270507,-0.655719,0.384375
34539,NaN,19.468785,11.607849,-7.681500,3.341757,23.685204,-9.201780,2.273087,1.665437,6.712814,-0.407715,0.522949,-0.168945,0.189987,0.123384,-0.077036,0.999338,0.011363,0.008325,0.033557,0.586443,-0.287947,-0.635965,0.410754
34540,NaN,17.767694,10.488796,-7.736029,3.740290,21.689264,-10.775190,2.784801,1.393118,6.555213,-0.369873,0.554932,-0.195068,0.173552,0.111697,-0.077055,0.999342,0.013921,0.006964,0.032769,0.581035,-0.303329,-0.616247,0.436612
34541,NaN,15.975640,8.933206,-7.720175,3.985441,19.361988,-11.731512,3.413332,1.139080,6.327262,-0.338135,0.572266,-0.222900,0.156360,0.095625,-0.076502,0.999338,0.017063,0.005694,0.031629,0.575871,-0.314194,-0.594682,0.464767
34542,NaN,15.005660,9.403116,-7.333118,3.392803,18.418555,-13.869094,3.909318,1.023478,5.976048,-0.306396,0.584961,-0.257324,0.146759,0.099868,-0.072174,0.999350,0.019542,0.005116,0.029874,0.570791,-0.322914,-0.572813,0.491742
34543,NaN,15.575333,10.404335,-6.592249,1.986136,18.828478,-15.787108,4.100274,1.001000,5.575829,-0.267822,0.595703,-0.287354,0.152423,0.109656,-0.064481,0.999389,0.020497,0.005004,0.027873,0.566563,-0.328340,-0.549859,0.518512
34544,NaN,16.323147,10.825806,-5.767141,0.584042,19.099222,-16.999507,3.747975,1.009681,5.197091,-0.239990,0.602295,-0.317139,0.160040,0.113510,-0.056390,0.999474,0.018737,0.005048,0.025981,0.561713,-0.334488,-0.528394,0.541660
34545,NaN,16.776124,10.244157,-5.050294,-0.431374,18.882626,-17.231920,3.138388,0.969777,4.745999,-0.210205,0.610840,-0.340820,0.165013,0.107163,-0.049651,0.999584,0.015690,0.004848,0.023727,0.556809,-0.339457,-0.508482,0.562298
34546,NaN,17.033611,8.279022,-7.066289,1.708416,18.908919,-16.746649,2.256904,0.768995,4.043510,-0.184570,0.617188,-0.347168,0.168335,0.087002,-0.070347,0.999725,0.011283,0.003845,0.020216,0.551062,-0.345555,-0.492922,0.577885
34547,NaN,13.531983,5.723582,-8.200708,3.855491,15.234238,-15.825340,1.132367,0.496414,3.166723,-0.163330,0.625732,-0.360107,0.134183,0.059831,-0.082007,0.999856,0.005662,0.002482,0.015833,0.545450,-0.350249,-0.482348,0.589195
34548,NaN,5.574206,4.895701,-5.875753,3.120416,6.795829,-15.612727,0.583491,0.461525,2.126300,-0.159180,0.630127,-0.366455,0.055081,0.049716,-0.058741,0.999937,0.002917,0.002308,0.010631,0.541274,-0.355155,-0.475542,0.595607
34549,NaN,-0.306989,5.322999,-4.511744,2.642004,0.702739,-16.239972,-0.282373,0.306604,0.941157,-0.150635,0.634277,-0.360107,-0.003389,0.053151,-0.045187,0.999987,-0.001412,0.001533,0.004706,0.539159,-0.357666,-0.473579,0.597583
34550,NaN,-5.942087,5.628875,-2.808133,1.918140,-5.154618,-16.493136,-1.351514,0.048344,-0.249046,-0.155762,0.657959,-0.347656,-0.059358,0.056171,-0.028447,0.999976,-0.006758,0.000242,-0.001245,0.537576,-0.360889,-0.477846,0.593662
34551,NaN,-9.111368,4.951042,-2.179430,2.125200,-8.333034,-16.003062,-2.638342,-0.315236,-1.440670,-0.171143,0.662109,-0.330566,-0.090720,0.049870,-0.022594,0.999886,-0.013191,-0.001576,-0.007203,0.536719,-0.362217,-0.488749,0.584684
34552,NaN,-9.235930,3.151169,-3.342477,3.858506,-8.214354,-14.715336,-3.771357,-0.632919,-2.675019,-0.197266,0.670654,-0.300781,-0.091825,0.032101,-0.034318,0.999728,-0.018855,-0.003164,-0.013374,0.536007,-0.363887,-0.506109,0.569330
34553,NaN,-8.860147,1.480671,-4.795925,5.690761,-7.575695,-13.543088,-4.397173,-0.679889,-3.975655,-0.232178,0.679199,-0.269043,-0.088133,0.015498,-0.048595,0.999555,-0.021983,-0.003399,-0.019875,0.537785,-0.362286,-0.527064,0.549308
34554,NaN,-8.452842,-0.843308,-5.915933,7.213721,-7.206365,-11.597950,-4.231074,-0.499075,-5.321139,-0.277100,0.670654,-0.234863,-0.084587,-0.007435,-0.059206,0.999419,-0.021151,-0.002495,-0.026601,0.543103,-0.358097,-0.549283,0.524494
34555,NaN,-6.714233,-2.728187,-6.328758,7.631392,-5.858065,-9.687338,-3.575293,-0.327850,-6.540245,-0.324219,0.664307,-0.205078,-0.067908,-0.026196,-0.062924,0.999304,-0.017872,-0.001639,-0.032694,0.552987,-0.347680,-0.570425,0.497935
34556,NaN,-3.399374,-1.481201,-6.193726,6.761469,-2.514202,-10.080776,-3.061037,-0.157009,-7.569762,-0.383789,0.638672,-0.187744,-0.034497,-0.014459,-0.061741,0.999166,-0.015301,-0.000785,-0.037838,0.565601,-0.333915,-0.591089,0.468199
34557,NaN,-0.383163,1.509338,-6.206902,5.956616,1.290494,-11.762186,-2.912501,-0.014869,-8.353727,-0.438721,0.610840,-0.166260,-0.003218,0.014330,-0.062282,0.999022,-0.014558,-0.000074,-0.041755,0.580119,-0.316220,-0.610824,0.436304
34558,NaN,2.621760,3.167995,-6.251056,5.494455,4.744533,-11.619441,-2.888703,0.045600,-8.915203,-0.491211,0.572266,-0.142334,0.027553,0.029564,-0.062954,0.998902,-0.014438,0.000228,-0.044560,0.594504,-0.297168,-0.630347,0.401147
34559,NaN,5.502460,3.267607,-5.966418,4.973392,7.192553,-9.619041,-2.862954,0.032662,-9.344166,-0.543457,0.527344,-0.126953,0.056434,0.029202,-0.060108,0.998806,-0.014309,0.000163,-0.046702,0.608866,-0.275162,-0.648613,0.364511
34560,NaN,7.127379,2.290984,-6.163831,5.195610,7.720496,-7.097278,-2.817520,-0.050926,-9.717839,-0.595215,0.469482,-0.111328,0.072262,0.018543,-0.061902,0.998721,-0.014082,-0.000255,-0.048568,0.621764,-0.251825,-0.666377,0.325478
34561,NaN,7.659878,1.673518,-6.333747,5.441680,7.291324,-5.483743,-2.586728,-0.167889,-10.076499,-0.640625,0.411865,-0.095703,0.077337,0.012030,-0.063449,0.998647,-0.012928,-0.000839,-0.050360,0.634053,-0.224968,-0.682387,0.285855
34562,NaN,8.754953,2.016108,-5.420167,4.469388,7.596569,-4.127928,-2.212902,-0.338348,-10.369518,-0.679443,0.347412,-0.080078,0.088508,0.014987,-0.054237,0.998594,-0.011059,-0.001691,-0.051823,0.644351,-0.195852,-0.697268,0.245502
34563,NaN,10.068630,2.159070,-4.370161,3.328817,7.660705,-2.379269,-2.032122,-0.557032,-10.470375,-0.715576,0.272461,-0.066162,0.101738,0.015838,-0.043600,0.998574,-0.010156,-0.002784,-0.052327,0.652938,-0.164282,-0.710314,0.205271
34564,NaN,12.030103,0.790875,-4.594117,3.389179,6.499986,0.796940,-2.196340,-0.917657,-10.397829,-0.739014,0.201660,-0.041748,0.120687,0.001138,-0.045425,0.998578,-0.010976,-0.004586,-0.051964,0.657639,-0.133395,-0.723044,0.164085
34565,NaN,14.959222,-1.264241,-5.901157,4.339975,4.532249,5.039451,-2.419789,-1.277971,-10.231809,-0.755615,0.124512,-0.027832,0.149033,-0.020983,-0.057837,0.998598,-0.012093,-0.006387,-0.051135,0.659482,-0.102517,-0.734543,0.122555
34566,NaN,18.567809,-4.343526,-7.163138,4.971362,0.969185,9.908377,-2.485223,-1.533248,-9.994289,-0.770264,0.049561,-0.005371,0.183710,-0.053525,-0.069594,0.998645,-0.012421,-0.007663,-0.049949,0.657836,-0.072971,-0.745208,0.081193
34567,NaN,21.582368,-9.030622,-8.056957,5.090171,-5.164179,13.834355,-2.447333,-1.709093,-9.620238,-0.765869,-0.021240,0.012939,0.211790,-0.101523,-0.077551,0.998732,-0.012231,-0.008542,-0.048081,0.654212,-0.043862,-0.753921,0.041060
34568,NaN,22.555713,-14.727485,-7.899809,4.174658,-13.047311,14.678604,-2.209068,-1.900791,-9.135155,-0.759033,-0.089844,0.029053,0.219222,-0.158232,-0.075186,0.998851,-0.011041,-0.009500,-0.045658,0.647720,-0.016251,-0.761698,0.003320
34569,NaN,23.847563,-20.426363,-6.548792,1.899671,-20.926343,14.407359,-2.187444,-2.151342,-8.618839,-0.744141,-0.149902,0.047119,0.230033,-0.214982,-0.060670,0.998954,-0.010933,-0.010753,-0.043079,0.639300,0.009910,-0.768200,-0.032648
34570,NaN,27.590896,-25.971148,-5.914370,-0.381262,-28.772155,15.521749,-2.453084,-2.307513,-8.060922,-0.729248,-0.209961,0.063232,0.265763,-0.271235,-0.052757,0.999046,-0.012262,-0.011534,-0.040292,0.628671,0.032610,-0.774021,-0.067823
34571,NaN,32.527802,-30.470019,-6.042029,-2.401653,-35.955824,17.081570,-2.632746,-2.129648,-7.336416,-0.710449,-0.257324,0.074707,0.314386,-0.317097,-0.052913,0.999184,-0.013160,-0.010645,-0.036672,0.618314,0.052116,-0.777664,-0.101051
34572,NaN,33.633501,-36.955394,-5.442688,-4.494846,-44.193664,13.687919,-2.144558,-1.577922,-6.273741,-0.702637,-0.293701,0.077393,0.324909,-0.380403,-0.047792,0.999419,-0.010721,-0.007888,-0.031363,0.609248,0.069023,-0.779358,-0.129047
34573,NaN,28.475829,-41.938499,-4.821205,-4.442953,-48.611941,4.662696,-0.550205,-0.893158,-5.050595,-0.688965,-0.319336,0.088623,0.274255,-0.426528,-0.045805,0.999667,-0.002751,-0.004465,-0.025250,0.602994,0.086274,-0.779486,-0.146139
34574,NaN,20.285115,-38.300148,-2.810105,-3.730255,-42.883315,-4.054771,1.315582,-0.316889,-3.812083,-0.681885,-0.338867,0.097412,0.195552,-0.386581,-0.030323,0.999795,0.006577,-0.001584,-0.019059,0.598322,0.104822,-0.779589,-0.152525
34575,NaN,12.332423,-31.068632,1.607978,-5.055477,-33.070426,-10.623039,1.413845,-0.190620,-2.332578,-0.679199,-0.351562,0.095459,0.119675,-0.312200,0.013992,0.999907,0.007069,-0.000953,-0.011663,0.595611,0.117525,-0.779780,-0.152905
34576,NaN,7.184589,-28.059515,4.245336,-5.947137,-28.157670,-15.174545,-0.060305,-0.520029,-0.771936,-0.687988,-0.345215,0.105957,0.070651,-0.280857,0.042723,0.999989,-0.000302,-0.002600,-0.003860,0.593060,0.119930,-0.780813,-0.155654
34577,NaN,9.680402,-27.441808,2.301316,-4.927678,-28.670702,-12.210868,-1.111133,-0.953654,0.736240,-0.696777,-0.340820,0.116699,0.097697,-0.273924,0.025000,0.999966,-0.005556,-0.004768,0.003681,0.591277,0.112361,-0.783045,-0.156864
34578,NaN,15.267857,-30.346531,8.818408,-13.245352,-32.500169,-9.642304,-1.017481,-0.664829,2.058721,-0.710693,-0.315186,0.120605,0.155491,-0.301419,0.090235,0.999929,-0.005087,-0.003324,0.010293,0.590857,0.100737,-0.785306,-0.155035
34579,NaN,21.744063,-46.463233,3.905683,-11.414295,-50.077570,-6.911935,-0.569840,-0.474072,4.368836,-0.735596,-0.280762,0.119873,0.227422,-0.459622,0.040902,0.999755,-0.002849,-0.002370,0.021842,0.593332,0.080685,-0.788089,-0.142697
34580,NaN,80.756764,-33.832639,-0.193168,-24.544319,-53.338261,55.111329,-1.535595,-0.026600,7.709845,-0.763672,-0.212158,0.118652,0.819804,-0.306877,0.000614,0.999228,-0.007676,-0.000133,0.038539,0.598925,0.045649,-0.789561,-0.125690
34581,NaN,58.735867,1.644560,-4.551863,-11.444829,-9.180025,47.244370,-2.789232,0.019828,9.652227,-0.789551,-0.149902,0.115479,0.585670,0.044106,-0.046063,0.998738,-0.013940,0.000099,0.048241,0.605695,-0.001953,-0.788709,-0.105200
34582,NaN,3.301903,4.887944,0.243985,-0.355578,4.575524,-6.102306,-2.760933,-1.824682,9.131190,-0.804688,-0.090088,0.129395,0.030722,0.050347,0.002039,0.998821,-0.013799,-0.009120,0.045638,0.602601,-0.047294,-0.791741,-0.088211
34583,NaN,-31.675101,-37.236529,-14.124826,14.118387,-39.697086,-38.321682,-2.034032,0.025133,7.946056,-0.813232,-0.030029,0.132812,-0.301611,-0.385961,-0.137330,0.999159,-0.010167,0.000126,0.039719,0.605741,-0.085892,-0.787924,-0.069829
34584,NaN,-17.803181,-30.988851,-1.684334,-1.397717,-31.965207,-25.807910,-2.010330,-0.657947,6.797891,-0.810791,0.023682,0.138428,-0.167313,-0.315850,-0.014250,0.999366,-0.010050,-0.003289,0.033982,0.604316,-0.118963,-0.785767,-0.056750
34585,NaN,-2.747091,-20.763083,4.893434,-9.323837,-19.267765,-11.884051,0.450907,-0.614151,5.988128,-0.812500,0.072998,0.142090,-0.021387,-0.208441,0.048393,0.999545,0.002254,-0.003070,0.029936,0.603853,-0.142607,-0.783509,-0.033746
34586,NaN,12.999707,-25.601664,-2.592938,-7.098073,-22.320607,6.991179,2.502222,-0.343424,4.829951,-0.807373,0.115723,0.141357,0.136170,-0.252429,-0.028872,0.999629,0.012510,-0.001717,0.024147,0.604922,-0.154011,-0.781197,-0.009021
34587,NaN,17.477030,-8.611661,-9.926459,3.592398,-5.551151,11.027658,3.096092,0.084057,4.026205,-0.806396,0.147949,0.130127,0.176394,-0.081026,-0.100619,0.999677,0.015479,0.000420,0.020129,0.607824,-0.161759,-0.777210,0.018103
34588,NaN,15.237326,-9.061026,-7.483631,2.071743,-5.317333,8.562736,2.747915,0.607564,3.470661,-0.803223,0.180176,0.123291,0.153672,-0.086907,-0.076513,0.999750,0.013738,0.003038,0.017352,0.611978,-0.166946,-0.772073,0.038918
34589,NaN,11.048642,-2.886478,-1.192003,-1.515774,0.738750,1.543702,1.904137,0.594518,3.279096,-0.799805,0.210205,0.112305,0.110902,-0.026931,-0.012512,0.999816,0.009520,0.002972,0.016394,0.615180,-0.175366,-0.766399,0.058593
34590,NaN,12.792704,-9.649291,-6.094144,1.755643,-5.150534,6.443544,1.064839,0.558209,3.044057,-0.794189,0.233643,0.107666,0.129201,-0.094205,-0.061807,0.999866,0.005324,0.002791,0.015220,0.617312,-0.183934,-0.761553,0.071627
34591,NaN,14.617907,-7.544104,-2.964493,-0.962822,-1.609533,6.796044,0.345420,0.631645,2.672726,-0.795166,0.257324,0.104980,0.147074,-0.073428,-0.030236,0.999904,0.001727,0.003158,0.013363,0.618999,-0.194767,-0.756286,0.083292
34592,NaN,21.426911,-10.776105,-4.291428,-1.185147,-1.542562,14.474070,-0.023312,0.722944,2.137618,-0.786865,0.272217,0.100586,0.215248,-0.105469,-0.043679,0.999936,-0.000117,0.003615,0.010688,0.620813,-0.203251,-0.751880,0.089199
34593,NaN,27.281711,-8.732167,-3.919305,-1.731050,3.405603,18.845421,-0.283080,0.803140,1.709977,-0.784912,0.274414,0.094238,0.273391,-0.085042,-0.040169,0.999954,-0.001415,0.004016,0.008550,0.622667,-0.212427,-0.747060,0.095195
34594,NaN,31.977365,-8.134475,-3.723501,-2.139920,6.425785,22.694158,-0.149693,0.813013,1.363674,-0.787354,0.282959,0.087646,0.320164,-0.079191,-0.038476,0.999968,-0.000748,0.004065,0.006818,0.624908,-0.218407,-0.743077,0.098104
34595,NaN,33.640289,-4.311554,-2.745679,-2.173003,11.210724,22.240051,0.134909,0.682538,1.131853,-0.789795,0.293701,0.083252,0.336543,-0.041192,-0.028633,0.999978,0.000675,0.003413,0.005659,0.626907,-0.223989,-0.738948,0.103786
34596,NaN,34.749083,0.909741,-2.385984,-1.368090,16.634012,20.772438,0.641476,0.296561,0.767970,-0.791992,0.291504,0.072510,0.347416,0.010509,-0.024343,0.999986,0.003207,0.001483,0.003840,0.628346,-0.225007,-0.736763,0.108320
34597,NaN,33.380811,5.665304,-2.686842,0.036545,20.413649,17.332704,1.601445,-0.211788,0.098774,-0.796143,0.289551,0.063965,0.333808,0.057029,-0.026059,0.999967,0.008007,-0.001059,0.000494,0.629216,-0.221544,-0.735756,0.116912
34598,NaN,29.014448,7.152998,-1.893380,-0.266744,19.765553,12.677889,3.378336,-0.530672,-0.585991,-0.810791,0.281006,0.055420,0.290400,0.070977,-0.016961,0.999850,0.016891,-0.002653,-0.002930,0.631284,-0.208458,-0.735935,0.128158
34599,NaN,26.038105,11.688619,0.249021,-1.956159,22.478617,7.665738,4.925611,-0.622070,-1.359983,-0.814697,0.266113,0.049072,0.261152,0.114991,0.006150,0.999669,0.024625,-0.003110,-0.006799,0.634821,-0.188581,-0.735236,0.144458
34600,NaN,23.500404,14.686587,-1.069315,-0.901076,23.732879,4.504112,5.021313,-0.465432,-1.744316,-0.831055,0.244629,0.036621,0.236293,0.145007,-0.006488,0.999644,0.025104,-0.002327,-0.008721,0.638904,-0.165872,-0.734417,0.157862
34601,NaN,17.917616,2.842546,-3.953851,1.700543,10.657712,5.296072,4.183090,0.169320,-0.945482,-0.837402,0.240479,0.021484,0.179277,0.028399,-0.039096,0.999770,0.020914,0.000847,-0.004727,0.643740,-0.150046,-0.730500,0.171622
34602,NaN,17.114295,3.047890,-3.118186,0.942772,10.512015,4.347752,2.438045,0.584854,0.534183,-0.835205,0.240479,0.006592,0.170969,0.031317,-0.031304,0.999918,0.012190,0.002924,0.002671,0.647214,-0.144683,-0.726014,0.181891
34603,NaN,19.667335,8.729472,-1.155998,-1.334333,16.839928,3.564777,0.543647,1.189338,2.279255,-0.833496,0.257568,-0.006592,0.195589,0.089561,-0.012484,0.999914,0.002718,0.005947,0.011396,0.649926,-0.153088,-0.719288,0.191795
34604,NaN,14.024852,3.941081,0.541235,-2.033429,10.269278,0.330397,-0.697041,1.775283,4.754265,-0.828369,0.293945,-0.020020,0.139299,0.042746,0.004028,0.999672,-0.003485,0.008875,0.023769,0.651021,-0.174145,-0.710259,0.203414
34605,NaN,16.964931,-11.383680,-5.944123,4.657856,-0.002734,10.945437,-0.507668,1.628002,6.499846,-0.814941,0.345459,-0.035645,0.172742,-0.108408,-0.060559,0.999436,-0.002538,0.008138,0.032493,0.649462,-0.201091,-0.698744,0.222527
34606,NaN,20.565589,-9.104501,-8.793904,7.365543,5.445743,12.526912,-0.338367,1.132621,7.175068,-0.790771,0.392578,-0.051270,0.208246,-0.083754,-0.088968,0.999339,-0.001691,0.005662,0.035867,0.644682,-0.228421,-0.687707,0.243450
34607,NaN,23.055742,5.848347,-6.676778,5.290415,19.783548,3.998611,0.635595,0.948648,6.554829,-0.770752,0.439697,-0.068848,0.228152,0.066202,-0.067652,0.999447,0.003177,0.004742,0.032768,0.640288,-0.250599,-0.675360,0.266682
34608,NaN,24.919368,4.743003,-6.559732,5.280305,21.129971,4.744677,1.517250,1.079150,6.017854,-0.746094,0.474121,-0.082275,0.247249,0.055392,-0.066535,0.999504,0.007585,0.005395,0.030084,0.637504,-0.267418,-0.661940,0.289676
34609,NaN,24.875602,3.359342,-6.900789,5.886271,21.079017,4.275949,2.308360,1.510895,5.946645,-0.728027,0.510498,-0.116943,0.247067,0.041765,-0.070428,0.999463,0.011540,0.007553,0.029728,0.636562,-0.282288,-0.644893,0.314984
34610,NaN,24.378399,6.901834,-7.604582,6.704074,23.762745,-0.332116,2.954965,1.920344,6.109130,-0.692383,0.542725,-0.153564,0.240764,0.077540,-0.077264,0.999378,0.014772,0.009600,0.030539,0.636915,-0.295470,-0.625032,0.341134
34611,NaN,23.227400,9.806842,-7.974765,7.015406,25.068089,-5.190760,3.198103,2.102102,6.248853,-0.658936,0.574951,-0.194580,0.228190,0.106525,-0.080502,0.999329,0.015987,0.010508,0.031237,0.637044,-0.308545,-0.602746,0.368336
34612,NaN,22.281054,11.561081,-7.700204,6.535795,25.411862,-9.024869,3.340327,2.140722,6.301047,-0.625244,0.600586,-0.227051,0.218168,0.123824,-0.077331,0.999307,0.016698,0.010701,0.031498,0.636604,-0.320660,-0.579561,0.394995
34613,NaN,21.307839,12.050903,-7.074030,5.665079,24.763940,-11.726564,3.396434,2.088451,6.354936,-0.583008,0.626465,-0.267822,0.208343,0.128382,-0.070797,0.999297,0.016978,0.010440,0.031767,0.635048,-0.332327,-0.555251,0.421864
34614,NaN,20.090828,10.765389,-6.995701,5.510975,22.991908,-12.850437,3.482676,1.944000,6.348330,-0.544922,0.645752,-0.306641,0.196652,0.115160,-0.069920,0.999297,0.017409,0.009718,0.031734,0.632390,-0.342795,-0.530712,0.448240
34615,NaN,18.197660,9.029603,-7.087244,5.563607,20.432429,-13.591438,3.616590,1.748501,6.239955,-0.504639,0.666992,-0.343018,0.178397,0.097180,-0.070727,0.999312,0.018079,0.008740,0.031193,0.628789,-0.351589,-0.505793,0.474535
34616,NaN,16.419653,8.720452,-6.240013,4.370991,18.386658,-15.033714,3.726310,1.531873,5.983506,-0.468262,0.673584,-0.379395,0.160992,0.093211,-0.061942,0.999350,0.018628,0.007658,0.029911,0.624597,-0.358445,-0.481201,0.499841
34617,NaN,16.027042,8.394876,-5.053124,2.884003,17.606035,-15.683093,3.600378,1.351502,5.617331,-0.429688,0.682129,-0.411621,0.157473,0.089302,-0.050026,0.999421,0.017998,0.006756,0.028081,0.619909,-0.363744,-0.457535,0.523512
34618,NaN,16.561861,8.051479,-4.385126,1.959689,17.745721,-16.097378,3.274463,1.203502,5.186268,-0.397461,0.682129,-0.447754,0.163182,0.085482,-0.043466,0.999512,0.016370,0.006017,0.025927,0.614723,-0.368463,-0.435486,0.544704
34619,NaN,17.011934,8.283184,-6.134774,3.110942,17.942250,-17.809986,2.642874,0.959152,4.680770,-0.360840,0.686523,-0.464844,0.167813,0.087585,-0.061020,0.999627,0.013213,0.004795,0.023401,0.608736,-0.372731,-0.416567,0.563013
34620,NaN,17.181430,9.040979,-7.228998,3.465350,17.845009,-19.746357,1.738982,0.732818,3.965457,-0.333008,0.690674,-0.481934,0.169704,0.094416,-0.072105,0.999759,0.008694,0.003664,0.019826,0.602173,-0.377700,-0.401855,0.577272
34621,NaN,12.658455,7.916147,-6.774499,3.165414,12.959725,-19.341419,0.828647,0.529879,3.197669,-0.311768,0.697021,-0.486084,0.125115,0.081450,-0.067743,0.999860,0.004143,0.002649,0.015988,0.595549,-0.382712,-0.391908,0.587589
34622,NaN,4.622098,5.312293,-6.751464,4.049152,4.671220,-17.359055,0.092314,0.084662,2.542717,-0.296631,0.699219,-0.479736,0.045512,0.053736,-0.067509,0.999919,0.000462,0.000423,0.012713,0.588350,-0.387667,-0.386389,0.595199
34623,NaN,-1.052903,4.434319,-5.998343,3.752348,-1.083767,-16.254481,-0.684581,-0.488052,1.641071,-0.292969,0.711914,-0.475586,-0.010745,0.044050,-0.060161,0.999958,-0.003423,-0.002440,0.008205,0.581242,-0.390954,-0.386858,0.599711
34624,NaN,-4.562405,4.658194,-3.905516,1.899648,-4.632873,-15.530525,-1.470405,-0.871943,0.499903,-0.293213,0.722656,-0.465088,-0.045568,0.046178,-0.039594,0.999960,-0.007352,-0.004360,0.002499,0.575136,-0.393596,-0.392710,0.600066
34625,NaN,-7.026930,1.701399,-3.335629,2.700028,-6.979362,-12.532180,-2.284311,-1.252445,-0.728657,-0.310547,0.724854,-0.439453,-0.069996,0.016884,-0.033989,0.999909,-0.011421,-0.006262,-0.003643,0.570375,-0.394565,-0.404719,0.595981
34626,NaN,-8.205458,-0.074457,-3.388771,3.536782,-8.062708,-10.953270,-2.805942,-1.452074,-2.113559,-0.330322,0.733398,-0.411865,-0.081811,-0.000360,-0.034475,0.999819,-0.014029,-0.007260,-0.010567,0.568076,-0.393927,-0.421220,0.587100
34627,NaN,-9.776669,-0.663413,-3.190124,3.680132,-9.596448,-10.559841,-2.914870,-1.536950,-3.547517,-0.360352,0.729004,-0.384033,-0.097621,-0.005373,-0.032567,0.999707,-0.014573,-0.007684,-0.017736,0.569389,-0.389825,-0.441087,0.573825
34628,NaN,-10.097413,-1.078106,-3.072182,3.735124,-9.905576,-10.499361,-2.853109,-1.628782,-4.893828,-0.409668,0.718506,-0.358398,-0.100951,-0.008755,-0.031410,0.999566,-0.014263,-0.008143,-0.024466,0.574013,-0.382351,-0.463159,0.556597
34629,NaN,-8.168021,-0.284876,-2.996866,3.353657,-7.862256,-11.456276,-2.792049,-1.680903,-6.038714,-0.450195,0.709961,-0.337158,-0.081470,-0.000811,-0.030633,0.999411,-0.013958,-0.008403,-0.030188,0.581275,-0.371312,-0.487021,0.535777
34630,NaN,-5.183921,1.690708,-2.797849,2.533929,-4.485905,-13.130065,-2.906717,-1.693712,-6.963380,-0.505371,0.684082,-0.306885,-0.050978,0.018279,-0.028672,0.999253,-0.014530,-0.008466,-0.034808,0.589960,-0.358032,-0.512198,0.511286
34631,NaN,-2.211819,3.783067,-3.111560,2.292224,-0.810936,-14.604470,-3.262411,-1.724756,-7.689062,-0.560303,0.649902,-0.268066,-0.020383,0.038120,-0.031917,0.999091,-0.016307,-0.008621,-0.038434,0.598838,-0.343145,-0.538865,0.482981
34632,NaN,0.667034,4.935958,-3.823437,2.764888,2.722923,-14.746644,-3.685268,-1.775375,-8.259161,-0.617432,0.622070,-0.242432,0.009024,0.048304,-0.039058,0.998938,-0.018420,-0.008874,-0.041281,0.607033,-0.327323,-0.566584,0.450947
34633,NaN,3.951336,4.909751,-4.767438,3.716929,6.164580,-13.065761,-3.951969,-1.833766,-8.724363,-0.669678,0.577148,-0.201172,0.042016,0.046351,-0.048231,0.998812,-0.019752,-0.009165,-0.043605,0.614344,-0.310007,-0.594597,0.415851
34634,NaN,5.969049,5.509458,-4.806804,3.744414,8.420059,-11.836288,-4.212477,-1.818408,-9.067930,-0.721680,0.519287,-0.164062,0.062514,0.051282,-0.048615,0.998709,-0.021053,-0.009088,-0.045320,0.620470,-0.291859,-0.622140,0.377858
34635,NaN,6.722892,5.550965,-4.708522,3.768856,9.135260,-10.470653,-4.534874,-1.802323,-9.325318,-0.769287,0.463623,-0.129395,0.070112,0.051208,-0.047656,0.998616,-0.022664,-0.009007,-0.046605,0.625047,-0.273005,-0.649008,0.337006
34636,NaN,7.679978,4.799197,-5.371698,4.540549,9.360728,-8.224322,-4.698572,-1.799956,-9.522184,-0.808105,0.403564,-0.090088,0.079412,0.042984,-0.054059,0.998550,-0.023482,-0.008995,-0.047588,0.627941,-0.253416,-0.674527,0.294081
34637,NaN,9.421703,3.712187,-4.939835,4.027905,9.421812,-5.140320,-4.559607,-1.732612,-9.727312,-0.855469,0.334961,-0.063477,0.096263,0.031346,-0.049329,0.998520,-0.022787,-0.008659,-0.048613,0.629747,-0.231850,-0.697993,0.249940
34638,NaN,12.135991,2.503809,-4.202780,2.924550,9.459023,-1.267470,-4.226229,-1.601013,-9.916753,-0.878174,0.247070,-0.036621,0.122706,0.018093,-0.041480,0.998516,-0.021121,-0.008001,-0.049559,0.630738,-0.208261,-0.718706,0.205568
34639,NaN,14.682959,0.104293,-4.070914,2.161053,7.740540,3.124082,-3.738416,-1.537528,-10.077611,-0.907715,0.163574,-0.005615,0.146915,-0.007107,-0.039497,0.998527,-0.018683,-0.007684,-0.050363,0.630801,-0.181738,-0.736849,0.161598
34640,NaN,17.360178,-3.095894,-3.507514,0.651808,4.592593,7.549297,-3.119336,-1.465553,-10.149697,-0.924072,0.077637,0.025635,0.171964,-0.040244,-0.033231,0.998564,-0.015589,-0.007324,-0.050724,0.629891,-0.152798,-0.752100,0.119313
34641,NaN,19.255589,-6.774583,-2.985430,-0.923770,-0.050698,10.786865,-2.455076,-1.411300,-10.077251,-0.942627,-0.010254,0.041992,0.189008,-0.077680,-0.027599,0.998631,-0.012270,-0.007053,-0.050363,0.627897,-0.121326,-0.764696,0.079153
34642,NaN,20.671374,-10.611094,-3.491257,-1.483211,-5.515632,12.968893,-1.699769,-1.404800,-9.855114,-0.941650,-0.102295,0.069092,0.201379,-0.116408,-0.032525,0.998725,-0.008495,-0.007021,-0.049255,0.624630,-0.088330,-0.774740,0.042583
34643,NaN,22.870789,-15.824218,-3.992949,-2.257197,-12.567618,15.202857,-0.871668,-1.425027,-9.556321,-0.940674,-0.194580,0.096191,0.221073,-0.169097,-0.037614,0.998824,-0.004357,-0.007122,-0.047763,0.620045,-0.053392,-0.782685,0.009840
34644,NaN,25.886937,-21.781911,-3.291887,-4.274049,-20.582087,16.884164,-0.455943,-1.454993,-9.164412,-0.926758,-0.284668,0.114746,0.248759,-0.229446,-0.030570,0.998921,-0.002279,-0.007272,-0.045806,0.614051,-0.018869,-0.788791,-0.019863
34645,NaN,29.285971,-26.684170,-2.352367,-6.436241,-27.847304,17.707369,-0.748559,-1.504399,-8.601026,-0.906738,-0.368408,0.137451,0.281189,-0.279184,-0.020349,0.999040,-0.003742,-0.007520,-0.042991,0.606611,0.012720,-0.793381,-0.049071
34646,NaN,32.811276,-31.015737,-1.703797,-8.403058,-34.682933,17.879809,-1.423048,-1.449201,-7.660382,-0.874023,-0.447754,0.157959,0.316017,-0.322517,-0.012453,0.999215,-0.007113,-0.007244,-0.038292,0.598638,0.038376,-0.796300,-0.077891
34647,NaN,34.078710,-36.497087,-1.073616,-9.908826,-42.088077,15.168764,-1.778705,-1.122730,-6.180276,-0.850098,-0.518555,0.165771,0.329335,-0.375332,-0.005558,0.999467,-0.008892,-0.005613,-0.030896,0.591824,0.057052,-0.797360,-0.103468
34648,NaN,29.336717,-40.839806,-0.091051,-9.871399,-46.362420,6.955266,-1.281455,-0.542114,-4.461239,-0.829346,-0.555176,0.179199,0.284158,-0.414797,0.002512,0.999727,-0.006407,-0.002710,-0.022304,0.587601,0.070706,-0.796801,-0.121797
34649,NaN,19.852443,-39.737268,1.642163,-8.697447,-43.145565,-3.603622,-0.610472,-0.037434,-2.751186,-0.802734,-0.576660,0.175293,0.193031,-0.400001,0.017676,0.999901,-0.003052,-0.000187,-0.013755,0.586049,0.079344,-0.795526,-0.131870
34650,NaN,10.237695,-37.005985,2.890999,-7.020307,-37.745221,-12.744631,-1.117904,-0.034519,-1.085328,-0.791748,-0.589600,0.173584,0.100362,-0.370439,0.030997,0.999970,-0.005589,-0.000173,-0.005427,0.585663,0.080319,-0.794428,-0.139400
34651,NaN,5.888672,-34.004952,3.384215,-6.586258,-33.460568,-16.092289,-2.038635,-0.361327,0.378870,-0.793945,-0.585205,0.169189,0.059465,-0.339568,0.037412,0.999945,-0.010193,-0.001807,0.001894,0.585459,0.071761,-0.794242,-0.145832
34652,NaN,5.628564,-31.197249,4.421739,-8.096015,-30.421022,-15.596433,-2.198976,-0.572505,1.618567,-0.805176,-0.574463,0.179688,0.058672,-0.310992,0.047806,0.999903,-0.010995,-0.002862,0.008093,0.585141,0.058431,-0.794810,-0.149910
34653,NaN,5.742736,-24.339076,-4.472288,0.123749,-25.393168,-10.511208,-1.689899,-0.831869,2.576558,-0.809814,-0.561523,0.179443,0.060739,-0.242987,-0.042421,0.999873,-0.008449,-0.004159,0.012882,0.584407,0.041544,-0.796692,-0.148408
34654,NaN,6.473595,-39.133022,-30.312897,21.602035,-44.823202,-5.825969,-1.802845,-1.844461,4.503671,-0.837402,-0.514404,0.187012,0.076335,-0.392406,-0.298926,0.999663,-0.009013,-0.009221,0.022516,0.580625,0.016913,-0.801398,-0.142656
34655,NaN,93.548120,24.267147,-20.941983,-7.237744,3.559394,88.735516,-3.830065,-1.740270,5.795710,-0.862549,-0.471436,0.182129,0.929807,0.265704,-0.206254,0.999359,-0.019146,-0.008699,0.028972,0.577743,-0.020125,-0.803836,-0.140199
34656,NaN,68.335639,-36.029442,16.489906,-44.061476,-37.198931,44.143107,2.710753,1.192914,8.309398,-0.895996,-0.375000,0.193359,0.698539,-0.333632,0.156118,0.999027,0.013549,0.005963,0.041534,0.588115,-0.044872,-0.800651,-0.105190
34657,NaN,5.256363,-48.067855,-6.065867,-6.151585,-48.182927,-6.141186,-0.044842,-2.333527,9.904989,-0.922607,-0.289307,0.219727,0.076965,-0.477282,-0.059748,0.998706,-0.000224,-0.011663,0.049504,0.583285,-0.087229,-0.804133,-0.074434
34658,NaN,-28.000244,-17.645516,-2.460109,6.326437,-20.144399,-35.408351,0.553295,0.671240,7.243538,-0.935547,-0.231445,0.210205,-0.273453,-0.186372,-0.024182,0.999335,0.002766,0.003355,0.036210,0.588575,-0.114474,-0.798656,-0.051228
34659,NaN,-12.537451,-12.594082,3.483868,-2.963498,-13.330136,-21.702740,-0.664502,-1.119004,6.012039,-0.939453,-0.175781,0.224365,-0.121711,-0.129521,0.034577,0.999527,-0.003322,-0.005594,0.030055,0.584945,-0.142379,-0.797745,-0.034200
34660,NaN,-2.824435,-18.871610,-4.934188,0.254272,-19.641617,-8.234803,1.300540,-1.274048,5.656002,-0.950195,-0.119873,0.242676,-0.022580,-0.189081,-0.050727,0.999559,0.006502,-0.006369,0.028276,0.581541,-0.161337,-0.797276,-0.011448
34661,NaN,12.620388,-16.039808,1.664900,-9.216499,-11.363549,4.510926,2.105526,-0.592885,4.814833,-0.949707,-0.068604,0.244141,0.129972,-0.157465,0.015362,0.999650,0.010526,-0.002964,0.024071,0.580866,-0.176191,-0.794599,0.012828
34662,NaN,15.236391,-7.605630,-14.012970,7.105712,-4.731999,10.519224,2.326279,-0.379357,4.078318,-0.949219,-0.025635,0.254150,0.154117,-0.071291,-0.140686,0.999723,0.011630,-0.001897,0.020390,0.581025,-0.185617,-0.791692,0.034347
34663,NaN,19.668777,-11.339471,-6.466196,-1.690044,-4.501706,13.297146,1.987730,0.293780,3.376968,-0.948242,0.006592,0.247314,0.198461,-0.109402,-0.066053,0.999807,0.009938,0.001469,0.016884,0.583233,-0.195060,-0.786745,0.053130
34664,NaN,12.513808,-4.240020,-2.057280,-2.063104,0.642909,3.382667,1.677432,0.374792,3.217173,-0.947266,0.045166,0.248779,0.125757,-0.040205,-0.021151,0.999834,0.008387,0.001874,0.016085,0.585428,-0.202945,-0.781888,0.068838
34665,NaN,13.940560,-10.609685,-7.344457,1.300169,-4.704817,8.544627,1.371913,0.323359,2.774460,-0.946289,0.074951,0.241943,0.140735,-0.103642,-0.074388,0.999879,0.006859,0.001617,0.013872,0.586942,-0.211665,-0.777016,0.083324
34666,NaN,16.301388,-5.625862,-2.980662,-1.989600,1.767492,7.483836,0.887008,0.474581,2.445578,-0.947021,0.100830,0.233154,0.163613,-0.054126,-0.030438,0.999913,0.004435,0.002373,0.012228,0.588688,-0.218798,-0.772544,0.093541
34667,NaN,19.607172,-10.317232,-4.896904,-1.723635,-0.604948,12.803903,0.647127,0.448085,1.960274,-0.941162,0.120117,0.228516,0.196958,-0.101085,-0.049739,0.999944,0.003236,0.002240,0.009801,0.590040,-0.226443,-0.768147,0.102597
