// Start Time: Unknown
// Update Rate: 100.0Hz
// Filter Profile: human (46.1)
// Firmware Version: 4.4.0
PacketCounter,SampleTimeFine,Acc_X,Acc_Y,Acc_Z,FreeAcc_X,FreeAcc_Y,FreeAcc_Z,Gyr_X,Gyr_Y,Gyr_Z,Mag_X,Mag_Y,Mag_Z,VelInc_X,VelInc_Y,VelInc_Z,OriInc_q0,OriInc_q1,OriInc_q2,OriInc_q3,Quat_q0,Quat_q1,Quat_q2,Quat_q3
50091,NaN,-1.140354,5.264724,7.971611,-0.000954,-0.078879,-0.191980,0.224028,-0.284524,-0.010781,0.438721,-0.690674,-0.631348,-0.011514,0.052559,0.079759,0.999998,0.001120,-0.001423,-0.000054,0.921547,0.264305,0.133324,0.251233
50092,NaN,-1.185246,5.226119,7.807415,-0.092619,-0.088084,-0.343977,0.197982,-0.243978,-0.034061,0.436768,-0.695068,-0.629150,-0.011939,0.052186,0.078111,0.999999,0.000990,-0.001220,-0.000170,0.921490,0.265500,0.132494,0.250622
50093,NaN,-1.244177,5.478362,8.056659,-0.152140,-0.071961,0.007791,0.101836,-0.317857,-0.009530,0.434814,-0.697266,-0.631348,-0.012567,0.054743,0.080575,0.999999,0.000509,-0.001589,-0.000048,0.921335,0.266894,0.131390,0.250292
50094,NaN,-1.121871,5.822100,8.291301,-0.117460,0.125997,0.379042,0.031903,-0.381489,-0.003036,0.430420,-0.695068,-0.635498,-0.011376,0.058208,0.082901,0.999998,0.000160,-0.001907,-0.000015,0.921545,0.267516,0.129676,0.249748
50095,NaN,-0.805126,5.904716,8.548121,0.184192,0.220411,0.603726,-0.020033,-0.425141,0.006685,0.432617,-0.699463,-0.633545,-0.008235,0.059055,0.085458,0.999998,-0.000100,-0.002126,0.000033,0.921705,0.268270,0.127703,0.249367
50096,NaN,-0.699431,5.753844,8.761268,0.376679,0.057296,0.685429,-0.023995,-0.437218,0.012654,0.424072,-0.697266,-0.641846,-0.007189,0.057548,0.087590,0.999998,-0.000120,-0.002186,0.000063,0.921998,0.268712,0.125641,0.248854
50097,NaN,-0.711985,5.535507,8.837864,0.442504,-0.164299,0.629233,-0.059308,-0.377618,0.016288,0.426270,-0.697266,-0.639893,-0.007291,0.055381,0.088349,0.999998,-0.000297,-0.001888,0.000081,0.922232,0.269229,0.123572,0.248462
50098,NaN,-0.683739,5.420289,8.479454,0.351505,-0.087157,0.267836,-0.073102,-0.317098,0.005262,0.421875,-0.699219,-0.648193,-0.006973,0.054234,0.084764,0.999999,-0.000366,-0.001585,0.000026,0.922519,0.269289,0.122011,0.248104
50099,NaN,-0.740846,5.206937,8.247022,0.274194,-0.176848,-0.036802,-0.052367,-0.225429,-0.018832,0.421875,-0.692871,-0.646240,-0.007496,0.052092,0.082448,0.999999,-0.000262,-0.001127,-0.000094,0.922783,0.269209,0.120654,0.247871
50100,NaN,-0.879833,4.955465,8.145524,0.203013,-0.392111,-0.247891,-0.049771,-0.157734,-0.009284,0.419678,-0.692871,-0.644043,-0.008860,0.049575,0.081436,1.000000,-0.000249,-0.000789,-0.000046,0.922957,0.269169,0.119877,0.247646
50101,NaN,-1.126221,5.027595,8.012975,-0.100292,-0.397537,-0.295085,-0.111416,-0.063309,0.032036,0.419922,-0.697266,-0.648193,-0.011296,0.050319,0.080098,1.000000,-0.000557,-0.000317,0.000160,0.923164,0.268090,0.119346,0.248298
50102,NaN,-1.608041,4.710666,8.028832,-0.391844,-0.883373,-0.415645,-0.141873,-0.065339,0.119364,0.421875,-0.692871,-0.650391,-0.016135,0.047154,0.080250,1.000000,-0.000709,-0.000327,0.000597,0.923245,0.267587,0.118709,0.248846
50103,NaN,-1.507921,4.815382,7.853149,-0.427524,-0.652858,-0.510825,-0.149569,-0.067870,0.208468,0.411133,-0.695068,-0.648193,-0.015156,0.048197,0.078490,0.999999,-0.000748,-0.000339,0.001042,0.923058,0.265660,0.118677,0.251602
50104,NaN,-1.121760,4.916600,7.418597,-0.312031,-0.187121,-0.849736,-0.120201,0.040756,0.314336,0.409180,-0.697266,-0.648193,-0.011280,0.049193,0.074159,0.999999,-0.000601,0.000204,0.001572,0.922797,0.265240,0.118296,0.253178
50105,NaN,-1.418731,4.937270,7.098320,-0.693292,-0.181531,-1.079879,0.028689,0.061890,0.417605,0.407227,-0.703613,-0.645996,-0.014268,0.049333,0.070995,0.999998,0.000143,0.000309,0.002088,0.921707,0.263996,0.119318,0.257925
50106,NaN,-1.295327,4.971622,6.939903,-0.666214,-0.045682,-1.203905,0.206270,0.128800,0.544385,0.413818,-0.705811,-0.643799,-0.013044,0.049609,0.069459,0.999996,0.001031,0.000644,0.002722,0.920652,0.265104,0.119459,0.260479
50107,NaN,-1.362288,4.906095,7.122982,-0.619439,-0.229311,-1.081936,0.372403,0.150718,0.656471,0.405273,-0.709961,-0.637451,-0.013730,0.048883,0.071331,0.999993,0.001862,0.000754,0.003282,0.918643,0.265688,0.121285,0.266073
50108,NaN,-1.704047,4.780661,7.660689,-0.646928,-0.791460,-0.680362,0.530053,0.078722,0.714402,0.397217,-0.718506,-0.639404,-0.017180,0.047542,0.076740,0.999990,0.002650,0.000394,0.003572,0.916932,0.268449,0.121401,0.269135
50109,NaN,-1.605863,4.421574,8.348576,-0.129806,-1.319964,-0.322252,0.460676,0.042143,0.748424,0.393311,-0.731445,-0.630859,-0.016206,0.043963,0.083591,0.999990,0.002303,0.000211,0.003742,0.914546,0.269219,0.123282,0.275550
50110,NaN,-1.421919,4.175167,8.308035,0.114405,-1.424178,-0.515604,0.278666,0.038046,0.744507,0.384766,-0.729248,-0.630859,-0.014358,0.041583,0.083141,0.999992,0.001393,0.000190,0.003723,0.913115,0.270898,0.122837,0.278832
50111,NaN,-1.055678,3.745796,8.330146,0.634339,-1.503464,-0.764269,0.163410,0.027605,0.770402,0.378662,-0.738037,-0.626709,-0.010689,0.037349,0.083333,0.999992,0.000817,0.000138,0.003852,0.910562,0.268896,0.125204,0.287916
50112,NaN,-0.554991,3.455599,8.611258,1.266937,-1.554006,-0.736189,0.113178,0.056858,0.805672,0.374512,-0.739990,-0.624512,-0.005664,0.034485,0.086134,0.999992,0.000566,0.000284,0.004028,0.909207,0.269832,0.124542,0.291587
50113,NaN,-0.061590,3.384260,8.885021,1.812909,-1.340326,-0.575942,0.035921,0.132497,0.854760,0.370605,-0.752930,-0.624268,-0.000702,0.033824,0.088857,0.999991,0.000180,0.000662,0.004274,0.906142,0.265799,0.127545,0.303296
50114,NaN,0.128715,4.038871,8.823800,1.606198,-0.761497,-0.271791,-0.155509,0.245431,0.908208,0.366455,-0.755127,-0.628418,0.001212,0.040463,0.088205,0.999989,-0.000778,0.001227,0.004541,0.904805,0.265299,0.127213,0.307833
50115,NaN,0.098114,4.959366,9.016529,1.163802,-0.128907,0.411377,-0.404113,0.318370,0.948634,0.353760,-0.757080,-0.634766,0.000889,0.049780,0.090063,0.999985,-0.002021,0.001592,0.004743,0.901647,0.258660,0.129813,0.321365
50116,NaN,0.281708,5.335092,9.381084,1.202748,0.131721,0.914978,-0.706468,0.333074,0.975393,0.349365,-0.755127,-0.643311,0.002712,0.053695,0.093617,0.999980,-0.003532,0.001665,0.004877,0.900760,0.255568,0.128915,0.326645
50117,NaN,0.795872,5.250039,9.316907,1.497368,0.577288,0.790361,-0.967536,0.373413,0.961465,0.347168,-0.750732,-0.649658,0.007878,0.052988,0.092899,0.999975,-0.004838,0.001867,0.004807,0.899301,0.247321,0.128869,0.336871
50118,NaN,1.095463,5.238965,9.535850,1.720666,0.777214,0.958241,-1.159132,0.449200,0.953274,0.336426,-0.750732,-0.660156,0.010917,0.052993,0.095028,0.999969,-0.005796,0.002246,0.004766,0.898812,0.241959,0.127754,0.342449
50119,NaN,1.018044,4.792801,8.798913,1.493206,0.835184,0.112011,-1.171909,0.585051,0.899657,0.330078,-0.752930,-0.662354,0.010220,0.048488,0.087676,0.999968,-0.005859,0.002925,0.004498,0.897737,0.233680,0.127262,0.351093
50120,NaN,0.469155,4.751132,8.440511,0.912991,0.642782,-0.180037,-1.003063,0.725439,0.768475,0.332031,-0.744141,-0.668701,0.004813,0.047952,0.084148,0.999973,-0.005015,0.003627,0.003842,0.897075,0.228387,0.127856,0.356019
50121,NaN,-0.394619,5.022862,8.021831,-0.119079,0.454010,-0.351509,-0.779235,0.671216,0.645801,0.331787,-0.744141,-0.672852,-0.003840,0.050528,0.080035,0.999982,-0.003896,0.003356,0.003229,0.894948,0.221144,0.128430,0.365607
50122,NaN,-1.090564,5.514193,7.608952,-1.094239,0.446475,-0.426799,-0.604060,0.495434,0.586304,0.334229,-0.748535,-0.675049,-0.010879,0.055340,0.075950,0.999988,-0.003020,0.002477,0.002932,0.894216,0.217909,0.128893,0.369162
50123,NaN,-1.713497,6.043230,7.660838,-1.894878,0.340067,-0.094725,-0.468689,0.258520,0.538029,0.327637,-0.741943,-0.677002,-0.017199,0.060565,0.076489,0.999993,-0.002343,0.001293,0.002690,0.892366,0.214061,0.128124,0.376092
50124,NaN,-1.798041,6.303387,7.773371,-2.104680,0.413019,0.126656,-0.298298,0.004028,0.470981,0.325439,-0.741943,-0.681396,-0.018127,0.063107,0.077640,0.999996,-0.001491,0.000020,0.002355,0.891794,0.213023,0.127076,0.378387
50125,NaN,-1.669146,6.187630,8.192017,-1.825566,0.290065,0.422790,-0.018809,-0.173722,0.394211,0.319092,-0.744141,-0.687744,-0.016885,0.061851,0.081900,0.999998,-0.000094,-0.000869,0.001971,0.890593,0.213157,0.125682,0.381590
50126,NaN,-1.175384,6.108875,8.384648,-1.384224,0.508893,0.523025,0.247153,-0.283520,0.306444,0.317139,-0.752686,-0.681152,-0.011966,0.060967,0.083905,0.999997,0.001236,-0.001418,0.001532,0.889921,0.214991,0.124564,0.382497
50127,NaN,-0.962829,5.889064,8.438049,-1.088813,0.453087,0.454627,0.342249,-0.293096,0.250248,0.314941,-0.748535,-0.685547,-0.009826,0.058734,0.084467,0.999997,0.001711,-0.001465,0.001251,0.888809,0.217429,0.123650,0.383997
50128,NaN,-0.910007,5.369144,8.521318,-0.695412,0.097922,0.275686,0.322447,-0.315528,0.236963,0.304443,-0.752686,-0.685303,-0.009298,0.053543,0.085285,0.999997,0.001612,-0.001578,0.001185,0.888196,0.219613,0.122608,0.384507
50129,NaN,-0.703713,4.461260,8.788183,0.117843,-0.443884,0.057424,0.223885,-0.321317,0.275128,0.300293,-0.757080,-0.685303,-0.007240,0.044504,0.087920,0.999997,0.001119,-0.001607,0.001376,0.887734,0.222283,0.121159,0.384499
50130,NaN,-0.704916,4.015061,9.130386,0.513275,-0.858377,0.136240,0.064005,-0.291339,0.353497,0.300293,-0.754883,-0.687500,-0.007253,0.040109,0.091306,0.999997,0.000320,-0.001457,0.001767,0.887157,0.223341,0.119595,0.385705
50131,NaN,-0.563989,4.587527,9.190311,0.239852,-0.457663,0.461459,-0.253002,-0.286962,0.475862,0.293945,-0.752686,-0.693848,-0.005881,0.045978,0.091837,0.999995,-0.001265,-0.001435,0.002379,0.886358,0.223214,0.117630,0.388212
50132,NaN,-0.294919,4.617061,8.724176,0.159797,-0.107782,0.060399,-0.601013,-0.265073,0.597625,0.287354,-0.752686,-0.700195,-0.003203,0.046423,0.087098,0.999990,-0.003005,-0.001325,0.002988,0.886016,0.221415,0.114620,0.390915
50133,NaN,0.138374,4.857869,8.587573,0.157848,0.410651,0.044799,-0.884588,-0.242821,0.643338,0.278809,-0.750488,-0.704346,0.001123,0.048962,0.085661,0.999984,-0.004423,-0.001214,0.003217,0.885552,0.218304,0.111449,0.394614
50134,NaN,0.680479,5.201737,8.379365,0.110274,1.106868,0.010572,-1.034208,-0.240967,0.622454,0.272461,-0.748291,-0.717041,0.006541,0.052470,0.083531,0.999981,-0.005171,-0.001205,0.003112,0.885570,0.214543,0.107660,0.397677
50135,NaN,1.013883,5.755633,7.896373,-0.315204,1.843828,-0.168621,-0.867387,-0.297550,0.569210,0.267822,-0.737549,-0.725586,0.009857,0.057926,0.078728,0.999985,-0.004337,-0.001488,0.002846,0.885306,0.211876,0.104087,0.400634
50136,NaN,1.169819,5.787307,7.641100,-0.414493,2.054974,-0.386523,-0.488006,-0.413122,0.519903,0.259277,-0.739746,-0.725586,0.011390,0.058089,0.076293,0.999992,-0.002440,-0.002066,0.002600,0.884989,0.210812,0.100729,0.402749
50137,NaN,1.119320,5.173478,7.967243,0.015805,1.519415,-0.368882,-0.232076,-0.501712,0.479723,0.248779,-0.739746,-0.729736,0.010869,0.051854,0.079640,0.999993,-0.001160,-0.002509,0.002399,0.884829,0.212098,0.097022,0.403334
50138,NaN,0.619009,4.661588,8.518734,0.160862,0.642644,-0.104798,-0.189785,-0.542094,0.476891,0.244629,-0.743896,-0.731689,0.005848,0.046711,0.085159,0.999993,-0.000949,-0.002710,0.002384,0.884326,0.212582,0.093734,0.404959
50139,NaN,0.080080,4.363491,8.889542,0.074049,-0.112306,0.089424,-0.258273,-0.582809,0.513130,0.238037,-0.737549,-0.733887,0.000430,0.043751,0.088841,0.999992,-0.001291,-0.002914,0.002566,0.884221,0.214115,0.089395,0.405360
50140,NaN,-0.194077,4.374867,9.023867,-0.141745,-0.392734,0.208907,-0.339332,-0.600472,0.593075,0.223145,-0.741943,-0.744385,-0.002342,0.043895,0.090158,0.999990,-0.001697,-0.003002,0.002965,0.883641,0.214095,0.085416,0.407487
50141,NaN,-0.026687,4.211206,8.992591,-0.010521,-0.403062,0.108926,-0.429389,-0.571616,0.671635,0.220947,-0.735352,-0.746582,-0.000666,0.042303,0.089834,0.999988,-0.002147,-0.002858,0.003358,0.883508,0.214591,0.080681,0.408478
50142,NaN,0.072948,4.219754,8.819365,-0.092989,-0.296279,-0.040497,-0.531855,-0.507202,0.729670,0.208008,-0.733154,-0.752930,0.000351,0.042434,0.088082,0.999987,-0.002659,-0.002536,0.003648,0.882781,0.213569,0.076570,0.411367
50143,NaN,0.121987,3.940356,8.475871,-0.061273,-0.338781,-0.471249,-0.629626,-0.438827,0.744113,0.197266,-0.729004,-0.757080,0.000887,0.039674,0.084636,0.999986,-0.003148,-0.002194,0.003721,0.882452,0.212622,0.072153,0.413358
50144,NaN,0.423292,3.771498,8.235115,0.090461,-0.138819,-0.746686,-0.676575,-0.412936,0.745121,0.194824,-0.722412,-0.763428,0.003922,0.038008,0.082231,0.999985,-0.003383,-0.002065,0.003726,0.881767,0.210756,0.068139,0.416445
50145,NaN,0.665763,3.768362,7.933436,0.074794,0.124027,-1.005780,-0.639574,-0.422998,0.743233,0.177979,-0.724609,-0.767578,0.006349,0.037961,0.079227,0.999986,-0.003198,-0.002115,0.003716,0.881053,0.209516,0.064016,0.419226
50146,NaN,0.979922,3.982666,7.921437,0.034736,0.477285,-0.905308,-0.588637,-0.443908,0.737395,0.167236,-0.720215,-0.778076,0.009476,0.040095,0.079118,0.999986,-0.002943,-0.002220,0.003687,0.880254,0.208087,0.060052,0.422193
50147,NaN,1.309718,4.162714,8.032055,0.061933,0.776392,-0.704990,-0.624794,-0.419870,0.743627,0.160889,-0.724609,-0.778076,0.012773,0.041926,0.080217,0.999986,-0.003124,-0.002099,0.003718,0.879729,0.206910,0.055829,0.424438
50148,NaN,1.394692,4.140779,8.311888,0.115103,0.735428,-0.451928,-0.715598,-0.372829,0.743029,0.156250,-0.713867,-0.788818,0.013637,0.041756,0.082996,0.999985,-0.003578,-0.001864,0.003715,0.878983,0.204758,0.051901,0.427515
50149,NaN,1.420602,4.022666,8.724464,0.232404,0.551453,-0.119530,-0.761012,-0.323451,0.729186,0.143799,-0.718018,-0.794922,0.013917,0.040609,0.087113,0.999985,-0.003805,-0.001617,0.003646,0.878661,0.202850,0.047700,0.429571
50150,NaN,1.488923,4.242970,9.301706,0.162789,0.551205,0.502848,-0.742470,-0.261653,0.700694,0.136963,-0.707275,-0.803467,0.014618,0.042826,0.092878,0.999986,-0.003712,-0.001308,0.003503,0.877959,0.200314,0.044244,0.432555
50151,NaN,1.479288,4.363737,10.024950,0.154267,0.382603,1.212701,-0.677153,-0.155981,0.677379,0.130615,-0.707275,-0.805664,0.014566,0.044026,0.100112,0.999988,-0.003386,-0.000780,0.003387,0.877625,0.198404,0.040941,0.434436
50152,NaN,1.259561,4.349110,10.714726,0.115125,0.008334,1.818856,-0.568173,-0.004619,0.561460,0.124023,-0.705078,-0.812012,0.012470,0.043830,0.107023,0.999992,-0.002841,-0.000023,0.002807,0.876963,0.196034,0.039129,0.437008
50153,NaN,1.834285,3.860656,10.551049,0.738244,0.261423,1.544260,-0.452802,0.164091,0.402667,0.125977,-0.700928,-0.814209,0.018351,0.038882,0.105408,0.999995,-0.002264,0.000820,0.002013,0.876893,0.194285,0.038013,0.438027
50154,NaN,2.740607,4.176394,10.234529,0.947699,1.283732,1.463501,-0.346935,0.372117,0.272319,0.125977,-0.696533,-0.816162,0.027539,0.041979,0.102221,0.999996,-0.001735,0.001861,0.001362,0.876559,0.192000,0.038620,0.439646
50155,NaN,1.552619,4.599781,9.966328,-0.171468,0.709696,1.249083,-0.340501,0.665224,0.164314,0.134277,-0.690186,-0.816406,0.015820,0.046180,0.099532,0.999993,-0.001703,0.003326,0.000822,0.876868,0.189619,0.040007,0.439938
50156,NaN,-0.162959,4.736790,9.358893,-1.456908,-0.314971,0.571456,-0.289427,0.706543,0.094115,0.132324,-0.694336,-0.818359,-0.001321,0.047503,0.093525,0.999993,-0.001447,0.003533,0.000471,0.876788,0.186814,0.042378,0.441076
50157,NaN,-0.794210,4.581068,8.559801,-1.904302,-0.619413,-0.279746,-0.208547,0.475343,0.145801,0.136230,-0.685791,-0.822754,-0.007772,0.045894,0.085569,0.999996,-0.001043,0.002377,0.000729,0.876986,0.185428,0.043405,0.441167
50158,NaN,-1.373299,4.419223,8.206496,-2.216926,-1.036987,-0.714779,-0.183285,0.234409,0.234065,0.129883,-0.687988,-0.822754,-0.013689,0.044251,0.082040,0.999998,-0.000916,0.001172,0.001170,0.876587,0.184158,0.043811,0.442450
50159,NaN,-1.646313,4.226755,8.654626,-2.140747,-1.477409,-0.393942,-0.307685,0.015667,0.309459,0.134277,-0.687988,-0.824707,-0.016522,0.042375,0.086482,0.999998,-0.001538,0.000078,0.001547,0.876402,0.183277,0.042891,0.443271
50160,NaN,-1.701834,4.127282,9.010349,-2.050345,-1.669343,-0.110818,-0.473223,-0.076802,0.388526,0.131836,-0.681641,-0.829102,-0.017133,0.041453,0.089999,0.999995,-0.002366,-0.000384,0.001943,0.875987,0.181456,0.041149,0.445003
50161,NaN,-1.895232,3.921319,9.248045,-1.995437,-1.994412,0.012547,-0.575869,-0.128132,0.484575,0.121094,-0.677246,-0.829102,-0.019107,0.039433,0.092355,0.999993,-0.002879,-0.000641,0.002423,0.875410,0.179549,0.039317,0.447073
50162,NaN,-1.758837,3.718113,9.406454,-1.782885,-2.036901,0.090406,-0.578640,-0.218396,0.563291,0.118896,-0.675049,-0.835449,-0.017796,0.037403,0.093937,0.999991,-0.002893,-0.001092,0.002816,0.874705,0.177614,0.036561,0.449453
50163,NaN,-1.301545,3.534775,9.695951,-1.355104,-1.851345,0.333047,-0.535166,-0.294949,0.596946,0.112549,-0.677246,-0.839600,-0.013264,0.035568,0.096845,0.999991,-0.002676,-0.001475,0.002985,0.873572,0.176050,0.034410,0.452432
50164,NaN,-0.988694,3.726748,9.945412,-1.336372,-1.580968,0.651135,-0.500850,-0.356107,0.575242,0.101562,-0.668701,-0.841797,-0.010171,0.037487,0.099342,0.999991,-0.002504,-0.001781,0.002876,0.872765,0.174765,0.031215,0.454714
50165,NaN,-1.400681,4.216859,9.848317,-2.032122,-1.638317,0.671544,-0.482571,-0.332507,0.526740,0.095215,-0.670654,-0.843750,-0.014282,0.042369,0.098358,0.999992,-0.002413,-0.001663,0.002634,0.871536,0.173346,0.029334,0.457730
50166,NaN,-2.086098,4.775225,9.846345,-2.936922,-1.922390,0.760085,-0.414162,-0.403416,0.475940,0.091064,-0.668701,-0.845947,-0.021173,0.047906,0.098322,0.999993,-0.002071,-0.002017,0.002380,0.870858,0.172533,0.026215,0.459512
50167,NaN,-2.694359,5.150711,10.048421,-3.582759,-2.305982,0.985731,-0.359852,-0.525900,0.454458,0.082275,-0.660156,-0.850098,-0.027325,0.051626,0.100320,0.999992,-0.001799,-0.002629,0.002272,0.869518,0.172011,0.024159,0.462348
50168,NaN,-2.556965,5.129201,10.242843,-3.519686,-2.304886,1.144554,-0.326312,-0.630285,0.447255,0.078125,-0.664307,-0.856445,-0.026007,0.051401,0.102263,0.999991,-0.001632,-0.003151,0.002236,0.868833,0.172103,0.020280,0.463787
50169,NaN,-1.562481,5.083123,10.952074,-2.817222,-1.761522,1.899995,-0.288808,-0.629060,0.430483,0.069824,-0.670654,-0.860596,-0.016079,0.050955,0.109397,0.999992,-0.001444,-0.003145,0.002152,0.867266,0.172070,0.018394,0.466802
50170,NaN,-0.109470,5.189629,12.706423,-1.823027,-1.074462,3.748975,-0.206792,-0.588220,0.435213,0.063232,-0.662109,-0.856445,-0.001581,0.052025,0.127006,0.999993,-0.001034,-0.002941,0.002176,0.866475,0.172585,0.014985,0.468199
50171,NaN,1.227230,4.821190,13.733095,-0.618673,-0.496220,4.772171,-0.176412,-0.527781,0.428640,0.056641,-0.659912,-0.858643,0.011806,0.048359,0.137320,0.999994,-0.000882,-0.002639,0.002143,0.864720,0.172820,0.013958,0.471379
50172,NaN,1.317014,4.445864,13.319960,-0.418795,-0.537724,4.274769,-0.300391,-0.388180,0.424356,0.054688,-0.659912,-0.860596,0.012817,0.044686,0.133158,0.999995,-0.001502,-0.001941,0.002122,0.864001,0.172465,0.011204,0.472897
50173,NaN,0.522149,4.886628,12.423543,-1.418252,-0.729884,3.451983,-0.302723,-0.426863,0.331330,0.050049,-0.649170,-0.860840,0.004875,0.049063,0.124172,0.999995,-0.001514,-0.002134,0.001657,0.862610,0.171948,0.010277,0.475639
50174,NaN,-0.315990,5.929149,12.265549,-2.822983,-0.916347,3.487266,-0.088972,-0.667856,0.123713,0.043701,-0.651367,-0.860596,-0.003606,0.059344,0.122618,0.999994,-0.000445,-0.003339,0.000619,0.862422,0.173158,0.007079,0.475600
50175,NaN,-0.713975,5.893793,13.262605,-2.856693,-1.626956,4.341253,0.020698,-1.027781,-0.004773,0.033203,-0.657959,-0.860596,-0.007820,0.058924,0.132593,0.999987,0.000103,-0.005139,-0.000024,0.861570,0.175514,0.004678,0.476308
50176,NaN,0.021932,5.114334,13.925284,-1.785383,-1.719691,4.813425,-0.046886,-1.213374,-0.025367,0.031250,-0.657715,-0.864746,-0.000619,0.051176,0.139239,0.999982,-0.000234,-0.006067,-0.000127,0.861684,0.178198,-0.000639,0.475127
50177,NaN,0.149572,5.128584,13.578148,-1.837976,-1.607471,4.495583,-0.142455,-1.161646,0.016574,0.024414,-0.649170,-0.860596,0.000703,0.051383,0.135751,0.999983,-0.000712,-0.005808,0.000083,0.860836,0.180162,-0.003876,0.475907
50178,NaN,-0.466737,4.987423,12.104918,-2.397946,-1.828260,2.935919,-0.111413,-1.121443,0.051770,0.018066,-0.642822,-0.860596,-0.005359,0.049940,0.120993,0.999984,-0.000557,-0.005607,0.000259,0.860778,0.182347,-0.009015,0.475110
50179,NaN,-0.758829,4.677059,11.234359,-2.478058,-2.028567,1.951839,0.003931,-1.204692,0.047281,0.007324,-0.642822,-0.856445,-0.008276,0.046766,0.112296,0.999982,0.000020,-0.006023,0.000236,0.859610,0.185026,-0.011990,0.476122
50180,NaN,-0.738378,4.141189,10.493861,-2.216348,-2.142570,1.064399,0.104233,-1.418817,0.082748,0.005127,-0.636475,-0.847900,-0.008145,0.041354,0.104904,0.999975,0.000521,-0.007094,0.000414,0.859210,0.188842,-0.017916,0.475159
50181,NaN,-0.235382,3.090225,9.497685,-1.255336,-2.018197,-0.109101,0.205738,-1.695547,0.164646,-0.007568,-0.638672,-0.845703,-0.003184,0.030802,0.094984,0.999963,0.001029,-0.008478,0.000823,0.857144,0.193545,-0.022373,0.476805
50182,NaN,0.528275,2.266348,8.797496,-0.332664,-1.693190,-0.877858,0.336739,-1.901421,0.285140,-0.031006,-0.638672,-0.835205,0.004414,0.022522,0.088058,0.999952,0.001684,-0.009507,0.001426,0.855885,0.199480,-0.029994,0.476203
50183,NaN,1.576702,1.861315,8.262510,0.463294,-0.984328,-1.266742,0.462468,-2.048266,0.421732,-0.047852,-0.640869,-0.833008,0.014880,0.018454,0.082823,0.999943,0.002312,-0.010241,0.002109,0.852825,0.206026,-0.035611,0.478513
50184,NaN,2.943499,2.040426,8.179574,0.975073,0.043741,-0.937054,0.552173,-2.125770,0.594484,-0.062744,-0.638672,-0.824463,0.028503,0.020263,0.082158,0.999935,0.002761,-0.010629,0.002972,0.850400,0.213348,-0.043964,0.478926
50185,NaN,4.264199,2.454641,8.398463,1.315158,1.021864,-0.222862,0.657200,-2.119612,0.780361,-0.081543,-0.643066,-0.818115,0.041653,0.024433,0.084510,0.999931,0.003286,-0.010598,0.003902,0.846250,0.220791,-0.050012,0.482298
50186,NaN,5.177778,2.791823,8.737432,1.483843,1.535062,0.501542,0.723328,-2.045044,0.935751,-0.100586,-0.645020,-0.809570,0.050750,0.027840,0.087998,0.999930,0.003617,-0.010225,0.004679,0.842624,0.228534,-0.057949,0.484147
50187,NaN,5.329735,2.731565,9.006424,1.582682,1.315310,0.805380,0.754754,-1.980805,1.036839,-0.123779,-0.651611,-0.798828,0.052260,0.027247,0.090688,0.999930,0.003774,-0.009904,0.005184,0.837721,0.236036,-0.063711,0.488314
50188,NaN,5.236058,2.542557,8.963115,1.610285,0.962398,0.708463,0.750321,-1.919264,1.069233,-0.142822,-0.653809,-0.790283,0.051361,0.025364,0.090222,0.999933,0.003752,-0.009596,0.005346,0.833557,0.243508,-0.071174,0.490734
50189,NaN,5.242377,2.485804,8.804570,1.580500,0.830639,0.579147,0.701511,-1.838863,1.050150,-0.166016,-0.656006,-0.781738,0.051480,0.024820,0.088609,0.999938,0.003507,-0.009194,0.005251,0.828798,0.250476,-0.076882,0.494414
50190,NaN,5.200409,2.814943,8.862600,1.207725,0.692875,0.750040,0.613194,-1.795606,1.002079,-0.181152,-0.649414,-0.770996,0.051064,0.028134,0.089174,0.999942,0.003066,-0.008978,0.005010,0.824815,0.257056,-0.084057,0.496526
50191,NaN,5.190888,3.028497,8.664516,0.933244,0.675371,0.668726,0.553841,-1.797646,0.942478,-0.199951,-0.658203,-0.760254,0.050984,0.030286,0.087190,0.999945,0.002769,-0.008988,0.004712,0.822042,0.263044,-0.090928,0.496777
50192,NaN,5.013375,3.122055,8.167706,0.631931,0.637305,0.226410,0.522085,-1.836029,0.895400,-0.221436,-0.649658,-0.751953,0.049241,0.031228,0.082213,0.999944,0.002610,-0.009180,0.004477,0.818251,0.269328,-0.098349,0.498252
50193,NaN,5.104808,3.136421,7.758883,0.557684,0.746176,-0.054356,0.529507,-1.916349,0.834277,-0.238281,-0.649658,-0.737061,0.050170,0.031368,0.078155,0.999942,0.002647,-0.009582,0.004171,0.815446,0.275558,-0.105742,0.497930
50194,NaN,5.214319,3.114061,7.386727,0.518091,0.833528,-0.300408,0.490142,-1.980955,0.776967,-0.252930,-0.656006,-0.730469,0.051287,0.031159,0.074454,0.999940,0.002451,-0.009905,0.003885,0.811741,0.282061,-0.113661,0.498598
50195,NaN,5.343704,3.145618,7.103499,0.461996,0.916926,-0.439743,0.418529,-2.005603,0.735358,-0.271973,-0.654053,-0.722168,0.052605,0.031501,0.071631,0.999941,0.002093,-0.010028,0.003677,0.809121,0.288057,-0.121702,0.497529
50196,NaN,5.730472,3.211026,6.842207,0.487821,1.188674,-0.415327,0.367026,-2.010211,0.708266,-0.293213,-0.654053,-0.709229,0.056499,0.032185,0.069052,0.999942,0.001835,-0.010051,0.003541,0.805560,0.294095,-0.129933,0.497693
50197,NaN,6.097037,3.214874,6.637555,0.572719,1.395202,-0.363440,0.345194,-2.007889,0.700095,-0.310303,-0.647461,-0.702881,0.060187,0.032245,0.067038,0.999942,0.001726,-0.010039,0.003500,0.802831,0.299796,-0.138172,0.496482
50198,NaN,6.457067,3.012442,6.612765,0.837190,1.414589,-0.231890,0.327411,-1.983476,0.689178,-0.327393,-0.647705,-0.687988,0.063806,0.030236,0.066812,0.999944,0.001637,-0.009917,0.003446,0.799214,0.305540,-0.146345,0.496473
50199,NaN,6.704599,2.849867,6.504196,1.018055,1.421409,-0.204475,0.289769,-1.930488,0.668051,-0.346436,-0.649658,-0.681641,0.066318,0.028626,0.065726,0.999947,0.001449,-0.009652,0.003340,0.796514,0.310797,-0.154491,0.495080
50200,NaN,6.804621,2.708542,6.549976,1.110673,1.238566,-0.129174,0.236680,-1.867034,0.647396,-0.361328,-0.645508,-0.668945,0.067343,0.027226,0.066163,0.999950,0.001183,-0.009335,0.003237,0.793062,0.315846,-0.162338,0.494915
50201,NaN,6.722436,2.742921,6.569438,0.966890,1.008929,-0.121635,0.178746,-1.807159,0.655168,-0.374023,-0.643311,-0.668945,0.066537,0.027589,0.066322,0.999953,0.000894,-0.009036,0.003276,0.790071,0.320444,-0.170100,0.494136
50202,NaN,6.572489,2.764196,6.565616,0.793888,0.753342,-0.182262,0.141651,-1.767986,0.681041,-0.391357,-0.634766,-0.656250,0.065046,0.027817,0.066253,0.999955,0.000708,-0.008840,0.003405,0.786622,0.324778,-0.177816,0.494092
50203,NaN,6.322800,2.809347,6.504485,0.556603,0.482643,-0.345211,0.117092,-1.746749,0.723636,-0.408203,-0.636963,-0.643555,0.062555,0.028282,0.065610,0.999955,0.000585,-0.008734,0.003618,0.784302,0.328533,-0.186232,0.492194
50204,NaN,6.185824,2.858049,6.473836,0.359447,0.273770,-0.424584,0.121410,-1.781838,0.762662,-0.420898,-0.634766,-0.639160,0.061169,0.028775,0.065303,0.999953,0.000607,-0.008909,0.003813,0.780530,0.332668,-0.194163,0.492348
50205,NaN,6.200398,2.863077,6.314294,0.267288,0.238558,-0.518537,0.144332,-1.822608,0.796107,-0.440186,-0.628418,-0.626465,0.061311,0.028830,0.063725,0.999950,0.000722,-0.009113,0.003980,0.777008,0.336835,-0.202456,0.491744
50206,NaN,6.371436,2.887602,6.110460,0.221187,0.339408,-0.533460,0.158159,-1.853511,0.818383,-0.450928,-0.622070,-0.622314,0.063026,0.029086,0.061714,0.999948,0.000791,-0.009267,0.004092,0.772813,0.341161,-0.210635,0.491937
50207,NaN,6.551543,2.840070,6.026287,0.247166,0.332583,-0.478341,0.167669,-1.890313,0.829270,-0.474121,-0.624268,-0.607422,0.064823,0.028620,0.060902,0.999946,0.000838,-0.009451,0.004146,0.769292,0.345294,-0.219436,0.490723
50208,NaN,6.881929,2.800912,5.833632,0.321776,0.498238,-0.384945,0.132543,-1.890349,0.847212,-0.482666,-0.624268,-0.603027,0.068144,0.028260,0.059001,0.999946,0.000663,-0.009452,0.004236,0.764870,0.349494,-0.227831,0.490838
50209,NaN,7.097167,2.679292,5.717754,0.421538,0.511533,-0.336481,0.089469,-1.890373,0.854068,-0.497803,-0.615723,-0.590332,0.070312,0.027068,0.057856,0.999946,0.000447,-0.009452,0.004270,0.761014,0.353298,-0.236700,0.489910
50210,NaN,7.273267,2.589251,5.567864,0.470798,0.541869,-0.321251,0.043966,-1.834396,0.863380,-0.517090,-0.607178,-0.577637,0.072105,0.026192,0.056348,0.999949,0.000220,-0.009172,0.004317,0.756612,0.356919,-0.245084,0.489982
50211,NaN,7.204955,2.335026,5.337378,0.577367,0.458996,-0.576642,-0.020093,-1.762350,0.857626,-0.531982,-0.603027,-0.567139,0.071475,0.023663,0.054003,0.999952,-0.000100,-0.008812,0.004288,0.753172,0.359761,-0.253917,0.488703
50212,NaN,7.266128,2.354729,5.257700,0.477818,0.416756,-0.561737,-0.092601,-1.736814,0.857230,-0.542725,-0.594482,-0.560791,0.072099,0.023882,0.053194,0.999953,-0.000463,-0.008684,0.004286,0.749003,0.362551,-0.262213,0.488667
50213,NaN,6.818877,1.652960,5.136931,0.849275,-0.051047,-1.158719,-0.191345,-1.723376,0.873800,-0.562012,-0.590088,-0.548096,0.067670,0.016876,0.051938,0.999953,-0.000957,-0.008617,0.004369,0.745599,0.364590,-0.271247,0.487423
50214,NaN,6.682512,1.566002,5.136394,0.771892,-0.279347,-1.279546,-0.145371,-1.852847,0.814583,-0.576904,-0.590088,-0.539551,0.066281,0.015968,0.051968,0.999949,-0.000727,-0.009264,0.004073,0.741328,0.367440,-0.279978,0.486860
50215,NaN,6.770505,1.631073,4.893041,0.655432,-0.163464,-1.328408,-0.088425,-1.947145,0.791148,-0.589844,-0.579590,-0.531250,0.067159,0.016599,0.049579,0.999945,-0.000442,-0.009736,0.003956,0.736822,0.370764,-0.288927,0.485952
50216,NaN,6.570318,1.478724,4.867110,0.628378,-0.429478,-1.538478,-0.012156,-1.991203,0.769392,-0.602783,-0.575195,-0.516357,0.065157,0.015042,0.049321,0.999943,-0.000061,-0.009956,0.003847,0.732057,0.374424,-0.297700,0.485050
50217,NaN,6.520279,1.317107,4.671275,0.680177,-0.483116,-1.727458,-0.013161,-2.057525,0.750740,-0.613525,-0.568848,-0.505859,0.064668,0.013418,0.047379,0.999940,-0.000066,-0.010287,0.003754,0.727619,0.377953,-0.307084,0.483137
50218,NaN,6.441912,1.128991,4.371632,0.762786,-0.462548,-1.996950,0.019332,-2.070842,0.724541,-0.630371,-0.564697,-0.490967,0.063920,0.011518,0.044381,0.999940,0.000097,-0.010354,0.003623,0.722609,0.381891,-0.315921,0.481860
50219,NaN,6.600044,0.896561,4.275538,0.953612,-0.518194,-1.972777,0.074398,-2.095024,0.710410,-0.647705,-0.558105,-0.478271,0.065515,0.009183,0.043447,0.999939,0.000372,-0.010475,0.003552,0.717986,0.385654,-0.325195,0.479599
50220,NaN,6.908271,1.087657,4.078899,0.808045,-0.322619,-1.763784,0.142067,-2.138125,0.715574,-0.662598,-0.551758,-0.465576,0.068602,0.011093,0.041532,0.999936,0.000710,-0.010690,0.003578,0.712475,0.390103,-0.333887,0.478245
50221,NaN,7.103016,0.994282,3.638679,0.917725,-0.038470,-1.823001,0.207703,-2.099547,0.703192,-0.668945,-0.547607,-0.444336,0.070607,0.010153,0.037140,0.999938,0.001038,-0.010498,0.003516,0.707245,0.394330,-0.342649,0.476340
50222,NaN,7.299968,1.256483,3.375114,0.678456,0.179696,-1.703154,0.248577,-2.027466,0.704817,-0.681641,-0.549805,-0.433838,0.072608,0.012779,0.034504,0.999942,0.001243,-0.010137,0.003524,0.701562,0.398807,-0.350595,0.475233
50223,NaN,7.219712,0.986451,3.175637,0.852100,0.112505,-1.910726,0.289732,-1.954339,0.702027,-0.694580,-0.543457,-0.421143,0.071847,0.010070,0.032474,0.999945,0.001449,-0.009772,0.003510,0.696174,0.402907,-0.358537,0.473771
50224,NaN,7.258472,0.822567,2.826434,0.985094,0.261606,-2.046747,0.322670,-1.903276,0.694802,-0.698730,-0.539062,-0.404297,0.072282,0.008431,0.028967,0.999947,0.001613,-0.009516,0.003474,0.690430,0.407272,-0.365777,0.472909
50225,NaN,7.503438,0.846742,2.594362,0.986948,0.420257,-1.900893,0.369134,-1.874243,0.672625,-0.720215,-0.534912,-0.389404,0.074758,0.008670,0.026661,0.999949,0.001846,-0.009371,0.003363,0.685435,0.410998,-0.373584,0.470844
50226,NaN,7.772472,0.938365,2.241527,0.947176,0.716596,-1.756405,0.371917,-1.757380,0.653293,-0.722168,-0.530762,-0.368164,0.077493,0.009594,0.023115,0.999954,0.001860,-0.008787,0.003266,0.679819,0.415171,-0.380056,0.470145
50227,NaN,7.775532,0.941257,2.013120,0.902409,0.798825,-1.816228,0.333386,-1.615677,0.662630,-0.739258,-0.526367,-0.361816,0.077558,0.009635,0.020774,0.999960,0.001667,-0.008078,0.003313,0.674606,0.418614,-0.386444,0.469393
50228,NaN,7.593324,0.764827,1.790561,0.984126,0.795947,-2.076656,0.300240,-1.523261,0.666377,-0.743652,-0.524170,-0.353271,0.075768,0.007873,0.018495,0.999964,0.001501,-0.007616,0.003332,0.669447,0.421899,-0.392257,0.469016
50229,NaN,7.646873,0.628112,1.620366,1.084788,0.831354,-2.090926,0.270899,-1.423851,0.668596,-0.756348,-0.520020,-0.334229,0.076329,0.006514,0.016756,0.999968,0.001354,-0.007119,0.003343,0.665279,0.424032,-0.398745,0.467550
50230,NaN,7.827181,0.606847,1.700582,1.071432,0.704132,-1.882993,0.231409,-1.324812,0.680220,-0.756592,-0.513672,-0.323730,0.078136,0.006314,0.017531,0.999972,0.001157,-0.006624,0.003401,0.660539,0.426531,-0.404040,0.467452
50231,NaN,8.016461,0.419433,1.627366,1.235325,0.691809,-1.745334,0.199001,-1.215607,0.700040,-0.765137,-0.507324,-0.313232,0.080048,0.004458,0.016765,0.999975,0.000995,-0.006078,0.003500,0.656185,0.428310,-0.409534,0.467177
50232,NaN,8.135802,0.427145,1.700415,1.175040,0.571781,-1.593410,0.181289,-1.089684,0.716973,-0.767334,-0.502930,-0.309082,0.081248,0.004547,0.017451,0.999978,0.000906,-0.005448,0.003585,0.651877,0.429972,-0.414212,0.467557
50233,NaN,8.291268,0.451281,1.654156,1.119855,0.577047,-1.440288,0.193575,-1.002992,0.723827,-0.778076,-0.496582,-0.298584,0.082811,0.004796,0.016962,0.999980,0.000968,-0.005015,0.003619,0.648371,0.430656,-0.419555,0.467038
50234,NaN,8.215222,0.393717,1.633185,1.093395,0.497135,-1.513966,0.236996,-0.919771,0.706184,-0.782471,-0.492432,-0.287842,0.082061,0.004207,0.016714,0.999982,0.001185,-0.004599,0.003531,0.644272,0.432083,-0.423495,0.467836
50235,NaN,8.250908,0.514294,1.639085,0.914673,0.451986,-1.446867,0.296029,-0.878882,0.681765,-0.793213,-0.492432,-0.281494,0.082418,0.005399,0.016761,0.999983,0.001480,-0.004394,0.003409,0.640664,0.433001,-0.427935,0.467901
50236,NaN,8.434595,0.726751,1.557706,0.693243,0.545861,-1.250108,0.349845,-0.854316,0.648184,-0.799805,-0.483887,-0.268799,0.084254,0.007513,0.015950,0.999984,0.001749,-0.004272,0.003241,0.636552,0.434727,-0.431249,0.468869
50237,NaN,8.674401,0.960111,1.344123,0.475434,0.777002,-1.029565,0.393497,-0.817030,0.648084,-0.803955,-0.483887,-0.264648,0.086656,0.009855,0.013815,0.999984,0.001967,-0.004085,0.003240,0.632463,0.436241,-0.434778,0.469737
50238,NaN,8.868387,1.269128,1.286771,0.154650,0.863221,-0.804635,0.410668,-0.763869,0.632685,-0.802002,-0.477539,-0.254150,0.088593,0.012945,0.013233,0.999986,0.002053,-0.003819,0.003163,0.628412,0.437952,-0.437602,0.470958
50239,NaN,8.958680,1.402565,1.286141,-0.024947,0.838585,-0.692666,0.399177,-0.729206,0.614382,-0.808350,-0.473145,-0.243652,0.089495,0.014275,0.013216,0.999987,0.001996,-0.003646,0.003072,0.624760,0.439123,-0.440955,0.471597
50240,NaN,9.084048,1.503637,1.131344,-0.143008,0.967975,-0.587573,0.379401,-0.694200,0.601120,-0.810547,-0.473145,-0.243652,0.090755,0.015287,0.011657,0.999988,0.001897,-0.003471,0.003006,0.620972,0.440614,-0.443543,0.472782
50241,NaN,9.288248,1.591792,0.987617,-0.241545,1.097250,-0.404298,0.373086,-0.677929,0.597242,-0.817139,-0.462402,-0.233154,0.092800,0.016176,0.010221,0.999988,0.001865,-0.003390,0.002986,0.617515,0.441593,-0.446754,0.473373
50242,NaN,9.408562,1.712856,0.831603,-0.383748,1.228397,-0.300086,0.377699,-0.687065,0.591847,-0.819336,-0.460449,-0.224609,0.094005,0.017391,0.008672,0.999988,0.001888,-0.003435,0.002959,0.613738,0.443058,-0.449282,0.474522
50243,NaN,9.273607,1.699295,0.516063,-0.413101,1.441875,-0.490488,0.386029,-0.680854,0.595201,-0.825928,-0.453857,-0.216064,0.092667,0.017258,0.005509,0.999988,0.001930,-0.003404,0.002976,0.610248,0.444054,-0.452473,0.475059
50244,NaN,9.453782,1.721640,0.466212,-0.467027,1.462537,-0.315448,0.384348,-0.697926,0.585863,-0.827881,-0.451904,-0.207764,0.094470,0.017484,0.005025,0.999988,0.001922,-0.003490,0.002929,0.606417,0.445554,-0.454985,0.476161
50245,NaN,9.714552,1.635461,0.344355,-0.398687,1.543035,-0.085139,0.387817,-0.704326,0.571960,-0.823975,-0.445557,-0.199463,0.097085,0.016625,0.003818,0.999988,0.001939,-0.003522,0.002860,0.602607,0.446936,-0.457908,0.476900
50246,NaN,9.842094,1.546586,0.321701,-0.356452,1.507618,0.034219,0.364238,-0.677262,0.564620,-0.828125,-0.443359,-0.188721,0.098365,0.015737,0.003579,0.999989,0.001821,-0.003386,0.002823,0.598889,0.448350,-0.460336,0.477917
50247,NaN,9.927726,1.443425,0.459823,-0.327578,1.304102,0.139501,0.330308,-0.631136,0.554408,-0.836670,-0.441162,-0.186523,0.099222,0.014701,0.004936,0.999990,0.001652,-0.003156,0.002772,0.595265,0.449543,-0.463011,0.478740
50248,NaN,9.783972,1.245790,0.400667,-0.202375,1.255970,-0.023935,0.306244,-0.576740,0.539068,-0.841309,-0.430420,-0.174072,0.097794,0.012715,0.004308,0.999991,0.001531,-0.002884,0.002695,0.591946,0.450583,-0.465202,0.479753
50249,NaN,9.695935,1.028542,0.484850,-0.067307,1.073389,-0.109752,0.281124,-0.560998,0.508042,-0.845459,-0.428467,-0.174072,0.096919,0.010525,0.005135,0.999992,0.001406,-0.002805,0.002540,0.588587,0.451660,-0.467580,0.480560
50250,NaN,10.028580,0.984064,0.756262,-0.075176,0.798378,0.260506,0.236672,-0.534725,0.476117,-0.843506,-0.426270,-0.167725,0.100241,0.010070,0.007842,0.999993,0.001183,-0.002674,0.002381,0.585654,0.452525,-0.469656,0.481304
50251,NaN,10.051316,0.900602,1.074335,-0.080421,0.423899,0.326725,0.181435,-0.499982,0.450009,-0.847656,-0.424072,-0.159180,0.100465,0.009222,0.011003,0.999994,0.000907,-0.002500,0.002250,0.583190,0.452896,-0.472329,0.481332
50252,NaN,9.956860,0.737538,1.272629,0.001405,0.150763,0.251086,0.146635,-0.470849,0.428152,-0.850098,-0.417725,-0.157227,0.099522,0.007579,0.012966,0.999995,0.000733,-0.002354,0.002141,0.580712,0.453443,-0.474316,0.481858
50253,NaN,9.823740,0.632217,1.234760,0.050554,0.110570,0.107753,0.116917,-0.434046,0.406985,-0.854248,-0.417725,-0.152832,0.098197,0.006515,0.012565,0.999995,0.000585,-0.002170,0.002035,0.578309,0.453887,-0.476520,0.482156
50254,NaN,9.676520,0.654840,1.106054,-0.011707,0.184532,-0.052934,0.115410,-0.400695,0.392271,-0.854248,-0.417725,-0.146484,0.096730,0.006732,0.011258,0.999996,0.000577,-0.002003,0.001961,0.576144,0.454250,-0.478288,0.482654
50255,NaN,9.738541,0.780901,0.855367,-0.146183,0.414912,-0.015396,0.140413,-0.360063,0.365735,-0.852295,-0.409180,-0.146729,0.097355,0.007981,0.008735,0.999996,0.000702,-0.001800,0.001829,0.573936,0.454693,-0.480087,0.483081
50256,NaN,9.766670,0.878156,0.666931,-0.257049,0.586146,-0.004834,0.178746,-0.296691,0.350861,-0.856689,-0.406982,-0.140381,0.097641,0.008947,0.006822,0.999997,0.000894,-0.001483,0.001754,0.571968,0.455079,-0.481303,0.483842
50257,NaN,9.935897,0.797937,0.369395,-0.170110,0.859602,0.123469,0.235802,-0.244350,0.332341,-0.863037,-0.405029,-0.138184,0.099341,0.008140,0.003825,0.999997,0.001179,-0.001222,0.001662,0.570206,0.455288,-0.482736,0.484297
50258,NaN,9.963289,0.627388,0.186298,-0.012816,1.002968,0.121557,0.313386,-0.202756,0.307729,-0.858643,-0.409180,-0.138184,0.099621,0.006424,0.001974,0.999997,0.001567,-0.001014,0.001539,0.568256,0.455929,-0.483254,0.485468
50259,NaN,10.069319,0.507377,0.239293,0.075049,0.925774,0.229379,0.352589,-0.164739,0.287822,-0.863037,-0.402832,-0.131836,0.100684,0.005214,0.002485,0.999997,0.001763,-0.000824,0.001439,0.566537,0.456371,-0.484089,0.486230
50260,NaN,10.079057,0.279071,0.472827,0.250404,0.658156,0.256717,0.354401,-0.117649,0.250910,-0.863037,-0.402832,-0.131836,0.100784,0.002909,0.004793,0.999997,0.001772,-0.000588,0.001255,0.564832,0.457052,-0.484132,0.487529
50261,NaN,10.435003,0.180596,0.824466,0.307500,0.324588,0.646840,0.342594,-0.054328,0.223415,-0.865234,-0.400635,-0.121338,0.104346,0.001908,0.008276,0.999998,0.001713,-0.000272,0.001117,0.563468,0.457435,-0.484451,0.488430
50262,NaN,10.647330,0.054842,0.919356,0.415461,0.241356,0.863593,0.334420,0.041872,0.192269,-0.861328,-0.392090,-0.129883,0.106475,0.000635,0.009172,0.999998,0.001672,0.000209,0.000961,0.562334,0.457808,-0.483955,0.489877
50263,NaN,10.708760,-0.055109,1.040106,0.499845,0.123006,0.934283,0.327593,0.155783,0.151069,-0.863281,-0.392090,-0.125488,0.107096,-0.000487,0.010317,0.999998,0.001638,0.000779,0.000755,0.561412,0.458073,-0.483294,0.491337
50264,NaN,10.474607,-0.206741,1.097867,0.625742,0.048312,0.702610,0.340779,0.247448,0.104900,-0.861084,-0.396484,-0.121338,0.104761,-0.002031,0.010846,0.999998,0.001704,0.001237,0.000525,0.560970,0.458167,-0.482002,0.493021
50265,NaN,10.197221,-0.206968,1.048177,0.613125,0.092375,0.421581,0.388193,0.339121,0.044449,-0.863281,-0.392090,-0.129883,0.101990,-0.002067,0.010305,0.999997,0.001941,0.001696,0.000222,0.560418,0.458580,-0.480250,0.494970
50266,NaN,10.423552,0.035758,0.975015,0.395602,0.250914,0.645934,0.471318,0.407740,-0.025992,-0.865479,-0.396484,-0.127686,0.104255,0.000321,0.009538,0.999995,0.002357,0.002039,-0.000130,0.560377,0.458952,-0.477880,0.496962
50267,NaN,11.118034,0.152014,0.820817,0.339431,0.535157,1.318605,0.539442,0.476650,-0.104391,-0.859131,-0.389893,-0.127686,0.111200,0.001440,0.007947,0.999993,0.002697,0.002383,-0.000522,0.560579,0.459390,-0.475396,0.498709
50268,NaN,11.506452,-0.211916,0.921537,0.739537,0.514011,1.697350,0.535812,0.614995,-0.178991,-0.858887,-0.398438,-0.129883,0.115090,-0.002246,0.008856,0.999991,0.002679,0.003075,-0.000895,0.561251,0.459780,-0.471921,0.500890
50269,NaN,11.294934,-0.935143,1.046901,1.470418,0.380232,1.467323,0.472233,0.727329,-0.228198,-0.858887,-0.400635,-0.136230,0.112976,-0.009504,0.010036,0.999990,0.002361,0.003637,-0.001141,0.562009,0.460131,-0.468172,0.503230
50270,NaN,10.755288,-1.560211,1.206409,2.090639,0.192411,0.918451,0.368455,0.794600,-0.256464,-0.852783,-0.396240,-0.138184,0.107579,-0.015762,0.011608,0.999990,0.001842,0.003973,-0.001282,0.563660,0.459763,-0.464417,0.505195
50271,NaN,10.249117,-1.915890,1.271797,2.444921,0.114663,0.402056,0.328298,0.791936,-0.257596,-0.852539,-0.402832,-0.144531,0.102516,-0.019311,0.012280,0.999990,0.001641,0.003960,-0.001288,0.565019,0.459498,-0.460855,0.507177
50272,NaN,9.842917,-2.018400,1.422608,2.548680,-0.019013,0.009940,0.378924,0.752190,-0.237516,-0.848145,-0.406982,-0.148682,0.098458,-0.020327,0.013817,0.999990,0.001895,0.003761,-0.001188,0.566478,0.459204,-0.457219,0.509102
50273,NaN,9.712709,-2.047270,1.606030,2.588664,-0.146609,-0.097540,0.489873,0.711839,-0.211413,-0.850586,-0.400635,-0.148926,0.097162,-0.020614,0.015664,0.999990,0.002449,0.003559,-0.001057,0.567084,0.459479,-0.453549,0.511457
50274,NaN,9.741220,-1.893113,1.673218,2.466446,-0.120278,-0.056847,0.627345,0.727147,-0.187585,-0.846191,-0.404785,-0.153076,0.097454,-0.019074,0.016318,0.999988,0.003137,0.003636,-0.000938,0.567764,0.459819,-0.449447,0.514012
50275,NaN,9.685542,-1.922752,1.623717,2.522139,0.005116,-0.128621,0.799046,0.794121,-0.177717,-0.841797,-0.411377,-0.155029,0.096901,-0.019377,0.015775,0.999984,0.003995,0.003971,-0.000889,0.567256,0.461016,-0.444422,0.517854
50276,NaN,9.356190,-1.572558,1.357712,2.190991,0.315459,-0.487786,0.978894,0.878570,-0.188364,-0.841797,-0.411377,-0.155029,0.093605,-0.015879,0.013089,0.999978,0.004894,0.004393,-0.000942,0.567426,0.461927,-0.438953,0.521509
50277,NaN,9.007792,-1.211913,0.966578,1.837384,0.742354,-0.889941,1.095743,0.925448,-0.208251,-0.841797,-0.411377,-0.157227,0.090108,-0.012264,0.009182,0.999974,0.005479,0.004627,-0.001041,0.566373,0.463734,-0.432558,0.526372
50278,NaN,8.714830,-0.946353,0.666277,1.580019,1.078440,-1.232042,1.086203,0.971788,-0.210892,-0.837402,-0.415527,-0.155029,0.087169,-0.009590,0.006187,0.999973,0.005431,0.004859,-0.001054,0.566494,0.464696,-0.426447,0.530363
50279,NaN,8.446558,-0.817598,0.567245,1.441814,1.217586,-1.519771,0.955690,1.013667,-0.196531,-0.833008,-0.415527,-0.163574,0.084485,-0.008285,0.005205,0.999975,0.004778,0.005068,-0.000983,0.565194,0.466264,-0.419622,0.535790
50280,NaN,8.235083,-0.911861,0.703335,1.542956,1.133066,-1.720875,0.770443,1.059367,-0.185646,-0.831055,-0.415527,-0.167725,0.082378,-0.009221,0.006562,0.999978,0.003852,0.005297,-0.000928,0.566104,0.465983,-0.414123,0.539340
50281,NaN,7.975164,-0.659722,0.900156,1.287481,0.969951,-1.922842,0.585372,1.058809,-0.187420,-0.826416,-0.424072,-0.174072,0.079791,-0.006697,0.008560,0.999981,0.002927,0.005294,-0.000937,0.566128,0.465908,-0.408585,0.543587
50282,NaN,8.047477,-0.382371,1.215138,1.048468,0.758251,-1.768444,0.495284,0.965960,-0.197239,-0.833008,-0.424072,-0.180420,0.080528,-0.003933,0.011753,0.999985,0.002476,0.004830,-0.000986,0.567474,0.465081,-0.404040,0.546283
50283,NaN,8.275236,-0.123529,1.604399,0.841010,0.502687,-1.439611,0.526970,0.834722,-0.215210,-0.824463,-0.424072,-0.178467,0.082817,-0.001366,0.015695,0.999987,0.002635,0.004174,-0.001076,0.567340,0.465348,-0.399341,0.549640
50284,NaN,8.252675,0.665171,2.210700,0.117230,-0.052496,-1.244175,0.581903,0.735457,-0.257629,-0.820068,-0.430420,-0.180420,0.082616,0.006482,0.021822,0.999988,0.002910,0.003677,-0.001288,0.568154,0.465487,-0.395053,0.551775
50285,NaN,10.464985,2.477360,-1.431046,-1.757602,4.005747,0.115330,0.842211,0.869435,-0.237862,-0.817871,-0.430420,-0.188965,0.104616,0.024710,-0.014661,0.999981,0.004211,0.004347,-0.001189,0.566654,0.467053,-0.388704,0.556483
50286,NaN,7.669267,0.994158,-8.485010,-1.151713,10.190066,-4.652056,1.951295,1.810581,-0.015316,-0.824219,-0.432617,-0.182617,0.075922,0.010767,-0.085437,0.999911,0.009756,0.009053,-0.000077,0.565607,0.467533,-0.378077,0.564411
50287,NaN,10.010829,0.953321,5.115660,0.423544,-2.060258,1.271907,3.324386,1.131882,0.011606,-0.815674,-0.437012,-0.188965,0.100396,0.008693,0.050738,0.999846,0.016621,0.005659,0.000058,0.557851,0.474787,-0.364512,0.574901
50288,NaN,8.227491,0.852984,6.378003,0.684420,-3.615700,-0.037613,1.442620,2.116268,0.057114,-0.815674,-0.438965,-0.195312,0.082942,0.008097,0.062964,0.999918,0.007213,0.010581,0.000286,0.558072,0.472585,-0.354570,0.582665
50289,NaN,8.146190,0.096026,5.612455,1.354917,-2.663459,-0.381991,0.880034,1.293338,0.212116,-0.815674,-0.438965,-0.203613,0.081822,0.000801,0.055600,0.999969,0.004400,0.006467,0.001061,0.556385,0.471490,-0.348488,0.588803
50290,NaN,8.873990,-1.253163,5.427356,2.705564,-1.949595,0.119698,0.553998,0.988703,0.233699,-0.813477,-0.438965,-0.201660,0.089021,-0.012577,0.053799,0.999983,0.002770,0.004943,0.001168,0.556102,0.469707,-0.344653,0.592739
50291,NaN,8.704323,-2.185423,4.674511,3.463872,-1.087801,-0.367577,0.007391,0.782191,0.089827,-0.813477,-0.438965,-0.208008,0.087235,-0.021817,0.046403,0.999992,0.000037,0.003911,0.000449,0.557110,0.467104,-0.343199,0.594691
50292,NaN,8.545951,-2.750553,3.464706,3.783434,0.105791,-0.965236,-0.221543,0.195682,0.110971,-0.815674,-0.436768,-0.212158,0.085509,-0.027420,0.034594,0.999999,-0.001108,0.000978,0.000555,0.557630,0.465715,-0.343573,0.595076
50293,NaN,8.159062,-1.968071,2.256919,2.765727,0.951797,-1.628446,0.135622,-0.743621,0.272353,-0.817871,-0.434814,-0.201660,0.081533,-0.019585,0.022859,0.999992,0.000678,-0.003718,0.001362,0.555105,0.467671,-0.346390,0.594269
50294,NaN,8.813204,-1.203270,1.858311,1.971981,1.347139,-1.045179,0.393947,-1.273696,0.364330,-0.824463,-0.426270,-0.184570,0.088033,-0.011910,0.019120,0.999976,0.001970,-0.006368,0.001822,0.550880,0.471908,-0.349601,0.592970
50295,NaN,8.984057,-0.871101,1.406632,1.558321,1.654917,-0.964955,0.326178,-1.316929,0.426685,-0.826416,-0.430420,-0.176270,0.089764,-0.008543,0.014644,0.999975,0.001631,-0.006585,0.002133,0.546337,0.475807,-0.353766,0.591585
50296,NaN,8.769795,-0.767345,1.317862,1.415957,1.537842,-1.160303,0.303767,-1.343334,0.441896,-0.826416,-0.426270,-0.163574,0.087624,-0.007500,0.013756,0.999974,0.001519,-0.006717,0.002209,0.541915,0.479818,-0.357581,0.590118
50297,NaN,8.872535,-0.547053,1.583713,1.236291,1.152112,-0.942961,0.344433,-1.463161,0.342308,-0.824219,-0.424072,-0.150879,0.088616,-0.005347,0.016476,0.999970,0.001722,-0.007316,0.001712,0.537279,0.484268,-0.361900,0.588085
50298,NaN,9.219289,0.193541,1.487232,0.504986,1.081720,-0.548909,0.305859,-1.575656,0.353566,-0.830566,-0.424316,-0.140381,0.092068,0.002075,0.015601,0.999966,0.001529,-0.007878,0.001768,0.532628,0.489068,-0.366080,0.585753
50299,NaN,9.936099,0.216350,1.642135,0.529585,0.960623,0.200510,0.236854,-1.527335,0.415871,-0.839355,-0.415771,-0.123291,0.099227,0.002350,0.017182,0.999968,0.001184,-0.007637,0.002079,0.527897,0.493184,-0.371067,0.583441
50300,NaN,11.649578,0.842533,1.125752,-0.132531,1.625735,1.807439,0.061303,-1.144233,0.605191,-0.841553,-0.409180,-0.114990,0.116403,0.008774,0.011926,0.999979,0.000307,-0.005721,0.003026,0.523844,0.495552,-0.375395,0.582318
50301,NaN,11.653692,0.096019,1.995205,0.696076,0.788966,1.963999,-0.011054,-0.768443,0.707514,-0.843750,-0.409180,-0.110840,0.116455,0.001373,0.020400,0.999986,-0.000055,-0.003842,0.003538,0.520221,0.496232,-0.379789,0.582137
50302,NaN,11.770693,-0.097245,2.253125,0.871135,0.500609,2.129867,-0.063429,-0.711577,0.688667,-0.845947,-0.400635,-0.104492,0.117628,-0.000560,0.022950,0.999988,-0.000317,-0.003558,0.003443,0.517014,0.496826,-0.383531,0.582035
50303,NaN,11.653481,0.002216,2.651397,0.765917,-0.030567,2.113957,-0.129759,-0.693348,0.673548,-0.850586,-0.392090,-0.102295,0.116441,0.000432,0.026918,0.999988,-0.000649,-0.003467,0.003368,0.513941,0.496982,-0.388001,0.581660
50304,NaN,11.436697,0.396910,3.048609,0.378388,-0.619723,2.007689,-0.225333,-0.671180,0.633161,-0.854980,-0.385742,-0.098145,0.114250,0.004366,0.030865,0.999989,-0.001127,-0.003356,0.003166,0.511349,0.497123,-0.391953,0.581175
50305,NaN,10.977828,0.852595,3.123873,-0.139397,-0.958160,1.591689,-0.305826,-0.637434,0.609164,-0.859131,-0.385742,-0.089600,0.109651,0.008908,0.031575,0.999989,-0.001529,-0.003187,0.003046,0.508999,0.496749,-0.396599,0.580404
50306,NaN,9.945736,0.934825,3.116965,-0.295792,-1.247242,0.573031,-0.327777,-0.631798,0.615659,-0.859375,-0.379395,-0.089844,0.099329,0.009706,0.031468,0.999989,-0.001639,-0.003159,0.003078,0.506765,0.496524,-0.400686,0.579745
50307,NaN,9.775367,0.506772,2.762714,-0.008613,-0.950690,0.313633,-0.288682,-0.703083,0.749057,-0.865967,-0.370850,-0.081299,0.097636,0.005474,0.027963,0.999986,-0.001443,-0.003515,0.003745,0.503792,0.496094,-0.405712,0.579209
50308,NaN,9.099508,-0.041726,1.982027,0.332587,-0.312827,-0.510986,-0.148362,-0.827196,0.905340,-0.868408,-0.360107,-0.075195,0.090913,0.000009,0.020196,0.999981,-0.000742,-0.004136,0.004527,0.499847,0.496271,-0.410466,0.579125
50309,NaN,9.088548,-1.097402,1.152755,1.157381,0.557106,-0.675761,0.087736,-1.094926,1.029807,-0.876953,-0.355957,-0.064453,0.090875,-0.010511,0.012020,0.999972,0.000439,-0.005475,0.005149,0.494258,0.497319,-0.415994,0.579078
50310,NaN,10.326674,-1.955509,0.968376,1.870543,0.955289,0.530831,0.331722,-1.166903,1.086670,-0.881348,-0.347412,-0.053955,0.103312,-0.019011,0.010255,0.999967,0.001659,-0.005834,0.005433,0.487840,0.499242,-0.420610,0.579532
50311,NaN,10.511402,-2.615228,1.511423,2.508651,0.438829,0.823370,0.457835,-1.019345,1.106941,-0.881592,-0.336670,-0.043457,0.105178,-0.025606,0.015591,0.999969,0.002289,-0.005097,0.005535,0.481195,0.500740,-0.425031,0.580568
50312,NaN,9.965875,-3.279264,1.964620,3.170194,-0.055542,0.379343,0.406410,-0.825304,1.082885,-0.881836,-0.328125,-0.035156,0.099752,-0.032293,0.019992,0.999975,0.002032,-0.004126,0.005414,0.475265,0.501801,-0.428541,0.581955
50313,NaN,9.313473,-3.120317,1.711228,2.906317,-0.000946,-0.275509,0.191990,-0.681903,1.011480,-0.896973,-0.321533,-0.037109,0.093232,-0.030748,0.017400,0.999981,0.000960,-0.003409,0.005057,0.470228,0.501800,-0.432659,0.583000
50314,NaN,8.931725,-2.247408,0.718907,1.816434,0.694463,-0.781585,-0.066713,-0.622519,0.919857,-0.890869,-0.311035,-0.026855,0.089396,-0.022061,0.007475,0.999985,-0.000334,-0.003113,0.004599,0.466356,0.501461,-0.436623,0.583446
50315,NaN,9.005195,-1.117225,-0.161669,0.469655,1.279122,-0.839932,-0.204377,-0.651440,0.850665,-0.895020,-0.308838,-0.020508,0.090103,-0.010791,-0.001312,0.999985,-0.001022,-0.003257,0.004253,0.462861,0.500692,-0.441440,0.583265
50316,NaN,9.262392,-0.320207,-0.546110,-0.461962,1.462461,-0.656286,-0.163832,-0.664860,0.805540,-0.899414,-0.304688,-0.014160,0.092653,-0.002833,-0.005151,0.999986,-0.000819,-0.003324,0.004028,0.459444,0.500468,-0.445472,0.583094
50317,NaN,9.029683,0.065904,-0.178549,-0.825433,0.935943,-0.867666,-0.009048,-0.642793,0.748823,-0.899902,-0.291748,-0.011963,0.090299,0.000997,-0.001495,0.999988,-0.000045,-0.003214,0.003744,0.455734,0.500338,-0.449411,0.583094
50318,NaN,8.273326,0.007782,-1.820372,-1.044821,2.421302,-1.762429,0.302154,-0.804900,0.708644,-0.902100,-0.285400,-0.003662,0.082805,0.000398,-0.017870,0.999984,0.001511,-0.004024,0.003543,0.451092,0.501774,-0.452135,0.583364
50319,NaN,9.452031,-0.071279,0.566848,-0.706855,0.088117,-0.370292,0.602614,-0.954413,0.731047,-0.902344,-0.276855,0.002686,0.094494,-0.000385,0.006118,0.999977,0.003013,-0.004772,0.003655,0.445211,0.503933,-0.454952,0.583831
50320,NaN,8.700067,-1.065927,0.549678,0.289926,0.164468,-1.036703,0.203497,-0.669746,0.631943,-0.904541,-0.274658,0.009033,0.087015,-0.010390,0.005777,0.999989,0.001017,-0.003349,0.003160,0.441320,0.504899,-0.457440,0.584005
50321,NaN,8.703015,-1.685634,0.230205,0.789389,0.527903,-0.995965,-0.229401,-0.562667,0.541166,-0.908936,-0.270264,0.013184,0.087068,-0.016618,0.002566,0.999992,-0.001147,-0.002813,0.002706,0.439001,0.504450,-0.461321,0.583087
50322,NaN,8.719752,-2.013992,-0.476865,0.946762,1.223581,-0.985244,-0.514302,-0.516879,0.445246,-0.906738,-0.270264,0.015381,0.087254,-0.019958,-0.004492,0.999991,-0.002572,-0.002584,0.002226,0.437799,0.503798,-0.465079,0.581568
