// Start Time: Unknown
// Update Rate: 100.0Hz
// Filter Profile: human (46.1)
// Firmware Version: 4.4.0
PacketCounter,SampleTimeFine,Acc_X,Acc_Y,Acc_Z,FreeAcc_X,FreeAcc_Y,FreeAcc_Z,Gyr_X,Gyr_Y,Gyr_Z,Mag_X,Mag_Y,Mag_Z,VelInc_X,VelInc_Y,VelInc_Z,OriInc_q0,OriInc_q1,OriInc_q2,OriInc_q3,Quat_q0,Quat_q1,Quat_q2,Quat_q3
34151,NaN,17.189852,-0.868250,2.278970,-0.000000,0.000000,7.548458,-0.998243,-1.783829,2.781494,-0.999023,0.233887,-0.163574,0.171783,-0.006174,0.024357,0.999851,-0.004991,-0.008919,0.013907,0.565103,-0.452188,-0.474739,-0.500806
34152,NaN,12.630928,-1.107555,1.497107,0.000000,0.000000,2.954280,-0.726642,-1.900202,2.330716,-1.001465,0.250977,-0.144775,0.126276,-0.009546,0.016207,0.999880,-0.003633,-0.009501,0.011653,0.566152,-0.470164,-0.464189,-0.492896
34153,NaN,9.245845,-3.431996,1.505379,-2.964623,0.343015,-0.293390,-0.034374,-2.469025,1.794561,-0.995361,0.263672,-0.121582,0.092566,-0.033487,0.016202,0.999884,-0.000172,-0.012345,0.008972,0.537485,-0.488614,-0.449781,-0.519676
34154,NaN,9.245737,-2.828526,0.827263,-2.220205,-0.113842,-0.367056,0.434748,-2.711489,1.529105,-0.987305,0.278564,-0.092285,0.092547,-0.027598,0.009466,0.999877,0.002174,-0.013557,0.007645,0.536356,-0.497869,-0.454407,-0.507901
34155,NaN,8.479349,-0.411505,0.459561,0.262426,-0.237814,-1.318538,0.294674,-2.186855,1.348543,-0.987793,0.297852,-0.071289,0.084762,-0.003551,0.005517,0.999916,0.001473,-0.010934,0.006743,0.535901,-0.505455,-0.457307,-0.498193
34156,NaN,6.594168,0.431415,1.472735,1.053704,1.045568,-3.207155,-0.414127,-1.602812,1.179618,-0.983887,0.308594,-0.060791,0.065794,0.004734,0.015246,0.999948,-0.002071,-0.008014,0.005898,0.534101,-0.513228,-0.457565,-0.491903
34157,NaN,5.612311,1.743193,2.326330,2.357164,2.007656,-4.302631,-1.088613,-1.126165,1.064127,-0.977539,0.312744,-0.045898,0.055897,0.017857,0.023482,0.999955,-0.005443,-0.005631,0.005321,0.531439,-0.521005,-0.454964,-0.489013
34158,NaN,4.593343,3.036510,3.906942,3.650510,3.627174,-5.442328,-0.954882,-0.593570,0.901024,-0.975830,0.325684,-0.039795,0.045680,0.030758,0.039059,0.999974,-0.004774,-0.002968,0.004505,0.529791,-0.527030,-0.451847,-0.487232
34159,NaN,3.185235,4.277438,3.832950,4.771792,3.531511,-7.003430,-0.378336,-0.113826,0.646115,-0.969482,0.329834,-0.035645,0.031692,0.042949,0.038266,0.999993,-0.001892,-0.000569,0.003231,0.529486,-0.528639,-0.448198,-0.489187
34160,NaN,2.088106,6.433412,3.314114,6.772180,2.979337,-8.400798,0.205389,0.243531,0.410824,-0.971680,0.334229,-0.041992,0.020789,0.064343,0.033182,0.999997,0.001027,0.001218,0.002054,0.531577,-0.528419,-0.446969,-0.488281
34161,NaN,0.238599,9.857211,1.743451,9.893637,1.297789,-10.644953,0.484491,0.259388,0.112782,-0.973877,0.334229,-0.043945,0.002353,0.098531,0.017670,0.999996,0.002422,0.001297,0.000564,0.530830,-0.525305,-0.444687,-0.494498
34162,NaN,0.154291,11.035643,1.034776,11.016877,0.591327,-10.889018,0.376137,-0.100423,-0.301650,-0.978027,0.327637,-0.041748,0.001704,0.110334,0.010556,0.999997,0.001881,-0.000502,-0.001508,0.530847,-0.523882,-0.446674,-0.494197
34163,NaN,2.353082,7.866837,2.305254,8.167191,1.740057,-8.078580,0.033161,0.244952,-0.760931,-0.973633,0.327637,-0.048096,0.023858,0.078574,0.023036,0.999992,0.000166,0.001225,-0.003805,0.523585,-0.519034,-0.447319,-0.506328
34164,NaN,2.168667,3.369618,3.804047,3.748719,3.462035,-7.693931,0.038428,1.015770,-0.983911,-0.973145,0.308594,-0.058594,0.022045,0.033581,0.037936,0.999975,0.000192,0.005079,-0.004920,0.523453,-0.514149,-0.447299,-0.511441
34165,NaN,2.148520,-0.230669,4.747794,0.247474,4.530379,-7.238869,0.405558,1.703863,-1.043978,-0.977539,0.308594,-0.075439,0.021876,-0.002516,0.047288,0.999948,0.002028,0.008519,-0.005220,0.517820,-0.504548,-0.443250,-0.529928
34166,NaN,1.216757,-3.174743,5.232480,-2.736327,5.265711,-7.883405,0.725026,2.235264,-1.043127,-0.975098,0.293701,-0.096680,0.012584,-0.032001,0.052070,0.999917,0.003625,0.011176,-0.005215,0.521796,-0.494394,-0.441978,-0.536617
34167,NaN,1.136992,-4.115352,3.685382,-3.690662,3.879296,-8.040549,0.555307,2.469586,-0.991037,-0.970459,0.280762,-0.117676,0.011618,-0.041313,0.036597,0.999908,0.002776,0.012348,-0.004955,0.515258,-0.486094,-0.428788,-0.560680
34168,NaN,2.066522,-3.860536,1.415703,-3.700263,1.419988,-7.473924,0.139470,2.644684,-0.950933,-0.972412,0.274414,-0.140869,0.020666,-0.038713,0.013857,0.999901,0.000697,0.013223,-0.004755,0.518550,-0.476234,-0.424635,-0.569203
34169,NaN,5.293682,-3.526804,-4.040488,-4.270106,-4.473535,-5.507268,-0.167720,2.801291,-1.123371,-0.980713,0.261719,-0.161865,0.052165,-0.035597,-0.041109,0.999886,-0.000839,0.014006,-0.005617,0.507612,-0.471359,-0.404553,-0.597065
34170,NaN,9.541482,-0.551675,-5.287211,-1.825870,-7.250879,-1.851637,-0.177983,3.081764,-1.467515,-0.969727,0.242432,-0.191406,0.094541,-0.006261,-0.054328,0.999854,-0.000890,0.015408,-0.007337,0.508971,-0.459574,-0.399600,-0.608325
34171,NaN,19.320614,3.361151,0.784855,1.848710,-5.054769,9.060016,-0.805968,3.268227,-2.238895,-0.975586,0.225342,-0.214355,0.193659,0.031468,0.004557,0.999796,-0.004030,0.016340,-0.011194,0.499440,-0.450070,-0.388490,-0.630136
34172,NaN,28.890441,10.716499,-1.813989,6.759357,-12.644347,17.516873,-2.431565,4.941318,-3.145534,-0.964355,0.193359,-0.271240,0.289952,0.102321,-0.026560,0.999497,-0.012156,0.024702,-0.015725,0.493406,-0.434240,-0.375375,-0.653514
34173,NaN,25.163091,0.215535,-1.347519,-4.021358,-9.752275,13.066496,-2.834997,6.391808,-3.990072,-0.955322,0.167969,-0.319824,0.251002,-0.003124,-0.021486,0.999190,-0.014171,0.031950,-0.019945,0.490579,-0.409320,-0.368362,-0.675351
34174,NaN,20.031539,-15.200131,0.145413,-18.669531,-3.542277,6.652552,-1.688410,5.594562,-3.464669,-0.944092,0.144531,-0.359863,0.197603,-0.155452,-0.002797,0.999423,-0.008440,0.027967,-0.017320,0.485447,-0.387957,-0.355819,-0.698015
34175,NaN,16.498259,-11.462307,-1.090314,-14.839728,-4.997237,2.818154,0.148517,2.834053,-2.239507,-0.939209,0.120850,-0.374512,0.163508,-0.116450,-0.013313,0.999837,0.000743,0.014169,-0.011197,0.496370,-0.370362,-0.368306,-0.693397
34176,NaN,22.053846,-8.514127,-1.585199,-13.801804,-8.717357,7.358128,2.021901,2.051327,-2.332163,-0.927979,0.097412,-0.404053,0.219343,-0.087522,-0.018983,0.999828,0.010109,0.010256,-0.011660,0.495721,-0.353875,-0.374480,-0.699141
34177,NaN,26.225978,-3.973194,-3.443774,-10.178772,-13.883178,10.656275,2.040539,3.554504,-2.541269,-0.908203,0.069580,-0.427002,0.261058,-0.042668,-0.039510,0.999709,0.010202,0.017771,-0.012705,0.518362,-0.328212,-0.394532,-0.684048
34178,NaN,25.414124,-2.029193,-4.901638,-8.792894,-15.675139,8.919567,0.862083,2.919227,-3.136395,-0.898926,0.039551,-0.445801,0.253031,-0.024044,-0.052814,0.999761,0.004310,0.014595,-0.015681,0.514684,-0.309729,-0.394967,-0.695103
34179,NaN,30.230118,8.122753,4.166178,0.642090,-11.226390,19.692048,-0.643701,3.456172,-3.806894,-0.876953,0.014160,-0.483887,0.304432,0.075568,0.036164,0.999664,-0.003218,0.017279,-0.019032,0.544630,-0.283096,-0.417257,-0.670173
34180,NaN,33.213189,-6.358342,-1.860290,-14.545349,-18.055069,14.870670,-1.286882,3.766982,-2.603152,-0.864014,-0.000977,-0.509277,0.330842,-0.068040,-0.024415,0.999717,-0.006434,0.018833,-0.013015,0.541790,-0.268468,-0.406255,-0.685088
34181,NaN,30.422988,2.347927,4.353918,-4.200476,-12.327332,18.121006,-1.593684,3.382442,-2.236255,-0.843018,-0.000732,-0.541016,0.305146,0.020389,0.038213,0.999763,-0.007968,0.016911,-0.011180,0.586343,-0.244521,-0.426837,-0.643600
34182,NaN,27.491121,0.026728,4.595845,-6.302175,-11.706252,14.682082,-2.169712,4.172513,-2.313351,-0.819580,-0.007080,-0.572754,0.275772,-0.002462,0.040228,0.999657,-0.010847,0.020860,-0.011565,0.584949,-0.232435,-0.410306,-0.659892
34183,NaN,20.703784,1.297444,6.860999,-2.915343,-6.397386,10.872570,-2.850921,4.468670,-2.685767,-0.794189,-0.009033,-0.606689,0.208657,0.011112,0.063792,0.999559,-0.014253,0.022340,-0.013427,0.634113,-0.207415,-0.422512,-0.613485
34184,NaN,18.658282,4.317318,6.273529,0.308677,-6.091508,9.392892,-3.741417,3.677210,-2.269347,-0.769043,-0.000488,-0.636475,0.188167,0.042165,0.058490,0.999592,-0.018705,0.018384,-0.011345,0.630782,-0.203119,-0.401560,-0.632144
34185,NaN,11.384313,3.212989,2.194375,2.086439,-4.610007,1.100925,-4.082595,3.543929,-2.449656,-0.748291,0.012451,-0.659912,0.114586,0.031141,0.019275,0.999560,-0.020410,0.017717,-0.012246,0.674249,-0.188263,-0.407250,-0.586594
34186,NaN,4.523849,3.092826,2.985432,1.896373,-0.114499,-3.869203,-3.891226,3.531029,-2.400506,-0.731689,0.020996,-0.678955,0.046120,0.030941,0.028443,0.999583,-0.019453,0.017653,-0.012001,0.670455,-0.186058,-0.386026,-0.605687
34187,NaN,0.743588,3.884550,6.033728,1.405594,4.952168,-4.758921,-3.120729,2.306855,-2.236820,-0.714844,0.023193,-0.697998,0.008567,0.039688,0.059628,0.999749,-0.015602,0.011533,-0.011183,0.705341,-0.175855,-0.392803,-0.563272
34188,NaN,-0.528797,2.864785,6.344879,0.462681,5.563667,-5.620715,-2.085130,0.836125,-2.041970,-0.710693,0.025391,-0.697998,-0.004726,0.029358,0.063166,0.999885,-0.010425,0.004180,-0.010209,0.699317,-0.176823,-0.385732,-0.575239
34189,NaN,-0.677061,1.439686,4.429959,-0.490518,3.950030,-7.300377,-1.512229,0.092152,-1.558152,-0.712891,0.029785,-0.691895,-0.006636,0.014783,0.044192,0.999941,-0.007561,0.000461,-0.007791,0.720714,-0.172219,-0.396431,-0.541991
34190,NaN,-1.509534,0.030776,5.617501,-2.239269,4.815538,-7.439622,-1.283853,-0.577002,-1.237137,-0.719238,0.036133,-0.685547,-0.015254,0.000762,0.056127,0.999956,-0.006419,-0.002885,-0.006186,0.715080,-0.175949,-0.396080,-0.548473
34191,NaN,-2.895441,-0.897833,5.194200,-3.299435,4.967820,-9.036418,-1.436643,-1.164928,-0.947081,-0.725830,0.038330,-0.681152,-0.029297,-0.008468,0.051834,0.999946,-0.007183,-0.005825,-0.004735,0.726645,-0.178353,-0.405956,-0.524764
34192,NaN,-3.183002,-0.790294,1.251492,-1.579726,2.523792,-11.671990,-1.782790,-1.308004,-0.545450,-0.736816,0.051025,-0.675049,-0.031932,-0.007705,0.012376,0.999935,-0.008914,-0.006540,-0.002727,0.720922,-0.187143,-0.406491,-0.529164
34193,NaN,-3.763756,-1.817594,-1.991991,-1.357637,0.098763,-14.238122,-2.058093,-0.952845,-0.163402,-0.741211,0.063965,-0.666504,-0.037558,-0.018350,-0.019911,0.999935,-0.010290,-0.004764,-0.000817,0.728582,-0.194458,-0.410059,-0.513036
34194,NaN,-8.099799,-2.005497,-6.112582,-0.544095,-0.386820,-20.134764,-1.822964,-0.792668,0.107435,-0.748047,0.081055,-0.658203,-0.080744,-0.020656,-0.061260,0.999950,-0.009115,-0.003963,0.000537,0.725424,-0.203343,-0.408146,-0.515586
34195,NaN,-11.080447,-3.179603,-9.928155,-0.672218,-2.189250,-24.852817,-1.107123,-1.207116,0.397621,-0.754639,0.089600,-0.645508,-0.110139,-0.032567,-0.099769,0.999964,-0.005536,-0.006036,0.001988,0.732834,-0.209299,-0.413784,-0.497928
34196,NaN,-11.061415,-5.964955,-12.076501,-2.323660,-5.166419,-26.295304,0.287382,-1.788150,0.700422,-0.763184,0.087402,-0.632812,-0.109319,-0.059859,-0.121832,0.999953,0.001437,-0.008941,0.003502,0.731144,-0.214137,-0.420299,-0.492872
34197,NaN,-7.034483,-6.852302,-13.307520,-1.444383,-9.180737,-23.492245,2.187911,-2.436170,1.047606,-0.780029,0.085205,-0.615967,-0.068356,-0.067417,-0.134658,0.999852,0.010939,-0.012180,0.005238,0.741128,-0.211035,-0.438298,-0.462698
34198,NaN,-3.846167,-4.975797,-12.444128,0.878457,-9.515236,-19.964679,3.621775,-2.716229,1.171141,-0.798584,0.070068,-0.592285,-0.036476,-0.047705,-0.125822,0.999727,0.018107,-0.013580,0.005855,0.741503,-0.206407,-0.455385,-0.447430
34199,NaN,-1.333975,-3.828317,-10.596309,2.433848,-8.897698,-16.415562,4.175485,-2.580916,1.063095,-0.806641,0.061523,-0.573242,-0.011768,-0.036123,-0.106891,0.999685,0.020875,-0.012903,0.005315,0.754516,-0.192022,-0.479536,-0.404820
34200,NaN,-0.780677,-4.560012,-8.652342,1.356326,-8.277252,-14.901251,4.276617,-2.453716,0.918936,-0.824951,0.037842,-0.556152,-0.006533,-0.043767,-0.087558,0.999686,0.021381,-0.012267,0.004594,0.754361,-0.182998,-0.496414,-0.388618
34201,NaN,0.239572,-5.941408,-5.673557,-0.382790,-7.732009,-12.570322,4.056859,-2.553599,0.678942,-0.837402,0.029297,-0.534912,0.003329,-0.058237,-0.057886,0.999707,0.020282,-0.012767,0.003394,0.765064,-0.164020,-0.519856,-0.342818
34202,NaN,1.583063,-4.127876,-2.237986,-0.918570,-4.867798,-9.698177,3.176519,-2.516482,0.463108,-0.849609,0.011963,-0.511475,0.016211,-0.040881,-0.022829,0.999792,0.015881,-0.012582,0.002315,0.761763,-0.157353,-0.534439,-0.330655
34203,NaN,3.472869,-1.964779,0.624738,-0.867118,-2.233623,-6.561465,1.652141,-1.709246,0.564254,-0.855957,0.018311,-0.500977,0.034730,-0.019602,0.006382,0.999925,0.008261,-0.008546,0.002821,0.770307,-0.143408,-0.549146,-0.290690
34204,NaN,5.956746,0.155676,4.481076,-2.003847,0.850872,-2.681999,0.179910,-1.461395,0.288732,-0.868896,0.022705,-0.488281,0.059236,0.001602,0.045246,0.999972,0.000900,-0.007307,0.001444,0.766821,-0.145628,-0.554813,-0.288028
34205,NaN,9.982733,1.810968,8.510516,-3.448584,3.310229,2.536810,-0.744848,-1.481675,-0.118510,-0.872803,0.018311,-0.477539,0.099204,0.018369,0.085774,0.999965,-0.003724,-0.007408,-0.000593,0.770570,-0.139514,-0.564176,-0.261655
34206,NaN,16.821025,1.395363,11.198270,-4.441627,2.748951,9.757841,-0.306424,-1.124761,-0.801354,-0.872559,0.009766,-0.468994,0.167632,0.013454,0.112906,0.999975,-0.001532,-0.005624,-0.004007,0.766116,-0.139902,-0.568653,-0.264816
34207,NaN,20.328320,2.100327,11.388552,-3.863451,2.456840,13.129636,2.250686,-1.021789,-1.818331,-0.882080,-0.024658,-0.456055,0.202869,0.017867,0.115136,0.999882,0.011253,-0.005109,-0.009091,0.768724,-0.118611,-0.579285,-0.243768
34208,NaN,22.112502,3.786094,6.316506,0.959136,0.585286,13.465028,4.794144,-0.664432,-2.822768,-0.878662,-0.067383,-0.449463,0.221402,0.033198,0.064733,0.999608,0.023968,-0.003322,-0.014112,0.765901,-0.092775,-0.589128,-0.240242
34209,NaN,22.709842,1.124145,-1.942309,6.836512,-5.609082,11.224199,4.258710,1.685171,-2.139465,-0.863037,-0.097412,-0.468262,0.227031,0.009250,-0.021125,0.999681,0.021291,0.008425,-0.010696,0.774554,-0.061300,-0.589163,-0.221799
34210,NaN,21.549027,2.278909,-0.291413,5.878512,-4.059936,10.646430,2.854465,2.694881,-0.620469,-0.852295,-0.105957,-0.489258,0.215497,0.022187,-0.005498,0.999803,0.014271,0.013474,-0.003102,0.782526,-0.045418,-0.581967,-0.216576
34211,NaN,10.396764,-3.944323,0.156837,1.060808,-6.434446,-0.805028,2.904585,2.130013,0.508297,-0.849854,-0.118896,-0.491455,0.104072,-0.039185,-0.000110,0.999835,0.014522,0.010649,0.002541,0.793162,-0.027393,-0.576851,-0.193355
34212,NaN,-0.285977,-4.057944,-3.423537,1.689586,-4.571999,-11.936557,1.508390,0.029285,0.848283,-0.852051,-0.112305,-0.485107,-0.002693,-0.040331,-0.034540,0.999963,0.007542,0.000146,0.004241,0.794243,-0.023828,-0.578056,-0.185637
34213,NaN,0.954443,-2.403485,-9.020001,7.848226,-4.556345,-12.197324,1.572446,-2.316382,1.210125,-0.866943,-0.108154,-0.457520,0.010732,-0.023263,-0.090265,0.999884,0.007862,-0.011581,0.006050,0.791124,-0.018497,-0.588710,-0.164929
34214,NaN,2.574205,-3.110926,-9.394534,8.525597,-5.593424,-10.568188,1.866485,-3.851451,1.768949,-0.890381,-0.099609,-0.417480,0.027817,-0.029994,-0.093706,0.999732,0.009332,-0.019256,0.008844,0.781207,-0.019491,-0.605161,-0.152038
34215,NaN,9.965253,-0.840346,-11.401291,12.721007,-4.877456,-3.154356,2.071888,-4.257937,2.511380,-0.909912,-0.078369,-0.383545,0.102136,-0.005964,-0.111926,0.999641,0.010358,-0.021287,0.012555,0.771506,-0.018071,-0.623247,-0.126551
34216,NaN,18.887812,2.980225,-6.780213,10.508935,-1.242590,7.494503,2.264311,-3.226579,2.957783,-0.920898,-0.063477,-0.356201,0.189460,0.033343,-0.064384,0.999696,0.011320,-0.016131,0.014787,0.763293,-0.020589,-0.636669,-0.107756
34217,NaN,23.063211,1.389538,-3.288762,7.084252,-1.770718,12.351549,2.688683,-2.399157,3.101650,-0.936279,-0.046387,-0.333008,0.230746,0.017889,-0.029897,0.999717,0.013442,-0.011995,0.015507,0.757824,-0.018376,-0.647192,-0.080671
34218,NaN,24.243280,3.100721,-2.308877,6.135993,0.806524,13.942381,2.449942,-1.755061,3.167410,-0.938965,-0.020752,-0.320557,0.242086,0.035105,-0.020550,0.999761,0.012249,-0.008775,0.015836,0.753466,-0.020046,-0.654385,-0.060562
34219,NaN,20.400038,7.656399,-2.262193,5.646651,6.472544,10.338429,1.589348,-1.484365,3.012176,-0.943848,-0.001465,-0.301758,0.202972,0.079795,-0.020487,0.999827,0.007946,-0.007421,0.015060,0.749542,-0.022146,-0.660404,-0.039536
34220,NaN,18.989435,7.898207,-1.243182,4.063213,7.479835,8.949536,0.641595,-2.313428,2.790154,-0.955078,0.024170,-0.276367,0.188893,0.081657,-0.009984,0.999831,0.003208,-0.011566,0.013950,0.742399,-0.029408,-0.668780,-0.026699
34221,NaN,21.765007,12.150489,-1.697573,4.527576,12.312937,11.448776,0.161144,-3.106665,2.654780,-0.962158,0.049805,-0.251221,0.216239,0.124393,-0.013510,0.999791,0.000806,-0.015532,0.013273,0.732009,-0.037540,-0.680101,-0.014720
34222,NaN,23.272976,12.982892,3.901026,-1.581816,14.288280,12.960843,0.629717,-2.979720,3.130934,-0.969238,0.079834,-0.230225,0.230041,0.133313,0.042867,0.999762,0.003148,-0.014897,0.015653,0.722051,-0.046091,-0.690303,-0.000558
34223,NaN,18.389527,7.141776,4.950250,-3.859715,8.932454,8.045611,0.920028,-2.855704,3.832930,-0.972168,0.111816,-0.196777,0.181750,0.074678,0.052447,0.999704,0.004600,-0.014277,0.019163,0.712023,-0.057438,-0.699645,0.014878
34224,NaN,20.429435,2.174861,2.550553,-2.304508,4.818628,10.186524,0.448666,-3.197766,4.197749,-0.964844,0.152344,-0.173828,0.203336,0.025961,0.028817,0.999649,0.002243,-0.015987,0.020986,0.700404,-0.070266,-0.709544,0.032303
34225,NaN,24.449058,1.250591,2.578171,-3.019728,5.392052,14.012784,-0.142638,-2.844631,3.992018,-0.972168,0.186523,-0.148682,0.243776,0.017397,0.029241,0.999699,-0.000713,-0.014222,0.019958,0.689437,-0.086407,-0.717836,0.043851
34226,NaN,21.642050,-2.010073,4.225971,-5.335338,2.645106,11.511972,-0.088796,-2.522808,3.524229,-0.964355,0.216553,-0.125732,0.216174,-0.016270,0.044996,0.999765,-0.000444,-0.012613,0.017620,0.679409,-0.098788,-0.724860,0.056760
34227,NaN,16.725455,-0.539357,3.525903,-4.686359,3.598972,6.234468,0.188809,-2.620047,3.083773,-0.956787,0.252930,-0.106934,0.166831,-0.002854,0.037443,0.999795,0.000944,-0.013099,0.015418,0.669177,-0.110444,-0.731838,0.066463
34228,NaN,14.016531,-1.835452,2.668473,-4.079628,2.049239,3.828716,0.661450,-2.752690,2.652921,-0.957275,0.267822,-0.083740,0.140009,-0.016589,0.028556,0.999812,0.003307,-0.013763,0.013264,0.658462,-0.117003,-0.739225,0.079267
34229,NaN,12.537568,-2.693632,3.005155,-4.635290,1.140130,2.462361,1.257300,-2.867346,2.387875,-0.949219,0.289307,-0.058594,0.125240,-0.025636,0.031684,0.999806,0.006286,-0.014336,0.011939,0.647821,-0.122295,-0.746383,0.091014
34230,NaN,12.736165,1.122802,3.633063,-5.339285,5.075037,1.250336,1.139342,-2.565901,2.151578,-0.943359,0.310547,-0.046143,0.126752,0.012380,0.038028,0.999844,0.005696,-0.012829,0.010757,0.637862,-0.125447,-0.752744,0.103789
34231,NaN,10.523358,2.971287,4.258219,-5.702484,6.297686,-1.718498,0.328278,-1.644695,1.890925,-0.941895,0.332031,-0.035645,0.104592,0.030633,0.043494,0.999920,0.001641,-0.008223,0.009454,0.631220,-0.132272,-0.756298,0.109903
34232,NaN,7.465876,3.357769,3.737259,-4.751053,5.737133,-4.763819,-0.202625,-1.110041,1.679869,-0.933838,0.342773,-0.035889,0.074164,0.034240,0.037751,0.999949,-0.001013,-0.005550,0.008399,0.625933,-0.138647,-0.758763,0.115167
34233,NaN,5.893629,2.824558,3.938355,-4.703065,4.783764,-6.176867,-0.414296,-0.652192,1.391567,-0.929688,0.353271,-0.023193,0.058609,0.028736,0.039516,0.999968,-0.002071,-0.003261,0.006958,0.622838,-0.146705,-0.759675,0.115948
34234,NaN,3.622516,4.351690,3.903678,-4.130273,5.417905,-8.871821,-0.351091,-0.171053,1.038259,-0.923828,0.368408,-0.027588,0.035965,0.043773,0.038991,0.999985,-0.001755,-0.000855,0.005191,0.621319,-0.151641,-0.759639,0.117972
34235,NaN,2.339074,6.973457,2.808354,-2.549584,7.379842,-10.824912,0.258947,0.108093,0.653849,-0.923584,0.362061,-0.038086,0.023178,0.069774,0.028161,0.999994,0.001295,0.000540,0.003269,0.622077,-0.155297,-0.758217,0.118361
34236,NaN,-0.017146,12.335255,1.634538,-0.554068,11.397450,-14.774619,0.770655,0.071331,0.338365,-0.919678,0.370605,-0.040283,-0.000374,0.123288,0.016821,0.999991,0.003853,0.000357,0.001692,0.622740,-0.154223,-0.757270,0.122279
34237,NaN,-1.742229,18.025916,0.526990,1.348069,15.968435,-18.264797,0.426681,-0.633242,-0.061550,-0.919434,0.366211,-0.031738,-0.017384,0.180253,0.005599,0.999993,0.002133,-0.003166,-0.000308,0.621354,-0.154634,-0.758528,0.121012
34238,NaN,2.320452,16.184039,1.002698,0.001381,15.851868,-13.939405,-0.714547,-0.780624,-0.618819,-0.923584,0.359863,-0.031738,0.023667,0.161802,0.009541,0.999981,-0.003573,-0.003903,-0.003094,0.618203,-0.154031,-0.761850,0.116981
34239,NaN,3.113399,6.781759,4.286497,-4.034025,7.585296,-10.310188,-1.340715,0.687558,-1.086323,-0.927246,0.340576,-0.042236,0.031649,0.067931,0.042302,0.999957,-0.006703,0.003438,-0.005432,0.621175,-0.157923,-0.760609,0.103323
34240,NaN,1.665340,-0.885934,5.284311,-5.557656,0.034455,-9.042844,-1.327903,1.773399,-1.287472,-0.929199,0.334229,-0.054688,0.017065,-0.008618,0.052751,0.999918,-0.006639,0.008867,-0.006437,0.627485,-0.158054,-0.756742,0.092866
34241,NaN,0.969829,-6.296219,4.355637,-5.271985,-5.207239,-7.657503,-1.373920,2.298692,-1.360916,-0.928955,0.321289,-0.073730,0.009774,-0.062728,0.043876,0.999887,-0.006869,0.011493,-0.006804,0.636228,-0.160894,-0.750527,0.077688
34242,NaN,-0.142059,-9.461144,3.546789,-4.869661,-8.566622,-7.574274,-1.476134,2.273802,-1.220714,-0.932861,0.308594,-0.090576,-0.001588,-0.094337,0.036182,0.999890,-0.007380,0.011369,-0.006103,0.643977,-0.161874,-0.744767,0.066428
34243,NaN,1.963709,-7.497528,2.549344,-3.958311,-6.097962,-6.109406,-1.598361,2.252026,-1.141970,-0.934814,0.295898,-0.109375,0.019499,-0.074881,0.025872,0.999888,-0.007992,0.011260,-0.005710,0.651705,-0.164579,-0.738503,0.052990
34244,NaN,3.194025,-8.326083,-0.151721,-1.633518,-6.883720,-4.381924,-1.670362,2.665899,-1.217624,-0.928223,0.289551,-0.136963,0.031415,-0.083464,-0.001242,0.999858,-0.008351,0.013329,-0.006088,0.660404,-0.166208,-0.731156,0.040654
34245,NaN,6.468548,-5.687429,-6.179804,4.561301,-4.556252,-1.398131,-1.211782,2.924519,-1.437053,-0.932129,0.274414,-0.159912,0.063363,-0.057710,-0.062383,0.999849,-0.006059,0.014622,-0.007185,0.670470,-0.165148,-0.722745,0.028910
34246,NaN,12.604165,0.027162,-4.156958,3.660123,2.609709,2.674101,-0.401200,3.121139,-1.763902,-0.931885,0.257568,-0.195801,0.125368,-0.000922,-0.043529,0.999837,-0.002006,0.015605,-0.008819,0.681563,-0.160542,-0.713679,0.018966
34247,NaN,27.685202,7.293940,1.695741,-0.296408,13.901347,15.268911,-0.205112,3.593802,-2.387028,-0.927002,0.231934,-0.242188,0.277940,0.069640,0.011897,0.999767,-0.001025,0.017968,-0.011934,0.694412,-0.152464,-0.703201,0.007393
34248,NaN,34.733331,9.445513,-1.705737,4.980463,15.631676,22.261993,-2.341534,6.060447,-3.572967,-0.911377,0.199951,-0.290527,0.348192,0.087949,-0.028657,0.999313,-0.011705,0.030295,-0.017861,0.713586,-0.148152,-0.684490,-0.017865
34249,NaN,27.447421,-10.248252,-6.958455,6.803279,-7.486235,18.542705,-1.246996,7.054989,-3.913080,-0.897949,0.167969,-0.345459,0.269729,-0.108263,-0.078494,0.999167,-0.006233,0.035265,-0.019560,0.735875,-0.139303,-0.661211,-0.043391
34250,NaN,18.763343,-14.267104,-4.779282,3.703102,-13.040864,10.050627,0.972162,4.391798,-2.772383,-0.880371,0.137939,-0.376953,0.184515,-0.144996,-0.052569,0.999651,0.004860,0.021956,-0.013860,0.750211,-0.125560,-0.646965,-0.053420
34251,NaN,27.074212,-8.345213,-2.897390,5.356305,-6.963520,17.275454,2.157961,2.803922,-2.176191,-0.873535,0.118896,-0.412842,0.269365,-0.086042,-0.033676,0.999784,0.010789,0.014019,-0.010880,0.759869,-0.109922,-0.638152,-0.057259
34252,NaN,31.345930,-7.166524,-1.943503,6.518466,-6.276775,21.099249,2.537172,4.618937,-2.381355,-0.851562,0.084717,-0.457031,0.312004,-0.075071,-0.027591,0.999582,0.012684,0.023091,-0.011905,0.775000,-0.091318,-0.622374,-0.060725
34253,NaN,26.328102,-0.611808,0.673958,5.579448,-0.380535,15.926349,3.154011,5.388965,-2.922613,-0.822998,0.050537,-0.499023,0.263206,-0.009995,-0.000491,0.999406,0.015767,0.026939,-0.014610,0.792367,-0.062907,-0.604034,-0.057787
34254,NaN,26.560542,15.549778,7.742988,2.704071,15.611744,17.681842,0.654351,3.735813,-3.798638,-0.802979,0.018555,-0.522217,0.269882,0.150155,0.072912,0.999640,0.003271,0.018677,-0.018991,0.802472,-0.047741,-0.590401,-0.072013
34255,NaN,33.349335,0.528516,5.053373,5.482641,-1.271899,23.445760,-1.004584,2.973971,-3.557169,-0.783691,0.010010,-0.539062,0.334222,-0.000418,0.045560,0.999719,-0.005022,0.014868,-0.017784,0.809763,-0.037734,-0.579005,-0.087257
34256,NaN,36.536276,-1.977287,4.496100,7.011497,-5.087924,26.019433,-2.039066,0.913999,-1.836205,-0.779541,0.012207,-0.549805,0.365364,-0.022679,0.043513,0.999895,-0.010195,0.004570,-0.009181,0.811138,-0.040271,-0.574701,-0.100757
34257,NaN,30.627121,-3.573330,-1.697521,10.718941,-7.819595,18.072243,-2.881045,2.286103,-1.770076,-0.756348,0.012207,-0.581543,0.305721,-0.038714,-0.019929,0.999792,-0.014404,0.011430,-0.008850,0.815541,-0.047508,-0.564158,-0.119835
34258,NaN,25.367599,0.527205,1.802495,7.537484,-3.078405,14.282711,-3.068871,5.142186,-2.016317,-0.722900,0.022949,-0.626221,0.254064,0.002921,0.011438,0.999501,-0.015342,0.025707,-0.010080,0.827700,-0.051228,-0.541553,-0.137873
34259,NaN,18.295962,0.573580,5.683182,2.379398,-1.512133,9.144032,-2.742561,4.368779,-1.975473,-0.691406,0.027344,-0.647461,0.184191,0.004662,0.052748,0.999619,-0.013711,0.021841,-0.009876,0.836786,-0.054909,-0.521976,-0.155934
34260,NaN,5.128890,-2.841847,3.975959,-2.155409,-2.757443,-3.653270,-2.788630,4.114357,-2.678343,-0.664062,0.036133,-0.675049,0.051716,-0.028561,0.039096,0.999602,-0.013941,0.020569,-0.013390,0.844336,-0.056355,-0.503117,-0.175483
34261,NaN,1.764870,-0.991163,4.632448,-3.380534,-0.041661,-6.054343,-2.947661,3.167051,-2.856437,-0.643066,0.042480,-0.694336,0.018243,-0.009488,0.046181,0.999664,-0.014737,0.015833,-0.014281,0.847862,-0.060573,-0.487734,-0.198941
34262,NaN,0.921153,-0.312530,4.619460,-3.385125,0.864388,-6.638077,-2.745828,1.633037,-2.803865,-0.630371,0.042480,-0.704834,0.009549,-0.002624,0.046156,0.999774,-0.013728,0.008165,-0.014018,0.848032,-0.063737,-0.478819,-0.217972
34263,NaN,-1.803839,0.519968,2.555243,-2.553645,1.877519,-9.891069,-2.603072,0.941201,-2.472868,-0.626465,0.051025,-0.707031,-0.017849,0.005754,0.025564,0.999828,-0.013015,0.004706,-0.012364,0.846532,-0.067834,-0.472790,-0.235059
34264,NaN,-4.567567,-0.097101,1.611846,-3.279932,2.041427,-12.735589,-2.564941,0.316785,-1.915793,-0.626709,0.061768,-0.709229,-0.045655,-0.000326,0.016198,0.999871,-0.012824,0.001584,-0.009579,0.844049,-0.073780,-0.469024,-0.249308
34265,NaN,-6.490441,0.158317,1.670348,-3.962745,3.065750,-14.266601,-2.407497,-0.686149,-1.254896,-0.629150,0.074707,-0.705078,-0.064949,0.002190,0.016457,0.999902,-0.012037,-0.003431,-0.006274,0.839802,-0.081906,-0.469364,-0.260234
34266,NaN,-6.673682,1.517212,1.288258,-2.948637,4.192750,-14.526954,-2.077778,-1.386160,-0.593799,-0.633789,0.085449,-0.692627,-0.066778,0.015500,0.012260,0.999918,-0.010389,-0.006931,-0.002969,0.834856,-0.091034,-0.472685,-0.267014
34267,NaN,-7.751290,2.634631,-0.278964,-1.508870,4.856761,-16.234098,-1.389386,-1.651250,0.062993,-0.640381,0.093994,-0.684082,-0.077494,0.026299,-0.003612,0.999942,-0.006947,-0.008256,0.000315,0.830192,-0.099334,-0.477607,-0.269823
34268,NaN,-11.091980,0.209138,-3.130812,-1.924595,2.683147,-20.856704,-0.460295,-1.791878,0.579437,-0.651123,0.100342,-0.679932,-0.110639,0.001697,-0.032304,0.999953,-0.002301,-0.008959,0.002897,0.826427,-0.105041,-0.484114,-0.267615
34269,NaN,-12.524578,-2.926022,-8.417355,-0.108023,-1.935170,-25.061113,0.008889,-1.737881,0.902003,-0.659912,0.111084,-0.665039,-0.124374,-0.029819,-0.085258,0.999952,0.000044,-0.008689,0.004510,0.823169,-0.109755,-0.490684,-0.263771
34270,NaN,-12.618603,-4.839751,-12.895615,2.376363,-5.727204,-27.433418,0.531489,-1.628933,1.219184,-0.670410,0.111084,-0.663086,-0.124833,-0.048817,-0.130106,0.999945,0.002657,-0.008145,0.006096,0.821027,-0.112701,-0.497394,-0.256541
34271,NaN,-12.489310,-4.217880,-14.107987,3.988088,-6.025275,-27.717422,1.741562,-2.059053,1.816687,-0.683105,0.111084,-0.645996,-0.123047,-0.042064,-0.142720,0.999868,0.008707,-0.010295,0.009083,0.819027,-0.112789,-0.506956,-0.243861
34272,NaN,-5.121382,-3.187849,-14.174363,7.732584,-7.349055,-20.924461,3.245879,-2.576645,2.121350,-0.695312,0.093750,-0.628906,-0.049052,-0.030094,-0.142883,0.999729,0.016228,-0.012882,0.010606,0.816691,-0.107985,-0.520131,-0.225429
34273,NaN,-1.632353,-4.584019,-13.612529,8.411293,-9.063145,-17.299068,3.920527,-2.656257,2.104389,-0.703613,0.087402,-0.611816,-0.014041,-0.043313,-0.137188,0.999664,0.019600,-0.013280,0.010521,0.814033,-0.100285,-0.534183,-0.204797
34274,NaN,0.621018,-6.831265,-11.506384,7.009980,-10.543377,-14.184157,3.835028,-2.344396,2.064303,-0.718018,0.078613,-0.601318,0.008258,-0.066013,-0.116256,0.999694,0.019173,-0.011721,0.010320,0.811559,-0.092560,-0.546452,-0.184917
34275,NaN,1.952810,-7.629655,-6.380979,3.229252,-9.558888,-10.776114,3.086007,-1.871708,1.826053,-0.732666,0.067871,-0.596924,0.020821,-0.075116,-0.064784,0.999795,0.015429,-0.009358,0.009130,0.809524,-0.086310,-0.556167,-0.167035
34276,NaN,4.003543,-6.773922,-2.213903,0.829368,-7.688796,-7.165575,1.902804,-1.095214,1.641529,-0.730469,0.070068,-0.588379,0.040711,-0.067194,-0.022558,0.999906,0.009514,-0.005476,0.008207,0.808594,-0.084079,-0.561428,-0.154611
34277,NaN,5.470361,-5.400910,1.799919,-1.655529,-5.338470,-4.236496,0.820855,-0.992912,1.246414,-0.732666,0.070068,-0.577881,0.054950,-0.053741,0.018051,0.999960,0.004104,-0.004964,0.006232,0.807280,-0.084339,-0.565811,-0.145066
34278,NaN,9.844997,-0.102817,6.026428,-2.347316,0.411382,1.481977,-0.257579,-1.755857,0.520323,-0.751953,0.076416,-0.560791,0.097918,-0.000695,0.061127,0.999957,-0.001288,-0.008779,0.002602,0.802546,-0.088120,-0.572468,-0.142948
34279,NaN,17.888925,0.385025,11.378686,-4.724978,1.660100,10.791819,-1.516153,-1.418997,-0.084408,-0.758301,0.078613,-0.558838,0.178078,0.004644,0.115019,0.999946,-0.007581,-0.007095,-0.000422,0.797924,-0.094261,-0.577358,-0.145223
34280,NaN,24.122506,-0.255582,13.605449,-5.319219,1.112334,17.344899,-1.084147,-0.595194,-0.959789,-0.755859,0.067871,-0.548096,0.240805,-0.002972,0.136787,0.999969,-0.005421,-0.002976,-0.004799,0.794973,-0.096245,-0.579380,-0.151898
34281,NaN,20.671206,1.737301,10.638112,-3.101635,2.112203,13.195272,1.993391,0.620814,-2.198122,-0.754639,0.027100,-0.558350,0.207208,0.014040,0.105889,0.999885,0.009967,0.003104,-0.010990,0.796185,-0.080882,-0.579594,-0.153681
34282,NaN,7.719554,3.223932,0.745776,2.481449,1.955803,-2.031503,6.538932,0.627504,-3.508349,-0.752930,-0.032959,-0.555908,0.077767,0.030618,0.008233,0.999307,0.032687,0.003137,-0.017538,0.797399,-0.044154,-0.583137,-0.148847
34283,NaN,-8.619450,3.167438,-6.031550,3.996668,3.484791,-19.432890,6.975105,1.212385,-2.412139,-0.740723,-0.077881,-0.553467,-0.086146,0.034778,-0.058616,0.999301,0.034867,0.006061,-0.012058,0.800279,-0.007951,-0.583663,-0.137217
34284,NaN,-7.492909,-7.544099,-7.943681,3.801357,-6.846470,-20.527225,5.523826,0.206523,-0.627134,-0.741943,-0.110107,-0.540527,-0.075244,-0.072975,-0.081398,0.999613,0.027616,0.001032,-0.003135,0.800361,0.016124,-0.586425,-0.123564
34285,NaN,18.515614,-11.039736,8.414388,-4.630531,-13.767241,8.201887,2.233673,-0.808595,0.374481,-0.746094,-0.112305,-0.540527,0.185025,-0.110987,0.083655,0.999928,0.011168,-0.004043,0.001872,0.798101,0.023890,-0.591054,-0.114538
34286,NaN,34.040828,1.852850,-10.595725,19.902715,-6.119044,19.185174,0.778850,1.113034,1.544852,-0.741943,-0.110107,-0.553223,0.339653,0.021571,-0.107769,0.999947,0.003894,0.005565,0.007724,0.802139,0.023069,-0.587212,-0.105933
34287,NaN,21.437190,4.563517,-1.870375,8.913663,0.195072,10.295587,-0.676477,3.044171,0.967734,-0.731934,-0.097168,-0.568115,0.213829,0.046600,-0.022118,0.999867,-0.003382,0.015220,0.004838,0.811722,0.019795,-0.574740,-0.101928
34288,NaN,8.177546,-0.278971,-5.976763,8.149436,-2.418194,-4.298394,-2.247999,0.063196,-0.820384,-0.733887,-0.094971,-0.555420,0.081742,-0.003797,-0.059755,0.999928,-0.011240,0.000316,-0.004102,0.811650,0.013060,-0.573216,-0.111704
34289,NaN,8.662141,4.529508,-13.790639,16.320723,1.113163,-5.559377,-1.427944,-3.459713,-1.123499,-0.759277,-0.097168,-0.536377,0.089242,0.043820,-0.136694,0.999809,-0.007139,-0.017297,-0.005617,0.801163,0.009151,-0.586411,-0.119063
34290,NaN,6.164175,3.016080,-8.049947,9.822811,0.729385,-5.956649,0.550417,-2.728800,1.094349,-0.765625,-0.093018,-0.512939,0.062565,0.030721,-0.079566,0.999888,0.002752,-0.013643,0.005472,0.793699,0.006522,-0.597654,-0.113177
34291,NaN,6.874826,4.594943,-2.393220,4.734207,3.041425,-3.298782,2.536904,-1.885512,2.601197,-0.780518,-0.088867,-0.498291,0.068358,0.047133,-0.022694,0.999791,0.012684,-0.009427,0.013005,0.789253,0.008178,-0.606733,-0.094279
34292,NaN,8.293621,-0.718095,1.606646,0.350096,-1.756494,-1.526023,3.999470,-1.852992,3.128289,-0.793457,-0.082520,-0.472900,0.082886,-0.006214,0.016704,0.999635,0.019995,-0.009264,0.015640,0.784654,0.013594,-0.615836,-0.069846
34293,NaN,14.230567,-2.890679,1.999763,1.010711,-4.304920,4.161949,3.583358,-2.266868,3.533976,-0.806396,-0.069580,-0.456055,0.142556,-0.026761,0.021120,0.999619,0.017915,-0.011333,0.017668,0.778265,0.016318,-0.626162,-0.044262
34294,NaN,22.438103,-2.311555,2.358349,2.111803,-3.837534,12.438472,2.374223,-2.498052,3.760615,-0.826172,-0.050293,-0.430664,0.224451,-0.019196,0.026143,0.999675,0.011870,-0.012489,0.018801,0.770829,0.013226,-0.636511,-0.022387
34295,NaN,31.018266,4.743572,-1.266228,6.656663,3.711034,20.650262,0.251515,-3.117701,3.197546,-0.837402,-0.024658,-0.405518,0.309518,0.052400,-0.007770,0.999750,0.001257,-0.015587,0.015986,0.760965,0.005870,-0.648735,-0.006308
34296,NaN,25.840307,12.049691,-7.617691,11.269328,11.947383,14.705173,-0.825945,-3.187000,2.855841,-0.848633,-0.001221,-0.375977,0.257826,0.123877,-0.072572,0.999763,-0.004129,-0.015934,0.014278,0.750561,-0.006637,-0.660765,0.001786
34297,NaN,23.944436,12.550677,1.215530,1.477104,13.231099,13.745077,0.543183,-2.975924,3.350846,-0.866211,0.028564,-0.353027,0.237078,0.129452,0.016043,0.999745,0.002716,-0.014878,0.016753,0.740334,-0.015627,-0.671858,0.016365
34298,NaN,24.860694,14.085403,7.566486,-5.693735,15.628103,14.617799,1.127724,-3.257153,3.961901,-0.875488,0.058594,-0.327637,0.244473,0.145280,0.080480,0.999655,0.005638,-0.016284,0.019807,0.728901,-0.024489,-0.683281,0.035066
34299,NaN,22.979932,11.825606,9.789472,-8.948452,13.988915,12.274064,0.222238,-3.084345,4.093101,-0.878662,0.094971,-0.302734,0.225770,0.122793,0.101532,0.999671,0.001111,-0.015420,0.020463,0.717204,-0.036202,-0.694003,0.051646
34300,NaN,20.708877,3.839189,8.130671,-7.863024,6.595538,10.294091,-0.394577,-2.815007,3.784214,-0.879395,0.120605,-0.277344,0.205140,0.042450,0.084122,0.999720,-0.001973,-0.014074,0.018919,0.706187,-0.050009,-0.703320,0.064341
34301,NaN,18.492232,-1.016081,5.518950,-5.712858,2.139050,8.522731,-0.547204,-2.621335,3.237272,-0.886475,0.148438,-0.250244,0.184308,-0.007019,0.057630,0.999779,-0.002736,-0.013106,0.016185,0.695482,-0.061723,-0.712000,0.074508
34302,NaN,13.959450,-1.074503,1.485105,-2.018729,1.783783,4.005489,-0.500162,-2.825042,2.869228,-0.891357,0.178223,-0.229248,0.139501,-0.008703,0.016846,0.999794,-0.002501,-0.014124,0.014345,0.684058,-0.072610,-0.720978,0.083561
34303,NaN,12.124272,-1.918878,-0.185262,-0.655436,0.923839,2.410650,-0.205375,-3.248778,2.541612,-0.892090,0.203857,-0.195557,0.121482,-0.017646,0.000138,0.999787,-0.001027,-0.016243,0.012707,0.670795,-0.079197,-0.731420,0.093739
34304,NaN,12.224813,-2.285362,0.490852,-1.717194,0.860240,2.483793,-0.024349,-2.916748,2.352980,-0.890381,0.220947,-0.178711,0.122417,-0.021413,0.006696,0.999824,-0.000122,-0.014583,0.011764,0.658898,-0.086502,-0.740154,0.102680
34305,NaN,10.870290,-1.523064,1.583826,-2.950984,1.429834,0.781157,-0.571893,-2.049583,2.101646,-0.888672,0.238037,-0.162109,0.108684,-0.014041,0.016993,0.999888,-0.002859,-0.010248,0.010508,0.649787,-0.094269,-0.746410,0.108453
34306,NaN,8.771302,0.412761,1.961930,-3.198226,2.872488,-1.908789,-1.500187,-1.202404,1.800708,-0.889160,0.259521,-0.147461,0.087550,0.005066,0.020110,0.999913,-0.007501,-0.006012,0.009003,0.643559,-0.105202,-0.750217,0.109262
34307,NaN,7.244218,0.664296,1.662261,-2.736195,2.796739,-3.458716,-1.670459,-0.634952,1.458981,-0.885498,0.276611,-0.139160,0.072337,0.007311,0.016793,0.999933,-0.008352,-0.003175,0.007295,0.639335,-0.114610,-0.752586,0.108300
34308,NaN,4.392949,1.753206,2.099641,-2.692703,3.026756,-6.592770,-0.912969,-0.209591,1.144037,-0.887939,0.285156,-0.132812,0.043806,0.017879,0.020961,0.999973,-0.004565,-0.001048,0.005720,0.637386,-0.121716,-0.753075,0.108639
34309,NaN,2.610946,4.451640,2.930663,-3.109621,5.028030,-9.291212,0.252630,-0.141739,0.781600,-0.883789,0.289307,-0.136963,0.025915,0.044581,0.029381,0.999991,0.001263,-0.000709,0.003908,0.636570,-0.123294,-0.753031,0.111895
34310,NaN,0.491333,9.429902,3.678167,-3.344642,9.000257,-13.053210,1.046141,-0.242390,0.391515,-0.881592,0.289551,-0.139160,0.004684,0.094114,0.037280,0.999984,0.005231,-0.001212,0.001958,0.636073,-0.121300,-0.752965,0.117228
34311,NaN,0.016249,12.799790,4.023864,-3.639133,11.961094,-14.682270,1.280697,-0.526988,-0.109374,-0.881592,0.291504,-0.139160,0.000125,0.127737,0.041058,0.999976,0.006403,-0.002635,-0.000547,0.634878,-0.115572,-0.754123,0.121947
34312,NaN,1.264886,8.993777,4.910240,-4.917066,8.705188,-12.389451,0.792605,-0.059136,-0.646696,-0.887695,0.278809,-0.136963,0.012925,0.089701,0.049462,0.999987,0.003963,-0.000296,-0.003233,0.635499,-0.110579,-0.754192,0.122915
34313,NaN,0.565899,3.217022,4.956913,-4.943838,3.023771,-11.099282,-0.120455,0.809423,-0.918394,-0.883545,0.281006,-0.151855,0.006007,0.032173,0.049526,0.999981,-0.000602,0.004047,-0.004592,0.639221,-0.108053,-0.752211,0.117897
34314,NaN,-0.211715,0.069641,3.513086,-3.438792,-0.125148,-10.554480,-0.227049,1.478563,-1.001088,-0.887451,0.268066,-0.162354,-0.001854,0.000746,0.035144,0.999960,-0.001135,0.007393,-0.005005,0.645223,-0.105880,-0.748130,0.113039
34315,NaN,-0.456330,-3.536551,2.950081,-2.927323,-3.576918,-9.578661,-0.259739,1.983882,-1.071663,-0.891602,0.261719,-0.181152,-0.004459,-0.035303,0.029591,0.999936,-0.001299,0.009919,-0.005358,0.653478,-0.105336,-0.742176,0.105099
34316,NaN,-0.638851,-5.402829,1.679268,-1.712788,-5.376754,-9.054237,-0.654089,2.184586,-1.040231,-0.889404,0.257568,-0.191650,-0.006484,-0.053939,0.017040,0.999921,-0.003270,0.010923,-0.005201,0.661735,-0.104752,-0.735872,0.098114
34317,NaN,0.842119,-4.601378,1.099313,-1.320812,-4.177733,-7.839809,-0.969344,2.336399,-1.013308,-0.885010,0.250977,-0.212891,0.008317,-0.046002,0.011119,0.999907,-0.004847,0.011682,-0.005066,0.670570,-0.106522,-0.728865,0.088005
34318,NaN,2.869094,-4.171869,-1.555100,1.190672,-3.287433,-5.834169,-1.001653,2.741161,-1.169906,-0.888916,0.238281,-0.233887,0.028231,-0.041963,-0.015730,0.999876,-0.005008,0.013705,-0.005849,0.680457,-0.106809,-0.720649,0.078962
34319,NaN,5.348569,-2.053581,-6.276060,5.965878,-0.902620,-3.829440,-0.890316,3.132677,-1.466996,-0.886719,0.227783,-0.261230,0.052341,-0.021204,-0.063493,0.999841,-0.004451,0.015663,-0.007335,0.691948,-0.106525,-0.710835,0.067630
34320,NaN,10.114308,3.537390,-6.841756,7.014863,5.398431,-0.688481,-0.890172,3.408030,-1.917045,-0.877930,0.210693,-0.288818,0.100287,0.034100,-0.070285,0.999799,-0.004451,0.017039,-0.009585,0.704094,-0.103922,-0.700225,0.056005
34321,NaN,24.747229,12.756741,0.505975,1.218860,17.642379,11.693770,-1.088719,3.915601,-2.670111,-0.877441,0.189209,-0.320312,0.249173,0.124256,-0.000490,0.999704,-0.005443,0.019576,-0.013349,0.717846,-0.099370,-0.687909,0.040047
34322,NaN,33.538218,15.168721,-3.083249,7.313891,20.191650,20.225967,-4.187972,6.582693,-4.261823,-0.857422,0.157227,-0.375000,0.337176,0.143670,-0.044978,0.999012,-0.020933,0.032903,-0.021302,0.738543,-0.100960,-0.666566,0.007046
34323,NaN,19.859180,-12.106723,-9.716712,10.728846,-11.100275,10.104210,-1.992113,7.437576,-4.623550,-0.837891,0.135986,-0.423584,0.191945,-0.126565,-0.103146,0.998992,-0.009957,0.037175,-0.023110,0.761785,-0.092331,-0.640866,-0.021200
34324,NaN,17.091822,-23.028170,2.741978,-3.066442,-20.932221,9.740863,-0.817407,2.476990,-2.607486,-0.835449,0.116699,-0.440430,0.168228,-0.232378,0.026272,0.999830,-0.004087,0.012384,-0.013037,0.768938,-0.086810,-0.632441,-0.034891
34325,NaN,27.294713,-10.917776,-0.274127,4.121915,-9.591008,17.668828,0.188956,2.405860,-1.847869,-0.826416,0.099609,-0.463623,0.271863,-0.111688,-0.006121,0.999885,0.000945,0.012029,-0.009239,0.776185,-0.079765,-0.623941,-0.043269
34326,NaN,26.954544,-6.414854,-2.053981,7.317447,-6.105688,16.282267,1.387341,4.300602,-1.560118,-0.804688,0.078369,-0.501465,0.268504,-0.066075,-0.026775,0.999714,0.006936,0.021501,-0.007800,0.789594,-0.068560,-0.607997,-0.046700
34327,NaN,22.641168,-2.397610,0.840680,5.187851,-2.325291,12.246546,2.203493,5.313829,-1.840072,-0.782715,0.048584,-0.533203,0.226290,-0.026105,0.002113,0.999544,0.011016,0.026565,-0.009199,0.805704,-0.052181,-0.588020,-0.048474
34328,NaN,23.828762,10.607095,5.665090,3.778550,10.463146,14.447076,1.298673,3.884230,-2.874240,-0.758545,0.018555,-0.562500,0.240824,0.102271,0.052662,0.999687,0.006493,0.019419,-0.014370,0.816513,-0.037541,-0.573255,-0.057233
34329,NaN,29.580542,9.570206,8.048472,4.223660,8.418516,20.886859,-0.637877,3.269687,-3.564310,-0.743408,0.003662,-0.585693,0.298711,0.090641,0.075322,0.999702,-0.003189,0.016347,-0.017820,0.824543,-0.027719,-0.560374,-0.073081
34330,NaN,33.997132,-0.158642,6.334694,6.671510,-2.799992,24.003459,-1.730515,1.806362,-2.497333,-0.736816,-0.007080,-0.596191,0.340474,-0.005305,0.060308,0.999844,-0.008652,0.009031,-0.012486,0.828322,-0.027191,-0.552555,-0.088465
34331,NaN,34.278732,3.404882,5.302187,8.770520,-0.167755,23.917980,-2.961265,1.083638,-1.479732,-0.730713,0.001465,-0.613281,0.343309,0.032272,0.050676,0.999848,-0.014806,0.005418,-0.007398,0.829847,-0.035439,-0.546941,-0.104660
34332,NaN,26.129929,-1.972424,2.546971,7.420420,-5.188905,14.908453,-2.571572,2.180347,-1.281729,-0.698730,-0.002686,-0.625977,0.261426,-0.021094,0.022885,0.999837,-0.012857,0.010901,-0.006408,0.834547,-0.041455,-0.536688,-0.117381
34333,NaN,18.550744,0.933799,4.088531,4.319375,-1.362894,8.657102,-2.598862,4.416396,-2.233420,-0.676025,0.012451,-0.660156,0.186441,0.007754,0.036667,0.999609,-0.012993,0.022079,-0.011166,0.844205,-0.042893,-0.517217,-0.134034
34334,NaN,14.691689,2.371717,6.013825,2.052679,0.737691,6.088402,-2.984115,3.480734,-1.913404,-0.648682,0.014648,-0.679199,0.148153,0.023172,0.057218,0.999691,-0.014919,0.017402,-0.009566,0.851022,-0.048193,-0.500778,-0.150533
34335,NaN,4.411819,0.091951,4.063787,-1.289091,0.099032,-3.955012,-3.058733,3.085554,-2.086002,-0.631836,0.023193,-0.694092,0.044749,0.001069,0.039935,0.999710,-0.015292,0.015426,-0.010429,0.855897,-0.053764,-0.485855,-0.168800
34336,NaN,2.983171,0.223842,4.717984,-2.294748,0.722596,-4.770943,-2.813061,2.009267,-2.163849,-0.617188,0.025391,-0.702637,0.030330,0.002573,0.046842,0.999792,-0.014064,0.010046,-0.010818,0.858017,-0.058837,-0.475365,-0.185400
34337,NaN,2.281228,-0.602902,3.843611,-2.171894,-0.076070,-5.860755,-2.208891,0.817187,-2.038903,-0.606445,0.025391,-0.707031,0.022909,-0.005838,0.038408,0.999879,-0.011044,0.004086,-0.010194,0.857102,-0.062588,-0.470489,-0.200247
34338,NaN,0.132343,-0.439597,2.613523,-2.148567,0.354541,-8.296424,-1.760622,0.481038,-1.697196,-0.600098,0.025391,-0.708984,0.001350,-0.004177,0.026169,0.999922,-0.008803,0.002405,-0.008486,0.855916,-0.065653,-0.467160,-0.211799
34339,NaN,-1.144608,-0.673868,1.851999,-2.255427,0.326282,-9.789473,-1.579658,-0.007304,-1.283402,-0.596191,0.029785,-0.715576,-0.011489,-0.006518,0.018572,0.999948,-0.007898,-0.000037,-0.006417,0.854290,-0.068221,-0.466174,-0.219580
34340,NaN,-2.171864,-0.182579,0.628351,-1.570698,0.726328,-11.279121,-1.432253,-0.704109,-0.843361,-0.602539,0.036133,-0.702881,-0.021748,-0.001689,0.006219,0.999959,-0.007161,-0.003520,-0.004217,0.851199,-0.073142,-0.467880,-0.226273
34341,NaN,-1.868823,1.151870,-1.255787,0.640800,1.177846,-11.957035,-1.325268,-1.043291,-0.334103,-0.604980,0.044678,-0.694336,-0.018603,0.011466,-0.012731,0.999963,-0.006626,-0.005216,-0.001670,0.847481,-0.079469,-0.470921,-0.231718
34342,NaN,-2.706868,1.938171,-3.462970,2.339927,1.309330,-13.798379,-1.279250,-0.869386,0.190252,-0.609131,0.046875,-0.692383,-0.026936,0.019134,-0.034870,0.999970,-0.006396,-0.004347,0.000951,0.845120,-0.086341,-0.473035,-0.233573
34343,NaN,-8.254370,0.180515,-5.880909,0.878601,0.522324,-19.897621,-1.414469,-0.303252,0.645913,-0.601318,0.063965,-0.690430,-0.082459,0.001122,-0.058944,0.999969,-0.007072,-0.001516,0.003230,0.844111,-0.094510,-0.472340,-0.235456
34344,NaN,-13.944656,-4.384321,-8.877919,-1.656613,-3.026910,-26.563263,-1.267687,-0.522636,0.807814,-0.607910,0.072510,-0.681885,-0.139034,-0.044968,-0.088860,0.999968,-0.006338,-0.002613,0.004039,0.843201,-0.102379,-0.472658,-0.234788
34345,NaN,-15.297279,-9.027786,-11.005844,-2.902505,-7.734706,-29.005808,-0.199917,-1.429567,0.895585,-0.618164,0.065918,-0.673340,-0.151775,-0.091070,-0.111055,0.999964,-0.001000,-0.007148,0.004478,0.840390,-0.107285,-0.477952,-0.231943
34346,NaN,-7.288003,-6.181886,-9.455017,1.079783,-7.151198,-21.144490,1.443441,-2.307033,1.153848,-0.626709,0.063965,-0.660645,-0.071424,-0.061545,-0.095825,0.999891,0.007217,-0.011535,0.005769,0.836896,-0.106639,-0.488650,-0.222385
34347,NaN,-1.728585,-1.645660,-8.786134,5.390625,-4.414706,-15.672225,2.779851,-2.528612,1.426029,-0.634521,0.048828,-0.637207,-0.016059,-0.015349,-0.088288,0.999798,0.013898,-0.012642,0.007130,0.833470,-0.101329,-0.501579,-0.208514
34348,NaN,0.148305,-0.997003,-9.149557,7.003115,-4.282388,-13.976269,3.309715,-2.430860,1.537307,-0.650879,0.029541,-0.624268,0.002665,-0.008437,-0.091616,0.999760,0.016547,-0.012153,0.007686,0.830452,-0.093900,-0.514261,-0.192529
34349,NaN,0.114232,-2.600746,-9.318624,6.749321,-5.575188,-13.931076,3.599773,-2.525597,1.564134,-0.663330,0.018799,-0.609375,0.002517,-0.024309,-0.093608,0.999728,0.017997,-0.012627,0.007820,0.826825,-0.085283,-0.527581,-0.175342
34350,NaN,0.788093,-5.517927,-6.270209,3.637872,-7.246558,-11.963803,3.276193,-2.178679,1.472261,-0.666992,0.005859,-0.592285,0.008971,-0.054080,-0.063500,0.999779,0.016380,-0.010893,0.007361,0.823582,-0.077513,-0.538718,-0.159648
34351,NaN,1.001313,-4.675828,-2.879176,1.312093,-5.408297,-10.239645,2.186208,-1.983749,1.187821,-0.677490,-0.000732,-0.575439,0.010578,-0.046379,-0.029197,0.999873,0.010931,-0.009918,0.005939,0.819882,-0.072941,-0.548465,-0.147168
34352,NaN,4.968800,-2.225391,1.955441,-0.703286,-2.331909,-4.565591,0.796663,-2.011391,0.834016,-0.685791,-0.005127,-0.560547,0.049581,-0.022126,0.019965,0.999933,0.003983,-0.010057,0.004170,0.815214,-0.073435,-0.556958,-0.140823
34353,NaN,11.241296,0.464527,5.971990,-1.444872,0.506401,2.832389,-1.114502,-1.918826,-0.009933,-0.696289,-0.002930,-0.547852,0.111834,0.004976,0.060768,0.999938,-0.005572,-0.009594,-0.000050,0.809401,-0.078789,-0.564373,-0.141933
34354,NaN,21.230085,3.174939,8.698311,0.066493,2.512077,13.212120,-2.249301,-0.680272,-1.131876,-0.687744,-0.007324,-0.545654,0.212183,0.031529,0.087350,0.999915,-0.011246,-0.003401,-0.005659,0.805722,-0.085172,-0.565930,-0.152582
34355,NaN,20.422699,2.250976,8.878669,-0.748827,1.543538,12.503543,0.545403,0.613079,-2.437968,-0.680420,-0.037109,-0.551758,0.204750,0.019775,0.088216,0.999917,0.002727,0.003065,-0.012190,0.805760,-0.075167,-0.565240,-0.160012
34356,NaN,15.589387,3.326232,8.641442,-1.869025,2.520616,8.042889,5.862318,0.836057,-3.618675,-0.670166,-0.097168,-0.542969,0.156793,0.027893,0.086630,0.999398,0.029306,0.004179,-0.018090,0.806944,-0.040613,-0.567584,-0.158243
34357,NaN,22.107477,-3.844994,1.889804,4.091957,-8.200134,10.754901,7.102062,1.869472,-2.688089,-0.651611,-0.146484,-0.544678,0.220681,-0.042006,0.015384,0.999236,0.035501,0.009345,-0.013437,0.810924,-0.002498,-0.566030,-0.148344
34358,NaN,39.828502,3.301317,8.505724,5.935537,-5.276273,30.266903,2.572729,2.507642,-1.135908,-0.625732,-0.161377,-0.555420,0.399488,0.029692,0.080449,0.999823,0.012863,0.012537,-0.005679,0.817064,0.013009,-0.557687,-0.145676
34359,NaN,3.436173,-0.703307,-6.156408,6.667728,-2.332637,-9.267841,1.458318,3.751122,-0.498523,-0.608398,-0.176514,-0.567871,0.033182,-0.006665,-0.062243,0.999794,0.007291,0.018754,-0.002492,0.826967,0.023640,-0.543573,-0.141756
34360,NaN,-9.976634,-7.104604,0.150023,-5.345375,-4.191154,-20.005403,0.155014,1.141674,-0.030501,-0.606445,-0.174316,-0.572266,-0.099767,-0.071032,0.002015,0.999983,0.000775,0.005708,-0.000153,0.830014,0.025174,-0.538952,-0.141326
34361,NaN,-9.122384,-6.474281,-12.986141,7.039973,-5.289491,-24.517404,0.236711,-1.353786,0.571339,-0.618896,-0.174316,-0.548828,-0.090157,-0.064847,-0.130551,0.999972,0.001184,-0.006769,0.002857,0.826827,0.024322,-0.545091,-0.136536
34362,NaN,-6.285727,-2.699284,-16.497240,12.429547,-2.891814,-22.303973,0.960714,-4.796287,1.530024,-0.646240,-0.178711,-0.510742,-0.058671,-0.026655,-0.166542,0.999672,0.004803,-0.023979,0.007649,0.814410,0.020843,-0.565583,-0.128134
34363,NaN,11.502458,3.442902,-17.672990,20.629031,-0.985218,-4.353073,1.556646,-6.161584,2.718772,-0.680420,-0.166016,-0.462158,0.119894,0.037392,-0.172802,0.999403,0.007782,-0.030802,0.013591,0.798093,0.016447,-0.592003,-0.110948
34364,NaN,23.689237,7.503018,-12.245155,18.778603,1.937020,10.454738,2.334170,-4.991744,3.378564,-0.701904,-0.155518,-0.428223,0.238506,0.080427,-0.115594,0.999478,0.011669,-0.024954,0.016890,0.784583,0.012985,-0.613185,-0.090915
34365,NaN,31.307223,2.582961,-5.145653,12.022419,-2.173229,19.577725,2.262893,-3.531923,3.464234,-0.712891,-0.140625,-0.405029,0.313396,0.031795,-0.045586,0.999630,0.011313,-0.017657,0.017319,0.774601,0.010524,-0.628634,-0.068573
34366,NaN,32.853539,3.344440,0.773116,5.962940,-0.046896,22.675488,0.660097,-1.214678,3.031416,-0.723633,-0.134033,-0.394531,0.327923,0.038388,0.009845,0.999861,0.003300,-0.006073,0.015156,0.771678,0.003137,-0.633640,-0.054814
34367,NaN,14.644509,4.710485,5.515950,-2.291161,3.974105,5.872181,-0.554749,-0.618476,2.732092,-0.730469,-0.114746,-0.388184,0.145611,0.049251,0.055476,0.999898,-0.002774,-0.003092,0.013660,0.769967,-0.006930,-0.636526,-0.044029
34368,NaN,14.592339,0.984976,4.012758,-1.381500,0.618760,5.276401,-0.696761,-3.388315,2.692168,-0.743896,-0.089355,-0.350342,0.145065,0.011952,0.042551,0.999760,-0.003484,-0.016940,0.013460,0.759564,-0.018922,-0.649173,-0.035756
34369,NaN,23.776194,6.166161,0.896123,2.789534,5.932049,13.873749,-0.151418,-3.829773,2.991622,-0.754883,-0.070068,-0.322998,0.236575,0.065216,0.013451,0.999705,-0.000757,-0.019147,0.014957,0.746938,-0.029092,-0.663863,-0.022883
34370,NaN,24.506620,8.026635,4.021574,-1.006960,8.858275,14.713516,0.869752,-3.780169,3.549451,-0.765869,-0.055176,-0.289307,0.242770,0.084399,0.045180,0.999654,0.004348,-0.018899,0.017745,0.734663,-0.038045,-0.677337,-0.006185
34371,NaN,24.548614,7.006332,3.959073,-2.003639,8.802752,14.388984,0.777230,-3.649542,4.173525,-0.775146,-0.020996,-0.264160,0.243175,0.074988,0.044328,0.999608,0.003886,-0.018245,0.020865,0.721727,-0.049079,-0.690310,0.013158
34372,NaN,24.945124,3.649676,5.516311,-4.537541,6.597916,14.717694,0.323086,-3.104245,4.178431,-0.775879,0.002441,-0.238770,0.247721,0.041591,0.059082,0.999660,0.001615,-0.015519,0.020890,0.710569,-0.062111,-0.700234,0.030106
34373,NaN,23.162933,1.818505,7.167500,-7.013573,5.572454,12.789336,0.184690,-2.819943,3.884331,-0.784912,0.026123,-0.215820,0.230178,0.022597,0.074947,0.999712,0.000923,-0.014098,0.019420,0.699454,-0.074766,-0.709317,0.045210
34374,NaN,19.202879,0.216809,6.939339,-7.346834,4.037401,8.805120,0.381962,-2.488681,3.308083,-0.783447,0.053955,-0.201172,0.191076,0.005198,0.071783,0.999784,0.001910,-0.012443,0.016539,0.689867,-0.084581,-0.716549,0.059053
34375,NaN,13.150582,-0.564418,4.626086,-5.236054,2.432152,2.887995,0.713299,-2.238608,2.939501,-0.777832,0.075195,-0.178223,0.131043,-0.003884,0.047713,0.999823,0.003566,-0.011192,0.014697,0.680778,-0.092431,-0.723060,0.071991
34376,NaN,11.114486,-0.627117,1.066521,-1.852829,2.123125,1.008963,0.936787,-2.739930,2.571812,-0.773926,0.090088,-0.156982,0.111054,-0.004897,0.012162,0.999813,0.004684,-0.013699,0.012858,0.670248,-0.097534,-0.730729,0.085383
34377,NaN,11.605435,0.963241,-0.052001,-1.029642,4.030222,1.063925,0.974666,-2.529900,2.193540,-0.771973,0.100830,-0.140381,0.115933,0.010902,0.000998,0.999848,0.004873,-0.012649,0.010967,0.660145,-0.101794,-0.737908,0.096632
34378,NaN,9.373727,0.703201,-0.067451,-1.005468,3.362809,-1.092512,0.298255,-1.731121,1.894843,-0.772461,0.117920,-0.125488,0.093666,0.007920,0.000148,0.999917,0.001491,-0.008655,0.009474,0.652935,-0.106953,-0.742457,0.104859
34379,NaN,6.781856,1.295857,0.206725,-1.048424,3.287570,-3.828808,-0.594518,-1.098395,1.618636,-0.760010,0.128662,-0.121582,0.067698,0.013514,0.002400,0.999948,-0.002973,-0.005492,0.008093,0.647443,-0.115174,-0.745682,0.107285
34380,NaN,4.961864,1.736682,1.357588,-1.956394,3.208822,-5.894186,-1.062622,-0.450036,1.224072,-0.758057,0.135010,-0.119385,0.049480,0.017742,0.013594,0.999965,-0.005313,-0.002250,0.006120,0.644469,-0.122929,-0.746983,0.107541
34381,NaN,2.484363,2.182679,2.237252,-2.441460,2.884417,-8.524016,-0.745962,0.002174,0.899522,-0.747559,0.141357,-0.111084,0.024745,0.022021,0.022290,0.999983,-0.003730,0.000011,0.004498,0.643384,-0.129733,-0.746969,0.106128
34382,NaN,-0.436699,5.335734,3.016246,-2.627063,4.904069,-12.421709,0.469131,0.033956,0.592639,-0.747559,0.139404,-0.117432,-0.004520,0.053273,0.030288,0.999993,0.002346,0.000170,0.002963,0.643491,-0.130451,-0.746227,0.109763
34383,NaN,-1.428415,9.733494,3.815368,-3.077356,8.693688,-14.939711,1.299241,0.012433,0.236240,-0.747559,0.139404,-0.115234,-0.014397,0.097067,0.038786,0.999978,0.006496,0.000062,0.001181,0.644207,-0.128416,-0.745402,0.113503
34384,NaN,-2.952858,13.936326,3.250437,-2.259419,12.095023,-17.693631,1.153919,-0.258137,-0.171618,-0.743164,0.137207,-0.113281,-0.029452,0.139198,0.033270,0.999982,0.005770,-0.001291,-0.000858,0.644066,-0.123907,-0.745681,0.117415
34385,NaN,-0.670502,13.414415,2.638232,-2.009202,12.396568,-15.257326,0.386383,-0.576419,-0.563472,-0.734375,0.124268,-0.106689,-0.006404,0.134111,0.026623,0.999990,0.001932,-0.002882,-0.002817,0.642651,-0.122143,-0.747636,0.114547
34386,NaN,0.619395,6.199677,5.617185,-5.420300,5.987704,-12.079836,-0.246212,-0.040521,-0.745265,-0.734131,0.117920,-0.104492,0.006414,0.062042,0.056097,0.999992,-0.001231,-0.000203,-0.003726,0.642766,-0.120120,-0.748362,0.111255
34387,NaN,0.521470,1.146936,6.814438,-6.759578,1.256050,-10.680962,-0.499629,0.869504,-0.969667,-0.725342,0.109375,-0.108887,0.005567,0.011613,0.068092,0.999976,-0.002498,0.004347,-0.004848,0.646549,-0.121020,-0.746266,0.102058
34388,NaN,0.431237,-1.999789,3.365481,-3.488952,-1.741661,-9.260110,-0.447134,1.489402,-1.137115,-0.725098,0.096436,-0.119141,0.004450,-0.019948,0.033667,0.999954,-0.002236,0.007447,-0.005685,0.652380,-0.118973,-0.742338,0.095807
34389,NaN,-0.688905,-5.853017,1.186665,-1.467335,-5.761261,-8.921127,-0.769639,1.651494,-1.173500,-0.718262,0.087891,-0.119141,-0.007133,-0.058442,0.012150,0.999941,-0.003848,0.008257,-0.005867,0.658848,-0.120162,-0.737782,0.084607
34390,NaN,1.303201,-3.438517,0.608190,-0.978807,-2.899933,-7.685768,-1.548789,1.617423,-1.187110,-0.718262,0.081543,-0.129639,0.012878,-0.034414,0.006244,0.999920,-0.007744,0.008087,-0.005935,0.664327,-0.121555,-0.733769,0.074004
34391,NaN,2.844810,-2.638122,-0.966391,0.485031,-1.842180,-6.297423,-2.213352,2.111778,-1.390199,-0.711670,0.070801,-0.138184,0.028161,-0.026685,-0.009668,0.999859,-0.011066,0.010558,-0.006951,0.671275,-0.126388,-0.728125,0.057007
34392,NaN,4.035275,-2.337225,-3.666907,3.140681,-1.602060,-5.042119,-2.053252,2.609170,-1.666415,-0.707031,0.058105,-0.155029,0.039673,-0.024083,-0.036945,0.999827,-0.010266,0.013045,-0.008332,0.679830,-0.127931,-0.720887,0.042280
34393,NaN,6.761819,0.550272,-5.000527,4.831776,1.429638,-3.057586,-1.678546,2.950551,-1.896137,-0.706787,0.047363,-0.176025,0.066916,0.004441,-0.051036,0.999811,-0.008392,0.014752,-0.009480,0.689652,-0.128971,-0.712118,0.025170
34394,NaN,12.940212,4.793866,-2.644130,3.338811,6.893424,1.965578,-1.205592,3.228692,-2.189069,-0.693359,0.021729,-0.188477,0.129463,0.046353,-0.028814,0.999792,-0.006028,0.016142,-0.010945,0.700496,-0.125709,-0.702407,0.011241
34395,NaN,28.999000,11.851765,5.268133,-2.229825,17.415461,16.657427,-0.782539,4.178534,-2.911946,-0.684570,0.004639,-0.220215,0.292686,0.114458,0.046131,0.999668,-0.003912,0.020890,-0.014558,0.714469,-0.120080,-0.689246,-0.007473
34396,NaN,35.518942,8.563791,-2.391675,6.707061,12.401894,23.968154,-2.792397,6.315208,-4.175294,-0.671387,-0.016602,-0.260254,0.355852,0.077763,-0.036271,0.999186,-0.013958,0.031567,-0.020871,0.733807,-0.115330,-0.668540,-0.035791
34397,NaN,28.155605,-13.676539,-8.781969,8.951619,-13.313885,18.456167,-1.235752,5.523376,-4.166011,-0.653564,-0.042236,-0.281250,0.276068,-0.143126,-0.094624,0.999383,-0.006177,0.027611,-0.020826,0.749954,-0.107061,-0.649711,-0.063107
34398,NaN,25.402616,-17.054682,-1.610369,1.591930,-16.252722,16.109029,0.092807,3.259545,-2.868079,-0.636230,-0.055176,-0.302490,0.251238,-0.174154,-0.020294,0.999764,0.000464,0.016296,-0.014339,0.759504,-0.096340,-0.638908,-0.075292
34399,NaN,30.897287,-14.203926,-0.753725,2.961972,-14.321968,20.893699,0.848327,3.333137,-2.821970,-0.621094,-0.072266,-0.319336,0.306739,-0.146330,-0.013277,0.999753,0.004241,0.016664,-0.014109,0.768834,-0.084083,-0.627775,-0.087880
34400,NaN,29.546661,-8.278147,0.157200,4.351134,-9.529442,19.022671,1.511028,5.515542,-3.203990,-0.599365,-0.091309,-0.350830,0.293972,-0.087467,-0.007199,0.999463,0.007554,0.027573,-0.016017,0.784952,-0.065748,-0.608257,-0.097726
34401,NaN,27.134759,3.783167,4.970182,3.118384,2.105507,17.772802,0.970138,3.915124,-3.785774,-0.575439,-0.110596,-0.361328,0.272901,0.032451,0.044535,0.999618,0.004850,0.019573,-0.018926,0.794578,-0.049063,-0.594632,-0.112477
34402,NaN,31.858272,9.576323,6.565595,5.105281,6.082873,23.148459,-0.850995,3.203867,-4.077756,-0.555908,-0.132080,-0.384521,0.321443,0.089492,0.060132,0.999655,-0.004254,0.016017,-0.020386,0.801320,-0.038500,-0.582229,-0.131956
34403,NaN,37.832218,-4.522832,2.784108,7.313284,-10.747260,26.108444,-0.806649,2.468625,-2.970213,-0.545166,-0.134033,-0.399414,0.377903,-0.050743,0.023372,0.999805,-0.004033,0.012342,-0.014850,0.805640,-0.032100,-0.572551,-0.148656
34404,NaN,38.753097,2.467196,4.247948,8.873877,-5.096821,27.884028,-2.030319,2.859186,-2.311304,-0.521973,-0.131836,-0.418457,0.388337,0.020579,0.036709,0.999780,-0.010151,0.014295,-0.011556,0.811597,-0.031526,-0.559779,-0.164208
34405,NaN,28.938462,0.075942,1.330918,8.466984,-6.787371,17.044340,-2.829276,4.148517,-2.296252,-0.497070,-0.118896,-0.458984,0.289562,-0.002433,0.007323,0.999619,-0.014145,0.020740,-0.011480,0.820019,-0.033420,-0.541218,-0.183124
34406,NaN,19.887612,1.512195,4.321783,4.103910,-3.110074,9.931722,-3.197032,5.464447,-2.575864,-0.469727,-0.110352,-0.478027,0.200132,0.013180,0.037539,0.999416,-0.015982,0.027317,-0.012877,0.831426,-0.034532,-0.516014,-0.203143
34407,NaN,16.504109,4.943628,6.733847,2.856330,1.082707,8.429395,-3.451745,3.714159,-2.477443,-0.451172,-0.099609,-0.505615,0.166848,0.048494,0.063408,0.999602,-0.017256,0.018568,-0.012386,0.837083,-0.038722,-0.497862,-0.223441
34408,NaN,4.040046,-1.000850,1.801423,-0.202402,-1.784080,-5.648162,-3.703299,3.953579,-2.924761,-0.422119,-0.082275,-0.529297,0.040600,-0.010275,0.017402,0.999526,-0.018514,0.019765,-0.014621,0.842536,-0.042503,-0.477521,-0.245561
34409,NaN,-0.926681,0.398410,5.280243,-4.270953,2.369043,-7.567970,-3.277920,3.299770,-2.990351,-0.400879,-0.077881,-0.546143,-0.008325,0.004979,0.052869,0.999618,-0.016388,0.016497,-0.014950,0.845258,-0.045057,-0.460631,-0.267073
34410,NaN,-2.736097,2.157085,6.172396,-4.686087,5.008639,-8.027934,-2.462559,1.891619,-2.513845,-0.393066,-0.060791,-0.552734,-0.026497,0.022667,0.061703,0.999800,-0.012312,0.009457,-0.012568,0.845527,-0.047138,-0.449834,-0.283744
34411,NaN,-4.634316,1.057377,3.961894,-4.309626,4.305989,-10.896389,-1.945140,0.872335,-2.009176,-0.384766,-0.054443,-0.554932,-0.046058,0.011423,0.039712,0.999893,-0.009725,0.004362,-0.010046,0.843557,-0.049613,-0.444264,-0.297623
34412,NaN,-5.792712,0.362457,1.931489,-3.631246,3.669223,-13.094009,-1.978308,-0.189267,-1.489414,-0.389404,-0.041504,-0.563477,-0.057915,0.004246,0.019220,0.999923,-0.009891,-0.000946,-0.007447,0.840357,-0.054926,-0.442465,-0.308234
34413,NaN,-5.187789,0.554737,0.572605,-2.210056,3.110097,-13.416994,-2.202512,-1.065220,-0.930226,-0.387695,-0.028564,-0.563477,-0.051880,0.005849,0.005386,0.999914,-0.011012,-0.005326,-0.004651,0.835264,-0.063855,-0.444072,-0.317896
34414,NaN,-5.245781,1.416567,-1.085235,-0.486978,3.157345,-14.339914,-2.336252,-1.271293,-0.322283,-0.394531,-0.011475,-0.561523,-0.052364,0.014119,-0.011351,0.999910,-0.011681,-0.006356,-0.001611,0.831100,-0.074911,-0.445742,-0.323998
34415,NaN,-5.531778,2.118077,-3.057817,1.269526,2.933200,-15.662466,-2.013903,-1.426897,0.204048,-0.401367,-0.000732,-0.563721,-0.055118,0.020812,-0.031183,0.999923,-0.010069,-0.007134,0.001020,0.826729,-0.086203,-0.448493,-0.328546
34416,NaN,-8.578207,-0.030872,-6.219344,0.985558,1.148408,-20.299479,-1.472428,-1.552025,0.556334,-0.410156,0.010010,-0.563721,-0.085294,-0.001008,-0.062851,0.999939,-0.007362,-0.007760,0.002782,0.823469,-0.096081,-0.452234,-0.328863
34417,NaN,-12.518502,-3.458230,-8.806880,-0.813127,-1.092930,-25.445042,-0.819942,-1.578574,0.800854,-0.418945,0.022705,-0.557617,-0.124345,-0.035445,-0.088908,0.999952,-0.004100,-0.007893,0.004004,0.820033,-0.104068,-0.457119,-0.328264
34418,NaN,-14.827598,-7.387206,-10.713515,-2.676884,-4.293526,-28.880714,0.349929,-2.132700,0.962195,-0.431641,0.024902,-0.553223,-0.146764,-0.074391,-0.108835,0.999930,0.001750,-0.010663,0.004811,0.816855,-0.108325,-0.465917,-0.322390
34419,NaN,-10.625495,-8.918212,-11.280230,-1.335925,-7.874407,-25.808081,1.981355,-2.842011,1.306502,-0.444092,0.011963,-0.538330,-0.104049,-0.088733,-0.115172,0.999829,0.009906,-0.014209,0.006532,0.812660,-0.108020,-0.480105,-0.312114
34420,NaN,-5.506370,-5.418837,-11.016091,2.954489,-7.308515,-20.714863,3.589069,-3.365045,1.612641,-0.462646,-0.005127,-0.525391,-0.052761,-0.052621,-0.112015,0.999665,0.017943,-0.016823,0.008062,0.808756,-0.102524,-0.498357,-0.295028
34421,NaN,-1.023564,-4.636418,-11.829138,6.101872,-8.732424,-16.808439,4.311954,-3.384839,1.703393,-0.481201,-0.018066,-0.504150,-0.007840,-0.043871,-0.119401,0.999588,0.021557,-0.016922,0.008516,0.804331,-0.094299,-0.517671,-0.275999
34422,NaN,0.050384,-4.779923,-11.879496,6.995509,-9.082198,-15.513935,4.450018,-3.217880,1.692436,-0.497559,-0.033203,-0.484863,0.002815,-0.045124,-0.119786,0.999587,0.022247,-0.016087,0.008461,0.800095,-0.085185,-0.535752,-0.256050
34423,NaN,0.661864,-5.041628,-9.169485,5.354025,-8.213666,-13.525054,3.841659,-2.951711,1.658041,-0.514160,-0.046143,-0.476318,0.008388,-0.048580,-0.092525,0.999672,0.019206,-0.014757,0.008289,0.795448,-0.077756,-0.552154,-0.237365
34424,NaN,1.516890,-5.577117,-5.549812,2.617395,-7.444568,-11.200498,2.538761,-2.542618,1.460325,-0.524414,-0.054688,-0.459229,0.016282,-0.054946,-0.055997,0.999812,0.012693,-0.012712,0.007301,0.790989,-0.074692,-0.564620,-0.223520
34425,NaN,2.704377,-5.396370,-1.356027,-0.443279,-6.019215,-8.454490,1.512071,-2.485640,1.268604,-0.537109,-0.054688,-0.448730,0.027554,-0.053687,-0.013627,0.999874,0.007560,-0.012428,0.006343,0.785710,-0.074542,-0.576286,-0.212128
34426,NaN,7.466504,-3.244415,2.481546,-1.788678,-3.802515,-2.412006,0.347734,-3.089253,0.628733,-0.553955,-0.061279,-0.429443,0.074372,-0.032254,0.025910,0.999874,0.001739,-0.015446,0.003144,0.777496,-0.078253,-0.588496,-0.207482
34427,NaN,13.526468,2.080688,7.013325,-2.515840,1.465689,5.286612,-1.398862,-2.855725,0.006953,-0.564453,-0.059082,-0.416748,0.134246,0.021310,0.071907,0.999874,-0.006994,-0.014278,0.000035,0.768388,-0.085953,-0.598801,-0.208875
34428,NaN,25.390292,3.790887,10.361695,-2.720067,1.986795,17.665341,-2.888888,-1.780169,-0.530533,-0.571045,-0.052734,-0.414795,0.253073,0.038750,0.105316,0.999853,-0.014444,-0.008900,-0.002653,0.761139,-0.097307,-0.602776,-0.218769
34429,NaN,35.439324,3.352545,11.937592,-2.765266,0.093533,27.630918,-1.288792,-0.112761,-1.513422,-0.566406,-0.067627,-0.425293,0.354570,0.031612,0.119368,0.999950,-0.006444,-0.000564,-0.007567,0.758420,-0.097131,-0.603177,-0.227030
34430,NaN,21.857200,2.845331,10.473287,-4.018792,1.348120,14.217144,3.062934,3.212739,-2.895086,-0.548340,-0.106201,-0.431396,0.220587,0.023698,0.101587,0.999649,0.015313,0.016062,-0.014474,0.766032,-0.073105,-0.595679,-0.230254
34431,NaN,1.743703,0.630404,-2.754859,3.043199,-0.885909,-8.823155,7.852856,1.786936,-3.532727,-0.536133,-0.155518,-0.426758,0.017312,0.007076,-0.027436,0.999033,0.039252,0.008932,-0.017658,0.769393,-0.029823,-0.599109,-0.219577
34432,NaN,-1.714428,-12.566943,-4.746874,-0.281985,-12.213123,-15.651377,6.815969,1.871777,-0.963293,-0.539551,-0.181152,-0.417969,-0.018214,-0.123873,-0.051544,0.999364,0.034073,0.009357,-0.004815,0.774457,0.001352,-0.599167,-0.203012
34433,NaN,43.393579,-2.933858,12.474034,-4.002392,-13.340393,33.236317,2.306062,-0.895790,0.507744,-0.537354,-0.187744,-0.411621,0.433447,-0.029688,0.126342,0.999920,0.011530,-0.004479,0.002539,0.772272,0.008626,-0.605424,-0.192309
34434,NaN,22.769091,-0.824536,-13.518269,17.244131,-10.521175,7.325202,2.667259,3.476037,0.532195,-0.522217,-0.196289,-0.424316,0.225312,-0.005805,-0.139201,0.999757,0.013335,0.017379,0.002661,0.782991,0.020655,-0.594457,-0.181988
34435,NaN,-1.680288,-10.269141,-3.959124,0.763298,-9.755814,-15.122331,1.398875,2.482330,-0.256302,-0.515625,-0.202637,-0.430664,-0.017430,-0.102390,-0.040094,0.999898,0.006994,0.012411,-0.001281,0.790103,0.030238,-0.586472,-0.175709
34436,NaN,-7.235386,-5.612172,-6.261933,2.726892,-3.931562,-19.820926,0.858097,0.056448,-0.639382,-0.515381,-0.211182,-0.420166,-0.072550,-0.055621,-0.062838,0.999986,0.004290,0.000282,-0.003197,0.789554,0.035554,-0.586911,-0.175712
34437,NaN,-4.966570,-4.793828,-12.761130,9.860915,-4.773655,-19.322764,1.340894,-3.855180,-0.416450,-0.542480,-0.221924,-0.392334,-0.047288,-0.046977,-0.128855,0.999790,0.006704,-0.019275,-0.002082,0.777734,0.040009,-0.603634,-0.170747
34438,NaN,4.380195,-2.778586,-14.426157,14.133389,-5.931488,-9.934955,3.050945,-5.018324,1.332370,-0.554932,-0.226318,-0.352051,0.047583,-0.025284,-0.143498,0.999547,0.015252,-0.025088,0.006661,0.762753,0.043550,-0.625757,-0.157291
34439,NaN,14.803185,11.092315,-9.318905,13.006719,5.505008,5.332128,4.382918,-4.581274,2.796751,-0.580322,-0.228760,-0.320312,0.148488,0.114954,-0.087301,0.999400,0.021910,-0.022902,0.013981,0.749251,0.049522,-0.647464,-0.130233
34440,NaN,19.784302,9.671942,-1.245286,4.505480,4.474588,11.307129,4.595030,-3.248865,3.332225,-0.597168,-0.224365,-0.290771,0.196336,0.100202,-0.006979,0.999465,0.022971,-0.016241,0.016658,0.739353,0.053808,-0.663117,-0.103618
34441,NaN,28.041665,10.675159,0.260537,2.803570,4.712278,19.685010,3.343191,-2.500694,3.461034,-0.605957,-0.213867,-0.269531,0.278438,0.111479,0.007933,0.999632,0.016714,-0.012502,0.017303,0.731372,0.054815,-0.675351,-0.077408
34442,NaN,29.989233,16.786821,4.730621,-2.163699,11.472440,22.853676,1.888264,-1.447125,3.196629,-0.623047,-0.207520,-0.252686,0.296803,0.172158,0.051073,0.999802,0.009441,-0.007235,0.015982,0.727046,0.050359,-0.682130,-0.059729
34443,NaN,25.701389,20.743263,-2.734615,4.222817,16.918400,18.368063,0.310677,-2.483045,2.718632,-0.632080,-0.186035,-0.239990,0.254473,0.210942,-0.023850,0.999829,0.001553,-0.012415,0.013592,0.718709,0.042539,-0.692398,-0.047265
34444,NaN,25.550239,15.573809,-1.945499,2.704704,12.513855,17.301152,-0.920321,-3.044952,2.388335,-0.643066,-0.171143,-0.223145,0.253883,0.158697,-0.016307,0.999802,-0.004601,-0.015224,0.011941,0.708771,0.030240,-0.703507,-0.042511
34445,NaN,21.545993,9.243153,6.435923,-6.368139,7.468426,12.428860,-1.290559,-2.348436,2.928908,-0.650146,-0.147461,-0.219238,0.213301,0.095989,0.066261,0.999803,-0.006452,-0.011741,0.014644,0.700562,0.015286,-0.712508,-0.036218
34446,NaN,20.733051,7.914533,6.661356,-7.033224,7.029799,11.113108,-1.174407,-2.892341,3.674890,-0.659424,-0.121826,-0.200195,0.204838,0.083326,0.069107,0.999709,-0.005871,-0.014460,0.018373,0.690794,-0.002442,-0.722515,-0.027744
34447,NaN,24.046997,6.760337,4.534687,-5.656537,6.620517,14.032033,-1.203002,-2.930144,3.848905,-0.664307,-0.098389,-0.185547,0.238412,0.072490,0.048424,0.999689,-0.006014,-0.014649,0.019243,0.679925,-0.020809,-0.732750,-0.018583
34448,NaN,20.267918,1.167278,6.460482,-8.124392,2.031896,9.774910,-0.754899,-2.807499,3.590669,-0.667236,-0.070557,-0.173096,0.201490,0.015548,0.067385,0.999733,-0.003774,-0.014036,0.017952,0.669697,-0.036780,-0.741670,-0.008848
34449,NaN,17.059026,-0.974628,7.224748,-9.197144,0.498723,6.289169,-0.307256,-3.025039,3.138268,-0.669922,-0.047119,-0.154297,0.169595,-0.006966,0.074830,0.999761,-0.001536,-0.015124,0.015690,0.657891,-0.049677,-0.751472,0.000905
34450,NaN,14.229206,-0.407925,5.073311,-7.081835,1.183999,3.483641,0.037543,-3.089761,2.532681,-0.672119,-0.038574,-0.135254,0.141522,-0.002294,0.052923,0.999800,0.000188,-0.015448,0.012663,0.646132,-0.059040,-0.760871,0.010143
34451,NaN,9.423849,-3.117557,2.482545,-4.318369,-1.875976,-0.728985,0.689361,-3.331804,2.096103,-0.683350,-0.017090,-0.116455,0.094129,-0.030278,0.026289,0.999800,0.003447,-0.016658,0.010480,0.633014,-0.064748,-0.771160,0.020306
34452,NaN,9.734731,-6.318294,0.324658,-2.769620,-4.914966,0.333933,0.904390,-3.261455,1.955641,-0.675293,-0.004395,-0.101807,0.097892,-0.062246,0.004557,0.999809,0.004522,-0.016306,0.009778,0.620395,-0.069077,-0.780625,0.031033
34453,NaN,9.799530,-6.758873,-1.257955,-1.519223,-5.186553,0.868109,0.052367,-1.975266,1.889818,-0.679932,0.012695,-0.089111,0.098746,-0.066655,-0.011624,0.999907,0.000262,-0.009876,0.009449,0.611972,-0.075950,-0.786315,0.037825
34454,NaN,7.135734,-6.893416,-0.638031,-1.677576,-5.560672,-1.743904,-1.042817,-1.066581,1.759188,-0.673828,0.023438,-0.095703,0.071992,-0.068333,-0.005640,0.999934,-0.005214,-0.005333,0.008796,0.606991,-0.085844,-0.789071,0.039510
34455,NaN,5.033516,-2.923960,1.430572,-2.924235,-1.833192,-4.911755,-1.761467,-0.455400,1.571053,-0.670410,0.047119,-0.095947,0.050529,-0.028715,0.014675,0.999928,-0.008807,-0.002277,0.007855,0.603700,-0.096998,-0.790379,0.037933
34456,NaN,1.934195,1.203447,2.230942,-2.492673,1.715269,-8.807401,-1.359615,-0.298474,1.393102,-0.672607,0.055664,-0.089600,0.019224,0.012320,0.022255,0.999952,-0.006798,-0.001492,0.006965,0.601548,-0.106539,-0.790839,0.036908
34457,NaN,0.488970,6.339703,2.800327,-2.019131,6.467883,-11.349441,0.038332,-0.544106,1.250639,-0.675049,0.066406,-0.089600,0.004417,0.063420,0.028028,0.999977,0.000192,-0.002721,0.006253,0.598825,-0.110976,-0.792067,0.041510
34458,NaN,-1.451171,14.885050,2.590406,-0.285071,14.277635,-14.955060,1.140431,-0.891180,1.000877,-0.664551,0.070557,-0.087646,-0.015374,0.148624,0.026685,0.999961,0.005702,-0.004456,0.005004,0.595678,-0.111329,-0.793928,0.049516
34459,NaN,1.077492,18.781901,2.220773,-0.348397,18.583162,-13.471474,1.805364,-1.175628,0.102085,-0.666748,0.068359,-0.081299,0.010542,0.187613,0.023964,0.999942,0.009027,-0.005878,0.000510,0.591695,-0.106282,-0.797066,0.057331
34460,NaN,4.188378,6.082715,8.430044,-8.658082,7.115044,-9.678395,1.648736,0.110839,-0.670961,-0.660156,0.064209,-0.081299,0.042133,0.059989,0.084774,0.999960,0.008244,0.000554,-0.003355,0.593162,-0.098751,-0.796606,0.061856
34461,NaN,2.864786,-1.774234,6.719288,-7.364455,-0.944146,-8.639824,0.623718,1.717022,-0.910404,-0.662354,0.064209,-0.093994,0.029141,-0.018083,0.066888,0.999948,0.003119,0.008585,-0.004552,0.600446,-0.094603,-0.791806,0.059659
34462,NaN,0.926992,-4.800827,5.611172,-6.003904,-4.379512,-9.407466,0.652764,2.636499,-0.940600,-0.657959,0.060059,-0.114990,0.009781,-0.048236,0.055828,0.999897,0.003264,0.013182,-0.004703,0.611391,-0.089689,-0.784075,0.058166
34463,NaN,0.299259,-7.468806,5.551528,-5.984631,-7.117886,-9.353054,0.190773,2.850138,-0.947661,-0.662109,0.051514,-0.134033,0.003428,-0.074756,0.055397,0.999887,0.000954,0.014250,-0.004738,0.622797,-0.086813,-0.775687,0.053826
34464,NaN,1.145562,-7.495350,4.271610,-4.912370,-6.997864,-8.188633,-0.258548,2.795129,-0.942518,-0.653564,0.049316,-0.148682,0.011699,-0.074953,0.042651,0.999890,-0.001293,0.013975,-0.004712,0.633691,-0.084698,-0.767394,0.048669
34465,NaN,2.795235,-8.353030,2.062358,-3.091952,-7.601254,-6.004757,-0.578577,2.972047,-1.086234,-0.656006,0.051514,-0.165771,0.027803,-0.083622,0.020451,0.999871,-0.002893,0.014860,-0.005431,0.644987,-0.083319,-0.758512,0.041345
34466,NaN,3.940529,-6.925998,-1.185429,0.111493,-6.193128,-4.661701,-0.435776,3.307292,-1.327920,-0.649414,0.041016,-0.193115,0.038743,-0.069545,-0.012347,0.999839,-0.002179,0.016536,-0.006639,0.657499,-0.080352,-0.748385,0.034025
34467,NaN,4.327741,-1.548078,-4.546017,3.940359,-1.111024,-4.810125,-0.009699,3.764059,-1.523662,-0.642578,0.028076,-0.209961,0.042292,-0.015808,-0.046262,0.999794,-0.000048,0.018819,-0.007618,0.671644,-0.075255,-0.736528,0.027540
34468,NaN,4.723768,2.996962,-5.864619,5.737496,3.255895,-5.104884,0.345092,4.164959,-1.555521,-0.638184,0.019775,-0.235352,0.046235,0.029710,-0.059565,0.999751,0.001725,0.020823,-0.007777,0.687139,-0.068916,-0.722915,0.022012
34469,NaN,9.911730,10.261035,-3.965312,4.411941,11.102705,-1.066115,0.049901,4.364686,-1.534013,-0.631592,0.009033,-0.256348,0.099004,0.101861,-0.041789,0.999732,0.000249,0.021821,-0.007669,0.702814,-0.063661,-0.708351,0.015405
34470,NaN,24.996847,17.623104,1.398187,0.289972,20.090262,13.285238,0.312778,4.966187,-2.027417,-0.618896,0.000488,-0.292236,0.251986,0.173668,0.008014,0.999639,0.001564,0.024828,-0.010136,0.720386,-0.055736,-0.691286,0.007801
34471,NaN,41.078371,14.861615,-0.943216,5.186070,17.458929,29.893194,-1.212785,6.726357,-3.582014,-0.592773,-0.022949,-0.330322,0.412709,0.141118,-0.024164,0.999256,-0.006062,0.033623,-0.017906,0.742780,-0.048430,-0.667669,-0.012251
34472,NaN,27.250741,-4.695573,-11.561963,14.851893,-5.102432,15.706083,-0.178015,7.131869,-4.151111,-0.577637,-0.037842,-0.366211,0.267103,-0.052647,-0.125165,0.999149,-0.000890,0.035649,-0.020750,0.765636,-0.034753,-0.641635,-0.029977
34473,NaN,20.193405,-20.212145,2.105646,-0.172110,-20.300410,10.398958,-0.197628,3.648361,-2.927488,-0.560303,-0.057129,-0.383057,0.199289,-0.205033,0.017606,0.999726,-0.000988,0.018240,-0.014636,0.776402,-0.026139,-0.628160,-0.043946
34474,NaN,23.104576,-13.471482,3.601359,0.231696,-14.185296,13.142003,-0.545563,3.602445,-2.515831,-0.545166,-0.065430,-0.410400,0.229931,-0.137521,0.032238,0.999755,-0.002728,0.018011,-0.012578,0.786885,-0.019553,-0.614252,-0.055889
34475,NaN,26.265869,-4.616327,4.258642,2.111243,-6.252659,16.372303,-0.690809,4.148624,-2.819462,-0.530273,-0.071777,-0.429443,0.262785,-0.049733,0.037304,0.999680,-0.003454,0.020741,-0.014096,0.798315,-0.012524,-0.598056,-0.069757
34476,NaN,24.632854,-0.290306,6.009251,1.446661,-2.490939,15.377431,-0.459834,3.921201,-3.301715,-0.512939,-0.082520,-0.448486,0.247352,-0.006850,0.055262,0.999669,-0.002299,0.019604,-0.016507,0.808579,-0.003112,-0.582275,-0.084536
34477,NaN,23.979500,5.416324,4.183279,4.527518,2.178766,14.610946,-1.284331,2.813478,-3.130623,-0.500000,-0.091064,-0.465332,0.241160,0.050648,0.038114,0.999758,-0.006421,0.014066,-0.015652,0.815047,0.002036,-0.570535,-0.100912
34478,NaN,29.530068,-2.301310,5.022280,4.924855,-6.992550,18.985195,-1.234952,2.386039,-2.491466,-0.485352,-0.088867,-0.484619,0.295558,-0.026398,0.046854,0.999832,-0.006174,0.011930,-0.012457,0.820457,0.005317,-0.560090,-0.114551
34479,NaN,33.454104,3.418117,5.722054,7.251308,-2.717986,23.407387,-2.516404,1.952470,-1.583070,-0.477051,-0.082520,-0.497314,0.335336,0.032218,0.053536,0.999842,-0.012581,0.009762,-0.007915,0.824766,0.000637,-0.550837,-0.127828
34480,NaN,30.505779,0.399269,3.201819,8.508261,-5.791603,19.084144,-2.875747,2.475344,-1.022779,-0.456543,-0.062988,-0.516602,0.305439,0.002855,0.028193,0.999807,-0.014378,0.012376,-0.005114,0.830764,-0.006821,-0.538705,-0.139938
34481,NaN,20.123262,-1.754592,3.392758,4.580083,-5.882710,9.262844,-2.688537,4.711740,-1.866043,-0.431396,-0.058594,-0.540039,0.201788,-0.019011,0.029427,0.999589,-0.013441,0.023555,-0.009329,0.841529,-0.009492,-0.517537,-0.154579
34482,NaN,15.499057,-0.756063,9.547573,-1.710583,-3.064308,8.064393,-2.302352,4.015427,-1.996643,-0.410400,-0.050049,-0.563232,0.156788,-0.008044,0.092430,0.999682,-0.011511,0.020075,-0.009982,0.849984,-0.010905,-0.498817,-0.169082
34483,NaN,9.464259,0.309066,7.393918,-1.807949,-0.991932,2.022753,-2.223677,2.416859,-1.842319,-0.399902,-0.043701,-0.573975,0.095555,0.003027,0.072754,0.999823,-0.011118,0.012084,-0.009211,0.854068,-0.013492,-0.487158,-0.181834
34484,NaN,4.488524,-0.242254,4.512575,-1.692356,-0.680767,-3.710229,-2.080167,2.111321,-2.091825,-0.389648,-0.032959,-0.584717,0.045333,-0.002429,0.044674,0.999835,-0.010400,0.010556,-0.010459,0.857013,-0.015358,-0.476336,-0.195950
34485,NaN,2.980616,0.127174,3.935578,-1.710633,-0.007275,-5.179965,-2.015191,1.569711,-1.883907,-0.375244,-0.022217,-0.595459,0.030126,0.001384,0.039107,0.999874,-0.010076,0.007848,-0.009419,0.858578,-0.017748,-0.468182,-0.208169
34486,NaN,-0.780229,-0.993125,3.185617,-3.274121,0.112974,-8.807660,-1.909381,0.619052,-1.604526,-0.377686,-0.015625,-0.601807,-0.007781,-0.009564,0.031973,0.999917,-0.009547,0.003095,-0.008022,0.858102,-0.021543,-0.463666,-0.219569
34487,NaN,-2.492222,-1.591182,2.020412,-3.401800,-0.025837,-10.931446,-2.097195,-0.117494,-1.221343,-0.386475,-0.000732,-0.604004,-0.025030,-0.015546,0.020354,0.999926,-0.010486,-0.000587,-0.006107,0.856164,-0.027630,-0.462396,-0.228931
34488,NaN,-3.460108,-0.827937,1.248985,-2.924740,0.878450,-12.024410,-2.505055,-0.889731,-0.721723,-0.389160,0.018555,-0.602051,-0.034686,-0.007998,0.012437,0.999905,-0.012525,-0.004449,-0.003609,0.852839,-0.037702,-0.463418,-0.237672
34489,NaN,-2.674319,0.612983,0.111793,-1.018448,1.558377,-11.831155,-2.756677,-1.341736,-0.213858,-0.402100,0.025146,-0.599854,-0.026743,0.006171,0.000854,0.999882,-0.013783,-0.006708,-0.001069,0.848837,-0.050355,-0.466245,-0.244041
34490,NaN,-2.954590,2.300715,-1.103725,0.615571,2.723055,-12.541488,-2.523024,-1.058795,0.358142,-0.405029,0.050781,-0.597900,-0.029527,0.022811,-0.011482,0.999905,-0.012615,-0.005294,0.001791,0.846074,-0.063187,-0.467551,-0.248117
34491,NaN,-7.859988,3.443510,-2.673660,0.234338,4.850042,-17.376122,-2.032354,-0.522910,0.848718,-0.409668,0.065674,-0.591797,-0.078673,0.033826,-0.027288,0.999936,-0.010162,-0.002614,0.004244,0.845156,-0.074249,-0.467321,-0.248614
34492,NaN,-15.339381,1.320811,-4.304334,-2.871450,4.846750,-24.773478,-1.493361,-0.665662,1.289747,-0.416504,0.080811,-0.593994,-0.153329,0.011895,-0.043646,0.999946,-0.007467,-0.003328,0.006449,0.844589,-0.084399,-0.467799,-0.246395
34493,NaN,-16.692922,-2.266112,-7.452846,-2.846695,0.677744,-27.999372,-0.733377,-1.556373,1.580996,-0.429443,0.082764,-0.587646,-0.166155,-0.024253,-0.075736,0.999932,-0.003667,-0.007782,0.007905,0.842414,-0.093007,-0.473079,-0.240592
34494,NaN,-13.464122,-5.077897,-9.291714,-1.213348,-3.893242,-26.448506,1.127184,-2.464921,1.933207,-0.448486,0.084961,-0.579102,-0.132984,-0.051539,-0.094852,0.999861,0.005636,-0.012324,0.009666,0.839301,-0.095786,-0.483878,-0.228606
34495,NaN,-2.649861,-1.345625,-9.029324,5.338977,-3.813294,-16.690306,3.398343,-2.940320,2.325214,-0.464844,0.070068,-0.566162,-0.025018,-0.012212,-0.090883,0.999680,0.016990,-0.014700,0.011625,0.836109,-0.090373,-0.499122,-0.208883
34496,NaN,-0.663173,0.138049,-9.457201,7.465614,-2.947979,-14.857673,4.608744,-2.610364,2.369150,-0.477295,0.054932,-0.553223,-0.005430,0.003491,-0.094584,0.999579,0.023040,-0.013050,0.011844,0.833783,-0.079709,-0.513591,-0.186215
34497,NaN,-1.001503,-0.013627,-10.429075,8.384673,-2.970589,-15.345674,4.908843,-2.916719,2.310987,-0.500000,0.037842,-0.544678,-0.008510,0.002321,-0.104385,0.999526,0.024540,-0.014581,0.011553,0.829874,-0.067697,-0.529518,-0.162286
34498,NaN,0.516587,-2.128711,-9.669251,7.927263,-4.672894,-13.499116,4.582508,-2.651245,2.220555,-0.512207,0.024902,-0.523438,0.006670,-0.018997,-0.097064,0.999588,0.022909,-0.013254,0.011101,0.825849,-0.056686,-0.543291,-0.139981
34499,NaN,0.618524,-5.499926,-6.522473,4.552989,-6.869383,-12.102056,3.880182,-2.380435,2.018741,-0.526855,0.016113,-0.512695,0.007515,-0.053650,-0.066190,0.999690,0.019399,-0.011901,0.010093,0.821447,-0.047572,-0.555536,-0.119756
34500,NaN,4.759094,-5.285026,-2.260590,2.458781,-6.217156,-6.497752,2.821903,-2.459454,1.581880,-0.543701,0.016113,-0.493652,0.048284,-0.052150,-0.022754,0.999794,0.014109,-0.012296,0.007909,0.816046,-0.041837,-0.566861,-0.104815
34501,NaN,9.491052,-2.597672,2.278403,0.405537,-3.221589,-0.248679,1.085109,-2.966787,0.767440,-0.556396,0.011719,-0.478760,0.094659,-0.025741,0.024049,0.999868,0.005425,-0.014833,0.003837,0.807950,-0.040792,-0.579778,-0.097006
34502,NaN,20.275897,0.389744,6.177524,0.273329,-0.651600,11.374279,-1.694575,-3.251019,-0.382916,-0.571533,0.024658,-0.459717,0.201727,0.004052,0.065026,0.999830,-0.008472,-0.016254,-0.001914,0.797839,-0.048095,-0.592094,-0.102788
34503,NaN,32.553152,6.941707,1.053538,9.356707,3.309048,21.975295,-3.304895,-1.694280,-1.679626,-0.579834,0.024658,-0.455322,0.326002,0.066873,0.012177,0.999792,-0.016523,-0.008471,-0.008398,0.790807,-0.056770,-0.597928,-0.117827
34504,NaN,24.780825,-1.083561,5.680587,0.943532,-3.027690,15.434604,-0.533219,1.857142,-2.619271,-0.566650,0.007568,-0.472168,0.248153,-0.013937,0.054537,0.999868,-0.002666,0.009285,-0.013096,0.794540,-0.049944,-0.590961,-0.130291
34505,NaN,1.300453,-2.084902,10.811196,-10.185096,-0.042800,-5.438105,5.569721,3.535135,-3.115010,-0.558594,-0.050293,-0.471924,0.014547,-0.024062,0.107224,0.999335,0.027842,0.017672,-0.015572,0.803617,-0.015921,-0.581434,-0.126021
34506,NaN,-8.369090,-6.755238,0.903604,-4.462288,-4.842301,-18.361869,10.668830,0.219092,-2.006959,-0.561523,-0.091064,-0.458740,-0.084358,-0.067066,0.005541,0.998527,0.053318,0.001095,-0.010030,0.802635,0.032921,-0.586602,-0.102916
34507,NaN,31.025252,-19.220270,10.321321,-2.652580,-24.704863,18.840489,7.663016,-1.003427,0.572543,-0.567383,-0.110352,-0.447998,0.310310,-0.195119,0.097330,0.999249,0.038305,-0.005016,0.002862,0.797968,0.061828,-0.594538,-0.077124
34508,NaN,55.127303,2.530316,7.985865,8.654346,-8.187416,44.658317,2.195766,2.560090,1.174851,-0.548340,-0.110352,-0.475586,0.552079,0.027718,0.073090,0.999841,0.010978,0.012800,0.005874,0.805205,0.068076,-0.585466,-0.065113
34509,NaN,-1.671766,-0.184084,-11.340349,10.107908,0.579823,-15.186748,-0.359336,6.451274,0.351234,-0.533936,-0.101562,-0.501221,-0.020359,-0.002077,-0.112782,0.999477,-0.001796,0.032251,0.001756,0.823801,0.068227,-0.559490,-0.060563
34510,NaN,-7.406076,-4.645725,-12.272055,8.503998,-2.748149,-21.943722,-1.038155,1.011210,-0.546328,-0.542480,-0.099609,-0.490479,-0.074807,-0.046888,-0.122101,0.999970,-0.005191,0.005056,-0.002732,0.826775,0.065786,-0.554834,-0.065377
34511,NaN,-2.115004,3.068034,-18.855099,16.946134,4.170502,-17.860981,1.094667,-4.223368,-0.937212,-0.565186,-0.112549,-0.458740,-0.017018,0.031799,-0.188767,0.999751,0.005473,-0.021115,-0.004686,0.814028,0.072101,-0.572580,-0.065664
34512,NaN,9.414523,5.974439,-14.243061,16.490598,4.894924,-4.229228,3.690604,-5.356586,0.947443,-0.586182,-0.116943,-0.431152,0.097601,0.062784,-0.138707,0.999460,0.018450,-0.026778,0.004736,0.797216,0.082613,-0.595649,-0.053146
34513,NaN,11.730098,9.477529,-3.510087,6.097266,7.657584,2.180624,4.484340,-3.553371,3.149726,-0.609375,-0.119141,-0.403564,0.116355,0.097337,-0.030864,0.999467,0.022418,-0.017764,0.015746,0.784813,0.090661,-0.612467,-0.027082
34514,NaN,10.719505,5.443360,-2.189196,4.122706,4.184124,0.900874,4.553799,-2.267268,4.074760,-0.628906,-0.104248,-0.382324,0.106280,0.057066,-0.019404,0.999469,0.022765,-0.011334,0.020370,0.775920,0.095701,-0.623527,0.001827
34515,NaN,21.465565,1.632847,1.212332,3.025076,-0.679332,11.522854,2.559187,-2.485698,4.102713,-0.640137,-0.080566,-0.363525,0.214088,0.020544,0.015032,0.999631,0.012794,-0.012427,0.020511,0.766113,0.093237,-0.635385,0.025756
34516,NaN,31.481038,5.333503,4.109609,0.832484,2.558808,22.265509,-0.399519,-1.692683,3.632736,-0.646973,-0.061279,-0.361572,0.313409,0.059122,0.043638,0.999797,-0.001997,-0.008463,0.018162,0.760276,0.080371,-0.643511,0.037601
34517,NaN,24.593704,14.622507,-4.827588,6.164314,14.398927,14.612519,-2.156514,-2.901632,3.027439,-0.668945,-0.031494,-0.338379,0.244373,0.149426,-0.046322,0.999722,-0.010782,-0.014507,0.015136,0.750467,0.063348,-0.656517,0.042093
34518,NaN,21.275551,11.624702,-5.730457,6.464979,12.149464,10.951863,-1.698215,-3.450783,2.938231,-0.678223,-0.010010,-0.321533,0.211980,0.118894,-0.054645,0.999707,-0.008490,-0.017252,0.014690,0.738816,0.048046,-0.670586,0.046432
34519,NaN,23.262687,11.878564,4.401168,-4.129936,11.654075,13.610175,-0.723705,-3.175443,3.452946,-0.691650,0.019775,-0.296387,0.229795,0.122937,0.047236,0.999718,-0.003618,-0.015876,0.017263,0.726717,0.034628,-0.683743,0.056381
34520,NaN,20.926866,6.396082,10.444282,-10.328161,6.136706,11.245829,-0.613862,-3.242698,4.110608,-0.703125,0.049805,-0.275391,0.206164,0.068547,0.107597,0.999653,-0.003069,-0.016212,0.020551,0.714302,0.019256,-0.696198,0.068631
34521,NaN,19.144892,1.600122,9.674047,-9.824421,2.165406,9.196130,-1.100658,-3.752524,4.384294,-0.712646,0.088379,-0.254639,0.189171,0.020710,0.100199,0.999569,-0.005502,-0.018760,0.021918,0.698993,0.001256,-0.710636,0.080021
34522,NaN,21.198439,-3.186647,7.293629,-7.798279,-1.233857,11.406719,-0.720554,-3.515526,4.270317,-0.717529,0.116211,-0.231445,0.211270,-0.027078,0.076758,0.999611,-0.003602,-0.017575,0.021349,0.684501,-0.015019,-0.722986,0.092327
34523,NaN,21.550588,-2.488025,7.425230,-8.842878,0.268206,11.338901,-0.117121,-3.014205,3.803316,-0.722656,0.148193,-0.212646,0.214775,-0.020746,0.077506,0.999705,-0.000586,-0.015070,0.019015,0.671174,-0.027868,-0.733289,0.105049
34524,NaN,15.328594,-1.064385,5.867273,-7.413945,1.264475,4.813453,0.084973,-2.628077,3.185790,-0.729492,0.165283,-0.197998,0.152641,-0.008234,0.060678,0.999787,0.000425,-0.013139,0.015928,0.659707,-0.037866,-0.741489,0.116393
34525,NaN,11.300011,-5.566303,1.518546,-2.571846,-3.074153,2.224701,0.417646,-2.868523,2.773955,-0.734375,0.188721,-0.174805,0.113526,-0.054125,0.016697,0.999799,0.002088,-0.014342,0.013869,0.647018,-0.045202,-0.750376,0.127515
34526,NaN,12.511926,-6.348476,-0.896761,-0.699645,-2.939697,3.916922,0.516068,-3.231749,2.416284,-0.743164,0.201660,-0.162354,0.125999,-0.061946,-0.007097,0.999793,0.002580,-0.016158,0.012081,0.633307,-0.050517,-0.759825,0.137971
34527,NaN,12.325446,-4.356786,-1.257258,-0.899606,-0.772358,3.266289,-0.278982,-2.277558,2.044852,-0.737305,0.220947,-0.149658,0.123823,-0.042320,-0.011105,0.999882,-0.001395,-0.011387,0.010224,0.622707,-0.057623,-0.766933,0.143974
34528,NaN,9.555164,-1.098788,-0.618826,-1.443582,1.670726,-0.431151,-0.912650,-1.062735,1.631434,-0.741943,0.229492,-0.145508,0.095668,-0.010234,-0.005632,0.999942,-0.004563,-0.005314,0.008157,0.617129,-0.065940,-0.770410,0.145852
34529,NaN,6.103971,-0.784364,0.155142,-1.503688,0.990841,-3.925890,-1.248565,0.026181,1.255448,-0.750732,0.244385,-0.141357,0.061088,-0.007450,0.001591,0.999961,-0.006243,0.000131,0.006277,0.615507,-0.074684,-0.771087,0.144906
34530,NaN,2.620953,1.291626,0.251768,-0.919078,1.972426,-7.846528,-0.551709,0.699353,1.011779,-0.744873,0.259521,-0.152100,0.026152,0.013055,0.002390,0.999977,-0.002759,0.003497,0.005059,0.617221,-0.080776,-0.768964,0.145629
34531,NaN,-0.065674,5.113256,1.325787,-1.587325,4.627101,-11.806988,1.366451,0.897977,0.827320,-0.747070,0.259521,-0.160645,-0.000807,0.051037,0.013610,0.999958,0.006832,0.004490,0.004137,0.620259,-0.080465,-0.765108,0.153013
34532,NaN,-1.720382,10.123683,3.347501,-3.692469,8.460927,-15.418513,2.707247,0.569513,0.410881,-0.747070,0.257324,-0.173340,-0.017313,0.100735,0.034890,0.999902,0.013536,0.002847,0.002054,0.623122,-0.074056,-0.761056,0.164401
34533,NaN,-2.403328,14.846761,4.151123,-5.067447,12.388142,-17.829889,2.630725,-0.091690,-0.138130,-0.757812,0.261719,-0.175293,-0.023951,0.147921,0.043448,0.999913,0.013153,-0.000458,-0.000691,0.623559,-0.065479,-0.759416,0.173705
34534,NaN,-0.076189,12.396132,2.449840,-3.935783,11.030516,-14.556448,2.042065,-0.380662,-0.389478,-0.757568,0.253174,-0.175293,-0.000569,0.123704,0.025761,0.999944,0.010210,-0.001903,-0.001947,0.623056,-0.057285,-0.758940,0.180360
34535,NaN,-0.752357,5.408104,3.984334,-4.465050,3.963056,-12.982083,1.446896,0.475202,-0.552394,-0.763672,0.242432,-0.183594,-0.007279,0.053811,0.040251,0.999967,0.007234,0.002376,-0.002762,0.625651,-0.051583,-0.756514,0.183267
34536,NaN,-1.583353,-0.211709,8.545743,-7.900253,-2.506210,-12.436689,0.598949,1.231971,-0.631660,-0.759521,0.242432,-0.194336,-0.015314,-0.002324,0.085546,0.999972,0.002995,0.006160,-0.003158,0.630996,-0.048433,-0.752279,0.183234
34537,NaN,-1.812966,-0.452854,5.598476,-5.007556,-2.148772,-12.080132,0.040821,1.609380,-0.709191,-0.765625,0.238281,-0.204834,-0.017694,-0.004477,0.056127,0.999961,0.000204,0.008047,-0.003546,0.637641,-0.047553,-0.747489,0.180036
34538,NaN,-2.046413,-1.802295,2.225657,-1.523127,-2.748134,-11.399276,-0.087538,1.780194,-0.827159,-0.765381,0.229736,-0.215332,-0.020339,-0.017929,0.022446,0.999952,-0.000438,0.008901,-0.004136,0.644958,-0.046326,-0.742079,0.176639
34539,NaN,-1.953620,-4.415902,-0.471962,1.448508,-4.613584,-10.207321,-0.678434,1.627022,-0.844380,-0.765381,0.227539,-0.221680,-0.019759,-0.044091,-0.004410,0.999952,-0.003392,0.008135,-0.004222,0.651510,-0.047168,-0.737746,0.170412
34540,NaN,0.450474,-1.411581,-1.283274,1.400999,-0.965509,-8.839491,-1.507173,1.726913,-0.922406,-0.769531,0.218994,-0.229980,0.004329,-0.014232,-0.012764,0.999924,-0.007536,0.008634,-0.004612,0.658232,-0.050129,-0.733594,0.161427
34541,NaN,1.814041,-0.806512,-2.321128,2.177697,0.114555,-7.674314,-1.895478,2.199995,-1.181667,-0.771484,0.216797,-0.238525,0.017835,-0.008392,-0.023330,0.999877,-0.009477,0.011000,-0.005908,0.666615,-0.054075,-0.728245,0.149530
34542,NaN,2.578554,1.254464,-2.264578,1.862634,2.202277,-7.569871,-1.735748,2.606033,-1.436692,-0.767090,0.208252,-0.259521,0.025575,0.012161,-0.023087,0.999852,-0.008678,0.013030,-0.007183,0.676580,-0.056556,-0.721166,0.137694
34543,NaN,3.598291,3.596155,-2.930362,2.336170,4.710400,-7.201473,-1.582284,2.811751,-1.642181,-0.766846,0.197754,-0.272217,0.035856,0.035431,-0.030090,0.999836,-0.007911,0.014058,-0.008210,0.687191,-0.058189,-0.713256,0.125093
34544,NaN,7.342376,5.271342,-3.022485,2.351575,7.161457,-3.981356,-1.915023,3.096565,-1.867290,-0.758301,0.189209,-0.293213,0.073425,0.051728,-0.031860,0.999791,-0.009574,0.015482,-0.009336,0.698671,-0.060022,-0.704239,0.110920
34545,NaN,15.808326,10.109018,-1.937431,1.396473,13.547108,3.237281,-2.397128,3.663519,-2.350161,-0.758057,0.176270,-0.314209,0.158850,0.098961,-0.023474,0.999691,-0.011984,0.018316,-0.011750,0.711837,-0.062485,-0.693431,0.092393
34546,NaN,34.235672,16.972056,2.579153,-1.522621,23.452587,20.418287,-2.884988,4.735760,-3.624878,-0.749023,0.157227,-0.347900,0.345805,0.163744,0.015238,0.999451,-0.014422,0.023674,-0.018121,0.728608,-0.062328,-0.678695,0.067962
34547,NaN,37.355396,4.399714,-13.280503,16.825677,9.967377,24.942152,-3.255598,5.263793,-4.805721,-0.737549,0.127197,-0.375244,0.370754,0.032790,-0.143184,0.999233,-0.016274,0.026312,-0.024022,0.746434,-0.060202,-0.661736,0.036279
34548,NaN,24.279261,-18.793716,-8.122797,10.891694,-16.258602,15.196515,-0.256231,3.882769,-3.878846,-0.737061,0.103760,-0.400391,0.237452,-0.192685,-0.085628,0.999623,-0.001281,0.019411,-0.019392,0.759597,-0.048999,-0.648244,0.019773
34549,NaN,22.385477,-19.469856,4.734953,-1.710765,-17.377987,14.633729,-0.468827,1.950234,-2.765866,-0.723877,0.086670,-0.410889,0.221585,-0.197665,0.045642,0.999854,-0.002344,0.009751,-0.013829,0.765729,-0.042483,-0.641731,0.005960
34550,NaN,31.712254,-11.007632,2.277784,3.207682,-9.295700,22.361773,-0.688337,2.822053,-2.874838,-0.717041,0.067383,-0.440430,0.315780,-0.114553,0.018705,0.999791,-0.003441,0.014109,-0.014373,0.774536,-0.035963,-0.631458,-0.007858
34551,NaN,26.288858,-5.063447,3.621857,2.069376,-4.442707,16.751071,0.453772,4.852532,-3.338649,-0.701660,0.043945,-0.467773,0.262767,-0.055094,0.029720,0.999564,0.002269,0.024259,-0.016691,0.789205,-0.023703,-0.613313,-0.020987
34552,NaN,26.103399,11.340757,11.145307,-3.187848,11.456024,18.341526,-0.972221,2.606561,-3.701869,-0.690674,0.031250,-0.482666,0.264498,0.109062,0.107484,0.999732,-0.004861,0.013032,-0.018508,0.796456,-0.015902,-0.603236,-0.038882
34553,NaN,35.771118,0.964996,6.860680,3.324460,-0.510716,26.466594,-2.179475,1.379072,-2.597636,-0.686279,0.024902,-0.497314,0.358264,0.005728,0.066061,0.999833,-0.010897,0.006895,-0.012987,0.799523,-0.016725,-0.597713,-0.056774
34554,NaN,37.988740,1.777439,5.898795,5.453284,-0.638941,28.278003,-2.449161,1.516832,-1.635988,-0.675781,0.024902,-0.512207,0.380451,0.015361,0.055906,0.999863,-0.012245,0.007584,-0.008180,0.803250,-0.021189,-0.591045,-0.070756
34555,NaN,34.516722,7.129745,4.009044,7.787761,4.146271,24.543319,-3.476368,2.699876,-1.580952,-0.663330,0.033447,-0.537598,0.346208,0.069192,0.034206,0.999727,-0.017380,0.013498,-0.007904,0.809765,-0.029722,-0.579282,-0.088478
34556,NaN,22.744763,-4.371578,-0.598524,7.355089,-7.198475,10.941786,-2.530396,5.431130,-2.234016,-0.633545,0.029297,-0.569336,0.226676,-0.046374,-0.011573,0.999489,-0.012650,0.027151,-0.011168,0.823690,-0.031075,-0.556250,-0.105616
34557,NaN,11.210257,0.043068,6.438131,-1.575418,-0.618063,3.002279,-0.926141,4.590668,-2.604869,-0.612549,0.025146,-0.601318,0.113536,-0.000752,0.061788,0.999641,-0.004630,0.022951,-0.013023,0.834287,-0.025339,-0.537436,-0.120359
34558,NaN,11.546536,4.970846,6.983117,-0.394754,3.874126,4.029868,-0.838243,2.024169,-2.189234,-0.608154,0.020752,-0.618164,0.116700,0.048724,0.068449,0.999880,-0.004191,0.010120,-0.010946,0.838177,-0.021730,-0.528739,-0.131990
34559,NaN,6.035483,3.226543,3.384272,0.340899,2.436563,-2.585397,-1.763991,1.651058,-2.407348,-0.593506,0.022949,-0.630859,0.061015,0.031828,0.033059,0.999855,-0.008820,0.008255,-0.012036,0.840279,-0.021779,-0.521193,-0.147698
34560,NaN,4.979688,1.892770,3.794402,-0.669869,1.380717,-3.454955,-2.612595,1.061428,-2.319370,-0.593506,0.022949,-0.637207,0.050215,0.018838,0.037432,0.999833,-0.013062,0.005307,-0.011596,0.840883,-0.025923,-0.515009,-0.164347
34561,NaN,3.745482,1.532464,3.070873,-0.586108,1.155151,-4.900547,-2.710502,0.181903,-2.158772,-0.597900,0.031738,-0.647949,0.037648,0.015333,0.030467,0.999850,-0.013552,0.000909,-0.010793,0.838719,-0.031710,-0.512540,-0.181239
34562,NaN,0.589090,0.439986,3.190636,-2.307050,1.039810,-7.734994,-2.128443,-0.553593,-1.841919,-0.598145,0.033691,-0.645752,0.005845,0.004685,0.031874,0.999897,-0.010642,-0.002768,-0.009209,0.835182,-0.036415,-0.513211,-0.194316
34563,NaN,-0.442262,-0.042376,3.519233,-3.154313,1.040248,-8.567641,-1.400656,-1.319228,-1.519999,-0.606445,0.029541,-0.645752,-0.004656,-0.000143,0.035164,0.999925,-0.007003,-0.006596,-0.007600,0.829614,-0.039750,-0.517879,-0.204844
34564,NaN,-0.780803,0.836651,2.450203,-2.030963,1.697793,-9.259892,-1.316780,-1.465872,-1.045771,-0.617188,0.035889,-0.643555,-0.007943,0.008569,0.024388,0.999938,-0.006584,-0.007329,-0.005229,0.824408,-0.044005,-0.522825,-0.212293
34565,NaN,-2.239102,0.912776,-0.260690,-0.209612,1.427920,-11.770154,-1.618058,-1.059830,-0.416771,-0.619629,0.048828,-0.647949,-0.022357,0.009152,-0.002799,0.999951,-0.008090,-0.005299,-0.002084,0.820415,-0.050829,-0.525775,-0.218851
34566,NaN,-5.457670,0.145498,-4.347841,1.796423,0.382378,-16.545945,-1.863844,-0.617787,0.292369,-0.626465,0.063721,-0.652100,-0.054444,0.000969,-0.043657,0.999951,-0.009319,-0.003089,0.001462,0.818571,-0.059919,-0.526209,-0.222388
34567,NaN,-11.205863,-2.284974,-7.665283,1.475252,-1.323509,-23.436759,-2.144047,-0.146640,0.827326,-0.631592,0.085205,-0.658691,-0.111904,-0.024133,-0.076481,0.999934,-0.010720,-0.000733,0.004137,0.818025,-0.071149,-0.524354,-0.225446
34568,NaN,-16.139205,-6.129240,-10.905957,0.576462,-4.715955,-29.672091,-2.031480,-0.438706,0.955879,-0.640137,0.093750,-0.650146,-0.160854,-0.063168,-0.108778,0.999935,-0.010157,-0.002193,0.004779,0.817150,-0.082456,-0.523523,-0.226695
34569,NaN,-15.338466,-7.959686,-13.092245,1.790292,-7.741052,-29.984097,-0.797000,-1.626354,1.152102,-0.646973,0.106689,-0.644043,-0.151851,-0.080999,-0.131841,0.999942,-0.003985,-0.008132,0.005760,0.813468,-0.090662,-0.528977,-0.224127
34570,NaN,-5.160660,-2.850708,-12.882881,7.656114,-6.129974,-20.036132,1.360117,-2.681430,1.620502,-0.665771,0.102295,-0.631104,-0.049643,-0.028035,-0.129695,0.999854,0.006800,-0.013406,0.008102,0.808663,-0.092410,-0.540635,-0.212694
34571,NaN,-0.882441,-1.961777,-10.852091,8.035922,-5.592916,-14.962958,2.483352,-2.413982,1.739174,-0.682373,0.091553,-0.616211,-0.007349,-0.018336,-0.108849,0.999812,0.012416,-0.012069,0.008695,0.804655,-0.089674,-0.552424,-0.198286
34572,NaN,-0.533526,-2.777317,-11.052849,8.257923,-6.326489,-14.495463,2.836777,-2.516811,1.856979,-0.697021,0.085205,-0.607666,-0.003692,-0.026241,-0.110961,0.999777,0.014183,-0.012583,0.009284,0.800608,-0.085867,-0.564445,-0.181810
34573,NaN,0.432383,-5.790721,-9.296544,6.159439,-8.523235,-12.902050,2.903323,-2.308609,1.729727,-0.709717,0.083008,-0.599121,0.005896,-0.056504,-0.093731,0.999791,0.014516,-0.011542,0.008648,0.796405,-0.081221,-0.575848,-0.165957
34574,NaN,1.586632,-7.370745,-4.824555,2.221160,-8.659715,-10.249029,2.383259,-2.144838,1.472668,-0.721924,0.070068,-0.584229,0.016928,-0.073005,-0.048941,0.999844,0.011916,-0.010724,0.007363,0.792266,-0.077737,-0.585718,-0.152338
34575,NaN,3.375301,-5.917846,-0.870999,-0.244688,-6.325397,-7.147994,1.430228,-1.662958,1.340104,-0.732910,0.078613,-0.571533,0.034221,-0.058887,-0.008849,0.999917,0.007151,-0.008315,0.006700,0.788577,-0.077200,-0.593268,-0.142196
34576,NaN,6.341411,-4.652576,4.326177,-3.836210,-3.951202,-2.724228,0.040963,-1.465532,0.957523,-0.739258,0.078613,-0.565186,0.063317,-0.046231,0.043716,0.999962,0.000205,-0.007328,0.004788,0.784865,-0.080916,-0.598723,-0.137731
34577,NaN,12.079740,-0.905662,8.517866,-5.249651,0.303772,4.030541,-1.560464,-1.783094,0.195069,-0.752197,0.089355,-0.550537,0.120040,-0.008269,0.086318,0.999929,-0.007802,-0.008915,0.000975,0.778675,-0.088741,-0.604960,-0.140761
34578,NaN,22.921433,-1.566996,11.474208,-5.882633,-0.411430,15.181814,-2.360614,-0.717799,-0.668616,-0.756104,0.080811,-0.554688,0.228749,-0.015073,0.115744,0.999918,-0.011803,-0.003589,-0.003343,0.774891,-0.096405,-0.606380,-0.150176
34579,NaN,23.351783,-0.754762,8.598126,-3.082443,-0.808181,14.877890,0.404269,0.007030,-2.146253,-0.759766,0.054932,-0.556396,0.233421,-0.010227,0.085954,0.999940,0.002021,0.000035,-0.010731,0.773191,-0.088216,-0.608038,-0.157108
34580,NaN,18.726401,1.071699,6.986519,-2.168506,0.251476,10.081651,4.536078,0.719945,-3.746305,-0.753662,-0.002930,-0.560303,0.187652,0.005627,0.069356,0.999561,0.022677,0.003599,-0.018729,0.774066,-0.058689,-0.610243,-0.158051
34581,NaN,21.760952,3.029142,-3.185891,8.421341,-2.099079,10.620343,6.512933,2.254006,-3.395213,-0.735107,-0.060791,-0.581055,0.217724,0.027666,-0.033383,0.999262,0.032557,0.011267,-0.016972,0.779368,-0.021208,-0.607559,-0.151682
34582,NaN,33.450940,7.410619,-0.585481,10.047400,-0.497435,22.943020,5.321491,3.708371,-1.905208,-0.715088,-0.097168,-0.599854,0.335035,0.071148,-0.010145,0.999429,0.026602,0.018538,-0.009524,0.789274,0.008138,-0.597042,-0.143254
34583,NaN,8.065613,4.181279,-3.408566,6.199051,1.551211,-2.510919,1.967903,3.921490,-1.171904,-0.693359,-0.112061,-0.629395,0.080217,0.041685,-0.035251,0.999742,0.009839,0.019606,-0.005859,0.799594,0.022311,-0.583186,-0.141584
34584,NaN,-10.510348,-8.586829,-0.594087,-4.169952,-5.623601,-21.454796,0.577209,1.800203,-0.363088,-0.687012,-0.114014,-0.635742,-0.105308,-0.085661,-0.005241,0.999954,0.002886,0.009001,-0.001815,0.804453,0.026953,-0.576372,-0.141153
34585,NaN,-11.003912,-4.737682,-4.453298,0.006481,-2.264736,-22.391803,-0.148008,-0.326256,0.379600,-0.699707,-0.112061,-0.625244,-0.109876,-0.047618,-0.044677,0.999997,-0.000740,-0.001631,0.001898,0.803546,0.025148,-0.578041,-0.139819
34586,NaN,-12.499540,-9.975444,-10.694502,4.679304,-7.835594,-26.747540,0.885757,-3.037446,1.594089,-0.733643,-0.109863,-0.599854,-0.122550,-0.100257,-0.109262,0.999843,0.004429,-0.015186,0.007970,0.795613,0.021974,-0.591015,-0.131223
34587,NaN,1.582385,-1.824878,-12.915673,12.401418,-3.647872,-12.156329,1.420960,-5.581166,2.679483,-0.770020,-0.099365,-0.553223,0.019655,-0.017087,-0.128768,0.999496,0.007104,-0.027901,0.013395,0.780055,0.016196,-0.614556,-0.116505
34588,NaN,19.160089,4.570075,-15.257453,19.133574,-0.719331,6.121649,2.199333,-6.096012,3.593123,-0.806152,-0.086670,-0.510742,0.195238,0.050818,-0.146120,0.999314,0.010994,-0.030473,0.017962,0.762672,0.010176,-0.639516,-0.096158
34589,NaN,33.197089,5.943710,-8.915108,14.106574,0.379117,22.081806,2.681433,-5.036564,3.603730,-0.825684,-0.073730,-0.481201,0.332905,0.066544,-0.079914,0.999431,0.013405,-0.025178,0.018015,0.747334,0.006633,-0.660325,-0.073609
34590,NaN,41.257929,4.109399,-0.426292,5.115199,-0.193174,31.331262,1.669414,-2.807173,3.032788,-0.836426,-0.061035,-0.466553,0.411895,0.047345,0.001900,0.999752,0.008346,-0.014035,0.015163,0.738905,0.001829,-0.671404,-0.056847
34591,NaN,21.235561,9.516581,2.819538,-0.108553,8.100918,12.182784,0.825421,0.249408,2.537032,-0.832764,-0.043945,-0.462402,0.211162,0.097733,0.028331,0.999910,0.004127,0.001247,0.012685,0.739918,-0.003404,-0.671229,-0.044289
34592,NaN,10.313883,7.303258,2.338672,-0.971469,6.947130,0.955725,-0.088905,-2.779404,2.606054,-0.854736,-0.016113,-0.441406,0.101838,0.074376,0.024775,0.999818,-0.000444,-0.013896,0.013029,0.730995,-0.013086,-0.681365,-0.034897
34593,NaN,22.212454,9.480858,-1.402476,3.156944,8.973137,12.428495,-0.691214,-3.996121,2.868240,-0.874512,0.011719,-0.411865,0.220961,0.097944,-0.009937,0.999692,-0.003456,-0.019979,0.014340,0.717122,-0.026002,-0.695965,-0.026327
34594,NaN,24.814257,7.700556,2.362664,-1.500088,8.281415,14.878277,-0.262059,-4.002279,3.465133,-0.892334,0.041504,-0.380371,0.246221,0.081318,0.028462,0.999649,-0.001310,-0.020009,0.017324,0.703328,-0.039507,-0.709623,-0.014290
34595,NaN,26.362699,6.721859,3.287627,-3.422905,8.455855,16.024944,-0.499751,-3.716699,3.997791,-0.903809,0.075928,-0.357422,0.261543,0.072551,0.037573,0.999624,-0.002498,-0.018581,0.019986,0.689560,-0.055739,-0.722079,-0.001351
34596,NaN,26.169444,3.036061,5.925656,-7.085185,6.112789,15.514118,-1.288561,-3.003778,3.974241,-0.909180,0.112305,-0.338623,0.260090,0.035938,0.062952,0.999669,-0.006442,-0.015017,0.019869,0.678116,-0.074520,-0.731118,0.008534
34597,NaN,22.783083,-1.669702,8.619640,-10.590240,2.325745,12.061648,-1.245122,-2.758838,3.503802,-0.916260,0.142090,-0.317627,0.226852,-0.012167,0.089415,0.999732,-0.006225,-0.013793,0.017517,0.666778,-0.091549,-0.739426,0.016607
34598,NaN,19.310809,-4.019852,9.753783,-12.192090,0.344997,8.500430,-0.379984,-3.249476,2.845673,-0.918945,0.165527,-0.290283,0.192033,-0.037272,0.100737,0.999765,-0.001900,-0.016246,0.014227,0.654156,-0.103033,-0.748852,0.026173
34599,NaN,15.260029,-4.049582,6.006122,-8.497558,-0.323756,4.781785,0.580265,-3.241515,2.489552,-0.927979,0.189209,-0.271484,0.152091,-0.038779,0.062415,0.999787,0.002901,-0.016206,0.012447,0.641481,-0.110165,-0.758243,0.037863
34600,NaN,11.245966,-6.977232,2.470896,-5.068314,-4.013277,1.996402,1.658283,-2.939334,2.593874,-0.937256,0.210449,-0.258789,0.112980,-0.068520,0.025795,0.999774,0.008291,-0.014696,0.012968,0.630572,-0.114085,-0.765793,0.054080
34601,NaN,12.904208,-4.231848,1.263864,-4.132549,-0.735637,3.163910,1.061013,-2.527192,2.244943,-0.941650,0.218994,-0.237793,0.129335,-0.040940,0.014052,0.999843,0.005305,-0.012635,0.011224,0.620472,-0.118761,-0.772332,0.066439
34602,NaN,10.833122,-2.167579,-0.654585,-1.839974,0.857609,1.066541,-0.436439,-1.371036,1.642469,-0.939941,0.234131,-0.235840,0.108546,-0.020798,-0.005756,0.999940,-0.002182,-0.006855,0.008212,0.614292,-0.125980,-0.775746,0.070661
34603,NaN,7.962354,0.574442,-1.898535,0.184896,2.745534,-2.082174,-1.495192,-0.609597,1.212091,-0.942383,0.251221,-0.225342,0.079645,0.006086,-0.018787,0.999949,-0.007476,-0.003048,0.006060,0.610229,-0.135172,-0.777574,0.068758
34604,NaN,3.438510,0.564891,-2.176191,1.429403,1.428116,-6.235602,-1.114575,0.000862,1.023886,-0.942627,0.257568,-0.233887,0.034356,0.005703,-0.021794,0.999971,-0.005573,0.000004,0.005119,0.609066,-0.142535,-0.777277,0.067549
34605,NaN,-0.294232,4.325190,-1.145496,1.771549,3.936737,-11.024938,0.398670,0.305622,0.851434,-0.942871,0.261963,-0.238037,-0.003144,0.043262,-0.011364,0.999988,0.001993,0.001528,0.004257,0.609954,-0.144876,-0.775819,0.071220
34606,NaN,-1.889260,7.321240,1.273872,0.109651,6.416866,-14.008191,2.009050,0.291695,0.555564,-0.940674,0.261963,-0.252930,-0.019076,0.073027,0.013501,0.999945,0.010045,0.001458,0.002778,0.612265,-0.140985,-0.773806,0.080496
34607,NaN,-2.741360,12.861593,3.508759,-1.428522,11.444185,-17.039587,2.421672,0.011543,0.262036,-0.947266,0.264160,-0.259277,-0.027580,0.128142,0.036643,0.999926,0.012108,0.000058,0.001310,0.613599,-0.134793,-0.772771,0.090289
34608,NaN,-1.487903,13.747346,5.026656,-3.351279,12.640909,-16.553751,1.716179,-0.338524,-0.114289,-0.942871,0.255615,-0.261230,-0.014887,0.137044,0.051419,0.999962,0.008581,-0.001693,-0.000571,0.613432,-0.128911,-0.773119,0.096798
34609,NaN,1.421443,8.865807,7.564753,-6.991879,8.901957,-12.929716,0.982195,0.079109,-0.575847,-0.948730,0.240479,-0.267578,0.014499,0.088244,0.076076,0.999984,0.004911,0.000396,-0.002879,0.614440,-0.124067,-0.772940,0.098154
34610,NaN,2.008581,1.492561,10.375537,-10.438205,2.045032,-10.692765,0.315654,0.863009,-0.853727,-0.948486,0.234131,-0.271729,0.020596,0.014675,0.103691,0.999980,0.001578,0.004315,-0.004269,0.618334,-0.120202,-0.770686,0.096217
34611,NaN,1.359371,-2.362363,7.308039,-7.571402,-1.825896,-9.393804,0.239804,1.330266,-0.892931,-0.946045,0.221436,-0.288574,0.013973,-0.023773,0.072960,0.999967,0.001199,0.006651,-0.004465,0.623891,-0.117048,-0.767096,0.092862
34612,NaN,0.024733,-4.008453,4.247984,-4.413092,-3.811582,-9.481044,0.453382,1.534327,-0.821402,-0.945801,0.206299,-0.303223,0.000408,-0.040182,0.042386,0.999960,0.002267,0.007672,-0.004107,0.630353,-0.113173,-0.762588,0.091139
34613,NaN,-0.784924,-5.239192,0.460302,-0.619526,-5.243441,-9.180586,0.139904,1.448364,-0.710603,-0.943604,0.206299,-0.311768,-0.008002,-0.052367,0.004624,0.999967,0.000700,0.007242,-0.003553,0.636163,-0.111005,-0.758441,0.087984
34614,NaN,0.052230,-1.974570,-1.286388,1.142363,-1.899441,-9.010518,-0.686364,1.476003,-0.646318,-0.935059,0.199951,-0.326416,0.000364,-0.019791,-0.012799,0.999962,-0.003432,0.007380,-0.003232,0.641596,-0.111365,-0.754417,0.082504
34615,NaN,1.858025,-0.297369,-2.346857,2.030678,0.147554,-7.598515,-1.342996,1.869202,-0.807532,-0.930664,0.191406,-0.334961,0.018347,-0.003206,-0.023620,0.999926,-0.006715,0.009346,-0.004038,0.648071,-0.113653,-0.749479,0.073268
34616,NaN,3.749679,1.566909,-3.713288,3.338007,2.311842,-6.095847,-1.267554,2.327354,-1.069271,-0.923828,0.178711,-0.353760,0.037143,0.015232,-0.037664,0.999898,-0.006338,0.011636,-0.005346,0.656355,-0.114578,-0.742973,0.063725
34617,NaN,6.674975,3.998500,-4.994585,4.650139,5.186831,-3.733528,-0.986352,2.641798,-1.322578,-0.921387,0.163818,-0.372803,0.066342,0.039296,-0.051019,0.999879,-0.004932,0.013208,-0.006613,0.665812,-0.113985,-0.735407,0.053645
34618,NaN,13.007644,8.619333,-3.132033,3.011565,11.101792,1.185490,-0.821897,2.972320,-1.594508,-0.910645,0.155273,-0.400146,0.130269,0.085020,-0.033606,0.999849,-0.004109,0.014861,-0.007972,0.676557,-0.111623,-0.726573,0.043614
34619,NaN,25.500565,18.100308,3.622487,-2.571801,23.269070,11.228830,-1.925873,4.122707,-2.324804,-0.895508,0.144531,-0.434082,0.257739,0.178321,0.029205,0.999674,-0.009628,0.020611,-0.011623,0.690593,-0.110863,-0.714234,0.025704
34620,NaN,26.670942,13.745545,-0.589530,2.798230,17.864276,14.126518,-5.465304,6.078199,-3.782593,-0.878418,0.127686,-0.478271,0.268822,0.132007,-0.017703,0.998986,-0.027317,0.030381,-0.018907,0.709008,-0.116880,-0.695371,-0.010258
34621,NaN,26.019330,-14.129696,-10.121257,8.383208,-12.680063,17.530964,-4.640494,4.893377,-4.434049,-0.861084,0.112793,-0.505859,0.254417,-0.149374,-0.104082,0.999186,-0.023196,0.024460,-0.022164,0.722315,-0.117994,-0.679859,-0.046149
34622,NaN,25.891226,-18.621701,-7.479615,4.745975,-17.756987,17.300942,-2.544794,1.689538,-2.434183,-0.858643,0.106201,-0.507812,0.255982,-0.190294,-0.074563,0.999809,-0.012723,0.008447,-0.012170,0.725816,-0.118489,-0.674523,-0.064578
34623,NaN,26.186071,-12.731156,0.239823,-1.247192,-10.767989,17.211598,-0.859156,1.800132,-1.785148,-0.849854,0.095703,-0.524658,0.260721,-0.129637,0.000602,0.999910,-0.004296,0.009000,-0.008925,0.730492,-0.115263,-0.668837,-0.075844
34624,NaN,24.254171,-11.809485,0.706310,-1.165324,-10.459336,15.034505,0.377643,3.566981,-1.843867,-0.834473,0.067871,-0.558350,0.241511,-0.120332,0.002524,0.999797,0.001888,0.017834,-0.009219,0.741749,-0.106335,-0.656927,-0.083357
34625,NaN,26.298305,-11.147662,1.158853,-0.274299,-10.545856,16.752593,2.305525,4.335054,-2.606091,-0.805908,0.033691,-0.585693,0.261650,-0.114972,0.004595,0.999614,0.011526,0.021672,-0.013029,0.755607,-0.087532,-0.643118,-0.088290
34626,NaN,28.665760,-4.019347,4.298366,0.000263,-4.185017,19.144776,2.871731,4.910887,-3.653537,-0.779541,-0.004883,-0.621582,0.286783,-0.045976,0.035309,0.999429,0.014356,0.024550,-0.018264,0.770568,-0.062715,-0.627116,-0.094960
34627,NaN,31.246195,16.366872,10.372192,0.401243,15.186544,23.662590,-0.017446,3.791911,-4.567569,-0.763672,-0.034668,-0.638184,0.317981,0.156457,0.097714,0.999560,-0.000087,0.018957,-0.022834,0.779717,-0.046711,-0.613866,-0.114142
34628,NaN,37.479899,0.975845,7.719637,1.434239,-2.332694,28.367328,-1.925877,1.749392,-2.147438,-0.755371,-0.034668,-0.653076,0.375536,0.006451,0.073841,0.999858,-0.009629,0.008747,-0.010737,0.783261,-0.046618,-0.606410,-0.128823
34629,NaN,30.539901,-8.081190,1.958451,3.258407,-12.162038,19.225711,-2.153876,2.346360,-2.389572,-0.738281,-0.039062,-0.674316,0.304615,-0.084263,0.016903,0.999802,-0.010769,0.011731,-0.011947,0.787929,-0.046383,-0.596467,-0.145751
34630,NaN,23.095174,-7.404165,2.028262,1.951843,-10.995860,11.809227,-1.891791,4.169682,-3.111551,-0.712646,-0.049561,-0.701660,0.230130,-0.077460,0.016201,0.999617,-0.009458,0.020846,-0.015556,0.797317,-0.041498,-0.579207,-0.164567
34631,NaN,15.935163,-2.700565,5.730819,-1.458582,-4.766734,6.593780,-1.673326,3.985210,-3.042846,-0.682861,-0.053711,-0.731445,0.160024,-0.028974,0.054361,0.999651,-0.008366,0.019924,-0.015212,0.805502,-0.036074,-0.562616,-0.182561
34632,NaN,13.114195,4.426175,5.894602,0.373998,2.122469,5.074935,-1.735780,3.144127,-2.757392,-0.667969,-0.060059,-0.750488,0.132641,0.042937,0.056492,0.999744,-0.008678,0.015719,-0.013786,0.811273,-0.032429,-0.548775,-0.199076
34633,NaN,8.941824,2.321771,3.720989,0.541179,0.430334,0.122215,-2.134401,2.864929,-2.663287,-0.644531,-0.066406,-0.769531,0.090239,0.022406,0.035679,0.999752,-0.010671,0.014323,-0.013315,0.815721,-0.030911,-0.535566,-0.216363
34634,NaN,3.419683,1.087965,3.716100,-1.568808,0.906366,-4.975091,-2.604508,2.496015,-2.579393,-0.621582,-0.051514,-0.784668,0.034796,0.010912,0.036587,0.999754,-0.013021,0.012479,-0.012896,0.818975,-0.031921,-0.522889,-0.234197
34635,NaN,-0.661361,0.542257,4.559396,-3.798160,2.107701,-8.184975,-2.251359,1.400391,-2.374375,-0.619385,-0.055664,-0.782471,-0.006225,0.006011,0.045573,0.999842,-0.011256,0.007002,-0.011871,0.819156,-0.033271,-0.515044,-0.250212
34636,NaN,-1.757421,1.015780,3.927768,-3.369792,2.808218,-9.260278,-1.598667,0.335206,-2.136205,-0.617188,-0.057861,-0.788818,-0.017396,0.010658,0.039223,0.999910,-0.007993,0.001676,-0.010681,0.816971,-0.033900,-0.512033,-0.263119
34637,NaN,-1.833829,1.989081,2.613336,-1.798084,3.302120,-9.706621,-1.444789,-0.285993,-1.671134,-0.619385,-0.053711,-0.790771,-0.018207,0.020231,0.025962,0.999938,-0.007224,-0.001430,-0.008355,0.813537,-0.035892,-0.511743,-0.273841
34638,NaN,-1.652864,2.274758,1.127202,-0.327243,2.989096,-10.180042,-1.760603,-0.328657,-1.119956,-0.621826,-0.047119,-0.788818,-0.016419,0.022938,0.011044,0.999944,-0.008803,-0.001643,-0.005600,0.810765,-0.040642,-0.510894,-0.282835
34639,NaN,-2.616167,2.796889,-1.849500,2.084277,2.745053,-12.304174,-2.283859,-0.323241,-0.522118,-0.624268,-0.032227,-0.788818,-0.026059,0.027823,-0.018855,0.999930,-0.011419,-0.001616,-0.002611,0.808462,-0.049023,-0.509209,-0.291019
34640,NaN,-2.649581,3.611217,-5.111084,5.125486,2.102998,-13.748303,-2.411410,-0.412593,-0.054971,-0.628906,-0.017090,-0.784668,-0.026380,0.035499,-0.051596,0.999925,-0.012057,-0.002063,-0.000275,0.806643,-0.059235,-0.507397,-0.297265
34641,NaN,-7.136722,2.527042,-7.266295,4.851244,2.078789,-18.882355,-2.004539,-0.454679,0.311617,-0.631592,-0.002197,-0.784912,-0.071240,0.024428,-0.073073,0.999946,-0.010023,-0.002273,0.001558,0.805074,-0.068784,-0.506300,-0.301306
34642,NaN,-9.853849,-1.277942,-9.314038,3.476398,-0.919954,-22.948412,-1.309989,-0.900619,0.597547,-0.640381,0.008545,-0.774414,-0.098078,-0.013685,-0.093495,0.999964,-0.006550,-0.004503,0.002988,0.803178,-0.076932,-0.507781,-0.301903
34643,NaN,-14.593756,-6.819574,-10.972328,0.242655,-4.413673,-28.795031,-0.420662,-1.278688,0.814624,-0.653320,0.017090,-0.759521,-0.144953,-0.069019,-0.110508,0.999969,-0.002103,-0.006393,0.004073,0.800718,-0.082614,-0.512137,-0.299568
34644,NaN,-12.445892,-9.544536,-12.157168,0.529464,-8.295976,-27.831051,1.282257,-2.491992,1.205413,-0.672119,0.008301,-0.746826,-0.122351,-0.095398,-0.123717,0.999884,0.006411,-0.012459,0.006027,0.796541,-0.084298,-0.523530,-0.290399
34645,NaN,-4.953150,-6.799980,-10.672856,3.495794,-8.426009,-19.884221,3.047950,-2.883127,1.435500,-0.688477,-0.006592,-0.718994,-0.047494,-0.066702,-0.108446,0.999754,0.015238,-0.014414,0.007177,0.791944,-0.080070,-0.538915,-0.275651
34646,NaN,-1.434787,-4.512461,-10.449302,5.953449,-7.638373,-15.960251,3.969387,-2.848140,1.482762,-0.708740,-0.034668,-0.699707,-0.012525,-0.043134,-0.105549,0.999674,0.019845,-0.014239,0.007413,0.787606,-0.072254,-0.554945,-0.257861
34647,NaN,-0.911191,-4.434578,-10.513632,6.653750,-7.614490,-15.174518,4.330888,-2.644059,1.553692,-0.725342,-0.049561,-0.676270,-0.007380,-0.042116,-0.106170,0.999648,0.021652,-0.013219,0.007768,0.783348,-0.062855,-0.570450,-0.238751
34648,NaN,-0.671514,-6.100273,-7.175347,3.524022,-7.776460,-13.842592,4.030908,-2.269967,1.545130,-0.735352,-0.066895,-0.657227,-0.005427,-0.059585,-0.073030,0.999703,0.020153,-0.011349,0.007725,0.779711,-0.054169,-0.583548,-0.220425
34649,NaN,-0.370434,-5.516753,-2.910764,0.360782,-5.850233,-11.977050,2.933649,-2.034120,1.409002,-0.751953,-0.071289,-0.633789,-0.003016,-0.054755,-0.029946,0.999816,0.014667,-0.010170,0.007045,0.775768,-0.049004,-0.594534,-0.205700
34650,NaN,0.811266,-2.595901,0.120339,-0.906436,-2.539893,-9.440451,1.515876,-2.470463,1.132897,-0.764648,-0.073486,-0.612549,0.008245,-0.025921,0.001108,0.999879,0.007579,-0.012352,0.005664,0.769825,-0.049027,-0.605377,-0.196176
34651,NaN,6.637665,0.042903,3.921416,-2.396636,-0.277527,-2.490618,-0.128536,-2.901868,0.645754,-0.777344,-0.069092,-0.591309,0.065797,0.000668,0.040171,0.999889,-0.000643,-0.014509,0.003229,0.761353,-0.054226,-0.616505,-0.193188
34652,NaN,16.906939,4.817793,9.497765,-4.318368,3.778046,9.326990,-1.960287,-2.414432,-0.218441,-0.790039,-0.067139,-0.578613,0.167963,0.048935,0.096533,0.999879,-0.009801,-0.012072,-0.001092,0.753032,-0.063340,-0.623838,-0.199390
34653,NaN,24.717736,5.953388,13.052476,-6.275521,4.383355,17.722298,-1.231707,-0.788713,-1.512944,-0.787354,-0.088623,-0.567871,0.247106,0.058471,0.131137,0.999945,-0.006158,-0.003943,-0.007565,0.748439,-0.063958,-0.626304,-0.208546
34654,NaN,22.251456,5.560370,9.933490,-4.387738,2.941049,14.614643,4.405386,-0.563153,-3.199236,-0.785645,-0.144287,-0.550537,0.223059,0.049824,0.101103,0.999626,0.022024,-0.002815,-0.015994,0.744424,-0.038021,-0.633843,-0.206470
34655,NaN,16.457958,2.873604,1.124847,1.582798,-1.553686,6.783345,8.330458,-0.077482,-3.298597,-0.768799,-0.206543,-0.541748,0.165014,0.025515,0.012420,0.998997,0.041638,-0.000387,-0.016487,0.741432,0.003439,-0.642945,-0.192062
34656,NaN,23.158287,-15.010489,6.388437,-7.318748,-19.523721,9.356297,5.757356,3.151787,-1.070420,-0.755371,-0.228027,-0.548096,0.231691,-0.153030,0.055856,0.999447,0.028781,0.015756,-0.005351,0.749981,0.031243,-0.636468,-0.177373
34657,NaN,57.160014,8.396638,5.452494,4.530476,-8.669563,47.385796,1.043327,2.445591,0.455773,-0.734375,-0.227783,-0.569336,0.572021,0.085008,0.047974,0.999909,0.005216,0.012228,0.002279,0.757813,0.035969,-0.628451,-0.171683
34658,NaN,13.580902,0.773252,-10.716481,12.924595,-5.105126,0.515368,0.277838,6.520037,-0.135246,-0.700439,-0.227783,-0.611572,0.132226,0.007795,-0.111504,0.999467,0.001389,0.032594,-0.000676,0.777684,0.043025,-0.603682,-0.170071
34659,NaN,-15.082824,-12.863267,-6.042589,-0.404395,-8.036404,-28.909776,-0.840241,2.242198,-0.838873,-0.702637,-0.227783,-0.605225,-0.152027,-0.128244,-0.058187,0.999920,-0.004201,0.011211,-0.004194,0.783729,0.044312,-0.594294,-0.174988
34660,NaN,-9.013307,-4.758597,-10.377361,6.843338,-2.963385,-22.300617,-0.028422,-2.969724,-0.934360,-0.727539,-0.240723,-0.571289,-0.088800,-0.047184,-0.105092,0.999879,-0.000142,-0.014848,-0.004672,0.773955,0.044374,-0.605679,-0.179383
34661,NaN,-0.392000,-4.920454,-11.730902,10.154363,-6.223740,-14.294106,1.760098,-6.067200,0.464541,-0.752686,-0.249512,-0.524658,-0.000239,-0.048173,-0.117781,0.999498,0.008799,-0.030331,0.002322,0.755085,0.044476,-0.630813,-0.173042
34662,NaN,12.278417,2.560825,-8.511351,10.258375,-2.508323,1.056796,3.664968,-5.276963,2.382773,-0.788574,-0.243164,-0.473877,0.124635,0.028600,-0.081335,0.999413,0.018321,-0.026380,0.011912,0.739201,0.046206,-0.654111,-0.153574
34663,NaN,14.914837,8.037443,-5.765602,7.999778,3.044702,5.900052,4.893042,-4.028601,3.585313,-0.816162,-0.239014,-0.425049,0.148753,0.084373,-0.052625,0.999337,0.024460,-0.020139,0.017923,0.726951,0.049639,-0.673460,-0.124620
34664,NaN,22.716278,2.961254,-2.231277,3.606360,-2.499758,12.779254,4.247327,-2.946612,3.720012,-0.833740,-0.219727,-0.399658,0.226843,0.034251,-0.018274,0.999493,0.021233,-0.014731,0.018597,0.717877,0.050694,-0.687445,-0.097481
34665,NaN,32.087416,4.335530,0.353949,0.825634,-1.881425,22.500933,1.883867,-1.531278,3.494372,-0.844727,-0.202637,-0.383057,0.320010,0.048900,0.006435,0.999774,0.009419,-0.007656,0.017471,0.713408,0.044882,-0.694911,-0.078318
34666,NaN,23.474547,10.492509,-0.050368,0.882293,6.616377,15.017318,0.012824,-1.833770,3.015876,-0.860107,-0.177002,-0.362061,0.233119,0.108449,0.001646,0.999844,0.000064,-0.009168,0.015079,0.708054,0.033733,-0.702073,-0.067926
34667,NaN,25.501248,11.324966,-8.740029,9.050131,7.409917,16.984379,-1.466414,-3.366497,2.521957,-0.875977,-0.145020,-0.336670,0.254995,0.115841,-0.083951,0.999752,-0.007331,-0.016831,0.012609,0.696872,0.018721,-0.714066,-0.064250
34668,NaN,23.473703,10.565026,0.215703,-0.402656,8.103325,14.616755,-1.828131,-2.706030,2.704672,-0.889160,-0.121582,-0.315674,0.233231,0.108844,0.004334,0.999775,-0.009140,-0.013529,0.013522,0.688044,0.001831,-0.723047,-0.061600
34669,NaN,21.650143,7.150944,6.836305,-7.544072,6.235479,11.883476,-1.141421,-2.255036,3.396344,-0.898682,-0.085205,-0.301270,0.214455,0.075561,0.070365,0.999776,-0.005707,-0.011274,0.016980,0.680458,-0.014934,-0.730660,-0.053759
