// Start Time: Unknown
// Update Rate: 100.0Hz
// Filter Profile: human (46.1)
// Firmware Version: 4.4.0
PacketCounter,SampleTimeFine,Acc_X,Acc_Y,Acc_Z,FreeAcc_X,FreeAcc_Y,FreeAcc_Z,Gyr_X,Gyr_Y,Gyr_Z,Mag_X,Mag_Y,Mag_Z,VelInc_X,VelInc_Y,VelInc_Z,OriInc_q0,OriInc_q1,OriInc_q2,OriInc_q3,Quat_q0,Quat_q1,Quat_q2,Quat_q3
53778,NaN,4.103317,7.482604,-1.008160,0.000000,0.000000,15.965152,1.193604,0.183116,0.857298,-0.810303,-0.106934,0.093262,0.120119,0.226533,-0.026534,0.999753,0.017903,0.002747,0.012858,0.133677,-0.209932,-0.712316,-0.656250
53779,NaN,4.685073,0.105316,-3.606755,0.000000,-0.000000,-3.899190,-0.176477,-0.140329,1.264539,-0.815186,-0.092041,0.090820,0.046868,0.001318,-0.036036,0.999979,-0.000882,-0.000702,0.006323,0.441234,0.075775,-0.893839,0.024941
53780,NaN,5.917195,-3.394208,-3.630414,-6.692312,-3.552532,-8.294268,-0.605173,-0.301051,1.297834,-0.815430,-0.085693,0.093018,0.059445,-0.033666,-0.036113,0.999973,-0.003026,-0.001505,0.006489,0.203385,-0.236117,-0.741926,-0.593657
53781,NaN,10.653170,-5.825305,-1.560173,-11.994109,-1.381923,-7.790843,-0.625037,-0.371202,1.208424,-0.815918,-0.072754,0.099121,0.106910,-0.057656,-0.015223,0.999975,-0.003125,-0.001856,0.006042,0.204852,-0.242332,-0.739003,-0.594294
53782,NaN,11.667864,-7.408756,-0.219718,-13.757266,-0.129972,-8.472782,-0.383130,-0.368080,1.108498,-0.815918,-0.068359,0.096924,0.117090,-0.073443,-0.001841,0.999981,-0.001916,-0.001840,0.005542,0.208892,-0.250358,-0.736770,-0.592330
53783,NaN,10.543020,-5.407040,-2.909855,-11.598756,-2.455969,-6.932702,-0.245970,-0.476156,0.930316,-0.814209,-0.057861,0.101074,0.105749,-0.053615,-0.028781,0.999986,-0.001230,-0.002381,0.004652,0.209582,-0.255449,-0.735364,-0.591660
53784,NaN,9.817345,-2.690795,-3.761952,-9.053793,-2.819325,-4.535145,-0.072193,-0.458236,0.732842,-0.812012,-0.057861,0.105469,0.098357,-0.026561,-0.037385,0.999991,-0.000361,-0.002291,0.003664,0.228707,-0.275626,-0.730920,-0.580930
53785,NaN,9.432519,-1.532238,-3.498644,-7.974999,-2.355763,-3.946696,0.122949,-0.452782,0.674691,-0.816650,-0.049072,0.105225,0.094455,-0.014982,-0.034782,0.999992,0.000615,-0.002264,0.003373,0.229180,-0.279264,-0.730859,-0.579080
53786,NaN,9.307689,-1.876562,-3.577114,-7.499807,-2.338262,-3.391226,0.283515,-0.388886,0.656421,-0.810303,-0.049316,0.111816,0.093207,-0.018409,-0.035616,0.999992,0.001418,-0.001944,0.003282,0.262469,-0.311801,-0.726074,-0.553811
53787,NaN,9.067683,-1.515277,-3.967010,-7.021003,-2.642485,-3.181066,0.436278,-0.305995,0.586714,-0.819580,-0.030029,0.117920,0.090781,-0.014800,-0.039564,0.999992,0.002181,-0.001530,0.002934,0.263660,-0.314203,-0.726763,-0.550976
53788,NaN,9.893689,-1.699702,-3.988990,-6.690884,-2.274846,-1.643062,0.531396,-0.232480,0.519352,-0.810791,-0.036377,0.117920,0.099027,-0.016634,-0.039819,0.999992,0.002657,-0.001162,0.002597,0.305495,-0.353322,-0.719979,-0.513290
53789,NaN,10.408108,-1.993361,-3.426487,-7.218097,-1.677070,-1.498294,0.591017,-0.125047,0.441125,-0.815430,-0.025635,0.117676,0.104146,-0.019603,-0.034258,0.999993,0.002955,-0.000625,0.002206,0.307219,-0.354326,-0.720903,-0.510264
53790,NaN,9.938265,-1.716972,-3.054436,-5.554207,-1.029661,-0.916788,0.549864,-0.043379,0.378391,-0.817383,-0.031982,0.117920,0.099421,-0.016898,-0.030570,0.999994,0.002749,-0.000217,0.001892,0.351402,-0.393307,-0.709455,-0.467440
53791,NaN,8.953547,-0.744416,-3.337883,-4.178495,-1.264120,-1.280181,0.363271,-0.040691,0.309131,-0.817627,-0.025635,0.115723,0.089554,-0.007245,-0.033374,0.999997,0.001816,-0.000203,0.001546,0.352694,-0.393859,-0.709765,-0.465527
53792,NaN,9.009008,-1.189798,-3.198010,-3.571571,-0.963842,-0.917750,0.224884,-0.032153,0.264330,-0.806885,-0.023438,0.115723,0.090111,-0.011743,-0.031979,0.999998,0.001124,-0.000161,0.001322,0.389008,-0.425382,-0.695740,-0.428566
53793,NaN,8.944388,-1.308592,-3.026941,-3.665393,-0.845759,-1.053326,0.144830,-0.013179,0.229742,-0.820068,-0.014893,0.115479,0.089461,-0.012961,-0.030273,0.999999,0.000724,-0.000066,0.001149,0.389762,-0.425927,-0.695587,-0.427587
53794,NaN,9.131970,-1.182905,-3.013179,-2.777017,-0.544286,-0.546443,0.080043,-0.018808,0.186440,-0.809326,-0.017090,0.115479,0.091334,-0.011732,-0.030128,0.999999,0.000400,-0.000094,0.000932,0.416782,-0.448251,-0.682992,-0.398604
53795,NaN,9.305053,-1.265002,-3.017524,-2.882285,-0.516293,-0.393794,0.045932,-0.024883,0.132831,-0.817871,-0.014893,0.119629,0.093063,-0.012581,-0.030167,1.000000,0.000230,-0.000124,0.000664,0.417065,-0.448658,-0.682838,-0.398115
53796,NaN,9.283356,-1.518721,-3.017986,-2.476908,-0.451236,-0.259847,0.040403,-0.030897,0.088240,-0.813477,-0.019287,0.119873,0.092845,-0.015140,-0.030169,1.000000,0.000202,-0.000154,0.000441,0.437005,-0.463513,-0.672817,-0.376164
53797,NaN,9.296573,-1.881568,-3.062106,-2.808683,-0.587660,-0.267583,0.079441,-0.030448,0.020117,-0.822266,-0.012695,0.113281,0.092972,-0.018794,-0.030614,1.000000,0.000397,-0.000152,0.000101,0.437125,-0.463464,-0.672986,-0.375782
53798,NaN,9.421564,-2.010575,-2.878328,-2.501383,-0.288835,-0.078587,0.139613,-0.013133,-0.044227,-0.813477,-0.019287,0.119873,0.094213,-0.020106,-0.028791,1.000000,0.000698,-0.000066,-0.000221,0.450855,-0.476617,-0.663270,-0.360054
53799,NaN,9.461689,-1.760128,-2.864545,-2.272315,-0.195519,-0.033854,0.186185,0.000286,-0.105176,-0.820068,-0.017090,0.119873,0.094608,-0.017624,-0.028662,0.999999,0.000931,0.000001,-0.000526,0.451110,-0.475848,-0.663855,-0.359674
53800,NaN,9.588857,-1.446102,-2.868466,-1.637392,-0.065818,0.166295,0.197255,0.007565,-0.146435,-0.811279,-0.021484,0.122070,0.095877,-0.014503,-0.028703,0.999999,0.000986,0.000038,-0.000732,0.465636,-0.475544,-0.661972,-0.344723
53801,NaN,9.864073,-0.924708,-2.781084,-1.206758,0.252996,0.403436,0.183020,0.005783,-0.168688,-0.813477,-0.019287,0.117676,0.098632,-0.009305,-0.027822,0.999999,0.000915,0.000029,-0.000843,0.465800,-0.474549,-0.662675,-0.344523
53802,NaN,9.806867,-0.693824,-2.835409,-0.797466,0.258905,0.384988,0.148849,0.031109,-0.192319,-0.813232,-0.025635,0.115723,0.098058,-0.007011,-0.028375,0.999999,0.000744,0.000156,-0.000962,0.474100,-0.471745,-0.663260,-0.335814
53803,NaN,9.606714,-1.373520,-2.928236,-1.402003,-0.119558,0.225747,0.110157,0.038756,-0.203226,-0.817871,-0.019287,0.117676,0.096047,-0.013817,-0.029309,0.999999,0.000551,0.000194,-0.001016,0.474147,-0.470745,-0.663832,-0.336022
53804,NaN,9.591745,-1.708025,-2.864107,-1.559531,-0.136348,0.220820,0.126928,0.055308,-0.230570,-0.813232,-0.025635,0.115723,0.095890,-0.017173,-0.028678,0.999999,0.000635,0.000277,-0.001153,0.477624,-0.477932,-0.657297,-0.333792
53805,NaN,9.551924,-1.338273,-2.864911,-1.221367,-0.046492,0.174504,0.126199,0.078097,-0.260194,-0.811035,-0.030029,0.115723,0.095491,-0.013489,-0.028695,0.999999,0.000631,0.000390,-0.001301,0.477747,-0.476644,-0.657942,-0.334185
53806,NaN,9.525225,-0.965227,-3.150501,-0.695637,-0.191758,0.240496,0.110339,0.090546,-0.284740,-0.811035,-0.027832,0.113525,0.095224,-0.009770,-0.031553,0.999999,0.000552,0.000453,-0.001424,0.480533,-0.477715,-0.656156,-0.332168
53807,NaN,9.668226,-0.694173,-3.276701,-0.430768,-0.192293,0.408400,0.084848,0.112108,-0.291379,-0.819580,-0.031982,0.113525,0.096654,-0.007069,-0.032824,0.999999,0.000424,0.000561,-0.001457,0.480619,-0.476368,-0.656723,-0.332857
53808,NaN,9.545701,-0.599237,-3.112101,-0.263165,-0.041634,0.241843,0.131067,0.174789,-0.295326,-0.814941,-0.038574,0.115723,0.095421,-0.006113,-0.031208,0.999998,0.000655,0.000874,-0.001477,0.482985,-0.481381,-0.651765,-0.331965
53809,NaN,9.464744,-0.350073,-3.075390,-0.046888,0.017422,0.145192,0.222282,0.239907,-0.289006,-0.823730,-0.031982,0.111328,0.094605,-0.003603,-0.030871,0.999998,0.001111,0.001200,-0.001445,0.483821,-0.479503,-0.652248,-0.332515
53810,NaN,10.068485,0.484244,-3.060607,0.861134,0.473493,0.675895,0.322639,0.283979,-0.287626,-0.815186,-0.034180,0.107178,0.100648,0.004747,-0.030741,0.999997,0.001613,0.001420,-0.001438,0.489698,-0.481064,-0.648821,-0.328336
53811,NaN,10.311850,1.073961,-2.686303,1.277765,1.040826,0.769740,0.351313,0.298537,-0.245249,-0.821533,-0.034180,0.107178,0.103091,0.010661,-0.026998,0.999997,0.001757,0.001493,-0.001226,0.491107,-0.478916,-0.649255,-0.328513
53812,NaN,10.071740,1.279834,-2.721923,1.571111,0.975225,0.534645,0.368066,0.272854,-0.159281,-0.812744,-0.038574,0.105225,0.100690,0.012768,-0.027333,0.999997,0.001840,0.001364,-0.000796,0.494175,-0.479439,-0.647071,-0.327456
53813,NaN,10.316701,1.364594,-2.940941,1.716238,0.855086,0.830097,0.359143,0.289282,-0.076730,-0.816895,-0.040527,0.103027,0.103130,0.013659,-0.029534,0.999997,0.001796,0.001446,-0.000384,0.495846,-0.477829,-0.647127,-0.327176
53814,NaN,10.355472,0.633139,-2.931501,1.009543,0.579095,0.905322,0.315490,0.351438,0.010026,-0.812744,-0.036377,0.103027,0.103503,0.006383,-0.029487,0.999997,0.001577,0.001757,0.000050,0.500486,-0.470474,-0.650006,-0.325055
53815,NaN,9.854331,-0.076434,-3.179885,0.485486,-0.062106,0.530698,0.291328,0.380783,0.101998,-0.819336,-0.034180,0.092285,0.098483,-0.000668,-0.031987,0.999997,0.001457,0.001904,0.000510,0.502573,-0.469456,-0.649284,-0.324747
53816,NaN,9.405774,-0.679176,-3.124117,-0.041300,-0.408171,0.113112,0.297412,0.374614,0.155383,-0.814941,-0.036377,0.096436,0.094004,-0.006672,-0.031427,0.999997,0.001487,0.001873,0.000777,0.506448,-0.465478,-0.649745,-0.323532
53817,NaN,9.486589,-0.714211,-2.749190,-0.175323,-0.090033,0.088045,0.291973,0.352187,0.190363,-0.823730,-0.031982,0.087891,0.094824,-0.007012,-0.027669,0.999997,0.001460,0.001761,0.000952,0.508578,-0.464787,-0.648880,-0.322920
53818,NaN,9.583039,-0.472134,-2.670564,0.072514,0.060060,0.146249,0.332250,0.344168,0.228131,-0.814941,-0.036377,0.087891,0.095790,-0.004568,-0.026878,0.999996,0.001661,0.001721,0.001141,0.511632,-0.464041,-0.647488,-0.321959
53819,NaN,10.082496,-0.342267,-2.395333,0.113615,0.465974,0.544978,0.289690,0.351926,0.265542,-0.819580,-0.027588,0.085693,0.100787,-0.003254,-0.024135,0.999997,0.001448,0.001760,0.001328,0.513870,-0.463592,-0.646435,-0.321157
53820,NaN,9.943331,-0.836855,-3.201180,-0.003109,-0.501241,0.654697,0.235422,0.460197,0.301478,-0.815430,-0.021240,0.085449,0.099372,-0.008181,-0.032250,0.999996,0.001177,0.002301,0.001507,0.516407,-0.462651,-0.645313,-0.320700
53821,NaN,10.494068,-0.646567,-2.802546,0.059024,0.042351,1.068130,0.358700,0.376020,0.309391,-0.821777,-0.023438,0.072754,0.104898,-0.006253,-0.028234,0.999995,0.001793,0.001880,0.001547,0.518944,-0.462118,-0.644199,-0.319612
53822,NaN,10.440680,-0.418614,-3.447818,0.574606,-0.496800,1.164250,0.350962,0.372468,0.338125,-0.819824,-0.019043,0.074707,0.104349,-0.003949,-0.034680,0.999995,0.001755,0.001862,0.001691,0.522463,-0.460160,-0.643656,-0.317793
53823,NaN,10.878639,-1.036539,-3.390260,0.030740,-0.586295,1.613947,0.422097,0.394762,0.340053,-0.820068,-0.010498,0.070312,0.108736,-0.010109,-0.034139,0.999994,0.002110,0.001974,0.001700,0.525243,-0.459523,-0.642509,-0.316452
53824,NaN,11.044558,-0.900244,-3.429964,0.242004,-0.561693,1.771044,0.500907,0.400122,0.348398,-0.815674,-0.014893,0.062012,0.110392,-0.008724,-0.034543,0.999993,0.002505,0.002001,0.001742,0.529162,-0.457258,-0.642109,-0.314004
53825,NaN,11.118599,-1.115640,-3.135788,-0.000147,-0.388743,1.786856,0.635923,0.389719,0.362295,-0.822510,-0.004150,0.063721,0.111144,-0.010855,-0.031609,0.999991,0.003180,0.001949,0.001811,0.532432,-0.456123,-0.641242,-0.311892
53826,NaN,11.084667,-0.466673,-3.218870,0.691164,-0.235314,1.716196,0.748293,0.334965,0.374605,-0.815918,-0.004150,0.061768,0.110801,-0.004338,-0.032391,0.999990,0.003741,0.001675,0.001873,0.535045,-0.455388,-0.640492,-0.310030
53827,NaN,12.287435,-0.227688,-3.046466,0.905877,0.306055,2.812643,0.914637,0.271630,0.400991,-0.820557,0.004639,0.055176,0.122837,-0.001891,-0.030641,0.999987,0.004573,0.001358,0.002005,0.538613,-0.453798,-0.640261,-0.306642
53828,NaN,13.998646,-0.223686,-1.037587,0.131757,2.498634,4.001349,1.079785,0.288390,0.444588,-0.816162,0.004639,0.048828,0.139976,-0.001869,-0.010588,0.999982,0.005399,0.001442,0.002223,0.542953,-0.450485,-0.641152,-0.301974
53829,NaN,14.593669,0.701047,-1.232512,1.136933,2.859258,4.523178,1.229146,0.237143,0.500194,-0.820801,0.008789,0.048584,0.145904,0.007452,-0.012453,0.999977,0.006146,0.001186,0.002501,0.547226,-0.448384,-0.641222,-0.297203
53830,NaN,15.775831,1.104764,-1.025064,1.488987,3.492240,5.573486,1.430241,0.203371,0.578391,-0.818604,0.013184,0.044434,0.157715,0.011577,-0.010329,0.999970,0.007151,0.001017,0.002892,0.551211,-0.446287,-0.640996,-0.293459
53831,NaN,17.160392,2.066114,-0.210369,2.100538,4.994355,6.601791,1.640214,0.205788,0.672141,-0.821533,0.030273,0.041992,0.171531,0.021255,-0.002108,0.999960,0.008201,0.001029,0.003361,0.556497,-0.443601,-0.641309,-0.286797
53832,NaN,20.008180,3.934052,0.254878,3.651902,6.906068,9.024425,1.621691,0.285092,0.784072,-0.819336,0.032471,0.039795,0.199929,0.040104,0.002587,0.999958,0.008108,0.001425,0.003920,0.563044,-0.438692,-0.641442,-0.281217
53833,NaN,20.756854,7.130538,-0.831805,7.148984,7.686656,9.479465,1.146788,0.462143,0.904828,-0.822021,0.047363,0.039551,0.207224,0.072291,-0.008385,0.999971,0.005734,0.002311,0.004524,0.568300,-0.437704,-0.639747,-0.275997
53834,NaN,17.320696,8.035184,-2.888982,8.878109,5.567821,6.407388,0.973959,0.517780,1.067847,-0.822266,0.051758,0.032959,0.172699,0.081416,-0.028943,0.999971,0.004870,0.002589,0.005339,0.576883,-0.429124,-0.640470,-0.269921
53835,NaN,13.998229,8.208052,-3.989549,9.662542,4.014656,3.216153,1.038579,0.544159,1.388802,-0.818115,0.058105,0.022217,0.139298,0.083256,-0.039845,0.999959,0.005193,0.002721,0.006944,0.582707,-0.429825,-0.637292,-0.263745
53836,NaN,15.077928,8.262622,-5.999549,10.859819,2.834320,4.527016,0.908413,0.398836,1.976617,-0.816650,0.081787,0.017578,0.149832,0.084382,-0.059914,0.999939,0.004542,0.001994,0.009883,0.591663,-0.420803,-0.638987,-0.254078
53837,NaN,17.495127,1.055476,-10.424706,7.720230,-3.756942,8.683976,0.442243,0.158138,2.844675,-0.815674,0.111816,0.014893,0.174693,0.013271,-0.104358,0.999896,0.002211,0.000791,0.014223,0.596654,-0.428339,-0.633026,-0.244555
53838,NaN,22.057793,-8.603061,-11.504374,1.420262,-8.342744,15.111644,-0.024811,-0.032045,3.840003,-0.803711,0.141846,0.016846,0.222194,-0.081789,-0.114998,0.999816,-0.000124,-0.000160,0.019199,0.607240,-0.418378,-0.637531,-0.223103
53839,NaN,27.203740,-14.763618,-8.977290,-3.684542,-7.655432,21.271818,-0.226791,0.053866,4.701925,-0.800781,0.182617,0.007568,0.275385,-0.141290,-0.089684,0.999723,-0.001134,0.000269,0.023507,0.612018,-0.433879,-0.627097,-0.209601
53840,NaN,28.783386,-14.822911,-7.192976,-3.255124,-5.400428,22.744168,-0.128074,0.058242,5.181151,-0.782959,0.225342,0.002686,0.291524,-0.140754,-0.071923,0.999664,-0.000640,0.000291,0.025903,0.623341,-0.429470,-0.627748,-0.181477
53841,NaN,26.884030,-16.551276,-9.435329,-2.181358,-7.572405,22.177320,0.139784,-0.078939,5.558789,-0.773926,0.276855,0.000000,0.273337,-0.157891,-0.094358,0.999613,0.000699,-0.000395,0.027790,0.628201,-0.446389,-0.615936,-0.163474
53842,NaN,25.515453,-8.445670,-8.160240,4.256254,-1.708361,17.895300,0.104757,-0.187024,5.575313,-0.755859,0.313232,-0.002686,0.257451,-0.077258,-0.081404,0.999611,0.000524,-0.000935,0.027873,0.640252,-0.439393,-0.616710,-0.129150
53843,NaN,23.285839,-7.942192,-7.461568,4.720860,-0.726601,15.446002,0.139979,-0.359274,5.686187,-0.738281,0.364502,0.000977,0.235123,-0.072706,-0.074247,0.999594,0.000700,-0.001796,0.028427,0.642869,-0.456534,-0.605200,-0.109673
53844,NaN,19.392061,-8.852426,-7.938530,4.498398,-2.322498,12.361111,0.463657,-0.519207,5.632754,-0.713623,0.398926,-0.003662,0.196513,-0.082830,-0.079074,0.999597,0.002318,-0.002596,0.028160,0.649814,-0.456056,-0.602882,-0.079297
53845,NaN,16.472842,-6.524890,-7.126525,5.436024,-0.906771,8.470059,0.923361,-0.629680,5.244022,-0.693848,0.446045,-0.010742,0.166581,-0.060569,-0.071030,0.999641,0.004616,-0.003148,0.026217,0.651873,-0.468953,-0.593109,-0.058009
53846,NaN,14.701151,-3.701509,-5.701545,6.164829,1.470440,5.090702,1.433620,-0.700614,4.726831,-0.673096,0.469482,-0.015381,0.148024,-0.033117,-0.056745,0.999689,0.007167,-0.003503,0.023632,0.653129,-0.474181,-0.589377,-0.034785
53847,NaN,13.185679,-1.082497,-4.185353,6.597419,3.630602,1.841035,1.920569,-0.707476,4.217716,-0.656982,0.503662,-0.026367,0.132187,-0.007640,-0.041470,0.999725,0.009602,-0.003537,0.021087,0.656158,-0.480336,-0.581848,-0.013662
53848,NaN,11.066895,2.135420,-2.452032,6.682801,5.670282,-2.314868,2.143698,-0.656505,3.715416,-0.633789,0.520996,-0.035156,0.110323,0.023664,-0.023912,0.999765,0.010718,-0.003282,0.018576,0.656122,-0.486777,-0.576668,0.002471
53849,NaN,8.321645,4.729578,-0.762269,6.002043,6.781310,-6.622293,2.076314,-0.598495,3.233687,-0.621826,0.548828,-0.056885,0.082458,0.048707,-0.006874,0.999811,0.010381,-0.002992,0.016167,0.659291,-0.489196,-0.570614,0.020527
53850,NaN,5.776555,6.339157,0.928397,4.672909,7.247821,-10.018232,1.868799,-0.535744,2.740730,-0.600586,0.555176,-0.065430,0.056864,0.064084,0.010034,0.999859,0.009344,-0.002679,0.013703,0.659168,-0.493471,-0.566591,0.030968
53851,NaN,3.826058,7.498426,2.257658,3.422869,7.517000,-12.594136,1.518140,-0.501837,2.233080,-0.596924,0.572266,-0.074219,0.037364,0.075230,0.023242,0.999906,0.007590,-0.002509,0.011165,0.661089,-0.494676,-0.562434,0.043869
53852,NaN,2.141811,8.550945,3.031782,2.697657,7.450581,-14.722486,1.071136,-0.510368,1.721075,-0.586426,0.585205,-0.080811,0.020604,0.085525,0.030829,0.999945,0.005356,-0.002552,0.008605,0.659874,-0.497891,-0.560681,0.048048
53853,NaN,0.706724,9.147386,3.558352,1.931850,7.130600,-16.313211,0.627245,-0.523329,1.199726,-0.584473,0.591553,-0.083008,0.006425,0.091401,0.035888,0.999974,0.003136,-0.002617,0.005999,0.659667,-0.499053,-0.559243,0.055071
53854,NaN,-0.486785,9.315978,3.701315,1.505185,6.512223,-17.299267,0.198844,-0.555530,0.684643,-0.580322,0.591553,-0.081055,-0.005290,0.093105,0.037091,0.999990,0.000994,-0.002778,0.003423,0.657091,-0.501500,-0.560257,0.053314
53855,NaN,-1.393587,9.322082,3.605025,1.233553,5.840331,-17.949529,-0.228043,-0.600583,0.176994,-0.582520,0.593750,-0.081055,-0.014126,0.093249,0.035902,0.999994,-0.001140,-0.003003,0.000885,0.654790,-0.502589,-0.561832,0.054767
53856,NaN,-1.997960,9.048495,3.238672,1.314971,5.103370,-18.094121,-0.597362,-0.654490,-0.320142,-0.580322,0.589355,-0.074463,-0.019940,0.090613,0.032051,0.999989,-0.002987,-0.003272,-0.001601,0.650696,-0.504240,-0.565731,0.047799
53857,NaN,-2.402869,8.876824,2.843702,1.487512,4.510698,-18.185150,-0.930958,-0.740668,-0.795623,-0.593262,0.593750,-0.066162,-0.023779,0.088994,0.027935,0.999974,-0.004655,-0.003703,-0.003978,0.646432,-0.504836,-0.570343,0.044449
53858,NaN,-2.344928,9.039929,3.204938,1.549198,4.885591,-18.251831,-1.216957,-0.680486,-1.287693,-0.601562,0.580811,-0.055176,-0.022973,0.090741,0.031419,0.999955,-0.006085,-0.003402,-0.006438,0.641096,-0.505338,-0.576675,0.032802
53859,NaN,-2.878629,8.383219,2.534294,1.719337,3.847508,-18.011728,-1.522756,-0.664604,-1.726833,-0.607666,0.572266,-0.044434,-0.028143,0.084266,0.024608,0.999928,-0.007614,-0.003323,-0.008634,0.635574,-0.505101,-0.583365,0.024558
53860,NaN,-3.010487,7.161927,2.278254,1.469250,3.088114,-17.150761,-1.704158,-0.633827,-2.166340,-0.624268,0.552979,-0.031250,-0.029396,0.072130,0.022075,0.999900,-0.008521,-0.003169,-0.010831,0.629161,-0.504223,-0.591473,0.008710
53861,NaN,-3.316787,5.749832,1.862926,1.068791,2.006945,-16.320990,-1.749455,-0.592089,-2.603366,-0.636963,0.542236,-0.014160,-0.032468,0.058083,0.018026,0.999873,-0.008747,-0.002960,-0.013016,0.623038,-0.501944,-0.599888,-0.003156
53862,NaN,-3.176297,4.868789,1.846540,0.830326,1.746154,-15.597267,-1.758671,-0.554326,-3.020055,-0.659668,0.518799,-0.009521,-0.031072,0.049320,0.017947,0.999843,-0.008793,-0.002771,-0.015099,0.616309,-0.498325,-0.609395,-0.021741
53863,NaN,-2.675967,3.951160,2.003363,0.444563,1.755195,-14.660822,-1.777121,-0.532227,-3.377801,-0.674072,0.495117,0.005615,-0.026138,0.040132,0.019609,0.999814,-0.008885,-0.002661,-0.016888,0.609784,-0.493482,-0.619134,-0.036229
53864,NaN,-2.088489,2.200686,1.858303,-0.287995,1.193247,-13.151799,-1.807402,-0.529344,-3.671505,-0.688232,0.467285,0.016846,-0.020523,0.022552,0.018326,0.999787,-0.009036,-0.002647,-0.018356,0.602305,-0.487563,-0.629528,-0.056604
53865,NaN,-1.567643,0.331342,1.380827,-1.024709,0.245379,-11.646560,-1.808481,-0.496250,-3.939529,-0.710938,0.443848,0.029785,-0.015640,0.003746,0.013737,0.999762,-0.009042,-0.002481,-0.019696,0.595083,-0.480641,-0.639954,-0.072932
53866,NaN,-1.436472,-1.691003,-0.100421,-1.361939,-1.703411,-10.231967,-1.822495,-0.465391,-4.185109,-0.725098,0.413818,0.043213,-0.014712,-0.016613,-0.000886,0.999737,-0.009112,-0.002327,-0.020924,0.586893,-0.472595,-0.650610,-0.094428
53867,NaN,-1.284017,-3.518489,-1.385545,-1.809516,-3.479339,-9.060438,-1.726161,-0.383111,-4.350966,-0.741211,0.381592,0.045654,-0.013577,-0.035013,-0.013578,0.999724,-0.008630,-0.001915,-0.021753,0.579360,-0.463565,-0.661010,-0.111874
53868,NaN,-1.069093,-6.073232,-2.533608,-3.012761,-5.585941,-7.772940,-1.635190,-0.321223,-4.356944,-0.752930,0.349365,0.056885,-0.011973,-0.060685,-0.024858,0.999728,-0.008175,-0.001606,-0.021783,0.571146,-0.453898,-0.670945,-0.132671
53869,NaN,-0.642914,-9.449127,-3.679167,-4.924067,-8.123194,-6.208770,-1.634798,-0.266252,-4.224935,-0.764893,0.321533,0.061523,-0.008379,-0.094625,-0.036029,0.999743,-0.008173,-0.001331,-0.021123,0.563601,-0.444460,-0.680026,-0.149577
53870,NaN,0.204736,-13.317157,-4.006650,-7.897194,-10.238565,-4.692005,-1.584282,-0.221548,-3.959988,-0.778809,0.287354,0.068359,-0.000550,-0.133490,-0.039010,0.999772,-0.007921,-0.001108,-0.019798,0.555399,-0.435612,-0.688163,-0.167946
53871,NaN,0.855785,-17.444600,-4.110643,-11.285143,-12.485070,-3.593782,-1.449685,-0.211806,-3.576922,-0.786621,0.268066,0.066406,0.005476,-0.174854,-0.039833,0.999813,-0.007248,-0.001059,-0.017883,0.548413,-0.427434,-0.695187,-0.182369
53872,NaN,0.944908,-20.646256,-3.976807,-14.133655,-14.270251,-3.524861,-1.178241,-0.229768,-3.101127,-0.792480,0.244385,0.079590,0.006289,-0.206806,-0.038542,0.999862,-0.005891,-0.001149,-0.015505,0.541604,-0.420253,-0.701435,-0.195043
53873,NaN,0.986384,-21.726262,-3.437171,-15.464084,-14.586837,-4.078987,-0.787051,-0.238046,-2.598860,-0.798340,0.229492,0.077637,0.007079,-0.217500,-0.033507,0.999907,-0.003935,-0.001190,-0.012994,0.536539,-0.413469,-0.706699,-0.204319
53874,NaN,0.607564,-20.778468,-2.372628,-15.330262,-13.533607,-5.391110,-0.242430,-0.130673,-2.202184,-0.795410,0.208008,0.077881,0.003803,-0.207863,-0.023471,0.999938,-0.001212,-0.000653,-0.011011,0.533270,-0.406753,-0.711587,-0.209332
53875,NaN,-6.902105,-44.069344,-11.464371,-27.856444,-36.532871,-6.569395,-0.167594,-0.615856,-1.433851,-0.799805,0.212402,0.088623,-0.071826,-0.440281,-0.114493,0.999969,-0.000838,-0.003079,-0.007169,0.529229,-0.402737,-0.715939,-0.212489
53876,NaN,6.971771,-67.152109,-31.612529,-35.799617,-59.763804,16.720322,-0.028866,-2.056544,0.006142,-0.791016,0.205811,0.101562,0.072983,-0.671564,-0.315289,0.999947,-0.000144,-0.010283,0.000031,0.522388,-0.405495,-0.721840,-0.204039
53877,NaN,39.577862,-18.756720,9.246828,-25.307125,10.272726,25.651948,1.393000,-0.019681,0.363636,-0.793457,0.214355,0.097168,0.396111,-0.187485,0.091201,0.999974,0.006965,-0.000098,0.001818,0.525507,-0.403186,-0.722548,-0.198013
53878,NaN,36.280733,35.623124,15.710856,13.789707,46.321625,12.463599,1.102357,0.498841,-1.071006,-0.792969,0.195068,0.093262,0.365099,0.353410,0.158153,0.999967,0.005512,0.002494,-0.005355,0.530192,-0.396391,-0.724919,-0.190428
53879,NaN,35.920882,-2.758490,-6.292347,-2.570903,7.230746,25.944994,1.345833,0.705451,-0.026029,-0.793213,0.208008,0.082275,0.358980,-0.027202,-0.064374,0.999971,0.006729,0.003527,-0.000130,0.535385,-0.392053,-0.724352,-0.187007
53880,NaN,21.548365,2.527320,-6.332381,3.593884,5.220044,11.881739,0.312370,0.922421,0.613696,-0.793213,0.208008,0.073730,0.215110,0.026034,-0.064276,0.999983,0.001562,0.004612,0.003068,0.541912,-0.392466,-0.720706,-0.181343
53881,NaN,3.682744,0.473575,-0.889603,0.565414,1.039204,-6.182472,-0.437457,0.876914,0.806841,-0.793701,0.218750,0.064941,0.036768,0.004864,-0.009068,0.999980,-0.002187,0.004385,0.004034,0.544943,-0.395763,-0.716326,-0.182446
53882,NaN,-0.424016,-10.438584,-3.824832,-5.491293,-9.273036,-7.050600,-0.585212,0.607112,0.637631,-0.791748,0.223145,0.067139,-0.004023,-0.104510,-0.037930,0.999986,-0.002926,0.003036,0.003188,0.548293,-0.398990,-0.712582,-0.180028
53883,NaN,0.876303,-5.679727,-2.614099,-2.770143,-4.982768,-7.099951,-0.643012,0.432880,0.414003,-0.793945,0.225098,0.062744,0.008824,-0.056863,-0.025977,0.999990,-0.003215,0.002164,0.002070,0.548928,-0.401841,-0.709974,-0.182041
53884,NaN,5.198883,-4.846169,-0.928080,-3.491802,-1.661409,-3.777617,-0.507546,0.146775,0.227738,-0.789551,0.225098,0.062744,0.052037,-0.048426,-0.009196,0.999996,-0.002538,0.000734,0.001139,0.550249,-0.403943,-0.708468,-0.179246
53885,NaN,9.376560,-6.679610,-0.563535,-5.427079,-0.936125,0.312779,-0.299180,-0.036159,0.078545,-0.791748,0.229492,0.066895,0.093793,-0.066768,-0.005519,0.999999,-0.001496,-0.000181,0.000393,0.549595,-0.405083,-0.708131,-0.180011
53886,NaN,10.696345,-5.991886,-2.129795,-3.935940,-1.072730,1.943507,-0.158747,-0.106761,-0.088516,-0.791504,0.220947,0.064941,0.106948,-0.059983,-0.021193,0.999999,-0.000794,-0.000534,-0.000443,0.550483,-0.405301,-0.708221,-0.176416
53887,NaN,9.864126,-5.346149,-4.188967,-2.101118,-2.430295,1.724583,-0.040475,-0.145008,-0.266027,-0.791748,0.227295,0.064941,0.098600,-0.053601,-0.041807,0.999999,-0.000202,-0.000725,-0.001330,0.549661,-0.404605,-0.709113,-0.176992
53888,NaN,9.397655,-4.498374,-4.193423,-1.373312,-2.065814,1.140959,0.032296,-0.143542,-0.393881,-0.791504,0.216553,0.073486,0.093918,-0.045162,-0.041874,0.999998,0.000161,-0.000718,-0.001969,0.550507,-0.403237,-0.710071,-0.173613
53889,NaN,9.006759,-3.571389,-3.389301,-1.189981,-1.109848,0.322198,0.019893,-0.132882,-0.458709,-0.793701,0.220947,0.069092,0.090008,-0.035917,-0.033837,0.999997,0.000099,-0.000664,-0.002294,0.549685,-0.401676,-0.711367,-0.174531
53890,NaN,9.194088,-3.322506,-3.393203,-0.990869,-0.873214,0.450821,-0.066554,-0.120451,-0.492675,-0.793213,0.208008,0.071533,0.091879,-0.033463,-0.033866,0.999997,-0.000333,-0.000602,-0.002463,0.550229,-0.400213,-0.712378,-0.172032
53891,NaN,9.666711,-3.251315,-4.211618,-0.487525,-1.239053,1.140891,-0.059457,-0.072662,-0.536270,-0.797607,0.205811,0.071533,0.096595,-0.032785,-0.042071,0.999996,-0.000297,-0.000363,-0.002681,0.549397,-0.398536,-0.713587,-0.173567
53892,NaN,9.282316,-3.611931,-4.451738,-0.555452,-1.771221,0.938097,-0.007598,0.009481,-0.583850,-0.797119,0.197266,0.069580,0.092715,-0.036392,-0.044520,0.999996,-0.000038,0.000047,-0.002919,0.550344,-0.396479,-0.714475,-0.171611
53893,NaN,8.862143,-3.788780,-4.399878,-0.723093,-2.052681,0.556241,0.117899,0.088507,-0.650486,-0.799316,0.197266,0.069580,0.088478,-0.038150,-0.044060,0.999994,0.000589,0.000443,-0.003252,0.550342,-0.393761,-0.715608,-0.173148
53894,NaN,9.155671,-3.435232,-4.706849,-0.246524,-1.947434,0.861013,0.310710,0.166291,-0.738138,-0.801025,0.184570,0.069824,0.091390,-0.034617,-0.047198,0.999992,0.001554,0.000831,-0.003691,0.552232,-0.390162,-0.716646,-0.170971
53895,NaN,9.743161,-2.650305,-4.460535,0.111675,-1.132821,1.166995,0.464482,0.278574,-0.802141,-0.805420,0.184570,0.059082,0.097262,-0.026789,-0.044803,0.999988,0.002322,0.001393,-0.004011,0.553454,-0.385772,-0.717820,-0.172057
53896,NaN,10.031015,-2.576647,-3.985850,-0.132345,-0.700252,1.261558,0.543765,0.351628,-0.803469,-0.804932,0.173828,0.063477,0.100135,-0.026060,-0.040105,0.999987,0.002719,0.001758,-0.004017,0.556281,-0.381148,-0.718644,-0.169791
53897,NaN,10.006791,-2.314742,-3.001312,-0.606696,0.034065,0.870565,0.456282,0.390062,-0.800876,-0.807129,0.173828,0.059082,0.099915,-0.023479,-0.030261,0.999987,0.002281,0.001950,-0.004004,0.557875,-0.376674,-0.719453,-0.171113
53898,NaN,9.472356,-2.483562,-2.509099,-0.985414,0.009154,0.248002,0.266081,0.384539,-0.786905,-0.806641,0.160889,0.050781,0.094576,-0.025174,-0.025306,0.999990,0.001330,0.001923,-0.003935,0.560229,-0.372849,-0.719858,-0.170096
53899,NaN,9.177112,-2.800659,-2.289045,-1.357799,-0.240316,-0.045353,0.128919,0.360157,-0.797301,-0.819336,0.156738,0.052979,0.091617,-0.028357,-0.023074,0.999990,0.000645,0.001801,-0.003986,0.561092,-0.369317,-0.720427,-0.172528
53900,NaN,9.183654,-2.354204,-2.478159,-0.892044,-0.116925,-0.054969,0.039477,0.332965,-0.790334,-0.812744,0.152344,0.048584,0.091701,-0.023900,-0.024939,0.999991,0.000197,0.001665,-0.003952,0.562802,-0.366145,-0.720734,-0.172435
53901,NaN,9.527135,-1.934232,-2.544288,-0.604511,0.159167,0.216751,0.065079,0.320876,-0.767199,-0.814941,0.152344,0.042236,0.095155,-0.019699,-0.025602,0.999991,0.000325,0.001604,-0.003836,0.563421,-0.362927,-0.721275,-0.174938
53902,NaN,9.968449,-1.843675,-2.869555,-0.348583,0.102845,0.716835,0.096577,0.305360,-0.728299,-0.812500,0.141602,0.044678,0.099573,-0.018786,-0.028857,0.999992,0.000483,0.001527,-0.003641,0.565142,-0.359833,-0.721558,-0.174612
53903,NaN,10.040191,-1.632371,-2.804942,-0.272385,0.238747,0.732743,0.144691,0.298037,-0.681295,-0.814453,0.137451,0.036133,0.100304,-0.016645,-0.028211,0.999993,0.000723,0.001490,-0.003406,0.565889,-0.356712,-0.722052,-0.176542
53904,NaN,10.049395,-1.293025,-2.765481,-0.040706,0.457518,0.680107,0.233819,0.328474,-0.641821,-0.813965,0.126709,0.038330,0.100406,-0.013220,-0.027835,0.999993,0.001169,0.001642,-0.003209,0.567954,-0.353514,-0.722205,-0.175717
53905,NaN,9.757764,-1.127836,-2.557076,-0.047168,0.549775,0.322389,0.308218,0.382383,-0.588526,-0.820557,0.131104,0.033936,0.097495,-0.011526,-0.025775,0.999993,0.001541,0.001912,-0.002943,0.569369,-0.350184,-0.722414,-0.176941
53906,NaN,9.397623,-0.864356,-2.772843,0.356288,0.446876,0.006896,0.282791,0.341195,-0.482641,-0.817871,0.115967,0.036377,0.093908,-0.008831,-0.027901,0.999995,0.001414,0.001706,-0.002413,0.571643,-0.347400,-0.722262,-0.175712
53907,NaN,9.269211,-0.585423,-3.117772,0.808251,0.331240,-0.054697,0.229683,0.275128,-0.393601,-0.820068,0.118164,0.031982,0.092637,-0.006001,-0.031312,0.999996,0.001148,0.001376,-0.001968,0.572698,-0.345089,-0.722348,-0.176476
53908,NaN,9.371453,-0.529312,-3.068668,0.830695,0.420058,0.018612,0.123935,0.225121,-0.272358,-0.819824,0.109619,0.027832,0.093673,-0.005402,-0.030795,0.999998,0.000620,0.001126,-0.001362,0.574378,-0.343620,-0.722021,-0.175216
53909,NaN,9.563784,-0.652722,-3.173536,0.803134,0.293736,0.248723,0.072473,0.215096,-0.163057,-0.824463,0.115967,0.019287,0.095598,-0.006594,-0.031841,0.999999,0.000362,0.001075,-0.000815,0.575147,-0.342644,-0.721735,-0.175783
53910,NaN,9.377640,-1.184630,-2.721986,0.166420,0.155700,0.020964,0.027491,0.216109,-0.070745,-0.822021,0.114014,0.025635,0.093743,-0.011876,-0.027323,0.999999,0.000137,0.001081,-0.000354,0.576720,-0.342191,-0.721016,-0.174459
53911,NaN,9.054015,-1.302437,-2.668126,0.092535,-0.004197,-0.284738,0.000235,0.228890,0.002232,-0.820068,0.118164,0.021240,0.090510,-0.013023,-0.026785,0.999999,0.000001,0.001144,0.000011,0.577558,-0.342008,-0.720341,-0.174833
53912,NaN,8.846260,-1.158055,-2.987984,0.482899,-0.163953,-0.417724,-0.058119,0.242262,0.093669,-0.817871,0.114014,0.019287,0.088432,-0.011548,-0.029984,0.999999,-0.000291,0.001211,0.000468,0.579159,-0.342373,-0.719198,-0.173522
53913,NaN,9.105529,-1.511094,-3.230154,0.408066,-0.502074,-0.055162,-0.106151,0.233348,0.163878,-0.826416,0.114014,0.019287,0.091030,-0.015054,-0.032400,0.999999,-0.000531,0.001167,0.000819,0.579968,-0.343077,-0.718138,-0.173819
53914,NaN,9.558728,-1.516293,-3.572515,0.655763,-0.580378,0.466631,-0.105529,0.218218,0.208015,-0.817871,0.115967,0.019287,0.095564,-0.015082,-0.035821,0.999999,-0.000528,0.001091,0.001040,0.581423,-0.344022,-0.716845,-0.172421
53915,NaN,10.009361,-1.763146,-3.555850,0.462534,-0.614038,0.927378,-0.070714,0.258835,0.230045,-0.826660,0.122559,0.012695,0.100068,-0.017529,-0.035682,0.999998,-0.000354,0.001294,0.001150,0.582437,-0.344838,-0.715624,-0.172440
53916,NaN,10.405345,-2.090849,-3.596403,0.290670,-0.737710,1.365333,-0.009966,0.272265,0.246203,-0.822510,0.122559,0.012695,0.104030,-0.020782,-0.036105,0.999998,-0.000050,0.001361,0.001231,0.584202,-0.345608,-0.714210,-0.170781
53917,NaN,10.989318,-2.213499,-3.429622,0.080275,-0.545706,1.897249,0.072533,0.262468,0.225823,-0.818359,0.128906,0.006104,0.109873,-0.021998,-0.034448,0.999998,0.000363,0.001312,0.001129,0.585468,-0.345988,-0.713103,-0.170306
53918,NaN,11.508953,-2.063589,-2.974567,-0.115227,0.025221,2.251656,0.203739,0.246977,0.201834,-0.818115,0.126709,0.008301,0.115073,-0.020489,-0.029909,0.999998,0.001019,0.001235,0.001009,0.587410,-0.346006,-0.712031,-0.168051
53919,NaN,12.045378,-1.936203,-2.335619,-0.479992,0.683916,2.580732,0.348034,0.238089,0.173437,-0.824951,0.131104,0.008301,0.120443,-0.019217,-0.023533,0.999997,0.001740,0.001190,0.000867,0.589015,-0.345410,-0.711311,-0.166703
53920,NaN,12.381542,-1.772309,-1.782959,-0.722859,1.268867,2.736810,0.507789,0.216450,0.145748,-0.818604,0.135498,0.003906,0.123809,-0.017587,-0.018008,0.999996,0.002539,0.001082,0.000729,0.591296,-0.344344,-0.710662,-0.163572
53921,NaN,12.566549,-1.629038,-1.463678,-0.825271,1.625955,2.812261,0.685444,0.179117,0.124802,-0.827148,0.133301,0.001709,0.125662,-0.016161,-0.014805,0.999994,0.003427,0.000896,0.000624,0.593221,-0.342623,-0.710462,-0.161064
53922,NaN,13.294075,-1.154690,-1.159727,-0.710271,2.387446,3.348095,0.892473,0.135566,0.119143,-0.820557,0.131104,-0.002441,0.132940,-0.011416,-0.011739,0.999990,0.004462,0.000678,0.000596,0.595841,-0.340345,-0.710360,-0.156611
53923,NaN,14.238729,-0.271506,-0.933454,-0.304635,3.449759,4.032626,1.042897,0.116086,0.125649,-0.822998,0.139648,-0.011230,0.142383,-0.002577,-0.009431,0.999986,0.005214,0.000580,0.000628,0.598129,-0.337599,-0.710596,-0.152717
53924,NaN,15.661835,0.884617,-1.496025,0.854981,4.395177,5.295753,1.137734,0.107274,0.166053,-0.822998,0.139648,-0.009033,0.156603,0.009061,-0.014993,0.999983,0.005689,0.000536,0.000830,0.601082,-0.334701,-0.710610,-0.147345
53925,NaN,15.686579,1.822131,-2.014617,1.893700,4.807484,5.245509,1.202753,0.123042,0.230217,-0.825195,0.144043,-0.015625,0.156832,0.018523,-0.020132,0.999981,0.006014,0.000615,0.001151,0.603700,-0.331818,-0.710715,-0.142571
53926,NaN,15.516991,2.548923,-2.700811,2.950251,4.946787,5.066600,1.314403,0.114147,0.279500,-0.818848,0.148193,-0.015625,0.155119,0.025883,-0.026927,0.999977,0.006572,0.000571,0.001397,0.606986,-0.328691,-0.710570,-0.136457
53927,NaN,15.940606,4.034967,-3.145657,4.253542,5.989929,5.230798,1.197131,0.160860,0.313317,-0.829834,0.150391,-0.024170,0.159317,0.040787,-0.031341,0.999981,0.005986,0.000804,0.001567,0.609737,-0.326066,-0.710358,-0.131503
53928,NaN,15.251738,5.212263,-3.020085,4.971419,6.819766,4.247155,1.083947,0.241489,0.365059,-0.823242,0.152588,-0.020020,0.152385,0.052564,-0.030101,0.999983,0.005420,0.001207,0.001825,0.613038,-0.323776,-0.709487,-0.126424
53929,NaN,14.482249,4.304317,-3.460159,4.849023,5.716388,3.753595,0.987050,0.324280,0.571931,-0.823486,0.159180,-0.030762,0.144642,0.043628,-0.034622,0.999982,0.004935,0.001621,0.002860,0.616147,-0.322579,-0.708166,-0.121680
53930,NaN,14.299732,1.597851,-3.923590,3.697249,3.422113,4.224647,0.944668,0.359303,0.971691,-0.821777,0.171875,-0.035156,0.142846,0.016859,-0.039414,0.999975,0.004723,0.001797,0.004858,0.619879,-0.322713,-0.705845,-0.115710
53931,NaN,14.768391,-1.128096,-5.881729,3.787483,0.524213,5.658144,0.672126,0.245621,1.564201,-0.822266,0.187012,-0.041992,0.147693,-0.009928,-0.059034,0.999963,0.003361,0.001228,0.007821,0.622722,-0.326007,-0.702911,-0.108870
53932,NaN,16.332113,-2.313138,-8.432309,5.342403,-1.066799,7.893271,0.250502,0.042278,2.181524,-0.818604,0.206299,-0.040039,0.163542,-0.021243,-0.084385,0.999940,0.001252,0.000211,0.010907,0.624696,-0.332689,-0.699166,-0.101189
53933,NaN,19.924666,-5.752008,-7.447864,2.807041,-1.523173,11.989166,0.112176,-0.000482,2.768158,-0.819824,0.238281,-0.040527,0.200017,-0.054713,-0.074509,0.999904,0.000561,-0.000002,0.013840,0.626231,-0.341994,-0.694541,-0.092128
53934,NaN,22.087430,-12.024719,-7.074148,-0.735411,-4.633505,15.885825,0.248855,-0.065897,3.527985,-0.812012,0.261963,-0.038574,0.222972,-0.116238,-0.070815,0.999844,0.001244,-0.000329,0.017639,0.628098,-0.353347,-0.688641,-0.080078
53935,NaN,23.277688,-14.389060,-8.494504,-0.363978,-5.859860,18.231390,0.655669,-0.258324,4.012525,-0.804932,0.302734,-0.043457,0.235707,-0.138902,-0.085103,0.999793,0.003278,-0.001292,0.020061,0.629853,-0.365144,-0.682470,-0.064736
53936,NaN,24.408104,-18.067533,-10.488638,-0.051816,-8.117469,21.270028,1.431203,-0.421954,4.210365,-0.788574,0.328369,-0.045898,0.248024,-0.174727,-0.105630,0.999751,0.007155,-0.002110,0.021050,0.632314,-0.375034,-0.676346,-0.045664
53937,NaN,24.327866,-12.392978,-10.102274,3.691416,-2.816448,18.923651,2.171373,-0.440550,4.097764,-0.785400,0.360596,-0.048584,0.245958,-0.117806,-0.101784,0.999729,0.010856,-0.002203,0.020487,0.635668,-0.382036,-0.670354,-0.024517
53938,NaN,22.279249,-8.696275,-7.432460,4.087156,1.163705,14.866391,2.805595,-0.337311,4.019339,-0.773193,0.381836,-0.055176,0.224592,-0.081411,-0.075115,0.999698,0.014027,-0.001686,0.020095,0.640168,-0.386613,-0.663862,-0.001484
53939,NaN,20.526170,-7.176120,-5.382302,3.651759,3.177531,12.056556,3.235867,-0.271289,4.025537,-0.757080,0.416260,-0.068604,0.206712,-0.066730,-0.054650,0.999666,0.016178,-0.001356,0.020125,0.645345,-0.389501,-0.656737,0.022676
53940,NaN,18.679556,-4.896665,-3.862843,3.809144,5.200630,8.793750,3.329504,-0.107572,4.004370,-0.734131,0.435547,-0.081543,0.187738,-0.044563,-0.039294,0.999661,0.016646,-0.000538,0.020020,0.650730,-0.391870,-0.648691,0.046788
53941,NaN,16.575308,-3.260895,-2.598355,3.603656,6.289879,5.664029,3.178158,0.047714,3.968035,-0.719971,0.465576,-0.096924,0.166345,-0.028894,-0.026502,0.999677,0.015889,0.000239,0.019838,0.655979,-0.394295,-0.639794,0.069908
53942,NaN,14.453454,-1.509361,-1.269316,3.143579,7.254192,2.445199,2.828029,0.140138,3.897275,-0.703369,0.486816,-0.112061,0.144781,-0.012092,-0.012980,0.999710,0.014139,0.000701,0.019484,0.660392,-0.397478,-0.630522,0.091302
53943,NaN,12.664690,0.692791,-0.199552,2.916235,8.405356,-0.771639,2.277229,0.156522,3.745071,-0.682617,0.508301,-0.120850,0.126486,0.009320,-0.001998,0.999760,0.011385,0.000783,0.018724,0.663548,-0.401752,-0.621357,0.110525
53944,NaN,11.155668,2.999400,0.675098,2.750182,9.522307,-3.841900,1.584267,0.133920,3.494726,-0.672607,0.527588,-0.127686,0.111015,0.031883,0.006924,0.999816,0.007921,0.000670,0.017473,0.665093,-0.407317,-0.612995,0.126423
53945,NaN,9.075021,4.272988,1.249813,2.249149,9.308018,-6.576880,0.907480,0.097791,3.209411,-0.651855,0.553223,-0.134277,0.090056,0.044122,0.012652,0.999861,0.004537,0.000489,0.016046,0.665124,-0.414151,-0.605459,0.139672
53946,NaN,6.696598,4.374993,1.766465,1.290616,7.995063,-8.582075,0.372012,0.040027,2.898552,-0.630859,0.563965,-0.136475,0.066326,0.044681,0.017734,0.999893,0.001860,0.000200,0.014492,0.664007,-0.421513,-0.599143,0.149830
53947,NaN,4.742269,4.329953,1.612896,0.966868,6.546048,-10.039093,-0.003308,-0.058515,2.525315,-0.622803,0.583252,-0.143311,0.046866,0.043894,0.016142,0.999920,-0.000017,-0.000293,0.012626,0.661884,-0.429022,-0.593955,0.158327
53948,NaN,2.932149,4.658440,1.249498,0.965487,5.277107,-11.567299,-0.234394,-0.138542,2.051923,-0.616699,0.591797,-0.136963,0.028833,0.046897,0.012460,0.999946,-0.001172,-0.000693,0.010259,0.659474,-0.435501,-0.590342,0.164102
53949,NaN,1.436109,5.190958,1.104564,0.886153,4.386697,-13.006356,-0.337187,-0.159634,1.523630,-0.608398,0.600342,-0.136963,0.013956,0.052035,0.010969,0.999969,-0.001686,-0.000798,0.007618,0.657002,-0.440976,-0.587794,0.168484
53950,NaN,0.062187,5.595408,1.158557,0.615933,3.571809,-14.230516,-0.325593,-0.168487,1.005351,-0.602295,0.608887,-0.132812,0.000331,0.055975,0.011495,0.999986,-0.001628,-0.000842,0.005027,0.655138,-0.444540,-0.586595,0.170542
53951,NaN,-1.076065,6.003202,1.304744,0.320710,2.962380,-15.291742,-0.301284,-0.181463,0.497224,-0.598145,0.615234,-0.130615,-0.010922,0.060025,0.012947,0.999995,-0.001506,-0.000907,0.002486,0.653513,-0.446839,-0.586323,0.171700
53952,NaN,-1.797250,6.189754,1.379382,0.143002,2.541644,-15.892607,-0.262741,-0.160944,0.000746,-0.604736,0.615479,-0.128662,-0.017984,0.061916,0.013698,0.999999,-0.001314,-0.000805,0.000004,0.652680,-0.447214,-0.587279,0.170621
53953,NaN,-2.265928,5.849362,1.689113,-0.340921,2.131767,-15.939825,-0.231080,-0.135929,-0.466357,-0.604492,0.613281,-0.126465,-0.022534,0.058566,0.016808,0.999996,-0.001155,-0.000680,-0.002332,0.652164,-0.446491,-0.588945,0.168734
53954,NaN,-2.706061,5.666658,1.765189,-0.541201,1.775678,-16.065962,-0.252774,-0.145512,-0.907218,-0.612793,0.604736,-0.119873,-0.026816,0.056811,0.017561,0.999989,-0.001264,-0.000728,-0.004536,0.652165,-0.444142,-0.591857,0.164695
53955,NaN,-3.214861,5.818347,1.918992,-0.711939,1.600686,-16.506059,-0.366064,-0.169439,-1.350943,-0.616943,0.598145,-0.126221,-0.031771,0.058434,0.019056,0.999975,-0.001830,-0.000847,-0.006755,0.651952,-0.441198,-0.595681,0.159588
53956,NaN,-3.701104,5.496114,2.164763,-1.084504,1.255105,-16.583128,-0.498458,-0.191504,-1.791520,-0.631836,0.589600,-0.113281,-0.036537,0.055344,0.021475,0.999956,-0.002492,-0.000958,-0.008957,0.651921,-0.436916,-0.600820,0.152047
53957,NaN,-3.911874,4.904485,2.226707,-1.295955,0.894907,-16.280509,-0.696079,-0.242756,-2.188125,-0.644287,0.578857,-0.113281,-0.038605,0.049546,0.022048,0.999933,-0.003480,-0.001214,-0.010940,0.651296,-0.432409,-0.606866,0.143353
53958,NaN,-3.860341,4.826493,2.165150,-1.145937,0.995190,-16.182851,-0.904142,-0.279814,-2.566326,-0.663086,0.561768,-0.100342,-0.038009,0.048852,0.021378,0.999906,-0.004521,-0.001399,-0.012831,0.650508,-0.426907,-0.614083,0.132253
53959,NaN,-3.698043,4.517899,1.815315,-0.779067,0.921668,-15.806255,-1.128093,-0.305483,-2.925244,-0.679932,0.549072,-0.093750,-0.036341,0.045815,0.017840,0.999876,-0.005640,-0.001527,-0.014626,0.649022,-0.421351,-0.621976,0.119920
53960,NaN,-3.658619,3.581167,1.706801,-0.889573,0.477123,-15.113768,-1.257055,-0.285515,-3.274895,-0.694092,0.525391,-0.080566,-0.036016,0.036511,0.016788,0.999845,-0.006285,-0.001428,-0.016374,0.647581,-0.414578,-0.630597,0.105408
53961,NaN,-4.223457,1.798285,1.556363,-1.427008,-0.948802,-14.346362,-1.392933,-0.291977,-3.575089,-0.717285,0.510498,-0.069824,-0.041925,0.018842,0.015373,0.999815,-0.006964,-0.001460,-0.017874,0.645544,-0.407596,-0.639556,0.090037
53962,NaN,-4.273531,0.515592,1.738508,-2.012618,-1.605869,-13.675177,-1.473775,-0.286605,-3.831383,-0.735596,0.478271,-0.056396,-0.042649,0.006101,0.017281,0.999788,-0.007368,-0.001433,-0.019156,0.643432,-0.399461,-0.648919,0.073012
53963,NaN,-4.278626,-0.955921,1.356892,-2.209300,-2.639501,-12.847543,-1.602113,-0.342748,-4.002444,-0.754150,0.456787,-0.047607,-0.042988,-0.008592,0.013567,0.999766,-0.008010,-0.001714,-0.020011,0.640438,-0.391421,-0.658435,0.055615
53964,NaN,-3.765799,-2.882126,0.727401,-2.386840,-3.847066,-11.399014,-1.648714,-0.369234,-4.118990,-0.772705,0.426758,-0.036621,-0.038254,-0.027977,0.007437,0.999752,-0.008243,-0.001846,-0.020593,0.637188,-0.382541,-0.668030,0.037279
53965,NaN,-3.185524,-5.271366,-0.166820,-2.644412,-5.563427,-9.702228,-1.674047,-0.356127,-4.149139,-0.789062,0.403320,-0.023438,-0.032937,-0.052050,-0.001289,0.999748,-0.008370,-0.001780,-0.020744,0.633418,-0.373863,-0.677231,0.019151
53966,NaN,-2.344122,-6.392205,-0.279334,-3.063535,-5.981731,-8.690321,-1.751034,-0.257303,-4.050096,-0.809570,0.375488,-0.006104,-0.024726,-0.063451,-0.002268,0.999756,-0.008754,-0.001286,-0.020249,0.629690,-0.365241,-0.685631,0.000560
53967,NaN,-0.851457,-6.813831,-0.212630,-3.333915,-5.541581,-7.495950,-2.036953,-0.178047,-3.762916,-0.817139,0.343262,0.000732,-0.009793,-0.067979,-0.001442,0.999771,-0.010184,-0.000890,-0.018813,0.625235,-0.358681,-0.692898,-0.017935
53968,NaN,0.348434,-7.960399,-1.268521,-3.130676,-6.379850,-5.993545,-2.301211,-0.031651,-3.405295,-0.831299,0.317627,0.016113,0.002129,-0.079787,-0.011767,0.999789,-0.011505,-0.000158,-0.017025,0.620734,-0.353738,-0.698723,-0.036669
53969,NaN,0.577239,-10.618530,-0.467854,-5.446997,-7.923635,-5.248020,-2.476066,0.237357,-3.175180,-0.843506,0.298340,0.018555,0.004081,-0.106306,-0.003368,0.999797,-0.012379,0.001187,-0.015875,0.616486,-0.350224,-0.702993,-0.055576
53970,NaN,-4.635740,-81.022528,-9.001391,-38.378306,-67.305507,15.955289,-1.123785,-0.153361,-1.845582,-0.851562,0.279053,0.038086,-0.053768,-0.810241,-0.085501,0.999941,-0.005619,-0.000767,-0.009228,0.613606,-0.347038,-0.706280,-0.064960
53971,NaN,12.337726,-45.488507,-21.003578,-9.445524,-39.911586,21.496234,-2.622721,-0.601269,-0.772583,-0.851807,0.283203,0.048584,0.122231,-0.458057,-0.203674,0.999902,-0.013113,-0.003006,-0.003863,0.606631,-0.352527,-0.708532,-0.075533
53972,NaN,37.142841,-68.813468,-13.111990,-30.747820,-42.318808,49.772805,-0.369150,-0.803979,0.810395,-0.856201,0.285400,0.055176,0.374733,-0.686859,-0.128349,0.999982,-0.001846,-0.004020,0.004052,0.603539,-0.357216,-0.709194,-0.071980
53973,NaN,13.839575,26.980654,-0.722558,16.318554,25.259294,-5.852806,0.323972,0.217547,-0.687099,-0.855957,0.279053,0.046631,0.139314,0.269340,-0.006940,0.999992,0.001620,0.001088,-0.003435,0.604647,-0.353730,-0.709864,-0.073283
53974,NaN,3.369322,7.621779,3.614583,1.461136,8.958964,-10.144015,1.284948,0.110448,-0.611038,-0.857910,0.274658,0.048828,0.033946,0.075880,0.036615,0.999975,0.006425,0.000552,-0.003055,0.607229,-0.348087,-0.710817,-0.069627
53975,NaN,32.189072,-16.440288,-7.037427,-4.363309,-2.786306,26.644692,0.847365,0.060852,-0.032259,-0.858154,0.281006,0.046631,0.321843,-0.164154,-0.071168,0.999991,0.004237,0.000304,-0.000161,0.608913,-0.345386,-0.710964,-0.066809
53976,NaN,28.299675,14.643648,2.767631,5.673985,24.025521,10.523058,-0.611903,0.584383,-0.005494,-0.864502,0.276855,0.046631,0.283079,0.146511,0.026401,0.999991,-0.003060,0.002922,-0.000027,0.610118,-0.347430,-0.708728,-0.068944
53977,NaN,10.895335,-6.872583,-5.780092,0.595756,-3.703625,3.799012,-0.688018,0.199083,0.389337,-0.860352,0.281006,0.046631,0.109030,-0.068712,-0.057673,0.999992,-0.003440,0.000995,0.001947,0.609768,-0.350847,-0.707188,-0.070529
53978,NaN,6.305164,-9.543507,-4.422365,-2.012774,-6.821968,0.177326,-0.293090,0.240744,0.353932,-0.853760,0.279053,0.038086,0.063167,-0.095388,-0.044160,0.999997,-0.001465,0.001204,0.001770,0.610435,-0.353179,-0.705498,-0.070049
53979,NaN,3.132515,-5.620714,-0.710867,-2.720715,-3.246630,-4.917025,-0.089345,0.173696,0.041352,-0.858398,0.289795,0.040039,0.031331,-0.056204,-0.007111,1.000000,-0.000447,0.000868,0.000207,0.610914,-0.353547,-0.704850,-0.070534
53980,NaN,6.609308,-5.002219,0.362899,-3.242256,-0.775283,-2.215088,-0.253363,-0.070958,-0.146447,-0.858154,0.281006,0.044434,0.066055,-0.050066,0.003716,0.999999,-0.001267,-0.000355,-0.000732,0.610357,-0.354152,-0.704997,-0.070846
53981,NaN,7.113399,-5.685667,-0.788234,-2.740022,-1.687654,-1.257424,-0.281352,-0.211371,-0.275756,-0.858154,0.283203,0.044434,0.071064,-0.056966,-0.007727,0.999998,-0.001407,-0.001057,-0.001379,0.609025,-0.354123,-0.706016,-0.072294
53982,NaN,7.433592,-5.348563,-1.804433,-1.754953,-1.845329,-0.832931,-0.241834,-0.354665,-0.426964,-0.860107,0.279053,0.048584,0.074253,-0.053666,-0.017848,0.999995,-0.001209,-0.001773,-0.002135,0.607408,-0.353791,-0.707511,-0.072905
53983,NaN,8.437826,-4.914607,-2.561441,-0.959591,-1.529783,0.119572,-0.287038,-0.392427,-0.518043,-0.864014,0.266113,0.053223,0.084300,-0.049401,-0.025378,0.999994,-0.001435,-0.001962,-0.002590,0.605330,-0.352982,-0.709497,-0.074787
53984,NaN,9.344156,-4.687501,-2.645601,-0.834601,-1.041671,0.887913,-0.283354,-0.448210,-0.615432,-0.866211,0.263916,0.057373,0.093356,-0.047200,-0.026180,0.999992,-0.001417,-0.002241,-0.003077,0.603226,-0.352140,-0.711580,-0.075957
53985,NaN,10.493869,-4.459263,-2.887474,-0.620414,-0.560412,1.919491,-0.229347,-0.468001,-0.691205,-0.866211,0.261719,0.061768,0.104851,-0.044988,-0.028578,0.999991,-0.001147,-0.002340,-0.003456,0.600900,-0.350559,-0.714101,-0.078021
53986,NaN,11.090710,-4.099050,-3.818573,0.247267,-0.566235,2.597188,-0.057361,-0.421303,-0.736640,-0.867920,0.253174,0.062012,0.110835,-0.041410,-0.037940,0.999991,-0.000287,-0.002107,-0.003683,0.599225,-0.348580,-0.716386,-0.078819
53987,NaN,10.672313,-4.128447,-4.176035,0.453901,-0.991249,2.319600,0.104424,-0.347978,-0.758265,-0.872070,0.246826,0.068359,0.106638,-0.041667,-0.041596,0.999991,0.000522,-0.001740,-0.003791,0.597868,-0.345697,-0.718771,-0.080097
53988,NaN,9.923092,-4.189238,-4.625589,0.769311,-1.606671,1.773508,0.297742,-0.253653,-0.792353,-0.869629,0.236084,0.070801,0.099123,-0.042216,-0.046193,0.999990,0.001489,-0.001268,-0.003962,0.597359,-0.342382,-0.720777,-0.080114
53989,NaN,9.528934,-3.925198,-4.592152,0.881551,-1.601885,1.320690,0.484560,-0.122710,-0.851635,-0.871338,0.229736,0.064453,0.095150,-0.039546,-0.045959,0.999988,0.002423,-0.000614,-0.004258,0.597409,-0.337923,-0.722773,-0.080688
53990,NaN,9.541719,-3.818041,-3.957320,0.423328,-1.235993,1.122342,0.637439,0.022092,-0.898555,-0.875488,0.225342,0.064453,0.095240,-0.038482,-0.039706,0.999985,0.003187,0.000110,-0.004493,0.598384,-0.333103,-0.724245,-0.080299
53991,NaN,9.877582,-3.174805,-3.551630,0.435431,-0.482229,1.134339,0.661481,0.134782,-0.907532,-0.877197,0.212646,0.060303,0.098607,-0.032078,-0.035689,0.999984,0.003307,0.000674,-0.004538,0.599611,-0.327791,-0.725594,-0.080828
53992,NaN,10.004807,-2.225270,-3.317499,0.780854,0.352176,0.926003,0.535405,0.206217,-0.889982,-0.881348,0.208252,0.060303,0.099914,-0.022608,-0.033338,0.999986,0.002677,0.001031,-0.004450,0.601047,-0.323226,-0.726420,-0.081123
53993,NaN,9.650228,-1.987155,-3.090762,0.741121,0.439451,0.477384,0.353332,0.235177,-0.862751,-0.878906,0.199707,0.058350,0.096379,-0.020233,-0.031057,0.999988,0.001767,0.001176,-0.004314,0.602127,-0.318944,-0.727229,-0.082797
53994,NaN,10.041239,-2.216024,-2.246149,-0.118639,0.760165,0.684449,0.146241,0.229548,-0.829864,-0.878906,0.195312,0.049805,0.100293,-0.022560,-0.022593,0.999990,0.000731,0.001148,-0.004149,0.603016,-0.315740,-0.727705,-0.084411
53995,NaN,10.235602,-2.126864,-1.799878,-0.474864,1.040422,0.733498,0.031959,0.204036,-0.823617,-0.880615,0.186768,0.054199,0.102249,-0.021687,-0.018107,0.999991,0.000160,0.001020,-0.004118,0.603468,-0.312572,-0.728383,-0.087084
53996,NaN,10.418094,-1.803224,-2.396116,0.163572,0.990635,0.981798,-0.027366,0.135882,-0.805089,-0.884766,0.182617,0.050049,0.104091,-0.018455,-0.024029,0.999992,-0.000137,0.000679,-0.004025,0.603742,-0.309994,-0.729008,-0.089145
53997,NaN,10.349682,-2.004353,-2.559542,0.156353,0.647381,1.015076,-0.071579,0.113143,-0.777314,-0.886719,0.174072,0.048096,0.103403,-0.020455,-0.025647,0.999992,-0.000358,0.000566,-0.003887,0.603704,-0.307338,-0.729820,-0.091911
53998,NaN,10.108994,-2.172315,-2.881736,0.320577,0.209682,0.914281,-0.049983,0.046482,-0.749437,-0.888428,0.158936,0.048096,0.101001,-0.022109,-0.028835,0.999993,-0.000250,0.000232,-0.003747,0.603626,-0.305049,-0.730606,-0.093786
53999,NaN,9.901892,-2.170841,-2.712053,0.161198,0.162621,0.678375,0.062580,-0.011686,-0.732607,-0.888428,0.161133,0.050293,0.098940,-0.022062,-0.027122,0.999993,0.000313,-0.000058,-0.003663,0.603343,-0.302201,-0.731770,-0.095734
54000,NaN,9.909346,-2.352186,-2.463291,-0.172561,0.097261,0.663767,0.193117,-0.033120,-0.714549,-0.885742,0.150391,0.048340,0.099013,-0.023852,-0.024639,0.999993,0.000966,-0.000166,-0.003573,0.603341,-0.299330,-0.732847,-0.096525
54001,NaN,9.778644,-1.861533,-2.197920,-0.137894,0.525437,0.366832,0.316163,-0.005103,-0.688768,-0.890137,0.148193,0.041992,0.097722,-0.018917,-0.022006,0.999993,0.001581,-0.000026,-0.003444,0.603470,-0.295867,-0.734027,-0.097419
54002,NaN,9.554979,-1.711490,-2.524234,0.220321,0.370586,0.207914,0.308926,0.013606,-0.638277,-0.887695,0.141846,0.046387,0.095493,-0.017381,-0.025276,0.999994,0.001545,0.000068,-0.003191,0.603837,-0.292886,-0.734890,-0.097652
54003,NaN,9.574260,-1.848291,-2.714159,0.279772,0.122497,0.304416,0.258564,0.024733,-0.608184,-0.887451,0.137695,0.040039,0.095683,-0.018739,-0.027178,0.999995,0.001293,0.000124,-0.003041,0.604019,-0.289871,-0.735814,-0.098557
54004,NaN,9.563924,-1.545417,-2.915362,0.600969,0.228385,0.283983,0.208714,0.032369,-0.588044,-0.887451,0.131104,0.044434,0.095589,-0.015705,-0.029185,0.999995,0.001044,0.000162,-0.002940,0.604318,-0.287355,-0.736488,-0.099062
54005,NaN,9.829582,-1.577967,-2.677358,0.336563,0.352005,0.484957,0.130456,0.052073,-0.568228,-0.887207,0.128906,0.037842,0.098244,-0.016041,-0.026810,0.999996,0.000652,0.000260,-0.002841,0.604425,-0.284856,-0.737195,-0.100356
54006,NaN,10.023632,-1.734535,-2.768250,0.296476,0.196868,0.723827,0.123850,0.102964,-0.549791,-0.889160,0.122559,0.042236,0.100174,-0.017604,-0.027745,0.999996,0.000619,0.000515,-0.002749,0.604865,-0.282691,-0.737554,-0.101189
54007,NaN,9.957830,-1.553996,-3.035083,0.609142,0.142455,0.694140,0.087334,0.130239,-0.538740,-0.886963,0.120361,0.035889,0.099516,-0.015795,-0.030423,0.999996,0.000437,0.000651,-0.002694,0.605206,-0.280388,-0.737949,-0.102662
54008,NaN,10.099656,-1.828863,-3.612716,0.923826,-0.368383,1.022907,0.135335,0.138070,-0.540282,-0.891113,0.114014,0.038086,0.100922,-0.018537,-0.036209,0.999996,0.000677,0.000690,-0.002701,0.605780,-0.278198,-0.738190,-0.103501
54009,NaN,10.546318,-1.682600,-3.535514,0.878955,-0.136804,1.401780,0.255560,0.157291,-0.562068,-0.890625,0.105469,0.033936,0.105388,-0.017077,-0.035460,0.999995,0.001278,0.000786,-0.002810,0.606434,-0.275282,-0.738611,-0.104460
54010,NaN,11.140802,-1.279221,-3.176219,0.725443,0.492587,1.809406,0.393541,0.142041,-0.587539,-0.890625,0.101074,0.029785,0.111347,-0.013057,-0.031867,0.999993,0.001968,0.000710,-0.002938,0.607330,-0.272132,-0.739033,-0.104522
54011,NaN,11.709920,-1.064184,-2.807679,0.455062,0.948956,2.230148,0.578173,0.123699,-0.609653,-0.894775,0.101318,0.023438,0.117049,-0.010917,-0.028180,0.999991,0.002891,0.000618,-0.003048,0.608262,-0.268072,-0.739769,-0.104386
54012,NaN,12.184904,-0.783019,-2.075402,-0.075137,1.613804,2.466643,0.779745,0.112825,-0.631345,-0.888184,0.094727,0.025635,0.121812,-0.008134,-0.020854,0.999987,0.003899,0.000564,-0.003157,0.609523,-0.263580,-0.740520,-0.103142
54013,NaN,12.294390,-0.495813,-1.351215,-0.570412,2.165572,2.361392,1.015537,0.079544,-0.633172,-0.890137,0.088379,0.019287,0.122922,-0.005278,-0.013587,0.999982,0.005078,0.000398,-0.003166,0.610830,-0.258111,-0.741609,-0.101396
54014,NaN,12.573308,0.072604,-0.938277,-0.685802,2.860739,2.447785,1.232765,0.033097,-0.619894,-0.889648,0.077637,0.021484,0.125733,0.000394,-0.009400,0.999976,0.006164,0.000165,-0.003099,0.612363,-0.252268,-0.742764,-0.098356
54015,NaN,13.522267,0.564487,-0.630915,-0.859274,3.606757,3.218849,1.432830,-0.019876,-0.573210,-0.891846,0.077637,0.015137,0.135239,0.005302,-0.006257,0.999970,0.007164,-0.000099,-0.002866,0.613809,-0.245771,-0.744217,-0.094742
54016,NaN,13.582995,1.138401,-0.203611,-1.001042,4.265440,3.096174,1.599003,-0.049514,-0.503390,-0.889648,0.077637,0.017334,0.135859,0.011058,-0.001913,0.999965,0.007995,-0.000248,-0.002517,0.615500,-0.239193,-0.745563,-0.089901
54017,NaN,13.772891,2.924477,-0.116633,-0.331064,5.869066,2.981945,1.612831,-0.060065,-0.428846,-0.887207,0.071289,0.019531,0.137792,0.028957,-0.000891,0.999965,0.008064,-0.000300,-0.002144,0.617003,-0.232667,-0.746947,-0.085113
54018,NaN,14.010269,4.463355,-0.827163,0.894312,6.978409,3.125434,1.430558,0.003997,-0.303290,-0.885010,0.069092,0.010986,0.140170,0.044479,-0.007956,0.999973,0.007153,0.000020,-0.001516,0.618732,-0.227221,-0.747717,-0.080375
54019,NaN,14.063658,4.825875,-1.789240,1.849389,6.936805,3.330268,1.108809,0.100008,-0.117354,-0.893799,0.071289,0.004395,0.140656,0.048275,-0.017695,0.999984,0.005544,0.000500,-0.000587,0.620321,-0.223325,-0.747962,-0.076685
54020,NaN,13.929141,3.631305,-2.717879,2.184659,5.514075,3.581948,1.085217,0.281270,0.135826,-0.889404,0.073486,0.000244,0.139228,0.036555,-0.027177,0.999984,0.005426,0.001406,0.000679,0.622828,-0.220374,-0.747195,-0.072248
54021,NaN,14.165947,0.705083,-4.183898,2.309939,2.463280,4.584221,1.057569,0.443502,0.592065,-0.885498,0.084229,-0.004150,0.141544,0.007692,-0.042113,0.999979,0.005288,0.002217,0.002960,0.625862,-0.219145,-0.745516,-0.066920
54022,NaN,15.695643,-2.137230,-5.744574,2.526530,-0.147240,6.845937,0.912259,0.481997,1.305066,-0.879639,0.096924,0.000000,0.156951,-0.020085,-0.057918,0.999965,0.004561,0.002410,0.006525,0.629256,-0.220961,-0.742727,-0.059741
54023,NaN,17.278567,-2.716301,-8.683767,4.995988,-1.072037,9.034370,0.622587,0.306496,2.041226,-0.886719,0.120605,-0.011230,0.172916,-0.025128,-0.087183,0.999942,0.003113,0.001532,0.010206,0.631667,-0.226495,-0.739637,-0.051320
54024,NaN,19.040669,-3.406459,-8.576366,4.701552,-0.740459,10.803435,0.579766,0.176526,2.725955,-0.878906,0.142090,-0.015869,0.190769,-0.031217,-0.086025,0.999903,0.002899,0.000883,0.013629,0.633745,-0.234684,-0.735965,-0.040577
54025,NaN,20.308725,-7.866228,-8.221132,2.789574,-3.567344,13.020320,0.598931,-0.037208,3.508616,-0.875977,0.180664,-0.014160,0.204438,-0.074837,-0.082401,0.999842,0.002994,-0.000186,0.017542,0.634933,-0.245685,-0.731957,-0.027185
54026,NaN,21.155135,-11.138943,-9.662577,3.090527,-5.807937,15.119359,0.744380,-0.373715,4.028463,-0.864014,0.208496,-0.014648,0.213913,-0.106737,-0.096631,0.999788,0.003722,-0.001868,0.020141,0.634969,-0.258121,-0.728056,-0.011052
54027,NaN,23.488953,-13.228145,-10.299830,3.103816,-5.912797,18.259899,1.287278,-0.577215,4.204966,-0.858887,0.247070,-0.012939,0.237889,-0.126637,-0.103142,0.999754,0.006436,-0.002886,0.021023,0.634615,-0.269327,-0.724339,0.007752
54028,NaN,25.437640,-13.194003,-10.417127,3.600168,-3.856233,20.215022,1.781291,-0.735973,4.380681,-0.849365,0.281250,-0.011230,0.257555,-0.125393,-0.104364,0.999714,0.008906,-0.003680,0.021901,0.634017,-0.279590,-0.720415,0.029237
54029,NaN,23.625826,-6.724405,-9.218076,5.384469,2.434462,15.747442,2.113796,-0.601378,4.277034,-0.835693,0.319824,-0.016113,0.237887,-0.061194,-0.092135,0.999711,0.010568,-0.003007,0.021383,0.634005,-0.288143,-0.715809,0.051261
54030,NaN,21.755958,-3.158326,-7.390402,5.364028,6.111408,11.905738,2.784627,-0.382830,4.103859,-0.821777,0.352051,-0.027100,0.218274,-0.026080,-0.073875,0.999691,0.013922,-0.001914,0.020517,0.635376,-0.294011,-0.710105,0.074869
54031,NaN,19.805485,-1.519332,-5.573483,4.554996,7.834494,8.718990,3.077263,-0.138964,4.036798,-0.814209,0.384033,-0.040527,0.198335,-0.010334,-0.055781,0.999678,0.015385,-0.000695,0.020182,0.637697,-0.298438,-0.703215,0.098818
54032,NaN,17.486653,-1.004749,-4.156213,3.663377,8.074638,5.852189,3.019498,0.026127,4.052121,-0.791748,0.418457,-0.047363,0.175008,-0.005874,-0.041695,0.999681,0.015096,0.000131,0.020258,0.640053,-0.303110,-0.695341,0.122299
54033,NaN,16.340905,-2.131978,-2.471965,2.009181,7.531810,4.913816,2.910161,0.201972,4.053972,-0.777588,0.452637,-0.071289,0.163766,-0.017638,-0.025159,0.999688,0.014549,0.001010,0.020268,0.642492,-0.307938,-0.686538,0.145065
54034,NaN,13.605508,-2.055340,-2.228379,2.003360,6.512537,2.346352,2.651726,0.342451,3.963029,-0.763428,0.476318,-0.084473,0.136384,-0.017553,-0.022763,0.999714,0.013257,0.001712,0.019813,0.644662,-0.313235,-0.677232,0.166289
54035,NaN,11.796930,-0.518505,-1.670482,1.919993,7.024826,-0.369531,2.264592,0.323259,3.721061,-0.744873,0.501953,-0.101807,0.118009,-0.002799,-0.016936,0.999762,0.011322,0.001616,0.018604,0.646060,-0.318747,-0.668300,0.185425
54036,NaN,10.651788,2.104859,-1.052661,1.860301,8.559152,-3.311367,1.840511,0.337493,3.334802,-0.732910,0.527588,-0.113037,0.106128,0.022917,-0.010501,0.999817,0.009202,0.001687,0.016673,0.646889,-0.324177,-0.660122,0.201699
54037,NaN,9.322450,4.224953,-0.446712,1.591994,9.403544,-6.072501,1.320398,0.330313,2.917579,-0.718506,0.547119,-0.125977,0.092587,0.043632,-0.004335,0.999870,0.006602,0.001651,0.014587,0.647096,-0.329845,-0.652889,0.214953
54038,NaN,7.094796,4.908787,0.007358,1.129604,8.435892,-8.402706,0.842716,0.263125,2.543184,-0.703857,0.562012,-0.128174,0.070316,0.049984,0.000190,0.999909,0.004213,0.001316,0.012716,0.646546,-0.335551,-0.646988,0.225367
54039,NaN,5.332288,5.342085,0.489926,0.601876,7.532450,-10.142955,0.485163,0.197851,2.105418,-0.702393,0.581299,-0.135010,0.052762,0.053966,0.004977,0.999941,0.002426,0.000989,0.010527,0.645592,-0.341014,-0.642213,0.233418
54040,NaN,3.522903,5.399362,1.199949,-0.219603,6.315974,-11.562891,0.273123,0.185138,1.635854,-0.687500,0.585449,-0.135010,0.034797,0.054263,0.012041,0.999965,0.001366,0.000926,0.008179,0.644729,-0.345375,-0.638641,0.239119
54041,NaN,1.883989,5.614674,1.485304,-0.594065,5.235725,-12.897163,0.121481,0.141384,1.178641,-0.685791,0.600586,-0.143799,0.018519,0.056247,0.014874,0.999982,0.000607,0.000707,0.005893,0.643972,-0.348927,-0.635974,0.243078
54042,NaN,0.387481,6.532705,1.512797,-0.613523,4.662290,-14.608665,-0.050017,0.129346,0.721236,-0.683594,0.600586,-0.141602,0.003649,0.065344,0.015109,0.999993,-0.000250,0.000647,0.003606,0.643440,-0.351250,-0.634540,0.244882
54043,NaN,-0.916701,7.556772,1.702389,-0.756710,4.321578,-16.262074,-0.234239,0.117475,0.252535,-0.679688,0.606934,-0.145996,-0.009252,0.075576,0.016941,0.999998,-0.001171,0.000587,0.001263,0.643093,-0.352965,-0.633985,0.244764
54044,NaN,-1.657378,7.747110,1.564724,-0.625639,3.860640,-16.877875,-0.490348,0.097309,-0.151443,-0.686035,0.604736,-0.137451,-0.016508,0.077522,0.015465,0.999997,-0.002452,0.000487,-0.000757,0.642758,-0.353837,-0.634739,0.242422
54045,NaN,-2.248105,7.401259,1.648510,-0.749443,3.228346,-16.993622,-0.827759,0.059175,-0.509737,-0.690430,0.611328,-0.139648,-0.022287,0.074137,0.016185,0.999988,-0.004139,0.000296,-0.002549,0.642094,-0.354964,-0.636427,0.238068
54046,NaN,-2.747725,7.006691,1.710795,-0.828069,2.663555,-17.009163,-1.187922,0.032126,-0.877971,-0.696777,0.606934,-0.131104,-0.027166,0.070287,0.016695,0.999973,-0.005940,0.000161,-0.004390,0.641168,-0.355625,-0.639487,0.231282
54047,NaN,-3.319252,6.405587,1.631036,-0.785036,1.911969,-16.914491,-1.528540,0.019326,-1.285165,-0.709717,0.604736,-0.128906,-0.032778,0.064390,0.015822,0.999950,-0.007643,0.000097,-0.006426,0.639969,-0.356437,-0.643427,0.222248
54048,NaN,-3.650482,5.904666,1.459722,-0.607610,1.419057,-16.736308,-1.823314,0.008758,-1.702701,-0.722412,0.596191,-0.114014,-0.035999,0.059484,0.014058,0.999922,-0.009116,0.000044,-0.008513,0.638655,-0.356359,-0.648613,0.210784
54049,NaN,-4.012474,5.301027,1.378154,-0.537029,0.866969,-16.525139,-2.058398,0.009388,-2.114319,-0.730713,0.592041,-0.101074,-0.039560,0.053569,0.013234,0.999891,-0.010292,0.000047,-0.010571,0.637181,-0.356063,-0.654430,0.197336
54050,NaN,-4.599213,4.094263,1.232933,-0.560618,-0.241817,-16.062478,-2.239164,0.018526,-2.481268,-0.751953,0.576904,-0.092285,-0.045477,0.041644,0.011870,0.999860,-0.011195,0.000093,-0.012406,0.635690,-0.354617,-0.661095,0.181930
54051,NaN,-5.054976,2.772653,1.287824,-0.836824,-1.297486,-15.514599,-2.402255,0.031021,-2.798680,-0.768555,0.557617,-0.077148,-0.050152,0.028582,0.012546,0.999830,-0.012011,0.000155,-0.013993,0.633976,-0.352986,-0.668013,0.165027
54052,NaN,-5.260597,1.601355,1.014928,-0.789519,-2.154414,-14.911725,-2.553371,0.023534,-3.077063,-0.789307,0.540527,-0.055664,-0.052349,0.016948,0.009943,0.999800,-0.012766,0.000118,-0.015384,0.632044,-0.350332,-0.675504,0.146566
54053,NaN,-5.114384,0.490184,0.636543,-0.661451,-2.792456,-14.121297,-2.577997,0.027771,-3.341190,-0.803711,0.517090,-0.046631,-0.051051,0.005837,0.006301,0.999777,-0.012889,0.000139,-0.016705,0.629937,-0.347153,-0.682990,0.127237
54054,NaN,-4.880881,-0.824994,0.254249,-0.649823,-3.567551,-13.191411,-2.505511,0.046591,-3.545945,-0.824707,0.499756,-0.038086,-0.048944,-0.007350,0.002650,0.999764,-0.012527,0.000233,-0.017728,0.627940,-0.342497,-0.690559,0.107309
54055,NaN,-4.534851,-2.397062,-0.263008,-0.671477,-4.567459,-12.063083,-2.487707,0.075814,-3.669537,-0.843018,0.469727,-0.022705,-0.045779,-0.023163,-0.002321,0.999754,-0.012438,0.000379,-0.018346,0.625764,-0.337611,-0.697753,0.087061
54056,NaN,-3.859196,-3.861700,-0.760863,-0.754354,-5.368404,-10.808813,-2.484563,0.141119,-3.748821,-0.861328,0.437744,-0.011475,-0.039313,-0.037975,-0.007107,0.999747,-0.012422,0.000706,-0.018743,0.623617,-0.331949,-0.704637,0.066325
54057,NaN,-3.051238,-4.999665,-0.967200,-1.069876,-5.838319,-9.732220,-2.502579,0.240996,-3.730784,-0.877930,0.420654,-0.002686,-0.031450,-0.049531,-0.009013,0.999747,-0.012512,0.001205,-0.018652,0.621401,-0.326620,-0.710712,0.045477
54058,NaN,-1.628949,-5.258627,-0.587021,-1.637062,-5.171714,-8.708275,-2.603091,0.335216,-3.602961,-0.893799,0.384033,0.008301,-0.017243,-0.052352,-0.005159,0.999752,-0.013014,0.001676,-0.018013,0.619079,-0.321639,-0.716026,0.024417
54059,NaN,-0.357242,-6.161697,-0.662317,-2.117395,-5.318320,-7.412945,-2.670663,0.479275,-3.428292,-0.906006,0.358398,0.012939,-0.004643,-0.061625,-0.005790,0.999761,-0.013352,0.002396,-0.017140,0.616781,-0.317629,-0.720195,0.003486
54060,NaN,0.461234,-9.350029,0.501370,-4.800075,-7.081726,-5.980852,-2.603092,0.712928,-3.312731,-0.917969,0.334961,0.009033,0.003084,-0.093484,0.006218,0.999772,-0.013014,0.003564,-0.016562,0.615203,-0.313467,-0.723163,-0.017264
54061,NaN,-6.531585,-82.896264,-11.543673,-29.268116,-74.261455,16.188193,-1.110537,0.243217,-1.851137,-0.926514,0.328369,0.030518,-0.073125,-0.828934,-0.110748,0.999941,-0.005553,0.001216,-0.009256,0.614158,-0.310165,-0.725162,-0.027337
54062,NaN,13.966668,-31.732079,-14.022063,-4.381823,-25.717718,16.980913,-3.017070,-0.189478,-0.942878,-0.926270,0.324219,0.032715,0.138292,-0.320041,-0.135275,0.999875,-0.015085,-0.000947,-0.004714,0.608636,-0.316222,-0.726576,-0.040658
54063,NaN,32.437182,-80.152527,-17.709888,-28.113791,-58.047237,50.438461,-1.507352,-0.371992,0.573828,-0.926514,0.328369,0.036865,0.326993,-0.801891,-0.170450,0.999966,-0.007537,-0.001860,0.002869,0.605009,-0.322973,-0.726454,-0.043781
54064,NaN,25.343763,6.947660,-6.192601,7.441320,13.191093,12.537827,-1.072705,0.070331,0.059436,-0.928467,0.322021,0.037109,0.253395,0.069218,-0.062387,0.999986,-0.005364,0.000352,0.000297,0.603539,-0.327072,-0.725631,-0.047162
54065,NaN,-0.203071,24.489557,-0.764463,13.556932,18.816506,-17.718520,1.107831,0.625669,-0.955922,-0.926025,0.319824,0.034912,-0.000881,0.244939,-0.006284,0.999968,0.005539,0.003128,-0.004780,0.607389,-0.320118,-0.725528,-0.047032
54066,NaN,22.017385,-12.965750,-15.740275,5.425581,-8.440970,18.470605,0.609465,-0.085640,-0.150299,-0.926025,0.317627,0.026367,0.220144,-0.129343,-0.157703,0.999995,0.003047,-0.000428,-0.000751,0.608006,-0.318243,-0.725975,-0.044834
54067,NaN,36.582152,4.920330,3.936558,-2.807483,20.544159,20.977046,0.163287,0.854509,0.118865,-0.930420,0.319824,0.015625,0.365956,0.049389,0.037842,0.999990,0.000816,0.004273,0.000594,0.611401,-0.317999,-0.723201,-0.045221
54068,NaN,12.921110,0.900588,4.292857,-3.792113,7.914541,0.635926,-0.475584,0.700988,0.367410,-0.926025,0.319824,0.021973,0.129343,0.009345,0.042453,0.999989,-0.002378,0.003505,0.001837,0.613258,-0.321046,-0.720185,-0.046663
54069,NaN,9.458394,-10.563687,-1.823020,-4.330594,-5.330388,2.725610,-0.450773,0.320796,0.306981,-0.930420,0.324219,0.015625,0.094717,-0.105533,-0.018144,0.999995,-0.002254,0.001604,0.001535,0.613770,-0.323473,-0.718584,-0.047840
54070,NaN,3.307165,-6.212783,-3.774432,-0.156987,-5.297475,-3.838205,-0.040962,0.424088,0.132867,-0.924072,0.322021,0.013428,0.033033,-0.062114,-0.037802,0.999998,-0.000205,0.002120,0.000664,0.615294,-0.324356,-0.716872,-0.047975
54071,NaN,4.168860,-4.947172,-2.600165,-0.514055,-3.413538,-3.754780,-0.024669,0.163117,-0.134442,-0.926514,0.330566,0.013184,0.041634,-0.049503,-0.026030,0.999999,-0.000123,0.000816,-0.000672,0.615819,-0.323927,-0.716565,-0.048722
54072,NaN,7.978898,-5.172194,-0.696931,-2.374587,-1.165176,-0.652788,-0.105444,0.020301,-0.261780,-0.926025,0.319824,0.013428,0.079720,-0.051830,-0.006950,0.999999,-0.000527,0.000102,-0.001309,0.615677,-0.323735,-0.716710,-0.049647
54073,NaN,7.919789,-4.489500,-0.570954,-2.143530,-0.616148,-0.967907,-0.191123,-0.105897,-0.405599,-0.930420,0.322021,0.015625,0.079110,-0.045061,-0.005625,0.999997,-0.000956,-0.000529,-0.002028,0.614898,-0.322912,-0.717626,-0.051389
54074,NaN,8.955019,-4.079818,-1.897488,-0.874973,-0.523285,0.157167,-0.386567,-0.183021,-0.486620,-0.930176,0.311279,0.020020,0.089468,-0.041052,-0.018814,0.999995,-0.001933,-0.000915,-0.002433,0.613523,-0.322820,-0.718676,-0.053671
54075,NaN,9.148758,-4.333313,-3.317655,0.126249,-1.353803,0.753057,-0.505934,-0.179992,-0.556245,-0.934326,0.307129,0.022217,0.091396,-0.043671,-0.032984,0.999993,-0.002530,-0.000900,-0.002781,0.611919,-0.322436,-0.719969,-0.056884
54076,NaN,9.130506,-4.339141,-3.835222,0.496527,-1.648116,0.861570,-0.482445,-0.184908,-0.619331,-0.931885,0.298340,0.026611,0.091205,-0.043766,-0.038163,0.999992,-0.002412,-0.000925,-0.003097,0.610327,-0.322155,-0.721199,-0.059915
54077,NaN,10.372169,-4.662117,-4.277962,0.567981,-1.683680,2.206467,-0.263911,-0.144328,-0.706042,-0.940430,0.296387,0.024414,0.103587,-0.047043,-0.042643,0.999993,-0.001320,-0.000722,-0.003530,0.609178,-0.320472,-0.722675,-0.062768
54078,NaN,10.896474,-4.288552,-4.000395,0.459428,-1.113015,2.503052,0.056622,-0.025750,-0.780855,-0.939941,0.285645,0.024658,0.108801,-0.043299,-0.040002,0.999992,0.000283,-0.000129,-0.003904,0.608950,-0.317922,-0.723831,-0.064608
54079,NaN,10.496834,-3.812979,-3.698120,0.450803,-0.823919,1.914023,0.297410,0.056328,-0.835781,-0.939941,0.281250,0.024658,0.104798,-0.038513,-0.037068,0.999990,0.001487,0.000282,-0.004179,0.609364,-0.313988,-0.725060,-0.066143
54080,NaN,9.632215,-3.394363,-3.643624,0.670273,-0.860937,0.975558,0.459190,0.159096,-0.860479,-0.943604,0.268555,0.018311,0.096146,-0.034274,-0.036591,0.999988,0.002296,0.000795,-0.004302,0.610389,-0.309859,-0.725889,-0.067068
54081,NaN,8.843615,-3.068542,-3.305175,0.604955,-0.809520,0.062931,0.470500,0.260271,-0.870870,-0.945557,0.260010,0.014160,0.088258,-0.030992,-0.033239,0.999987,0.002352,0.001301,-0.004354,0.611776,-0.305189,-0.726575,-0.068399
54082,NaN,9.201043,-2.695391,-3.007544,0.529602,-0.312580,0.216814,0.393305,0.271045,-0.869065,-0.949463,0.251465,0.014404,0.091851,-0.027294,-0.030253,0.999988,0.001967,0.001355,-0.004345,0.613071,-0.301185,-0.727024,-0.069772
54083,NaN,9.785973,-1.942986,-2.449554,0.404267,0.680817,0.430028,0.249991,0.292423,-0.843278,-0.949463,0.247070,0.012207,0.097741,-0.019811,-0.024663,0.999989,0.001250,0.001462,-0.004216,0.614223,-0.297267,-0.727460,-0.071865
54084,NaN,9.779977,-2.371304,-2.296791,0.045129,0.326491,0.504146,0.144890,0.265097,-0.807368,-0.955566,0.238525,0.010254,0.097672,-0.024091,-0.023115,0.999991,0.000724,0.001325,-0.004037,0.615121,-0.294233,-0.727725,-0.073955
54085,NaN,9.580587,-2.753817,-1.898780,-0.492183,0.052378,0.322942,0.102346,0.221999,-0.791086,-0.948975,0.236328,0.001709,0.095675,-0.027907,-0.019108,0.999991,0.000512,0.001110,-0.003955,0.615795,-0.290974,-0.728221,-0.076319
54086,NaN,9.480925,-2.204210,-1.540345,-0.518945,0.568232,0.012099,0.121075,0.186391,-0.794753,-0.957031,0.219238,0.006348,0.094706,-0.022409,-0.015505,0.999991,0.000605,0.000932,-0.003974,0.616360,-0.288069,-0.728683,-0.078346
54087,NaN,9.560253,-2.098858,-1.803663,-0.265421,0.482916,0.124752,0.144618,0.140984,-0.772481,-0.956787,0.217041,-0.002197,0.095508,-0.021345,-0.018119,0.999992,0.000723,0.000705,-0.003862,0.616787,-0.284771,-0.729396,-0.080378
54088,NaN,9.616068,-1.895447,-2.069623,0.045052,0.482716,0.192780,0.175855,0.100850,-0.732804,-0.956543,0.204346,0.000000,0.096080,-0.019288,-0.020762,0.999993,0.000879,0.000504,-0.003664,0.617132,-0.281934,-0.730037,-0.081896
54089,NaN,9.658803,-1.831140,-1.929370,-0.066853,0.551247,0.190278,0.199511,0.070178,-0.696092,-0.964844,0.199951,0.000000,0.096517,-0.018628,-0.019346,0.999993,0.000998,0.000351,-0.003480,0.617394,-0.278767,-0.730863,-0.083389
54090,NaN,9.714774,-1.862166,-1.599951,-0.386797,0.644695,0.179248,0.219109,0.047749,-0.647999,-0.960205,0.191406,0.000244,0.097083,-0.018919,-0.016043,0.999994,0.001096,0.000239,-0.003240,0.617629,-0.276109,-0.731555,-0.084418
54091,NaN,9.556876,-1.507633,-2.127134,0.238036,0.595578,0.072652,0.255375,0.017935,-0.594526,-0.958008,0.187012,0.000244,0.095522,-0.015333,-0.021299,0.999995,0.001277,0.000090,-0.002973,0.617806,-0.273156,-0.732408,-0.085319
54092,NaN,9.439557,-0.880683,-2.446068,0.824399,0.901307,-0.098165,0.263597,0.019006,-0.521443,-0.959961,0.180664,-0.001709,0.094370,-0.009021,-0.024481,0.999996,0.001318,0.000095,-0.002607,0.618044,-0.270816,-0.733025,-0.085760
54093,NaN,9.329168,-0.421207,-2.680406,1.252563,1.112329,-0.242468,0.239066,0.039314,-0.418291,-0.964355,0.182861,0.000244,0.093277,-0.004375,-0.026828,0.999997,0.001195,0.000197,-0.002091,0.618344,-0.268547,-0.733554,-0.086204
54094,NaN,8.960482,-0.671639,-2.902153,1.347508,0.673708,-0.490986,0.183449,0.071806,-0.306668,-0.961914,0.176514,-0.003906,0.089584,-0.006827,-0.029060,0.999998,0.000917,0.000359,-0.001533,0.618750,-0.267203,-0.733685,-0.086360
54095,NaN,9.148335,-1.244836,-2.589769,0.774227,0.365842,-0.262020,0.115210,0.101190,-0.218206,-0.959717,0.178467,-0.008057,0.091457,-0.012533,-0.025951,0.999999,0.000576,0.000506,-0.001091,0.619194,-0.266023,-0.733696,-0.086721
54096,NaN,9.396118,-1.546434,-2.337485,0.390402,0.284697,-0.019382,0.066901,0.115588,-0.147921,-0.963867,0.174316,-0.006104,0.093936,-0.015526,-0.023434,1.000000,0.000335,0.000578,-0.000740,0.619666,-0.265593,-0.733434,-0.086886
54097,NaN,9.625639,-1.622499,-2.494971,0.474973,0.197494,0.249404,0.061056,0.144076,-0.104323,-0.961914,0.176514,-0.006104,0.096230,-0.016268,-0.025024,1.000000,0.000305,0.000720,-0.000522,0.620244,-0.264980,-0.733136,-0.087150
54098,NaN,9.589536,-1.346959,-2.455917,0.596518,0.429901,0.150462,0.058025,0.183156,-0.065403,-0.961670,0.169922,-0.010254,0.095868,-0.013494,-0.024651,0.999999,0.000290,0.000916,-0.000327,0.620984,-0.264843,-0.732554,-0.087190
54099,NaN,9.502010,-1.461922,-2.358575,0.480098,0.339631,0.068730,0.006360,0.233999,-0.021742,-0.961914,0.176514,-0.012451,0.094991,-0.014629,-0.023697,0.999999,0.000032,0.001170,-0.000109,0.621853,-0.264663,-0.731842,-0.087517
54100,NaN,9.737935,-1.323652,-2.278198,0.482875,0.552499,0.248681,-0.066979,0.263023,0.019607,-0.963867,0.169922,-0.014404,0.097351,-0.013235,-0.022906,0.999999,-0.000335,0.001315,0.000098,0.622753,-0.265182,-0.730847,-0.087866
54101,NaN,10.247453,-1.493577,-2.332594,0.427116,0.514798,0.781393,-0.138999,0.282498,0.068377,-0.963867,0.169922,-0.020996,0.102447,-0.014917,-0.023460,0.999999,-0.000695,0.001412,0.000342,0.623644,-0.265762,-0.729798,-0.088507
54102,NaN,11.182906,-1.314881,-2.468845,0.589962,0.859657,1.667484,-0.167749,0.289029,0.105523,-0.966064,0.174316,-0.025391,0.111800,-0.013111,-0.024839,0.999998,-0.000839,0.001445,0.000528,0.624536,-0.266885,-0.728564,-0.089000
54103,NaN,11.926605,-1.572403,-2.821428,0.742032,0.677409,2.502637,-0.137301,0.321265,0.121624,-0.962158,0.182861,-0.023193,0.119230,-0.015671,-0.028395,0.999998,-0.000687,0.001606,0.000608,0.625590,-0.267636,-0.727320,-0.089520
54104,NaN,12.630739,-1.901394,-3.008835,0.731250,0.506077,3.279789,-0.062987,0.350582,0.115515,-0.961914,0.178711,-0.031738,0.126265,-0.018951,-0.030304,0.999998,-0.000315,0.001753,0.000578,0.626843,-0.268427,-0.725927,-0.089692
54105,NaN,12.981905,-1.766585,-2.837004,0.672493,0.785371,3.552566,0.092563,0.341894,0.080635,-0.966309,0.178711,-0.038086,0.129777,-0.017600,-0.028600,0.999998,0.000463,0.001709,0.000403,0.628257,-0.268298,-0.724771,-0.089534
54106,NaN,13.303312,-1.451859,-2.446634,0.523375,1.314855,3.717614,0.260591,0.329272,0.033687,-0.959717,0.178711,-0.031738,0.132995,-0.014464,-0.024704,0.999998,0.001303,0.001646,0.000168,0.629823,-0.267774,-0.723699,-0.088770
54107,NaN,13.507992,-0.952686,-2.268890,0.652234,1.859309,3.775495,0.425489,0.302168,-0.007258,-0.964111,0.178711,-0.040283,0.135045,-0.009483,-0.022913,0.999997,0.002127,0.001511,-0.000036,0.631494,-0.266295,-0.722927,-0.087629
54108,NaN,14.117620,-0.704921,-2.356129,0.861098,2.187888,4.323328,0.575328,0.276528,-0.032104,-0.955322,0.178711,-0.046631,0.141142,-0.007004,-0.023777,0.999995,0.002877,0.001383,-0.000161,0.633254,-0.264539,-0.722242,-0.085874
54109,NaN,14.839587,-0.319916,-2.340422,1.036015,2.705956,4.931722,0.752320,0.247194,-0.055312,-0.963867,0.176514,-0.048828,0.148366,-0.003152,-0.023600,0.999992,0.003762,0.001236,-0.000277,0.635127,-0.261872,-0.721833,-0.083629
54110,NaN,15.541278,0.250933,-1.850994,0.885527,3.599833,5.395121,0.967029,0.219710,-0.076132,-0.957520,0.174316,-0.051025,0.155393,0.002540,-0.018668,0.999988,0.004835,0.001099,-0.000381,0.637161,-0.258701,-0.721536,-0.080535
54111,NaN,16.134166,1.429208,-1.314771,0.968766,4.998315,5.619775,1.143912,0.211339,-0.065668,-0.965820,0.172363,-0.055176,0.161332,0.014315,-0.013236,0.999983,0.005720,0.001057,-0.000328,0.639379,-0.254752,-0.721380,-0.076859
54112,NaN,15.968613,3.564129,-1.465579,2.119211,6.730346,5.021695,1.249706,0.241918,-0.039281,-0.963623,0.170166,-0.059570,0.159675,0.035701,-0.014626,0.999980,0.006248,0.001210,-0.000196,0.641838,-0.250737,-0.721037,-0.072665
54113,NaN,15.230709,5.485562,-2.261538,3.732036,7.882364,4.011944,1.305390,0.235890,0.056605,-0.963623,0.172363,-0.070312,0.152265,0.055046,-0.022436,0.999978,0.006527,0.001179,0.000283,0.644345,-0.246683,-0.720651,-0.068040
54114,NaN,15.405764,6.913253,-4.022952,5.927479,8.504854,4.110187,1.191797,0.240619,0.213844,-0.961670,0.172363,-0.074463,0.153935,0.069536,-0.040001,0.999981,0.005959,0.001203,0.001069,0.646768,-0.243670,-0.719940,-0.063262
54115,NaN,14.842303,7.983316,-5.337619,7.610311,8.844741,3.467743,0.870441,0.268641,0.455638,-0.968262,0.178711,-0.074707,0.148169,0.080403,-0.053226,0.999987,0.004352,0.001343,0.002278,0.648943,-0.242430,-0.718766,-0.058950
54116,NaN,14.911198,6.383268,-5.201876,6.850143,7.627548,3.790368,0.660610,0.249866,0.813928,-0.964111,0.183105,-0.078857,0.148785,0.064610,-0.051992,0.999985,0.003303,0.001249,0.004070,0.650878,-0.243204,-0.717128,-0.054198
54117,NaN,15.877273,0.130585,-5.779509,4.828385,2.349225,6.208234,0.497231,0.344357,1.394806,-0.960449,0.202393,-0.083496,0.158658,0.002557,-0.058063,0.999971,0.002486,0.001722,0.006974,0.653088,-0.246509,-0.714409,-0.048262
54118,NaN,17.903474,-7.525777,-7.368475,3.245489,-4.087079,10.292307,0.441622,0.297425,2.228372,-0.954834,0.225830,-0.094482,0.179747,-0.073094,-0.074115,0.999934,0.002208,0.001487,0.011142,0.655171,-0.252975,-0.710755,-0.039775
54119,NaN,22.553819,-10.295533,-6.676392,1.721269,-4.261836,15.447379,0.183272,0.273131,3.091229,-0.947266,0.258057,-0.094971,0.227001,-0.099393,-0.067165,0.999879,0.000916,0.001366,0.015456,0.656920,-0.263297,-0.705884,-0.029307
54120,NaN,24.954713,-11.961514,-6.239086,1.044712,-3.900770,18.264691,-0.156726,0.269402,3.913899,-0.935791,0.296631,-0.095459,0.251740,-0.114752,-0.062638,0.999807,-0.000784,0.001347,0.019568,0.658068,-0.277629,-0.699690,-0.017373
54121,NaN,24.657377,-13.428946,-7.803414,2.305360,-4.800128,18.835721,-0.525804,0.167860,4.578304,-0.922363,0.343750,-0.100342,0.249499,-0.128805,-0.077899,0.999734,-0.002629,0.000839,0.022889,0.658158,-0.295309,-0.692533,-0.004346
54122,NaN,23.493595,-16.609916,-7.537643,1.150162,-6.545177,19.175577,-0.532837,0.125098,5.132068,-0.908691,0.386475,-0.101074,0.239050,-0.160200,-0.075093,0.999667,-0.002664,0.000625,0.025657,0.657634,-0.314879,-0.684294,0.010481
54123,NaN,23.262577,-14.036571,-7.870417,3.007981,-3.353346,18.109308,-0.205685,-0.206641,5.504918,-0.884766,0.440186,-0.097412,0.236453,-0.133973,-0.078321,0.999620,-0.001028,-0.001033,0.027521,0.656074,-0.334279,-0.676038,0.028228
54124,NaN,22.317486,-7.869041,-6.630993,4.873431,2.742477,14.115400,0.265715,-0.254949,5.326127,-0.860352,0.478516,-0.093506,0.225247,-0.072622,-0.066123,0.999644,0.001328,-0.001275,0.026627,0.654588,-0.351465,-0.667669,0.046962
54125,NaN,21.928406,-5.700386,-5.224094,4.967532,5.785538,12.150370,0.981300,0.009893,4.978892,-0.838135,0.521484,-0.111328,0.220605,-0.051265,-0.052513,0.999678,0.004906,0.000049,0.024892,0.654973,-0.364784,-0.658420,0.066529
54126,NaN,18.619115,-3.801360,-4.142592,4.837613,6.552627,7.847068,1.353808,0.407771,4.723157,-0.821777,0.549316,-0.117920,0.186930,-0.033321,-0.042043,0.999696,0.006768,0.002039,0.023613,0.656925,-0.376109,-0.647815,0.085599
54127,NaN,16.419229,-2.390936,-3.438736,4.866246,7.132108,4.765685,1.479737,0.601815,4.600515,-0.793213,0.594238,-0.135742,0.164576,-0.019869,-0.035039,0.999704,0.007398,0.003009,0.023000,0.659499,-0.386316,-0.636339,0.104373
54128,NaN,14.421073,-1.462629,-2.752703,4.623579,7.262789,2.167204,1.514519,0.755897,4.456821,-0.770264,0.617920,-0.150879,0.144380,-0.011198,-0.028166,0.999716,0.007572,0.003779,0.022282,0.662230,-0.395920,-0.624298,0.122270
54129,NaN,12.347169,-0.511775,-2.435667,4.575673,7.022993,-0.412652,1.424934,0.844499,4.246461,-0.745605,0.649902,-0.166260,0.123436,-0.002320,-0.024901,0.999740,0.007124,0.004222,0.021230,0.664923,-0.404890,-0.612039,0.139103
54130,NaN,10.699643,1.071090,-2.067150,4.614219,7.302953,-3.085053,1.173846,0.846683,3.955099,-0.722412,0.669189,-0.181396,0.106667,0.012945,-0.021052,0.999778,0.005869,0.004233,0.019774,0.666914,-0.413672,-0.600337,0.153939
54131,NaN,8.597825,3.048594,-1.588309,4.407552,7.358501,-6.326240,0.780461,0.804797,3.565280,-0.699707,0.695068,-0.190186,0.085351,0.032074,-0.016104,0.999825,0.003902,0.004024,0.017825,0.668085,-0.422337,-0.589549,0.166507
54132,NaN,6.292915,5.082705,-1.152707,4.059197,7.089486,-9.671603,0.415503,0.755820,3.074836,-0.683350,0.718506,-0.197021,0.062094,0.051810,-0.011656,0.999873,0.002077,0.003779,0.015374,0.668476,-0.430618,-0.580227,0.176197
54133,NaN,4.283887,6.816363,-0.497588,3.398327,6.790809,-12.532017,0.072490,0.735852,2.526731,-0.664551,0.737793,-0.205811,0.041955,0.068699,-0.005106,0.999913,0.000362,0.003679,0.012633,0.668484,-0.438336,-0.572188,0.183281
54134,NaN,2.058919,7.518145,-0.209138,2.696093,5.532876,-14.600344,-0.216295,0.696842,1.977107,-0.654297,0.748535,-0.205811,0.019837,0.075378,-0.002243,0.999944,-0.001081,0.003484,0.009885,0.668094,-0.445310,-0.565849,0.187523
54135,NaN,0.131239,7.590990,-0.274469,2.214422,3.992488,-15.884833,-0.436111,0.604917,1.428657,-0.645996,0.757080,-0.210205,0.000761,0.075910,-0.002913,0.999968,-0.002181,0.003025,0.007143,0.667474,-0.451380,-0.561012,0.189737
54136,NaN,-1.486655,7.913793,-0.385550,1.922903,2.803883,-17.122067,-0.564576,0.506806,0.881279,-0.635498,0.767822,-0.210205,-0.015225,0.079060,-0.004040,0.999983,-0.002823,0.002534,0.004406,0.666722,-0.456155,-0.558040,0.189725
54137,NaN,-2.575181,8.314700,-0.079147,1.430944,2.239255,-18.101834,-0.674502,0.437145,0.353895,-0.640137,0.774170,-0.212646,-0.025901,0.083098,-0.001015,0.999990,-0.003372,0.002186,0.001769,0.666062,-0.459820,-0.556385,0.188051
54138,NaN,-3.378165,8.076002,0.495079,0.640322,1.714907,-18.387520,-0.802575,0.392409,-0.134157,-0.644287,0.770020,-0.197510,-0.033718,0.080802,0.004693,0.999990,-0.004013,0.001962,-0.000671,0.665378,-0.462413,-0.556330,0.184238
54139,NaN,-4.086506,7.852998,0.778799,0.169440,1.189191,-18.617918,-1.032368,0.309845,-0.591154,-0.644287,0.774170,-0.199707,-0.040621,0.078689,0.007445,0.999981,-0.005162,0.001549,-0.002956,0.664386,-0.464498,-0.557581,0.178706
54140,NaN,-4.887185,8.503136,1.066396,-0.040642,1.078852,-19.618680,-1.374279,0.235746,-1.070452,-0.655029,0.770020,-0.184814,-0.048403,0.085362,0.010135,0.999961,-0.006871,0.001179,-0.005352,0.662736,-0.466187,-0.560685,0.170536
54141,NaN,-4.684803,8.657781,1.444527,-0.101060,1.543511,-19.640942,-1.743796,0.175882,-1.527272,-0.674316,0.767822,-0.176270,-0.046172,0.087054,0.013728,0.999932,-0.008719,0.000879,-0.007636,0.660424,-0.467820,-0.565087,0.160191
54142,NaN,-4.513792,7.566922,1.797944,-0.496781,1.368167,-18.686333,-2.072539,0.174921,-1.922908,-0.684814,0.759277,-0.152588,-0.044391,0.076280,0.017230,0.999900,-0.010362,0.000875,-0.009614,0.657501,-0.469223,-0.570801,0.147335
54143,NaN,-4.606708,6.132673,2.205413,-1.159627,0.859524,-17.661664,-2.321171,0.209148,-2.313014,-0.701904,0.752686,-0.137451,-0.045329,0.062105,0.021384,0.999865,-0.011605,0.001046,-0.011565,0.654271,-0.470362,-0.577149,0.132622
54144,NaN,-4.781468,5.356442,2.409250,-1.452009,0.563400,-17.223924,-2.567903,0.242607,-2.689484,-0.722900,0.737793,-0.120361,-0.047057,0.054505,0.023454,0.999826,-0.012839,0.001213,-0.013447,0.650564,-0.470961,-0.584464,0.115603
54145,NaN,-4.613740,4.811262,2.332526,-1.324174,0.506674,-16.730683,-2.807314,0.279500,-3.032901,-0.743896,0.718506,-0.098633,-0.045365,0.049126,0.022704,0.999786,-0.014036,0.001397,-0.015163,0.646388,-0.471308,-0.592170,0.096877
54146,NaN,-4.686919,3.191644,1.717628,-1.301997,-0.563433,-15.564742,-3.050123,0.323756,-3.345022,-0.766846,0.699219,-0.081299,-0.046296,0.032952,0.016754,0.999743,-0.015249,0.001619,-0.016724,0.641582,-0.471162,-0.600497,0.076042
54147,NaN,-4.762186,1.730749,0.531651,-0.840028,-1.880191,-14.472332,-3.176357,0.378637,-3.655614,-0.798584,0.682129,-0.057617,-0.047284,0.018256,0.005121,0.999705,-0.015880,0.001893,-0.018276,0.636443,-0.470399,-0.608901,0.053890
54148,NaN,-4.610229,0.475575,-0.236874,-0.683739,-2.764073,-13.476888,-3.119873,0.480035,-3.917739,-0.821533,0.658447,-0.036133,-0.046003,0.005621,-0.002341,0.999684,-0.015598,0.002400,-0.019587,0.631390,-0.468246,-0.617379,0.030582
54149,NaN,-4.287725,-1.357615,-0.925397,-0.987156,-3.875396,-12.068435,-2.967352,0.544460,-4.116084,-0.844238,0.632812,-0.025146,-0.043171,-0.012824,-0.008943,0.999674,-0.014835,0.002722,-0.020578,0.626555,-0.464858,-0.625527,0.007170
54150,NaN,-3.625011,-3.386059,-1.542863,-1.536829,-4.926671,-10.403021,-2.805266,0.626982,-4.223837,-0.871338,0.602783,-0.001221,-0.037004,-0.033295,-0.014844,0.999674,-0.014025,0.003135,-0.021117,0.621902,-0.460196,-0.633392,-0.016483
54151,NaN,-2.678805,-4.799525,-1.483821,-2.332317,-5.144609,-9.105336,-2.671554,0.736662,-4.242168,-0.891846,0.570557,0.003418,-0.027853,-0.047604,-0.014099,0.999679,-0.013356,0.003683,-0.021209,0.617548,-0.454879,-0.640418,-0.039799
54152,NaN,-1.333693,-5.630337,-0.658455,-3.363030,-4.400775,-8.015659,-2.568694,0.876097,-4.133625,-0.912109,0.534180,0.016846,-0.014524,-0.056089,-0.005801,0.999694,-0.012842,0.004380,-0.020666,0.613447,-0.449187,-0.646493,-0.062936
54153,NaN,-0.516417,-6.841388,-0.305122,-4.436032,-4.489208,-7.106351,-2.409029,1.046984,-3.981916,-0.934814,0.508545,0.019287,-0.006538,-0.068323,-0.002196,0.999716,-0.012044,0.005234,-0.019908,0.610004,-0.443266,-0.651263,-0.085246
54154,NaN,-0.562034,-8.152863,1.375203,-6.688350,-4.195885,-7.297479,-2.118522,1.280879,-3.917615,-0.955078,0.474365,0.021729,-0.007122,-0.081247,0.014656,0.999732,-0.010592,0.006404,-0.019586,0.607594,-0.436256,-0.655020,-0.107043
54155,NaN,-10.338925,-89.068046,-13.995889,-54.262702,-67.220385,17.979927,-0.877793,0.568728,-2.322629,-0.956787,0.461426,0.041260,-0.114118,-0.889999,-0.135737,0.999919,-0.004389,0.002844,-0.011613,0.606261,-0.430995,-0.657817,-0.118183
54156,NaN,17.456534,-41.961857,-17.359851,-16.573435,-29.393066,25.231214,-2.974808,-0.227730,-0.916714,-0.961182,0.459229,0.047607,0.172825,-0.422931,-0.167127,0.999878,-0.014873,-0.001139,-0.004583,0.598454,-0.437280,-0.658560,-0.130142
54157,NaN,42.679498,-86.313144,-21.280650,-44.978444,-46.513752,64.601937,-1.391705,-0.493119,0.951694,-0.957275,0.469971,0.066895,0.431413,-0.862534,-0.205743,0.999961,-0.006958,-0.002466,0.004758,0.594396,-0.444900,-0.657005,-0.130771
54158,NaN,22.587277,27.364930,-11.266329,30.107316,17.257717,3.665658,-0.924629,0.162080,-0.277097,-0.956787,0.457031,0.054199,0.226159,0.272811,-0.114109,0.999988,-0.004623,0.000810,-0.001385,0.592659,-0.447093,-0.656301,-0.134655
54159,NaN,3.430599,20.073506,-0.455373,15.551364,12.573047,-13.684284,1.353844,0.520302,-0.544684,-0.954590,0.454834,0.047852,0.034843,0.200666,-0.003285,0.999970,0.006769,0.002601,-0.002723,0.597021,-0.440949,-0.656849,-0.132963
54160,NaN,36.555093,-19.079790,-11.279702,-2.722544,-3.507527,32.705850,0.828179,0.022537,0.119623,-0.956787,0.459229,0.041260,0.365652,-0.190110,-0.113626,0.999991,0.004141,0.000113,0.000598,0.598912,-0.439232,-0.656917,-0.129771
54161,NaN,25.183507,8.539524,11.160230,1.444619,23.315385,7.098404,0.768236,1.054479,0.644100,-0.952881,0.467773,0.032471,0.252144,0.085781,0.110602,0.999974,0.003841,0.005272,0.003220,0.604477,-0.438370,-0.652806,-0.127607
54162,NaN,3.988603,-4.754306,2.712516,-4.817185,0.801665,-5.119926,-0.043300,0.214987,0.641966,-0.948730,0.476318,0.030273,0.040067,-0.047409,0.027092,0.999994,-0.000216,0.001075,0.003210,0.605453,-0.440738,-0.650591,-0.126121
54163,NaN,6.468464,-10.176895,-3.285999,-4.359663,-5.454154,0.553277,0.087079,0.061796,0.513500,-0.948975,0.482910,0.030273,0.064935,-0.101588,-0.032924,0.999997,0.000435,0.000309,0.002567,0.606180,-0.442124,-0.649305,-0.124395
54164,NaN,4.734449,-5.204339,-4.076984,-0.396570,-3.839751,-2.655812,0.380700,0.005109,0.290568,-0.951172,0.482910,0.030273,0.047419,-0.051897,-0.040870,0.999997,0.001903,0.000026,0.001453,0.607198,-0.442194,-0.648742,-0.122102
54165,NaN,7.969464,-5.964586,-3.055851,-1.193088,-2.187059,0.297709,0.435925,-0.132571,0.060246,-0.944824,0.489258,0.030029,0.079733,-0.059555,-0.030636,0.999997,0.002180,-0.000663,0.000301,0.607779,-0.441165,-0.649255,-0.120187
54166,NaN,7.965848,-6.372140,-1.722576,-2.373074,-1.505620,0.143603,0.470339,-0.030524,-0.113922,-0.948975,0.480713,0.030273,0.079625,-0.063726,-0.017363,0.999997,0.002352,-0.000153,-0.000570,0.608622,-0.439689,-0.649733,-0.118746
54167,NaN,7.573140,-4.828225,-1.443324,-1.505962,-0.599876,-0.861734,0.250719,-0.059737,-0.321423,-0.950928,0.478516,0.021729,0.075658,-0.048386,-0.014471,0.999998,0.001254,-0.000299,-0.001607,0.608800,-0.437936,-0.650748,-0.118753
54168,NaN,7.590390,-4.373119,-3.222185,0.027678,-1.566400,-0.611266,-0.119836,-0.013024,-0.411763,-0.952881,0.469971,0.028320,0.075816,-0.043907,-0.032191,0.999998,-0.000599,-0.000065,-0.002059,0.608232,-0.437272,-0.651466,-0.120163
54169,NaN,7.628352,-4.433993,-6.237182,2.022125,-3.692072,0.138885,-0.272479,0.050978,-0.494471,-0.955078,0.469971,0.032471,0.076158,-0.044613,-0.062331,0.999996,-0.001362,0.000255,-0.002472,0.607515,-0.436478,-0.652205,-0.122640
54170,NaN,8.965283,-5.061240,-6.291253,1.723247,-3.578216,1.580232,-0.159438,0.150302,-0.614009,-0.958740,0.457031,0.017578,0.089449,-0.050937,-0.062939,0.999995,-0.000797,0.000752,-0.003070,0.607246,-0.435192,-0.652838,-0.125155
54171,NaN,10.482063,-5.246286,-4.764946,0.683194,-2.075264,2.650361,0.103436,0.320120,-0.743146,-0.960693,0.450684,0.021973,0.104548,-0.052827,-0.047844,0.999992,0.000517,0.001601,-0.003716,0.608058,-0.432269,-0.653522,-0.127743
54172,NaN,11.165997,-4.571480,-3.252825,0.190870,-0.443969,2.674269,0.370192,0.455716,-0.846217,-0.962646,0.442139,0.011475,0.111391,-0.046126,-0.032867,0.999987,0.001851,0.002279,-0.004231,0.609752,-0.428431,-0.654046,-0.129900
54173,NaN,10.618737,-4.607519,-2.814588,-0.209079,-0.504848,2.087260,0.547813,0.535616,-0.913003,-0.973389,0.442139,0.000732,0.105900,-0.046481,-0.028557,0.999982,0.002739,0.002678,-0.004565,0.612086,-0.423441,-0.654692,-0.132010
54174,NaN,10.077828,-3.409144,-2.334363,0.256587,0.224271,1.073854,0.618249,0.580573,-0.921169,-0.972656,0.425049,-0.007568,0.100552,-0.034482,-0.023742,0.999980,0.003091,0.002903,-0.004606,0.614631,-0.418491,-0.655117,-0.133846
54175,NaN,10.275523,-2.450035,-1.561822,0.416349,1.306462,0.777264,0.501483,0.560386,-0.892219,-0.978760,0.414307,-0.009766,0.102600,-0.024919,-0.015968,0.999983,0.002507,0.002802,-0.004461,0.616922,-0.413667,-0.655566,-0.136088
54176,NaN,10.953822,-1.647023,-1.228487,0.809898,2.188981,1.084999,0.290378,0.475158,-0.834353,-0.980713,0.405762,-0.015869,0.109439,-0.016909,-0.012569,0.999987,0.001452,0.002376,-0.004172,0.618465,-0.410047,-0.655880,-0.138510
54177,NaN,11.583835,-1.453311,-1.048775,0.860977,2.568374,1.591638,0.123564,0.416831,-0.738869,-0.982422,0.399414,-0.024414,0.115761,-0.014954,-0.010738,0.999991,0.000618,0.002084,-0.003694,0.619581,-0.406971,-0.656165,-0.141215
54178,NaN,11.483115,-1.512801,-0.964244,0.729321,2.472303,1.520248,-0.024139,0.382607,-0.648823,-0.988770,0.393066,-0.024414,0.114763,-0.015502,-0.009860,0.999993,-0.000121,0.001913,-0.003244,0.620292,-0.404959,-0.656152,-0.143910
54179,NaN,11.020670,-1.882780,-1.266591,0.609163,1.792895,1.278674,-0.081955,0.301722,-0.564780,-0.995117,0.388672,-0.030762,0.110134,-0.019144,-0.012824,0.999995,-0.000410,0.001509,-0.002824,0.620720,-0.403163,-0.656278,-0.146512
54180,NaN,10.624093,-2.098679,-1.294042,0.416269,1.442566,0.989893,-0.036572,0.247159,-0.540324,-0.996826,0.380127,-0.028564,0.106168,-0.021276,-0.013068,0.999996,-0.000183,0.001236,-0.002702,0.621032,-0.401614,-0.656453,-0.148643
54181,NaN,10.017251,-2.364876,-1.358453,0.192696,0.965962,0.522344,0.047674,0.219946,-0.501227,-1.000977,0.375977,-0.037109,0.100098,-0.023896,-0.013700,0.999996,0.000238,0.001100,-0.002506,0.621489,-0.399678,-0.656790,-0.150455
54182,NaN,9.480360,-1.892450,-1.537082,0.589092,0.916820,-0.084716,0.093105,0.203477,-0.455529,-0.996582,0.371582,-0.039062,0.094744,-0.019133,-0.015476,0.999997,0.000466,0.001017,-0.002278,0.621977,-0.398016,-0.657025,-0.151811
54183,NaN,9.167224,-1.408491,-1.916855,1.155803,0.816697,-0.448224,0.058689,0.171682,-0.379519,-1.002930,0.369385,-0.039062,0.091629,-0.014253,-0.019251,0.999998,0.000293,0.000858,-0.001898,0.622382,-0.396479,-0.657269,-0.153110
54184,NaN,8.967477,-1.240836,-2.346791,1.548293,0.530527,-0.604865,0.000006,0.161720,-0.302674,-1.000732,0.369385,-0.036865,0.089637,-0.012544,-0.023540,0.999999,0.000000,0.000809,-0.001513,0.622659,-0.395628,-0.657260,-0.154221
54185,NaN,8.607069,-1.372034,-2.873968,1.782644,-0.064858,-0.810370,-0.096990,0.162189,-0.206228,-0.996338,0.365234,-0.045410,0.086033,-0.013823,-0.028803,0.999999,-0.000485,0.000811,-0.001031,0.622855,-0.395149,-0.657067,-0.155472
54186,NaN,8.321740,-1.411605,-2.864415,1.719580,-0.194633,-1.068891,-0.207662,0.167743,-0.121454,-1.002441,0.356689,-0.041016,0.083185,-0.014196,-0.028699,0.999999,-0.001038,0.000839,-0.000607,0.622871,-0.395531,-0.656524,-0.156723
54187,NaN,7.909830,-1.537520,-3.163728,1.796720,-0.634272,-1.368279,-0.352513,0.151764,-0.018273,-1.000732,0.365234,-0.043213,0.079073,-0.015438,-0.031670,0.999998,-0.001763,0.000759,-0.000091,0.622671,-0.396472,-0.655790,-0.158206
54188,NaN,7.720440,-2.515529,-3.160057,1.072937,-1.322921,-1.267647,-0.395485,0.182829,0.035659,-1.000488,0.360840,-0.043213,0.077180,-0.025204,-0.031621,0.999998,-0.001977,0.000914,0.000178,0.622473,-0.397943,-0.654743,-0.159625
54189,NaN,7.741816,-2.817886,-2.521943,0.416480,-1.065816,-1.272958,-0.402146,0.202029,0.080393,-1.002686,0.365234,-0.045410,0.077404,-0.028198,-0.025241,0.999997,-0.002011,0.001010,0.000402,0.622412,-0.399318,-0.653611,-0.161061
54190,NaN,7.985578,-3.105703,-2.110980,-0.045554,-0.878417,-1.032175,-0.340002,0.215154,0.111381,-1.002930,0.367432,-0.041260,0.079850,-0.031048,-0.021143,0.999998,-0.001700,0.001076,0.000557,0.622476,-0.400840,-0.652353,-0.162130
54191,NaN,8.546420,-2.770001,-1.762226,0.024056,-0.243889,-0.660662,-0.250456,0.221210,0.135659,-1.002930,0.371582,-0.045654,0.085463,-0.027664,-0.017682,0.999998,-0.001252,0.001106,0.000678,0.622819,-0.401906,-0.651168,-0.162936
54192,NaN,8.848489,-2.263140,-1.375574,0.177425,0.445695,-0.588826,-0.272001,0.239670,0.172730,-1.000732,0.369385,-0.047607,0.088488,-0.022574,-0.013831,0.999998,-0.001360,0.001198,0.000864,0.623142,-0.403393,-0.649762,-0.163641
54193,NaN,9.205786,-2.547587,-1.535620,0.135732,0.267891,-0.142910,-0.350214,0.247974,0.225955,-1.000977,0.373779,-0.052002,0.092067,-0.025399,-0.015426,0.999997,-0.001751,0.001240,0.001130,0.623439,-0.405037,-0.648224,-0.164542
54194,NaN,9.808226,-2.127890,-1.224250,0.323264,0.948128,0.248350,-0.358882,0.284834,0.259939,-0.998779,0.373779,-0.047607,0.098092,-0.021174,-0.012344,0.999997,-0.001794,0.001424,0.001300,0.623798,-0.407029,-0.646424,-0.165349
54195,NaN,10.479994,-2.061542,-1.330585,0.550826,1.125450,0.877519,-0.376897,0.330218,0.290960,-0.994629,0.380127,-0.052002,0.104808,-0.020488,-0.013440,0.999996,-0.001884,0.001651,0.001455,0.624351,-0.408893,-0.644466,-0.166299
54196,NaN,11.300455,-3.126565,-1.875962,0.267489,0.342689,2.053475,-0.305135,0.359722,0.273778,-0.994629,0.378174,-0.052002,0.113013,-0.031140,-0.018915,0.999996,-0.001526,0.001799,0.001369,0.625064,-0.410680,-0.642443,-0.167045
54197,NaN,12.150344,-2.870508,-2.126368,0.766443,0.575390,2.815591,-0.161054,0.380045,0.213308,-1.001221,0.384521,-0.058594,0.121493,-0.028593,-0.021472,0.999997,-0.000805,0.001900,0.001067,0.626146,-0.411574,-0.640659,-0.167643
54198,NaN,12.783898,-2.254963,-2.391034,1.520162,0.939980,3.265359,-0.028377,0.365854,0.137051,-0.994629,0.382324,-0.060791,0.127810,-0.022465,-0.024141,0.999998,-0.000142,0.001829,0.000685,0.627325,-0.412040,-0.639125,-0.167944
54199,NaN,13.467241,-2.200441,-2.337938,1.655204,1.199287,3.880239,0.116569,0.366575,0.070804,-0.999023,0.382324,-0.069336,0.134637,-0.021943,-0.023639,0.999998,0.000583,0.001833,0.000354,0.628810,-0.411616,-0.637904,-0.168071
54200,NaN,13.997927,-2.186238,-1.871228,1.470198,1.684676,4.301957,0.331122,0.367516,-0.003380,-0.992432,0.380127,-0.067139,0.139944,-0.021833,-0.019006,0.999997,0.001656,0.001838,-0.000017,0.630609,-0.410490,-0.636957,-0.167680
54201,NaN,14.371803,-1.783377,-0.999029,1.275968,2.637272,4.405033,0.593863,0.371564,-0.084586,-0.992432,0.380371,-0.075684,0.143692,-0.017864,-0.010310,0.999994,0.002969,0.001858,-0.000423,0.632952,-0.408058,-0.636431,-0.166784
54202,NaN,15.611677,-1.168019,-0.232970,1.414575,3.901480,5.284333,0.861603,0.363413,-0.169834,-0.996582,0.373779,-0.086182,0.156102,-0.011802,-0.002664,0.999989,0.004308,0.001817,-0.000849,0.635671,-0.404700,-0.636271,-0.165228
54203,NaN,17.730248,0.011271,0.576876,2.028839,5.792980,6.831208,1.099709,0.365330,-0.248312,-1.002930,0.375977,-0.092773,0.177313,-0.000138,0.005445,0.999982,0.005499,0.001827,-0.001242,0.638857,-0.400130,-0.636488,-0.163221
54204,NaN,15.633244,1.585973,1.950166,1.935442,7.066431,4.224258,1.110672,0.401606,-0.292564,-1.002686,0.367432,-0.099121,0.156394,0.015524,0.019274,0.999981,0.005553,0.002008,-0.001463,0.642071,-0.395494,-0.636629,-0.161346
54205,NaN,14.852615,3.776437,2.902447,2.707253,8.841494,2.748525,0.950872,0.426502,-0.298415,-1.004883,0.371826,-0.114258,0.148644,0.037405,0.028886,0.999985,0.004754,0.002132,-0.001492,0.645074,-0.391166,-0.636587,-0.160084
54206,NaN,15.283226,5.388724,1.756288,4.687760,9.141340,2.842763,0.647525,0.457001,-0.192978,-1.002686,0.369629,-0.124756,0.152924,0.053683,0.017388,0.999992,0.003238,0.002285,-0.000965,0.647618,-0.388210,-0.635964,-0.159482
54207,NaN,14.044203,4.604840,1.059661,4.470560,7.744592,2.002651,0.427272,0.522186,0.004646,-1.002686,0.371826,-0.124756,0.140468,0.046029,0.010328,0.999994,0.002136,0.002611,0.000023,0.650122,-0.386447,-0.634580,-0.159086
54208,NaN,14.451443,3.133649,0.273979,4.116748,6.315014,2.911750,0.165266,0.601724,0.299936,-1.007080,0.374023,-0.131348,0.144475,0.031551,0.002331,0.999994,0.000826,0.003009,0.001500,0.652574,-0.386435,-0.632156,-0.158727
54209,NaN,17.276624,1.960367,-0.029909,4.077553,6.114542,5.945118,-0.098928,0.751609,0.828824,-1.005371,0.382568,-0.142090,0.172680,0.020319,-0.000958,0.999984,-0.000495,0.003758,0.004144,0.655421,-0.388799,-0.627993,-0.157750
54210,NaN,20.059953,0.849104,0.091109,3.936807,6.295226,8.841845,-0.550873,0.898778,1.561869,-0.997559,0.406250,-0.151123,0.200526,0.010058,-0.000016,0.999956,-0.002754,0.004494,0.007809,0.658365,-0.394793,-0.621550,-0.156108
54211,NaN,21.373745,0.180719,-0.546277,4.566887,5.897664,10.224914,-1.307539,0.996576,2.314452,-0.987549,0.429688,-0.146973,0.213667,0.004240,-0.006550,0.999899,-0.006537,0.004983,0.011572,0.660635,-0.405495,-0.612597,-0.154469
54212,NaN,21.770964,-2.447273,-1.971199,4.311330,3.552442,11.461848,-1.880431,1.039273,3.077912,-0.971680,0.468262,-0.160400,0.217948,-0.021311,-0.020634,0.999824,-0.009402,0.005196,0.015389,0.662260,-0.420229,-0.601383,-0.152177
54213,NaN,22.149680,-5.287119,-4.410383,4.634032,0.512297,12.907899,-2.242539,0.936521,3.901482,-0.956055,0.515381,-0.150391,0.222270,-0.049038,-0.044579,0.999736,-0.011212,0.004682,0.019506,0.663171,-0.438583,-0.588197,-0.147894
54214,NaN,22.438763,-5.536564,-7.167623,6.983775,-1.141419,13.325720,-2.603773,0.710850,4.645506,-0.927734,0.566650,-0.138184,0.225352,-0.051073,-0.071793,0.999639,-0.013017,0.003554,0.023225,0.662732,-0.460156,-0.573549,-0.141718
54215,NaN,22.691419,-5.889421,-10.017226,9.273560,-2.877986,13.758044,-3.058415,0.445640,5.191048,-0.901855,0.622314,-0.132324,0.228144,-0.054511,-0.099824,0.999544,-0.015290,0.002228,0.025951,0.660363,-0.484668,-0.557678,-0.134215
54216,NaN,21.532090,-12.492902,-14.837739,7.686822,-9.613462,16.421882,-2.998028,0.102649,5.739106,-0.864990,0.680176,-0.109375,0.218753,-0.120891,-0.146657,0.999476,-0.014988,0.000513,0.028691,0.656838,-0.510235,-0.541172,-0.123924
54217,NaN,22.023221,-11.727466,-16.964488,10.338190,-9.813857,16.777273,-2.565777,-0.464321,6.074596,-0.825928,0.729248,-0.090820,0.224092,-0.112666,-0.167662,0.999454,-0.012827,-0.002321,0.030367,0.652454,-0.535122,-0.525290,-0.109633
54218,NaN,22.582445,-9.076197,-13.361609,11.203749,-4.597524,15.168724,-1.667827,-0.597850,5.970862,-0.789062,0.778564,-0.074219,0.228818,-0.085066,-0.132210,0.999515,-0.008338,-0.002989,0.029849,0.649259,-0.556389,-0.510131,-0.093064
54219,NaN,21.264016,-8.771478,-10.851268,10.324426,-2.156743,13.327431,-0.713610,-0.541348,5.718939,-0.750000,0.834229,-0.076904,0.215331,-0.081968,-0.107633,0.999581,-0.003568,-0.002706,0.028591,0.648293,-0.573327,-0.495405,-0.074744
54220,NaN,18.933392,-7.847787,-9.192933,9.765992,-0.902731,10.393040,0.382855,-0.356569,5.386566,-0.710449,0.870605,-0.081543,0.191516,-0.073163,-0.091733,0.999634,0.001914,-0.001783,0.026930,0.650122,-0.585475,-0.481119,-0.055544
54221,NaN,16.953495,-6.212865,-8.435795,10.180759,-0.256032,7.315788,1.245208,-0.157618,5.021796,-0.675049,0.902588,-0.094727,0.171081,-0.057319,-0.084590,0.999665,0.006225,-0.000788,0.025106,0.654573,-0.593371,-0.467087,-0.035714
54222,NaN,15.484268,-5.029353,-7.748137,10.415601,0.246799,4.900459,1.821863,0.066616,4.700069,-0.635010,0.932617,-0.125000,0.155930,-0.045929,-0.077965,0.999682,0.009108,0.000333,0.023498,0.660586,-0.598334,-0.453154,-0.016591
54223,NaN,13.971997,-4.128814,-6.783810,10.125552,0.732243,2.643917,2.241836,0.318503,4.463052,-0.603271,0.951904,-0.148682,0.140475,-0.037393,-0.068495,0.999687,0.011208,0.001592,0.022313,0.668183,-0.600843,-0.438764,0.002313
54224,NaN,12.406470,-2.454649,-6.118435,10.169260,1.057054,-0.178850,2.426606,0.475406,4.202340,-0.573975,0.973389,-0.172363,0.124387,-0.021188,-0.061750,0.999703,0.012132,0.002377,0.021010,0.676081,-0.601952,-0.424470,0.019850
54225,NaN,10.206484,-0.970826,-5.035495,9.207066,1.252991,-3.171236,2.296590,0.505601,3.858349,-0.546631,0.994873,-0.202637,0.102091,-0.007158,-0.050705,0.999745,0.011482,0.002528,0.019290,0.683514,-0.602288,-0.410782,0.036272
54226,NaN,8.025588,1.157245,-4.179596,8.401884,1.390249,-6.544287,2.141012,0.466949,3.432855,-0.521240,1.009766,-0.226074,0.079939,0.013394,-0.041846,0.999793,0.010704,0.002335,0.017163,0.689969,-0.602166,-0.398480,0.050529
54227,NaN,6.322776,3.743591,-3.233193,7.784930,1.950231,-9.986032,2.097798,0.383031,2.956536,-0.497803,1.018311,-0.258301,0.062600,0.038702,-0.032051,0.999834,0.010488,0.001915,0.014782,0.696188,-0.600830,-0.387631,0.063779
54228,NaN,4.091156,6.392749,-2.312605,6.603342,2.193507,-13.624810,2.156768,0.369004,2.326773,-0.484863,1.020508,-0.277588,0.040120,0.064642,-0.022506,0.999872,0.010783,0.001845,0.011633,0.702369,-0.598066,-0.378754,0.074436
54229,NaN,1.674251,9.124160,-0.126480,4.338367,3.353640,-17.295815,1.766594,0.405829,1.612991,-0.480713,1.027100,-0.299072,0.016004,0.091379,-0.000491,0.999926,0.008833,0.002029,0.008065,0.707769,-0.595036,-0.371791,0.082261
54230,NaN,-0.510108,10.829881,0.707210,2.665267,3.298415,-19.815758,1.112245,0.354606,0.926436,-0.478516,1.024902,-0.303223,-0.005589,0.108232,0.007684,0.999972,0.005561,0.001773,0.004632,0.711163,-0.593136,-0.367474,0.086019
54231,NaN,-1.780746,10.643751,0.786683,1.542068,2.627068,-20.195344,0.467625,0.244389,0.339395,-0.480957,1.033447,-0.312012,-0.017978,0.106388,0.008138,0.999995,0.002338,0.001222,0.001697,0.712849,-0.592212,-0.365368,0.087394
54232,NaN,-2.876140,10.157652,0.390517,0.843849,1.581161,-20.223758,-0.114859,0.109473,-0.157926,-0.502441,1.029297,-0.303467,-0.028679,0.101601,0.003863,0.999999,-0.000574,0.000547,-0.000790,0.712612,-0.592546,-0.365673,0.085766
54233,NaN,-3.522445,9.983529,-0.143551,0.709960,0.758556,-20.349243,-0.511146,0.013166,-0.664429,-0.517578,1.033447,-0.301514,-0.034893,0.099947,-0.001689,0.999991,-0.002556,0.000066,-0.003322,0.711400,-0.593166,-0.367784,0.082457
54234,NaN,-3.039443,9.851913,0.222190,0.912714,1.284244,-20.004041,-0.767871,-0.031487,-1.192661,-0.536621,1.024902,-0.290771,-0.029806,0.098706,0.001838,0.999975,-0.003839,-0.000157,-0.005963,0.709371,-0.593831,-0.371921,0.076370
54235,NaN,-1.895761,9.787682,0.858475,1.480836,2.413142,-19.410090,-1.054903,-0.002341,-1.701353,-0.562256,1.018555,-0.278076,-0.018124,0.098077,0.008068,0.999950,-0.005274,-0.000012,-0.008507,0.706848,-0.594391,-0.377339,0.068410
54236,NaN,-1.270528,9.093978,1.624462,1.431271,3.183795,-18.459293,-1.347379,0.089848,-2.154770,-0.592285,1.010010,-0.258789,-0.011717,0.091176,0.015636,0.999919,-0.006737,0.000449,-0.010774,0.703520,-0.595207,-0.384040,0.057459
54237,NaN,-1.521962,8.447270,1.918853,1.084064,3.120547,-17.963475,-1.790279,0.188455,-2.582820,-0.628662,1.003662,-0.239502,-0.014108,0.084827,0.018444,0.999876,-0.008951,0.000942,-0.012914,0.699209,-0.596539,-0.391505,0.044402
54238,NaN,-1.812179,8.187883,1.613408,1.268248,2.665026,-17.825734,-2.291133,0.259847,-3.025787,-0.668945,0.988525,-0.213867,-0.016858,0.082318,0.015215,0.999819,-0.011455,0.001299,-0.015128,0.693251,-0.598682,-0.400246,0.028039
54239,NaN,-1.674102,7.950500,1.044996,1.928617,2.211440,-17.460166,-2.807767,0.349978,-3.476587,-0.709473,0.971436,-0.185791,-0.015337,0.079916,0.009358,0.999749,-0.014038,0.001750,-0.017381,0.685861,-0.601370,-0.409709,0.009348
54240,NaN,-0.978128,6.795499,0.345352,2.580994,1.651570,-15.965395,-3.198781,0.436572,-3.858604,-0.760498,0.952148,-0.149414,-0.008461,0.068171,0.002384,0.999684,-0.015992,0.002183,-0.019291,0.676909,-0.604343,-0.420016,-0.012269
54241,NaN,-0.229171,5.153321,-0.220697,2.792263,1.072161,-14.020461,-3.391555,0.575670,-4.178705,-0.804932,0.928711,-0.123535,-0.001223,0.051519,-0.003076,0.999634,-0.016956,0.002878,-0.020891,0.667368,-0.606806,-0.430308,-0.035236
54242,NaN,0.354768,3.912908,-0.692414,2.898199,0.583793,-12.490687,-3.444771,0.740797,-4.457209,-0.857666,0.898682,-0.093506,0.004389,0.038910,-0.007611,0.999597,-0.017222,0.003703,-0.022283,0.657241,-0.608389,-0.440753,-0.060276
54243,NaN,0.755229,3.075696,-1.212422,3.006789,0.058692,-11.378866,-3.529444,0.872695,-4.692183,-0.910156,0.860107,-0.067383,0.008213,0.030349,-0.012697,0.999560,-0.017645,0.004363,-0.023457,0.646729,-0.609133,-0.450877,-0.086068
54244,NaN,1.319524,2.354888,-1.773351,3.175041,-0.422981,-10.223331,-3.608734,0.976510,-4.910961,-0.962402,0.812988,-0.039062,0.013675,0.022891,-0.018217,0.999524,-0.018041,0.004882,-0.024551,0.635274,-0.609055,-0.461071,-0.113544
54245,NaN,2.098187,1.340779,-2.472033,3.160251,-1.030356,-8.690927,-3.688174,1.071489,-5.107721,-1.012451,0.765869,-0.017334,0.021174,0.012408,-0.025068,0.999490,-0.018438,0.005357,-0.025534,0.623295,-0.608095,-0.470870,-0.141442
54246,NaN,2.860201,0.324203,-3.086322,2.899575,-1.600488,-7.198112,-3.775231,1.163325,-5.259882,-1.062256,0.708008,0.000488,0.028484,0.001907,-0.031074,0.999459,-0.018873,0.005816,-0.026295,0.610217,-0.606342,-0.480460,-0.170712
54247,NaN,3.530089,-0.208426,-3.930542,2.874857,-2.337185,-6.042195,-3.910084,1.253654,-5.393742,-1.114014,0.650391,0.020508,0.034967,-0.003801,-0.039462,0.999426,-0.019547,0.006267,-0.026964,0.596428,-0.603916,-0.489352,-0.200231
54248,NaN,4.335090,-0.965145,-4.934395,2.582390,-3.249310,-4.633032,-4.086547,1.313191,-5.460656,-1.159180,0.583984,0.038330,0.042723,-0.011833,-0.049399,0.999397,-0.020429,0.006565,-0.027298,0.581153,-0.601067,-0.497668,-0.230881
54249,NaN,5.828445,-2.496672,-5.425327,1.506315,-3.609523,-2.443004,-4.158653,1.413776,-5.454747,-1.206055,0.513184,0.047607,0.057172,-0.027663,-0.054103,0.999387,-0.020789,0.007067,-0.027268,0.565530,-0.597599,-0.504827,-0.261154
54250,NaN,6.950552,-4.672549,-6.046317,-0.544024,-4.291485,-0.434823,-4.256394,1.542367,-5.368687,-1.237793,0.434082,0.050781,0.067732,-0.049839,-0.059951,0.999384,-0.021278,0.007710,-0.026838,0.548984,-0.593696,-0.510747,-0.292025
54251,NaN,7.306224,-7.064598,-6.588765,-3.291180,-5.068935,0.680947,-4.298006,1.631807,-5.251097,-1.276367,0.365479,0.047363,0.070617,-0.073924,-0.064905,0.999391,-0.021486,0.008157,-0.026250,0.532403,-0.589363,-0.515249,-0.322051
54252,NaN,7.256163,-9.011470,-7.235469,-5.870039,-5.884219,1.006645,-4.132019,1.631986,-5.140969,-1.307861,0.284180,0.041992,0.069605,-0.093406,-0.071023,0.999423,-0.020656,0.008158,-0.025700,0.515464,-0.584142,-0.519189,-0.351451
54253,NaN,7.273175,-11.155305,-7.651756,-8.704472,-6.363490,1.120943,-3.778246,1.558988,-5.075234,-1.331055,0.209229,0.028076,0.069258,-0.114766,-0.074918,0.999469,-0.018888,0.007794,-0.025372,0.499296,-0.577679,-0.523062,-0.378678
54254,NaN,7.202485,-13.953471,-7.275660,-12.280457,-6.014518,0.790631,-3.285576,1.565337,-5.046050,-1.339111,0.132080,0.009766,0.067895,-0.142458,-0.070974,0.999516,-0.016425,0.007825,-0.025226,0.483727,-0.569444,-0.527320,-0.404567
54255,NaN,-1.291666,-47.023514,-27.951575,-45.983810,-28.176388,-0.584960,-3.316771,0.541660,-3.914873,-1.354736,0.089355,0.023193,-0.022919,-0.474400,-0.271618,0.999667,-0.016582,0.002708,-0.019572,0.467644,-0.565883,-0.530255,-0.424165
54256,NaN,23.008451,-57.507699,-30.674875,-55.877661,-24.303000,22.804085,-3.489063,-0.906313,-2.015369,-1.358154,0.059326,0.049316,0.225595,-0.582587,-0.295599,0.999787,-0.017444,-0.004531,-0.010076,0.450690,-0.570587,-0.530597,-0.435633
54257,NaN,122.137547,-122.498849,-57.442292,-116.258250,-23.078488,128.646224,-2.864470,-2.108642,1.221559,-1.353027,0.095703,0.053223,1.234701,-1.225410,-0.543902,0.999823,-0.014322,-0.010543,0.006107,0.439516,-0.584798,-0.525513,-0.434365
54258,NaN,-18.635989,10.330439,8.214231,8.931897,3.414437,-30.547456,3.942574,2.285990,2.992754,-1.349609,0.125732,0.018555,-0.186891,0.098837,0.086254,0.999628,0.019710,0.011429,0.014962,0.463394,-0.578840,-0.520089,-0.423932
54259,NaN,-16.979651,27.503313,18.014218,25.785332,13.454453,-32.689092,0.645141,1.219322,0.018128,-1.351562,0.119385,0.005615,-0.168715,0.274433,0.182059,0.999976,0.003226,0.006097,0.000091,0.468469,-0.574818,-0.518549,-0.425709
54260,NaN,8.277400,3.933713,-2.088392,4.767546,-0.486759,-1.726666,1.134737,0.003277,0.597888,-1.347656,0.134277,-0.003174,0.082655,0.039702,-0.020661,0.999979,0.005674,0.000016,0.002989,0.473012,-0.573714,-0.519210,-0.421347
54261,NaN,-5.075304,-11.352164,-12.955964,-11.606564,-13.654310,-10.964165,2.182391,0.431264,1.089955,-1.350586,0.153564,-0.003418,-0.050420,-0.112375,-0.130681,0.999923,0.010912,0.002156,0.005450,0.482662,-0.570453,-0.519603,-0.414286
54262,NaN,2.000070,6.604487,5.284674,6.636000,5.612526,-9.714906,0.416312,0.204026,1.596912,-1.346924,0.175049,-0.008057,0.019527,0.066092,0.052964,0.999965,0.002082,0.001020,0.007984,0.487680,-0.573178,-0.515384,-0.409896
54263,NaN,10.463792,3.872372,6.670380,5.119216,8.553186,-1.469329,-0.967119,-0.099921,1.654393,-1.343506,0.196533,-0.001953,0.104278,0.039909,0.066565,0.999954,-0.004836,-0.000500,0.008272,0.488029,-0.580000,-0.508863,-0.408027
54264,NaN,17.623608,-10.169393,-4.123878,-7.221625,-0.435824,9.646470,-2.072481,-0.562126,1.574941,-1.341797,0.211426,0.012939,0.177145,-0.100718,-0.039695,0.999911,-0.010362,-0.002811,0.007874,0.483768,-0.590182,-0.501376,-0.407769
54265,NaN,15.909439,-8.797587,-6.546069,-5.974467,-2.938416,8.326403,-1.088396,-0.312449,1.065442,-1.340332,0.228516,0.014893,0.159663,-0.087480,-0.064735,0.999970,-0.005442,-0.001562,0.005327,0.481940,-0.596127,-0.496736,-0.406964
54266,NaN,12.565379,-3.893625,-3.560878,-1.604025,-0.811504,3.696444,-0.074426,0.066014,0.785803,-1.340332,0.232910,0.014893,0.125794,-0.038455,-0.035636,0.999992,-0.000372,0.000330,0.003929,0.483488,-0.598141,-0.494061,-0.405427
54267,NaN,10.320821,-3.058789,-2.739928,-1.098617,-0.502359,1.229182,0.106009,0.152864,0.708271,-1.338867,0.247803,0.014648,0.103295,-0.030208,-0.027494,0.999993,0.000530,0.000764,0.003541,0.485625,-0.599343,-0.491766,-0.403884
54268,NaN,8.616709,-2.490033,-1.613938,-0.792222,0.228832,-0.736756,-0.062126,0.047405,0.570912,-1.332275,0.247803,0.012451,0.086234,-0.024659,-0.016152,0.999996,-0.000311,0.000237,0.002855,0.486716,-0.600821,-0.489795,-0.402769
54269,NaN,7.727533,-1.863952,-1.332634,-0.306933,0.302133,-1.764122,-0.218877,-0.009106,0.482945,-1.334717,0.256348,0.010254,0.077321,-0.018467,-0.013303,0.999996,-0.001094,-0.000046,0.002415,0.487017,-0.602575,-0.487905,-0.402078
54270,NaN,8.656840,-2.885877,-2.495340,-1.095860,-0.597123,-0.435144,-0.134498,-0.032444,0.436979,-1.330811,0.264893,0.016602,0.086635,-0.028686,-0.024920,0.999997,-0.000672,-0.000162,0.002185,0.487420,-0.604054,-0.486377,-0.401220
54271,NaN,9.481213,-4.572952,-3.510857,-2.550880,-1.341647,0.902921,0.093735,0.036269,0.344116,-1.324463,0.267090,0.012207,0.094884,-0.045550,-0.035147,0.999998,0.000469,0.000181,0.001721,0.488491,-0.604611,-0.485418,-0.400240
54272,NaN,10.865544,-4.677822,-3.494319,-2.330369,-1.066865,2.253106,0.494548,0.060921,0.113165,-1.334961,0.265137,0.003662,0.108671,-0.046630,-0.035092,0.999997,0.002473,0.000305,0.000566,0.490369,-0.603575,-0.485897,-0.398922
54273,NaN,11.033414,-3.490726,-2.720100,-1.110497,-0.364677,2.017530,0.752914,0.092146,-0.089894,-1.330811,0.269287,0.005615,0.110306,-0.034854,-0.027383,0.999993,0.003765,0.000461,-0.000449,0.492692,-0.601345,-0.487422,-0.397566
54274,NaN,10.208329,-1.777134,-2.037830,0.397478,0.044201,0.740082,0.646205,0.148003,-0.112586,-1.328613,0.262939,0.005859,0.102058,-0.017763,-0.020511,0.999994,0.003231,0.000740,-0.000563,0.494780,-0.599203,-0.488660,-0.396687
54275,NaN,8.846899,-1.657542,-2.126880,0.232924,-0.335818,-0.573012,0.421332,0.197382,-0.104340,-1.326416,0.262939,-0.002686,0.088439,-0.016577,-0.021391,0.999997,0.002107,0.000987,-0.000522,0.496326,-0.597535,-0.489300,-0.396483
54276,NaN,8.931588,-1.952679,-2.031459,-0.043742,-0.238981,-0.450317,0.101355,0.173441,-0.112277,-1.330566,0.262939,-0.004883,0.089287,-0.019567,-0.020402,0.999999,0.000507,0.000867,-0.000561,0.496840,-0.596687,-0.489387,-0.397007
54277,NaN,9.843409,-2.371393,-1.836648,-0.279071,0.119171,0.473097,-0.004156,0.167711,-0.135133,-1.326172,0.256348,-0.004883,0.098403,-0.023781,-0.018449,0.999999,-0.000021,0.000839,-0.000676,0.496979,-0.596055,-0.489347,-0.397830
54278,NaN,10.405395,-2.776467,-1.901986,-0.574770,0.153081,1.107235,0.030039,0.182677,-0.161741,-1.323975,0.256348,-0.006836,0.104014,-0.027846,-0.019119,0.999999,0.000150,0.000913,-0.000809,0.497204,-0.595244,-0.489417,-0.398678
54279,NaN,10.163208,-2.927581,-2.067807,-0.787525,-0.073994,0.934945,0.157434,0.201876,-0.210416,-1.330566,0.258545,-0.015625,0.101580,-0.029366,-0.020804,0.999999,0.000787,0.001009,-0.001052,0.497757,-0.593956,-0.489836,-0.399393
54280,NaN,9.913956,-2.900400,-1.821628,-0.834375,0.093065,0.642561,0.292926,0.213165,-0.264104,-1.330078,0.250000,-0.017578,0.099082,-0.029108,-0.018364,0.999997,0.001465,0.001066,-0.001321,0.498631,-0.592176,-0.490656,-0.399940
54281,NaN,10.194952,-2.212045,-1.584183,-0.130195,0.331397,0.733066,0.401423,0.228375,-0.289814,-1.332275,0.252197,-0.023926,0.101899,-0.022236,-0.016003,0.999996,0.002007,0.001142,-0.001449,0.499808,-0.590027,-0.491728,-0.400330
54282,NaN,10.863703,-0.948373,-1.544773,1.216483,0.432185,1.125273,0.512302,0.336198,-0.278070,-1.327637,0.241455,-0.026123,0.108598,-0.009595,-0.015655,0.999994,0.002562,0.001681,-0.001390,0.501598,-0.587409,-0.492712,-0.400730
54283,NaN,10.772983,-0.072038,-1.404390,2.038065,0.501167,0.847031,0.462245,0.413537,-0.186777,-1.327881,0.245850,-0.032471,0.107700,-0.000788,-0.014268,0.999995,0.002311,0.002068,-0.000934,0.503607,-0.584981,-0.493130,-0.401249
54284,NaN,10.905087,0.540649,-1.482359,2.658678,0.402654,0.872807,0.307031,0.347596,-0.081177,-1.331787,0.239502,-0.043213,0.109027,0.005385,-0.015005,0.999997,0.001535,0.001738,-0.000406,0.505208,-0.583331,-0.493089,-0.401688
54285,NaN,11.070507,0.120079,-1.418726,2.277181,0.460557,1.104527,0.157299,0.290819,0.027832,-1.325684,0.248047,-0.047607,0.110684,0.001227,-0.014347,0.999999,0.000786,0.001454,0.000139,0.506449,-0.582439,-0.492571,-0.402054
54286,NaN,10.610782,-0.116680,-1.153371,1.959491,0.615505,0.661760,0.022090,0.273925,0.133572,-1.325684,0.250244,-0.047607,0.106093,-0.001095,-0.011679,0.999999,0.000110,0.001370,0.000668,0.507466,-0.582183,-0.491514,-0.402436
54287,NaN,9.768724,-0.365140,-1.270684,1.575655,0.335707,-0.087439,-0.098129,0.250671,0.234303,-1.321533,0.252197,-0.053955,0.097675,-0.003543,-0.012828,0.999998,-0.000491,0.001253,0.001172,0.508277,-0.582525,-0.489981,-0.402789
54288,NaN,9.428511,-0.327252,-1.150678,1.568822,0.376165,-0.446517,-0.196867,0.238803,0.335507,-1.323730,0.252197,-0.058350,0.094277,-0.003126,-0.011616,0.999997,-0.000984,0.001194,0.001678,0.508972,-0.583386,-0.487981,-0.403091
54289,NaN,9.350611,-0.881618,-1.407456,1.051162,0.093177,-0.374555,-0.261589,0.226625,0.446141,-1.317627,0.260742,-0.060547,0.093509,-0.008626,-0.014169,0.999996,-0.001308,0.001133,0.002231,0.509669,-0.584703,-0.485557,-0.403230
54290,NaN,9.374083,-1.267856,-1.485309,0.721705,0.005703,-0.264601,-0.311565,0.225608,0.527322,-1.315430,0.265137,-0.066895,0.093757,-0.012455,-0.014939,0.999995,-0.001558,0.001128,0.002637,0.510375,-0.586341,-0.482792,-0.403279
54291,NaN,9.277147,-1.028686,-1.537732,0.984396,-0.082081,-0.404592,-0.366801,0.246793,0.599985,-1.313721,0.273682,-0.067139,0.092783,-0.010037,-0.015473,0.999993,-0.001834,0.001234,0.003000,0.511111,-0.588245,-0.479643,-0.403331
54292,NaN,8.873589,-0.829163,-2.013709,1.151114,-0.637327,-0.771028,-0.423637,0.269063,0.679989,-1.309570,0.284424,-0.073730,0.088736,-0.008033,-0.020239,0.999991,-0.002118,0.001345,0.003400,0.511885,-0.590431,-0.476079,-0.403377
54293,NaN,8.592577,-0.959258,-2.155846,1.016724,-0.837804,-0.999952,-0.468894,0.286756,0.757383,-1.307617,0.288818,-0.073730,0.085930,-0.009318,-0.021660,0.999989,-0.002344,0.001434,0.003787,0.512715,-0.592871,-0.472141,-0.403373
54294,NaN,8.524173,-1.353887,-2.368847,0.675017,-1.066138,-0.951911,-0.561637,0.276930,0.848820,-1.303955,0.303711,-0.073975,0.085265,-0.013244,-0.023769,0.999986,-0.002808,0.001385,0.004244,0.513417,-0.595768,-0.467759,-0.403318
54295,NaN,8.464814,-2.209877,-2.647248,-0.110736,-1.331554,-0.770622,-0.682573,0.253578,0.906079,-1.295654,0.316650,-0.076172,0.084714,-0.021806,-0.026505,0.999983,-0.003413,0.001268,0.004530,0.513805,-0.599139,-0.463006,-0.403313
54296,NaN,8.282610,-2.872657,-2.719866,-0.737996,-1.403347,-0.771828,-0.699547,0.240190,0.913844,-1.296143,0.325195,-0.082764,0.082924,-0.028443,-0.027198,0.999983,-0.003498,0.001201,0.004569,0.514106,-0.602578,-0.458217,-0.403277
54297,NaN,8.184685,-3.376118,-2.425185,-1.184103,-1.100115,-0.776311,-0.621564,0.280190,0.885767,-1.298828,0.344482,-0.085205,0.081962,-0.033474,-0.024262,0.999984,-0.003108,0.001401,0.004429,0.514664,-0.605651,-0.453549,-0.403238
54298,NaN,8.037326,-3.914720,-2.181471,-1.674395,-0.850446,-0.804066,-0.481863,0.297688,0.851243,-1.292725,0.350830,-0.085205,0.080507,-0.038857,-0.021841,0.999987,-0.002409,0.001488,0.004256,0.515596,-0.608234,-0.449212,-0.403014
