// Start Time: Unknown
// Update Rate: 100.0Hz
// Filter Profile: human (46.1)
// Firmware Version: 4.4.0
PacketCounter,SampleTimeFine,Acc_X,Acc_Y,Acc_Z,FreeAcc_X,FreeAcc_Y,FreeAcc_Z,Gyr_X,Gyr_Y,Gyr_Z,Mag_X,Mag_Y,Mag_Z,VelInc_X,VelInc_Y,VelInc_Z,OriInc_q0,OriInc_q1,OriInc_q2,OriInc_q3,Quat_q0,Quat_q1,Quat_q2,Quat_q3
10879,NaN,10.191971,-3.919786,2.429368,-0.000000,-0.000000,1.373803,-0.294993,-0.392426,-2.279694,-0.884766,0.172363,-0.426025,0.101416,-0.040320,0.024552,0.999932,-0.001475,-0.001962,-0.011398,0.684428,0.077161,-0.619925,0.375896
10880,NaN,10.329693,-3.772842,2.520717,0.000000,-0.000000,1.469383,-0.313297,-0.395527,-2.379741,-0.892578,0.151123,-0.417480,0.102788,-0.038914,0.025471,0.999926,-0.001566,-0.001978,-0.011898,0.678384,0.099536,-0.614174,0.390740
10881,NaN,10.540584,-3.627662,2.599755,-0.318703,0.283036,1.625612,-0.324747,-0.377983,-2.439902,-0.895996,0.129883,-0.416992,0.104904,-0.037516,0.026256,0.999922,-0.001624,-0.001890,-0.012199,0.671320,0.111347,-0.614341,0.399395
10882,NaN,10.511275,-3.599102,2.619540,-0.211821,0.044160,1.600004,-0.332938,-0.324230,-2.444957,-0.899658,0.110840,-0.414795,0.104620,-0.037228,0.026427,0.999923,-0.001665,-0.001621,-0.012224,0.675340,0.118378,-0.614686,0.389954
10883,NaN,10.145481,-3.430485,2.641021,-0.175566,-0.213580,1.214195,-0.313546,-0.269293,-2.406953,-0.898926,0.091797,-0.410156,0.100997,-0.035481,0.026601,0.999925,-0.001568,-0.001346,-0.012034,0.679601,0.125061,-0.614437,0.380749
10884,NaN,9.867928,-3.355884,2.535428,-0.000959,-0.406988,0.906257,-0.238978,-0.222035,-2.358942,-0.902588,0.070557,-0.409912,0.098246,-0.034689,0.025505,0.999929,-0.001195,-0.001110,-0.011794,0.683510,0.131909,-0.614128,0.371833
10885,NaN,9.741781,-3.272768,2.491062,0.114670,-0.549580,0.746619,-0.130662,-0.176700,-2.282745,-0.912598,0.053467,-0.403564,0.097014,-0.033820,0.025018,0.999934,-0.000653,-0.000883,-0.011413,0.687390,0.138371,-0.613138,0.363883
10886,NaN,9.608399,-3.173122,2.372187,0.270587,-0.634516,0.557333,-0.026591,-0.132262,-2.197231,-0.911865,0.034424,-0.405273,0.095712,-0.032781,0.023790,0.999939,-0.000133,-0.000661,-0.010986,0.690959,0.145248,-0.612083,0.356137
10887,NaN,9.542209,-3.035875,2.274674,0.382441,-0.660329,0.427348,0.082478,-0.084228,-2.112683,-0.909180,0.015381,-0.400879,0.095085,-0.031374,0.022774,0.999944,0.000412,-0.000421,-0.010563,0.694116,0.152266,-0.610439,0.349833
10888,NaN,9.675782,-2.811810,2.116844,0.483089,-0.523571,0.458485,0.191923,-0.049482,-2.018026,-0.906494,0.002441,-0.402588,0.096462,-0.029113,0.021165,0.999949,0.000960,-0.000247,-0.010090,0.697313,0.159170,-0.608707,0.343359
10889,NaN,9.915465,-2.625183,1.957389,0.609631,-0.347305,0.605743,0.302970,-0.030883,-1.919070,-0.912109,-0.018555,-0.398193,0.098893,-0.027231,0.019548,0.999953,0.001515,-0.000154,-0.009595,0.699782,0.166005,-0.606294,0.339346
10890,NaN,10.168887,-2.426759,1.732386,0.783991,-0.138697,0.754218,0.400450,-0.016829,-1.814721,-0.909424,-0.037842,-0.399902,0.101461,-0.025224,0.017283,0.999957,0.002002,-0.000084,-0.009073,0.702447,0.172928,-0.604141,0.334182
10891,NaN,10.325525,-2.280022,1.595088,0.911649,-0.020744,0.842112,0.492673,-0.010258,-1.716113,-0.910645,-0.061035,-0.399414,0.103054,-0.023724,0.015898,0.999960,0.002463,-0.000051,-0.008580,0.704018,0.180087,-0.601653,0.331573
10892,NaN,10.312208,-2.124095,1.552421,0.964385,-0.016082,0.785919,0.559912,-0.008279,-1.621055,-0.914795,-0.069580,-0.395264,0.102945,-0.022119,0.015467,0.999963,0.002800,-0.000041,-0.008105,0.706151,0.186941,-0.599272,0.327531
10893,NaN,10.402326,-2.029556,1.624558,0.955103,-0.083590,0.866500,0.587637,-0.029889,-1.520579,-0.905762,-0.086670,-0.398926,0.103862,-0.021133,0.016200,0.999967,0.002938,-0.000149,-0.007603,0.706904,0.193970,-0.597165,0.325662
10894,NaN,10.448652,-1.932179,1.831239,0.860213,-0.259066,0.932162,0.578577,-0.032468,-1.437897,-0.903076,-0.103760,-0.390625,0.104341,-0.020125,0.018272,0.999970,0.002893,-0.000162,-0.007189,0.708566,0.200355,-0.594925,0.322266
10895,NaN,10.498305,-2.015494,2.204717,0.742972,-0.650546,1.057463,0.527650,-0.027314,-1.346271,-0.904541,-0.118408,-0.398438,0.104841,-0.020919,0.022007,0.999974,0.002638,-0.000137,-0.006731,0.708926,0.206429,-0.593084,0.321035
10896,NaN,10.455858,-2.106711,2.519369,0.685724,-1.040366,1.075662,0.429279,-0.012520,-1.236747,-0.902100,-0.129150,-0.394287,0.104424,-0.021767,0.025154,0.999979,0.002146,-0.000063,-0.006184,0.710416,0.211634,-0.591150,0.317904
10897,NaN,10.267256,-2.193566,2.857578,0.565190,-1.425839,0.959511,0.307531,-0.001804,-1.117501,-0.904053,-0.133301,-0.392090,0.102547,-0.022553,0.028542,0.999983,0.001538,-0.000009,-0.005587,0.710296,0.216536,-0.589219,0.318452
10898,NaN,9.967650,-2.315386,3.033923,0.579947,-1.772395,0.696407,0.187188,0.006620,-1.002775,-0.899414,-0.146240,-0.397949,0.099560,-0.023682,0.030314,0.999987,0.000936,0.000033,-0.005014,0.711701,0.220142,-0.587805,0.315445
10899,NaN,9.618657,-2.354261,3.102308,0.587561,-1.916284,0.369030,0.078271,0.003739,-0.897720,-0.896973,-0.156738,-0.389648,0.096080,-0.023986,0.031012,0.999990,0.000391,0.000019,-0.004489,0.710905,0.224251,-0.585296,0.318990
10900,NaN,9.281835,-2.366227,3.094750,0.620544,-2.043073,0.024450,-0.010430,0.005891,-0.794054,-0.894775,-0.161133,-0.391602,0.092724,-0.024029,0.030946,0.999992,-0.000052,0.000029,-0.003970,0.712195,0.226527,-0.584396,0.316141
10901,NaN,8.937411,-2.434251,3.068523,0.709848,-2.093598,-0.308405,-0.093481,0.014195,-0.689745,-0.900879,-0.167480,-0.391602,0.089292,-0.024636,0.030690,0.999994,-0.000467,0.000071,-0.003449,0.710258,0.230864,-0.581016,0.323505
10902,NaN,8.586900,-2.600736,2.947431,0.907501,-2.229268,-0.680730,-0.153565,0.018226,-0.586668,-0.892334,-0.167480,-0.391357,0.085795,-0.026236,0.029487,0.999995,-0.000768,0.000091,-0.002933,0.711434,0.231992,-0.580520,0.320995
10903,NaN,8.270809,-2.754014,2.856305,1.102462,-2.240403,-0.985773,-0.186552,0.023800,-0.474945,-0.890137,-0.169434,-0.393555,0.082646,-0.027710,0.028579,0.999997,-0.000933,0.000119,-0.002375,0.708727,0.235889,-0.576449,0.331315
10904,NaN,7.913400,-2.943570,2.620641,1.374754,-2.293029,-1.386165,-0.214647,0.026388,-0.362864,-0.885986,-0.169678,-0.395508,0.079084,-0.029551,0.026228,0.999998,-0.001073,0.000132,-0.001814,0.709656,0.236130,-0.576282,0.329440
10905,NaN,7.634195,-2.983439,2.419163,1.559024,-2.116887,-1.681119,-0.196007,0.033698,-0.248165,-0.887695,-0.176025,-0.399414,0.076309,-0.029905,0.024208,0.999999,-0.000980,0.000168,-0.001241,0.706818,0.239477,-0.571792,0.340753
10906,NaN,7.328762,-3.083457,2.270644,1.701255,-2.147628,-2.010912,-0.147991,0.029499,-0.142793,-0.888184,-0.167480,-0.393555,0.073269,-0.030870,0.022718,0.999999,-0.000740,0.000147,-0.000714,0.707322,0.239312,-0.571769,0.339861
10907,NaN,7.095153,-3.053858,2.109377,1.797795,-1.914033,-2.248223,-0.091577,0.019822,-0.033718,-0.885742,-0.171631,-0.395508,0.070948,-0.030541,0.021101,1.000000,-0.000458,0.000099,-0.000169,0.702833,0.243007,-0.566911,0.354380
10908,NaN,6.873644,-2.958689,2.095662,1.707041,-1.892256,-2.471162,-0.032146,0.007613,0.060991,-0.890137,-0.171631,-0.393311,0.068746,-0.029563,0.020959,1.000000,-0.000161,0.000038,0.000305,0.702786,0.242708,-0.567015,0.354512
10909,NaN,6.656382,-2.901917,2.086251,1.671844,-1.739296,-2.653025,0.029958,-0.012281,0.147099,-0.883789,-0.171631,-0.391357,0.066584,-0.028973,0.020862,1.000000,0.000150,-0.000061,0.000735,0.696447,0.246785,-0.562063,0.371677
10910,NaN,6.461853,-2.897449,2.073906,1.649583,-1.766119,-2.840491,0.092912,-0.040287,0.227487,-0.885986,-0.169434,-0.397461,0.064647,-0.028911,0.020739,0.999999,0.000465,-0.000201,0.001137,0.695796,0.246544,-0.562311,0.372680
10911,NaN,6.260441,-2.948301,2.075386,1.692553,-1.708843,-3.000351,0.148962,-0.076603,0.299264,-0.881836,-0.167480,-0.393555,0.062641,-0.029405,0.020756,0.999999,0.000745,-0.000383,0.001496,0.688808,0.251174,-0.557869,0.388893
10912,NaN,6.128462,-3.003664,2.094737,1.703283,-1.778130,-3.111567,0.207771,-0.114085,0.363728,-0.881836,-0.163330,-0.391357,0.061327,-0.029947,0.020951,0.999998,0.001039,-0.000570,0.001819,0.687520,0.251096,-0.558313,0.390581
10913,NaN,5.959926,-3.088020,2.082746,1.789754,-1.733937,-3.241187,0.273394,-0.149869,0.424187,-0.888428,-0.158936,-0.389648,0.059649,-0.030782,0.020830,0.999997,0.001367,-0.000749,0.002121,0.680620,0.255666,-0.554007,0.405545
10914,NaN,5.789543,-3.173332,2.071622,1.840861,-1.803184,-3.390836,0.344528,-0.186227,0.488459,-0.890625,-0.154785,-0.387695,0.057953,-0.031628,0.020716,0.999995,0.001723,-0.000931,0.002442,0.678670,0.255862,-0.554564,0.407922
10915,NaN,5.628844,-3.254845,2.082871,1.896877,-1.766799,-3.496322,0.426003,-0.222193,0.555346,-0.886475,-0.150391,-0.379395,0.056355,-0.032436,0.020822,0.999993,0.002130,-0.001111,0.002777,0.671791,0.258197,-0.551008,0.422399
10916,NaN,5.536778,-3.384602,2.037783,2.009805,-1.804784,-3.570302,0.510701,-0.256458,0.612088,-0.893066,-0.148438,-0.383545,0.055445,-0.033728,0.020363,0.999991,0.002553,-0.001282,0.003060,0.669127,0.258765,-0.551576,0.425527
10917,NaN,5.689089,-3.617254,1.990047,2.242923,-1.688877,-3.368507,0.601974,-0.302998,0.662957,-0.893066,-0.148438,-0.379395,0.056980,-0.036044,0.019878,0.999989,0.003010,-0.001515,0.003315,0.660629,0.262581,-0.547478,0.441462
10918,NaN,5.898389,-3.776771,1.920901,2.397193,-1.622538,-3.151938,0.690779,-0.353390,0.702570,-0.891113,-0.137695,-0.373535,0.059082,-0.037627,0.019183,0.999986,0.003454,-0.001767,0.003513,0.657195,0.263716,-0.548035,0.445204
10919,NaN,6.136521,-3.866612,1.846022,2.502892,-1.396619,-2.898915,0.778397,-0.403746,0.735843,-0.893555,-0.131348,-0.373779,0.061470,-0.038512,0.018434,0.999984,0.003892,-0.002019,0.003679,0.648653,0.268032,-0.544715,0.459013
10920,NaN,6.274782,-3.898171,1.814911,2.517587,-1.317053,-2.756518,0.874742,-0.447089,0.763859,-0.893311,-0.135742,-0.363281,0.062856,-0.038821,0.018120,0.999981,0.004374,-0.002235,0.003819,0.644497,0.269809,-0.545171,0.463265
10921,NaN,6.273228,-3.861427,1.793283,2.474518,-1.174319,-2.743212,0.984421,-0.490920,0.796636,-0.899902,-0.129150,-0.359375,0.062842,-0.038452,0.017897,0.999977,0.004922,-0.002455,0.003983,0.636787,0.273605,-0.542501,0.474696
10922,NaN,6.166942,-3.798959,1.800273,2.392447,-1.162009,-2.839162,1.066350,-0.535784,0.838176,-0.904541,-0.120850,-0.351318,0.061780,-0.037827,0.017966,0.999973,0.005332,-0.002679,0.004191,0.631868,0.275990,-0.542808,0.479512
10923,NaN,5.918671,-3.723224,1.775070,2.309690,-1.065018,-3.061771,1.133144,-0.581966,0.886882,-0.906494,-0.120850,-0.341309,0.059300,-0.037070,0.017713,0.999970,0.005666,-0.002910,0.004434,0.621989,0.279960,-0.540040,0.493060
10924,NaN,5.492184,-3.598791,1.822831,2.179506,-1.170024,-3.462981,1.187973,-0.626490,0.941465,-0.908936,-0.116455,-0.335205,0.055034,-0.035837,0.018187,0.999966,0.005940,-0.003132,0.004707,0.616293,0.282646,-0.540360,0.498303
10925,NaN,5.132685,-3.548078,1.880032,2.110380,-1.190843,-3.763233,1.241236,-0.685651,1.010559,-0.913086,-0.118652,-0.333008,0.051441,-0.035338,0.018757,0.999962,0.006206,-0.003428,0.005053,0.603501,0.288221,-0.537020,0.514126
10926,NaN,4.948261,-3.542911,1.956721,2.072184,-1.291430,-3.904693,1.284595,-0.731483,1.085128,-0.911133,-0.108154,-0.318848,0.049603,-0.035286,0.019522,0.999958,0.006423,-0.003657,0.005426,0.596871,0.291051,-0.537466,0.519774
10927,NaN,4.808351,-3.565060,2.042866,2.056211,-1.324169,-3.979881,1.331562,-0.769815,1.164392,-0.913330,-0.105957,-0.316895,0.048212,-0.035506,0.020377,0.999953,0.006658,-0.003849,0.005822,0.583885,0.296851,-0.534968,0.533636
10928,NaN,4.665920,-3.565017,2.065572,2.041813,-1.362165,-4.092364,1.402277,-0.794653,1.249121,-0.917969,-0.097412,-0.311035,0.046799,-0.035503,0.020592,0.999948,0.007011,-0.003973,0.006245,0.576315,0.299707,-0.535373,0.539826
10929,NaN,4.532638,-3.515015,2.069300,1.985580,-1.326196,-4.201926,1.484122,-0.808640,1.330872,-0.922363,-0.091064,-0.298828,0.045476,-0.035001,0.020617,0.999942,0.007420,-0.004043,0.006654,0.564883,0.304012,-0.533945,0.550805
10930,NaN,4.451412,-3.404851,2.018011,1.879661,-1.249171,-4.300273,1.564587,-0.819980,1.402610,-0.928955,-0.086914,-0.294922,0.044670,-0.033893,0.020097,0.999936,0.007823,-0.004100,0.007013,0.556418,0.306924,-0.534050,0.557663
10931,NaN,4.439495,-3.265723,1.936439,1.732954,-1.073337,-4.338340,1.674201,-0.820755,1.457605,-0.931152,-0.082520,-0.278564,0.044553,-0.032495,0.019275,0.999930,0.008371,-0.004104,0.007288,0.543078,0.311589,-0.531683,0.570344
10932,NaN,4.888012,-3.291447,1.993202,1.612227,-0.969814,-3.883177,1.753794,-0.803881,1.469054,-0.939941,-0.074219,-0.272705,0.049041,-0.032729,0.019841,0.999926,0.008769,-0.004019,0.007345,0.533980,0.314714,-0.531113,0.577701
10933,NaN,5.662846,-3.471670,2.091059,1.529784,-0.767202,-3.062598,1.852880,-0.758542,1.448062,-0.940186,-0.065674,-0.262451,0.056800,-0.034499,0.020806,0.999924,0.009264,-0.003793,0.007240,0.517523,0.321520,-0.526151,0.593261
10934,NaN,6.734730,-3.952789,2.367828,1.618071,-0.739171,-1.848844,1.970587,-0.665758,1.407036,-0.942383,-0.059326,-0.254395,0.067546,-0.039285,0.023515,0.999921,0.009853,-0.003329,0.007035,0.508391,0.324866,-0.524248,0.600969
10935,NaN,8.032464,-4.487724,2.607269,1.658503,-0.517905,-0.408512,2.083873,-0.526531,1.339988,-0.946777,-0.054932,-0.256592,0.080556,-0.044608,0.025819,0.999920,0.010419,-0.002633,0.006700,0.492402,0.331543,-0.517435,0.616344
10936,NaN,9.553116,-5.014602,2.757491,1.632745,-0.198088,1.201210,2.159932,-0.368599,1.251186,-0.949219,-0.050781,-0.246582,0.095793,-0.049842,0.027212,0.999920,0.010799,-0.001843,0.006256,0.483975,0.334732,-0.513718,0.624353
10937,NaN,11.317509,-5.271741,2.666578,1.222154,0.504256,2.885288,2.215533,-0.189407,1.127373,-0.949219,-0.046631,-0.242432,0.113446,-0.052370,0.026192,0.999922,0.011077,-0.000947,0.005637,0.470223,0.340629,-0.505889,0.637917
10938,NaN,13.466019,-5.354814,2.451858,0.532851,1.382046,4.810014,2.312764,0.030633,0.923040,-0.949463,-0.040283,-0.244629,0.134910,-0.053204,0.023881,0.999922,0.011564,0.000153,0.004615,0.463383,0.343607,-0.499972,0.645940
10939,NaN,16.103128,-5.257290,2.023345,-0.605262,2.643766,7.030272,2.303978,0.241011,0.688049,-0.951660,-0.042236,-0.246582,0.161235,-0.052245,0.019436,0.999927,0.011520,0.001205,0.003440,0.452002,0.348823,-0.490063,0.658677
10940,NaN,18.717910,-4.755109,1.365988,-2.070464,4.050130,9.006015,2.108768,0.449440,0.479470,-0.949219,-0.046631,-0.252686,0.187322,-0.047240,0.012740,0.999939,0.010544,0.002247,0.002397,0.447821,0.350911,-0.482907,0.665672
10941,NaN,20.737508,-3.736650,0.838430,-3.916894,5.093844,10.272550,1.704535,0.670926,0.323629,-0.943115,-0.044434,-0.258789,0.207461,-0.037097,0.007371,0.999957,0.008523,0.003355,0.001618,0.441398,0.353398,-0.474680,0.674504
10942,NaN,21.506323,-2.670886,0.341086,-5.276704,5.797627,10.394029,1.114420,0.915527,0.219586,-0.940918,-0.042236,-0.267090,0.215105,-0.026488,0.002278,0.999973,0.005572,0.004578,0.001098,0.440853,0.352238,-0.469275,0.679234
10943,NaN,20.974621,-1.980962,0.144291,-5.801868,5.918800,9.556895,0.370462,1.133566,0.192182,-0.938965,-0.040039,-0.279297,0.209769,-0.019609,0.000218,0.999982,0.001852,0.005668,0.000961,0.442170,0.348528,-0.466789,0.681999
10944,NaN,19.393224,-1.561000,0.009599,-5.676295,5.759578,7.882955,-0.470783,1.296311,0.220835,-0.932617,-0.040039,-0.291504,0.193945,-0.015398,-0.001125,0.999976,-0.002354,0.006482,0.001104,0.445256,0.342541,-0.465899,0.683631
10945,NaN,17.578947,-1.283595,-0.019419,-5.287651,5.415059,6.105254,-1.314005,1.365214,0.311862,-0.926758,-0.025146,-0.308105,0.175803,-0.012568,-0.001311,0.999954,-0.006570,0.006826,0.001559,0.451519,0.333171,-0.470211,0.681197
10946,NaN,15.731927,-1.092100,-0.030660,-4.849175,5.025498,4.326392,-2.091671,1.348367,0.477030,-0.920898,-0.012451,-0.314453,0.157338,-0.010556,-0.001256,0.999920,-0.010458,0.006742,0.002385,0.456516,0.322707,-0.475044,0.679549
10947,NaN,13.987799,-1.021813,-0.034710,-4.270109,4.633730,2.717117,-2.722938,1.249503,0.674903,-0.919189,0.000244,-0.326904,0.139906,-0.009757,-0.001086,0.999882,-0.013614,0.006247,0.003374,0.466092,0.307812,-0.486397,0.671884
10948,NaN,12.424024,-1.314537,0.081171,-3.510704,4.149496,1.436566,-3.163515,1.120957,0.899255,-0.916016,0.030029,-0.335693,0.124300,-0.012579,0.000317,0.999849,-0.015817,0.005605,0.004496,0.470599,0.294439,-0.495719,0.667910
10949,NaN,11.042699,-1.834720,0.332935,-2.588786,3.535716,0.493302,-3.419836,0.989403,1.111475,-0.910156,0.049072,-0.348145,0.110542,-0.017679,0.003089,0.999826,-0.017098,0.004947,0.005557,0.478234,0.277768,-0.509948,0.658855
10950,NaN,9.730828,-2.269346,0.792418,-1.878137,2.689431,-0.341448,-3.543259,0.842002,1.281112,-0.911133,0.074707,-0.352783,0.097484,-0.021929,0.007907,0.999814,-0.017715,0.004210,0.006405,0.480996,0.263202,-0.521288,0.653931
10951,NaN,8.708125,-2.598369,1.431585,-1.413995,1.703351,-0.883585,-3.547821,0.695228,1.400022,-0.903564,0.104248,-0.349121,0.087309,-0.025117,0.014463,0.999812,-0.017738,0.003476,0.007000,0.487112,0.245820,-0.536610,0.643696
10952,NaN,7.972532,-2.772281,2.027743,-1.273533,0.862171,-1.269272,-3.468746,0.584080,1.475408,-0.895996,0.127686,-0.353516,0.079985,-0.026779,0.020514,0.999818,-0.017343,0.002920,0.007377,0.488109,0.231487,-0.548064,0.638584
10953,NaN,7.408926,-2.905727,2.352977,-1.195592,0.302287,-1.606130,-3.318640,0.524290,1.504327,-0.892578,0.151123,-0.355957,0.074365,-0.028105,0.023807,0.999831,-0.016592,0.002621,0.007521,0.491560,0.215650,-0.561662,0.629603
10954,NaN,6.966757,-3.212734,2.597495,-1.015234,-0.135547,-1.778274,-3.071210,0.526022,1.501202,-0.891357,0.180664,-0.350342,0.069973,-0.031201,0.026275,0.999850,-0.015355,0.002630,0.007506,0.491552,0.202195,-0.571569,0.625141
10955,NaN,6.639245,-3.816319,2.729404,-0.604342,-0.500457,-1.721053,-2.730155,0.584698,1.480671,-0.879395,0.199707,-0.348633,0.066751,-0.037294,0.027612,0.999875,-0.013650,0.002923,0.007403,0.493832,0.187906,-0.582145,0.618004
10956,NaN,6.327813,-4.487607,2.620468,-0.063266,-0.634676,-1.649533,-2.291556,0.671389,1.449636,-0.873779,0.225342,-0.349121,0.063688,-0.044113,0.026500,0.999902,-0.011457,0.003357,0.007248,0.493415,0.175932,-0.588871,0.615484
10957,NaN,6.035262,-5.009703,2.429277,0.390480,-0.693280,-1.640326,-1.866352,0.770193,1.424832,-0.868164,0.246582,-0.357666,0.060801,-0.049437,0.024523,0.999924,-0.009332,0.003851,0.007124,0.494855,0.163806,-0.595376,0.611404
10958,NaN,5.570581,-5.136323,1.937107,0.745293,-0.442325,-2.040121,-1.426774,0.874915,1.415348,-0.864502,0.261230,-0.364014,0.056152,-0.050828,0.019490,0.999940,-0.007134,0.004374,0.007077,0.494274,0.153375,-0.598694,0.611339
10959,NaN,5.064655,-5.031309,1.484095,0.960726,-0.214501,-2.587928,-0.914252,0.986299,1.397812,-0.854248,0.273926,-0.366211,0.051069,-0.049889,0.014819,0.999953,-0.004571,0.004931,0.006989,0.495523,0.142696,-0.601457,0.610200
10960,NaN,4.617333,-4.835740,1.090888,1.093539,0.044433,-3.127226,-0.422691,1.080572,1.385897,-0.846436,0.293213,-0.370605,0.046565,-0.048013,0.010760,0.999959,-0.002113,0.005403,0.006929,0.494828,0.134174,-0.601032,0.613109
10961,NaN,4.156696,-4.549302,0.799451,1.153134,0.213491,-3.710459,0.008175,1.165887,1.387696,-0.838379,0.299561,-0.385010,0.041927,-0.045203,0.007749,0.999959,0.000041,0.005829,0.006938,0.495549,0.125661,-0.600033,0.615306
10962,NaN,3.719408,-4.270274,0.511665,1.226067,0.410478,-4.275683,0.345597,1.230126,1.404136,-0.830078,0.310059,-0.397461,0.037523,-0.042449,0.004813,0.999955,0.001728,0.006151,0.007021,0.494682,0.118510,-0.596776,0.620567
10963,NaN,3.361672,-4.130753,0.257976,1.371137,0.564229,-4.691042,0.631884,1.274160,1.412886,-0.813721,0.322754,-0.409912,0.033922,-0.041076,0.002234,0.999950,0.003159,0.006371,0.007064,0.495262,0.110961,-0.593405,0.624719
10964,NaN,3.166185,-4.114223,0.242070,1.429387,0.584666,-4.850403,0.775473,1.290458,1.411688,-0.805420,0.327148,-0.422119,0.031965,-0.040926,0.002056,0.999947,0.003877,0.006452,0.007058,0.494227,0.104652,-0.588537,0.631199
10965,NaN,3.046644,-3.982763,0.114333,1.422035,0.735200,-5.059369,0.723405,1.240100,1.372302,-0.794922,0.331299,-0.430420,0.030744,-0.039621,0.000810,0.999951,0.003617,0.006200,0.006861,0.494683,0.097457,-0.584825,0.635430
10966,NaN,3.075790,-3.886265,-0.013198,1.368205,0.961858,-5.147291,0.677082,1.167804,1.245686,-0.791016,0.342041,-0.438721,0.030997,-0.038669,-0.000444,0.999958,0.003385,0.005839,0.006228,0.493791,0.091770,-0.580366,0.641034
10967,NaN,3.446644,-4.400629,0.252428,1.427025,0.919787,-4.481128,0.689516,1.080539,1.037007,-0.780518,0.341797,-0.452881,0.034706,-0.043835,0.002186,0.999966,0.003448,0.005403,0.005185,0.494751,0.086077,-0.576842,0.644256
10968,NaN,4.137762,-5.289615,0.848251,1.451470,0.751015,-3.243891,0.661967,0.985704,0.792411,-0.771973,0.343994,-0.463135,0.041627,-0.052759,0.008103,0.999975,0.003310,0.004928,0.003962,0.494746,0.082247,-0.572596,0.648533
10969,NaN,4.831994,-6.217317,1.453245,1.508839,0.568913,-1.969596,0.640658,0.898928,0.526257,-0.761719,0.348145,-0.471436,0.048547,-0.062091,0.014116,0.999981,0.003203,0.004495,0.002631,0.496904,0.078332,-0.569432,0.650153
10970,NaN,5.380892,-6.857727,2.064963,1.439477,0.376655,-0.979128,0.672149,0.799781,0.247296,-0.763428,0.341797,-0.477295,0.053975,-0.068579,0.020204,0.999986,0.003361,0.003999,0.001236,0.498108,0.076692,-0.565347,0.652985
10971,NaN,5.740661,-7.161063,2.651009,1.250072,0.123374,-0.342463,0.769224,0.686215,-0.032137,-0.759277,0.341797,-0.485596,0.057485,-0.071721,0.026037,0.999987,0.003846,0.003431,-0.000161,0.501295,0.075397,-0.562043,0.653549
10972,NaN,5.887310,-7.128554,3.186706,0.972086,-0.147946,-0.083142,0.858155,0.550451,-0.319885,-0.757080,0.335449,-0.495605,0.058846,-0.071515,0.031399,0.999986,0.004291,0.002752,-0.001599,0.503558,0.076642,-0.557729,0.655358
10973,NaN,6.030115,-6.856385,3.664727,0.562881,-0.380852,0.002588,0.855889,0.421459,-0.574429,-0.756592,0.322754,-0.493408,0.060180,-0.068892,0.036226,0.999984,0.004279,0.002107,-0.002872,0.507564,0.078021,-0.554530,0.654819
10974,NaN,6.250059,-6.761883,4.300196,0.199167,-0.719544,0.322378,0.722282,0.299921,-0.760753,-0.754395,0.320801,-0.505615,0.062307,-0.068011,0.042663,0.999985,0.003611,0.001500,-0.003804,0.510599,0.080976,-0.551097,0.654999
10975,NaN,6.386640,-6.864595,4.889573,0.039174,-1.136143,0.700474,0.431140,0.182762,-0.877278,-0.760254,0.308105,-0.507568,0.063609,-0.069030,0.048689,0.999988,0.002156,0.000914,-0.004386,0.514865,0.083037,-0.549646,0.652616
10976,NaN,6.388997,-7.260141,5.207454,0.288109,-1.466416,1.069058,0.099815,0.048686,-0.959433,-0.762207,0.299561,-0.505371,0.063553,-0.072933,0.052023,0.999988,0.000499,0.000243,-0.004797,0.518083,0.085767,-0.548789,0.650434
10977,NaN,6.548265,-7.853413,5.217070,0.738326,-1.535781,1.539361,-0.131348,-0.120239,-1.008433,-0.766113,0.291016,-0.505127,0.065054,-0.078829,0.052262,0.999987,-0.000657,-0.000601,-0.005042,0.521936,0.087847,-0.549722,0.646275
10978,NaN,6.847210,-8.534735,5.043047,1.288042,-1.410909,2.082995,-0.173000,-0.323794,-1.029995,-0.765869,0.282471,-0.498779,0.067950,-0.085654,0.050615,0.999985,-0.000865,-0.001619,-0.005150,0.524444,0.091267,-0.550664,0.642960
10979,NaN,7.237408,-8.861878,4.839985,1.538393,-1.194328,2.456934,-0.030413,-0.541394,-1.023067,-0.778320,0.280518,-0.499023,0.071788,-0.088980,0.048608,0.999983,-0.000152,-0.002707,-0.005115,0.526867,0.095095,-0.552221,0.639078
10980,NaN,7.360503,-8.575892,4.700804,1.420605,-1.075093,2.297008,0.232239,-0.731882,-0.978943,-0.782227,0.271973,-0.488525,0.073011,-0.086172,0.047176,0.999981,0.001161,-0.003659,-0.004895,0.527855,0.100742,-0.552930,0.636780
10981,NaN,7.159277,-7.946834,4.804550,1.050062,-1.281794,1.795233,0.525782,-0.883989,-0.859695,-0.790283,0.259277,-0.484375,0.071037,-0.079901,0.048151,0.999978,0.002629,-0.004420,-0.004298,0.530127,0.105103,-0.553915,0.633322
10982,NaN,6.778739,-7.255562,4.943127,0.704188,-1.570882,1.144685,0.773743,-1.002254,-0.680853,-0.794189,0.248535,-0.473877,0.067292,-0.072977,0.049488,0.999974,0.003869,-0.005011,-0.003404,0.529088,0.112206,-0.553748,0.633118
10983,NaN,6.359574,-6.624855,5.046498,0.415436,-1.851532,0.492561,0.961536,-1.081728,-0.463627,-0.806641,0.238037,-0.471680,0.063169,-0.066638,0.050488,0.999971,0.004808,-0.005409,-0.002318,0.528196,0.118116,-0.553824,0.632721
10984,NaN,5.965804,-6.149051,5.028106,0.296842,-2.023771,-0.091634,1.092074,-1.132412,-0.253581,-0.810791,0.240234,-0.465576,0.059295,-0.061840,0.050280,0.999968,0.005460,-0.005662,-0.001268,0.525202,0.125277,-0.553192,0.634388
10985,NaN,5.496241,-5.838013,4.858556,0.384179,-2.124413,-0.689351,1.206216,-1.170157,-0.074839,-0.814941,0.231689,-0.455322,0.054656,-0.058694,0.048553,0.999965,0.006031,-0.005851,-0.000374,0.522181,0.131347,-0.552739,0.636046
10986,NaN,5.059803,-5.676877,4.541450,0.642190,-2.089720,-1.229361,1.291189,-1.202454,0.067552,-0.816895,0.227295,-0.451172,0.050344,-0.057045,0.045350,0.999961,0.006456,-0.006012,0.000338,0.517776,0.138346,-0.551794,0.638977
10987,NaN,4.680299,-5.496842,4.223985,0.840682,-2.005364,-1.735936,1.369613,-1.231860,0.187283,-0.820801,0.220947,-0.440918,0.046595,-0.055214,0.042150,0.999957,0.006848,-0.006159,0.000936,0.513336,0.144426,-0.550953,0.641933
10988,NaN,4.420677,-5.245740,3.892769,0.933882,-1.827526,-2.196812,1.426030,-1.265869,0.290741,-0.829102,0.212646,-0.432617,0.044037,-0.052670,0.038832,0.999953,0.007130,-0.006329,0.001454,0.507864,0.151337,-0.549808,0.645664
10989,NaN,4.303200,-4.946005,3.556168,0.908608,-1.559753,-2.576097,1.471754,-1.320261,0.374554,-0.839600,0.210449,-0.424316,0.042890,-0.049641,0.035480,0.999949,0.007359,-0.006601,0.001873,0.501779,0.157931,-0.548680,0.649789
10990,NaN,4.511816,-4.584616,3.209884,0.679231,-1.125869,-2.745192,1.513918,-1.383158,0.441631,-0.841309,0.204102,-0.416016,0.044998,-0.045990,0.032063,0.999945,0.007569,-0.006916,0.002208,0.495328,0.164998,-0.547549,0.653923
10991,NaN,5.029576,-4.298297,3.004113,0.302480,-0.684677,-2.585217,1.563981,-1.451261,0.496707,-0.847656,0.201904,-0.407959,0.050185,-0.043093,0.030069,0.999940,0.007820,-0.007256,0.002483,0.487461,0.172567,-0.546153,0.659029
10992,NaN,5.697214,-4.060767,2.883851,-0.146899,-0.281263,-2.252008,1.608860,-1.524745,0.536438,-0.849609,0.199707,-0.399658,0.056861,-0.040688,0.028945,0.999935,0.008044,-0.007624,0.002682,0.480111,0.180032,-0.544995,0.663372
10993,NaN,6.337371,-3.921702,2.733308,-0.515301,0.111162,-1.892148,1.670496,-1.612758,0.559118,-0.858154,0.197754,-0.391357,0.063262,-0.039269,0.027516,0.999929,0.008352,-0.008064,0.002796,0.471865,0.187790,-0.543629,0.668241
10994,NaN,7.066067,-4.022617,2.854046,-0.806641,0.259917,-1.237267,1.763941,-1.697524,0.568872,-0.864502,0.197754,-0.379150,0.070532,-0.040279,0.028784,0.999921,0.008819,-0.008487,0.002844,0.463658,0.196058,-0.542231,0.672731
10995,NaN,8.077196,-4.226794,3.135516,-1.196061,0.358505,-0.253458,1.926356,-1.762654,0.576225,-0.868652,0.195557,-0.364990,0.080616,-0.042339,0.031659,0.999911,0.009631,-0.008813,0.002881,0.454803,0.204665,-0.540248,0.677789
10996,NaN,9.125759,-4.419731,3.433406,-1.609040,0.427956,0.762240,2.120768,-1.772468,0.598003,-0.872803,0.191162,-0.356689,0.091084,-0.044291,0.034672,0.999900,0.010603,-0.008862,0.002990,0.445775,0.213854,-0.537649,0.682997
10997,NaN,9.949658,-4.312000,3.523098,-2.121567,0.581103,1.374894,2.313343,-1.713310,0.614849,-0.878662,0.182861,-0.344238,0.099326,-0.043225,0.035583,0.999892,0.011566,-0.008566,0.003074,0.436147,0.223219,-0.533975,0.689072
10998,NaN,10.445748,-3.918337,3.481711,-2.680107,0.703975,1.541178,2.485516,-1.602140,0.623549,-0.887207,0.184814,-0.336182,0.104299,-0.039294,0.035165,0.999886,0.012427,-0.008010,0.003118,0.426899,0.232465,-0.529540,0.695201
10999,NaN,10.791816,-3.545144,3.327942,-3.134202,0.868517,1.568373,2.573671,-1.461467,0.605750,-0.889160,0.176514,-0.327881,0.107781,-0.035556,0.033610,0.999886,0.012868,-0.007307,0.003029,0.417530,0.241571,-0.524123,0.701859
11000,NaN,11.233130,-3.326962,3.151794,-3.512956,1.092638,1.748048,2.533095,-1.287763,0.550231,-0.893311,0.174316,-0.317627,0.112219,-0.033363,0.031819,0.999895,0.012665,-0.006439,0.002751,0.409123,0.249907,-0.518532,0.708018
11001,NaN,12.008800,-3.222726,2.901409,-3.980313,1.502764,2.225333,2.357666,-1.079276,0.432752,-0.890869,0.165771,-0.319580,0.120000,-0.032312,0.029281,0.999914,0.011788,-0.005396,0.002164,0.401435,0.257759,-0.512601,0.713898
11002,NaN,12.829162,-3.168195,2.514817,-4.434879,2.063801,2.718137,2.073681,-0.843660,0.253261,-0.896973,0.161621,-0.315430,0.128225,-0.031782,0.025360,0.999937,0.010368,-0.004218,0.001266,0.395672,0.264263,-0.507186,0.718590
11003,NaN,13.686624,-3.133675,2.030520,-4.878026,2.752783,3.221631,1.677186,-0.610338,-0.004906,-0.894775,0.157227,-0.311279,0.136803,-0.031511,0.020459,0.999960,0.008386,-0.003052,-0.000025,0.393134,0.269216,-0.502558,0.721390
11004,NaN,14.411479,-3.252764,1.496917,-5.120349,3.474329,3.686298,1.222760,-0.367222,-0.334084,-0.900879,0.146729,-0.315186,0.144033,-0.032860,0.015033,0.999978,0.006114,-0.001836,-0.001670,0.391764,0.273774,-0.498408,0.723297
11005,NaN,15.053451,-3.833940,1.145999,-4.870058,4.129824,4.394523,0.759769,-0.136131,-0.668307,-0.900635,0.138184,-0.312988,0.150397,-0.038886,0.011415,0.999987,0.003799,-0.000681,-0.003342,0.394272,0.276899,-0.495340,0.722852
11006,NaN,15.402283,-4.789022,0.645911,-4.127291,4.920616,4.997214,0.290779,0.075445,-0.952974,-0.904297,0.127686,-0.312744,0.153795,-0.048633,0.006331,0.999988,0.001454,0.000377,-0.004765,0.397498,0.279552,-0.492814,0.721790
11007,NaN,15.353194,-5.546838,0.260110,-3.256990,5.463563,5.223737,-0.180756,0.274475,-1.163588,-0.904053,0.116943,-0.312500,0.153209,-0.056358,0.002441,0.999982,-0.000904,0.001372,-0.005818,0.404135,0.280732,-0.491714,0.718388
11008,NaN,14.733843,-5.934955,0.125280,-2.412275,5.517543,4.886279,-0.626958,0.464640,-1.293733,-0.899658,0.112793,-0.316650,0.146953,-0.060297,0.001099,0.999971,-0.003135,0.002323,-0.006469,0.410795,0.280965,-0.491195,0.714865
11009,NaN,13.550490,-5.896346,0.307003,-1.618003,4.997312,4.003340,-1.031629,0.610634,-1.355289,-0.901611,0.108398,-0.324707,0.135110,-0.059864,0.002964,0.999959,-0.005158,0.003053,-0.006776,0.419766,0.279936,-0.492202,0.709344
11010,NaN,12.212863,-5.816350,0.470951,-0.849209,4.417323,2.953256,-1.395695,0.676166,-1.337982,-0.901123,0.095703,-0.330566,0.121752,-0.058946,0.004707,0.999948,-0.006978,0.003381,-0.006690,0.428110,0.277884,-0.493833,0.704011
11011,NaN,11.008946,-5.758708,0.607701,-0.135602,3.861679,2.010855,-1.688427,0.714527,-1.267748,-0.898926,0.089355,-0.332520,0.109744,-0.058232,0.006174,0.999938,-0.008442,0.003573,-0.006339,0.438500,0.274283,-0.497322,0.696532
11012,NaN,9.737058,-5.792381,0.817537,0.602136,3.206068,1.067925,-1.884059,0.741672,-1.143903,-0.892578,0.089355,-0.334473,0.097068,-0.058401,0.008364,0.999932,-0.009420,0.003708,-0.005719,0.446885,0.270392,-0.500653,0.690310
11013,NaN,8.340716,-5.746478,0.815116,1.312435,2.647466,-0.090467,-2.004411,0.762477,-1.020147,-0.894775,0.091553,-0.336670,0.083145,-0.057806,0.008412,0.999930,-0.010022,0.003812,-0.005101,0.456472,0.265465,-0.505298,0.682522
11014,NaN,7.091412,-5.624584,0.849015,1.820266,2.097885,-1.156491,-2.059867,0.757183,-0.905288,-0.892578,0.089355,-0.346924,0.070692,-0.056477,0.008803,0.999930,-0.010299,0.003786,-0.004526,0.464179,0.260446,-0.509360,0.676209
11015,NaN,6.076295,-5.382637,1.006592,2.077306,1.478380,-2.040557,-2.118481,0.753044,-0.796618,-0.890381,0.091553,-0.353027,0.060587,-0.053959,0.010409,0.999929,-0.010592,0.003765,-0.003983,0.472475,0.254862,-0.514496,0.668661
11016,NaN,5.214265,-4.944080,1.177423,2.045054,0.915283,-2.884604,-2.216463,0.746033,-0.696958,-0.888428,0.093750,-0.353027,0.052015,-0.049489,0.012128,0.999926,-0.011082,0.003730,-0.003485,0.479516,0.248902,-0.519216,0.662214
11017,NaN,4.461330,-4.452457,1.294296,1.903874,0.430893,-3.681442,-2.374160,0.737465,-0.601970,-0.884521,0.100098,-0.359131,0.044528,-0.044502,0.013307,0.999918,-0.011870,0.003687,-0.003010,0.487569,0.241823,-0.525418,0.654014
11018,NaN,3.821216,-4.022941,1.179204,1.789213,0.229978,-4.434806,-2.558365,0.735891,-0.509126,-0.884521,0.102051,-0.363281,0.038154,-0.040173,0.012166,0.999908,-0.012791,0.003679,-0.002546,0.494218,0.234492,-0.531324,0.646882
11019,NaN,3.250932,-3.726567,1.043763,1.761919,0.059826,-5.075935,-2.753828,0.730301,-0.417655,-0.882568,0.110596,-0.363525,0.032471,-0.037186,0.010831,0.999896,-0.013769,0.003651,-0.002088,0.501799,0.225875,-0.538737,0.637919
11020,NaN,2.752373,-3.659045,0.813771,1.925931,0.001181,-5.579893,-2.894380,0.739835,-0.336448,-0.881104,0.125488,-0.363770,0.027493,-0.036515,0.008565,0.999887,-0.014471,0.003699,-0.001682,0.508080,0.217131,-0.545670,0.630042
11021,NaN,2.386187,-3.908055,0.604911,2.311154,-0.077890,-5.814637,-2.939311,0.753108,-0.260282,-0.877197,0.134033,-0.374023,0.023835,-0.039018,0.006533,0.999884,-0.014696,0.003765,-0.001301,0.514334,0.208071,-0.553289,0.621320
11022,NaN,2.186815,-4.300754,0.437089,2.742821,-0.156120,-5.822538,-2.879210,0.773777,-0.184338,-0.875244,0.144531,-0.368164,0.021847,-0.042960,0.004905,0.999888,-0.014396,0.003869,-0.000922,0.519987,0.198746,-0.559989,0.613617
11023,NaN,2.077989,-4.811708,0.411303,3.187563,-0.376361,-5.648979,-2.692926,0.806616,-0.102053,-0.867188,0.153076,-0.376465,0.020773,-0.048067,0.004677,0.999901,-0.013464,0.004033,-0.000510,0.525787,0.189132,-0.566721,0.605479
11024,NaN,2.045020,-5.169917,0.332904,3.486594,-0.485716,-5.496695,-2.371192,0.846451,-0.019716,-0.865479,0.165771,-0.378662,0.020461,-0.051658,0.003855,0.999921,-0.011856,0.004232,-0.000099,0.530447,0.180374,-0.571609,0.599461
11025,NaN,2.060352,-5.406789,0.446594,3.585176,-0.730274,-5.308197,-1.948038,0.883524,0.059306,-0.863525,0.170166,-0.385010,0.020641,-0.054015,0.004901,0.999943,-0.009740,0.004418,0.000297,0.535474,0.171479,-0.575931,0.593435
11026,NaN,2.135471,-5.417641,0.549851,3.480998,-0.847360,-5.189085,-1.505136,0.928194,0.129003,-0.853271,0.180664,-0.386963,0.021416,-0.054120,0.005807,0.999961,-0.007526,0.004641,0.000645,0.539035,0.164313,-0.578000,0.590220
11027,NaN,2.243802,-5.189789,0.672995,3.160048,-0.898075,-5.161999,-1.091564,0.971149,0.169738,-0.853271,0.182861,-0.395264,0.022515,-0.051841,0.006904,0.999973,-0.005458,0.004856,0.000849,0.543132,0.157071,-0.579483,0.586972
11028,NaN,2.322428,-4.769462,0.661693,2.767275,-0.754389,-5.301333,-0.792458,0.979424,0.175404,-0.847412,0.191406,-0.403564,0.023299,-0.047648,0.006692,0.999980,-0.003962,0.004897,0.000877,0.546067,0.151529,-0.579275,0.585910
11029,NaN,2.477441,-4.377288,0.600713,2.400096,-0.539116,-5.384585,-0.599864,0.970936,0.137361,-0.843018,0.191406,-0.407715,0.024834,-0.043738,0.006018,0.999983,-0.002999,0.004855,0.000687,0.549898,0.145594,-0.579198,0.583904
11030,NaN,2.721455,-4.230516,0.594848,2.190107,-0.371385,-5.260444,-0.518249,0.946446,0.043699,-0.836914,0.193359,-0.411865,0.027252,-0.042284,0.005929,0.999985,-0.002591,0.004732,0.000218,0.552881,0.141272,-0.578132,0.583205
11031,NaN,3.183377,-4.345996,0.734411,2.052175,-0.299075,-4.786749,-0.491822,0.911480,-0.105481,-0.834717,0.193359,-0.419922,0.031844,-0.043459,0.007306,0.999986,-0.002459,0.004557,-0.000527,0.556646,0.136991,-0.577537,0.581231
11032,NaN,4.032707,-4.824654,1.096980,1.980349,-0.312108,-3.752642,-0.408722,0.878030,-0.306567,-0.832520,0.193359,-0.421875,0.040301,-0.048286,0.010891,0.999987,-0.002044,0.004390,-0.001533,0.560345,0.134180,-0.576064,0.579792
11033,NaN,5.297768,-5.670755,1.785300,1.919888,-0.497025,-2.100490,-0.326170,0.823331,-0.534677,-0.826172,0.189209,-0.434082,0.052899,-0.056820,0.017728,0.999987,-0.001631,0.004117,-0.002673,0.564509,0.132279,-0.574790,0.577449
11034,NaN,6.717728,-6.444831,2.578537,1.731481,-0.662394,-0.332420,-0.320721,0.749510,-0.783882,-0.832031,0.178467,-0.431885,0.067020,-0.064670,0.025638,0.999984,-0.001604,0.003748,-0.003919,0.569130,0.131456,-0.573074,0.574802
11035,NaN,8.102366,-6.852167,3.076849,1.440378,-0.518019,1.129145,-0.345905,0.624562,-1.075897,-0.825439,0.170166,-0.439941,0.080749,-0.068903,0.030635,0.999979,-0.001730,0.003123,-0.005379,0.574085,0.131769,-0.571958,0.570901
11036,NaN,9.459919,-6.868698,3.351867,1.008612,-0.107263,2.306453,-0.378410,0.428372,-1.387218,-0.827148,0.155273,-0.445801,0.094192,-0.069278,0.033447,0.999972,-0.001892,0.002142,-0.006936,0.579503,0.133419,-0.570879,0.566103
11037,NaN,10.860984,-6.711136,3.549136,0.507000,0.391655,3.422986,-0.460135,0.203026,-1.671311,-0.828613,0.138184,-0.443604,0.108080,-0.067934,0.035537,0.999962,-0.002301,0.001015,-0.008356,0.584987,0.136253,-0.570821,0.559811
11038,NaN,12.066934,-6.720291,3.993604,0.115198,0.494910,4.555995,-0.660687,-0.015107,-1.871484,-0.832520,0.131836,-0.437256,0.120031,-0.068196,0.040169,0.999951,-0.003303,-0.000076,-0.009357,0.590604,0.139692,-0.571412,0.552414
11039,NaN,13.031618,-7.080919,4.585680,0.002464,0.163506,5.710129,-0.986103,-0.229221,-1.962568,-0.842773,0.121338,-0.435059,0.129562,-0.071855,0.046358,0.999939,-0.004930,-0.001146,-0.009813,0.595124,0.143837,-0.573557,0.544215
11040,NaN,13.215652,-7.579093,4.868035,0.349729,-0.408611,6.171583,-1.288477,-0.456283,-1.954460,-0.846680,0.108643,-0.430908,0.131297,-0.076760,0.049473,0.999929,-0.006442,-0.002281,-0.009772,0.600018,0.146835,-0.576975,0.534339
11041,NaN,12.990278,-8.042795,5.117162,0.732841,-1.198362,6.238396,-1.459305,-0.699277,-1.862585,-0.854980,0.102295,-0.424561,0.128967,-0.081253,0.052215,0.999924,-0.007296,-0.003496,-0.009313,0.602825,0.150837,-0.581613,0.524954
11042,NaN,12.499967,-8.286373,5.133695,1.075664,-1.858696,5.892306,-1.500999,-0.933568,-1.704952,-0.856934,0.097900,-0.414307,0.124046,-0.083533,0.052543,0.999925,-0.007505,-0.004668,-0.008525,0.605672,0.153705,-0.587037,0.514707
11043,NaN,11.946138,-8.357795,5.164474,1.235410,-2.493867,5.401780,-1.406146,-1.132567,-1.505652,-0.867188,0.087402,-0.401855,0.118532,-0.084104,0.052908,0.999931,-0.007031,-0.005663,-0.007528,0.606609,0.157307,-0.593059,0.505531
11044,NaN,11.257117,-8.257664,5.128534,1.294562,-3.031043,4.690493,-1.270706,-1.295275,-1.272689,-0.875732,0.093750,-0.393799,0.111707,-0.082958,0.052537,0.999939,-0.006353,-0.006476,-0.006363,0.606947,0.160486,-0.599163,0.496853
11045,NaN,10.399468,-8.072657,4.920698,1.390963,-3.426675,3.746308,-1.073843,-1.422217,-1.022997,-0.885986,0.085205,-0.379395,0.103225,-0.080987,0.050377,0.999947,-0.005369,-0.007111,-0.005115,0.605586,0.164078,-0.605490,0.489618
11046,NaN,9.488971,-7.933700,4.798759,1.484972,-3.875864,2.788094,-0.771390,-1.513267,-0.777797,-0.890137,0.083008,-0.363037,0.094212,-0.079517,0.049009,0.999956,-0.003857,-0.007566,-0.003889,0.603515,0.167790,-0.611297,0.483665
11047,NaN,8.612866,-8.043950,4.665696,1.780424,-4.364498,1.953070,-0.359098,-1.589948,-0.529696,-0.902832,0.083008,-0.348877,0.085540,-0.080582,0.047483,0.999963,-0.001795,-0.007950,-0.002648,0.599718,0.172395,-0.616640,0.479972
11048,NaN,7.952208,-8.468377,4.301732,2.436796,-4.682940,1.393831,0.175804,-1.641077,-0.303911,-0.909180,0.083008,-0.332520,0.079037,-0.084842,0.043593,0.999965,0.000879,-0.008205,-0.001520,0.595215,0.177786,-0.620857,0.478172
11049,NaN,7.543965,-9.144462,3.634385,3.449994,-4.713307,1.124539,0.979679,-1.649264,-0.127009,-0.913330,0.078857,-0.318115,0.075081,-0.091671,0.036515,0.999954,0.004898,-0.008246,-0.000635,0.588845,0.185355,-0.623337,0.479954
11050,NaN,7.342026,-9.493641,3.060292,4.158678,-4.510695,0.946408,1.940871,-1.682124,-0.004128,-0.917236,0.068115,-0.311768,0.073163,-0.095233,0.030296,0.999918,0.009704,-0.008410,-0.000021,0.581765,0.195098,-0.623579,0.484393
11051,NaN,7.523478,-7.965609,3.100321,2.953023,-3.771640,0.517798,2.629901,-1.691212,0.157856,-0.925293,0.059570,-0.291260,0.075038,-0.080001,0.030588,0.999877,0.013149,-0.008456,0.000789,0.573183,0.206087,-0.622351,0.491598
11052,NaN,7.761674,-5.562500,3.763876,0.694422,-3.215951,-0.090237,3.145119,-1.604177,0.294476,-0.927246,0.051025,-0.280762,0.077399,-0.056100,0.037380,0.999843,0.015725,-0.008020,0.001472,0.564137,0.218089,-0.619426,0.500498
11053,NaN,7.623286,-3.406440,4.688507,-1.390895,-3.224378,-0.903840,3.348445,-1.479256,0.372583,-0.929199,0.044678,-0.268555,0.075950,-0.034708,0.046870,0.999831,0.016741,-0.007396,0.001863,0.553925,0.230610,-0.615294,0.511272
11054,NaN,7.134866,-2.316062,6.326973,-2.772168,-4.481837,-1.534604,3.121801,-1.138400,0.458692,-0.933105,0.040527,-0.262207,0.071043,-0.023985,0.063305,0.999859,0.015608,-0.005692,0.002293,0.545572,0.240717,-0.610912,0.520762
11055,NaN,7.629932,-2.921827,6.623228,-2.349696,-4.886248,-0.800429,3.244076,-0.995931,0.519325,-0.937500,0.042725,-0.256104,0.076047,-0.030094,0.066128,0.999853,0.016220,-0.004979,0.002596,0.536657,0.250658,-0.605532,0.531508
11056,NaN,9.983414,-3.584228,5.398094,-1.842763,-3.379726,1.449395,3.863326,-1.031519,0.682167,-0.939209,0.031982,-0.250000,0.099680,-0.036542,0.053794,0.999794,0.019315,-0.005157,0.003411,0.526768,0.261642,-0.598766,0.543633
11057,NaN,9.757759,-1.875805,4.631478,-2.902739,-2.277655,0.510511,4.267814,-0.812445,0.893203,-0.943359,0.027832,-0.243652,0.097475,-0.019311,0.046303,0.999754,0.021337,-0.004062,0.004466,0.516250,0.271858,-0.590297,0.557790
11058,NaN,6.747710,1.108494,4.865760,-4.588472,-2.646395,-3.302946,3.694457,-0.472586,0.862345,-0.945312,0.025635,-0.237549,0.067316,0.010472,0.049014,0.999817,0.018471,-0.002363,0.004311,0.507333,0.280111,-0.582280,0.570176
11059,NaN,4.823575,1.376891,4.409395,-3.985810,-2.737331,-5.205641,2.760845,-0.307759,0.693442,-0.947510,0.027832,-0.235596,0.048121,0.013325,0.044354,0.999898,0.013804,-0.001539,0.003467,0.500084,0.286127,-0.575683,0.580204
11060,NaN,5.030662,0.562350,4.165070,-3.198840,-2.638820,-4.735737,1.895542,-0.317840,0.739394,-0.945312,0.025635,-0.233398,0.050220,0.005414,0.041783,0.999947,0.009478,-0.001589,0.003697,0.494285,0.289640,-0.572009,0.587024
11061,NaN,6.119704,-0.856032,3.353596,-2.083221,-1.815818,-3.347927,0.992911,-0.333126,0.843967,-0.945557,0.034180,-0.233643,0.061177,-0.008469,0.033596,0.999977,0.004965,-0.001666,0.004220,0.488701,0.291145,-0.570500,0.592398
11062,NaN,7.498719,-2.626316,2.764168,-0.873059,-1.140814,-1.523845,0.421354,-0.288056,0.987480,-0.947998,0.038330,-0.229492,0.075076,-0.025951,0.027695,0.999985,0.002107,-0.001440,0.004937,0.484333,0.290201,-0.571387,0.595585
11063,NaN,8.895492,-3.756288,2.994259,-0.486363,-1.144769,0.220111,0.032982,-0.201569,1.146086,-0.944092,0.053223,-0.227783,0.089138,-0.037057,0.030026,0.999983,0.000165,-0.001008,0.005730,0.479985,0.287760,-0.572947,0.598782
11064,NaN,10.052099,-3.782768,3.003182,-1.016834,-0.863416,1.259449,-0.246186,-0.023924,1.173882,-0.944824,0.072266,-0.230225,0.100737,-0.037200,0.030090,0.999982,-0.001231,-0.000120,0.005869,0.476747,0.283867,-0.575423,0.600850
11065,NaN,10.830524,-3.053710,2.710405,-2.038044,-0.269436,1.577842,-0.254023,0.196968,1.039670,-0.947021,0.076660,-0.230225,0.108489,-0.029939,0.027036,0.999985,-0.001270,0.000985,0.005198,0.474457,0.279565,-0.576826,0.603329
11066,NaN,11.671557,-2.296765,2.431574,-3.095594,0.343364,1.922355,-0.220519,0.384849,0.849367,-0.945312,0.084961,-0.236572,0.116858,-0.022445,0.024116,0.999989,-0.001103,0.001924,0.004247,0.473307,0.275422,-0.577761,0.605240
11067,NaN,12.748280,-2.049253,1.849880,-3.707232,1.283449,2.627098,-0.216788,0.585052,0.634660,-0.943359,0.091553,-0.242676,0.127600,-0.020068,0.018148,0.999990,-0.001084,0.002925,0.003173,0.473210,0.271357,-0.577477,0.607419
11068,NaN,13.730391,-2.772782,0.708337,-3.272198,2.642992,3.567146,-0.336301,0.737308,0.457250,-0.939209,0.093506,-0.249023,0.137392,-0.027402,0.006623,0.999989,-0.001681,0.003687,0.002286,0.474402,0.266993,-0.577370,0.608525
11069,NaN,15.274203,-4.611005,-0.589961,-2.016183,4.206475,5.456562,-0.483987,0.876763,0.368260,-0.933105,0.099854,-0.259277,0.152799,-0.045844,-0.006458,0.999986,-0.002420,0.004384,0.001841,0.476651,0.261928,-0.576952,0.609364
11070,NaN,16.665140,-6.948282,-1.893987,-0.239358,5.680981,7.428548,-0.568925,1.036133,0.355515,-0.937500,0.104248,-0.267578,0.166674,-0.069242,-0.019606,0.999981,-0.002845,0.005181,0.001778,0.479293,0.256378,-0.576672,0.609917
11071,NaN,17.382012,-8.259518,-2.866141,0.866051,6.804389,8.394911,-0.490369,1.172940,0.299117,-0.928955,0.106445,-0.275635,0.173772,-0.082407,-0.029478,0.999979,-0.002452,0.005865,0.001496,0.482910,0.250309,-0.575619,0.610579
11072,NaN,17.379768,-7.952978,-3.096997,0.681500,7.232141,8.135177,-0.239583,1.264650,0.172934,-0.922852,0.110596,-0.294189,0.173666,-0.079417,-0.031973,0.999979,-0.001198,0.006323,0.000865,0.486312,0.245360,-0.573501,0.611878
11073,NaN,16.717444,-6.088005,-2.843239,-0.676885,7.222147,6.679719,-0.071888,1.271416,0.023272,-0.925049,0.112793,-0.300293,0.166996,-0.060871,-0.029473,0.999980,-0.000359,0.006357,0.000116,0.490696,0.240623,-0.570707,0.612872
11074,NaN,15.778724,-3.943718,-2.492353,-2.197074,7.047486,4.892260,-0.105724,1.246574,-0.089583,-0.920654,0.108643,-0.310547,0.157610,-0.039521,-0.025885,0.999980,-0.000529,0.006233,-0.000448,0.494647,0.236788,-0.567853,0.613839
11075,NaN,14.529372,-2.613781,-1.826962,-2.962607,6.341052,3.313003,-0.304224,1.236851,-0.117961,-0.914307,0.108643,-0.320557,0.145162,-0.026252,-0.019128,0.999980,-0.001521,0.006184,-0.000590,0.498967,0.232603,-0.565524,0.614093
11076,NaN,13.278856,-2.430309,-0.669762,-2.886725,4.997583,2.409099,-0.662669,1.254424,-0.048148,-0.910400,0.114990,-0.337158,0.132738,-0.024359,-0.007450,0.999975,-0.003313,0.006272,-0.000241,0.503421,0.227222,-0.564359,0.613544
11077,NaN,11.964172,-2.890049,0.587249,-2.293967,3.425477,1.799431,-1.171680,1.260612,0.138724,-0.904297,0.121338,-0.343262,0.119696,-0.028785,0.005287,0.999963,-0.005858,0.006303,0.000694,0.508451,0.219650,-0.565062,0.611504
11078,NaN,10.524388,-3.622706,1.550237,-1.414343,1.993137,1.156185,-1.700753,1.230908,0.383817,-0.900146,0.127686,-0.349609,0.105407,-0.035895,0.015160,0.999943,-0.008504,0.006154,0.001919,0.512596,0.210459,-0.567521,0.608993
11079,NaN,9.226566,-4.199549,2.069366,-0.655213,0.990233,0.465304,-2.198048,1.168798,0.586343,-0.896240,0.138184,-0.357910,0.092508,-0.041498,0.020611,0.999918,-0.010990,0.005844,0.002932,0.516692,0.199492,-0.571876,0.605137
11080,NaN,8.139850,-4.466692,2.196526,-0.165806,0.431443,-0.282831,-2.605207,1.122687,0.719537,-0.893066,0.165771,-0.360352,0.081682,-0.044086,0.022084,0.999893,-0.013026,0.005613,0.003598,0.520270,0.187280,-0.577513,0.600603
11081,NaN,7.481819,-4.511673,2.287357,-0.042949,0.087401,-0.781989,-2.880211,1.117251,0.800941,-0.885010,0.178711,-0.364746,0.075126,-0.044485,0.023098,0.999873,-0.014400,0.005586,0.004005,0.523934,0.174047,-0.584038,0.595064
11082,NaN,6.853098,-4.369301,2.092487,0.016289,0.036504,-1.420380,-3.033374,1.109550,0.858742,-0.879395,0.201904,-0.377441,0.068834,-0.043078,0.021200,0.999860,-0.015166,0.005547,0.004294,0.527187,0.160261,-0.590821,0.589339
11083,NaN,6.321400,-4.214660,1.460861,0.236411,0.393382,-2.089635,-3.063189,1.089343,0.888761,-0.869385,0.220947,-0.377686,0.063480,-0.041638,0.014904,0.999858,-0.015315,0.005446,0.004444,0.530352,0.146221,-0.597687,0.583195
11084,NaN,5.860948,-4.294512,0.735159,0.700181,0.780108,-2.585363,-2.907851,1.085684,0.906013,-0.866211,0.246582,-0.375977,0.058844,-0.042569,0.007653,0.999869,-0.014539,0.005428,0.004530,0.533013,0.132611,-0.603870,0.577626
11085,NaN,5.430241,-4.599943,0.180540,1.280959,0.944104,-2.873908,-2.653585,1.077126,0.908063,-0.862305,0.261475,-0.380371,0.054521,-0.045725,0.002120,0.999887,-0.013267,0.005385,0.004540,0.535438,0.119499,-0.609306,0.572514
11086,NaN,5.024160,-4.941789,-0.316958,1.873641,1.039034,-3.091586,-2.359511,1.053806,0.909340,-0.854492,0.278320,-0.382568,0.050450,-0.049224,-0.002854,0.999906,-0.011797,0.005269,0.004547,0.537407,0.107376,-0.613724,0.568338
11087,NaN,4.711119,-5.168819,-0.722260,2.310981,1.122015,-3.267997,-2.032443,1.016172,0.911232,-0.846436,0.293213,-0.380859,0.047311,-0.051544,-0.006938,0.999925,-0.010162,0.005081,0.004556,0.539064,0.096055,-0.617359,0.564846
11088,NaN,4.476551,-5.321033,-0.822481,2.505995,1.022946,-3.354935,-1.698927,0.978812,0.929471,-0.842773,0.308105,-0.385254,0.044973,-0.053070,-0.007993,0.999941,-0.008494,0.004894,0.004647,0.540246,0.085828,-0.619928,0.562545
11089,NaN,4.250598,-5.292495,-0.781384,2.490280,0.883484,-3.511395,-1.391872,0.938031,0.968843,-0.828369,0.318604,-0.391357,0.042726,-0.052772,-0.007646,0.999953,-0.006959,0.004690,0.004844,0.541016,0.076280,-0.621910,0.560990
11090,NaN,4.058097,-5.260071,-0.634659,2.402025,0.695657,-3.625175,-1.088010,0.900781,1.004695,-0.824707,0.337646,-0.393799,0.040816,-0.052430,-0.006245,0.999962,-0.005440,0.004504,0.005023,0.541394,0.067674,-0.622885,0.560649
11091,NaN,3.994513,-5.295422,-0.388946,2.250202,0.485654,-3.579767,-0.774164,0.872715,1.033674,-0.820801,0.343994,-0.402100,0.040201,-0.052762,-0.003860,0.999970,-0.003871,0.004364,0.005168,0.541509,0.059669,-0.623206,0.561090
11092,NaN,3.946808,-5.183106,0.000857,1.907178,0.245825,-3.588241,-0.523925,0.836834,1.049499,-0.810547,0.356689,-0.402100,0.039739,-0.051623,-0.000022,0.999974,-0.002620,0.004184,0.005247,0.541314,0.052621,-0.622707,0.562535
11093,NaN,3.798178,-4.867698,0.216729,1.577515,0.163993,-3.841775,-0.329686,0.799726,1.028875,-0.802490,0.365234,-0.412598,0.038240,-0.048477,0.002095,0.999977,-0.001648,0.003999,0.005144,0.541049,0.046055,-0.621917,0.564237
11094,NaN,3.660412,-4.623714,0.422050,1.309181,0.075566,-4.047665,-0.145024,0.774724,0.953499,-0.800537,0.371582,-0.418701,0.036840,-0.046059,0.004112,0.999981,-0.000725,0.003874,0.004767,0.540790,0.040500,-0.620438,0.566535
11095,NaN,3.748160,-4.848429,0.698728,1.221031,-0.106499,-3.767723,0.000743,0.750060,0.860007,-0.790283,0.380127,-0.418945,0.037715,-0.048322,0.006846,0.999984,0.000004,0.003750,0.004300,0.540797,0.035456,-0.618719,0.568743
11096,NaN,4.106329,-5.541999,0.885606,1.391853,-0.222852,-3.002936,0.071857,0.709849,0.751114,-0.790527,0.388672,-0.425049,0.041302,-0.055268,0.008690,0.999987,0.000359,0.003549,0.003756,0.540835,0.031295,-0.616720,0.571116
11097,NaN,4.544553,-6.287958,1.085875,1.555564,-0.313936,-2.141195,0.152247,0.685163,0.619941,-0.784180,0.388672,-0.435303,0.045677,-0.062746,0.010655,0.999989,0.000761,0.003426,0.003100,0.541129,0.027667,-0.614760,0.573135
11098,NaN,4.960631,-6.686009,1.250077,1.535389,-0.260579,-1.539382,0.241865,0.653224,0.466080,-0.782227,0.392822,-0.435303,0.049802,-0.066759,0.012258,0.999991,0.001209,0.003266,0.002330,0.541761,0.025004,-0.612359,0.575227
11099,NaN,5.181217,-6.657384,1.365715,1.359747,-0.145073,-1.377011,0.399856,0.604483,0.290911,-0.780029,0.392822,-0.441650,0.051950,-0.066525,0.013367,0.999992,0.001999,0.003022,0.001455,0.542744,0.023325,-0.609821,0.577064
11100,NaN,5.389888,-6.329845,1.511736,0.994852,0.041750,-1.421542,0.585958,0.534252,0.122436,-0.771484,0.388672,-0.451660,0.053977,-0.063309,0.014788,0.999992,0.002930,0.002671,0.000612,0.543944,0.022987,-0.606691,0.579243
11101,NaN,5.486726,-6.016021,1.680728,0.682103,0.128367,-1.527799,0.699050,0.457980,-0.034485,-0.770996,0.377930,-0.459717,0.054895,-0.060228,0.016471,0.999991,0.003495,0.002290,-0.000172,0.545360,0.023561,-0.603637,0.581076
11102,NaN,5.477164,-5.850109,1.860784,0.514736,0.087496,-1.602167,0.720373,0.371462,-0.170110,-0.775391,0.382324,-0.463867,0.054756,-0.058614,0.018295,0.999991,0.003602,0.001857,-0.000851,0.546882,0.024947,-0.600507,0.582828
11103,NaN,5.378804,-6.066307,2.102195,0.603826,-0.191307,-1.461083,0.671794,0.268088,-0.310602,-0.773193,0.373779,-0.467773,0.053722,-0.060817,0.020746,0.999992,0.003359,0.001340,-0.001553,0.548618,0.026851,-0.597933,0.583757
11104,NaN,5.445371,-6.757023,2.235512,1.023407,-0.455384,-0.921580,0.574031,0.125062,-0.524078,-0.777100,0.365234,-0.467529,0.054290,-0.067776,0.022127,0.999992,0.002870,0.000625,-0.002620,0.550437,0.029615,-0.595842,0.584050
11105,NaN,6.080504,-7.964659,2.611418,1.440092,-0.743929,0.414711,0.576525,-0.025714,-0.799513,-0.783203,0.358887,-0.473633,0.060482,-0.079964,0.025892,0.999988,0.002883,-0.000129,-0.003998,0.552633,0.033641,-0.594313,0.583315
11106,NaN,7.285116,-9.328645,3.364017,1.559119,-1.038048,2.348846,0.685424,-0.174501,-1.010762,-0.784912,0.346191,-0.475586,0.072349,-0.093768,0.033383,0.999981,0.003427,-0.000873,-0.005054,0.554933,0.039035,-0.592618,0.582521
11107,NaN,8.512377,-9.859780,3.967566,1.235497,-0.990647,3.711614,0.720651,-0.381007,-1.150809,-0.792969,0.333496,-0.471191,0.084479,-0.099228,0.039480,0.999975,0.003603,-0.001905,-0.005754,0.557021,0.045529,-0.591522,0.581168
11108,NaN,9.099983,-9.079082,4.035126,0.587142,-0.547785,3.636231,0.703259,-0.600812,-1.294859,-0.802979,0.318604,-0.470947,0.090288,-0.091519,0.040302,0.999968,0.003516,-0.003004,-0.006474,0.558825,0.053051,-0.590841,0.579488
11109,NaN,9.023209,-7.808535,4.308793,-0.294530,-0.528216,2.859631,0.695764,-0.784810,-1.411182,-0.808838,0.301758,-0.472900,0.089508,-0.078869,0.043167,0.999961,0.003479,-0.003924,-0.007056,0.560359,0.061502,-0.590824,0.577185
11110,NaN,8.644685,-6.785915,4.750413,-1.010143,-0.897924,2.083336,0.521090,-0.923645,-1.423298,-0.821045,0.293213,-0.460449,0.085740,-0.068595,0.047723,0.999961,0.002605,-0.004618,-0.007116,0.561551,0.069820,-0.591451,0.574431
11111,NaN,8.167451,-6.327311,4.978768,-1.195162,-1.357111,1.512374,0.195467,-1.031109,-1.307654,-0.827148,0.282715,-0.447998,0.081000,-0.063853,0.050144,0.999965,0.000977,-0.005155,-0.006538,0.562176,0.077237,-0.593442,0.570805
11112,NaN,7.748464,-6.426493,4.804581,-0.800542,-1.655156,1.189109,-0.095350,-1.100842,-1.130922,-0.830811,0.265625,-0.439453,0.076854,-0.064678,0.048501,0.999969,-0.000477,-0.005504,-0.005655,0.562152,0.083455,-0.596358,0.566902
11113,NaN,7.217241,-6.811174,4.292470,0.003861,-1.845826,0.840795,-0.228662,-1.152681,-0.941218,-0.843506,0.265625,-0.431396,0.071602,-0.068400,0.043417,0.999972,-0.001143,-0.005763,-0.004706,0.561369,0.089003,-0.600024,0.562951
11114,NaN,6.601530,-7.164897,3.773558,0.802183,-2.038373,0.402768,-0.173653,-1.182275,-0.780763,-0.851807,0.259277,-0.423096,0.065510,-0.071872,0.038186,0.999975,-0.000868,-0.005911,-0.003904,0.560078,0.094175,-0.603474,0.559699
11115,NaN,5.913644,-7.230014,3.309468,1.376844,-2.181695,-0.245024,0.009942,-1.201447,-0.670650,-0.862305,0.255127,-0.410889,0.058693,-0.072499,0.033445,0.999976,0.000050,-0.006007,-0.003353,0.558183,0.099683,-0.606629,0.557222
11116,NaN,5.178933,-6.937360,2.929778,1.661696,-2.246506,-1.110784,0.262958,-1.232941,-0.574335,-0.859863,0.246582,-0.400391,0.051408,-0.069560,0.029524,0.999976,0.001315,-0.006165,-0.002872,0.555894,0.105583,-0.609042,0.555789
11117,NaN,4.575768,-6.416657,2.692386,1.655914,-2.243727,-1.965192,0.544401,-1.282332,-0.507921,-0.874268,0.240234,-0.392334,0.045421,-0.064356,0.027041,0.999973,0.002722,-0.006412,-0.002540,0.552918,0.112315,-0.610951,0.555344
11118,NaN,4.162670,-5.729220,2.605112,1.380655,-2.182593,-2.722694,0.800728,-1.339860,-0.457846,-0.884766,0.233887,-0.384033,0.041320,-0.057491,0.026099,0.999967,0.004004,-0.006699,-0.002289,0.549623,0.119636,-0.612161,0.555753
11119,NaN,3.822542,-5.091884,2.620436,1.064306,-2.175867,-3.367672,1.006654,-1.394996,-0.421115,-0.886475,0.223145,-0.373535,0.037935,-0.051131,0.026213,0.999961,0.005033,-0.006975,-0.002106,0.545674,0.127747,-0.613016,0.556894
11120,NaN,3.633797,-4.573022,2.711272,0.744970,-2.198032,-3.805922,1.158593,-1.453183,-0.412228,-0.896729,0.214844,-0.361328,0.036046,-0.045962,0.027110,0.999955,0.005793,-0.007266,-0.002061,0.541598,0.136206,-0.613471,0.558366
11121,NaN,3.584380,-4.255692,2.848693,0.508743,-2.270107,-4.010875,1.251324,-1.508993,-0.414583,-0.900635,0.204102,-0.354980,0.035540,-0.042809,0.028489,0.999950,0.006257,-0.007545,-0.002073,0.537015,0.145312,-0.613794,0.560140
11122,NaN,3.797139,-4.205014,2.981760,0.385101,-2.321660,-3.858504,1.290260,-1.557739,-0.413651,-0.911133,0.197754,-0.342529,0.037652,-0.042321,0.029839,0.999947,0.006451,-0.007789,-0.002068,0.532422,0.154395,-0.614037,0.561826
11123,NaN,4.333644,-4.265710,3.157486,0.208223,-2.324666,-3.370764,1.293945,-1.584296,-0.380102,-0.915039,0.191406,-0.328125,0.043005,-0.042944,0.031639,0.999946,0.006470,-0.007921,-0.001900,0.527372,0.163711,-0.614249,0.563716
11124,NaN,4.949934,-4.380368,3.266137,0.070777,-2.271346,-2.798956,1.263498,-1.591763,-0.300044,-0.927490,0.182861,-0.315918,0.049173,-0.044084,0.032776,0.999947,0.006317,-0.007959,-0.001500,0.522262,0.172438,-0.614614,0.565471
11125,NaN,5.390668,-4.455842,3.152741,0.063455,-2.092778,-2.432356,1.193977,-1.588727,-0.211045,-0.925049,0.176514,-0.301514,0.053608,-0.044804,0.031687,0.999950,0.005970,-0.007944,-0.001055,0.516606,0.180984,-0.615156,0.567403
11126,NaN,5.518453,-4.415084,2.974993,0.098661,-1.941196,-2.395247,1.128492,-1.578437,-0.106565,-0.933350,0.170166,-0.291016,0.054925,-0.044349,0.029934,0.999953,0.005642,-0.007892,-0.000533,0.511003,0.188693,-0.615914,0.569141
11127,NaN,5.643207,-4.416730,2.727180,0.185220,-1.737257,-2.346894,1.118048,-1.569245,-0.001220,-0.939453,0.163818,-0.278809,0.056217,-0.044321,0.027466,0.999954,0.005590,-0.007846,-0.000006,0.504793,0.196312,-0.616641,0.571314
11128,NaN,5.901559,-4.485385,2.429113,0.275591,-1.455833,-2.154228,1.178126,-1.557908,0.088685,-0.947754,0.161621,-0.264404,0.058845,-0.044972,0.024485,0.999952,0.005891,-0.007789,0.000443,0.498551,0.203451,-0.617273,0.573610
11129,NaN,6.370089,-4.745389,2.152254,0.417628,-1.168612,-1.677044,1.345997,-1.522582,0.128235,-0.941406,0.159424,-0.254150,0.063567,-0.047559,0.021687,0.999948,0.006730,-0.007613,0.000641,0.491760,0.211164,-0.617165,0.576793
11130,NaN,7.315619,-5.215048,2.097326,0.442536,-0.982037,-0.650078,1.620351,-1.446188,0.116696,-0.958252,0.155273,-0.243896,0.073035,-0.052278,0.021078,0.999941,0.008102,-0.007231,0.000583,0.485216,0.218946,-0.616142,0.580515
11131,NaN,8.860451,-5.706449,2.316238,0.144391,-0.869029,0.941838,1.999578,-1.300368,0.035810,-0.959961,0.144531,-0.233643,0.088464,-0.057280,0.023166,0.999929,0.009998,-0.006502,0.000179,0.478573,0.227754,-0.613324,0.585602
11132,NaN,11.022253,-5.991150,2.684081,-0.610601,-0.673243,2.984242,2.473159,-1.054634,-0.133241,-0.959717,0.135986,-0.233398,0.110041,-0.060315,0.026677,0.999909,0.012365,-0.005273,-0.000666,0.472865,0.237148,-0.608407,0.591609
11133,NaN,13.488398,-5.777155,3.245278,-1.913942,-0.478282,5.085301,2.866927,-0.721796,-0.361640,-0.965576,0.123291,-0.229004,0.134662,-0.058477,0.032104,0.999889,0.014334,-0.003609,-0.001808,0.467991,0.247489,-0.600898,0.598878
11134,NaN,15.892407,-5.126994,3.053992,-3.297350,0.485990,6.832703,3.147053,-0.353707,-0.541257,-0.971436,0.110596,-0.232910,0.158730,-0.052175,0.030005,0.999871,0.015735,-0.001768,-0.002706,0.464590,0.257507,-0.591562,0.606547
11135,NaN,17.767459,-5.245428,1.884970,-3.532476,2.174880,8.340460,3.209840,0.005791,-0.633340,-0.968750,0.093750,-0.230713,0.177507,-0.053310,0.017994,0.999866,0.016048,0.000029,-0.003167,0.462120,0.267006,-0.580702,0.614767
11136,NaN,19.901654,-6.859911,0.293669,-2.495822,4.279940,10.648612,3.032551,0.368797,-0.706427,-0.968262,0.078857,-0.236572,0.198776,-0.069332,0.001522,0.999877,0.015162,0.001844,-0.003532,0.461253,0.274899,-0.569521,0.622351
11137,NaN,21.227770,-8.706845,-1.309238,-0.921657,6.333103,12.259225,2.834258,0.688594,-0.741770,-0.969971,0.066162,-0.250732,0.211904,-0.087651,-0.015062,0.999887,0.014171,0.003443,-0.003709,0.461427,0.281486,-0.557909,0.629753
11138,NaN,21.103014,-8.189936,-1.733723,-1.057056,7.093557,11.727184,2.694767,0.908755,-0.819759,-0.971680,0.055420,-0.260742,0.210608,-0.082511,-0.019404,0.999891,0.013473,0.004544,-0.004099,0.462696,0.287099,-0.546119,0.636584
11139,NaN,19.846772,-4.876295,-1.155808,-3.413644,6.600927,9.260141,2.250067,1.031441,-0.909151,-0.967041,0.036377,-0.268555,0.198179,-0.049522,-0.013135,0.999913,0.011250,0.005157,-0.004546,0.465084,0.291473,-0.535206,0.642102
11140,NaN,18.349962,-1.283953,-0.090308,-6.024531,5.418730,6.701361,1.294332,1.123077,-0.899656,-0.960205,0.025879,-0.286621,0.183430,-0.013654,-0.002020,0.999953,0.006472,0.005615,-0.004498,0.469067,0.293274,-0.527109,0.645076
11141,NaN,16.812204,1.023279,1.064027,-7.517408,4.052724,4.743719,-0.125981,1.163578,-0.727383,-0.958008,0.019531,-0.288574,0.168216,0.009627,0.009656,0.999976,-0.000630,0.005818,-0.003637,0.474688,0.291118,-0.523757,0.644670
11142,NaN,15.243099,1.445903,1.504849,-7.274388,3.346803,3.324510,-1.790382,1.148955,-0.410689,-0.953857,0.028076,-0.305176,0.152543,0.014275,0.014044,0.999941,-0.008952,0.005745,-0.002053,0.481596,0.284226,-0.526180,0.640637
11143,NaN,13.596024,0.166969,1.406925,-5.454571,3.068518,2.340042,-3.374071,1.103111,-0.029168,-0.950195,0.042969,-0.319580,0.136035,0.001878,0.013289,0.999842,-0.016869,0.005515,-0.000146,0.489409,0.272607,-0.534267,0.633026
11144,NaN,12.074180,-1.810970,1.070057,-3.075014,2.889538,1.694029,-4.630208,1.035925,0.313618,-0.946533,0.059814,-0.315918,0.120824,-0.017676,0.010487,0.999717,-0.023149,0.005179,0.001568,0.497353,0.257086,-0.546670,0.622654
11145,NaN,10.629515,-3.322233,0.661347,-1.176111,2.639609,0.962705,-5.442995,0.946894,0.557283,-0.943604,0.093750,-0.330811,0.106419,-0.032739,0.007005,0.999615,-0.027211,0.004734,0.002786,0.505152,0.238987,-0.561829,0.609963
11146,NaN,9.211467,-4.066646,0.428171,-0.046207,2.170799,0.028796,-5.799424,0.869886,0.696243,-0.944336,0.121338,-0.325195,0.092276,-0.040206,0.005051,0.999564,-0.028993,0.004349,0.003481,0.512177,0.219630,-0.577911,0.596201
11147,NaN,7.865428,-4.191718,0.368000,0.451131,1.592504,-1.047538,-5.822865,0.776794,0.765129,-0.932617,0.148926,-0.329590,0.078830,-0.041491,0.004586,0.999561,-0.029110,0.003883,0.003825,0.518433,0.200105,-0.593936,0.581744
11148,NaN,6.590614,-4.001040,0.145752,0.722228,1.240291,-2.236220,-5.593157,0.719253,0.783233,-0.931396,0.176514,-0.323975,0.066069,-0.039695,0.002333,0.999595,-0.027962,0.003596,0.003916,0.523672,0.181112,-0.608888,0.567645
11149,NaN,5.415352,-3.956101,-0.063034,1.104784,0.870358,-3.255234,-5.147481,0.697793,0.770466,-0.927979,0.199951,-0.324219,0.054305,-0.039354,0.000195,0.999655,-0.025734,0.003489,0.003852,0.528235,0.163222,-0.622232,0.554214
11150,NaN,4.433311,-4.072447,-0.193091,1.527636,0.450543,-4.004285,-4.616560,0.710808,0.731839,-0.924805,0.227539,-0.322754,0.044477,-0.040594,-0.001151,0.999721,-0.023081,0.003554,0.003659,0.532033,0.146739,-0.633577,0.542207
11151,NaN,3.513830,-4.218861,-0.338957,1.973230,0.048134,-4.678202,-4.024684,0.742533,0.704187,-0.921387,0.250732,-0.316895,0.035276,-0.042123,-0.002672,0.999784,-0.020122,0.003712,0.003521,0.535470,0.131704,-0.642964,0.531528
11152,NaN,2.734929,-4.361255,-0.429929,2.342958,-0.343218,-5.221766,-3.409174,0.787154,0.698799,-0.919434,0.261475,-0.317139,0.027486,-0.043583,-0.003664,0.999841,-0.017045,0.003936,0.003494,0.538299,0.118219,-0.650282,0.522869
11153,NaN,2.098454,-4.548263,-0.383309,2.616935,-0.806410,-5.601112,-2.842504,0.826389,0.718636,-0.909424,0.276367,-0.315430,0.021134,-0.045456,-0.003274,0.999884,-0.014212,0.004132,0.003593,0.540861,0.106000,-0.655912,0.515764
11154,NaN,1.721847,-4.655431,-0.340986,2.736335,-1.112738,-5.809252,-2.372860,0.841468,0.760099,-0.907959,0.295410,-0.315674,0.017382,-0.046525,-0.002931,0.999914,-0.011864,0.004207,0.003800,0.542866,0.094912,-0.660109,0.510435
11155,NaN,1.637805,-4.787120,-0.248046,2.728130,-1.333959,-5.758349,-1.947611,0.833632,0.828381,-0.899902,0.305908,-0.323975,0.016567,-0.047824,-0.002083,0.999935,-0.009738,0.004168,0.004142,0.544511,0.084698,-0.663234,0.506413
11156,NaN,1.835099,-4.865553,-0.044235,2.503028,-1.471792,-5.498605,-1.647010,0.832570,0.899215,-0.896240,0.327148,-0.318115,0.018569,-0.048574,-0.000119,0.999947,-0.008235,0.004163,0.004496,0.545659,0.075121,-0.665491,0.503721
11157,NaN,2.104143,-4.882002,0.114754,2.235250,-1.495113,-5.225493,-1.452734,0.829858,0.963783,-0.888428,0.342041,-0.326660,0.021282,-0.048708,0.001414,0.999953,-0.007264,0.004149,0.004819,0.546613,0.065778,-0.667280,0.501622
11158,NaN,2.254704,-4.895740,0.269310,2.013692,-1.549746,-5.051663,-1.352648,0.837353,1.008497,-0.886719,0.356934,-0.328857,0.022805,-0.048824,0.002928,0.999956,-0.006763,0.004187,0.005042,0.547293,0.056615,-0.668693,0.500115
11159,NaN,2.398777,-4.984262,0.029518,2.106657,-1.348368,-4.878992,-1.269380,0.834317,1.007184,-0.878662,0.367432,-0.331055,0.024240,-0.049718,0.000510,0.999958,-0.006347,0.004172,0.005036,0.547982,0.047591,-0.669903,0.498678
11160,NaN,2.490911,-5.357507,-0.238595,2.420250,-1.291556,-4.574524,-1.133494,0.838442,0.941409,-0.872559,0.378174,-0.335449,0.025152,-0.053470,-0.002188,0.999964,-0.005667,0.004192,0.004707,0.548688,0.039241,-0.670639,0.497639
11161,NaN,2.731127,-5.843948,-0.598579,2.812563,-1.157053,-4.092588,-0.940762,0.821289,0.808943,-0.868896,0.390869,-0.337646,0.027523,-0.058356,-0.005824,0.999972,-0.004704,0.004106,0.004045,0.549659,0.031820,-0.670925,0.496711
11162,NaN,3.099501,-6.598273,-0.968350,3.331136,-1.083761,-3.346570,-0.657230,0.834588,0.637235,-0.862549,0.395020,-0.345947,0.031165,-0.065915,-0.009597,0.999981,-0.003286,0.004173,0.003186,0.550965,0.025803,-0.670359,0.496377
11163,NaN,3.519552,-7.672486,-0.882725,3.702285,-1.457430,-2.315862,-0.397510,0.810473,0.467944,-0.860840,0.401367,-0.350098,0.035339,-0.076660,-0.008818,0.999987,-0.001988,0.004052,0.002340,0.552600,0.021040,-0.669228,0.496312
11164,NaN,4.019051,-8.589057,-0.970613,4.085847,-1.577379,-1.346022,-0.201709,0.739660,0.370443,-0.850342,0.405762,-0.360352,0.040313,-0.085826,-0.009768,0.999991,-0.001009,0.003698,0.001852,0.554166,0.017409,-0.667725,0.496730
11165,NaN,4.447775,-9.401466,-0.822353,4.273344,-1.834456,-0.473537,-0.067961,0.637501,0.306750,-0.841797,0.405518,-0.360352,0.044595,-0.093949,-0.008334,0.999994,-0.000340,0.003187,0.001534,0.555546,0.014507,-0.666219,0.497303
11166,NaN,4.620690,-9.758969,-0.597761,4.248212,-2.043810,-0.080214,-0.035702,0.484516,0.235861,-0.848389,0.412109,-0.364502,0.046307,-0.097536,-0.006072,0.999996,-0.000179,0.002423,0.001179,0.556568,0.012418,-0.664984,0.497869
11167,NaN,4.717042,-9.497551,-0.621768,4.080328,-1.821846,-0.175658,0.020955,0.310307,0.103440,-0.842041,0.407715,-0.366455,0.047210,-0.094950,-0.006301,0.999999,0.000105,0.001552,0.000517,0.557310,0.011250,-0.664154,0.498175
11168,NaN,4.868596,-9.250086,-0.531482,3.826093,-1.663235,-0.213499,0.082409,0.180371,-0.033139,-0.846191,0.409912,-0.370605,0.048666,-0.092507,-0.005397,0.999999,0.000412,0.000902,-0.000166,0.557981,0.011141,-0.663451,0.498362
11169,NaN,4.905418,-9.481681,-0.421318,3.873322,-1.831750,-0.025708,0.033141,0.067858,-0.088547,-0.848389,0.407715,-0.366455,0.049011,-0.094838,-0.004246,1.000000,0.000166,0.000339,-0.000443,0.558357,0.011253,-0.663261,0.498192
11170,NaN,4.817224,-10.212406,-0.477423,4.367814,-2.217952,0.372090,-0.084053,-0.080037,-0.072517,-0.843994,0.407715,-0.366455,0.048137,-0.102144,-0.004712,1.000000,-0.000420,-0.000400,-0.000363,0.558271,0.011459,-0.663697,0.497702
11171,NaN,4.696469,-11.051078,-0.605432,4.971097,-2.639806,0.811306,-0.155460,-0.272571,-0.071822,-0.848145,0.405762,-0.364258,0.046933,-0.110532,-0.005904,0.999999,-0.000777,-0.001363,-0.000359,0.557434,0.011854,-0.664937,0.496976
11172,NaN,4.795395,-11.903541,-0.747349,5.504136,-2.950324,1.423353,-0.103572,-0.486739,-0.091626,-0.854736,0.412109,-0.364502,0.047917,-0.119061,-0.007295,0.999997,-0.000518,-0.002434,-0.000458,0.556042,0.013080,-0.666551,0.496342
11173,NaN,5.136271,-12.384766,-0.641148,5.549753,-3.112262,2.006313,0.078933,-0.733666,-0.133600,-0.856934,0.409912,-0.354248,0.051303,-0.123879,-0.006272,0.999993,0.000395,-0.003668,-0.000668,0.553763,0.015457,-0.668482,0.496225
11174,NaN,5.567454,-12.463776,-0.447287,5.282528,-3.080968,2.399799,0.334313,-0.965433,-0.166100,-0.864990,0.401367,-0.343994,0.055592,-0.124677,-0.004413,0.999987,0.001672,-0.004827,-0.000830,0.550909,0.019334,-0.670312,0.496797
11175,NaN,5.855430,-12.053479,-0.038853,4.642895,-3.018813,2.389943,0.583155,-1.181842,-0.160360,-0.864990,0.401367,-0.345947,0.058460,-0.120581,-0.000394,0.999978,0.002916,-0.005909,-0.000802,0.547049,0.024337,-0.672196,0.498294
11176,NaN,5.976927,-11.371331,0.215967,4.033637,-2.800390,2.060182,0.792026,-1.348681,-0.094295,-0.873291,0.399414,-0.331543,0.059701,-0.113750,0.002112,0.999969,0.003960,-0.006743,-0.000471,0.542632,0.030180,-0.673887,0.500515
11177,NaN,5.812929,-10.597411,0.461229,3.488747,-2.664904,1.458288,1.008256,-1.468313,0.024612,-0.883545,0.388672,-0.327393,0.058109,-0.105990,0.004505,0.999960,0.005041,-0.007341,0.000123,0.537211,0.036389,-0.675425,0.503866
11178,NaN,5.376444,-9.970816,0.551544,3.258299,-2.616690,0.730739,1.195678,-1.564059,0.174866,-0.887695,0.386475,-0.312988,0.053809,-0.099693,0.005340,0.999951,0.005978,-0.007820,0.000874,0.531239,0.042948,-0.676620,0.508061
11179,NaN,4.953675,-9.463858,0.512429,3.178865,-2.502890,0.086615,1.402601,-1.634693,0.317031,-0.887939,0.388672,-0.304932,0.049646,-0.094595,0.004866,0.999941,0.007013,-0.008173,0.001585,0.524255,0.049710,-0.677518,0.513474
11180,NaN,4.636335,-9.099570,0.550361,3.096089,-2.447860,-0.377519,1.633054,-1.712040,0.451405,-0.894043,0.382324,-0.298828,0.046523,-0.090934,0.005159,0.999927,0.008165,-0.008560,0.002257,0.516847,0.056853,-0.677883,0.519722
11181,NaN,4.424329,-8.883274,0.575792,3.065160,-2.379205,-0.660522,1.884078,-1.760197,0.589464,-0.896240,0.386475,-0.286621,0.044457,-0.088753,0.005312,0.999913,0.009420,-0.008801,0.002947,0.508429,0.064235,-0.677724,0.527318
11182,NaN,4.267026,-8.657177,0.640925,2.986855,-2.297295,-0.903988,2.137393,-1.821086,0.730640,-0.900635,0.388672,-0.284424,0.042931,-0.086480,0.005875,0.999895,0.010687,-0.009105,0.003653,0.499585,0.071987,-0.676889,0.535774
11183,NaN,4.105703,-8.374176,0.613970,2.928542,-2.099942,-1.188719,2.408804,-1.871936,0.854350,-0.904541,0.384521,-0.274170,0.041361,-0.083634,0.005518,0.999875,0.012044,-0.009359,0.004272,0.489669,0.080051,-0.675399,0.545575
11184,NaN,3.999010,-7.971619,0.618737,2.751075,-1.850398,-1.510440,2.680327,-1.930965,0.955910,-0.906494,0.380127,-0.263916,0.040315,-0.079601,0.005508,0.999852,0.013401,-0.009654,0.004779,0.479389,0.088640,-0.673106,0.556109
11185,NaN,3.989889,-7.554605,0.647039,2.491521,-1.570585,-1.766976,2.913730,-1.987907,1.031009,-0.908936,0.384277,-0.260010,0.040228,-0.075427,0.005770,0.999831,0.014568,-0.009939,0.005155,0.468025,0.097668,-0.670150,0.567725
11186,NaN,4.228598,-7.342563,0.774605,2.179359,-1.358715,-1.701182,3.112354,-2.032671,1.075323,-0.911133,0.386475,-0.253906,0.042606,-0.073310,0.007037,0.999813,0.015561,-0.010163,0.005376,0.456548,0.107099,-0.666480,0.579567
11187,NaN,4.703166,-7.440442,0.989518,1.891952,-1.232689,-1.247759,3.250191,-2.047023,1.079805,-0.913086,0.386475,-0.243652,0.047337,-0.074302,0.009171,0.999801,0.016250,-0.010234,0.005399,0.444313,0.116821,-0.662196,0.591976
11188,NaN,5.572631,-7.783649,1.028658,1.622254,-0.879234,-0.363317,3.365942,-2.032921,1.048094,-0.915283,0.384277,-0.241455,0.056034,-0.077708,0.009547,0.999793,0.016829,-0.010164,0.005240,0.432415,0.126820,-0.657233,0.604134
11189,NaN,6.800897,-8.235565,1.101607,1.177079,-0.446116,0.850491,3.513736,-1.957891,0.972194,-0.921387,0.382324,-0.235352,0.068306,-0.082209,0.010239,0.999786,0.017567,-0.009789,0.004861,0.420210,0.137145,-0.651315,0.616769
11190,NaN,8.685128,-8.760334,1.185585,0.367871,0.183380,2.573150,3.682443,-1.824386,0.879242,-0.923340,0.375977,-0.237305,0.087133,-0.087429,0.011039,0.999779,0.018411,-0.009121,0.004396,0.408933,0.147614,-0.644260,0.629216
11191,NaN,11.272776,-9.340875,1.096493,-0.816003,1.195795,4.796592,3.834331,-1.635011,0.761978,-0.923340,0.375977,-0.235352,0.112998,-0.093178,0.010100,0.999776,0.019170,-0.008174,0.003810,0.397956,0.158017,-0.635944,0.642056
11192,NaN,14.282026,-9.651624,0.731387,-2.409591,2.619142,7.069137,3.872079,-1.417894,0.648015,-0.927246,0.363281,-0.235107,0.143084,-0.096184,0.006463,0.999782,0.019359,-0.007089,0.003240,0.388215,0.168177,-0.626718,0.654393
11193,NaN,17.184172,-9.693090,-0.021842,-4.101608,4.384058,8.981077,3.861916,-1.166342,0.541860,-0.920898,0.365234,-0.243408,0.172108,-0.096450,-0.001081,0.999793,0.019308,-0.005831,0.002709,0.379104,0.177643,-0.616658,0.666676
11194,NaN,19.790443,-9.538699,-0.765065,-5.804228,6.036482,10.512213,3.711891,-0.892106,0.450014,-0.924805,0.354736,-0.251221,0.198155,-0.094788,-0.008530,0.999815,0.018558,-0.004460,0.002250,0.371480,0.186231,-0.606270,0.678054
11195,NaN,22.177345,-9.165226,-1.502387,-7.596952,7.599260,11.696063,3.352208,-0.580559,0.390860,-0.930908,0.350586,-0.249268,0.221997,-0.090957,-0.015908,0.999853,0.016760,-0.002903,0.001954,0.364942,0.193082,-0.596265,0.688480
11196,NaN,22.999299,-8.530899,-1.916434,-8.633313,8.387741,11.647132,2.799306,-0.250771,0.392692,-0.924561,0.350586,-0.265625,0.230184,-0.084581,-0.020063,0.999899,0.013996,-0.001254,0.001963,0.360096,0.197863,-0.587415,0.697227
11197,NaN,22.213664,-7.422462,-2.311944,-8.977105,8.670840,10.139983,2.147276,0.046965,0.381807,-0.922363,0.344238,-0.271484,0.222272,-0.073546,-0.023964,0.999941,0.010736,0.000235,0.001909,0.356587,0.200296,-0.580239,0.704308
11198,NaN,20.506460,-5.952845,-2.447651,-8.986787,8.379650,7.821334,1.429722,0.268603,0.368605,-0.919922,0.339844,-0.275635,0.205140,-0.058972,-0.025175,0.999972,0.007149,0.001343,0.001843,0.354619,0.200824,-0.575087,0.709359
11199,NaN,18.361887,-4.325391,-2.347840,-8.826626,7.671103,5.174762,0.672409,0.417612,0.345255,-0.920166,0.342041,-0.285889,0.183643,-0.042857,-0.024006,0.999991,0.003362,0.002088,0.001726,0.353861,0.199405,-0.572403,0.712303
11200,NaN,16.169694,-3.046223,-1.966261,-8.378469,6.663061,2.836773,-0.106103,0.501624,0.316703,-0.913818,0.344238,-0.287842,0.161695,-0.030217,-0.020052,0.999995,-0.000531,0.002508,0.001584,0.354266,0.196523,-0.572216,0.713053
11201,NaN,14.168508,-2.341838,-1.166698,-7.669981,5.333553,1.156190,-0.864509,0.554254,0.294504,-0.914062,0.352539,-0.288086,0.141687,-0.023261,-0.011959,0.999986,-0.004323,0.002771,0.001473,0.355685,0.192044,-0.574734,0.711539
11202,NaN,12.248390,-2.209450,-0.361551,-6.600224,4.048292,-0.061604,-1.569499,0.575537,0.285497,-0.910156,0.363281,-0.292236,0.122505,-0.021949,-0.003795,0.999964,-0.007847,0.002878,0.001427,0.357810,0.186378,-0.579557,0.708060
11203,NaN,10.536920,-2.452712,0.397063,-5.407929,2.865943,-0.882923,-2.143691,0.593291,0.245487,-0.906494,0.375977,-0.282227,0.105411,-0.024356,0.003920,0.999937,-0.010718,0.002966,0.001227,0.360739,0.179606,-0.586429,0.702645
11204,NaN,9.197978,-2.809168,1.000600,-4.385161,1.910971,-1.409485,-2.538678,0.622980,0.167842,-0.900391,0.382324,-0.284424,0.092035,-0.027887,0.010074,0.999914,-0.012693,0.003115,0.000839,0.364217,0.172331,-0.594334,0.696000
11205,NaN,8.024797,-3.247066,1.409823,-3.401961,1.157527,-1.811754,-2.707425,0.671835,0.060103,-0.902588,0.390869,-0.274414,0.080305,-0.032254,0.014266,0.999903,-0.013537,0.003359,0.000301,0.368438,0.164765,-0.602675,0.688395
11206,NaN,6.846544,-3.495204,1.759041,-2.554167,0.428368,-2.364314,-2.656755,0.719482,-0.069611,-0.903076,0.401367,-0.270508,0.068517,-0.034740,0.017806,0.999905,-0.013283,0.003597,-0.000348,0.372991,0.157589,-0.610389,0.680785
11207,NaN,5.676250,-3.355630,2.102163,-1.993304,-0.298818,-3.191786,-2.460789,0.783382,-0.202668,-0.901123,0.405518,-0.274658,0.056811,-0.033354,0.021210,0.999916,-0.012304,0.003917,-0.001013,0.378130,0.150848,-0.617233,0.673266
11208,NaN,4.393718,-2.964138,2.172797,-1.467519,-0.786840,-4.331900,-2.188137,0.872822,-0.314214,-0.896973,0.405518,-0.268555,0.043986,-0.029472,0.021859,0.999929,-0.010940,0.004364,-0.001571,0.383497,0.144732,-0.622677,0.666526
11209,NaN,3.112696,-2.528174,2.155568,-0.948099,-1.180129,-5.519050,-1.863353,0.965443,-0.399164,-0.901123,0.409912,-0.270508,0.031181,-0.025143,0.021640,0.999943,-0.009317,0.004827,-0.001996,0.389308,0.139098,-0.626832,0.660434
11210,NaN,1.904980,-2.199701,1.873970,-0.321416,-1.306905,-6.623952,-1.537876,1.036395,-0.468811,-0.898926,0.407715,-0.274658,0.019096,-0.021897,0.018809,0.999954,-0.007689,0.005182,-0.002344,0.395148,0.134145,-0.629547,0.655388
11211,NaN,1.026251,-1.909440,1.535213,0.139433,-1.276288,-7.487253,-1.240803,1.088537,-0.518899,-0.890869,0.414062,-0.282959,0.010297,-0.019026,0.015414,0.999963,-0.006204,0.005443,-0.002594,0.401228,0.129690,-0.631197,0.650989
11212,NaN,0.211812,-1.651628,1.169624,0.594704,-1.208226,-8.287154,-0.979183,1.115960,-0.565135,-0.892578,0.405518,-0.280762,0.002137,-0.016465,0.011765,0.999968,-0.004896,0.005580,-0.002826,0.407204,0.125872,-0.631768,0.647465
11213,NaN,-0.325959,-1.515116,0.847644,0.943596,-1.103857,-8.806989,-0.720597,1.124654,-0.602314,-0.886230,0.407715,-0.288818,-0.003257,-0.015111,0.008549,0.999973,-0.003603,0.005623,-0.003012,0.413267,0.122605,-0.631508,0.644496
11214,NaN,-0.704264,-1.484186,0.635802,1.227086,-1.061230,-9.126344,-0.454672,1.115107,-0.624189,-0.885986,0.399170,-0.294922,-0.007053,-0.014805,0.006431,0.999977,-0.002273,0.005575,-0.003121,0.419061,0.120039,-0.630282,0.642436
11215,NaN,-0.930993,-1.571385,0.479136,1.478215,-1.032616,-9.252210,-0.170188,1.104930,-0.652683,-0.887939,0.393066,-0.313232,-0.009334,-0.015679,0.004856,0.999979,-0.000851,0.005525,-0.003263,0.424835,0.118134,-0.628196,0.641037
11216,NaN,-0.846297,-1.705390,0.425667,1.535474,-0.981254,-9.116112,0.138864,1.093753,-0.694495,-0.885498,0.384521,-0.317139,-0.008499,-0.017027,0.004291,0.999979,0.000694,0.005469,-0.003472,0.430397,0.117101,-0.625014,0.640627
11217,NaN,-0.466853,-1.980982,0.364978,1.524668,-0.820383,-8.682289,0.387850,1.090416,-0.746216,-0.889648,0.375977,-0.331299,-0.004723,-0.019799,0.003637,0.999976,0.001939,0.005452,-0.003731,0.436050,0.116724,-0.621051,0.640727
11218,NaN,-0.035961,-2.309423,0.490629,1.461229,-0.803292,-8.140877,0.522958,1.098529,-0.805203,-0.885010,0.367432,-0.341309,-0.000426,-0.023105,0.004848,0.999973,0.002615,0.005493,-0.004026,0.441716,0.116841,-0.616504,0.641216
11219,NaN,0.196427,-2.659861,0.678651,1.517120,-0.920504,-7.709123,0.557656,1.119796,-0.863959,-0.878418,0.361084,-0.359619,0.001887,-0.026626,0.006702,0.999971,0.002788,0.005599,-0.004320,0.447676,0.117096,-0.611800,0.641542
11220,NaN,0.418718,-3.570449,0.756153,2.037775,-1.020613,-6.931557,0.582527,1.140280,-0.951784,-0.886475,0.350586,-0.365723,0.004060,-0.035746,0.007434,0.999968,0.002913,0.005701,-0.004759,0.453853,0.117650,-0.606812,0.641837
11221,NaN,0.975606,-5.261611,0.915016,2.929026,-1.157111,-5.390560,0.526696,1.140390,-1.023712,-0.879639,0.333740,-0.381592,0.009538,-0.052689,0.008957,0.999967,0.002633,0.005702,-0.005119,0.460329,0.118234,-0.601987,0.641662
11222,NaN,1.747808,-7.265227,0.795594,4.086243,-0.991036,-3.584437,0.465224,1.140641,-1.099304,-0.881592,0.325195,-0.385498,0.017123,-0.072765,0.007688,0.999966,0.002326,0.005703,-0.005496,0.466990,0.118950,-0.597209,0.641181
11223,NaN,2.607314,-9.317040,0.577779,5.330609,-0.701392,-1.748559,0.576697,1.140621,-1.221169,-0.881104,0.312500,-0.403809,0.025535,-0.093343,0.005362,0.999961,0.002883,0.005703,-0.006106,0.473987,0.120229,-0.592029,0.640612
11224,NaN,3.535576,-10.911564,0.314960,6.290395,-0.252707,-0.219701,0.837293,1.094385,-1.374478,-0.874023,0.293457,-0.409668,0.034620,-0.109367,0.002501,0.999953,0.004186,0.005472,-0.006872,0.481095,0.122770,-0.585909,0.640457
11225,NaN,4.628363,-11.864766,0.469538,6.590599,0.035475,1.094727,1.168127,1.022236,-1.523996,-0.884033,0.276367,-0.425781,0.045398,-0.119020,0.003767,0.999941,0.005841,0.005111,-0.007620,0.488232,0.126689,-0.578836,0.640724
11226,NaN,6.013765,-12.276358,1.126964,6.203115,0.146227,2.419920,1.332951,0.929183,-1.549591,-0.875000,0.255127,-0.433350,0.059233,-0.123295,0.010172,0.999937,0.006665,0.004646,-0.007748,0.495003,0.131442,-0.571290,0.641344
11227,NaN,7.308252,-12.133123,1.733701,5.487406,0.355422,3.354850,1.239684,0.820472,-1.395598,-0.880615,0.236084,-0.445312,0.072301,-0.121941,0.016285,0.999948,0.006198,0.004102,-0.006978,0.500965,0.135768,-0.564459,0.641862
11228,NaN,8.197147,-11.799171,2.079856,4.908916,0.622676,3.834636,1.012466,0.704660,-1.122905,-0.874023,0.225586,-0.453369,0.081378,-0.118552,0.019912,0.999965,0.005062,0.003523,-0.005614,0.505845,0.139206,-0.558674,0.642360
11229,NaN,8.045609,-11.540178,2.499222,4.782819,0.289740,3.648069,0.683711,0.603260,-0.787583,-0.873535,0.217041,-0.457275,0.080075,-0.115802,0.024355,0.999982,0.003419,0.003016,-0.003938,0.509543,0.141082,-0.554533,0.642615
11230,NaN,6.932243,-11.150545,2.764672,4.966006,-0.393790,2.645931,0.289732,0.483285,-0.450553,-0.869141,0.212891,-0.459229,0.069137,-0.111701,0.027318,0.999993,0.001449,0.002416,-0.002253,0.512115,0.141515,-0.552061,0.642604
11231,NaN,5.226635,-10.687319,3.087212,5.244224,-1.449005,1.208468,-0.083712,0.294463,-0.145643,-0.866943,0.210693,-0.463379,0.052234,-0.106898,0.030840,0.999999,-0.000419,0.001472,-0.000728,0.513389,0.140615,-0.551640,0.642147
11232,NaN,3.951615,-10.451049,3.151214,5.567203,-2.126494,0.149941,-0.388522,0.030792,0.104162,-0.867188,0.214844,-0.467529,0.039575,-0.104428,0.031709,0.999998,-0.001943,0.000154,0.000521,0.513403,0.139230,-0.552892,0.641360
11233,NaN,3.146507,-10.607991,3.252066,5.952340,-2.676892,-0.304308,-0.592577,-0.251915,0.308723,-0.874023,0.225586,-0.457520,0.031587,-0.105934,0.032874,0.999994,-0.002963,-0.001260,0.001544,0.512041,0.137495,-0.555810,0.640300
11234,NaN,2.759582,-11.072597,3.418210,6.356989,-3.132247,-0.237799,-0.775215,-0.532312,0.490907,-0.876221,0.234131,-0.447510,0.027775,-0.110524,0.034685,0.999986,-0.003876,-0.002662,0.002455,0.509508,0.135847,-0.559996,0.639024
11235,NaN,2.772638,-11.556713,3.581041,6.569501,-3.406399,0.152521,-0.900122,-0.793400,0.653060,-0.874512,0.240479,-0.441406,0.027959,-0.115313,0.036440,0.999977,-0.004501,-0.003967,0.003265,0.505616,0.134091,-0.565522,0.637618
11236,NaN,3.154479,-11.982386,3.643423,6.590349,-3.417431,0.755618,-0.913084,-1.036963,0.779286,-0.881104,0.253174,-0.433350,0.031820,-0.119532,0.037145,0.999969,-0.004565,-0.005185,0.003896,0.500787,0.132879,-0.571571,0.636288
11237,NaN,3.832587,-12.357078,3.788603,6.369757,-3.359728,1.583600,-0.857395,-1.225106,0.895328,-0.883545,0.263672,-0.421387,0.038643,-0.123234,0.038651,0.999962,-0.004287,-0.006125,0.004477,0.494782,0.131881,-0.578113,0.635282
11238,NaN,4.594389,-12.567555,3.795445,6.015276,-3.129028,2.331433,-0.810094,-1.359660,1.009871,-0.886230,0.280762,-0.407471,0.046315,-0.125286,0.038776,0.999956,-0.004050,-0.006798,0.005049,0.488147,0.131269,-0.584702,0.634511
11239,NaN,5.335366,-12.646919,3.528777,5.642055,-2.655791,2.914186,-0.715630,-1.440311,1.130697,-0.888916,0.291260,-0.389160,0.053809,-0.126038,0.036126,0.999952,-0.003578,-0.007201,0.005653,0.480551,0.130562,-0.591363,0.634282
11240,NaN,5.788333,-12.686052,2.964230,5.489348,-2.040559,3.184505,-0.503529,-1.495560,1.236241,-0.891113,0.299805,-0.375000,0.058440,-0.126425,0.030397,0.999950,-0.002518,-0.007478,0.006181,0.472503,0.130430,-0.597343,0.634751
11241,NaN,5.903426,-12.655109,2.125834,5.549740,-1.292753,3.111994,-0.173374,-1.579742,1.331916,-0.894043,0.320801,-0.361084,0.059704,-0.126136,0.021838,0.999946,-0.000867,-0.007899,0.006659,0.463350,0.130856,-0.602624,0.636418
11242,NaN,5.690177,-12.208687,1.183406,5.525474,-0.485459,2.518621,0.228374,-1.706684,1.428599,-0.889893,0.327148,-0.344727,0.057669,-0.121691,0.012185,0.999937,0.001142,-0.008533,0.007143,0.453473,0.132501,-0.606760,0.639256
11243,NaN,5.215441,-11.295561,0.348175,5.254627,0.234463,1.467508,0.612599,-1.895193,1.525863,-0.898682,0.335693,-0.324463,0.052980,-0.112564,0.003636,0.999921,0.003063,-0.009476,0.007629,0.442074,0.135060,-0.610232,0.643387
11244,NaN,4.647882,-9.964926,-0.346178,4.697136,0.875312,0.096411,0.920110,-2.114474,1.623652,-0.896729,0.342041,-0.320557,0.047322,-0.099252,-0.003422,0.999901,0.004600,-0.010572,0.008118,0.429723,0.138925,-0.612995,0.648287
11245,NaN,4.156529,-8.811904,-0.724605,4.113739,1.242829,-1.038804,1.096050,-2.361354,1.736990,-0.901611,0.361084,-0.296387,0.042414,-0.087713,-0.007230,0.999878,0.005480,-0.011806,0.008685,0.415723,0.143423,-0.615792,0.653762
11246,NaN,3.982904,-8.261160,-0.978669,3.737472,1.540326,-1.522725,1.177636,-2.590306,1.867012,-0.906250,0.369629,-0.282227,0.040724,-0.082177,-0.009748,0.999855,0.005888,-0.012951,0.009335,0.400729,0.148566,-0.618590,0.659311
11247,NaN,4.097910,-8.670811,-1.286923,3.851506,1.905960,-1.143155,1.338567,-2.791407,1.991720,-0.904541,0.384277,-0.263916,0.042019,-0.086207,-0.012866,0.999831,0.006692,-0.013956,0.009958,0.384142,0.154069,-0.621293,0.665352
11248,NaN,4.481339,-10.326573,-1.511120,4.597382,2.229901,0.330714,1.650211,-2.959348,2.102593,-0.902832,0.395020,-0.241699,0.046120,-0.102660,-0.015284,0.999801,0.008251,-0.014796,0.010512,0.366595,0.160518,-0.622996,0.672100
11249,NaN,5.091947,-12.793402,-1.760534,5.664317,2.700653,2.569086,2.099678,-3.076127,2.192697,-0.903320,0.411865,-0.219482,0.052593,-0.127175,-0.018143,0.999767,0.010498,-0.015379,0.010963,0.347627,0.167616,-0.623311,0.680106
11250,NaN,5.754119,-15.438687,-2.141548,6.740192,3.470224,4.970887,2.816525,-3.150526,2.228550,-0.910156,0.424561,-0.207520,0.059605,-0.153417,-0.022653,0.999715,0.014081,-0.015751,0.011142,0.327759,0.176228,-0.620913,0.689916
11251,NaN,6.677323,-17.946287,-2.494965,7.398806,4.514506,7.441775,3.813418,-3.171157,2.136503,-0.904053,0.433105,-0.201416,0.069102,-0.178228,-0.027273,0.999635,0.019065,-0.015854,0.010681,0.306790,0.186521,-0.614760,0.702253
11252,NaN,8.234360,-19.624644,-2.187797,6.872759,5.259174,9.751649,4.746728,-3.140313,1.966301,-0.902100,0.437256,-0.187256,0.084642,-0.194850,-0.025197,0.999547,0.023730,-0.015699,0.009830,0.285657,0.198697,-0.604481,0.716605
11253,NaN,10.142577,-20.166307,-2.022076,5.282886,6.224805,11.327607,5.358543,-3.081876,1.810090,-0.902100,0.437256,-0.191406,0.103592,-0.200122,-0.024012,0.999481,0.026788,-0.015407,0.009049,0.264242,0.211544,-0.591306,0.731971
11254,NaN,12.580485,-19.894342,-2.140173,2.706716,7.357731,12.483167,5.481945,-3.020531,1.768077,-0.906494,0.443604,-0.189453,0.127912,-0.197168,-0.024901,0.999471,0.027405,-0.015100,0.008839,0.242894,0.224500,-0.576808,0.746924
11255,NaN,14.759140,-18.877043,-2.284331,-0.244034,8.070648,12.862077,5.103472,-2.872641,1.939348,-0.900391,0.447754,-0.181152,0.149762,-0.186697,-0.025485,0.999524,0.025513,-0.014361,0.009695,0.221435,0.235360,-0.563318,0.760424
11256,NaN,15.662905,-17.406299,-2.436968,-2.511445,8.232519,12.098937,4.416827,-2.684496,2.189571,-0.896484,0.458496,-0.177246,0.158860,-0.171769,-0.026058,0.999606,0.022081,-0.013421,0.010946,0.200254,0.244197,-0.551868,0.771821
11257,NaN,14.912675,-16.152087,-2.313136,-3.293108,7.842654,10.589259,3.733406,-2.523200,2.394872,-0.890625,0.471191,-0.171387,0.151344,-0.159272,-0.024219,0.999675,0.018665,-0.012615,0.011973,0.179273,0.250540,-0.542996,0.781183
11258,NaN,13.115852,-15.069581,-2.003156,-2.999591,7.201282,8.687141,3.184829,-2.456836,2.543812,-0.880615,0.488037,-0.163574,0.133310,-0.148682,-0.020781,0.999717,0.015923,-0.012283,0.012718,0.158615,0.256014,-0.535807,0.788802
11259,NaN,11.846825,-14.021822,-1.546064,-2.987800,6.378260,7.208321,2.787582,-2.446479,2.635305,-0.872559,0.502930,-0.157471,0.120493,-0.138419,-0.015933,0.999741,0.013937,-0.012231,0.013175,0.137949,0.260264,-0.530289,0.795001
11260,NaN,11.314908,-13.161124,-0.880158,-3.307345,5.366469,6.381724,2.458304,-2.416910,2.671858,-0.860840,0.528320,-0.153809,0.115001,-0.129973,-0.009024,0.999762,0.012291,-0.012084,0.013358,0.117677,0.264423,-0.525550,0.800019
11261,NaN,10.703197,-12.601986,-0.231270,-3.329731,4.464477,5.756065,2.173657,-2.379304,2.703516,-0.859131,0.545166,-0.139893,0.108750,-0.124532,-0.002385,0.999779,0.010867,-0.011896,0.013517,0.097650,0.267561,-0.522038,0.803960
11262,NaN,9.741854,-12.031138,0.226169,-3.029536,3.774484,4.893228,1.953196,-2.343545,2.730653,-0.844727,0.557861,-0.137939,0.099023,-0.118989,0.002249,0.999790,0.009765,-0.011717,0.013652,0.077910,0.270755,-0.518890,0.807078
11263,NaN,8.739442,-11.165246,0.546594,-2.793214,3.096734,3.749613,1.771908,-2.312627,2.735500,-0.834961,0.581055,-0.115723,0.088848,-0.110492,0.005505,0.999800,0.008859,-0.011562,0.013677,0.058432,0.273131,-0.516577,0.809403
11264,NaN,7.699529,-9.905316,0.703492,-2.637345,2.419046,2.232104,1.621516,-2.277747,2.709088,-0.818848,0.602295,-0.118164,0.078247,-0.098056,0.007124,0.999811,0.008107,-0.011388,0.013545,0.039346,0.275777,-0.514297,0.811108
11265,NaN,6.728474,-8.537157,0.895005,-2.469801,1.671626,0.678088,1.457003,-2.243025,2.644990,-0.806641,0.619141,-0.102051,0.068305,-0.084539,0.009094,0.999823,0.007285,-0.011214,0.013224,0.020832,0.277818,-0.512726,0.812093
11266,NaN,5.800290,-7.264085,0.955964,-2.255815,1.104645,-0.812062,1.230184,-2.219452,2.559973,-0.796631,0.636230,-0.092041,0.058819,-0.071951,0.009765,0.999838,0.006151,-0.011097,0.012799,0.003021,0.280355,-0.511450,0.812287
11267,NaN,4.958646,-6.274904,0.957822,-1.982402,0.727983,-2.039825,0.976782,-2.185188,2.469907,-0.778076,0.655029,-0.083984,0.050250,-0.062179,0.009820,0.999852,0.004884,-0.010925,0.012349,-0.013960,0.282403,-0.511235,0.811599
11268,NaN,4.170604,-5.531420,0.945062,-1.631158,0.502346,-3.032662,0.719098,-2.155003,2.357381,-0.763916,0.674072,-0.072021,0.042251,-0.054853,0.009706,0.999866,0.003595,-0.010775,0.011786,-0.030062,0.285039,-0.511443,0.810108
11269,NaN,3.547532,-5.023876,0.921510,-1.329451,0.374754,-3.749338,0.489465,-2.130932,2.236420,-0.749512,0.686768,-0.055908,0.035934,-0.049862,0.009474,0.999878,0.002447,-0.010654,0.011182,-0.045254,0.287372,-0.512584,0.807854
11270,NaN,3.102073,-4.659625,0.832413,-1.146573,0.332561,-4.280821,0.288780,-2.125053,2.114089,-0.741699,0.701660,-0.041748,0.031421,-0.046278,0.008590,0.999887,0.001444,-0.010625,0.010570,-0.059664,0.290445,-0.513932,0.804957
11271,NaN,2.819491,-4.315042,0.764263,-1.068359,0.235861,-4.718055,0.112724,-2.130128,1.995362,-0.725342,0.722656,-0.031982,0.028540,-0.042871,0.007921,0.999893,0.000564,-0.010650,0.009976,-0.073318,0.293373,-0.515987,0.801445
11272,NaN,2.620737,-3.952134,0.644705,-1.070542,0.151646,-5.150774,-0.037059,-2.142167,1.875407,-0.712891,0.729004,-0.011475,0.026505,-0.039272,0.006737,0.999899,-0.000185,-0.010710,0.009377,-0.086313,0.297109,-0.518065,0.797424
11273,NaN,2.425308,-3.634062,0.528657,-1.055672,0.093725,-5.541375,-0.151068,-2.152436,1.758803,-0.698486,0.741699,0.004639,0.024512,-0.036122,0.005577,0.999903,-0.000755,-0.010762,0.008794,-0.098667,0.300741,-0.520583,0.792978
11274,NaN,2.232548,-3.481161,0.518626,-0.944083,0.040405,-5.753346,-0.211777,-2.162105,1.634806,-0.690430,0.754150,0.020996,0.022551,-0.034622,0.005466,0.999908,-0.001059,-0.010810,0.008174,-0.110464,0.305141,-0.522782,0.788280
11275,NaN,2.188510,-3.533991,0.586955,-0.869451,-0.046607,-5.706035,-0.201674,-2.156749,1.488846,-0.676025,0.766846,0.037109,0.022082,-0.035170,0.006142,0.999914,-0.001008,-0.010783,0.007444,-0.121657,0.309432,-0.524873,0.783556
11276,NaN,2.443287,-3.783957,0.745786,-0.937221,-0.265753,-5.352336,-0.069682,-2.114645,1.327647,-0.665771,0.773193,0.053467,0.024603,-0.037674,0.007731,0.999922,-0.000348,-0.010573,0.006638,-0.132306,0.314257,-0.525889,0.779217
11277,NaN,3.042450,-4.435249,0.785676,-1.291932,-0.420681,-4.549725,0.274052,-2.028983,1.143162,-0.657227,0.777344,0.061523,0.030596,-0.044189,0.008106,0.999931,0.001370,-0.010145,0.005716,-0.142526,0.318580,-0.525479,0.775929
11278,NaN,3.865522,-5.500068,0.687578,-1.863883,-0.435236,-3.331791,0.839437,-1.878537,0.952915,-0.653320,0.785889,0.063477,0.038851,-0.054845,0.007010,0.999936,0.004197,-0.009392,0.004764,-0.152502,0.322754,-0.522384,0.774396
11279,NaN,4.798084,-6.695888,0.538258,-2.571446,-0.417671,-1.979476,1.471284,-1.674068,0.778722,-0.640625,0.787842,0.061523,0.048197,-0.066811,0.005294,0.999930,0.007356,-0.008370,0.003894,-0.162262,0.325720,-0.516849,0.774883
11280,NaN,5.442066,-7.566576,0.060451,-3.361521,-0.110660,-1.120167,2.096878,-1.427975,0.645900,-0.638672,0.792236,0.051270,0.054662,-0.075493,0.000202,0.999914,0.010484,-0.007140,0.003229,-0.171871,0.327862,-0.508591,0.777369
11281,NaN,5.844401,-8.099748,-0.609146,-4.198814,0.357310,-0.736680,2.751791,-1.195761,0.540997,-0.632568,0.796387,0.032715,0.058702,-0.080748,-0.006853,0.999884,0.013758,-0.005979,0.002705,-0.181504,0.328435,-0.497897,0.781847
11282,NaN,6.293722,-8.487633,-1.215572,-5.095461,0.720000,-0.504544,3.393776,-1.002870,0.436285,-0.626221,0.796387,0.008301,0.063187,-0.084520,-0.013276,0.999841,0.016968,-0.005014,0.002181,-0.191266,0.328146,-0.484375,0.788111
11283,NaN,7.007405,-8.690442,-1.938452,-6.321143,0.925181,-0.455077,3.907388,-0.857084,0.294189,-0.628418,0.798828,-0.018555,0.070288,-0.086404,-0.020775,0.999799,0.019536,-0.004285,0.001471,-0.200851,0.326755,-0.468737,0.795724
11284,NaN,8.302375,-8.691363,-2.714357,-8.014611,0.695926,-0.479434,4.198056,-0.728779,0.099886,-0.624023,0.792480,-0.049072,0.083170,-0.086281,-0.028656,0.999773,0.020989,-0.003644,0.000499,-0.209785,0.325141,-0.451377,0.804072
11285,NaN,10.258006,-8.388324,-3.213710,-9.947640,-0.294059,-0.492363,4.172388,-0.600483,-0.133333,-0.628174,0.788330,-0.077637,0.102624,-0.083261,-0.033570,0.999778,0.020860,-0.003002,-0.000667,-0.217294,0.323203,-0.433846,0.812466
11286,NaN,12.276963,-7.668140,-3.444869,-11.645487,-1.728722,-0.714329,3.809324,-0.440360,-0.363422,-0.630127,0.781982,-0.102051,0.122708,-0.076233,-0.035633,0.999815,0.019045,-0.002202,-0.001817,-0.222903,0.321594,-0.417243,0.820243
11287,NaN,13.798435,-6.823487,-2.796357,-12.287539,-3.410097,-0.748403,3.197635,-0.281822,-0.558022,-0.638184,0.773682,-0.126465,0.137834,-0.068163,-0.028859,0.999867,0.015987,-0.001409,-0.002790,-0.226249,0.320171,-0.403042,0.826958
11288,NaN,14.422355,-5.968652,-2.332361,-12.372989,-4.426069,-1.072745,2.416111,-0.194072,-0.748263,-0.639893,0.756592,-0.140381,0.144023,-0.059939,-0.023907,0.999920,0.012080,-0.000970,-0.003741,-0.227411,0.319736,-0.391620,0.832279
11289,NaN,14.583805,-5.789817,-1.885582,-12.193865,-4.734494,-0.943789,1.768412,-0.144033,-0.926440,-0.647949,0.750244,-0.154785,0.145582,-0.058404,-0.019266,0.999950,0.008842,-0.000720,-0.004632,-0.226582,0.320059,-0.382751,0.836495
11290,NaN,14.572429,-6.112571,-1.161920,-11.740045,-4.753278,-0.291921,1.086494,-0.106229,-0.998233,-0.660645,0.744141,-0.154541,0.145423,-0.061788,-0.011876,0.999973,0.005432,-0.000531,-0.004991,-0.224358,0.321188,-0.376495,0.839496
11291,NaN,14.367692,-6.056045,-0.356062,-11.019091,-4.917597,0.067997,0.409356,-0.079256,-0.993099,-0.664551,0.739746,-0.156738,0.143375,-0.061266,-0.003629,0.999985,0.002047,-0.000396,-0.004965,-0.220924,0.322928,-0.373214,0.841203
11292,NaN,13.681850,-5.634156,0.513266,-9.845152,-5.067090,0.015641,-0.248976,-0.094972,-0.955958,-0.673096,0.739746,-0.152588,0.136545,-0.056988,0.005268,0.999988,-0.001245,-0.000475,-0.004780,-0.216690,0.325397,-0.372625,0.841613
11293,NaN,12.717516,-5.160607,1.454212,-8.396819,-5.151658,-0.146550,-0.834714,-0.119813,-0.939449,-0.677002,0.729248,-0.142090,0.126922,-0.052141,0.014835,0.999980,-0.004174,-0.000599,-0.004697,-0.211534,0.328601,-0.374569,0.840817
11294,NaN,11.538309,-5.018760,2.561665,-6.698376,-5.021662,-0.076363,-1.367814,-0.131099,-0.971665,-0.680908,0.720703,-0.133789,0.115121,-0.050570,0.026037,0.999965,-0.006839,-0.000655,-0.004858,-0.205454,0.332421,-0.378588,0.839021
11295,NaN,10.427035,-5.258729,3.595619,-5.105381,-4.703551,0.242956,-1.884235,-0.140382,-1.030594,-0.691406,0.720703,-0.113525,0.103973,-0.052781,0.036526,0.999942,-0.009421,-0.000702,-0.005153,-0.198197,0.336961,-0.384681,0.836179
11296,NaN,9.302653,-5.601295,4.299715,-3.709580,-4.199680,0.434311,-2.365894,-0.131510,-1.121697,-0.701904,0.714355,-0.097168,0.092684,-0.056019,0.043721,0.999914,-0.011829,-0.000658,-0.005608,-0.189772,0.341998,-0.392537,0.832430
11297,NaN,8.310496,-6.071440,4.406095,-2.797042,-3.430455,0.470589,-2.795126,-0.081621,-1.257633,-0.703857,0.712158,-0.076660,0.082705,-0.060611,0.044942,0.999882,-0.013975,-0.000408,-0.006288,-0.179850,0.347519,-0.401937,0.827847
11298,NaN,7.256133,-6.461567,4.218304,-2.011365,-2.549575,0.269341,-3.142253,0.014253,-1.430416,-0.716309,0.703613,-0.052002,0.072103,-0.064459,0.043191,0.999851,-0.015710,0.000071,-0.007152,-0.168428,0.353121,-0.412429,0.822703
11299,NaN,6.182702,-6.648105,3.719759,-1.402688,-1.623705,-0.239235,-3.333035,0.129604,-1.658548,-0.730957,0.701416,-0.031494,0.061301,-0.066359,0.038264,0.999827,-0.016664,0.000648,-0.008292,-0.155386,0.358858,-0.423271,0.817262
11300,NaN,5.479131,-6.844910,3.134224,-1.092323,-0.841079,-0.604463,-3.318226,0.256874,-1.926758,-0.747314,0.680176,-0.002686,0.054173,-0.068441,0.032408,0.999815,-0.016590,0.001284,-0.009633,-0.141001,0.364409,-0.433512,0.812029
11301,NaN,5.126098,-7.387608,2.493887,-1.007087,0.013829,-0.536208,-3.071179,0.401634,-2.211092,-0.765869,0.667480,0.007812,0.050494,-0.074044,0.025973,0.999819,-0.015355,0.002008,-0.011055,-0.125495,0.369771,-0.442173,0.807467
11302,NaN,5.065602,-8.324763,2.152902,-0.821461,0.795731,0.101062,-2.665415,0.563330,-2.457675,-0.773682,0.646240,0.026611,0.049693,-0.083567,0.022500,0.999832,-0.013326,0.002816,-0.012288,-0.109393,0.374551,-0.448687,0.804005
11303,NaN,5.080337,-9.370606,2.119253,-0.398710,1.446876,0.950649,-2.187008,0.732345,-2.643080,-0.794189,0.631592,0.032715,0.049641,-0.094129,0.022037,0.999846,-0.010934,0.003662,-0.013215,-0.092975,0.378767,-0.452876,0.801745
11304,NaN,4.966145,-9.838200,2.216691,0.129028,1.783209,1.285168,-1.739327,0.874821,-2.790581,-0.808350,0.608154,0.033203,0.048383,-0.098867,0.022812,0.999855,-0.008696,0.004374,-0.013952,-0.076515,0.382343,-0.454924,0.800627
11305,NaN,4.730386,-9.638371,2.429513,0.669385,1.743488,1.035467,-1.386450,0.995134,-2.908561,-0.826660,0.587158,0.029297,0.046020,-0.096889,0.024735,0.999858,-0.006932,0.004975,-0.014542,-0.059909,0.385532,-0.455250,0.800327
11306,NaN,4.582385,-9.320657,2.712585,1.130534,1.557997,0.747581,-1.113292,1.108884,-2.980593,-0.838379,0.557373,0.027832,0.044581,-0.093725,0.027397,0.999858,-0.005566,0.005544,-0.014902,-0.043317,0.388168,-0.454247,0.800693
11307,NaN,4.573060,-9.374189,2.978780,1.560366,1.543700,0.809819,-0.968343,1.219222,-2.989665,-0.856689,0.538330,0.028076,0.044506,-0.094268,0.029970,0.999858,-0.004841,0.006096,-0.014948,-0.026658,0.390301,-0.452546,0.801347
11308,NaN,4.581533,-9.642953,2.973861,1.860607,1.836880,0.956657,-0.976189,1.298337,-2.947933,-0.870605,0.512939,0.018066,0.044583,-0.096947,0.029919,0.999858,-0.004881,0.006491,-0.014739,-0.010013,0.391853,-0.450834,0.801935
11309,NaN,4.651502,-9.911595,2.790215,2.017477,2.229604,1.078315,-1.006696,1.343771,-2.889726,-0.888916,0.487549,0.016357,0.045266,-0.099635,0.028096,0.999860,-0.005033,0.006719,-0.014448,0.006609,0.393032,-0.449243,0.802286
11310,NaN,4.670406,-10.012882,2.740875,2.243073,2.437188,1.077935,-1.037766,1.356592,-2.806331,-0.896484,0.462158,0.006592,0.045481,-0.100630,0.027619,0.999865,-0.005189,0.006783,-0.014031,0.022938,0.393815,-0.447807,0.802404
11311,NaN,4.670284,-9.893993,2.590098,2.337590,2.569874,0.880178,-1.255561,1.295225,-2.630121,-0.914795,0.438965,0.000732,0.045567,-0.099380,0.026226,0.999873,-0.006278,0.006476,-0.013150,0.038890,0.394359,-0.447498,0.801695
11312,NaN,4.636594,-9.510925,2.763577,2.527364,2.268677,0.582240,-1.600448,1.254566,-2.357567,-0.920410,0.419922,0.001221,0.045418,-0.095425,0.028112,0.999879,-0.008002,0.006273,-0.011787,0.054285,0.394254,-0.448988,0.800017
11313,NaN,4.592060,-9.149889,3.086758,2.787431,1.814891,0.349440,-1.907807,1.247732,-2.058631,-0.926514,0.407227,-0.004883,0.045173,-0.091668,0.031458,0.999882,-0.009539,0.006238,-0.010293,0.069104,0.393355,-0.452214,0.797495
11314,NaN,4.422017,-9.609680,3.286520,3.408291,1.924049,0.549751,-1.886273,1.220524,-1.805170,-0.930176,0.390137,-0.010742,0.043555,-0.096178,0.033505,0.999896,-0.009431,0.006102,-0.009026,0.082751,0.391884,-0.455739,0.794910
11315,NaN,3.809353,-10.427653,3.423227,4.464178,2.352226,0.651582,-1.691187,1.132496,-1.577370,-0.940186,0.377441,-0.010498,0.037467,-0.104280,0.034901,0.999917,-0.008456,0.005662,-0.007887,0.094930,0.390267,-0.458913,0.792514
11316,NaN,2.875465,-10.148838,3.053833,4.904844,2.608031,-0.340011,-1.461036,1.009533,-1.383681,-0.941895,0.366943,-0.010254,0.028209,-0.101459,0.031136,0.999937,-0.007305,0.005048,-0.006918,0.105561,0.388730,-0.461516,0.790410
11317,NaN,2.135635,-9.112494,3.090961,4.993704,2.081619,-1.573684,-1.084370,0.903989,-1.239622,-0.941650,0.354248,-0.026367,0.020933,-0.091087,0.031308,0.999956,-0.005422,0.004520,-0.006198,0.114665,0.387439,-0.462954,0.788934
11318,NaN,1.391179,-8.427732,3.070354,5.196129,1.816764,-2.595477,-0.664871,0.766215,-1.121102,-0.947510,0.345703,-0.020264,0.013558,-0.084251,0.030931,0.999971,-0.003324,0.003831,-0.005605,0.122133,0.386625,-0.462975,0.788199
11319,NaN,0.828285,-8.338110,2.980274,5.540060,1.920284,-3.125982,-0.229821,0.601405,-1.006832,-0.945312,0.337158,-0.028320,0.007953,-0.083387,0.029874,0.999982,-0.001149,0.003007,-0.005034,0.127946,0.386435,-0.461622,0.788164
11320,NaN,0.421198,-8.876504,3.095145,6.216133,2.192622,-3.096933,0.147723,0.411562,-0.889679,-0.949219,0.326660,-0.036133,0.003881,-0.088806,0.030878,0.999988,0.000739,0.002058,-0.004448,0.132102,0.386962,-0.459074,0.788708
11321,NaN,0.205105,-9.280773,3.117894,6.637083,2.462656,-3.046597,0.423667,0.205760,-0.807867,-0.955322,0.320312,-0.036133,0.001708,-0.092881,0.030980,0.999989,0.002118,0.001029,-0.004039,0.134940,0.388266,-0.455770,0.789503
11322,NaN,0.018217,-9.377365,2.997618,6.787916,2.705234,-3.215261,0.724796,-0.008501,-0.789884,-0.952881,0.309570,-0.035889,-0.000190,-0.093881,0.029636,0.999986,0.003624,-0.000043,-0.003949,0.136617,0.390589,-0.451398,0.790580
11323,NaN,0.065167,-9.472334,2.948198,6.811430,2.884350,-3.201732,1.046677,-0.233564,-0.782342,-0.950195,0.296875,-0.035645,0.000247,-0.094877,0.028986,0.999978,0.005233,-0.001168,-0.003912,0.137128,0.393960,-0.445964,0.791901
11324,NaN,0.452860,-9.858666,2.996682,6.822373,3.133460,-2.740696,1.280485,-0.443304,-0.755978,-0.960938,0.299072,-0.029541,0.004090,-0.098792,0.029344,0.999970,0.006402,-0.002216,-0.003780,0.136595,0.398273,-0.439718,0.793327
11325,NaN,1.039658,-10.506576,3.070690,6.864345,3.513617,-1.974909,1.432083,-0.624230,-0.695753,-0.956299,0.292725,-0.027588,0.009936,-0.105317,0.029985,0.999963,0.007160,-0.003121,-0.003479,0.135109,0.403208,-0.433156,0.794698
11326,NaN,1.665937,-11.308321,3.057745,6.919728,4.078623,-1.124639,1.570906,-0.790286,-0.623822,-0.962402,0.281982,-0.025391,0.016187,-0.113370,0.029752,0.999956,0.007854,-0.003951,-0.003119,0.132691,0.408749,-0.426195,0.796037
11327,NaN,2.334857,-12.014358,3.222195,6.981946,4.467395,-0.248704,1.709797,-0.942981,-0.529936,-0.962158,0.275635,-0.025146,0.022881,-0.120475,0.031302,0.999949,0.008549,-0.004715,-0.002650,0.129266,0.414694,-0.419013,0.797338
11328,NaN,2.944165,-12.592384,3.388949,7.004863,4.812213,0.506774,1.837559,-1.072914,-0.412713,-0.964111,0.267090,-0.016846,0.029003,-0.126289,0.032887,0.999941,0.009188,-0.005364,-0.002064,0.124835,0.421007,-0.411524,0.798635
11329,NaN,3.391814,-13.163376,3.342675,6.986914,5.358426,1.069297,1.981579,-1.178249,-0.294712,-0.959717,0.267090,-0.010742,0.033531,-0.132007,0.032318,0.999932,0.009908,-0.005891,-0.001474,0.119393,0.427466,-0.403813,0.799971
11330,NaN,3.728216,-13.607440,3.336532,6.967446,5.831878,1.484769,2.137612,-1.281426,-0.195338,-0.961914,0.264893,0.001709,0.036940,-0.136459,0.032146,0.999922,0.010688,-0.006407,-0.000977,0.112998,0.434235,-0.395602,0.801355
11331,NaN,4.213252,-13.681921,3.187347,6.552048,6.151894,1.777149,2.296820,-1.393962,-0.080102,-0.966064,0.262939,0.009766,0.041861,-0.137192,0.030592,0.999910,0.011484,-0.006970,-0.000400,0.105539,0.441164,-0.387109,0.802734
11332,NaN,4.716115,-13.746598,2.756012,5.916151,6.660661,1.995549,2.493776,-1.512071,0.064776,-0.961914,0.264893,0.009766,0.047004,-0.137783,0.026199,0.999894,0.012468,-0.007560,0.000324,0.096830,0.448385,-0.378024,0.804160
11333,NaN,5.137352,-13.783141,2.138019,5.144465,7.272477,2.085914,2.723559,-1.609795,0.225752,-0.964111,0.267090,0.024170,0.051365,-0.138051,0.019915,0.999874,0.013617,-0.008049,0.001129,0.086739,0.455608,-0.368459,0.805689
11334,NaN,5.769528,-13.787007,1.551903,4.196465,7.773245,2.341943,3.034164,-1.684787,0.412957,-0.961914,0.271240,0.036377,0.057858,-0.137970,0.013913,0.999847,0.015170,-0.008424,0.002065,0.075037,0.462889,-0.357876,0.807482
11335,NaN,6.684669,-14.190955,1.274193,3.414933,8.269072,3.134947,3.328657,-1.724905,0.644567,-0.958252,0.283936,0.044189,0.067204,-0.141886,0.010959,0.999819,0.016642,-0.008624,0.003223,0.061610,0.469773,-0.346679,0.809525
11336,NaN,7.716730,-14.689725,0.955310,2.502747,8.802130,4.061516,3.551817,-1.738070,0.920353,-0.951904,0.288086,0.052490,0.077771,-0.146687,0.007621,0.999794,0.017758,-0.008690,0.004601,0.046508,0.476220,-0.334953,0.811701
11337,NaN,8.750617,-15.157323,0.573080,1.440596,9.286498,4.962765,3.760315,-1.696194,1.191995,-0.946045,0.300781,0.060303,0.088371,-0.151130,0.003633,0.999770,0.018800,-0.008480,0.005960,0.029852,0.481772,-0.323037,0.814034
11338,NaN,9.783560,-15.463065,0.351150,0.354943,9.483154,5.835618,3.898524,-1.604129,1.470623,-0.937988,0.315674,0.064209,0.098953,-0.153945,0.001297,0.999751,0.019491,-0.008020,0.007353,0.011870,0.486398,-0.310896,0.816468
11339,NaN,10.565930,-15.267071,0.075765,-0.860708,9.277540,6.246274,3.895714,-1.486134,1.716421,-0.932129,0.330566,0.062012,0.106969,-0.151743,-0.001413,0.999746,0.019477,-0.007430,0.008581,-0.006926,0.489802,-0.299388,0.818787
11340,NaN,10.964156,-14.399337,-0.143901,-2.021477,8.508238,6.032636,3.795879,-1.346125,1.914988,-0.930908,0.351807,0.059570,0.111032,-0.142882,-0.003414,0.999751,0.018978,-0.006730,0.009574,-0.026082,0.492205,-0.288441,0.820887
11341,NaN,11.035253,-13.271622,-0.265738,-2.932650,7.484158,5.463090,3.582099,-1.186047,2.060658,-0.918701,0.370850,0.063477,0.111734,-0.131502,-0.004360,0.999769,0.017909,-0.005930,0.010302,-0.045048,0.493418,-0.278820,0.822660
11342,NaN,10.763395,-12.224846,-0.220773,-3.418698,6.513751,4.720442,3.253168,-1.021004,2.198727,-0.909180,0.396240,0.056885,0.108985,-0.121004,-0.003629,0.999794,0.016265,-0.005105,0.010993,-0.063538,0.493731,-0.270600,0.823995
11343,NaN,10.226869,-11.185110,-0.215700,-3.705120,5.621627,3.766577,2.837394,-0.874727,2.330196,-0.894775,0.413086,0.056641,0.103575,-0.110608,-0.003281,0.999822,0.014186,-0.004373,0.011650,-0.081295,0.493094,-0.264580,0.824771
11344,NaN,9.536225,-10.407259,-0.224441,-3.799540,5.003898,2.829015,2.405445,-0.756045,2.447441,-0.876709,0.438477,0.054199,0.096637,-0.102861,-0.003123,0.999846,0.012027,-0.003780,0.012237,-0.098313,0.491935,-0.260370,0.824950
11345,NaN,8.912038,-9.735229,-0.181233,-3.796559,4.426184,2.028589,1.964187,-0.665606,2.559616,-0.871094,0.461914,0.047607,0.090364,-0.096179,-0.002461,0.999864,0.009820,-0.003328,0.012798,-0.114527,0.490220,-0.258453,0.824481
11346,NaN,8.328116,-9.136765,-0.198496,-3.796680,3.920783,1.281460,1.568539,-0.590676,2.665611,-0.859131,0.483154,0.057617,0.084496,-0.090229,-0.002447,0.999876,0.007842,-0.002953,0.013328,-0.130116,0.488268,-0.258173,0.823414
11347,NaN,7.784523,-8.726839,-0.311707,-3.840070,3.589157,0.637974,1.207535,-0.541895,2.752016,-0.836670,0.510498,0.053223,0.079045,-0.086166,-0.003426,0.999883,0.006037,-0.002709,0.013760,-0.145044,0.486012,-0.259793,0.821744
11348,NaN,7.359869,-8.466158,-0.529483,-3.992193,3.363482,0.130374,0.892613,-0.512625,2.824879,-0.824707,0.529541,0.059082,0.074798,-0.083587,-0.005479,0.999887,0.004463,-0.002563,0.014124,-0.159477,0.483763,-0.262610,0.819498
11349,NaN,7.104616,-8.508560,-0.800887,-4.249794,3.313214,-0.093342,0.687489,-0.489662,2.861769,-0.806396,0.552979,0.054688,0.072273,-0.084029,-0.008123,0.999889,0.003437,-0.002448,0.014308,-0.173452,0.481321,-0.266553,0.816820
11350,NaN,6.938283,-8.668197,-0.999129,-4.482817,3.288832,-0.150665,0.635546,-0.465344,2.871102,-0.788086,0.576172,0.052246,0.070641,-0.085642,-0.010101,0.999889,0.003178,-0.002327,0.014355,-0.187315,0.478808,-0.270455,0.813947
11351,NaN,6.626125,-8.901517,-1.279165,-4.726547,3.422095,-0.288044,0.674222,-0.461970,2.858812,-0.771973,0.599609,0.058105,0.067554,-0.088012,-0.012934,0.999889,0.003371,-0.002310,0.014294,-0.201123,0.476051,-0.274351,0.810960
11352,NaN,6.314369,-8.918380,-1.559655,-4.969998,3.395900,-0.560689,0.820741,-0.469984,2.823480,-0.755859,0.625000,0.055664,0.064431,-0.088216,-0.015809,0.999889,0.004104,-0.002350,0.014117,-0.215155,0.473224,-0.277262,0.808018
11353,NaN,5.996481,-8.947160,-1.745739,-5.139413,3.368921,-0.796859,1.039666,-0.482323,2.780236,-0.733154,0.644043,0.051270,0.061243,-0.088534,-0.017773,0.999887,0.005198,-0.002412,0.013901,-0.229441,0.470064,-0.279352,0.805208
11354,NaN,5.883206,-8.845741,-1.860462,-5.337366,3.111537,-0.972848,1.231072,-0.502576,2.743026,-0.714844,0.660889,0.044922,0.060084,-0.087523,-0.018995,0.999884,0.006155,-0.002513,0.013715,-0.244061,0.466808,-0.280253,0.802485
11355,NaN,5.735926,-8.577702,-1.943579,-5.467887,2.755427,-1.282918,1.340383,-0.521123,2.698159,-0.698486,0.682129,0.038574,0.058560,-0.084860,-0.019855,0.999883,0.006702,-0.002606,0.013490,-0.258660,0.463350,-0.280770,0.799731
11356,NaN,5.727023,-8.215080,-2.157622,-5.746122,2.279041,-1.644332,1.359934,-0.547175,2.656068,-0.677979,0.696777,0.038330,0.058413,-0.081232,-0.021972,0.999885,0.006799,-0.002736,0.013280,-0.273177,0.460017,-0.280765,0.796825
11357,NaN,5.853302,-7.906959,-2.423071,-6.110280,1.761286,-1.925514,1.314909,-0.560742,2.600664,-0.661621,0.713867,0.030029,0.059622,-0.078138,-0.024580,0.999890,0.006574,-0.002804,0.013003,-0.287256,0.456680,-0.280980,0.793711
11358,NaN,5.932725,-7.610802,-2.670560,-6.414731,1.284496,-2.233244,1.237799,-0.556193,2.543202,-0.636475,0.726318,0.023682,0.060362,-0.075178,-0.027006,0.999896,0.006189,-0.002781,0.012716,-0.300934,0.453510,-0.281065,0.790424
11359,NaN,5.926323,-7.513984,-2.724519,-6.531800,0.973753,-2.370554,1.145527,-0.545184,2.491784,-0.614014,0.747559,0.021484,0.060267,-0.074236,-0.027509,0.999902,0.005727,-0.002726,0.012459,-0.314046,0.450330,-0.281610,0.786939
11360,NaN,5.949815,-7.549421,-2.890848,-6.778129,0.748639,-2.447806,1.039099,-0.542015,2.447362,-0.599609,0.760254,0.021240,0.060493,-0.074607,-0.029135,0.999908,0.005195,-0.002710,0.012236,-0.326757,0.447365,-0.282173,0.783245
11361,NaN,6.100008,-7.708044,-3.052825,-7.090174,0.500467,-2.368449,0.960300,-0.526930,2.392645,-0.589355,0.772949,0.010742,0.061996,-0.076195,-0.030733,0.999913,0.004801,-0.002635,0.011963,-0.338915,0.444389,-0.283148,0.779412
11362,NaN,6.225324,-7.846385,-3.257179,-7.419177,0.258670,-2.341908,0.935188,-0.513569,2.320776,-0.566406,0.783447,0.012695,0.063241,-0.077581,-0.032774,0.999918,0.004676,-0.002568,0.011604,-0.350744,0.441506,-0.283783,0.775576
11363,NaN,6.346058,-7.870790,-3.345255,-7.603464,-0.065109,-2.356826,0.923738,-0.498249,2.243465,-0.545654,0.796143,0.000488,0.064421,-0.077834,-0.033654,0.999923,0.004619,-0.002491,0.011217,-0.362081,0.438555,-0.284527,0.771758
11364,NaN,6.437331,-7.809605,-3.525325,-7.825073,-0.400367,-2.501085,0.919539,-0.482726,2.165501,-0.529297,0.808838,-0.005859,0.065298,-0.077230,-0.035453,0.999928,0.004598,-0.002414,0.010827,-0.373121,0.435664,-0.284849,0.768010
11365,NaN,6.559471,-7.731812,-3.781678,-8.107498,-0.756421,-2.685292,0.885109,-0.475788,2.084108,-0.514648,0.815186,-0.008057,0.066485,-0.076460,-0.037999,0.999933,0.004425,-0.002379,0.010420,-0.383617,0.432808,-0.285352,0.764257
11366,NaN,6.778854,-7.640705,-4.066473,-8.429659,-1.194567,-2.857231,0.819711,-0.486524,2.000390,-0.495850,0.823486,-0.010010,0.068646,-0.075556,-0.040809,0.999939,0.004098,-0.002433,0.010002,-0.393712,0.430238,-0.285613,0.760468
11367,NaN,7.096758,-7.662507,-4.251162,-8.718299,-1.662973,-2.857730,0.783508,-0.518157,1.893563,-0.481445,0.836182,-0.014404,0.071798,-0.075781,-0.042624,0.999944,0.003917,-0.002591,0.009468,-0.403221,0.427918,-0.285940,0.756662
11368,NaN,7.490044,-7.858527,-4.174513,-8.851183,-2.130214,-2.574038,0.760332,-0.581995,1.763896,-0.468994,0.844727,-0.020508,0.075710,-0.077761,-0.041822,0.999950,0.003802,-0.002910,0.008819,-0.412340,0.426068,-0.285664,0.752887
11369,NaN,8.136095,-8.054901,-3.923955,-8.890916,-2.828784,-2.104233,0.733217,-0.681814,1.624804,-0.452148,0.846680,-0.020508,0.082145,-0.079740,-0.039254,0.999954,0.003666,-0.003409,0.008124,-0.420872,0.424779,-0.285212,0.749055
11370,NaN,8.835939,-8.070943,-3.476692,-8.681538,-3.672847,-1.661699,0.685310,-0.783142,1.480138,-0.446045,0.851074,-0.024658,0.089089,-0.079933,-0.034694,0.999959,0.003427,-0.003916,0.007401,-0.428978,0.424167,-0.284144,0.745200
11371,NaN,9.297569,-7.823030,-2.747946,-8.026749,-4.432310,-1.379507,0.615200,-0.867482,1.353390,-0.435547,0.853027,-0.028809,0.093621,-0.077514,-0.027313,0.999963,0.003076,-0.004337,0.006767,-0.436436,0.424156,-0.283112,0.741257
11372,NaN,9.443179,-7.470162,-1.915282,-7.132499,-4.936201,-1.245072,0.553948,-0.925939,1.254056,-0.423096,0.859375,-0.026855,0.094985,-0.074055,-0.018920,0.999966,0.002770,-0.004630,0.006270,-0.443561,0.424615,-0.281702,0.737293
11373,NaN,9.281723,-7.175029,-1.097649,-6.181787,-5.105365,-1.178171,0.474273,-0.990570,1.180900,-0.416748,0.863770,-0.031006,0.093292,-0.071175,-0.010684,0.999967,0.002371,-0.004953,0.005904,-0.450194,0.425572,-0.280507,0.733164
11374,NaN,9.119556,-6.980139,-0.340558,-5.318071,-5.194916,-1.052905,0.447421,-1.066017,1.105153,-0.402100,0.867920,-0.022705,0.091596,-0.069289,-0.003073,0.999968,0.002237,-0.005330,0.005526,-0.456684,0.426935,-0.278822,0.728989
11375,NaN,9.067078,-6.976139,0.534197,-4.452582,-5.272640,-0.672875,0.535767,-1.138861,1.019457,-0.397949,0.872070,-0.031006,0.090993,-0.069313,0.005673,0.999967,0.002679,-0.005694,0.005097,-0.463009,0.428478,-0.276675,0.724900
11376,NaN,9.479942,-7.081535,1.526272,-3.632271,-5.693311,0.022903,0.765720,-1.195524,0.910451,-0.389648,0.872070,-0.031006,0.095028,-0.070442,0.015560,0.999964,0.003829,-0.005978,0.004552,-0.469592,0.429790,-0.273085,0.721241
11377,NaN,10.012457,-7.430878,3.182794,-2.376883,-6.075125,1.279674,1.211441,-1.161436,0.779828,-0.389648,0.874268,-0.043213,0.100228,-0.074111,0.031960,0.999957,0.006057,-0.005807,0.003899,-0.476470,0.430116,-0.267876,0.718483
11378,NaN,10.057799,-7.927928,4.853842,-1.148466,-5.887824,2.499323,1.717083,-1.074227,0.630071,-0.385498,0.876465,-0.061768,0.100568,-0.079378,0.048397,0.999944,0.008585,-0.005371,0.003150,-0.483843,0.429043,-0.260500,0.716908
11379,NaN,9.576303,-8.221639,6.068444,-0.226752,-5.251500,3.167907,2.270638,-0.993909,0.483682,-0.378906,0.872070,-0.075928,0.095663,-0.082670,0.060223,0.999920,0.011353,-0.004969,0.002418,-0.491609,0.426527,-0.251174,0.716455
11380,NaN,8.694458,-7.789787,6.745094,0.543551,-4.502335,2.883780,2.862728,-0.938849,0.368691,-0.381104,0.867920,-0.098389,0.086775,-0.078696,0.066736,0.999885,0.014313,-0.004694,0.001843,-0.500161,0.422369,-0.239380,0.717036
11381,NaN,7.695928,-6.778567,6.928744,1.150630,-3.865769,1.888161,3.348189,-0.921412,0.305639,-0.378906,0.865967,-0.126953,0.076747,-0.068819,0.068495,0.999848,0.016740,-0.004607,0.001528,-0.509269,0.416956,-0.225861,0.718178
11382,NaN,6.902424,-5.532639,6.925941,1.695393,-3.496677,0.728409,3.674641,-0.939931,0.280867,-0.374512,0.863770,-0.153320,0.068780,-0.056494,0.068552,0.999819,0.018372,-0.004699,0.001404,-0.518910,0.410611,-0.210829,0.719501
11383,NaN,6.482530,-4.504458,7.004236,2.174175,-3.362099,-0.048684,3.773161,-1.002556,0.310275,-0.376465,0.857666,-0.186035,0.064547,-0.046259,0.069501,0.999808,0.018865,-0.005012,0.001551,-0.528655,0.404113,-0.195412,0.720438
11384,NaN,6.262882,-3.668524,6.986995,2.488638,-3.337755,-0.638764,3.609273,-1.104163,0.359344,-0.376221,0.846924,-0.210449,0.062312,-0.037830,0.069539,0.999820,0.018045,-0.005520,0.001797,-0.538229,0.398156,-0.180193,0.720633
11385,NaN,6.186803,-2.870105,6.840505,2.731260,-3.444554,-1.211641,3.266608,-1.225890,0.369674,-0.382324,0.840820,-0.230713,0.061503,-0.029703,0.068303,0.999846,0.016332,-0.006129,0.001848,-0.547022,0.393480,-0.165974,0.719995
11386,NaN,6.201470,-2.240223,6.632546,2.874651,-3.579406,-1.664762,2.884851,-1.359692,0.324483,-0.382080,0.836426,-0.249023,0.061601,-0.023260,0.066414,0.999872,0.014424,-0.006798,0.001622,-0.554925,0.390195,-0.152496,0.718715
11387,NaN,6.308811,-1.622578,6.366277,3.022399,-3.802351,-2.107627,2.435954,-1.527090,0.245991,-0.384033,0.830078,-0.261230,0.062621,-0.016926,0.063939,0.999896,0.012179,-0.007635,0.001230,-0.561615,0.388786,-0.140092,0.716804
11388,NaN,6.580318,-0.841476,6.265914,3.450632,-4.182213,-2.473074,1.905951,-1.679736,0.134512,-0.392334,0.823975,-0.267334,0.065280,-0.008971,0.063125,0.999919,0.009529,-0.008398,0.000673,-0.566934,0.389360,-0.128802,0.714419
11389,NaN,6.777631,-0.112925,6.130366,3.876691,-4.475467,-2.850717,1.334227,-1.825133,-0.022293,-0.396484,0.819580,-0.271484,0.067213,-0.001548,0.061909,0.999936,0.006671,-0.009125,-0.000111,-0.570548,0.392175,-0.118912,0.711711
11390,NaN,6.909148,0.246941,5.836917,3.969389,-4.630664,-3.129507,0.776724,-1.938239,-0.225239,-0.404785,0.819580,-0.269287,0.068524,0.002164,0.059044,0.999945,0.003884,-0.009691,-0.001126,-0.572391,0.397000,-0.110178,0.708957
11391,NaN,6.897749,0.115219,5.468325,3.680193,-4.530020,-3.222763,0.295895,-2.009272,-0.468966,-0.415039,0.811279,-0.265137,0.068426,0.000910,0.055374,0.999946,0.001479,-0.010046,-0.002345,-0.572358,0.403598,-0.102520,0.706403
11392,NaN,6.793450,-0.254346,5.037382,3.182940,-4.299106,-3.257175,-0.109382,-2.055647,-0.715619,-0.429932,0.813477,-0.252930,0.067402,-0.002757,0.051070,0.999941,-0.000547,-0.010278,-0.003578,-0.570629,0.411545,-0.095581,0.704186
11393,NaN,6.602180,-0.753884,4.600555,2.589094,-3.958273,-3.259199,-0.417471,-2.077037,-0.962173,-0.448975,0.811279,-0.240723,0.065502,-0.007758,0.046704,0.999932,-0.002087,-0.010385,-0.004811,-0.567309,0.420564,-0.089196,0.702375
11394,NaN,6.434152,-1.436477,4.127704,1.832782,-3.589729,-3.160494,-0.584631,-2.072125,-1.201905,-0.461670,0.811279,-0.226562,0.063822,-0.014627,0.041983,0.999924,-0.002923,-0.010360,-0.006009,-0.562738,0.430034,-0.082845,0.701094
11395,NaN,6.429454,-2.486392,3.795276,0.906443,-3.169730,-2.667615,-0.645481,-2.051074,-1.421041,-0.480469,0.802979,-0.214111,0.063722,-0.025194,0.038689,0.999917,-0.003227,-0.010255,-0.007105,-0.557149,0.439673,-0.076316,0.700320
11396,NaN,6.420615,-3.514275,3.539989,0.045490,-2.695542,-2.142346,-0.617230,-2.004477,-1.614938,-0.497314,0.798584,-0.195801,0.063560,-0.035547,0.036148,0.999912,-0.003086,-0.010022,-0.008074,-0.550851,0.449020,-0.069345,0.700096
11397,NaN,6.339997,-4.428779,3.398151,-0.661894,-2.126119,-1.664422,-0.517901,-1.959436,-1.796509,-0.518066,0.785889,-0.181396,0.062662,-0.044764,0.034713,0.999908,-0.002589,-0.009797,-0.008982,-0.544009,0.457967,-0.061753,0.700362
11398,NaN,6.213344,-5.207611,3.297354,-1.257357,-1.524868,-1.287056,-0.351689,-1.911090,-1.953745,-0.532227,0.771240,-0.170898,0.061302,-0.052619,0.033654,0.999905,-0.001758,-0.009555,-0.009768,-0.536897,0.466206,-0.053315,0.701107
11399,NaN,6.118177,-5.944400,3.215108,-1.825624,-0.931812,-0.930209,-0.131183,-1.849031,-2.086161,-0.559570,0.766846,-0.158691,0.060257,-0.060054,0.032750,0.999903,-0.000656,-0.009245,-0.010430,-0.529699,0.473631,-0.043970,0.702253
11400,NaN,6.113253,-6.634394,3.214029,-2.325595,-0.372057,-0.530206,0.145645,-1.777906,-2.169184,-0.573975,0.750000,-0.146240,0.060119,-0.067023,0.032629,0.999901,0.000728,-0.008889,-0.010846,-0.522762,0.479949,-0.033618,0.703732
11401,NaN,6.166668,-7.073459,3.341194,-2.582522,0.106664,-0.193005,0.412495,-1.696117,-2.206426,-0.594727,0.739502,-0.148193,0.060595,-0.071476,0.033782,0.999901,0.002062,-0.008480,-0.011032,-0.516202,0.485243,-0.022462,0.705387
11402,NaN,6.219933,-7.163797,3.429169,-2.648836,0.411746,-0.087732,0.677665,-1.601077,-2.203165,-0.617432,0.722656,-0.139893,0.061128,-0.072432,0.034539,0.999902,0.003388,-0.008005,-0.011015,-0.510200,0.489371,-0.010601,0.707177
11403,NaN,6.312030,-7.245542,3.610915,-2.666940,0.726070,0.073279,0.913924,-1.502205,-2.177195,-0.627686,0.711914,-0.139648,0.062054,-0.073300,0.036244,0.999902,0.004569,-0.007511,-0.010886,-0.504747,0.492501,0.001761,0.708993
11404,NaN,6.509302,-7.214538,3.956989,-2.516992,0.989337,0.324268,1.124337,-1.375242,-2.137200,-0.656982,0.699463,-0.141602,0.064043,-0.073056,0.039604,0.999903,0.005622,-0.006876,-0.010686,-0.499873,0.494503,0.014470,0.710904
