// Start Time: Unknown
// Update Rate: 100.0Hz
// Filter Profile: human (46.1)
// Firmware Version: 4.4.0
PacketCounter,SampleTimeFine,Acc_X,Acc_Y,Acc_Z,FreeAcc_X,FreeAcc_Y,FreeAcc_Z,Gyr_X,Gyr_Y,Gyr_Z,Mag_X,Mag_Y,Mag_Z,VelInc_X,VelInc_Y,VelInc_Z,OriInc_q0,OriInc_q1,OriInc_q2,OriInc_q3,Quat_q0,Quat_q1,Quat_q2,Quat_q3
41637,NaN,-3.719429,-1.409251,-1.100617,0.000000,0.000000,-5.685772,-0.156047,0.582146,-0.289024,-0.730713,0.057617,-0.710938,-0.037246,-0.014047,-0.010887,0.999994,-0.000780,0.002911,-0.001445,0.050805,0.717681,0.341811,-0.604581
41638,NaN,-5.242414,-2.967105,-2.793283,3.326244,2.526901,-4.651308,0.699284,-0.039056,-0.027858,-0.734375,0.038330,-0.706543,-0.052423,-0.029566,-0.028047,0.999994,0.003496,-0.000195,-0.000139,0.000741,0.619209,0.148698,-0.771018
41639,NaN,-5.349882,-3.466990,-3.393198,3.872988,3.109465,-4.569992,1.165239,-0.344606,0.169603,-0.729980,0.038330,-0.702393,-0.053411,-0.034516,-0.034225,0.999981,0.005826,-0.001723,0.000848,-0.001956,0.617999,0.143677,-0.772936
41640,NaN,-5.710439,-3.634410,-3.969215,4.541574,3.289376,-4.323944,1.167411,-0.450890,0.419370,-0.738525,0.033936,-0.704346,-0.056938,-0.036231,-0.040032,0.999978,0.005837,-0.002254,0.002097,-0.005861,0.617098,0.138769,-0.774532
41641,NaN,-6.512077,-3.035263,-4.764793,5.645148,2.740666,-3.901353,0.955225,-0.432698,0.627967,-0.733887,0.027588,-0.696045,-0.064922,-0.030328,-0.047933,0.999981,0.004776,-0.002163,0.003140,-0.006076,0.615818,0.133142,-0.776533
41642,NaN,-7.323496,-1.898752,-4.860724,6.070649,1.510845,-3.352843,0.967248,-0.586927,0.764645,-0.744873,0.036133,-0.693848,-0.073019,-0.019031,-0.048914,0.999977,0.004836,-0.002935,0.003823,-0.005918,0.618068,0.133457,-0.774691
41643,NaN,-6.356599,-1.598151,-4.398579,5.501487,1.325951,-4.309723,1.211537,-0.967494,0.892630,-0.746826,0.029541,-0.683105,-0.063281,-0.015996,-0.044389,0.999960,0.006058,-0.004837,0.004463,-0.005559,0.614855,0.126029,-0.778485
41644,NaN,-3.810890,-2.021302,-3.866042,4.275226,2.067363,-6.495717,1.558726,-1.285582,0.994673,-0.761475,0.027588,-0.670410,-0.037759,-0.020098,-0.039061,0.999937,0.007793,-0.006428,0.004973,-0.004597,0.618118,0.127094,-0.775729
41645,NaN,-2.426451,-2.372545,-2.874867,3.011767,2.445273,-7.637763,2.032943,-1.534467,1.050847,-0.765381,0.018799,-0.661865,-0.023918,-0.023557,-0.029173,0.999905,0.010164,-0.007672,0.005254,-0.005828,0.612729,0.115984,-0.781714
41646,NaN,-1.843657,-2.608643,-1.573636,1.574620,2.512354,-7.840950,2.734411,-2.040264,1.009915,-0.779785,0.005859,-0.640625,-0.018141,-0.025958,-0.016278,0.999842,0.013671,-0.010201,0.005049,-0.008817,0.613485,0.118882,-0.780657
41647,NaN,0.712170,-2.444179,0.208491,-0.670842,2.458833,-9.981321,3.300015,-2.535306,0.790295,-0.800293,-0.017578,-0.612793,0.007194,-0.024444,0.001772,0.999776,0.016499,-0.012676,0.003951,-0.014345,0.603776,0.103663,-0.790255
41648,NaN,4.654030,-1.694507,1.367176,-2.752269,2.223575,-13.538384,3.431371,-2.599003,0.502297,-0.808594,-0.024170,-0.597900,0.046403,-0.017067,0.013983,0.999765,0.017156,-0.012994,0.002511,-0.022176,0.598961,0.110427,-0.792817
41649,NaN,8.330002,-1.275173,2.095278,-4.525982,2.342035,-16.843606,3.253458,-2.016905,0.135650,-0.816406,-0.041260,-0.580811,0.083093,-0.013043,0.021581,0.999817,0.016266,-0.010084,0.000678,-0.030264,0.590571,0.097328,-0.800523
41650,NaN,10.676214,-0.478190,3.715604,-6.823746,2.005649,-18.611901,3.209840,-1.217443,-0.455068,-0.819580,-0.071289,-0.567871,0.106522,-0.005627,0.037719,0.999850,0.016048,-0.006087,-0.002275,-0.041947,0.585281,0.108431,-0.802452
41651,NaN,10.709995,0.663487,3.291617,-6.439408,1.117502,-18.937424,3.053067,-0.152108,-0.900734,-0.812500,-0.094971,-0.565674,0.107102,0.005648,0.033089,0.999873,0.015265,-0.000761,-0.004503,-0.054407,0.583467,0.098836,-0.804262
41652,NaN,7.517101,-1.174560,-1.709796,-0.871691,3.045947,-16.938066,3.207893,0.983140,-1.006475,-0.809814,-0.116455,-0.561279,0.075026,-0.011843,-0.017656,0.999847,0.016039,0.004915,-0.005032,-0.068493,0.578376,0.107216,-0.805788
41653,NaN,8.572384,-1.178166,3.188083,-5.744448,2.939848,-16.400022,3.153286,0.783699,-0.816977,-0.807129,-0.135742,-0.561279,0.085797,-0.012629,0.031350,0.999860,0.015766,0.003918,-0.004085,-0.081314,0.579935,0.096592,-0.804819
41654,NaN,23.598810,2.277145,-0.904658,-7.085065,4.051438,-32.090317,2.764546,-0.389803,0.237578,-0.808838,-0.150879,-0.548340,0.235977,0.023170,-0.008268,0.999902,0.013822,-0.001949,0.001188,-0.085810,0.569060,0.105996,-0.810908
41655,NaN,40.408076,7.534489,-4.435869,-9.953508,3.036435,-49.823051,2.611344,-1.370524,2.265934,-0.817383,-0.142334,-0.535645,0.403475,0.080465,-0.040564,0.999827,0.013056,-0.006852,0.011329,-0.083312,0.563486,0.089531,-0.817023
41656,NaN,22.170027,1.998813,-3.277129,-5.215255,3.996327,-31.331777,0.879207,0.509428,0.772774,-0.821777,-0.140137,-0.533691,0.221536,0.020990,-0.033245,0.999980,0.004396,0.002547,0.003864,-0.081110,0.555811,0.105660,-0.820568
41657,NaN,4.201919,-0.927679,-3.998814,2.152329,2.288992,-14.776044,-0.136140,-1.023219,-0.137756,-0.825684,-0.146484,-0.520996,0.042217,-0.009333,-0.039766,0.999986,-0.000681,-0.005116,-0.000689,-0.080755,0.551588,0.107015,-0.823273
41658,NaN,3.292694,-1.882606,-4.671502,2.916347,3.272441,-13.935004,0.427026,-2.387924,0.099568,-0.840576,-0.142334,-0.501709,0.033491,-0.018710,-0.046357,0.999926,0.002135,-0.011939,0.000498,-0.078759,0.533850,0.127070,-0.832259
41659,NaN,1.859745,-2.481262,-4.426793,3.197129,3.414277,-12.520256,1.113250,-2.479784,1.049399,-0.853516,-0.138184,-0.478516,0.019275,-0.024467,-0.044169,0.999894,0.005566,-0.012398,0.005247,-0.075780,0.523703,0.120600,-0.839910
41660,NaN,10.507795,-3.385422,-4.287116,-1.140097,6.607592,-19.573779,2.319931,-2.843218,2.026051,-0.866211,-0.134033,-0.446777,0.106009,-0.032295,-0.041749,0.999780,0.011599,-0.014215,0.010130,-0.069362,0.506764,0.127443,-0.849786
41661,NaN,16.808343,-3.873577,-2.870785,-5.720765,8.039836,-24.247630,2.972550,-2.680781,2.468227,-0.881104,-0.127686,-0.421387,0.168911,-0.036245,-0.026998,0.999724,0.014861,-0.013403,0.012340,-0.064680,0.495777,0.109455,-0.859093
41662,NaN,18.298427,-3.523245,-3.606849,-6.524296,8.079029,-25.699102,2.510355,-1.990727,2.835045,-0.889893,-0.110596,-0.400391,0.183805,-0.032190,-0.034658,0.999771,0.012551,-0.009953,0.014174,-0.054849,0.482364,0.118475,-0.866187
41663,NaN,17.423030,-0.244214,-4.244175,-5.738276,4.230455,-26.267920,1.471864,-1.535700,3.035891,-0.898926,-0.089111,-0.383545,0.174557,0.000512,-0.041106,0.999828,0.007359,-0.007678,0.015179,-0.044332,0.477026,0.105180,-0.871446
41664,NaN,18.577565,4.371936,-3.143278,-7.519036,-0.271584,-27.630517,0.703287,-1.398059,2.977280,-0.910156,-0.067871,-0.362549,0.185309,0.046587,-0.029976,0.999859,0.003516,-0.006990,0.014886,-0.029152,0.466437,0.122047,-0.875609
41665,NaN,18.260001,8.156808,-0.553945,-9.446972,-5.071286,-26.702433,0.714760,-2.381550,2.520283,-0.919189,-0.044189,-0.339355,0.181599,0.083875,-0.003076,0.999843,0.003574,-0.011907,0.012601,-0.018328,0.457372,0.113368,-0.881829
41666,NaN,22.666865,14.445191,-0.256181,-12.207685,-11.004805,-31.079739,0.863204,-3.336996,2.258148,-0.936523,-0.031494,-0.307861,0.225012,0.146997,0.001833,0.999788,0.004316,-0.016684,0.011290,-0.006486,0.437934,0.118708,-0.891112
41667,NaN,23.108907,15.049866,5.000247,-16.867541,-13.380067,-27.753597,0.694218,-2.957445,2.696534,-0.938965,-0.014404,-0.280518,0.228256,0.153406,0.053921,0.999794,0.003471,-0.014786,0.013482,0.005764,0.426245,0.109782,-0.897903
41668,NaN,19.479528,14.105736,6.655093,-16.288649,-13.897861,-22.624812,0.256089,-2.756026,3.237703,-0.952881,0.024170,-0.259521,0.191536,0.144088,0.069389,0.999773,0.001280,-0.013779,0.016187,0.019725,0.408647,0.095968,-0.907419
41669,NaN,19.148751,9.768934,5.148235,-15.403998,-10.137502,-21.997830,-0.336113,-2.868716,3.489329,-0.955811,0.060303,-0.223877,0.188981,0.101091,0.054037,0.999744,-0.001680,-0.014342,0.017445,0.037613,0.397169,0.090056,-0.912542
41670,NaN,21.640750,4.747662,3.665941,-17.147106,-5.829161,-23.087369,-1.129549,-2.827064,3.392853,-0.954346,0.085938,-0.198730,0.215014,0.051350,0.039423,0.999740,-0.005647,-0.014134,0.016963,0.052961,0.376160,0.071321,-0.922286
41671,NaN,20.458401,-2.059580,3.875947,-17.667194,0.076048,-21.020006,-1.244217,-2.964171,3.065876,-0.961670,0.118164,-0.173584,0.204260,-0.017209,0.041903,0.999753,-0.006221,-0.014820,0.015328,0.070482,0.363163,0.070490,-0.926378
41672,NaN,19.798483,-2.965918,3.385083,-17.537007,0.426138,-20.032932,-0.928658,-2.845004,2.588014,-0.955811,0.141602,-0.142090,0.197836,-0.026932,0.036795,0.999804,-0.004643,-0.014224,0.012939,0.080812,0.338865,0.054295,-0.935784
41673,NaN,15.946655,-0.923407,3.003015,-14.208892,-1.583066,-17.541960,-0.765242,-2.757766,1.942164,-0.960449,0.158691,-0.116699,0.159111,-0.007567,0.032257,0.999850,-0.003826,-0.013788,0.009710,0.091932,0.326130,0.053463,-0.939324
41674,NaN,13.399944,-1.880599,2.289207,-12.347047,-0.461548,-15.783844,-0.168838,-3.120344,1.470435,-0.958496,0.171387,-0.089355,0.133754,-0.017801,0.024996,0.999851,-0.000844,-0.015601,0.007352,0.095886,0.298700,0.039392,-0.948700
41675,NaN,12.876320,-0.647256,2.028442,-11.669901,-1.774857,-15.378975,0.242510,-2.747594,1.337151,-0.952393,0.184082,-0.059814,0.128508,-0.005639,0.022044,0.999883,0.001213,-0.013737,0.006685,0.102396,0.286012,0.034923,-0.952099
41676,NaN,10.747436,1.137711,2.915289,-10.223681,-3.372385,-12.878349,0.213914,-2.027749,1.204366,-0.950684,0.197021,-0.042969,0.107100,0.011991,0.030253,0.999930,0.001070,-0.010139,0.006022,0.105098,0.263092,0.022886,-0.958756
41677,NaN,7.466699,1.510687,4.016666,-7.936515,-3.332374,-10.081907,-0.304109,-1.348310,1.084381,-0.946777,0.207764,-0.032471,0.074310,0.015572,0.040645,0.999961,-0.001521,-0.006741,0.005422,0.110847,0.256582,0.022208,-0.959888
41678,NaN,5.941573,-0.312937,3.917854,-6.980146,-1.245512,-9.123597,-0.987131,-0.986372,0.991026,-0.940674,0.220459,-0.024170,0.059235,-0.002641,0.039485,0.999963,-0.004936,-0.004932,0.004955,0.113733,0.237214,0.017201,-0.964623
41679,NaN,5.607576,-1.678664,3.100783,-6.620920,0.132799,-9.662517,-1.410467,-0.475397,0.846306,-0.934326,0.222656,-0.015869,0.056071,-0.016330,0.031257,0.999963,-0.007052,-0.002377,0.004231,0.119524,0.234183,0.022729,-0.964549
41680,NaN,3.761469,-0.309144,1.963544,-4.192189,-0.709314,-9.664469,-1.076356,0.061950,0.667612,-0.938965,0.233398,-0.015869,0.037631,-0.002860,0.019640,0.999980,-0.005382,0.000310,0.003338,0.121109,0.219845,0.021283,-0.967754
41681,NaN,2.015976,1.795286,1.286587,-1.859180,-2.321731,-9.503659,-0.228580,0.482638,0.525107,-0.937012,0.239746,-0.018066,0.020143,0.018020,0.012797,0.999993,-0.001143,0.002413,0.002626,0.123849,0.222096,0.022104,-0.966874
41682,NaN,-0.384136,5.781966,0.741527,1.444818,-5.579556,-8.859020,0.544495,0.481272,0.392143,-0.939453,0.248291,-0.018066,-0.003937,0.057792,0.007582,0.999991,0.002722,0.002406,0.001961,0.122537,0.211391,0.014322,-0.969584
41683,NaN,-2.031997,10.354352,0.686436,4.015309,-9.625010,-8.066599,0.680366,0.171999,-0.047036,-0.934814,0.241943,-0.022217,-0.020290,0.103524,0.007234,0.999994,0.003402,0.000860,-0.000235,0.121577,0.212637,0.011179,-0.969474
41684,NaN,-1.748976,11.599734,-0.531658,4.415775,-10.861442,-9.160963,0.084584,0.280238,-0.764221,-0.932617,0.237549,-0.024414,-0.017054,0.116065,-0.005243,0.999992,0.000423,0.001401,-0.003821,0.114648,0.201795,0.004211,-0.972685
41685,NaN,0.903614,8.923536,0.401856,1.009083,-8.915194,-9.484039,-0.136164,0.757734,-0.861173,-0.930420,0.233398,-0.028564,0.009435,0.089198,0.003923,0.999983,-0.000681,0.003789,-0.004306,0.110579,0.205380,0.006176,-0.972395
41686,NaN,0.270291,3.896737,3.791131,-0.923686,-3.997813,-6.235850,0.093722,1.529810,-1.053177,-0.936523,0.220459,-0.045410,0.003198,0.038934,0.037906,0.999957,0.000469,0.007649,-0.005266,0.101556,0.201792,-0.002811,-0.974145
41687,NaN,0.172932,-0.698244,6.444528,-2.885561,0.423651,-4.021128,0.437040,1.986769,-1.083981,-0.930176,0.218506,-0.062256,0.002331,-0.007135,0.064409,0.999934,0.002185,0.009934,-0.005420,0.095857,0.211693,-0.002837,-0.972620
41688,NaN,-0.254087,-4.165934,6.873917,-3.279642,4.028918,-3.674201,0.191221,2.254753,-1.046166,-0.936035,0.201416,-0.081299,-0.001984,-0.041714,0.068724,0.999922,0.000956,0.011273,-0.005231,0.087684,0.213206,-0.010144,-0.973012
41689,NaN,0.492110,-3.322618,4.590296,-2.940381,3.089284,-6.049351,-0.435659,2.472385,-0.978998,-0.936035,0.199219,-0.106689,0.005326,-0.033152,0.045911,0.999909,-0.002178,0.012362,-0.004895,0.083503,0.225072,-0.005896,-0.970739
41690,NaN,3.333636,-3.145762,1.342201,-4.020228,2.547819,-10.208268,-1.086993,2.843815,-1.072677,-0.931885,0.197266,-0.123535,0.033355,-0.031565,0.013119,0.999870,-0.005435,0.014218,-0.005363,0.077893,0.230990,-0.002933,-0.969829
41691,NaN,7.332627,-2.282769,-5.913141,-4.017858,1.422716,-18.517057,-1.233588,3.244969,-1.380740,-0.931641,0.184570,-0.148682,0.072194,-0.023698,-0.060165,0.999826,-0.006168,0.016224,-0.006903,0.072656,0.246223,0.005907,-0.966468
41692,NaN,15.922532,1.263978,-2.102226,-12.625598,-3.177761,-19.299795,-0.910367,3.489796,-1.813580,-0.929199,0.169678,-0.186768,0.158931,0.011093,-0.023850,0.999796,-0.004552,0.017448,-0.009067,0.063853,0.257037,0.011204,-0.964225
41693,NaN,25.630274,12.330603,-1.682533,-19.372423,-14.811982,-24.540098,-2.021825,4.604892,-2.207913,-0.927002,0.161133,-0.222656,0.257145,0.120252,-0.023966,0.999623,-0.010108,0.023022,-0.011038,0.055526,0.278368,0.025253,-0.958536
41694,NaN,24.071671,5.932676,-4.434966,-16.939914,-7.298303,-26.953683,-3.476469,5.666075,-3.040593,-0.911621,0.139893,-0.269043,0.240169,0.054811,-0.052139,0.999332,-0.017378,0.028324,-0.015200,0.043781,0.298713,0.043738,-0.952334
41695,NaN,26.849671,-8.625669,-3.393891,-20.501181,7.985140,-27.772124,-2.758245,5.276694,-3.485565,-0.900635,0.118408,-0.300537,0.265936,-0.091428,-0.039741,0.999405,-0.013788,0.026378,-0.017424,0.030126,0.322290,0.063203,-0.944048
41696,NaN,20.865043,-12.442273,-1.453245,-16.678054,12.429278,-22.445357,-2.413276,3.804259,-1.920375,-0.896240,0.110107,-0.334473,0.207134,-0.126612,-0.016963,0.999700,-0.012065,0.019019,-0.009601,0.022668,0.334284,0.075577,-0.939164
41697,NaN,21.530313,-4.842073,-3.064056,-14.980463,5.642719,-25.307468,-0.455294,3.108654,-1.424120,-0.885498,0.103760,-0.359863,0.214441,-0.050024,-0.033866,0.999851,-0.002276,0.015542,-0.007120,0.015564,0.348240,0.080436,-0.933818
41698,NaN,26.428184,-4.577180,-4.919781,-16.971025,6.295480,-30.204986,1.089971,3.767246,-1.659373,-0.872314,0.080322,-0.395508,0.262899,-0.047670,-0.054415,0.999773,0.005449,0.018835,-0.008296,0.003689,0.360765,0.078213,-0.929364
41699,NaN,26.378888,-3.452112,-3.031108,-17.217771,5.536600,-29.553173,1.435309,4.464743,-2.386018,-0.865479,0.058838,-0.425049,0.262586,-0.037412,-0.036444,0.999654,0.007176,0.022321,-0.011929,-0.011733,0.380477,0.075902,-0.921595
41700,NaN,24.795574,5.228023,3.174622,-19.529735,-3.151669,-25.960213,-0.124840,4.255961,-2.943270,-0.839600,0.039795,-0.465088,0.249289,0.048635,0.026419,0.999665,-0.000624,0.021277,-0.014715,-0.027277,0.394780,0.082348,-0.914671
41701,NaN,29.546939,2.398091,6.578715,-24.695845,0.735498,-27.459590,-1.275802,4.189961,-3.349718,-0.826416,0.022705,-0.499023,0.297110,0.019406,0.059440,0.999620,-0.006378,0.020947,-0.016746,-0.041791,0.412583,0.094190,-0.905073
41702,NaN,27.765385,-0.390064,6.337812,-22.871423,4.190141,-26.258785,-1.425921,3.196178,-2.670786,-0.815674,0.016357,-0.517822,0.278538,-0.007186,0.058975,0.999758,-0.007129,0.015980,-0.013353,-0.053154,0.422008,0.105482,-0.898864
41703,NaN,28.807147,1.346657,6.680398,-23.308241,3.355748,-27.748358,-2.153547,2.475640,-2.217864,-0.796875,0.024902,-0.534912,0.288999,0.010958,0.063103,0.999804,-0.010767,0.012377,-0.011089,-0.059872,0.432453,0.119161,-0.891740
41704,NaN,23.960021,0.256224,5.176415,-18.791089,4.282823,-24.959627,-2.682194,2.992975,-2.638647,-0.781738,0.014404,-0.562500,0.240351,0.000056,0.048159,0.999711,-0.013410,0.014963,-0.013192,-0.068460,0.440942,0.136210,-0.884494
41705,NaN,19.253969,-0.510858,5.931376,-16.126685,4.268073,-21.118872,-3.200301,3.333682,-2.357667,-0.762939,0.018555,-0.590088,0.193423,-0.006470,0.056191,0.999664,-0.016000,0.016667,-0.011787,-0.074078,0.455024,0.154372,-0.873862
41706,NaN,15.374940,-1.340028,4.083086,-12.125496,4.747880,-19.046682,-3.295582,3.086294,-2.137907,-0.744141,0.025146,-0.611328,0.154207,-0.014398,0.038685,0.999688,-0.016476,0.015430,-0.010688,-0.079256,0.464248,0.173034,-0.865015
41707,NaN,10.622255,0.914327,3.425598,-8.619135,1.656348,-16.766587,-3.146655,3.128289,-2.104901,-0.725342,0.031738,-0.630371,0.106832,0.008541,0.032450,0.999699,-0.015732,0.015640,-0.010523,-0.083738,0.477062,0.190236,-0.853938
41708,NaN,6.912477,1.417022,4.400243,-7.314073,-0.065146,-13.768296,-2.850191,2.560774,-2.108897,-0.715088,0.042480,-0.656006,0.069827,0.014053,0.042910,0.999761,-0.014250,0.012803,-0.010544,-0.089365,0.483852,0.207010,-0.845605
41709,NaN,4.120603,-0.735478,4.268261,-5.802772,0.999706,-10.845248,-2.182016,1.802540,-2.104697,-0.708740,0.038086,-0.662354,0.041512,-0.007327,0.042389,0.999845,-0.010910,0.009012,-0.010523,-0.094836,0.490192,0.220489,-0.837915
41710,NaN,1.665950,-1.408847,3.045378,-3.545686,1.016601,-9.157600,-1.866721,1.168886,-1.992950,-0.696045,0.040283,-0.666504,0.016698,-0.013970,0.030487,0.999890,-0.009333,0.005844,-0.009964,-0.100829,0.490999,0.233120,-0.833312
41711,NaN,-0.249639,-2.512840,3.139165,-2.754796,1.136971,-7.101831,-1.951351,0.229367,-1.845913,-0.702637,0.048828,-0.666504,-0.002690,-0.024796,0.031638,0.999909,-0.009756,0.001147,-0.009229,-0.103988,0.490740,0.245645,-0.829469
41712,NaN,-1.502748,-2.520271,2.090949,-1.224358,0.848679,-6.532140,-2.221080,-0.583915,-1.495501,-0.707031,0.053223,-0.662354,-0.015276,-0.024855,0.021142,0.999906,-0.011105,-0.002919,-0.007477,-0.104863,0.485308,0.259273,-0.828407
41713,NaN,-1.463155,-2.753540,1.408770,-0.686729,1.202796,-6.684008,-2.132024,-1.138819,-1.056887,-0.719971,0.065918,-0.651855,-0.014857,-0.027306,0.014295,0.999913,-0.010660,-0.005694,-0.005284,-0.102582,0.480294,0.271243,-0.827781
41714,NaN,-2.939366,-1.949338,0.328097,1.087310,0.225137,-6.448992,-1.617346,-1.269137,-0.612539,-0.722412,0.072510,-0.651855,-0.029474,-0.019377,0.003251,0.999942,-0.008087,-0.006346,-0.003063,-0.100242,0.473121,0.280513,-0.829109
41715,NaN,-6.039461,-0.973774,-1.750244,4.604699,-1.141133,-5.572285,-0.842652,-0.932429,-0.066747,-0.726807,0.074463,-0.649902,-0.060316,-0.009792,-0.017743,0.999980,-0.004213,-0.004662,-0.000334,-0.097216,0.469572,0.284626,-0.830084
41716,NaN,-11.450017,-1.755484,-3.020392,8.554634,-2.285475,-1.756529,-0.404276,-0.414317,0.472487,-0.731445,0.089600,-0.641357,-0.114395,-0.017887,-0.030405,0.999993,-0.002021,-0.002072,0.002362,-0.094281,0.467268,0.285755,-0.831334
41717,NaN,-14.283581,-3.870983,-5.556787,12.001222,-0.639496,0.455793,0.072914,-0.804486,0.943085,-0.737793,0.095947,-0.637207,-0.142426,-0.039362,-0.056156,0.999981,0.000365,-0.004022,0.004715,-0.089380,0.465226,0.283623,-0.833747
41718,NaN,-12.830528,-4.399725,-8.145837,13.354893,1.620366,-1.485164,1.023296,-1.490936,1.422343,-0.742188,0.098145,-0.622314,-0.127377,-0.044485,-0.082637,0.999934,0.005116,-0.007455,0.007112,-0.084034,0.459672,0.276924,-0.839615
41719,NaN,-10.884139,-1.716162,-9.857695,14.046047,1.025126,-5.314745,2.441035,-1.990086,1.922225,-0.760986,0.093750,-0.609619,-0.107688,-0.016987,-0.099860,0.999830,0.012204,-0.009950,0.009611,-0.078805,0.452873,0.263048,-0.848234
41720,NaN,-3.743140,-0.810351,-10.102164,10.242043,3.037610,-11.419843,3.460940,-2.244808,2.175139,-0.771484,0.091553,-0.594727,-0.036215,-0.006747,-0.101557,0.999728,0.017303,-0.011223,0.010875,-0.074545,0.444391,0.244627,-0.858555
41721,NaN,-1.480734,-2.355662,-10.209334,8.807512,5.069409,-12.759489,3.616220,-2.286538,2.217087,-0.773682,0.089355,-0.584229,-0.013387,-0.021857,-0.102657,0.999710,0.018079,-0.011432,0.011084,-0.070244,0.435809,0.224961,-0.868636
41722,NaN,-0.773436,-4.635943,-8.497184,6.816852,6.630175,-11.774008,3.529519,-2.389129,2.016131,-0.801025,0.087158,-0.567139,-0.006255,-0.044917,-0.085854,0.999722,0.017646,-0.011945,0.010080,-0.066459,0.426305,0.206715,-0.878132
41723,NaN,0.254891,-5.108158,-5.576170,3.864897,6.376433,-11.095494,3.513862,-2.632180,1.518945,-0.811279,0.074219,-0.548096,0.003673,-0.050067,-0.056604,0.999730,0.017568,-0.013160,0.007594,-0.064542,0.415034,0.188870,-0.887643
41724,NaN,2.064993,-2.561985,-1.718273,-0.149358,3.382850,-11.333681,3.137642,-2.387088,1.188301,-0.821533,0.072021,-0.528809,0.021007,-0.025225,-0.017331,0.999788,0.015687,-0.011935,0.005941,-0.063434,0.404539,0.174381,-0.895497
41725,NaN,6.510837,-1.224813,2.654183,-6.375028,2.083777,-12.252124,1.922599,-2.496914,0.690072,-0.832031,0.065674,-0.509766,0.064814,-0.012284,0.027234,0.999870,0.009613,-0.012484,0.003450,-0.062048,0.393296,0.165147,-0.902327
41726,NaN,13.476592,-0.116228,7.097475,-14.453719,1.547057,-14.361227,0.429006,-2.639158,-0.081047,-0.842529,0.067627,-0.494873,0.133813,-0.001371,0.072742,0.999911,0.002145,-0.013195,-0.000405,-0.060994,0.381098,0.165393,-0.907573
41727,NaN,23.898475,2.464053,9.037625,-23.270510,1.110321,-20.588545,0.030510,-1.600535,-1.048911,-0.852539,0.048340,-0.482178,0.238376,0.023375,0.092289,0.999954,0.000153,-0.008003,-0.005244,-0.064486,0.372939,0.167734,-0.910288
41728,NaN,26.732958,3.091060,11.052021,-26.863803,1.199491,-20.910885,2.746648,-0.024653,-2.507228,-0.849365,0.011963,-0.494629,0.267663,0.026035,0.110933,0.999827,0.013732,-0.000123,-0.012535,-0.081031,0.369093,0.160969,-0.911753
41729,NaN,25.665711,4.042250,8.598957,-24.444680,1.791688,-21.981292,5.347485,1.906883,-3.751151,-0.826660,-0.045898,-0.515381,0.258137,0.033317,0.084487,0.999421,0.026732,0.009533,-0.018752,-0.109482,0.372383,0.142652,-0.910491
41730,NaN,19.294926,2.411133,-5.370435,-9.598742,4.664679,-26.929971,5.574765,4.674933,-1.694353,-0.806641,-0.073730,-0.538330,0.191838,0.024051,-0.057527,0.999303,0.027867,0.023369,-0.008470,-0.131001,0.387693,0.118662,-0.904683
41731,NaN,23.893012,8.410182,0.069126,-16.973587,-0.060140,-28.613860,3.336650,3.255915,0.439849,-0.793945,-0.075684,-0.568115,0.238729,0.084643,-0.001787,0.999726,0.016682,0.016278,0.002199,-0.137375,0.400386,0.100553,-0.900393
41732,NaN,0.662981,-4.713813,0.593195,-0.081650,4.623319,-8.536277,0.565536,3.637814,0.757144,-0.775146,-0.075684,-0.587158,0.006913,-0.047129,0.005675,0.999823,0.002828,0.018188,0.003785,-0.137111,0.414985,0.094850,-0.894423
41733,NaN,-10.050726,-3.225481,-1.443930,7.823433,-0.096254,-2.581563,-0.201369,0.902000,0.696329,-0.773193,-0.069336,-0.587158,-0.100458,-0.032619,-0.013953,0.999983,-0.001007,0.004510,0.003482,-0.134005,0.419477,0.093687,-0.892919
41734,NaN,-10.070874,-5.275999,-6.388156,11.999391,2.216687,-5.212481,0.377664,-1.748924,1.091932,-0.790039,-0.069336,-0.565918,-0.099855,-0.053185,-0.064857,0.999945,0.001888,-0.008744,0.005460,-0.129250,0.410503,0.091863,-0.897966
41735,NaN,-3.298929,-2.312732,-11.415773,11.014006,1.908330,-14.457627,1.004560,-4.330663,1.534803,-0.828369,-0.062988,-0.530029,-0.030330,-0.022791,-0.114949,0.999724,0.005022,-0.021651,0.007673,-0.122397,0.391000,0.086977,-0.908060
41736,NaN,11.149425,3.101891,-15.697953,2.989536,1.170054,-29.046287,1.439285,-5.856777,2.200452,-0.849609,-0.052490,-0.481445,0.115663,0.033389,-0.153398,0.999485,0.007195,-0.029279,0.011000,-0.112623,0.363390,0.080799,-0.921268
41737,NaN,25.987065,4.696733,-10.121002,-12.946598,2.609186,-34.814797,2.514718,-5.472193,2.822218,-0.871094,-0.035400,-0.441162,0.261789,0.051860,-0.093432,0.999447,0.012571,-0.027356,0.014108,-0.101921,0.337708,0.067127,-0.933306
41738,NaN,32.609477,0.029331,-2.694901,-23.483927,6.723740,-31.577569,2.504706,-3.809824,3.120519,-0.888428,-0.018311,-0.411621,0.326468,0.005671,-0.020683,0.999618,0.012522,-0.019047,0.015601,-0.078951,0.317978,0.056998,-0.943084
41739,NaN,30.042516,-0.375362,1.266482,-24.500307,5.407377,-26.387072,1.360659,-1.491643,3.026769,-0.893311,-0.001221,-0.407471,0.300332,0.000696,0.014900,0.999835,0.006803,-0.007458,0.015133,-0.066404,0.311215,0.046351,-0.946883
41740,NaN,15.241364,1.381738,2.759556,-13.984264,0.400756,-16.601637,0.294177,-0.464641,2.622441,-0.898193,0.020264,-0.397217,0.152151,0.015773,0.027971,0.999910,0.001471,-0.002323,0.013112,-0.045195,0.307510,0.045325,-0.949390
41741,NaN,14.444284,4.003213,5.568858,-15.177259,-2.850096,-13.957255,0.059444,-2.455588,2.456928,-0.911377,0.039551,-0.374023,0.143238,0.041780,0.057464,0.999849,0.000297,-0.012277,0.012284,-0.033061,0.296348,0.041814,-0.953591
41742,NaN,19.392382,3.766296,4.329119,-18.664260,-2.836119,-17.058775,1.193534,-4.285554,2.543214,-0.926758,0.060791,-0.335938,0.192436,0.039841,0.047659,0.999672,0.005967,-0.021425,0.012715,-0.014605,0.274167,0.036108,-0.960893
41743,NaN,21.634205,9.198681,0.926112,-19.095965,-8.564685,-20.552423,2.334534,-4.406929,3.202360,-0.931396,0.079834,-0.300293,0.214544,0.095278,0.015102,0.999561,0.011671,-0.022031,0.016009,-0.001620,0.253281,0.020811,-0.967168
41744,NaN,26.448571,12.650281,0.767599,-23.334204,-13.103021,-21.800067,2.251271,-4.326791,3.813267,-0.940430,0.105469,-0.266602,0.261742,0.131371,0.014820,0.999521,0.011255,-0.021630,0.019063,0.020272,0.230625,0.006980,-0.972806
41745,NaN,27.397822,13.044942,3.670065,-25.427478,-14.670481,-18.314486,0.555921,-3.200426,4.227814,-0.937256,0.148438,-0.243652,0.270503,0.136082,0.041421,0.999645,0.002779,-0.016000,0.021137,0.040297,0.215178,-0.000924,-0.975743
41746,NaN,22.797799,6.913029,3.865681,-21.536248,-9.409256,-15.291261,-0.936415,-2.724235,4.035302,-0.938477,0.188965,-0.220703,0.225967,0.073893,0.041406,0.999693,-0.004682,-0.013620,0.020174,0.065330,0.199307,-0.000724,-0.977757
41747,NaN,20.842278,1.508655,3.223368,-20.058116,-4.641262,-14.620353,-1.264272,-2.847324,3.681527,-0.937012,0.216797,-0.199707,0.207609,0.019129,0.035081,0.999709,-0.006321,-0.014235,0.018406,0.084556,0.184900,0.000858,-0.979113
41748,NaN,18.784447,-1.174826,5.056249,-19.240227,-2.541115,-11.574377,-1.025697,-2.679078,2.980644,-0.929443,0.246582,-0.176758,0.187289,-0.008686,0.053124,0.999786,-0.005128,-0.013394,0.014902,0.103382,0.168815,0.001997,-0.980209
41749,NaN,11.819184,-0.922697,3.910588,-12.355547,-1.776077,-9.874896,-0.900960,-3.053694,2.176460,-0.929932,0.268066,-0.149414,0.117666,-0.007763,0.040942,0.999814,-0.004505,-0.015268,0.010882,0.114819,0.153370,0.002997,-0.981471
41750,NaN,9.968366,-3.028028,1.445406,-10.398126,0.512120,-11.305943,-0.257588,-3.560445,1.668132,-0.932129,0.276611,-0.119873,0.099653,-0.029429,0.016267,0.999806,-0.001288,-0.017801,0.008340,0.125560,0.133244,0.000796,-0.983097
41751,NaN,9.421291,-3.090371,1.561969,-9.980361,0.539948,-10.730752,0.314719,-3.208914,1.587108,-0.921875,0.289307,-0.098877,0.094188,-0.030182,0.017083,0.999839,0.001574,-0.016044,0.007935,0.133143,0.117649,-0.003823,-0.984082
41752,NaN,8.005854,-1.531654,1.130618,-8.167938,-0.736502,-10.488125,-0.061519,-2.285467,1.544564,-0.920166,0.304199,-0.082031,0.080037,-0.014695,0.012225,0.999905,-0.000308,-0.011427,0.007723,0.141963,0.103996,-0.006075,-0.984375
41753,NaN,6.691866,-0.133951,1.334486,-6.576327,-1.824806,-9.819997,-0.979272,-1.427839,1.446858,-0.918213,0.317139,-0.077881,0.066828,-0.000789,0.013827,0.999936,-0.004896,-0.007139,0.007234,0.149540,0.096217,-0.003021,-0.984058
41754,NaN,6.554966,0.963365,1.315153,-6.080053,-2.939309,-9.679303,-1.586274,-0.627292,1.192560,-0.905762,0.325684,-0.073730,0.065449,0.010129,0.013278,0.999946,-0.007931,-0.003136,0.005963,0.157122,0.089780,0.003623,-0.983483
41755,NaN,4.865997,1.894273,2.776094,-4.428120,-3.429803,-7.915155,-1.066121,0.034393,0.820202,-0.903809,0.332031,-0.078125,0.048586,0.019290,0.027650,0.999977,-0.005331,0.000172,0.004101,0.161629,0.089119,0.008524,-0.982782
41756,NaN,3.252418,4.013152,3.226480,-2.283669,-4.982244,-7.156401,0.031408,0.275795,0.472265,-0.901855,0.336426,-0.082275,0.032474,0.040203,0.032226,0.999996,0.000157,0.001379,0.002361,0.164439,0.088572,0.008133,-0.982369
41757,NaN,1.334068,8.971903,2.827344,1.180115,-9.033075,-7.114701,0.765144,0.162110,0.122702,-0.899902,0.338623,-0.090820,0.013309,0.089618,0.028606,0.999992,0.003826,0.000811,0.000614,0.164694,0.089996,0.004453,-0.982220
41758,NaN,0.572651,11.966693,2.037649,2.981638,-11.575372,-7.621376,0.506174,-0.416346,-0.353902,-0.903809,0.327881,-0.086426,0.005895,0.119604,0.020691,0.999993,0.002531,-0.002082,-0.001770,0.163080,0.086663,0.001201,-0.982799
41759,NaN,2.236795,9.752549,2.871107,0.521172,-10.043262,-7.125767,-0.181269,-0.292085,-0.826384,-0.905762,0.323486,-0.092773,0.022729,0.097458,0.028656,0.999990,-0.000906,-0.001460,-0.004132,0.159096,0.085068,0.002211,-0.983589
41760,NaN,2.061886,3.463222,5.431295,-1.771922,-4.104287,-4.737384,-0.565453,0.808230,-1.084739,-0.903320,0.308594,-0.101074,0.021026,0.034672,0.054131,0.999973,-0.002827,0.004041,-0.005424,0.153677,0.087125,0.004973,-0.984260
41761,NaN,1.183105,-0.820580,6.727486,-2.542427,0.164029,-3.422022,-0.272964,1.502574,-1.257432,-0.907227,0.295898,-0.122314,0.012285,-0.008190,0.067195,0.999951,-0.001365,0.007513,-0.006287,0.147562,0.094268,0.008017,-0.984518
41762,NaN,0.984329,-4.608964,4.204006,-3.035855,3.956464,-5.937765,-0.041551,2.005720,-1.394339,-0.900391,0.278809,-0.141113,0.009943,-0.046150,0.041950,0.999925,-0.000208,0.010028,-0.006972,0.140084,0.102758,0.009265,-0.984749
41763,NaN,-0.072887,-7.662107,1.468356,-2.320337,7.319939,-8.433052,-0.003116,2.166767,-1.335465,-0.904541,0.272461,-0.162109,-0.001081,-0.076614,0.014695,0.999919,-0.000016,0.010834,-0.006677,0.133398,0.113348,0.011483,-0.984492
41764,NaN,1.933893,-4.234201,1.368007,-3.222682,3.525762,-8.962401,-0.241132,2.295317,-1.284046,-0.899902,0.255371,-0.181152,0.019222,-0.042449,0.013510,0.999913,-0.001206,0.011476,-0.006420,0.126679,0.123266,0.014275,-0.984152
41765,NaN,4.060502,-2.782810,1.758585,-4.929740,1.613075,-9.165370,-0.669011,2.855036,-1.383961,-0.899658,0.244629,-0.214844,0.040658,-0.028052,0.017099,0.999869,-0.003345,0.014275,-0.006920,0.120060,0.136769,0.020225,-0.983092
41766,NaN,4.614431,-1.587044,0.303187,-4.755562,0.498495,-10.831312,-0.731705,3.393668,-1.508779,-0.895020,0.225342,-0.240234,0.046066,-0.016209,0.002309,0.999821,-0.003658,0.016967,-0.007543,0.112270,0.151778,0.026425,-0.981662
41767,NaN,5.447573,-0.333379,-1.611940,-4.611967,-0.632776,-13.085327,-0.266557,3.852489,-1.613424,-0.882080,0.212646,-0.278076,0.054122,-0.003794,-0.017159,0.999781,-0.001333,0.019261,-0.008067,0.104019,0.170283,0.031114,-0.979396
41768,NaN,8.816448,1.128737,-2.597669,-6.950424,-2.445570,-15.420584,0.292846,4.242460,-1.781095,-0.877441,0.195801,-0.320312,0.087683,0.010545,-0.027824,0.999734,0.001464,0.021210,-0.008905,0.093399,0.189886,0.032876,-0.976800
41769,NaN,18.699243,7.951478,0.844288,-15.755119,-10.827505,-16.745299,0.241521,4.733364,-2.213511,-0.862061,0.172363,-0.362549,0.187988,0.077431,0.004096,0.999658,0.001207,0.023664,-0.011066,0.081549,0.212678,0.035996,-0.973048
41770,NaN,33.764533,18.074351,-2.066392,-26.140161,-21.827202,-27.441550,-1.158388,5.734791,-2.944790,-0.844727,0.153076,-0.404785,0.339458,0.175592,-0.031408,0.999464,-0.005791,0.028669,-0.014721,0.067201,0.238301,0.046432,-0.967750
41771,NaN,31.829228,3.904968,-6.311839,-23.976425,-5.728341,-31.260721,-0.921085,6.204113,-3.966921,-0.824707,0.114746,-0.448975,0.316814,0.032434,-0.073122,0.999312,-0.004604,0.031013,-0.019830,0.047620,0.266913,0.057665,-0.960814
41772,NaN,25.131045,-9.998951,-2.174643,-21.140528,9.223617,-24.097983,-0.080177,4.588423,-3.925386,-0.804932,0.091309,-0.486816,0.248698,-0.104899,-0.027431,0.999544,-0.000401,0.022939,-0.019624,0.027262,0.286133,0.063072,-0.955723
41773,NaN,27.677884,-13.641852,-1.620098,-22.951089,13.808093,-25.213565,0.085631,3.904242,-3.233435,-0.791748,0.065674,-0.510010,0.274138,-0.140857,-0.021630,0.999679,0.000428,0.019519,-0.016165,0.010450,0.303681,0.067800,-0.950301
41774,NaN,30.615449,-10.752391,-1.164758,-24.500970,12.048231,-27.379145,-0.042755,4.158504,-3.395752,-0.765381,0.033447,-0.543701,0.303940,-0.112701,-0.017959,0.999640,-0.000214,0.020790,-0.016977,-0.007219,0.320295,0.072834,-0.944486
41775,NaN,24.252044,2.376069,0.395649,-19.215826,-0.467170,-24.791875,-1.043223,3.485397,-3.450322,-0.750244,0.024902,-0.566895,0.242901,0.019578,-0.000384,0.999686,-0.005216,0.017425,-0.017250,-0.023108,0.335426,0.083136,-0.938106
41776,NaN,29.976898,6.908164,4.471691,-25.822788,-3.861614,-26.677194,-1.882956,3.289473,-3.483604,-0.730957,0.016602,-0.590088,0.301590,0.064225,0.039146,0.999669,-0.009414,0.016446,-0.017416,-0.038359,0.347379,0.097049,-0.931900
41777,NaN,34.493702,-3.235755,0.092324,-25.706437,8.554865,-31.401708,-2.221428,3.417636,-3.162490,-0.705322,0.005859,-0.617676,0.344321,-0.037836,-0.004565,0.999667,-0.011106,0.017086,-0.015811,-0.050881,0.362070,0.112204,-0.923973
41778,NaN,35.558301,3.035821,5.477654,-29.603376,2.735518,-30.297216,-2.566617,3.157299,-2.085123,-0.682373,0.014404,-0.638916,0.356680,0.027295,0.048788,0.999739,-0.012832,0.015785,-0.010425,-0.057363,0.373421,0.127198,-0.917108
41779,NaN,34.177199,0.365954,3.562222,-26.440156,6.147428,-30.880010,-3.392375,4.345205,-1.390911,-0.655518,0.031738,-0.668701,0.342455,0.001799,0.028145,0.999596,-0.016960,0.021723,-0.006954,-0.060148,0.393273,0.144051,-0.906073
41780,NaN,20.645427,0.151303,5.160354,-17.628307,3.620931,-21.166094,-2.760592,5.431729,-1.918642,-0.615234,0.031738,-0.702637,0.207760,0.000184,0.045964,0.999490,-0.013801,0.027154,-0.009592,-0.067799,0.414217,0.158799,-0.893650
41781,NaN,15.341216,2.302876,8.616752,-16.334979,-0.104749,-16.741532,-2.749933,4.112838,-1.724981,-0.590332,0.049072,-0.724121,0.155334,0.022847,0.082671,0.999657,-0.013748,0.020562,-0.008624,-0.073053,0.432004,0.173209,-0.882063
41782,NaN,6.201412,-3.421463,4.420696,-7.366397,3.845630,-10.620510,-2.957449,3.105971,-1.773783,-0.567383,0.057617,-0.745361,0.062393,-0.034118,0.043745,0.999731,-0.014786,0.015528,-0.008868,-0.077803,0.442154,0.189124,-0.873315
41783,NaN,2.667861,-0.355935,4.198586,-4.974854,0.038595,-9.466319,-2.719646,2.864110,-2.249284,-0.550781,0.068359,-0.751953,0.027239,-0.003296,0.041644,0.999742,-0.013597,0.014319,-0.011245,-0.084300,0.453467,0.204808,-0.863316
41784,NaN,1.993229,0.606997,4.511262,-4.809703,-1.144985,-9.315111,-2.264001,1.613235,-2.228396,-0.540283,0.076904,-0.764648,0.020365,0.006354,0.044879,0.999841,-0.011319,0.008066,-0.011141,-0.091151,0.456208,0.219175,-0.857629
41785,NaN,-0.514135,0.376921,2.797283,-1.998713,-1.357759,-8.265935,-1.818669,0.809285,-2.010656,-0.531982,0.083496,-0.766846,-0.004988,0.004074,0.027957,0.999900,-0.009093,0.004046,-0.010053,-0.096502,0.458248,0.231170,-0.852793
41786,NaN,-2.780912,0.115416,1.301462,0.506332,-1.577855,-7.225375,-1.972372,0.210034,-1.590339,-0.534424,0.094238,-0.764893,-0.027784,0.001504,0.013030,0.999919,-0.009862,0.001050,-0.007951,-0.099745,0.455600,0.243235,-0.850480
41787,NaN,-4.015646,0.305518,1.437034,1.124290,-2.327036,-6.406222,-2.199684,-0.931652,-1.178666,-0.541260,0.106934,-0.762695,-0.040203,0.003448,0.014147,0.999911,-0.010998,-0.004658,-0.005893,-0.098603,0.451251,0.255718,-0.849269
41788,NaN,-2.763351,1.181095,0.810904,1.036424,-2.390012,-8.109218,-2.571163,-1.383894,-0.668244,-0.552246,0.122070,-0.754395,-0.027648,0.012005,0.007764,0.999888,-0.012855,-0.006919,-0.003341,-0.094578,0.443423,0.268820,-0.849804
41789,NaN,-3.424003,2.707280,-0.505056,2.676370,-3.416911,-9.127926,-2.835678,-1.092207,0.005432,-0.557373,0.147705,-0.748291,-0.034211,0.026995,-0.005621,0.999885,-0.014178,-0.005461,0.000027,-0.086787,0.440069,0.281344,-0.848324
41790,NaN,-9.796108,1.889266,-2.316136,7.941134,-4.426367,-5.096660,-2.862497,-0.465392,0.682535,-0.559814,0.164795,-0.746338,-0.097969,0.018222,-0.023653,0.999889,-0.014312,-0.002327,0.003413,-0.077584,0.438300,0.292063,-0.846506
41791,NaN,-16.302943,-2.328334,-5.559695,13.908130,-1.891429,0.438895,-2.200243,-0.582570,1.187566,-0.564697,0.186279,-0.738037,-0.162723,-0.024863,-0.055804,0.999918,-0.011001,-0.002913,0.005938,-0.066877,0.438375,0.298976,-0.844966
41792,NaN,-20.394858,-7.176255,-9.602148,18.864799,2.742360,4.195242,-0.677177,-1.888131,1.439023,-0.583984,0.192627,-0.723145,-0.202507,-0.073552,-0.097691,0.999924,-0.003386,-0.009440,0.007195,-0.056969,0.431319,0.299091,-0.849272
41793,NaN,-11.448056,-5.802258,-12.016855,15.403652,6.369445,-4.222083,1.357974,-2.939844,1.769821,-0.603027,0.194824,-0.708252,-0.112179,-0.058197,-0.122224,0.999830,0.006789,-0.014698,0.008849,-0.047975,0.421011,0.290296,-0.858007
41794,NaN,-4.848412,-2.082844,-11.358946,11.267074,5.333534,-11.019120,3.205366,-2.998754,1.898542,-0.621338,0.168945,-0.699463,-0.046582,-0.019445,-0.114616,0.999714,0.016025,-0.014992,0.009492,-0.042492,0.409082,0.273235,-0.869591
41795,NaN,-3.073862,0.313039,-11.126039,10.204942,3.609628,-13.830410,4.162202,-2.946125,1.793500,-0.631348,0.149658,-0.684570,-0.029137,0.005185,-0.111604,0.999635,0.020808,-0.014729,0.008966,-0.039166,0.397679,0.251999,-0.881371
41796,NaN,-1.098362,0.191525,-11.821436,9.191460,4.252383,-16.008488,4.591223,-3.357570,1.789613,-0.662354,0.125977,-0.667236,-0.009031,0.004544,-0.118293,0.999556,0.022953,-0.016785,0.008947,-0.036321,0.383444,0.228995,-0.893987
41797,NaN,0.187394,-3.758452,-10.521901,6.771959,7.282423,-14.906159,4.408727,-3.377901,1.689380,-0.676758,0.111084,-0.650146,0.003964,-0.035226,-0.105958,0.999579,0.022041,-0.016887,0.008446,-0.033339,0.369307,0.206570,-0.905445
41798,NaN,0.344146,-6.093711,-6.743906,3.758254,7.945051,-12.150817,3.645196,-3.261372,1.451820,-0.695557,0.102295,-0.628906,0.004989,-0.059663,-0.068461,0.999675,0.018224,-0.016305,0.007258,-0.030291,0.354930,0.188287,-0.915235
41799,NaN,5.153277,-3.489127,-1.860431,-2.945190,4.760192,-13.107499,2.573668,-3.186268,1.066297,-0.716309,0.089355,-0.607666,0.052009,-0.034379,-0.018223,0.999776,0.012867,-0.015930,0.005331,-0.026972,0.340872,0.175059,-0.923273
41800,NaN,10.030121,-0.728470,3.378474,-9.960654,1.290184,-13.227060,1.116923,-3.497598,0.212307,-0.737305,0.084961,-0.575928,0.099698,-0.007374,0.035491,0.999831,0.005584,-0.017487,0.001061,-0.024640,0.324291,0.170734,-0.930096
41801,NaN,18.093067,2.928641,7.974891,-19.030822,-2.431150,-15.417708,-0.958304,-3.481113,-0.519189,-0.751953,0.084961,-0.554688,0.179584,0.029211,0.082743,0.999834,-0.004791,-0.017405,-0.002596,-0.022525,0.307711,0.176433,-0.934707
41802,NaN,31.252654,6.470240,8.119842,-29.715666,-3.928077,-23.452940,-2.400861,-1.848478,-1.078069,-0.764893,0.087158,-0.548340,0.312109,0.064011,0.083313,0.999871,-0.012004,-0.009242,-0.005390,-0.022232,0.297723,0.190084,-0.935273
41803,NaN,28.503553,-0.873495,8.097341,-28.053201,2.706987,-19.002343,0.227166,0.415413,-1.722346,-0.755615,0.063477,-0.558594,0.285113,-0.011282,0.080369,0.999960,0.001136,0.002077,-0.008612,-0.031018,0.297979,0.191532,-0.934645
41804,NaN,13.066997,-0.733084,11.183357,-17.153552,-0.392929,-8.443570,3.055879,4.023457,-2.520003,-0.731201,0.018555,-0.583740,0.132762,-0.010675,0.109030,0.999602,0.015277,0.020115,-0.012598,-0.052570,0.312908,0.180354,-0.931020
41805,NaN,-9.070849,2.858409,3.383907,5.071109,-5.629465,-3.143402,8.493824,1.747761,-3.102337,-0.729004,-0.050049,-0.581299,-0.089959,0.028490,0.035839,0.998940,0.042454,0.008736,-0.015506,-0.081810,0.315668,0.145031,-0.934145
41806,NaN,-11.422006,-5.815682,-5.977556,13.188352,3.714542,-6.315542,8.559546,-0.233168,-0.948247,-0.729736,-0.094971,-0.570312,-0.114414,-0.054983,-0.062308,0.999072,0.042784,-0.001165,-0.004740,-0.101378,0.309236,0.106156,-0.939588
41807,NaN,-3.225108,-13.660455,-3.668667,6.628766,12.704263,-7.554472,4.353161,0.479262,0.004525,-0.733643,-0.107910,-0.561768,-0.032341,-0.135765,-0.039571,0.999760,0.021764,0.002396,0.000023,-0.108318,0.309197,0.085433,-0.940939
41808,NaN,23.005601,-20.488450,9.890678,-21.159143,24.474127,-10.190809,-0.239603,-1.017305,1.636816,-0.742920,-0.082275,-0.557617,0.231214,-0.202876,0.100325,0.999953,-0.001198,-0.005086,0.008184,-0.099256,0.304386,0.085297,-0.943516
41809,NaN,38.150022,2.179637,-9.485935,-24.719595,7.586453,-39.501494,-2.789520,2.000912,2.884048,-0.727051,-0.043457,-0.581299,0.380169,0.025923,-0.099010,0.999749,-0.013946,0.010004,0.014419,-0.082236,0.316349,0.093054,-0.940479
41810,NaN,17.177170,3.329289,-2.504561,-12.123491,0.674167,-22.656006,-2.825450,2.665075,1.187434,-0.725342,-0.034912,-0.589844,0.171213,0.033931,-0.027806,0.999794,-0.014126,0.013324,0.005937,-0.071395,0.329101,0.105202,-0.935696
41811,NaN,16.725268,8.640031,-13.690809,-5.198589,-2.688813,-32.340658,-0.480013,-2.891807,-2.095666,-0.741699,-0.047852,-0.562012,0.170101,0.084303,-0.134666,0.999838,-0.002400,-0.014458,-0.010478,-0.078877,0.314575,0.111912,-0.939307
41812,NaN,4.789175,11.548184,-18.217848,5.919349,-7.089300,-29.882912,1.223089,-3.827937,-1.635846,-0.760010,-0.071533,-0.538574,0.052306,0.116173,-0.180496,0.999765,0.006115,-0.019138,-0.008179,-0.085782,0.293822,0.111322,-0.945472
41813,NaN,3.103480,2.925941,-1.695553,-1.896023,-1.892487,-13.539251,3.395788,-3.037204,1.282360,-0.774902,-0.069336,-0.510986,0.031093,0.029736,-0.015981,0.999720,0.016977,-0.015185,0.006411,-0.082995,0.278627,0.094659,-0.952113
41814,NaN,7.171364,-2.031250,2.979931,-7.395172,3.030892,-10.560309,4.662145,-1.751748,3.041928,-0.791748,-0.069580,-0.487793,0.071757,-0.019918,0.029960,0.999574,0.023307,-0.008757,0.015207,-0.073752,0.268629,0.069663,-0.957886
41815,NaN,10.506035,-4.670029,4.162388,-10.618644,5.978575,-10.817264,4.796274,-2.109695,3.629041,-0.802490,-0.061035,-0.464600,0.105458,-0.045787,0.041630,0.999492,0.023977,-0.010547,0.018142,-0.062044,0.257871,0.042566,-0.963245
41816,NaN,19.112603,-2.968082,3.691566,-18.155926,5.055327,-15.511758,3.153767,-2.507544,4.361761,-0.820312,-0.031006,-0.441406,0.191242,-0.026113,0.038883,0.999559,0.015767,-0.012536,0.021806,-0.043519,0.244538,0.023519,-0.968377
41817,NaN,29.229804,-0.164022,6.566621,-28.884666,2.150682,-17.453840,1.350920,-2.741557,4.683792,-0.837891,-0.005371,-0.426758,0.291300,0.004728,0.069682,0.999609,0.006754,-0.013706,0.023416,-0.022158,0.231412,0.011842,-0.972531
41818,NaN,34.213227,8.974270,-3.392286,-29.506136,-7.935547,-27.945227,-0.712056,-3.308564,3.541408,-0.849365,0.026611,-0.397461,0.340976,0.095679,-0.028609,0.999700,-0.003560,-0.016541,0.017705,-0.002408,0.214139,0.012753,-0.976717
41819,NaN,24.859643,19.996177,-11.196340,-17.963092,-19.848343,-30.463729,-0.338318,-3.786694,3.114765,-0.864746,0.050049,-0.361572,0.247509,0.203638,-0.107612,0.999698,-0.001691,-0.018932,0.015572,0.013404,0.195771,0.011112,-0.980495
41820,NaN,24.714531,17.249853,2.511518,-23.073572,-18.352818,-16.537385,1.227612,-3.731383,4.020073,-0.878418,0.084229,-0.334229,0.243075,0.177235,0.030754,0.999605,0.006137,-0.018654,0.020098,0.032641,0.176031,0.001327,-0.983842
41821,NaN,25.670372,11.435908,10.282785,-26.529675,-13.756907,-8.348477,0.658950,-3.411852,4.915266,-0.885986,0.129150,-0.300781,0.251989,0.120242,0.107544,0.999547,0.003294,-0.017057,0.024573,0.056242,0.159295,-0.006797,-0.985604
41822,NaN,24.198551,6.353568,10.122027,-25.032669,-9.677659,-7.002182,-0.525263,-3.277261,4.760421,-0.885010,0.169922,-0.284180,0.238678,0.069516,0.104972,0.999579,-0.002626,-0.016384,0.023799,0.080576,0.140773,-0.008992,-0.986717
41823,NaN,20.991568,-3.532595,8.285631,-22.709407,-0.397141,-7.408111,-0.637185,-3.406463,4.211668,-0.890137,0.204102,-0.246338,0.209141,-0.030644,0.086526,0.999628,-0.003186,-0.017030,0.021056,0.101614,0.123455,-0.010183,-0.987081
41824,NaN,15.904417,-4.331116,5.660814,-17.314524,0.733416,-7.976791,-0.594516,-3.594279,3.057473,-0.892822,0.223145,-0.216797,0.158627,-0.040710,0.059585,0.999717,-0.002972,-0.017970,0.015286,0.116996,0.102932,-0.011118,-0.987721
41825,NaN,13.826820,-3.487683,1.011419,-14.195070,-0.007966,-11.496370,-0.362780,-3.731045,2.420365,-0.895508,0.246826,-0.187500,0.138455,-0.033180,0.012757,0.999751,-0.001814,-0.018654,0.012101,0.128895,0.084119,-0.012753,-0.988002
41826,NaN,13.301695,0.881523,-1.075728,-12.288346,-4.408780,-12.711470,0.088685,-3.335274,2.484940,-0.896240,0.276611,-0.157959,0.133048,0.010472,-0.008534,0.999784,0.000443,-0.016675,0.012424,0.139919,0.065114,-0.016476,-0.987882
41827,NaN,10.067474,1.107841,1.203098,-9.399732,-3.955733,-9.685213,0.319716,-2.333955,2.408928,-0.892334,0.291504,-0.149658,0.100382,0.012268,0.013223,0.999858,0.001599,-0.011669,0.012044,0.151497,0.053586,-0.020472,-0.986792
41828,NaN,7.384860,1.880067,1.648669,-6.578469,-4.036196,-8.708930,-0.388876,-1.525471,2.122845,-0.890625,0.304443,-0.132812,0.073515,0.019615,0.017011,0.999913,-0.001944,-0.007627,0.010614,0.161545,0.043124,-0.020369,-0.985712
41829,NaN,7.368482,1.338810,1.987318,-6.675721,-3.634455,-8.309397,-0.683529,-0.816706,1.715267,-0.886963,0.325928,-0.135254,0.073484,0.014087,0.020126,0.999949,-0.003418,-0.004083,0.008576,0.170051,0.038352,-0.018032,-0.984524
41830,NaN,4.948429,0.433174,3.015193,-4.729015,-2.028751,-7.113424,-0.697919,0.274878,1.172592,-0.882812,0.330078,-0.131104,0.049499,0.004727,0.030068,0.999976,-0.003490,0.001374,0.005863,0.174980,0.036636,-0.014768,-0.983779
41831,NaN,0.737602,5.169828,1.369733,0.992957,-5.081209,-8.282125,-0.043117,0.559297,0.713661,-0.887207,0.330078,-0.141602,0.007230,0.051727,0.013666,0.999990,-0.000216,0.002796,0.003568,0.178534,0.039278,-0.014201,-0.983047
41832,NaN,-1.069017,9.728804,1.084759,4.283717,-8.720333,-8.208327,0.886115,0.543789,0.057719,-0.885254,0.334473,-0.150146,-0.010688,0.097236,0.011308,0.999986,0.004431,0.002719,0.000289,0.177067,0.040490,-0.018389,-0.983194
41833,NaN,-3.038405,14.704669,0.521759,7.848542,-12.715777,-8.251229,1.080859,0.036570,-0.541539,-0.888916,0.319580,-0.152100,-0.029985,0.147097,0.006018,0.999982,0.005404,0.000183,-0.002708,0.174182,0.041657,-0.023565,-0.983550
41834,NaN,-0.070411,14.022663,-0.311052,4.755243,-13.182542,-9.227090,0.485426,-0.293233,-1.020067,-0.890625,0.308838,-0.145752,0.000015,0.140235,-0.002770,0.999983,0.002427,-0.001466,-0.005100,0.167323,0.038733,-0.026712,-0.984779
41835,NaN,1.242326,6.190794,4.395142,0.436448,-6.090377,-5.132682,-0.322911,0.710384,-1.160256,-0.894531,0.295898,-0.156006,0.012938,0.061905,0.043806,0.999976,-0.001615,0.003552,-0.005801,0.161760,0.042095,-0.024306,-0.985632
41836,NaN,0.103257,0.622382,9.276269,-0.777975,-0.351413,-0.554432,-1.081618,1.720695,-1.342287,-0.894287,0.282959,-0.162354,0.001874,0.006715,0.092714,0.999926,-0.005408,0.008603,-0.006711,0.153524,0.048008,-0.018378,-0.986807
41837,NaN,1.221955,-1.561641,6.053689,-2.280943,1.198183,-3.986942,-1.330485,2.254111,-1.494727,-0.896240,0.272461,-0.183350,0.012786,-0.015308,0.060497,0.999886,-0.006652,0.011270,-0.007473,0.146654,0.058220,-0.009727,-0.987425
41838,NaN,-0.463219,-9.206747,2.757956,-2.497803,8.946383,-7.301411,-1.241781,2.464083,-1.421146,-0.895996,0.259521,-0.202393,-0.004940,-0.091859,0.028210,0.999880,-0.006209,0.012320,-0.007105,0.139762,0.067858,-0.002286,-0.987855
41839,NaN,1.315020,-7.485498,1.422484,-3.482091,6.815695,-8.714507,-1.333008,2.124547,-1.257286,-0.895508,0.244629,-0.219238,0.012833,-0.074840,0.014586,0.999902,-0.006665,0.010622,-0.006286,0.134011,0.077408,0.006205,-0.987932
41840,NaN,3.491556,-4.966556,-0.094802,-4.604006,3.902675,-10.474745,-1.858955,2.621392,-1.299719,-0.891113,0.238281,-0.240234,0.034579,-0.049900,-0.000940,0.999850,-0.009294,0.013106,-0.006498,0.127981,0.087533,0.017109,-0.987758
41841,NaN,6.067170,-3.526745,-3.612754,-5.998812,2.189593,-14.451128,-1.526876,3.032883,-1.454003,-0.888916,0.227783,-0.259277,0.059857,-0.035984,-0.036766,0.999829,-0.007634,0.015164,-0.007270,0.121184,0.101374,0.027220,-0.987065
41842,NaN,10.272528,-0.961722,-6.600358,-8.613995,-0.805433,-18.481301,-0.672952,3.530512,-1.751805,-0.886230,0.206299,-0.292969,0.101449,-0.010736,-0.067767,0.999800,-0.003365,0.017651,-0.008758,0.112197,0.116693,0.033191,-0.986252
41843,NaN,19.382294,4.146718,-2.721104,-16.760680,-7.679630,-17.578826,0.407599,4.001237,-2.244875,-0.875244,0.185059,-0.333008,0.193678,0.039353,-0.031005,0.999735,0.002038,0.020004,-0.011223,0.100194,0.136227,0.034723,-0.984986
41844,NaN,30.900072,13.208728,-0.111743,-26.425373,-18.201656,-19.779482,-0.947500,5.508116,-2.949927,-0.863770,0.153076,-0.381348,0.310705,0.127478,-0.010271,0.999501,-0.004737,0.027536,-0.014747,0.085120,0.160801,0.043657,-0.982340
41845,NaN,23.981161,3.414635,-4.275988,-20.203699,-5.886848,-22.534859,-1.818387,6.800926,-4.272732,-0.841797,0.118896,-0.429688,0.238817,0.028596,-0.051170,0.999152,-0.009089,0.033995,-0.021358,0.064042,0.192332,0.058874,-0.977467
41846,NaN,16.636147,-13.061204,-2.119787,-16.093854,11.863021,-17.024341,-1.647835,4.665494,-3.979552,-0.826172,0.091064,-0.457031,0.163179,-0.134070,-0.023934,0.999496,-0.008238,0.023324,-0.019894,0.044514,0.211637,0.071359,-0.973723
41847,NaN,22.012693,-11.192857,-2.336365,-20.058834,10.520027,-19.922002,-0.433251,2.827407,-2.771144,-0.810791,0.067627,-0.476074,0.218190,-0.115016,-0.026211,0.999802,-0.002166,0.014136,-0.013855,0.030462,0.224253,0.077013,-0.971006
41848,NaN,30.315808,-7.778930,-0.183965,-27.619574,7.390893,-22.540245,1.248434,3.137328,-2.359819,-0.791016,0.046143,-0.503418,0.302129,-0.081325,-0.007085,0.999788,0.006242,0.015686,-0.011798,0.016207,0.236922,0.073679,-0.968595
41849,NaN,29.406877,-4.194479,0.492627,-26.176747,4.667099,-23.053086,1.422641,5.594675,-2.503325,-0.758301,0.010010,-0.549805,0.293492,-0.045616,-0.003606,0.999505,0.007112,0.027969,-0.012515,0.000329,0.263065,0.070170,-0.962223
41850,NaN,26.107652,4.607300,5.035959,-24.713867,-3.746289,-19.966822,1.567597,6.190185,-3.091608,-0.723633,-0.020020,-0.585693,0.263142,0.041661,0.042573,0.999371,0.007836,0.030944,-0.015455,-0.018922,0.289574,0.066495,-0.954655
41851,NaN,27.467218,15.894723,9.061215,-27.869329,-14.116983,-20.436947,-0.661973,4.617732,-3.900396,-0.695557,-0.041260,-0.611084,0.279691,0.153809,0.083678,0.999538,-0.003309,0.023085,-0.019499,-0.038108,0.310222,0.074833,-0.946948
41852,NaN,35.254719,2.768613,8.557412,-33.385253,0.962416,-24.239215,-1.933257,2.778143,-2.997463,-0.674072,-0.047607,-0.623779,0.354058,0.023181,0.080424,0.999745,-0.009665,0.013890,-0.014986,-0.050542,0.320387,0.087590,-0.941873
41853,NaN,38.479850,5.995876,5.595637,-33.790298,-0.432846,-29.958647,-3.778314,2.265573,-1.938003,-0.657471,-0.036865,-0.640869,0.385954,0.057211,0.050490,0.999710,-0.018890,0.011327,-0.009689,-0.054595,0.331045,0.107889,-0.935836
41854,NaN,28.161901,1.122343,-0.529194,-21.336054,4.225008,-27.742220,-3.890183,2.881032,-1.888066,-0.623779,-0.028320,-0.659912,0.281590,0.008407,-0.009531,0.999663,-0.019449,0.014404,-0.009439,-0.058857,0.342045,0.127950,-0.929069
41855,NaN,15.885369,-1.229307,0.131211,-11.846301,4.572291,-19.433841,-3.143256,5.080812,-2.850188,-0.592285,-0.026123,-0.691895,0.158626,-0.014574,-0.002503,0.999452,-0.015713,0.025399,-0.014248,-0.069939,0.364534,0.145858,-0.917033
41856,NaN,13.056985,-1.200512,5.863762,-13.399444,3.094178,-13.956030,-2.639778,3.758557,-2.624924,-0.566895,-0.023926,-0.706787,0.131477,-0.012973,0.056339,0.999650,-0.013197,0.018791,-0.013123,-0.080287,0.378289,0.161075,-0.908023
41857,NaN,5.449674,-0.826020,5.133643,-7.452520,1.091898,-9.810279,-2.284590,2.990252,-2.755357,-0.535156,-0.019531,-0.715332,0.055142,-0.008436,0.050611,0.999728,-0.011422,0.014950,-0.013776,-0.090862,0.390435,0.175415,-0.899185
41858,NaN,4.089242,-0.206531,6.732708,-7.719023,-0.207420,-8.242463,-1.946005,2.016021,-2.676278,-0.520264,-0.025879,-0.725830,0.041542,-0.001966,0.066930,0.999812,-0.009729,0.010079,-0.013381,-0.101304,0.395735,0.188180,-0.893152
41859,NaN,2.110961,-1.143458,6.403347,-6.147840,0.090695,-6.818988,-1.190473,0.848348,-2.505541,-0.509521,-0.023926,-0.721680,0.021239,-0.011319,0.064011,0.999895,-0.005952,0.004242,-0.012527,-0.110924,0.397702,0.198007,-0.889001
41860,NaN,-0.385802,-1.207439,4.809558,-3.298538,-0.350418,-6.106589,-1.012184,0.487958,-2.145592,-0.502930,-0.030273,-0.721680,-0.003868,-0.011789,0.048165,0.999927,-0.005061,0.002440,-0.010728,-0.119393,0.396204,0.206208,-0.886705
41861,NaN,-3.047309,-1.138834,3.320943,-0.435668,-1.082830,-5.312851,-1.355367,-0.191998,-1.699427,-0.496826,-0.021729,-0.717529,-0.030599,-0.010903,0.033255,0.999940,-0.006777,-0.000960,-0.008497,-0.124036,0.394361,0.215689,-0.884632
41862,NaN,-3.251005,0.461173,1.208199,1.233960,-2.036719,-7.249462,-1.910481,-0.862361,-1.254038,-0.499268,-0.015381,-0.707031,-0.032531,0.004930,0.011896,0.999925,-0.009552,-0.004312,-0.006270,-0.125343,0.388474,0.226846,-0.884261
41863,NaN,-3.436235,1.685762,-0.622975,2.700050,-2.626052,-8.890385,-2.291512,-1.132715,-0.726902,-0.505859,-0.002441,-0.702881,-0.034264,0.016908,-0.006618,0.999912,-0.011457,-0.005663,-0.003634,-0.122808,0.384017,0.239082,-0.883340
41864,NaN,-4.174885,2.656078,-2.498625,4.598536,-3.079456,-10.123508,-2.210225,-1.285917,-0.239319,-0.512451,0.006104,-0.694580,-0.041554,0.026330,-0.025546,0.999918,-0.011051,-0.006429,-0.001197,-0.118522,0.377737,0.249764,-0.883677
41865,NaN,-6.668483,2.794345,-5.296133,8.399529,-3.073648,-10.381747,-2.093813,-1.020212,0.211516,-0.508789,0.025391,-0.681885,-0.066442,0.027314,-0.053589,0.999932,-0.010469,-0.005101,0.001058,-0.112348,0.374681,0.259207,-0.883065
41866,NaN,-9.923839,0.321719,-8.318766,12.885738,-0.938672,-8.885565,-2.100440,-0.773669,0.486475,-0.507080,0.038086,-0.677734,-0.098922,0.002100,-0.083597,0.999934,-0.010502,-0.003868,0.002432,-0.105654,0.371685,0.267647,-0.882640
41867,NaN,-14.866599,-2.672437,-10.455776,17.835109,0.775704,-5.479129,-1.728610,-0.932892,0.673402,-0.518066,0.051025,-0.669434,-0.148084,-0.028130,-0.105010,0.999946,-0.008643,-0.004664,0.003367,-0.098212,0.369335,0.274505,-0.882379
41868,NaN,-14.730567,-4.885017,-11.060938,18.097064,3.259680,-4.807430,-0.439030,-1.983156,1.032530,-0.528564,0.051025,-0.654541,-0.145944,-0.049851,-0.111952,0.999935,-0.002195,-0.009916,0.005163,-0.090421,0.361171,0.275212,-0.886362
41869,NaN,-7.278158,-2.482075,-10.141535,12.128683,3.828167,-10.271439,1.366171,-2.729891,1.466295,-0.539062,0.050781,-0.635498,-0.071206,-0.024649,-0.102563,0.999857,0.006831,-0.013649,0.007331,-0.082618,0.350393,0.267707,-0.893718
41870,NaN,-0.320935,-1.825293,-9.516600,6.452521,5.398799,-14.630084,2.330185,-2.703648,1.643623,-0.553223,0.031494,-0.624756,-0.001777,-0.017161,-0.095401,0.999807,0.011650,-0.013517,0.008218,-0.075920,0.338733,0.255349,-0.902382
41871,NaN,-0.463797,-3.031130,-10.272674,6.821375,6.619697,-14.768698,2.683388,-2.923625,1.740584,-0.567871,0.022949,-0.597168,-0.002876,-0.028959,-0.103172,0.999765,0.013416,-0.014617,0.008702,-0.068859,0.326638,0.241346,-0.911218
41872,NaN,-0.242248,-5.988133,-9.876863,6.099917,9.032891,-13.639403,2.898450,-3.038938,1.740477,-0.580078,0.014404,-0.580078,-0.000400,-0.058451,-0.099639,0.999742,0.014491,-0.015193,0.008702,-0.062116,0.313181,0.226346,-0.920232
41873,NaN,1.797894,-7.178553,-5.916688,1.878168,9.061489,-11.843040,2.625545,-3.003638,1.437787,-0.592285,-0.002930,-0.558838,0.019386,-0.070867,-0.059817,0.999775,0.013127,-0.015017,0.007188,-0.056197,0.300074,0.212899,-0.928155
41874,NaN,5.213476,-6.333867,-2.197592,-3.180139,7.688773,-11.514062,1.799201,-2.794796,1.151092,-0.611084,-0.007324,-0.537598,0.052803,-0.062839,-0.021808,0.999845,0.008996,-0.013973,0.005755,-0.050658,0.287215,0.203901,-0.934540
41875,NaN,9.061351,-3.804851,2.340296,-8.954596,4.500982,-11.083054,0.533437,-2.704634,0.614909,-0.621826,-0.002930,-0.516357,0.090403,-0.037835,0.024525,0.999900,0.002667,-0.013523,0.003074,-0.045787,0.275010,0.201191,-0.939039
41876,NaN,15.377052,0.730579,7.010711,-16.747770,-0.243518,-12.173421,-1.282195,-2.723684,-0.140213,-0.632324,-0.007324,-0.510010,0.152803,0.007657,0.072144,0.999886,-0.006411,-0.013618,-0.000701,-0.042018,0.261706,0.208482,-0.941424
41877,NaN,29.388615,1.301996,9.543386,-30.123387,0.796627,-16.769829,-2.205663,-1.002879,-1.040590,-0.634277,-0.011719,-0.499268,0.293469,0.012555,0.096766,0.999913,-0.011028,-0.005014,-0.005203,-0.042980,0.256311,0.220418,-0.940145
41878,NaN,28.850542,-0.194757,11.778234,-30.848796,1.594995,-13.918324,1.140298,1.166388,-2.450481,-0.618408,-0.045898,-0.509766,0.289127,-0.006153,0.116070,0.999892,0.005701,0.005832,-0.012252,-0.057396,0.257864,0.218358,-0.939432
41879,NaN,12.719576,-1.621728,9.992733,-16.006681,1.035875,-7.191129,5.813063,2.352508,-3.939908,-0.604248,-0.097412,-0.509277,0.127965,-0.021598,0.097849,0.999314,0.029059,0.011760,-0.019695,-0.085919,0.262736,0.195314,-0.940978
41880,NaN,-4.146439,-8.075821,-7.147301,8.020292,8.299802,-10.298940,5.716951,4.101909,-2.315293,-0.577637,-0.133789,-0.513428,-0.043865,-0.078190,-0.072849,0.999314,0.028578,0.020505,-0.011574,-0.108434,0.275866,0.169944,-0.939819
41881,NaN,12.026427,-12.989130,14.477548,-16.409189,12.040869,0.611742,2.875997,1.085516,-0.248943,-0.572998,-0.142334,-0.511230,0.120877,-0.132099,0.142231,0.999881,0.014379,0.005427,-0.001245,-0.114480,0.279132,0.156168,-0.940527
41882,NaN,27.220628,5.613998,-7.140311,-18.897252,4.513667,-30.930383,1.605891,1.541834,1.169236,-0.562500,-0.144531,-0.523926,0.271311,0.058310,-0.073035,0.999921,0.008029,0.007709,0.005846,-0.112550,0.285060,0.146725,-0.940503
41883,NaN,5.431188,0.547179,-3.301555,-2.545709,1.744888,-15.395680,0.792626,2.092296,1.448184,-0.562500,-0.137939,-0.515625,0.053921,0.005995,-0.033558,0.999911,0.003963,0.010461,0.007241,-0.108396,0.295458,0.139747,-0.938843
41884,NaN,1.059107,1.064410,-10.472387,5.056824,1.372264,-19.003370,0.833900,-1.372351,0.666924,-0.574951,-0.148926,-0.502686,0.011273,0.011117,-0.104602,0.999962,0.004169,-0.006862,0.003335,-0.105666,0.287637,0.136264,-0.942089
41885,NaN,5.528853,6.775612,-15.900351,3.320031,-1.789796,-27.560985,1.733690,-4.984053,0.207863,-0.600098,-0.157471,-0.460205,0.059146,0.069183,-0.156966,0.999651,0.008667,-0.024917,0.001039,-0.103749,0.263256,0.130388,-0.950227
41886,NaN,10.393744,5.540430,-13.441155,-2.933912,-0.038238,-27.438524,2.470568,-6.012307,1.115303,-0.625244,-0.157715,-0.424316,0.107583,0.057626,-0.130511,0.999456,0.012351,-0.030056,0.005576,-0.097781,0.232764,0.120864,-0.960027
41887,NaN,13.817208,8.207796,-7.527990,-9.869287,-3.362428,-24.171000,2.632039,-4.416138,2.597881,-0.646484,-0.155518,-0.390381,0.138683,0.084832,-0.071117,0.999585,0.013158,-0.022078,0.012988,-0.085668,0.211723,0.107320,-0.967635
41888,NaN,17.494994,3.632785,-1.064752,-15.804296,0.044303,-18.212916,2.621301,-3.195802,3.143440,-0.657227,-0.147217,-0.360840,0.174484,0.039184,-0.007356,0.999663,0.013105,-0.015977,0.015715,-0.071501,0.195522,0.093202,-0.973639
41889,NaN,19.586220,0.072383,0.555858,-18.244645,2.927771,-16.326877,1.454093,-2.851896,3.327945,-0.674805,-0.127930,-0.341797,0.195709,0.003927,0.008371,0.999733,0.007270,-0.014258,0.016638,-0.055378,0.182585,0.083866,-0.978040
41890,NaN,18.264316,1.426720,1.087098,-17.536024,0.643648,-15.181349,0.193347,-2.849690,3.311555,-0.685547,-0.119385,-0.320801,0.182194,0.017274,0.013485,0.999761,0.000967,-0.014247,0.016556,-0.038145,0.168548,0.081252,-0.981598
41891,NaN,19.611054,3.565615,-0.413530,-18.548672,-1.795848,-16.892836,-0.567617,-3.635076,3.097872,-0.692383,-0.095947,-0.295410,0.195560,0.038683,-0.000684,0.999711,-0.002838,-0.018174,0.015488,-0.020979,0.151993,0.082097,-0.984743
41892,NaN,22.108198,8.435978,-3.594243,-20.237101,-6.679817,-20.702607,-0.323016,-4.298060,2.958991,-0.705811,-0.070312,-0.261963,0.220509,0.087572,-0.031339,0.999658,-0.001615,-0.021488,0.014793,-0.004389,0.130488,0.082420,-0.988008
41893,NaN,24.158022,7.393244,4.308697,-24.268802,-7.748893,-12.574713,1.042356,-4.577073,3.466864,-0.716797,-0.055420,-0.223877,0.239177,0.077848,0.048978,0.999574,0.005211,-0.022882,0.017332,0.013940,0.109195,0.075074,-0.991083
41894,NaN,26.509999,8.116982,5.329940,-26.478339,-9.718652,-10.937531,1.139992,-4.603478,3.996997,-0.725830,-0.027588,-0.192383,0.262085,0.086100,0.059837,0.999519,0.005699,-0.023014,0.019982,0.034823,0.086190,0.067262,-0.993395
41895,NaN,25.432126,5.337616,5.229442,-25.253153,-8.028984,-9.328771,0.695893,-4.355485,4.090993,-0.726562,-0.001953,-0.160889,0.251940,0.058351,0.057996,0.999548,0.003479,-0.021774,0.020452,0.056285,0.065983,0.061252,-0.994347
41896,NaN,25.762377,2.837314,6.275355,-25.627434,-6.799187,-6.988635,0.368402,-3.641377,3.810188,-0.729248,0.023682,-0.141846,0.255823,0.033137,0.067481,0.999651,0.001842,-0.018205,0.019049,0.076125,0.047184,0.057322,-0.994330
41897,NaN,20.814190,-0.742313,6.030991,-21.003533,-3.392689,-5.638121,0.080655,-2.855257,3.243954,-0.731934,0.047119,-0.125244,0.207337,-0.004081,0.063272,0.999766,0.000403,-0.014275,0.016219,0.093029,0.033903,0.055052,-0.993562
41898,NaN,13.634278,-2.427864,2.806560,-13.942576,-0.626711,-7.609779,0.049240,-2.797868,2.768302,-0.725830,0.060059,-0.097900,0.136251,-0.022399,0.029966,0.999806,0.000246,-0.013988,0.013841,0.107411,0.018683,0.053180,-0.992616
41899,NaN,12.031250,-4.360382,-1.445155,-12.691663,1.675388,-11.207325,0.506510,-3.515100,2.316624,-0.726318,0.077148,-0.081055,0.121037,-0.042171,-0.012436,0.999775,0.002532,-0.017574,0.011582,0.119766,0.002086,0.048545,-0.991612
41900,NaN,14.926254,-2.765372,-1.778447,-15.186759,-0.884562,-11.281288,0.778896,-3.165814,2.025294,-0.722656,0.096191,-0.066406,0.149790,-0.026075,-0.015520,0.999816,0.003894,-0.015828,0.010126,0.130460,-0.014729,0.042983,-0.990412
41901,NaN,11.644428,-2.227937,1.788399,-11.710161,-1.136573,-7.504904,0.012166,-2.222851,1.804822,-0.714600,0.109131,-0.055908,0.116431,-0.021230,0.019177,0.999898,0.000061,-0.011114,0.009024,0.139858,-0.025376,0.041594,-0.988972
41902,NaN,10.336116,-0.446065,2.758484,-9.811825,-2.752401,-6.527692,-1.074593,-1.321838,1.535220,-0.714844,0.119873,-0.045410,0.103205,-0.003517,0.028288,0.999934,-0.005373,-0.006609,0.007676,0.147481,-0.034399,0.046419,-0.987376
41903,NaN,8.860029,-0.531302,3.625646,-8.285376,-2.467391,-5.666559,-1.076227,-0.340454,1.184526,-0.710693,0.126221,-0.043457,0.088567,-0.004593,0.036433,0.999967,-0.005381,-0.001702,0.005923,0.153213,-0.036635,0.051675,-0.986161
41904,NaN,5.406270,1.996057,3.619470,-4.202343,-3.898413,-6.144595,-0.274853,0.480169,0.855153,-0.706787,0.134766,-0.049805,0.054063,0.020241,0.036037,0.999987,-0.001374,0.002401,0.004276,0.157124,-0.036238,0.053751,-0.985449
41905,NaN,1.803900,6.280630,2.895496,0.472867,-6.758850,-7.537185,1.468345,0.482099,0.502554,-0.704590,0.134766,-0.056152,0.017952,0.062637,0.029372,0.999967,0.007342,0.002410,0.002513,0.159727,-0.032612,0.046976,-0.985503
41906,NaN,-1.720520,12.509338,2.382403,5.717512,-11.452655,-8.690473,2.241902,0.211766,-0.056030,-0.706787,0.132812,-0.056152,-0.017144,0.124821,0.025242,0.999937,0.011209,0.001059,-0.000280,0.159624,-0.031617,0.036146,-0.986009
41907,NaN,-2.354327,15.919326,0.200351,7.180573,-14.361551,-10.902217,1.667091,-0.714766,-0.669059,-0.696045,0.132568,-0.052002,-0.023021,0.159247,0.003248,0.999953,0.008335,-0.003574,-0.003345,0.156706,-0.033969,0.027240,-0.986685
41908,NaN,1.337841,11.732856,2.135298,2.439787,-11.656207,-8.333472,0.305674,-0.396898,-1.116361,-0.699951,0.124023,-0.053955,0.013990,0.117219,0.021560,0.999981,0.001528,-0.001984,-0.005582,0.151084,-0.037438,0.024954,-0.987496
41909,NaN,0.921665,2.288872,8.522680,0.437919,-2.819762,-1.411497,-0.624755,1.151741,-1.485613,-0.697510,0.111328,-0.062500,0.009878,0.023083,0.085099,0.999951,-0.003124,0.005759,-0.007428,0.143475,-0.032447,0.028620,-0.988708
41910,NaN,0.130053,-0.840218,7.204556,0.132103,0.399970,-2.570457,-0.604870,1.739040,-1.654663,-0.699463,0.104980,-0.077148,0.001859,-0.008198,0.072056,0.999923,-0.003024,0.008695,-0.008273,0.134676,-0.025959,0.032143,-0.990028
41911,NaN,0.292834,-6.652475,4.808635,-1.752171,6.040864,-4.530455,-0.343380,2.269512,-1.697096,-0.697021,0.089844,-0.095947,0.002910,-0.066467,0.048167,0.999898,-0.001717,0.011347,-0.008485,0.125847,-0.015266,0.035139,-0.991310
41912,NaN,-0.582514,-9.335668,3.260935,-1.576557,8.952779,-5.877037,-0.232036,2.002422,-1.505430,-0.698975,0.081299,-0.102295,-0.006200,-0.093273,0.032778,0.999921,-0.001160,0.010012,-0.007527,0.117799,-0.007058,0.037080,-0.992320
41913,NaN,2.064060,-5.607387,2.315894,-3.248968,4.796039,-7.072501,-0.655440,2.022275,-1.365180,-0.696777,0.072998,-0.119141,0.020492,-0.056138,0.023135,0.999920,-0.003277,0.010111,-0.006826,0.110613,0.002296,0.041465,-0.992996
41914,NaN,3.285815,-3.718353,0.246346,-4.001961,2.902751,-9.321547,-0.957307,2.518637,-1.429404,-0.694092,0.055908,-0.135986,0.032620,-0.037406,0.002230,0.999884,-0.004786,0.012593,-0.007147,0.102849,0.012765,0.047447,-0.993483
41915,NaN,3.786427,-0.695932,-1.888695,-3.792850,0.138733,-11.808153,-0.686672,2.861849,-1.564675,-0.691895,0.051514,-0.148682,0.037533,-0.007320,-0.019401,0.999861,-0.003433,0.014309,-0.007823,0.094423,0.026213,0.052415,-0.993806
41916,NaN,5.312240,0.736537,-2.931346,-4.917969,-1.317182,-13.193495,-0.218962,3.252713,-1.744132,-0.689453,0.038818,-0.171875,0.052698,0.006872,-0.030181,0.999829,-0.001095,0.016263,-0.008720,0.084794,0.040656,0.055119,-0.994042
41917,NaN,9.352835,3.659952,-3.500251,-8.274088,-4.586029,-14.672190,-0.423858,3.867863,-1.992582,-0.687012,0.017334,-0.199219,0.093185,0.035593,-0.036883,0.999761,-0.002119,0.019338,-0.009962,0.073887,0.059098,0.059251,-0.993749
41918,NaN,19.692367,11.266653,-0.986935,-17.607498,-13.406111,-14.897649,-0.430787,4.449205,-2.485505,-0.676025,0.002441,-0.228760,0.198015,0.110182,-0.014506,0.999673,-0.002154,0.022244,-0.012426,0.060190,0.079144,0.063538,-0.993014
41919,NaN,33.254539,16.412955,-2.602488,-30.190992,-18.746571,-20.704211,-0.603707,5.736361,-3.509014,-0.662842,-0.016602,-0.262451,0.334417,0.158174,-0.036083,0.999430,-0.003018,0.028676,-0.017542,0.041149,0.106236,0.069608,-0.991048
41920,NaN,26.351557,6.822392,-9.166027,-22.946102,-6.425812,-25.838192,-0.714311,5.736134,-4.440237,-0.645020,-0.046631,-0.291748,0.262161,0.062047,-0.099422,0.999336,-0.003571,0.028674,-0.022196,0.017295,0.131544,0.076047,-0.988238
41921,NaN,26.872817,-15.398709,-0.173219,-26.325112,15.449428,-15.048349,-0.638838,3.662937,-3.936148,-0.636230,-0.063721,-0.312988,0.265543,-0.159249,-0.006112,0.999634,-0.003194,0.018312,-0.019678,-0.003135,0.147998,0.082078,-0.985571
41922,NaN,35.082744,-15.977947,1.137481,-33.830920,17.250976,-16.526595,-0.989719,3.009565,-3.131184,-0.627197,-0.080811,-0.338135,0.348396,-0.165205,0.006928,0.999752,-0.004948,0.015047,-0.015655,-0.019268,0.159968,0.088728,-0.982938
41923,NaN,34.488188,-6.058452,-1.716608,-31.700110,9.080003,-21.705857,-0.995428,5.015220,-2.394044,-0.603760,-0.089111,-0.372070,0.343553,-0.064816,-0.025477,0.999602,-0.004976,0.025073,-0.011969,-0.032458,0.183539,0.095015,-0.977871
41924,NaN,30.103002,3.934242,4.218166,-29.553497,-1.125823,-17.848328,-1.123835,4.462573,-2.630971,-0.586670,-0.099854,-0.391113,0.302353,0.035582,0.035238,0.999649,-0.005619,0.022310,-0.013153,-0.046592,0.202347,0.101991,-0.972874
41925,NaN,28.098197,3.212972,2.164033,-26.566818,0.667676,-19.719631,-1.705931,3.098802,-2.948584,-0.567383,-0.108398,-0.418457,0.281704,0.028138,0.017028,0.999735,-0.008529,0.015493,-0.014742,-0.060779,0.216215,0.112523,-0.967934
41926,NaN,30.109938,-2.448092,2.737335,-27.893308,7.335480,-19.199764,-1.712208,3.334618,-2.834396,-0.548096,-0.112549,-0.439697,0.301117,-0.028541,0.022585,0.999724,-0.008560,0.016672,-0.014171,-0.074761,0.229127,0.122601,-0.962746
41927,NaN,33.189007,5.970536,6.044557,-32.468397,0.088232,-20.737188,-2.833251,3.061292,-1.996505,-0.535645,-0.110352,-0.458740,0.333334,0.057183,0.054528,0.999733,-0.014165,0.015305,-0.009982,-0.082984,0.243591,0.137350,-0.956510
41928,NaN,36.349714,3.044889,3.192935,-33.256798,4.774559,-24.369067,-2.906025,2.220538,-0.589164,-0.521240,-0.093262,-0.482178,0.363907,0.029798,0.027454,0.999828,-0.014529,0.011102,-0.002946,-0.084118,0.252639,0.150861,-0.952018
41929,NaN,19.192295,-9.160245,-0.903409,-14.948377,13.572288,-16.546471,-1.677014,5.157148,-1.223924,-0.491943,-0.088867,-0.516113,0.191053,-0.092873,-0.013193,0.999614,-0.008384,0.025782,-0.006119,-0.091684,0.276823,0.158164,-0.943370
41930,NaN,11.792989,-1.053731,9.164221,-14.751577,1.966386,-8.184535,-1.091312,4.781614,-1.922974,-0.468750,-0.084473,-0.541748,0.119971,-0.011194,0.088850,0.999653,-0.005456,0.023905,-0.009614,-0.103394,0.295773,0.163724,-0.935426
41931,NaN,7.330462,-0.819123,6.647363,-9.720985,1.345552,-8.302981,-1.164619,2.958537,-2.157004,-0.447510,-0.084473,-0.556641,0.074186,-0.008605,0.065430,0.999815,-0.005823,0.014792,-0.010784,-0.114163,0.308345,0.170805,-0.928825
41932,NaN,4.415052,0.464561,4.836330,-6.478640,-0.173143,-8.767416,-1.746779,2.803389,-2.239502,-0.424316,-0.084229,-0.567139,0.044874,0.004564,0.047698,0.999801,-0.008733,0.014016,-0.011197,-0.124693,0.317924,0.180706,-0.922346
41933,NaN,1.742116,-0.898904,5.079463,-4.467368,0.116356,-6.702661,-1.755166,1.950006,-2.237123,-0.416016,-0.077881,-0.577881,0.017817,-0.008742,0.050700,0.999851,-0.008775,0.009750,-0.011185,-0.133962,0.325895,0.191119,-0.916144
41934,NaN,-0.689608,-0.078237,3.390874,-1.674904,-1.098697,-6.990117,-1.241748,1.022321,-2.148333,-0.405518,-0.071533,-0.582275,-0.006729,-0.000499,0.033947,0.999910,-0.006209,0.005111,-0.010741,-0.143228,0.326965,0.199525,-0.912562
41935,NaN,-4.058206,0.102730,2.121370,1.609458,-2.295521,-6.190633,-1.176522,0.352245,-1.694569,-0.397217,-0.069336,-0.586426,-0.040533,0.001496,0.021277,0.999945,-0.005883,0.001761,-0.008473,-0.149379,0.327658,0.207406,-0.909565
41936,NaN,-5.359412,0.883401,1.275002,3.037025,-3.338407,-6.532436,-1.470725,-0.718677,-1.210447,-0.399658,-0.056396,-0.593018,-0.053584,0.009251,0.012490,0.999948,-0.007353,-0.003593,-0.006052,-0.152211,0.322007,0.216467,-0.909002
41937,NaN,-5.445220,1.802488,0.641987,3.434543,-4.007179,-7.476774,-1.670024,-1.726003,-0.683241,-0.408203,-0.052246,-0.584473,-0.054442,0.018261,0.005798,0.999922,-0.008350,-0.008630,-0.003416,-0.150746,0.314619,0.226461,-0.909399
41938,NaN,-4.960072,3.133274,0.207486,3.257643,-4.782227,-8.823197,-1.543759,-1.941341,-0.109827,-0.419434,-0.034912,-0.580322,-0.049599,0.031372,0.001351,0.999923,-0.007719,-0.009706,-0.000549,-0.147087,0.304794,0.234903,-0.911201
41939,NaN,-6.535045,2.789408,-1.472080,5.650047,-4.504621,-9.150635,-1.333669,-1.462220,0.457618,-0.421875,-0.020020,-0.574219,-0.065303,0.027644,-0.015383,0.999948,-0.006668,-0.007311,0.002288,-0.141242,0.299584,0.241352,-0.912167
41940,NaN,-10.795968,-0.476800,-4.812785,11.462818,-2.138929,-7.820411,-1.515690,-0.718934,0.846642,-0.428467,-0.011475,-0.569824,-0.107763,-0.005591,-0.048475,0.999956,-0.007578,-0.003595,0.004233,-0.134687,0.296594,0.247239,-0.912559
41941,NaN,-16.469213,-5.109790,-9.342046,19.146564,1.474550,-5.832251,-1.258397,-1.027007,1.031872,-0.433105,-0.000732,-0.567871,-0.163942,-0.052535,-0.093936,0.999954,-0.006292,-0.005135,0.005159,-0.126832,0.293966,0.252137,-0.913195
41942,NaN,-15.299172,-6.668098,-11.973064,19.885036,4.627040,-7.568042,-0.097751,-1.912605,1.414493,-0.443848,0.001221,-0.552979,-0.151361,-0.067814,-0.121150,0.999929,-0.000489,-0.009563,0.007072,-0.118180,0.285593,0.251502,-0.917179
41943,NaN,-7.427672,-2.667865,-11.384953,12.774785,4.144693,-13.206531,1.594799,-2.431479,1.843957,-0.458740,0.003418,-0.544434,-0.072639,-0.026440,-0.114951,0.999852,0.007974,-0.012157,0.009219,-0.108922,0.275725,0.242961,-0.923624
41944,NaN,-1.424572,-0.441370,-10.436150,6.949842,3.898395,-16.713986,2.781603,-2.446146,1.963525,-0.468994,-0.005127,-0.529541,-0.012933,-0.003091,-0.104574,0.999780,0.013907,-0.012230,0.009817,-0.100950,0.264062,0.228640,-0.931560
41945,NaN,-0.128862,0.473446,-12.306716,6.534390,4.010273,-19.450759,3.202190,-2.927614,1.928902,-0.481445,-0.013672,-0.514648,0.000454,0.006703,-0.122972,0.999718,0.016009,-0.014637,0.009644,-0.092815,0.250888,0.212597,-0.939810
41946,NaN,1.013691,-2.254504,-12.259819,5.342248,6.512143,-19.055906,3.115643,-3.116256,1.999373,-0.491699,-0.018066,-0.499756,0.012261,-0.020518,-0.122748,0.999707,0.015577,-0.015580,0.009996,-0.084166,0.235829,0.196896,-0.947910
41947,NaN,0.778962,-5.889632,-9.433888,4.098822,8.644654,-15.534934,2.517816,-2.833213,1.821398,-0.506592,-0.020264,-0.478516,0.009660,-0.057621,-0.094942,0.999779,0.012588,-0.014165,0.009106,-0.075694,0.223029,0.183968,-0.954298
41948,NaN,4.201045,-5.369224,-4.712257,-1.367484,7.346747,-13.395000,1.694768,-2.546907,1.490440,-0.518799,-0.028809,-0.465820,0.043006,-0.052975,-0.047030,0.999855,0.008473,-0.012734,0.007452,-0.068234,0.210668,0.175390,-0.959271
41949,NaN,8.877447,-6.042232,0.189087,-7.807949,7.312146,-10.770992,0.828018,-2.561425,0.994362,-0.527588,-0.022461,-0.451172,0.089042,-0.059990,0.002781,0.999897,0.004140,-0.012807,0.004972,-0.062084,0.198896,0.171229,-0.962947
41950,NaN,15.345501,-0.469414,5.829273,-16.359846,1.416349,-9.938060,-0.672897,-2.844681,0.250404,-0.536133,-0.016113,-0.442627,0.152611,-0.004302,0.060482,0.999892,-0.003364,-0.014223,0.001252,-0.057857,0.184694,0.175454,-0.965275
41951,NaN,28.802427,3.538693,10.286144,-30.684124,-1.639482,-11.734213,-2.819751,-1.229228,-0.186049,-0.534180,-0.009766,-0.436279,0.287421,0.036581,0.104119,0.999881,-0.014098,-0.006146,-0.000930,-0.055066,0.179336,0.189571,-0.963779
41952,NaN,31.498024,-1.930804,7.339241,-31.874957,4.872582,-12.967555,-1.862961,0.948798,-1.121923,-0.525635,-0.011719,-0.453369,0.315212,-0.020400,0.072084,0.999930,-0.009315,0.004744,-0.005609,-0.059852,0.182227,0.199601,-0.960922
41953,NaN,16.277655,-2.925561,12.801096,-19.824512,1.484248,-3.325092,0.253141,4.596561,-2.503830,-0.503906,-0.035400,-0.465820,0.165276,-0.031473,0.124192,0.999657,0.001266,0.022980,-0.012518,-0.076676,0.201616,0.199224,-0.955919
41954,NaN,-4.764873,-1.261022,6.786656,1.554607,-2.165136,-1.860392,7.140519,2.499039,-3.685852,-0.487305,-0.093262,-0.454834,-0.047051,-0.014165,0.067970,0.999115,0.035692,0.012492,-0.018424,-0.104066,0.205616,0.167981,-0.958475
41955,NaN,-10.751338,-6.122246,-6.595532,13.349807,4.274145,-9.754216,9.073204,-0.207117,-2.075171,-0.490234,-0.129639,-0.437744,-0.108050,-0.057027,-0.068718,0.998917,0.045350,-0.001035,-0.010372,-0.123046,0.197883,0.126577,-0.964199
41956,NaN,41.208298,-11.239164,8.299172,-37.997201,20.920545,-13.252715,5.048883,-2.086513,-0.128904,-0.500488,-0.142578,-0.424805,0.411134,-0.114776,0.084407,0.999627,0.025241,-0.010431,-0.000644,-0.127352,0.183397,0.103876,-0.969204
41957,NaN,44.110988,7.464211,-0.768755,-40.715064,5.584649,-27.505221,0.756391,3.142225,0.620722,-0.477295,-0.138184,-0.450439,0.440685,0.076056,-0.014328,0.999865,0.003782,0.015710,0.003103,-0.126657,0.198383,0.097633,-0.966990
41958,NaN,-6.043084,-4.278256,-7.407170,9.363290,3.315313,-13.130649,-0.411900,4.518686,-0.318243,-0.460449,-0.140381,-0.465088,-0.062150,-0.042835,-0.072592,0.999741,-0.002059,0.022591,-0.001591,-0.130041,0.218708,0.097520,-0.962157
41959,NaN,-7.969330,-3.973630,-5.623274,10.279869,2.131963,-10.649161,-0.435386,0.204477,-0.930752,-0.466553,-0.142578,-0.454590,-0.079935,-0.039487,-0.056065,0.999986,-0.002177,0.001022,-0.004654,-0.134146,0.219460,0.100505,-0.961114
41960,NaN,-8.708351,3.651096,-16.767487,13.993574,-3.835504,-22.450974,1.470710,-3.938005,-1.032077,-0.487305,-0.153320,-0.418457,-0.083569,0.038188,-0.169067,0.999766,0.007353,-0.019688,-0.005160,-0.138756,0.197632,0.097665,-0.965479
41961,NaN,4.719489,5.426599,-16.050532,0.596808,-1.679864,-27.307079,3.238758,-5.837261,0.836764,-0.508301,-0.162109,-0.393066,0.051599,0.057050,-0.158133,0.999434,0.016191,-0.029181,0.004183,-0.134993,0.167450,0.085207,-0.972871
41962,NaN,17.232557,11.964068,-7.093864,-16.256235,-5.941514,-23.621238,3.626316,-4.551178,3.263854,-0.527588,-0.151367,-0.363281,0.171851,0.123660,-0.064806,0.999444,0.018128,-0.022752,0.016316,-0.120123,0.143019,0.068270,-0.980028
41963,NaN,18.743708,7.324876,-4.945431,-17.667989,-2.297597,-20.389795,3.712047,-2.450072,4.191644,-0.542480,-0.147217,-0.346436,0.186410,0.078035,-0.045747,0.999533,0.018557,-0.012248,0.020955,-0.101355,0.130091,0.048531,-0.985113
41964,NaN,28.899990,-2.475672,-1.286737,-26.791722,8.033859,-17.590721,2.189158,-2.311939,4.125611,-0.553711,-0.127930,-0.333740,0.289552,-0.018669,-0.009749,0.999661,0.010945,-0.011558,0.020626,-0.081826,0.117315,0.036540,-0.989043
41965,NaN,32.589763,2.501901,7.998762,-33.579813,2.130452,-9.517905,0.093951,-1.020515,3.233620,-0.556152,-0.113037,-0.323486,0.325023,0.030241,0.081661,0.999856,0.000470,-0.005102,0.016167,-0.065701,0.112744,0.034594,-0.990846
41966,NaN,15.090827,3.592747,0.796791,-15.211336,-1.729418,-12.434892,-0.835378,-2.497681,2.583602,-0.573486,-0.102295,-0.308594,0.150313,0.037910,0.009692,0.999830,-0.004177,-0.012488,0.012917,-0.051937,0.099569,0.038502,-0.992928
41967,NaN,18.823361,6.174988,-1.045620,-18.757577,-4.245237,-14.671531,-0.383276,-3.986474,2.650572,-0.588867,-0.076660,-0.285400,0.187554,0.064223,-0.006835,0.999712,-0.001916,-0.019930,0.013252,-0.037814,0.080300,0.040110,-0.995245
41968,NaN,24.743603,11.036568,3.138358,-25.494098,-9.616184,-10.962973,0.870553,-3.848800,3.171329,-0.593506,-0.063721,-0.266602,0.244975,0.114112,0.036605,0.999680,0.004352,-0.019242,0.015855,-0.021549,0.060011,0.035578,-0.997331
41969,NaN,27.676440,11.996169,6.691802,-28.453882,-11.651207,-6.799694,1.192073,-3.387200,3.912033,-0.608887,-0.040283,-0.249756,0.273159,0.124908,0.072300,0.999648,0.005960,-0.016934,0.019558,-0.001800,0.043607,0.028811,-0.998632
41970,NaN,22.416398,7.729781,9.769520,-22.878002,-8.626081,-2.083853,0.127652,-2.960152,4.193402,-0.615967,-0.014648,-0.237305,0.221000,0.081890,0.101033,0.999670,0.000638,-0.014799,0.020965,0.019547,0.027641,0.027476,-0.999049
41971,NaN,20.029723,2.085057,7.846546,-20.151689,-3.692887,-2.936659,-0.107802,-3.092008,4.090804,-0.623047,0.013184,-0.220459,0.198570,0.024968,0.081532,0.999671,-0.000539,-0.015458,0.020452,0.040403,0.012677,0.027134,-0.998735
41972,NaN,17.999575,-1.314934,6.249163,-18.069047,-0.807668,-3.683811,0.329214,-2.974298,3.704999,-0.627930,0.032471,-0.208008,0.179244,-0.009930,0.065143,0.999716,0.001646,-0.014870,0.018523,0.059257,-0.003511,0.024798,-0.997929
41973,NaN,14.572972,-0.336204,4.133021,-14.389639,-1.813647,-5.432384,0.557062,-2.588892,3.147263,-0.632812,0.053955,-0.197510,0.145209,-0.001193,0.043207,0.999789,0.002785,-0.012944,0.015735,0.075268,-0.015935,0.021295,-0.996809
41974,NaN,10.830463,0.427470,0.125182,-10.596137,-2.202827,-9.218402,0.624156,-2.658818,2.593921,-0.633057,0.064453,-0.180664,0.108208,0.005672,0.002707,0.999823,0.003121,-0.013293,0.012969,0.088504,-0.030634,0.017571,-0.995450
41975,NaN,10.668230,-0.336419,-1.827916,-10.653348,-1.637492,-10.850314,0.940123,-2.986831,2.159470,-0.637695,0.083740,-0.170166,0.106967,-0.002129,-0.016695,0.999819,0.004700,-0.014933,0.010797,0.099632,-0.044951,0.011889,-0.993937
41976,NaN,9.767300,-1.112948,-1.841586,-9.925403,-0.932352,-10.612466,0.654447,-2.340855,1.901498,-0.637939,0.092285,-0.159668,0.097979,-0.010141,-0.017305,0.999881,0.003272,-0.011704,0.009507,0.109350,-0.058096,0.008084,-0.992271
41977,NaN,8.397436,-0.494141,0.937194,-8.111122,-1.422477,-7.857517,-0.259577,-1.410006,1.723980,-0.636475,0.111572,-0.162109,0.083944,-0.004205,0.009970,0.999937,-0.001298,-0.007050,0.008620,0.117867,-0.065224,0.009090,-0.990843
41978,NaN,6.926295,0.538186,2.058037,-6.245109,-2.213256,-6.880538,-1.337517,-0.370602,1.398834,-0.636475,0.115967,-0.157715,0.069184,0.006004,0.020670,0.999951,-0.006687,-0.001853,0.006994,0.124343,-0.069720,0.016147,-0.989655
41979,NaN,4.048111,3.292252,2.977399,-2.635926,-4.276494,-6.518221,-1.522195,0.158356,1.091839,-0.639160,0.130859,-0.162109,0.040323,0.033368,0.029489,0.999956,-0.007611,0.000792,0.005459,0.129187,-0.069856,0.024145,-0.988862
41980,NaN,1.944296,5.853386,4.258409,0.260909,-6.293001,-5.749899,-0.529959,0.220231,0.659041,-0.635010,0.130859,-0.162109,0.019296,0.058710,0.042407,0.999990,-0.002650,0.001101,0.003295,0.132163,-0.070908,0.027281,-0.988312
41981,NaN,-0.562145,10.329348,4.391884,3.852172,-9.947371,-6.275676,0.416373,0.163088,0.251324,-0.635010,0.133057,-0.162109,-0.005715,0.103195,0.044138,0.999997,0.002082,0.000815,0.001257,0.133520,-0.069858,0.025407,-0.988254
41982,NaN,-1.720460,14.305559,4.073318,5.953762,-13.438343,-6.955497,0.769303,-0.415590,-0.348247,-0.645508,0.128662,-0.162109,-0.017041,0.142927,0.041248,0.999989,0.003847,-0.002078,-0.001741,0.132010,-0.073205,0.021191,-0.988314
41983,NaN,0.925325,8.292639,5.427121,2.054076,-8.347908,-4.795674,0.642330,-0.441947,-0.683136,-0.645264,0.122314,-0.162109,0.009416,0.082720,0.054558,0.999987,0.003212,-0.002210,-0.003416,0.128904,-0.075103,0.017462,-0.988655
41984,NaN,1.494543,-0.308739,6.491703,-0.513762,-0.174687,-3.166142,0.074187,0.637498,-0.986548,-0.645264,0.120117,-0.168457,0.015137,-0.003186,0.064868,0.999983,0.000371,0.003187,-0.004933,0.123826,-0.073627,0.016906,-0.989424
41985,NaN,0.358946,-3.788833,5.178023,-0.506450,3.500308,-4.447314,0.012982,1.519735,-1.055127,-0.640625,0.107422,-0.178955,0.003783,-0.037911,0.051750,0.999957,0.000065,0.007599,-0.005276,0.118467,-0.066255,0.017380,-0.990593
41986,NaN,-0.489002,-6.069739,3.703756,-0.430689,5.947038,-5.908087,0.301851,2.065558,-1.131804,-0.644775,0.103027,-0.195801,-0.004851,-0.060726,0.036996,0.999930,0.001509,0.010328,-0.005659,0.112629,-0.057494,0.016529,-0.991835
41987,NaN,-1.138023,-7.213897,0.851611,-0.362243,7.266608,-8.751836,-0.068720,2.133950,-1.131078,-0.640137,0.090332,-0.199951,-0.011696,-0.072070,0.008665,0.999927,-0.000344,0.010669,-0.005655,0.106804,-0.047109,0.017732,-0.993005
41988,NaN,0.370983,-4.454784,-0.335688,-1.303063,4.288254,-9.902192,-0.631840,2.197472,-1.103148,-0.642334,0.090332,-0.214600,0.003428,-0.044578,-0.003255,0.999919,-0.003159,0.010987,-0.005516,0.100877,-0.038092,0.021691,-0.993933
41989,NaN,1.674085,-3.327290,-1.273332,-2.366110,2.986302,-10.801499,-0.859017,2.589514,-1.244779,-0.637939,0.081787,-0.225098,0.016368,-0.033430,-0.012803,0.999888,-0.004295,0.012947,-0.006224,0.094225,-0.025857,0.027015,-0.994848
41990,NaN,2.565583,-1.805591,-2.583697,-2.961511,1.449048,-12.188852,-0.586610,2.879648,-1.474855,-0.635742,0.073242,-0.235596,0.025146,-0.018319,-0.026148,0.999865,-0.002933,0.014398,-0.007374,0.086332,-0.013394,0.031059,-0.995692
41991,NaN,4.155680,0.127569,-3.728329,-4.139741,-0.572227,-13.516531,-0.038548,3.185696,-1.693655,-0.626953,0.062500,-0.252686,0.040965,0.000920,-0.037939,0.999837,-0.000193,0.015928,-0.008468,0.077379,0.002117,0.032497,-0.996470
41992,NaN,7.874608,4.159049,-4.065379,-7.129734,-4.963109,-14.324919,0.018674,3.554004,-1.877372,-0.624512,0.049805,-0.275635,0.078393,0.040857,-0.042045,0.999798,0.000093,0.017769,-0.009386,0.067361,0.018190,0.033747,-0.996992
41993,NaN,16.327846,8.612157,-0.507597,-15.082957,-10.449790,-11.880793,0.012010,4.243666,-2.335705,-0.607178,0.032715,-0.301025,0.164113,0.084209,-0.008547,0.999707,0.000060,0.021216,-0.011677,0.054971,0.038876,0.035310,-0.997106
41994,NaN,32.206905,14.835806,-0.114504,-30.484765,-17.525983,-14.340895,-0.153752,5.630741,-3.561276,-0.591797,0.013428,-0.328369,0.324437,0.142589,-0.010369,0.999445,-0.000769,0.028148,-0.017803,0.036124,0.064885,0.038087,-0.996511
41995,NaN,31.167837,6.049563,-9.207607,-28.988663,-6.579797,-24.260663,0.460836,5.731033,-4.698434,-0.573975,-0.014160,-0.353760,0.310182,0.053422,-0.100852,0.999311,0.002304,0.028649,-0.023487,0.011444,0.092505,0.038318,-0.994909
41996,NaN,25.996295,-15.094311,2.889461,-26.164797,15.016559,-11.099308,-0.106640,4.707911,-4.275741,-0.560791,-0.031250,-0.370605,0.257243,-0.156449,0.022900,0.999494,-0.000533,0.023536,-0.021375,-0.010812,0.113467,0.040618,-0.992652
41997,NaN,23.438022,-18.017481,3.774536,-23.178843,18.729407,-10.107976,-0.885915,3.131124,-3.032902,-0.550049,-0.041992,-0.383057,0.232175,-0.183548,0.034907,0.999753,-0.004429,0.015654,-0.015163,-0.026005,0.128337,0.046553,-0.990296
41998,NaN,29.495374,-3.172064,2.387200,-28.836522,5.260659,-14.949563,-0.486334,3.316051,-2.757873,-0.534912,-0.052734,-0.406494,0.294822,-0.035737,0.019066,0.999765,-0.002431,0.016579,-0.013788,-0.040205,0.142403,0.050127,-0.987721
41999,NaN,27.384301,2.403531,7.114646,-28.346371,-0.035824,-11.431654,-1.346035,4.027175,-2.820897,-0.515625,-0.061279,-0.416992,0.275506,0.020610,0.065463,0.999675,-0.006729,0.020134,-0.014103,-0.054182,0.161733,0.057956,-0.983640
42000,NaN,24.794264,2.173349,4.781942,-25.033640,0.920803,-13.646523,-1.341236,3.509597,-3.207328,-0.502686,-0.067627,-0.444336,0.249038,0.018046,0.043326,0.999695,-0.006705,0.017546,-0.016035,-0.069990,0.176462,0.066017,-0.979594
42001,NaN,27.562951,1.364286,6.116103,-27.817407,2.874416,-13.913859,-1.318109,2.500902,-3.085401,-0.492188,-0.063232,-0.442383,0.276536,0.009769,0.057634,0.999781,-0.006590,0.012504,-0.015426,-0.084758,0.188040,0.074308,-0.975672
42002,NaN,34.005519,6.205459,7.244091,-34.680283,0.080276,-16.487220,-1.964520,1.762081,-2.262002,-0.488281,-0.061035,-0.457275,0.341350,0.058887,0.068848,0.999849,-0.009822,0.008810,-0.011309,-0.094748,0.194553,0.085086,-0.972591
42003,NaN,37.512642,7.629474,5.063701,-37.018763,0.368636,-20.786805,-2.712167,2.061762,-1.237356,-0.480225,-0.048096,-0.469971,0.376080,0.074612,0.045744,0.999836,-0.013560,0.010308,-0.006186,-0.098996,0.205229,0.098493,-0.968700
42004,NaN,28.534591,-3.048255,2.294164,-25.876114,9.459065,-18.157124,-2.170380,3.900517,-1.363507,-0.458984,-0.048096,-0.491211,0.285510,-0.032218,0.017718,0.999728,-0.010851,0.019501,-0.006817,-0.105495,0.222211,0.108242,-0.963212
42005,NaN,12.514993,1.141479,8.877292,-15.222227,0.803005,-7.734063,-1.398686,4.910378,-2.178624,-0.433838,-0.041748,-0.512451,0.127396,0.010641,0.085587,0.999615,-0.006993,0.024549,-0.010892,-0.117055,0.245253,0.114772,-0.955498
42006,NaN,9.734906,3.233454,10.266498,-13.975132,-1.898228,-6.392501,-1.560014,2.785872,-2.140632,-0.425537,-0.035156,-0.519043,0.099108,0.032072,0.101042,0.999815,-0.007800,0.013929,-0.010703,-0.127211,0.255914,0.123033,-0.950362
42007,NaN,4.932243,2.106808,6.649312,-7.990271,-1.567606,-7.229753,-2.294933,2.292389,-2.258260,-0.421631,-0.026611,-0.525391,0.050318,0.021260,0.065677,0.999805,-0.011474,0.011461,-0.011291,-0.136395,0.266750,0.135354,-0.944415
42008,NaN,3.729929,1.907153,6.075281,-6.721766,-1.652784,-7.255040,-2.643762,1.644607,-2.058647,-0.413574,-0.009521,-0.538330,0.037995,0.019481,0.060187,0.999826,-0.013218,0.008223,-0.010293,-0.143996,0.272677,0.149209,-0.939494
42009,NaN,2.388479,1.712857,4.220561,-4.617280,-1.588410,-8.197624,-2.586531,0.866641,-1.776049,-0.409668,-0.005127,-0.548828,0.024221,0.017457,0.041877,0.999868,-0.012932,0.004333,-0.008880,-0.149443,0.277170,0.163147,-0.935001
42010,NaN,-0.588498,1.238971,2.736302,-1.316046,-1.970683,-7.875552,-2.601177,0.405351,-1.403974,-0.408203,0.020508,-0.553223,-0.005741,0.012785,0.027210,0.999889,-0.013005,0.002027,-0.007020,-0.153073,0.277756,0.176670,-0.931777
42011,NaN,-1.426833,1.366945,1.366127,0.105445,-2.113974,-8.676764,-2.667698,-0.276750,-1.074893,-0.419189,0.033447,-0.553467,-0.014213,0.013926,0.013457,0.999896,-0.013338,-0.001384,-0.005374,-0.154116,0.277450,0.190796,-0.928906
42012,NaN,-1.512110,2.280210,-0.280188,0.969246,-2.510502,-10.379937,-2.837983,-0.752767,-0.695082,-0.426270,0.059082,-0.545166,-0.015030,0.022811,-0.003182,0.999886,-0.014189,-0.003764,-0.003475,-0.153057,0.273527,0.205225,-0.927167
42013,NaN,-2.243103,2.949421,-1.438481,2.139272,-2.989794,-11.323798,-2.752762,-0.965959,-0.296655,-0.439697,0.076416,-0.547363,-0.022316,0.029325,-0.014897,0.999893,-0.013763,-0.004830,-0.001483,-0.149658,0.270741,0.219120,-0.925358
42014,NaN,-5.526896,2.889819,-3.017524,5.747165,-3.632507,-11.145501,-2.354092,-0.840032,0.182614,-0.446533,0.095703,-0.551514,-0.055167,0.028488,-0.030744,0.999921,-0.011770,-0.004200,0.000913,-0.145089,0.267039,0.230095,-0.924498
42015,NaN,-10.654649,1.084232,-4.458437,11.056387,-3.450134,-9.161025,-1.982221,-0.722840,0.662894,-0.457764,0.116943,-0.551758,-0.106418,0.010044,-0.045071,0.999939,-0.009911,-0.003614,0.003314,-0.138533,0.265800,0.238893,-0.923628
42016,NaN,-15.887734,-2.794438,-7.769661,17.735330,-0.719282,-7.460909,-1.528864,-0.913640,0.776254,-0.458252,0.129883,-0.549805,-0.158409,-0.029156,-0.078201,0.999953,-0.007644,-0.004568,0.003881,-0.132187,0.262011,0.245258,-0.923972
42017,NaN,-20.024778,-8.247073,-10.302598,23.184396,3.663738,-4.894395,-0.184063,-1.898214,0.920311,-0.475342,0.138428,-0.534912,-0.198876,-0.083484,-0.104841,0.999944,-0.000920,-0.009491,0.004601,-0.125354,0.254395,0.246153,-0.926811
42018,NaN,-11.514034,-8.327235,-11.616619,16.680545,7.653868,-9.810820,1.821495,-3.046844,1.343293,-0.492432,0.138428,-0.528564,-0.112787,-0.082962,-0.118653,0.999820,0.009107,-0.015233,0.006716,-0.117956,0.239480,0.237666,-0.933943
42019,NaN,-4.017994,-3.625481,-9.462365,8.492590,5.434148,-13.954078,3.249860,-3.025872,1.564751,-0.509033,0.129883,-0.517822,-0.038459,-0.035010,-0.095790,0.999723,0.016248,-0.015128,0.007823,-0.110908,0.225144,0.222344,-0.942111
42020,NaN,-1.476436,-2.412121,-9.891677,6.089839,5.232535,-16.243683,3.677214,-2.946735,1.635075,-0.527832,0.123291,-0.511475,-0.013113,-0.022406,-0.099541,0.999689,0.018384,-0.014732,0.008175,-0.104233,0.209876,0.204686,-0.950364
42021,NaN,-0.522380,-3.156811,-11.251880,5.616644,6.440946,-17.798916,3.984825,-3.044040,1.674093,-0.538330,0.114746,-0.502686,-0.003253,-0.029350,-0.113178,0.999651,0.019922,-0.015218,0.008369,-0.097307,0.194891,0.185517,-0.958192
42022,NaN,0.175769,-5.605751,-9.640430,4.270814,8.130835,-16.138551,3.820740,-2.840779,1.658484,-0.554688,0.099854,-0.494141,0.003591,-0.054178,-0.097409,0.999682,0.019102,-0.014202,0.008292,-0.090551,0.179900,0.166971,-0.965172
42023,NaN,1.235000,-6.412198,-5.979625,1.751842,7.932400,-13.333220,3.012363,-2.906726,1.476402,-0.569336,0.093262,-0.479248,0.013695,-0.063116,-0.060559,0.999754,0.015061,-0.014532,0.007381,-0.083689,0.165612,0.152386,-0.970746
42024,NaN,6.317030,-6.474020,-2.221354,-4.471992,7.976013,-11.582913,2.078402,-3.113322,1.079309,-0.579834,0.093262,-0.468750,0.063860,-0.064168,-0.021892,0.999810,0.010391,-0.015566,0.005396,-0.077867,0.149488,0.142862,-0.975285
42025,NaN,11.610581,-2.020091,2.350967,-11.494971,3.496623,-10.016750,0.540059,-3.147537,0.549097,-0.598877,0.093262,-0.447510,0.115772,-0.019949,0.025279,0.999869,0.002700,-0.015737,0.002745,-0.073338,0.134214,0.141028,-0.978120
42026,NaN,23.178777,1.843544,8.296494,-24.623060,0.144419,-8.039398,-1.800052,-2.218466,0.233371,-0.603516,0.105957,-0.438965,0.230827,0.019466,0.085357,0.999897,-0.009000,-0.011092,0.001167,-0.069495,0.123198,0.150734,-0.978403
42027,NaN,33.230570,-0.582970,8.586021,-34.097609,3.865855,-8.954410,-2.273204,-0.368310,-0.393585,-0.605469,0.101807,-0.441162,0.332136,-0.005502,0.086536,0.999932,-0.011366,-0.001842,-0.001968,-0.069740,0.121793,0.162217,-0.976723
42028,NaN,24.888437,-3.936219,13.258588,-26.961974,4.448565,-1.817543,0.765139,2.183082,-1.874933,-0.596436,0.078125,-0.462158,0.249924,-0.042202,0.129704,0.999889,0.003826,0.010915,-0.009374,-0.081245,0.129420,0.159092,-0.975366
42029,NaN,9.112276,-1.623316,11.826969,-11.793855,0.499983,-0.534352,6.162550,2.833633,-3.811560,-0.592529,0.013916,-0.474365,0.092403,-0.021592,0.116356,0.999243,0.030805,0.014165,-0.019053,-0.106009,0.137515,0.130245,-0.976160
42030,NaN,-4.119261,-3.026691,-10.499258,7.588733,3.741915,-17.855354,8.036836,3.014238,-2.455542,-0.574219,-0.026611,-0.484619,-0.043113,-0.025513,-0.105441,0.999004,0.040171,0.015066,-0.012274,-0.125430,0.144847,0.091204,-0.977225
42031,NaN,29.757204,-7.992016,6.792629,-27.825168,14.872862,-9.603444,4.947615,-0.048477,0.272976,-0.584473,-0.043945,-0.478271,0.297666,-0.081163,0.066001,0.999693,0.024736,-0.000242,0.001365,-0.127627,0.141498,0.066844,-0.979399
42032,NaN,32.171579,6.378276,-2.223382,-30.513353,2.637795,-21.751066,1.349138,3.320861,0.810113,-0.563232,-0.045898,-0.501465,0.321030,0.065256,-0.027131,0.999831,0.006745,0.016603,0.004050,-0.125717,0.155711,0.057872,-0.978059
42033,NaN,-6.529244,-6.736694,-6.254182,9.586856,5.169907,-12.726386,1.354608,3.172046,0.551029,-0.552734,-0.041748,-0.507812,-0.066093,-0.067127,-0.061953,0.999847,0.006773,0.015859,0.002755,-0.124987,0.170418,0.048825,-0.976193
42034,NaN,-5.243723,-3.178563,-6.963475,7.882376,2.040304,-14.261810,1.101563,-0.041386,0.152730,-0.560547,-0.061035,-0.505615,-0.052399,-0.031441,-0.069819,0.999985,0.005508,-0.000207,0.000764,-0.125170,0.168086,0.043715,-0.976816
42035,NaN,-5.116593,0.348031,-11.266925,8.224137,-1.240095,-18.980480,2.297133,-3.600278,0.125087,-0.587646,-0.071777,-0.471680,-0.049130,0.004750,-0.113516,0.999772,0.011485,-0.018000,0.000625,-0.125687,0.148965,0.034643,-0.980210
42036,NaN,2.979632,6.359692,-14.625709,-0.371952,-5.044943,-25.225744,2.862838,-6.150933,1.462913,-0.621338,-0.076172,-0.424805,0.033779,0.065910,-0.144326,0.999398,0.014311,-0.030748,0.007313,-0.119459,0.115861,0.023738,-0.985770
42037,NaN,17.325425,12.401180,-10.038955,-17.193690,-8.046904,-23.746745,2.971934,-5.583722,2.958791,-0.642578,-0.069824,-0.391113,0.174058,0.128008,-0.093654,0.999391,0.014857,-0.027913,0.014791,-0.105879,0.086760,0.010706,-0.990529
42038,NaN,25.678626,7.422178,-3.862156,-25.737927,-2.362100,-17.633184,3.057567,-3.649982,3.839542,-0.664062,-0.057129,-0.365723,0.255925,0.079672,-0.032755,0.999532,0.015285,-0.018247,0.019195,-0.087866,0.065897,-0.003904,-0.993943
42039,NaN,32.328371,4.447755,0.642536,-32.475529,0.631111,-12.983410,1.833580,-2.565683,3.972996,-0.673096,-0.040039,-0.355225,0.322195,0.050799,0.011010,0.999678,0.009167,-0.012827,0.019863,-0.068766,0.052152,-0.013192,-0.996181
42040,NaN,22.621316,7.879586,8.049372,-24.062730,-4.875118,-3.832986,0.458408,-0.946687,3.577690,-0.677979,-0.016357,-0.344727,0.224373,0.082634,0.081745,0.999826,0.002292,-0.004733,0.017887,-0.051015,0.045478,-0.015813,-0.997537
42041,NaN,13.366440,12.661925,0.657770,-14.435151,-11.445722,-9.861254,-0.531337,-3.026217,3.101387,-0.693604,0.007080,-0.323730,0.131563,0.128691,0.008239,0.999762,-0.002656,-0.015130,0.015506,-0.035672,0.030172,-0.013092,-0.998822
42042,NaN,20.171952,11.669349,-4.310954,-20.636361,-10.616567,-14.610094,-1.345571,-4.642777,3.101480,-0.708984,0.030518,-0.290039,0.200821,0.119540,-0.039238,0.999588,-0.006727,-0.023211,0.015505,-0.020207,0.005359,-0.005848,-0.999764
42043,NaN,22.943602,9.025491,0.876212,-23.129911,-8.492626,-8.635512,-1.140021,-4.338802,3.527241,-0.718018,0.052002,-0.264893,0.227542,0.094346,0.013182,0.999593,-0.005699,-0.021691,0.017634,-0.002683,-0.016411,0.000193,-0.999862
42044,NaN,22.925373,3.702887,2.655395,-22.670608,-4.074758,-5.861467,-0.566169,-4.265493,4.224272,-0.727295,0.088379,-0.237549,0.227768,0.041935,0.031309,0.999546,-0.002830,-0.021324,0.021118,0.018405,-0.039484,0.003490,-0.999045
42045,NaN,26.786443,3.483767,4.364649,-25.981964,-5.094459,-2.922282,-0.928819,-3.727562,4.340861,-0.734619,0.120361,-0.214600,0.266148,0.040845,0.048438,0.999580,-0.004643,-0.018635,0.021701,0.039943,-0.058189,0.008634,-0.997469
42046,NaN,22.721970,-2.241855,7.240496,-21.628151,-0.174472,0.473443,-1.285845,-3.145723,3.877108,-0.737549,0.150391,-0.195801,0.226414,-0.017543,0.076094,0.999668,-0.006429,-0.015727,0.019383,0.058999,-0.075845,0.015610,-0.995250
42047,NaN,17.535130,-6.160299,9.390052,-16.329304,3.497026,2.623488,-0.685422,-3.475660,3.198485,-0.742432,0.173828,-0.168457,0.174634,-0.058477,0.097144,0.999715,-0.003427,-0.017377,0.015991,0.074893,-0.093165,0.019191,-0.992644
42048,NaN,13.353126,-4.146712,7.031492,-12.060834,1.726685,0.008910,0.158503,-3.866132,2.727149,-0.745117,0.199463,-0.147461,0.132689,-0.039711,0.072854,0.999720,0.000792,-0.019329,0.013634,0.088829,-0.113956,0.018373,-0.989336
42049,NaN,10.706762,-4.733597,2.395649,-10.468407,2.564271,-4.655088,1.143141,-4.017116,2.574149,-0.747559,0.214355,-0.124268,0.107160,-0.046101,0.025843,0.999699,0.005715,-0.020084,0.012869,0.102540,-0.133143,0.012380,-0.985700
42050,NaN,12.872799,-3.485477,0.376906,-12.675034,0.612317,-5.695813,1.065105,-3.165095,2.385993,-0.750000,0.227295,-0.111816,0.129053,-0.033343,0.005630,0.999789,0.005325,-0.015824,0.011929,0.115193,-0.149932,0.007318,-0.981936
42051,NaN,9.751499,-1.770594,-0.488720,-9.567479,-0.612492,-7.253798,-0.281781,-1.726202,2.023678,-0.748535,0.246338,-0.099121,0.097725,-0.016724,-0.004020,0.999911,-0.001409,-0.008631,0.010118,0.124954,-0.158577,0.009204,-0.979365
42052,NaN,8.002372,-0.040235,-2.114421,-8.004725,-2.037530,-9.281810,-1.489732,-1.032223,1.586887,-0.752930,0.257080,-0.092773,0.080132,0.000078,-0.020730,0.999927,-0.007448,-0.005161,0.007934,0.131574,-0.166360,0.017357,-0.977093
42053,NaN,5.745494,0.995332,-1.523987,-5.469241,-2.511107,-9.488022,-1.253151,-0.315425,1.287437,-0.749268,0.270020,-0.097168,0.057414,0.010228,-0.015213,0.999958,-0.006266,-0.001577,0.006437,0.136828,-0.168703,0.024320,-0.975821
42054,NaN,2.662773,2.700469,1.182681,-1.294304,-3.339197,-8.093367,0.085541,0.095598,0.981245,-0.755859,0.276367,-0.099365,0.026500,0.027130,0.011826,0.999988,0.000428,0.000478,0.004906,0.141640,-0.169877,0.025017,-0.974912
42055,NaN,1.365871,6.938679,3.049679,1.681848,-7.017766,-7.123349,1.636811,0.293992,0.525643,-0.751709,0.280762,-0.107910,0.013522,0.069170,0.031044,0.999962,0.008184,0.001470,0.002628,0.145537,-0.167310,0.017669,-0.974943
42056,NaN,0.065384,13.066159,4.304675,5.041808,-12.414791,-6.697398,2.125384,0.182985,0.068556,-0.751465,0.274414,-0.118408,0.000649,0.130195,0.044431,0.999943,0.010627,0.000915,0.000343,0.147588,-0.166561,0.007640,-0.974893
42057,NaN,-0.317428,14.209199,4.221951,5.727714,-13.322604,-6.726581,1.546772,-0.431160,-0.412638,-0.755859,0.274414,-0.118408,-0.002974,0.141766,0.043310,0.999966,0.007734,-0.002156,-0.002063,0.146860,-0.167629,-0.000585,-0.974850
42058,NaN,2.527072,9.202198,5.598802,2.178917,-9.229124,-4.112860,0.431604,-0.310288,-0.858586,-0.761963,0.265869,-0.120361,0.025578,0.091791,0.056226,0.999987,0.002158,-0.001551,-0.004293,0.142937,-0.170385,-0.003691,-0.974948
42059,NaN,2.700204,2.694801,9.618636,1.459478,-2.823877,0.034437,-0.597830,0.728908,-1.117374,-0.770020,0.255127,-0.128662,0.027503,0.027082,0.096006,0.999973,-0.002989,0.003645,-0.005587,0.136973,-0.167333,-0.001231,-0.976338
42060,NaN,2.287158,-0.152868,7.507611,0.306152,-0.127254,-1.970011,-0.803952,1.495956,-1.232285,-0.769775,0.242188,-0.143555,0.023424,-0.001371,0.074908,0.999945,-0.004020,0.007480,-0.006161,0.130153,-0.162021,0.002536,-0.978163
42061,NaN,1.282815,-5.095623,4.707901,-0.983924,4.766247,-4.704848,-0.350857,1.916811,-1.210708,-0.775879,0.233643,-0.154053,0.012971,-0.050952,0.047045,0.999934,-0.001754,0.009584,-0.006053,0.123898,-0.152980,0.004495,-0.980421
42062,NaN,0.386609,-9.918982,1.576078,-2.232312,9.575692,-7.728929,-0.355364,1.940527,-1.080630,-0.780029,0.225098,-0.166504,0.003484,-0.099181,0.015902,0.999937,-0.001777,0.009702,-0.005403,0.118164,-0.145070,0.006485,-0.982319
42063,NaN,2.354984,-6.591312,-0.378970,-3.786908,5.867592,-9.208386,-0.659970,1.947120,-0.952247,-0.779785,0.216797,-0.181396,0.023199,-0.066037,-0.003799,0.999936,-0.003300,0.009735,-0.004761,0.112921,-0.136020,0.010164,-0.984197
42064,NaN,4.639699,-4.623905,-1.153551,-5.654800,3.486262,-9.487115,-0.865147,2.390577,-1.070029,-0.781738,0.203857,-0.197998,0.046008,-0.046537,-0.011886,0.999905,-0.004326,0.011953,-0.005350,0.106864,-0.126092,0.015013,-0.986132
42065,NaN,6.104007,-3.749607,-2.814557,-7.221804,2.419892,-10.919650,-0.487466,3.019963,-1.289804,-0.783691,0.195312,-0.223389,0.060363,-0.037957,-0.028968,0.999862,-0.002437,0.015099,-0.006449,0.099940,-0.111645,0.018194,-0.988543
42066,NaN,7.717931,-1.159224,-5.806339,-8.839747,-0.266560,-13.862386,0.156032,3.581548,-1.479246,-0.781006,0.178223,-0.250732,0.076035,-0.012111,-0.059441,0.999812,0.000780,0.017907,-0.007396,0.092318,-0.095269,0.018384,-0.990991
42067,NaN,12.610450,4.775939,-5.550620,-12.364442,-6.835360,-13.420698,0.560438,3.988500,-1.621504,-0.780762,0.165527,-0.280273,0.125349,0.046901,-0.057879,0.999764,0.002802,0.019941,-0.008107,0.084147,-0.075480,0.016653,-0.993451
42068,NaN,25.373820,17.143619,0.226354,-22.164021,-20.961693,-7.169958,-0.101835,4.902570,-2.024951,-0.771973,0.144287,-0.318115,0.255409,0.168855,-0.004071,0.999648,-0.000509,0.024510,-0.010124,0.073552,-0.052638,0.018392,-0.995731
42069,NaN,28.782154,15.602249,-1.305785,-26.556991,-19.178371,-9.874077,-2.456176,6.014384,-3.151245,-0.763184,0.129395,-0.356201,0.289625,0.151221,-0.023628,0.999348,-0.012278,0.030065,-0.015753,0.056602,-0.023965,0.031972,-0.997597
42070,NaN,24.019876,-6.187441,-6.777112,-24.673157,4.419948,-15.525969,-2.121448,4.949887,-4.054552,-0.751709,0.097412,-0.389893,0.237105,-0.067458,-0.072970,0.999432,-0.010605,0.024745,-0.020269,0.035150,-0.001994,0.043093,-0.998451
42071,NaN,23.672914,-15.047111,-5.384082,-24.410186,14.196440,-14.090681,-1.137163,3.034484,-3.157503,-0.749023,0.078125,-0.404541,0.233467,-0.154491,-0.056529,0.999744,-0.005685,0.015171,-0.015786,0.018700,0.012166,0.049250,-0.998537
42072,NaN,31.198676,-10.359735,-4.821595,-31.299028,10.015021,-14.701139,0.413961,2.551895,-2.113983,-0.742432,0.061035,-0.434082,0.310218,-0.106777,-0.052401,0.999861,0.002070,0.012759,-0.010569,0.007370,0.022799,0.047306,-0.998593
42073,NaN,30.508061,-8.318510,-1.619759,-30.355335,8.461003,-12.853375,1.207724,5.220726,-2.255234,-0.727051,0.041748,-0.471924,0.303548,-0.086482,-0.024651,0.999578,0.006038,0.026100,-0.011275,-0.005279,0.048255,0.041699,-0.997950
42074,NaN,26.593979,-3.693671,0.341633,-26.336506,4.448678,-12.509483,2.034637,6.675746,-2.543910,-0.703125,0.016357,-0.524658,0.265349,-0.040287,-0.005847,0.999310,0.010171,0.033371,-0.012717,-0.019911,0.079118,0.031822,-0.996158
42075,NaN,23.943301,8.612001,2.134733,-24.321990,-7.292740,-12.486367,0.220618,3.949173,-2.641109,-0.687744,-0.002930,-0.543701,0.240902,0.082925,0.016693,0.999717,0.001103,0.019744,-0.013204,-0.033791,0.098213,0.031362,-0.994097
42076,NaN,30.583108,14.065249,6.923264,-32.322129,-11.647548,-10.483944,-2.377656,3.300740,-3.357619,-0.672852,-0.007080,-0.569092,0.309212,0.136250,0.062510,0.999652,-0.011887,0.016502,-0.016786,-0.049905,0.112506,0.044059,-0.991419
42077,NaN,36.828675,-5.870888,-0.653540,-34.824697,10.317680,-18.292424,-3.457497,2.983303,-2.186967,-0.662842,0.003662,-0.600830,0.367473,-0.062894,-0.010958,0.999680,-0.017286,0.014915,-0.010934,-0.059457,0.127527,0.061668,-0.988129
42078,NaN,33.600025,-10.217831,0.373434,-31.113434,14.885034,-16.430909,-2.842836,3.113974,-2.172211,-0.641602,-0.000488,-0.628418,0.334884,-0.105802,0.000001,0.999719,-0.014213,0.015568,-0.010860,-0.069473,0.140899,0.075909,-0.984662
42079,NaN,25.305019,-9.446602,3.219383,-23.678976,13.146341,-12.327016,-2.334123,4.786808,-2.348732,-0.612305,0.012451,-0.666748,0.252612,-0.097097,0.027267,0.999577,-0.011669,0.023931,-0.011742,-0.081190,0.164210,0.087362,-0.979189
42080,NaN,15.211762,-3.276242,9.177047,-16.847135,4.907935,-5.524046,-1.610683,4.301105,-2.641023,-0.588867,0.003906,-0.698486,0.153604,-0.034061,0.088748,0.999649,-0.008052,0.021503,-0.013204,-0.094836,0.182410,0.095532,-0.973964
42081,NaN,14.652734,2.120852,8.054543,-16.768628,0.105235,-8.125974,-2.147240,3.287306,-2.247330,-0.572021,0.008301,-0.723877,0.148055,0.020396,0.077898,0.999744,-0.010735,0.016435,-0.011236,-0.105377,0.198202,0.106461,-0.968647
42082,NaN,5.927572,-1.401284,4.504623,-6.943539,2.090266,-7.620427,-2.475906,3.310033,-2.056361,-0.553467,0.019043,-0.747314,0.059868,-0.014075,0.044233,0.999734,-0.012378,0.016549,-0.010281,-0.114860,0.212061,0.118597,-0.963209
42083,NaN,-2.654889,-2.473884,4.870547,0.581960,0.658459,-3.803138,-2.230988,2.316782,-2.376346,-0.541016,0.027832,-0.768555,-0.026267,-0.023878,0.049280,0.999800,-0.011154,0.011583,-0.011881,-0.125297,0.222934,0.130516,-0.957897
42084,NaN,-2.562826,0.575835,4.684861,-0.045949,-2.273671,-4.947096,-1.722209,0.733523,-2.445211,-0.539307,0.034180,-0.783447,-0.025380,0.006473,0.046888,0.999881,-0.008611,0.003667,-0.012226,-0.135835,0.223666,0.140873,-0.954818
42085,NaN,-4.099916,1.996012,3.006204,1.720709,-3.838611,-6.329389,-1.579286,0.245514,-1.874023,-0.543701,0.040771,-0.789795,-0.040771,0.020580,0.029951,0.999924,-0.007896,0.001228,-0.009370,-0.143183,0.224459,0.150344,-0.952110
42086,NaN,-5.181685,1.952228,2.805968,2.737882,-4.212331,-6.166664,-1.515178,-0.477411,-1.336981,-0.550293,0.047119,-0.793945,-0.051750,0.020080,0.027785,0.999946,-0.007576,-0.002387,-0.006685,-0.147785,0.220135,0.159193,-0.950977
42087,NaN,-3.438341,3.356379,2.123285,1.274528,-4.768770,-8.015753,-1.497339,-1.529648,-0.979426,-0.563232,0.053467,-0.793945,-0.034378,0.033889,0.020717,0.999931,-0.007487,-0.007648,-0.004897,-0.149569,0.213057,0.168524,-0.950703
42088,NaN,-2.858502,4.734875,0.428061,1.281713,-5.373576,-10.316649,-1.527780,-1.546448,-0.628794,-0.576416,0.066406,-0.798340,-0.028466,0.047468,0.003698,0.999936,-0.007639,-0.007732,-0.003144,-0.149937,0.204313,0.177353,-0.950958
42089,NaN,-7.128248,5.244747,-2.920793,6.418033,-6.367965,-12.072206,-2.162559,-0.811969,-0.112564,-0.587402,0.081543,-0.804688,-0.071132,0.052166,-0.030062,0.999933,-0.010813,-0.004060,-0.000563,-0.147534,0.201842,0.188362,-0.949744
42090,NaN,-11.343739,1.622973,-6.558293,12.497301,-3.400875,-12.376251,-2.757912,-0.541760,0.408620,-0.586182,0.111328,-0.802734,-0.113290,0.015089,-0.066103,0.999899,-0.013789,-0.002709,0.002043,-0.142623,0.199831,0.201132,-0.948300
42091,NaN,-15.874768,-2.220379,-11.981151,19.616643,0.488341,-13.739282,-2.739274,-0.822689,0.655514,-0.590820,0.128662,-0.802979,-0.158176,-0.024367,-0.120139,0.999892,-0.013696,-0.004113,0.003277,-0.135934,0.198402,0.214043,-0.946755
42092,NaN,-14.969168,-4.968328,-13.459311,19.859635,4.186755,-14.050158,-1.640899,-1.876411,1.067536,-0.610596,0.145752,-0.792480,-0.148151,-0.051586,-0.135570,0.999908,-0.008204,-0.009382,0.005338,-0.127552,0.190168,0.221753,-0.947835
42093,NaN,-6.245178,-2.004011,-11.903862,10.770621,4.234333,-16.938328,0.263323,-2.264309,1.518112,-0.623291,0.145752,-0.792480,-0.060945,-0.020349,-0.119761,0.999906,0.001317,-0.011321,0.007590,-0.118081,0.180814,0.220496,-0.951181
42094,NaN,-0.676149,2.405889,-10.616473,4.333208,1.621339,-19.689063,2.039422,-2.209066,1.667582,-0.642334,0.141357,-0.785889,-0.005797,0.025089,-0.105980,0.999852,0.010197,-0.011045,0.008338,-0.109794,0.169528,0.210414,-0.956521
42095,NaN,-1.230908,3.726452,-12.087997,4.933912,0.646924,-21.506469,2.778014,-2.771285,1.744834,-0.658691,0.124268,-0.777344,-0.010972,0.038841,-0.120506,0.999769,0.013889,-0.013855,0.008723,-0.100860,0.156424,0.197131,-0.962548
42096,NaN,-0.580053,-1.516880,-12.364085,4.730932,5.434347,-19.989692,2.718373,-3.039531,1.858831,-0.675537,0.119873,-0.758057,-0.003788,-0.013527,-0.123900,0.999749,0.013591,-0.015196,0.009293,-0.091217,0.140933,0.183979,-0.968488
42097,NaN,-0.115900,-7.059276,-9.466606,3.730042,9.530797,-15.702998,2.460024,-2.613226,1.722065,-0.689697,0.100586,-0.747314,0.000687,-0.069421,-0.095524,0.999802,0.012299,-0.013065,0.008610,-0.082190,0.128590,0.172015,-0.973201
42098,NaN,1.482378,-7.975582,-5.053259,0.800875,9.272875,-11.982517,1.778502,-2.690410,1.402913,-0.708496,0.096191,-0.728271,0.016065,-0.079194,-0.051028,0.999845,0.008892,-0.013451,0.007014,-0.074328,0.114760,0.163559,-0.977013
42099,NaN,7.887772,-4.863474,0.569128,-7.250835,5.761820,-9.166073,0.670597,-2.561541,0.985009,-0.721191,0.096191,-0.713379,0.079036,-0.048267,0.006541,0.999900,0.003353,-0.012807,0.004925,-0.067801,0.102667,0.160657,-0.979312
42100,NaN,13.540233,-1.596554,5.214454,-14.101371,2.068396,-6.660762,-0.962153,-2.877117,0.114125,-0.733887,0.096191,-0.698486,0.134642,-0.015631,0.054161,0.999885,-0.004811,-0.014385,0.000571,-0.064558,0.087817,0.166387,-0.980018
42101,NaN,23.968274,2.900712,10.305178,-25.633334,-2.383480,-4.681955,-2.963642,-1.834805,-0.505935,-0.744873,0.111084,-0.686035,0.238802,0.029947,0.104806,0.999845,-0.014817,-0.009174,-0.002530,-0.064201,0.079223,0.181698,-0.978053
42102,NaN,30.454205,-1.558851,8.397831,-31.133051,3.325741,-5.331825,-1.843713,-0.336370,-1.312769,-0.740234,0.098145,-0.687988,0.304292,-0.016808,0.084641,0.999935,-0.009218,-0.001682,-0.006564,-0.069752,0.075695,0.191424,-0.976095
42103,NaN,19.341455,-3.423995,15.308393,-21.338441,1.253626,2.960999,1.340912,3.336079,-2.521314,-0.711426,0.049072,-0.723633,0.195469,-0.037706,0.149590,0.999759,0.006704,0.016679,-0.012606,-0.085739,0.088949,0.184627,-0.975013
42104,NaN,-1.007307,-3.301369,13.198712,-1.222391,-1.163060,3.721131,8.616716,2.271951,-3.927522,-0.706543,-0.045166,-0.716553,-0.009304,-0.038472,0.130516,0.998815,0.043067,0.011355,-0.019630,-0.110839,0.091151,0.143244,-0.979228
42105,NaN,-3.133225,-9.661929,-3.876771,5.806563,9.156914,-10.556518,9.189180,0.520324,-1.835593,-0.708740,-0.109619,-0.699219,-0.032314,-0.094413,-0.043057,0.998899,0.045929,0.002601,-0.009175,-0.124264,0.087065,0.098667,-0.983485
42106,NaN,65.761120,-2.013672,14.020508,-65.006857,16.607524,-4.974367,2.195682,-1.143839,0.466813,-0.708496,-0.113770,-0.711914,0.656843,-0.020168,0.143742,0.999921,0.010978,-0.005719,0.002334,-0.122408,0.078944,0.088462,-0.985372
42107,NaN,31.427538,2.567349,-5.645425,-29.249349,6.560986,-21.087679,-1.483949,7.203584,0.316740,-0.658203,-0.098633,-0.752441,0.311926,0.025693,-0.067910,0.999323,-0.007418,0.036010,0.001583,-0.123377,0.115294,0.091188,-0.981412
42108,NaN,-16.933986,-7.157347,-9.940116,20.104750,3.721615,-14.137020,-0.909368,3.080129,-1.151136,-0.645264,-0.107178,-0.760742,-0.171250,-0.071034,-0.096450,0.999855,-0.004547,0.015400,-0.005755,-0.129978,0.128720,0.094579,-0.978566
42109,NaN,-7.630723,-2.026006,-11.104785,10.607389,1.420596,-18.245388,0.476124,-1.088889,-1.455941,-0.665527,-0.135254,-0.739258,-0.075844,-0.019442,-0.111509,0.999956,0.002381,-0.005444,-0.007280,-0.136898,0.122260,0.093901,-0.978516
42110,NaN,-13.526084,5.291114,-15.286795,14.953737,-6.718822,-23.070779,2.480383,-4.922055,-1.169194,-0.696533,-0.156738,-0.694580,-0.131136,0.055603,-0.155451,0.999603,0.012400,-0.024607,-0.005845,-0.141816,0.094400,0.086009,-0.981621
42111,NaN,1.121435,1.033525,-14.595278,1.261888,1.272925,-24.374688,3.752696,-5.714888,1.207412,-0.732178,-0.171875,-0.645752,0.015300,0.013151,-0.145325,0.999398,0.018760,-0.028569,0.006036,-0.135131,0.064028,0.071036,-0.986202
42112,NaN,15.939468,10.438416,-8.145594,-16.957296,-4.987204,-20.619867,3.518666,-4.870476,3.122436,-0.778564,-0.172119,-0.601318,0.159615,0.108241,-0.075688,0.999427,0.017590,-0.024348,0.015609,-0.119050,0.037384,0.056120,-0.990596
42113,NaN,19.888742,5.111148,-7.246309,-19.997727,0.010844,-18.421708,3.435126,-3.706329,4.279793,-0.800049,-0.159180,-0.565186,0.199002,0.056561,-0.067835,0.999452,0.017172,-0.018528,0.021395,-0.097409,0.018034,0.040492,-0.994257
42114,NaN,33.415539,-1.969157,-3.446059,-32.484065,7.959510,-13.488512,2.083406,-3.119571,4.239065,-0.824219,-0.129395,-0.540039,0.334953,-0.012273,-0.029393,0.999600,0.010416,-0.015596,0.021192,-0.075825,0.000958,0.031428,-0.996625
42115,NaN,38.524186,3.017853,9.860693,-38.617927,1.586920,0.008276,-0.304011,-0.544322,3.219100,-0.826904,-0.112305,-0.544434,0.384418,0.036521,0.099602,0.999866,-0.001520,-0.002721,0.016095,-0.059707,-0.001265,0.033131,-0.997665
42116,NaN,11.718924,10.864491,4.668926,-12.769278,-9.872030,-5.733759,-1.346400,-1.982523,2.342103,-0.850830,-0.086670,-0.508545,0.115438,0.110320,0.047100,0.999860,-0.006732,-0.009912,0.011710,-0.047668,-0.012005,0.040683,-0.997962
42117,NaN,17.006788,8.114144,-0.456286,-17.625885,-6.666749,-10.137421,-1.108658,-4.410122,2.618089,-0.876953,-0.063232,-0.476807,0.169039,0.083346,-0.001286,0.999656,-0.005543,-0.022048,0.013089,-0.033777,-0.033340,0.047406,-0.997748
42118,NaN,22.580480,6.444438,-0.230936,-22.832237,-5.318749,-8.498859,0.028504,-4.759694,2.937940,-0.898682,-0.039795,-0.432617,0.224795,0.067752,0.003058,0.999609,0.000143,-0.023795,0.014688,-0.017981,-0.058051,0.048693,-0.996963
42119,NaN,26.399402,5.247374,1.496541,-26.065939,-5.097043,-5.219317,0.795442,-4.227095,3.612437,-0.914307,-0.009766,-0.396729,0.262592,0.057151,0.020747,0.999606,0.003977,-0.021133,0.018060,0.001275,-0.078422,0.046130,-0.995852
42120,NaN,25.205024,5.439782,6.267039,-23.656081,-6.753217,0.127760,-0.288540,-2.848050,3.773298,-0.925781,0.026611,-0.373779,0.250038,0.059222,0.066158,0.999720,-0.001443,-0.014239,0.018865,0.020579,-0.093499,0.049154,-0.994192
42121,NaN,18.660506,-3.635115,9.329040,-16.546929,1.415286,3.324435,-0.510947,-2.832753,3.696682,-0.943604,0.058594,-0.338135,0.185884,-0.032668,0.096013,0.999726,-0.002555,-0.014162,0.018482,0.039389,-0.106831,0.053103,-0.992076
42122,NaN,16.452423,-6.928407,9.483715,-14.277182,4.192707,3.868109,0.255622,-3.214938,3.324599,-0.952881,0.088623,-0.310791,0.164095,-0.066677,0.097391,0.999732,0.001278,-0.016073,0.016622,0.056815,-0.123674,0.053123,-0.989270
42123,NaN,12.180186,-3.681958,5.650569,-10.580647,1.438273,-0.879265,1.027328,-3.187648,2.894126,-0.959717,0.112061,-0.283447,0.121401,-0.035357,0.058259,0.999755,0.005136,-0.015937,0.014469,0.072581,-0.138484,0.048894,-0.986491
42124,NaN,9.573944,-2.714175,0.746074,-9.203833,0.987697,-6.086075,1.791861,-3.190764,2.533827,-0.964355,0.124756,-0.245361,0.095941,-0.026002,0.008754,0.999752,0.008959,-0.015953,0.012668,0.087071,-0.154774,0.040874,-0.983256
42125,NaN,10.282905,-1.244355,-1.924652,-10.403986,-0.714652,-8.321300,2.271740,-2.914378,2.232485,-0.971191,0.146240,-0.226562,0.103225,-0.011084,-0.017875,0.999767,0.011358,-0.014571,0.011162,0.100362,-0.167753,0.030131,-0.980244
42126,NaN,8.676202,0.311073,-1.888142,-8.547363,-2.158544,-8.710275,1.502831,-1.993264,2.059734,-0.975586,0.156738,-0.207520,0.086905,0.004143,-0.017987,0.999869,0.007514,-0.009966,0.010298,0.112023,-0.178272,0.023754,-0.977295
42127,NaN,7.469132,2.864644,-0.498889,-6.329593,-4.548015,-7.943864,-0.157359,-1.057103,1.898341,-0.974121,0.178223,-0.197266,0.074440,0.029350,-0.004618,0.999941,-0.000787,-0.005285,0.009492,0.121259,-0.183424,0.025594,-0.975191
42128,NaN,5.920583,4.183803,0.746226,-4.079319,-5.555619,-7.444702,-1.031664,-0.370133,1.558309,-0.972412,0.193115,-0.193115,0.058864,0.042336,0.007354,0.999955,-0.005158,-0.001851,0.007791,0.127939,-0.187457,0.032071,-0.973377
42129,NaN,3.554775,5.138695,1.995142,-1.199511,-5.933853,-7.288169,-0.528937,0.075629,1.154391,-0.977051,0.203857,-0.190918,0.035258,0.051644,0.019802,0.999980,-0.002645,0.000378,0.005772,0.133028,-0.187373,0.035744,-0.972583
42130,NaN,1.622139,8.202747,2.963772,1.719634,-8.377299,-7.454020,0.795686,-0.075438,0.788403,-0.968506,0.208252,-0.188965,0.015887,0.081972,0.029970,0.999984,0.003978,-0.000377,0.003942,0.137577,-0.188824,0.032746,-0.971775
42131,NaN,0.679371,11.618164,4.223726,3.980012,-11.361796,-6.923121,1.425164,-0.062927,0.183756,-0.966309,0.203857,-0.188965,0.006674,0.115883,0.043066,0.999974,0.007126,-0.000315,0.000919,0.139804,-0.188250,0.025918,-0.971774
42132,NaN,0.339359,10.708284,5.399878,4.526158,-10.331402,-5.724255,1.200715,-0.256496,-0.548149,-0.972412,0.195312,-0.186768,0.003617,0.106746,0.054645,0.999977,0.006004,-0.001282,-0.002741,0.138231,-0.190394,0.019449,-0.971732
42133,NaN,1.776802,5.063006,6.139274,2.020489,-5.249183,-3.909727,0.508717,0.108883,-0.975443,-0.972412,0.190918,-0.186768,0.018048,0.050386,0.061511,0.999985,0.002544,0.000544,-0.004877,0.133943,-0.189742,0.016090,-0.972522
42134,NaN,-0.642463,1.484561,4.799110,2.733473,-1.179494,-5.715762,-0.227193,0.761833,-1.105058,-0.976074,0.171631,-0.188721,-0.006159,0.014935,0.047998,0.999977,-0.001136,0.003809,-0.005525,0.128187,-0.187860,0.016609,-0.973653
42135,NaN,-1.097591,-1.060276,3.933244,2.171914,1.352826,-6.458319,-0.244053,1.180362,-1.178891,-0.971436,0.161133,-0.201172,-0.010806,-0.010491,0.039409,0.999964,-0.001220,0.005902,-0.005894,0.122096,-0.182500,0.017414,-0.975440
42136,NaN,-0.895210,-2.903485,2.225025,0.947986,3.052471,-7.821187,-0.080368,1.533896,-1.227493,-0.969238,0.154785,-0.213867,-0.008959,-0.028971,0.022331,0.999952,-0.000402,0.007669,-0.006137,0.115798,-0.176671,0.017556,-0.977277
42137,NaN,-1.243359,-5.802264,0.663402,0.120987,5.935711,-9.176592,-0.075643,1.877469,-1.254155,-0.964600,0.137451,-0.226562,-0.012734,-0.057941,0.006775,0.999936,-0.000378,0.009387,-0.006271,0.109410,-0.167779,0.017873,-0.979571
42138,NaN,-0.001835,-4.668670,0.753608,-0.696512,4.559424,-8.768281,-0.248596,1.946662,-1.196049,-0.962158,0.126953,-0.243408,-0.000224,-0.046676,0.007596,0.999934,-0.001243,0.009733,-0.005980,0.103089,-0.159914,0.019121,-0.981547
42139,NaN,2.049105,-2.949160,1.167968,-2.110065,2.462255,-7.877400,-0.535595,2.244252,-1.234673,-0.959717,0.109863,-0.262207,0.020439,-0.029587,0.011529,0.999914,-0.002678,0.011221,-0.006173,0.096357,-0.149422,0.021889,-0.983824
42140,NaN,3.506721,-2.242807,0.761518,-3.474692,1.524808,-7.939748,-0.563936,2.731196,-1.421619,-0.950928,0.096924,-0.285400,0.035007,-0.022656,0.007201,0.999878,-0.002820,0.013655,-0.007108,0.088572,-0.137784,0.024907,-0.986180
42141,NaN,5.140600,-1.420662,-0.746906,-5.315205,0.533284,-9.132208,-0.381779,3.245885,-1.724100,-0.946289,0.080078,-0.317139,0.051151,-0.014664,-0.008273,0.999829,-0.001909,0.016228,-0.008620,0.079369,-0.122283,0.027009,-0.988948
42142,NaN,7.270482,0.914755,-3.276502,-7.628251,-1.882409,-11.452264,-0.637910,3.870805,-2.049769,-0.930908,0.058594,-0.344482,0.072140,0.008299,-0.034192,0.999755,-0.003189,0.019352,-0.010248,0.068244,-0.105010,0.030423,-0.991660
42143,NaN,13.546740,6.675280,-3.630021,-13.117257,-8.163989,-11.391471,-1.146695,4.196748,-2.275902,-0.917725,0.039551,-0.382324,0.135407,0.064991,-0.039518,0.999699,-0.005733,0.020982,-0.011378,0.055680,-0.085054,0.036314,-0.994156
42144,NaN,30.543967,14.842433,0.913591,-28.591123,-17.877267,-5.723180,-1.177434,4.651761,-2.878014,-0.897949,0.009521,-0.424561,0.307622,0.144030,0.001141,0.999609,-0.005886,0.023256,-0.014388,0.039924,-0.064144,0.042125,-0.996251
42145,NaN,41.565358,10.687861,-10.280013,-41.781445,-12.223850,-16.992090,-1.832197,5.977446,-4.350135,-0.874023,-0.016113,-0.464600,0.414495,0.096830,-0.116120,0.999275,-0.009159,0.029880,-0.021745,0.016366,-0.035759,0.051000,-0.997924
42146,NaN,29.471959,-8.859337,-8.827389,-29.953604,9.264860,-16.261867,-0.015767,5.299148,-3.762813,-0.845703,-0.045898,-0.504639,0.290508,-0.094093,-0.096002,0.999472,-0.000079,0.026491,-0.018811,-0.003901,-0.011883,0.050505,-0.998646
42147,NaN,18.531139,-17.063634,3.392854,-18.078962,17.075100,-4.559369,-0.045472,3.455570,-3.170079,-0.827881,-0.073730,-0.523438,0.183126,-0.173543,0.030791,0.999725,-0.000227,0.017276,-0.015849,-0.020621,0.004425,0.050452,-0.998504
42148,NaN,30.192369,-10.963963,0.296785,-29.550785,12.555744,-8.881998,0.289426,2.561389,-2.645423,-0.808350,-0.094971,-0.540283,0.300442,-0.113621,-0.001049,0.999829,0.001447,0.012806,-0.013226,-0.034567,0.014777,0.048610,-0.998110
42149,NaN,31.648278,-1.481090,1.745217,-31.469758,4.014027,-9.378323,0.781035,4.154992,-2.625640,-0.779785,-0.125000,-0.567627,0.316522,-0.019017,0.010807,0.999690,0.003905,0.020773,-0.013127,-0.048746,0.034582,0.044169,-0.997235
42150,NaN,25.952256,8.828613,6.483476,-27.225136,-6.231946,-6.163350,-0.464752,3.131004,-3.267561,-0.766602,-0.144287,-0.584473,0.261890,0.084164,0.060548,0.999741,-0.002324,0.015654,-0.016336,-0.065705,0.047673,0.046142,-0.995631
42151,NaN,29.788995,0.817518,5.075082,-29.989189,3.243624,-7.856495,-1.544028,2.553767,-3.061750,-0.747559,-0.148438,-0.603516,0.298588,0.003980,0.046899,0.999772,-0.007720,0.012768,-0.015308,-0.081172,0.060023,0.053709,-0.993440
42152,NaN,29.397802,-5.894880,6.990912,-28.695520,10.287256,-5.504138,-1.567969,1.467850,-2.018490,-0.728271,-0.150635,-0.616455,0.293872,-0.061376,0.068227,0.999891,-0.007840,0.007339,-0.010092,-0.091216,0.065372,0.061303,-0.991790
42153,NaN,31.946290,4.613883,5.516583,-32.719264,1.137974,-9.206709,-2.912621,2.316513,-1.396931,-0.711670,-0.141846,-0.637695,0.320384,0.044664,0.050801,0.999802,-0.014562,0.011582,-0.006984,-0.097901,0.077593,0.075139,-0.989317
42154,NaN,26.870765,1.562627,5.604503,-27.251286,3.475847,-8.788209,-2.846402,4.233436,-1.463765,-0.680176,-0.131104,-0.669434,0.269919,0.014395,0.050129,0.999648,-0.014230,0.021165,-0.007318,-0.105743,0.097176,0.087518,-0.985756
