// Start Time: Unknown
// Update Rate: 100.0Hz
// Filter Profile: human (46.1)
// Firmware Version: 4.4.0
PacketCounter,SampleTimeFine,Acc_X,Acc_Y,Acc_Z,FreeAcc_X,FreeAcc_Y,FreeAcc_Z,Gyr_X,Gyr_Y,Gyr_Z,Mag_X,Mag_Y,Mag_Z,VelInc_X,VelInc_Y,VelInc_Z,OriInc_q0,OriInc_q1,OriInc_q2,OriInc_q3,Quat_q0,Quat_q1,Quat_q2,Quat_q3
48592,NaN,6.979275,-6.449980,2.173638,-0.000000,0.000000,-0.063984,0.017620,-0.023480,-0.007482,-0.639160,0.360596,-0.511963,0.069788,-0.064504,0.021739,1.000000,0.000088,-0.000117,-0.000037,0.648050,-0.094444,-0.616104,0.437639
48593,NaN,6.987684,-6.441877,2.139952,-0.017339,0.034802,-0.070850,0.014588,-0.027831,-0.006598,-0.636963,0.356445,-0.513916,0.069872,-0.064423,0.021405,1.000000,0.000073,-0.000139,-0.000033,0.647205,-0.096443,-0.617201,0.436907
48594,NaN,7.018969,-6.451148,2.125178,-0.005036,0.054843,-0.045570,0.008116,-0.025935,-0.014910,-0.636963,0.354248,-0.511719,0.070182,-0.064518,0.021258,1.000000,0.000041,-0.000130,-0.000075,0.647161,-0.096314,-0.617274,0.436896
48595,NaN,7.048701,-6.501159,2.136582,0.002118,0.038038,0.011404,-0.007821,-0.024900,-0.014060,-0.639160,0.360596,-0.513916,0.070480,-0.065016,0.021377,1.000000,-0.000039,-0.000124,-0.000070,0.647113,-0.096237,-0.617378,0.436838
48596,NaN,7.123221,-6.547141,2.067612,0.071076,0.087473,0.080121,-0.020032,-0.023545,-0.016193,-0.630615,0.358398,-0.515869,0.071224,-0.065475,0.020691,1.000000,-0.000100,-0.000118,-0.000081,0.647066,-0.096200,-0.617506,0.436735
48597,NaN,7.137829,-6.572660,2.025204,0.115411,0.096794,0.098277,-0.036080,-0.018249,-0.020054,-0.635010,0.358398,-0.509766,0.071370,-0.065730,0.020270,1.000000,-0.000180,-0.000091,-0.000100,0.647036,-0.096215,-0.617655,0.436566
48598,NaN,7.167839,-6.622862,2.034941,0.122496,0.080057,0.155251,-0.034943,-0.011196,-0.023159,-0.639160,0.358398,-0.511963,0.071670,-0.066233,0.020365,1.000000,-0.000175,-0.000056,-0.000116,0.647035,-0.096232,-0.617778,0.436389
48599,NaN,7.146769,-6.604545,2.012636,0.134861,0.082977,0.123204,-0.039543,-0.004686,-0.020082,-0.632812,0.360596,-0.507812,0.071461,-0.066049,0.020141,1.000000,-0.000198,-0.000023,-0.000100,0.647042,-0.096287,-0.617895,0.436200
48600,NaN,7.149057,-6.583474,1.996329,0.137471,0.101365,0.107358,-0.043385,-0.000744,-0.021811,-0.639160,0.360596,-0.511963,0.071483,-0.065838,0.019978,1.000000,-0.000217,-0.000004,-0.000109,0.647066,-0.096358,-0.618003,0.435996
48601,NaN,7.136987,-6.517015,1.914328,0.179684,0.164022,0.036857,-0.052115,0.002276,-0.026225,-0.632812,0.360596,-0.513916,0.071362,-0.065175,0.019159,1.000000,-0.000261,0.000011,-0.000131,0.647098,-0.096450,-0.618135,0.435741
48602,NaN,7.145983,-6.508881,1.877896,0.204469,0.187087,0.030091,-0.057102,-0.000836,-0.024855,-0.635010,0.358398,-0.507812,0.071452,-0.065092,0.018798,1.000000,-0.000286,-0.000004,-0.000124,0.647122,-0.096556,-0.618274,0.435485
48603,NaN,7.156864,-6.459797,1.814101,0.233922,0.246464,-0.008343,-0.068576,-0.002047,-0.031795,-0.636963,0.356201,-0.507812,0.071558,-0.064603,0.018164,1.000000,-0.000343,-0.000010,-0.000159,0.647137,-0.096672,-0.618474,0.435153
48604,NaN,7.196336,-6.461521,1.762796,0.271008,0.289568,0.010177,-0.072026,-0.002252,-0.032221,-0.630615,0.358398,-0.507812,0.071953,-0.064620,0.017652,1.000000,-0.000360,-0.000011,-0.000161,0.647165,-0.096800,-0.618654,0.434827
48605,NaN,7.232162,-6.388501,1.690472,0.292765,0.382234,-0.027853,-0.080628,-0.010064,-0.042464,-0.639160,0.356445,-0.509766,0.072307,-0.063894,0.016934,1.000000,-0.000403,-0.000050,-0.000212,0.647161,-0.096899,-0.618935,0.434411
48606,NaN,7.275084,-6.327902,1.597507,0.337685,0.480509,-0.056854,-0.097279,-0.011581,-0.050044,-0.636963,0.358398,-0.509766,0.072734,-0.063289,0.016010,1.000000,-0.000486,-0.000058,-0.000250,0.647186,-0.097034,-0.619208,0.433954
48607,NaN,7.347013,-6.317666,1.516268,0.388075,0.560250,-0.028716,-0.113422,-0.014310,-0.061737,-0.636963,0.356445,-0.513916,0.073450,-0.063191,0.015204,1.000000,-0.000567,-0.000072,-0.000309,0.647179,-0.097155,-0.619623,0.433345
48608,NaN,7.383012,-6.283781,1.466869,0.405599,0.617069,-0.035102,-0.138501,-0.018419,-0.069736,-0.639160,0.358398,-0.511963,0.073807,-0.062853,0.014719,1.000000,-0.000693,-0.000092,-0.000349,0.647205,-0.097347,-0.620017,0.432699
48609,NaN,7.437852,-6.267916,1.252146,0.571422,0.738680,-0.050306,-0.158631,-0.026676,-0.088304,-0.641357,0.360596,-0.507812,0.074349,-0.062702,0.012581,1.000000,-0.000793,-0.000133,-0.000442,0.647173,-0.097482,-0.620638,0.431824
48610,NaN,7.466666,-6.219466,1.127813,0.648407,0.826287,-0.086351,-0.169048,-0.034560,-0.098802,-0.636963,0.358398,-0.505859,0.074634,-0.062222,0.011344,1.000000,-0.000845,-0.000173,-0.000494,0.647197,-0.097647,-0.621163,0.430996
48611,NaN,7.502974,-6.182215,0.983011,0.743699,0.913673,-0.112543,-0.173623,-0.038153,-0.122238,-0.641357,0.362793,-0.505859,0.074990,-0.061859,0.009898,0.999999,-0.000868,-0.000191,-0.000611,0.647158,-0.097670,-0.621957,0.429903
48612,NaN,7.481022,-6.102676,0.851838,0.820936,0.984350,-0.205864,-0.186497,-0.048627,-0.141414,-0.641357,0.360596,-0.505859,0.074765,-0.061072,0.008593,0.999999,-0.000932,-0.000243,-0.000707,0.647219,-0.097729,-0.622584,0.428889
48613,NaN,7.442904,-5.900649,0.726818,0.836496,1.107586,-0.388451,-0.190962,-0.054990,-0.162885,-0.639160,0.358398,-0.509766,0.074379,-0.059060,0.007345,0.999999,-0.000955,-0.000275,-0.000814,0.647152,-0.097608,-0.623606,0.427531
48614,NaN,7.455252,-5.773365,0.848752,0.664205,1.124057,-0.435684,-0.188694,-0.055852,-0.189553,-0.639160,0.360596,-0.503662,0.074495,-0.057796,0.008563,0.999999,-0.000943,-0.000279,-0.000948,0.647290,-0.097508,-0.624282,0.426356
48615,NaN,7.510375,-5.657741,0.814508,0.625436,1.214156,-0.473855,-0.154695,-0.048458,-0.230023,-0.641357,0.360596,-0.501709,0.075037,-0.056657,0.008207,0.999999,-0.000773,-0.000242,-0.001150,0.647358,-0.097024,-0.625353,0.424792
48616,NaN,7.535165,-5.558423,1.024301,0.391022,1.181388,-0.475915,-0.146691,-0.051360,-0.280231,-0.641357,0.358398,-0.503662,0.075271,-0.055682,0.010303,0.999999,-0.000733,-0.000257,-0.001401,0.647721,-0.096514,-0.625966,0.423450
48617,NaN,7.451829,-5.139868,1.000439,0.240429,1.354858,-0.809612,-0.101424,-0.023505,-0.341988,-0.641357,0.360596,-0.505859,0.074429,-0.051521,0.010039,0.999998,-0.000507,-0.000118,-0.001710,0.648107,-0.095480,-0.626996,0.421565
48618,NaN,7.416949,-4.774395,1.119963,-0.011292,1.480616,-1.045256,-0.149807,-0.034217,-0.382049,-0.649658,0.352051,-0.497559,0.074076,-0.047877,0.011248,0.999998,-0.000749,-0.000171,-0.001910,0.648732,-0.094696,-0.627604,0.419872
48619,NaN,7.365923,-4.319173,1.148239,-0.225273,1.673263,-1.364026,-0.239530,0.004132,-0.431874,-0.647705,0.356445,-0.503662,0.073566,-0.043337,0.011533,0.999997,-0.001198,0.000021,-0.002159,0.649334,-0.093748,-0.628954,0.417126
48620,NaN,7.343506,-4.339724,1.333354,-0.374154,1.534636,-1.324879,-0.340411,0.025320,-0.472738,-0.653809,0.352051,-0.503662,0.073334,-0.043548,0.013398,0.999996,-0.001702,0.000127,-0.002364,0.650237,-0.093419,-0.629801,0.414507
48621,NaN,7.376045,-4.611505,1.151785,-0.104765,1.395337,-1.150094,-0.391549,0.042135,-0.515479,-0.653809,0.354248,-0.497559,0.073644,-0.046282,0.011593,0.999995,-0.001958,0.000211,-0.002577,0.651078,-0.092572,-0.631453,0.410847
48622,NaN,7.516729,-4.710548,0.962000,0.093931,1.453290,-1.009572,-0.397017,0.068347,-0.575795,-0.653809,0.350098,-0.497559,0.075035,-0.047302,0.009688,0.999994,-0.001985,0.000342,-0.002879,0.652289,-0.092186,-0.632308,0.407684
48623,NaN,7.654283,-4.769243,0.781661,0.266650,1.501994,-0.889830,-0.364421,0.096326,-0.632139,-0.653564,0.345703,-0.493408,0.076395,-0.047920,0.007867,0.999993,-0.001822,0.000482,-0.003161,0.653598,-0.090875,-0.633788,0.403564
48624,NaN,7.634768,-4.828275,0.644187,0.436554,1.450152,-0.883910,-0.226417,0.125436,-0.702625,-0.655762,0.345703,-0.499512,0.076181,-0.048543,0.006449,0.999993,-0.001132,0.000627,-0.003513,0.655306,-0.089641,-0.634150,0.400491
48625,NaN,7.613603,-4.889281,0.548232,0.575089,1.350358,-0.867411,-0.049881,0.143026,-0.791131,-0.653320,0.335205,-0.501465,0.075946,-0.049192,0.005440,0.999992,-0.000249,0.000715,-0.003956,0.657214,-0.086839,-0.634922,0.396740
48626,NaN,7.654890,-4.546142,0.455228,0.553424,1.579634,-1.056550,0.026760,0.149327,-0.879978,-0.661865,0.337402,-0.501465,0.076351,-0.045798,0.004489,0.999990,0.000134,0.000747,-0.004400,0.659439,-0.084253,-0.634754,0.393865
48627,NaN,7.725947,-4.103437,0.471235,0.385757,1.823912,-1.252637,0.053214,0.157836,-0.952103,-0.663330,0.324463,-0.503174,0.077067,-0.041403,0.004640,0.999988,0.000266,0.000789,-0.004760,0.661646,-0.080526,-0.635438,0.389818
48628,NaN,8.059398,-4.076818,0.477851,0.380903,1.975224,-0.994784,0.051633,0.162518,-0.978836,-0.665283,0.316162,-0.507324,0.080397,-0.041163,0.004703,0.999988,0.000258,0.000813,-0.004894,0.664083,-0.077561,-0.635186,0.386674
48629,NaN,8.276760,-4.431584,0.370062,0.647572,1.799008,-0.613553,0.112538,0.189115,-1.015409,-0.671387,0.311768,-0.505127,0.082545,-0.044737,0.003597,0.999987,0.000563,0.000946,-0.005077,0.666448,-0.073277,-0.635728,0.382527
48630,NaN,8.482057,-4.610177,0.787545,0.385614,1.555592,-0.260214,0.122787,0.214960,-1.072252,-0.671387,0.305420,-0.504883,0.084580,-0.046560,0.007756,0.999985,0.000614,0.001075,-0.005361,0.669218,-0.069870,-0.635160,0.379259
48631,NaN,8.406970,-4.061015,0.680264,0.314560,1.816489,-0.634879,0.105137,0.236702,-1.137122,-0.677246,0.297119,-0.509033,0.083845,-0.041091,0.006682,0.999983,0.000526,0.001184,-0.005686,0.671907,-0.065153,-0.635703,0.374404
48632,NaN,8.261241,-4.069070,0.270777,0.770725,1.797011,-0.809669,0.288917,0.216121,-1.222283,-0.672852,0.290771,-0.514893,0.082364,-0.041198,0.002559,0.999980,0.001445,0.001081,-0.006111,0.674963,-0.060700,-0.634821,0.371138
48633,NaN,8.747962,-4.363354,0.898298,0.356819,1.485113,-0.115353,0.372882,0.251920,-1.273345,-0.670410,0.277832,-0.520996,0.087211,-0.044206,0.008791,0.999977,0.001864,0.001260,-0.006367,0.677872,-0.054512,-0.634957,0.366535
48634,NaN,8.639918,-4.182956,1.070950,0.220490,1.390193,-0.257084,0.357622,0.292938,-1.277818,-0.678467,0.265137,-0.524902,0.086145,-0.042399,0.010508,0.999977,0.001788,0.001465,-0.006389,0.681225,-0.049778,-0.633642,0.363251
48635,NaN,8.487539,-4.144146,0.791537,0.540137,1.307544,-0.440607,0.419102,0.244550,-1.328876,-0.679932,0.250488,-0.524658,0.084607,-0.042021,0.007724,0.999975,0.002095,0.001223,-0.006644,0.684069,-0.043287,-0.633580,0.358820
48636,NaN,8.614637,-3.925741,1.018251,0.322430,1.346774,-0.392448,0.381891,0.252347,-1.375247,-0.679688,0.239746,-0.530518,0.085886,-0.039868,0.009998,0.999974,0.001909,0.001262,-0.006876,0.687401,-0.038076,-0.632312,0.355262
48637,NaN,8.326029,-3.550254,1.020034,0.243724,1.332115,-0.805348,0.273839,0.220408,-1.403009,-0.683594,0.231201,-0.530273,0.083020,-0.036099,0.010060,0.999974,0.001369,0.001102,-0.007015,0.690186,-0.031726,-0.632424,0.350253
48638,NaN,8.220834,-3.353608,0.925011,0.321185,1.357448,-0.995815,0.117870,0.149620,-1.431412,-0.685303,0.218506,-0.532227,0.081972,-0.034129,0.009169,0.999974,0.000589,0.000748,-0.007157,0.693167,-0.027053,-0.631911,0.345653
48639,NaN,8.197172,-3.238753,1.084571,0.179242,1.223483,-1.018991,-0.163444,0.097490,-1.441901,-0.691406,0.214355,-0.530029,0.081741,-0.032969,0.010833,0.999974,-0.000817,0.000487,-0.007209,0.695486,-0.021816,-0.633163,0.339009
48640,NaN,8.156482,-2.919015,1.379300,-0.178802,1.221328,-1.127840,-0.567752,0.041289,-1.425009,-0.691162,0.208008,-0.527832,0.081357,-0.029731,0.013860,0.999971,-0.002839,0.000206,-0.007125,0.697951,-0.019348,-0.634118,0.332242
48641,NaN,8.128410,-2.632454,1.528274,-0.421443,1.225133,-1.230325,-1.031297,-0.033812,-1.391855,-0.697754,0.210205,-0.530029,0.081096,-0.026810,0.015434,0.999962,-0.005156,-0.000169,-0.006959,0.699675,-0.017054,-0.637220,0.322668
48642,NaN,8.235886,-2.611963,1.442924,-0.349136,1.218753,-1.145163,-1.445526,-0.113243,-1.346856,-0.701660,0.203857,-0.525879,0.082173,-0.026568,0.014667,0.999951,-0.007228,-0.000566,-0.006734,0.701331,-0.017636,-0.640030,0.313345
48643,NaN,8.371491,-2.996158,1.340141,-0.124563,0.853824,-0.862315,-1.744205,-0.146426,-1.300442,-0.706055,0.210205,-0.519775,0.083508,-0.030386,0.013726,0.999941,-0.008721,-0.000732,-0.006502,0.702217,-0.017530,-0.644681,0.301612
48644,NaN,8.581914,-3.623535,1.414293,0.022246,0.292562,-0.395042,-1.936952,-0.164862,-1.271667,-0.706299,0.212158,-0.513672,0.085575,-0.036640,0.014567,0.999933,-0.009685,-0.000824,-0.006358,0.703388,-0.019982,-0.648247,0.290898
48645,NaN,8.689486,-4.038946,1.538804,-0.001230,-0.219858,-0.110197,-2.026610,-0.172275,-1.250073,-0.706299,0.212158,-0.513672,0.086627,-0.040772,0.015875,0.999929,-0.010133,-0.000861,-0.006250,0.704031,-0.021254,-0.653119,0.278073
48646,NaN,8.767915,-4.261532,1.340373,0.200163,-0.431543,0.016129,-2.005251,-0.199277,-1.228464,-0.712646,0.214355,-0.507812,0.087402,-0.043015,0.013921,0.999930,-0.010026,-0.000996,-0.006142,0.704827,-0.024024,-0.656692,0.267203
48647,NaN,8.928717,-4.537828,1.309092,0.241703,-0.758832,0.256653,-1.882929,-0.203009,-1.198196,-0.717041,0.216553,-0.503662,0.089000,-0.045786,0.013611,0.999937,-0.009414,-0.001015,-0.005991,0.705057,-0.025130,-0.661040,0.255519
48648,NaN,9.014437,-4.847534,1.067905,0.498817,-1.049255,0.412157,-1.777145,-0.236166,-1.174057,-0.719238,0.218506,-0.495605,0.089845,-0.048905,0.011219,0.999943,-0.008886,-0.001181,-0.005870,0.705514,-0.027214,-0.664250,0.245522
48649,NaN,9.091786,-5.272638,0.618263,0.964022,-1.437061,0.572249,-1.635616,-0.320412,-1.128144,-0.723389,0.218506,-0.487305,0.090608,-0.053184,0.006762,0.999949,-0.008178,-0.001602,-0.005641,0.705095,-0.027634,-0.668511,0.234884
48650,NaN,9.308680,-5.827895,0.121945,1.517005,-1.852713,0.906204,-1.420970,-0.389291,-1.056425,-0.731934,0.220703,-0.489502,0.092774,-0.058758,0.001817,0.999959,-0.007105,-0.001946,-0.005282,0.704812,-0.028658,-0.671668,0.226455
48651,NaN,9.417754,-6.231327,-0.031308,1.669350,-2.309873,1.114348,-1.161727,-0.468263,-0.977064,-0.734131,0.225098,-0.477295,0.093871,-0.062772,0.000271,0.999968,-0.005809,-0.002341,-0.004885,0.703522,-0.027894,-0.675828,0.218026
48652,NaN,9.374830,-6.208428,-0.096534,1.639005,-2.417782,1.045827,-0.973988,-0.593794,-0.910752,-0.733887,0.218506,-0.473145,0.093466,-0.062513,-0.000384,0.999973,-0.004870,-0.002969,-0.004554,0.702356,-0.027599,-0.679085,0.211610
48653,NaN,9.347858,-5.357466,-0.166407,1.361080,-1.784436,0.726463,-1.134818,-0.767244,-0.826831,-0.746826,0.220703,-0.465088,0.093261,-0.053967,-0.001001,0.999968,-0.005674,-0.003836,-0.004134,0.699768,-0.027726,-0.684124,0.203789
48654,NaN,9.888223,-4.598517,0.307222,0.591870,-1.142068,1.020638,-1.376393,-0.766136,-0.745128,-0.749023,0.222900,-0.458984,0.098697,-0.046329,0.003769,0.999962,-0.006882,-0.003831,-0.003726,0.697692,-0.029218,-0.688281,0.196574
48655,NaN,10.324678,-5.641049,1.107313,-0.102312,-2.276371,1.782674,-1.157357,-0.644253,-0.622477,-0.757324,0.225098,-0.457031,0.103034,-0.056665,0.011733,0.999973,-0.005787,-0.003221,-0.003112,0.694969,-0.029965,-0.692956,0.189560
48656,NaN,10.284085,-7.762119,1.682280,-0.304952,-4.458360,2.388604,-0.841915,-0.571113,-0.409384,-0.759521,0.225098,-0.446777,0.102633,-0.077759,0.017443,0.999985,-0.004210,-0.002856,-0.002047,0.693244,-0.030939,-0.695785,0.185305
48657,NaN,9.921761,-8.664297,2.091528,-0.641782,-5.568772,2.289445,-0.707945,-0.533159,-0.222704,-0.759521,0.225098,-0.444580,0.099064,-0.086678,0.021486,0.999990,-0.003540,-0.002666,-0.001114,0.690401,-0.031533,-0.699526,0.181702
48658,NaN,9.307830,-7.686454,2.021256,-0.849214,-4.852891,1.391341,-0.616486,-0.517784,-0.066303,-0.757812,0.235596,-0.428467,0.093000,-0.076832,0.020690,0.999992,-0.003082,-0.002589,-0.000332,0.688551,-0.032969,-0.701873,0.179400
48659,NaN,8.664763,-6.197732,1.934344,-1.147451,-3.636401,0.320967,-0.639026,-0.552604,0.116834,-0.760010,0.237793,-0.426514,0.086630,-0.061864,0.019781,0.999991,-0.003195,-0.002763,0.000584,0.685793,-0.035821,-0.704943,0.177371
48660,NaN,8.109269,-5.140199,2.074765,-1.553442,-2.826313,-0.534520,-0.979593,-0.559491,0.297323,-0.768799,0.246338,-0.428711,0.081110,-0.051178,0.021226,0.999983,-0.004898,-0.002797,0.001487,0.683374,-0.039744,-0.707659,0.175038
48661,NaN,7.355306,-4.567080,1.724094,-1.390160,-2.407700,-1.434112,-1.341843,-0.588536,0.414988,-0.766846,0.252686,-0.418701,0.073596,-0.045400,0.017763,0.999971,-0.006709,-0.002943,0.002075,0.680092,-0.046005,-0.711209,0.171873
48662,NaN,6.836682,-4.396935,1.159256,-0.943360,-2.268732,-1.978228,-1.566233,-0.651853,0.459123,-0.769531,0.267334,-0.404541,0.068428,-0.043719,0.012159,0.999961,-0.007831,-0.003259,0.002296,0.676997,-0.052416,-0.714632,0.168012
48663,NaN,6.518343,-4.443344,0.547608,-0.439219,-2.265204,-2.249185,-1.623123,-0.720437,0.483531,-0.773926,0.278076,-0.396484,0.065269,-0.044228,0.006071,0.999958,-0.008116,-0.003602,0.002418,0.673242,-0.059842,-0.718420,0.164431
48664,NaN,6.354616,-4.678149,0.048130,-0.025507,-2.436250,-2.307275,-1.516247,-0.789719,0.499217,-0.776611,0.290771,-0.392822,0.063659,-0.046616,0.001086,0.999960,-0.007581,-0.003949,0.002496,0.669519,-0.066104,-0.722140,0.160899
48665,NaN,6.221481,-4.824243,-0.416938,0.337328,-2.513913,-2.348158,-1.296141,-0.859095,0.495553,-0.778809,0.297119,-0.378418,0.062350,-0.048113,-0.003590,0.999967,-0.006481,-0.004295,0.002478,0.665307,-0.072309,-0.725868,0.158916
48666,NaN,6.044079,-4.631726,-0.757628,0.558641,-2.327489,-2.544434,-1.000388,-0.935353,0.467051,-0.774902,0.305664,-0.372559,0.060583,-0.046212,-0.007062,0.999974,-0.005002,-0.004677,0.002335,0.661167,-0.076604,-0.729579,0.157177
48667,NaN,5.941251,-4.117366,-0.946601,0.607274,-1.819417,-2.779379,-0.708064,-1.006903,0.400940,-0.781250,0.307617,-0.366455,0.059541,-0.041087,-0.009021,0.999979,-0.003540,-0.005034,0.002005,0.656731,-0.080516,-0.733119,0.157345
48668,NaN,5.820642,-3.470924,-0.953683,0.485141,-1.239528,-3.099689,-0.446748,-1.075605,0.318265,-0.785889,0.313965,-0.352295,0.058311,-0.034637,-0.009146,0.999982,-0.002234,-0.005378,0.001591,0.652351,-0.082320,-0.736854,0.157186
48669,NaN,5.805064,-2.899911,-0.987754,0.393936,-0.677915,-3.295888,-0.230070,-1.142087,0.222542,-0.790283,0.320312,-0.342285,0.058138,-0.028946,-0.009512,0.999982,-0.001150,-0.005710,0.001113,0.647678,-0.083881,-0.740481,0.158635
48670,NaN,5.862821,-2.518226,-0.905217,0.199216,-0.307553,-3.378495,-0.057613,-1.182785,0.130568,-0.794434,0.318359,-0.335938,0.058697,-0.025146,-0.008698,0.999982,-0.000288,-0.005914,0.000653,0.643165,-0.083629,-0.744282,0.159342
48671,NaN,5.906230,-2.261506,-0.769043,-0.035101,-0.053508,-3.442061,0.050008,-1.205044,0.053495,-0.802979,0.320312,-0.330078,0.059113,-0.022597,-0.007340,0.999982,0.000250,-0.006025,0.000267,0.638457,-0.083545,-0.747923,0.161258
48672,NaN,5.943568,-2.242262,-0.647477,-0.232882,-0.043996,-3.431748,0.102507,-1.219292,-0.007062,-0.804688,0.312012,-0.315430,0.059473,-0.022422,-0.006124,0.999981,0.000513,-0.006096,-0.000035,0.633939,-0.082225,-0.751714,0.162129
48673,NaN,5.945027,-2.284898,-0.686818,-0.261812,-0.070711,-3.412541,0.134452,-1.230746,-0.073116,-0.809082,0.316162,-0.313477,0.059483,-0.022866,-0.006518,0.999981,0.000672,-0.006154,-0.000366,0.629258,-0.081281,-0.755361,0.163883
48674,NaN,6.050565,-2.425834,-0.767628,-0.261259,-0.168306,-3.256297,0.152412,-1.230757,-0.128539,-0.811279,0.316162,-0.299316,0.060536,-0.024292,-0.007322,0.999981,0.000762,-0.006154,-0.000643,0.624770,-0.079325,-0.759139,0.164554
48675,NaN,6.168463,-2.622342,-0.918817,-0.191507,-0.290991,-3.056279,0.169090,-1.219749,-0.180394,-0.813232,0.311768,-0.295166,0.061716,-0.026272,-0.008834,0.999981,0.000845,-0.006099,-0.000902,0.620223,-0.077787,-0.762697,0.166029
48676,NaN,6.480762,-3.329600,-0.935162,-0.248144,-0.864958,-2.522217,0.320551,-1.162708,-0.211229,-0.819580,0.309814,-0.292969,0.064826,-0.033350,-0.009028,0.999981,0.001603,-0.005814,-0.001056,0.616083,-0.075039,-0.766098,0.167049
48677,NaN,7.174368,-4.752058,0.001804,-1.238262,-2.126655,-1.566631,0.595495,-1.051667,-0.206778,-0.823730,0.307617,-0.282715,0.071694,-0.047595,0.000253,0.999981,0.002977,-0.005258,-0.001034,0.612347,-0.072171,-0.768723,0.169965
48678,NaN,7.891575,-6.097264,0.705367,-1.987166,-3.299808,-0.586991,0.844642,-0.928826,-0.192123,-0.825684,0.303467,-0.280762,0.078824,-0.061078,0.007162,0.999980,0.004223,-0.004644,-0.000961,0.609238,-0.068074,-0.770896,0.172958
48679,NaN,8.654391,-6.524876,0.944306,-2.361208,-3.507923,0.211447,1.069338,-0.797544,-0.209926,-0.825439,0.294922,-0.276367,0.086438,-0.065390,0.009439,0.999977,0.005347,-0.003988,-0.001050,0.606700,-0.063987,-0.772169,0.177697
48680,NaN,9.264926,-6.437785,0.949719,-2.512713,-3.267506,0.732237,1.267231,-0.635338,-0.208804,-0.831543,0.292725,-0.274414,0.092552,-0.064534,0.009383,0.999974,0.006336,-0.003177,-0.001044,0.604828,-0.058790,-0.773011,0.182158
48681,NaN,9.500869,-6.331295,1.095213,-2.679555,-3.125352,0.892601,1.409803,-0.471104,-0.180609,-0.833496,0.282227,-0.280273,0.094926,-0.063475,0.010729,0.999972,0.007049,-0.002355,-0.000903,0.603710,-0.054108,-0.772752,0.188309
48682,NaN,9.741610,-5.612858,1.504624,-3.186246,-2.504627,0.781719,1.351942,-0.329941,-0.141032,-0.833496,0.284424,-0.288574,0.097352,-0.056298,0.014827,0.999976,0.006760,-0.001650,-0.000705,0.602924,-0.049190,-0.772488,0.193195
48683,NaN,10.043068,-4.465023,1.906511,-3.773510,-1.445199,0.584728,1.123697,-0.148919,-0.098506,-0.833252,0.278076,-0.282227,0.100395,-0.044806,0.018888,0.999984,0.005618,-0.000745,-0.000493,0.603009,-0.046000,-0.771284,0.198457
48684,NaN,10.278649,-4.107885,1.966936,-3.913943,-1.072748,0.671791,0.787166,0.069782,-0.007417,-0.831055,0.273682,-0.288330,0.102792,-0.041160,0.019472,0.999992,0.003936,0.000349,-0.000037,0.603467,-0.043687,-0.770282,0.201456
48685,NaN,9.837263,-4.174506,1.126327,-2.935363,-1.018418,0.473866,0.388307,0.238253,0.110642,-0.828857,0.273682,-0.296631,0.098409,-0.041712,0.011065,0.999997,0.001942,0.001191,0.000553,0.604840,-0.043833,-0.768420,0.204398
48686,NaN,9.119521,-4.119428,0.302905,-1.947956,-0.956015,-0.039331,-0.003191,0.299465,0.199234,-0.826904,0.275879,-0.294434,0.091241,-0.041103,0.002893,0.999998,-0.000016,0.001497,0.000996,0.605790,-0.044934,-0.767466,0.204926
48687,NaN,8.550034,-3.914161,-0.329081,-1.207512,-0.733261,-0.510203,-0.359185,0.316503,0.271196,-0.822754,0.278076,-0.300781,0.085548,-0.039032,-0.003356,0.999996,-0.001796,0.001583,0.001356,0.607210,-0.047994,-0.766024,0.205427
48688,NaN,8.263927,-3.737708,-0.987706,-0.537739,-0.471662,-0.717257,-0.602168,0.301599,0.313082,-0.818604,0.284424,-0.302734,0.082683,-0.037277,-0.009889,0.999993,-0.003011,0.001508,0.001565,0.607899,-0.051351,-0.765640,0.204001
48689,NaN,8.201179,-3.560831,-1.329592,-0.216153,-0.201711,-0.778351,-0.693252,0.282544,0.334937,-0.818848,0.290771,-0.300781,0.082053,-0.035517,-0.013289,0.999992,-0.003466,0.001413,0.001675,0.609008,-0.055603,-0.764629,0.203371
48690,NaN,8.139933,-3.157795,-1.375021,-0.227818,0.175524,-0.978769,-0.683323,0.281674,0.338617,-0.816895,0.294922,-0.301025,0.081433,-0.031487,-0.013757,0.999992,-0.003417,0.001408,0.001693,0.609550,-0.059285,-0.764360,0.201713
48691,NaN,8.078349,-2.961424,-1.387256,-0.219129,0.377480,-1.108453,-0.638280,0.296132,0.344281,-0.810791,0.301270,-0.301025,0.080814,-0.029519,-0.013898,0.999992,-0.003191,0.001481,0.001721,0.610650,-0.063378,-0.763278,0.201238
48692,NaN,8.281315,-3.124144,-1.670286,0.027719,0.384973,-0.813727,-0.607662,0.313918,0.356204,-0.811035,0.309814,-0.299072,0.082842,-0.031145,-0.016738,0.999993,-0.003038,0.001570,0.001781,0.611297,-0.066928,-0.762806,0.199910
48693,NaN,8.603453,-3.356586,-1.715044,0.042947,0.337821,-0.425919,-0.555275,0.340111,0.357541,-0.808838,0.305420,-0.307129,0.086065,-0.033460,-0.017204,0.999993,-0.002776,0.001701,0.001788,0.612513,-0.070812,-0.761538,0.199684
48694,NaN,8.672253,-3.700810,-1.597587,-0.032379,0.049981,-0.249601,-0.471389,0.362261,0.380152,-0.802734,0.311768,-0.309326,0.086764,-0.036881,-0.016046,0.999994,-0.002357,0.001811,0.001901,0.613346,-0.074084,-0.760753,0.198928
48695,NaN,8.583305,-4.072317,-1.459189,-0.073513,-0.297858,-0.205821,-0.374421,0.384978,0.413110,-0.802979,0.320312,-0.309570,0.085889,-0.040573,-0.014681,0.999994,-0.001872,0.001925,0.002066,0.614681,-0.077633,-0.759180,0.199464
48696,NaN,8.441223,-4.446463,-1.353877,-0.081842,-0.670866,-0.200127,-0.246783,0.410031,0.485665,-0.796387,0.316162,-0.315430,0.084492,-0.044276,-0.013657,0.999994,-0.001234,0.002050,0.002428,0.615658,-0.080663,-0.757966,0.199864
48697,NaN,8.484135,-5.135961,-0.986326,-0.330530,-1.284026,0.065226,-0.091334,0.466313,0.579996,-0.794678,0.324707,-0.319824,0.084967,-0.051118,-0.010038,0.999993,-0.000457,0.002332,0.002900,0.617187,-0.084037,-0.755810,0.201914
48698,NaN,8.542908,-5.817075,-0.274505,-0.923480,-1.951349,0.298386,-0.020856,0.552786,0.709523,-0.786377,0.331055,-0.323975,0.085627,-0.057868,-0.002975,0.999990,-0.000104,0.002764,0.003548,0.618549,-0.087360,-0.753812,0.203794
48699,NaN,8.189567,-5.605184,-0.461443,-0.651290,-1.757643,-0.056364,-0.097587,0.609574,0.816306,-0.784424,0.337402,-0.328125,0.082109,-0.055719,-0.004837,0.999987,-0.000488,0.003048,0.004082,0.620324,-0.091801,-0.751086,0.206497
48700,NaN,7.610357,-4.644830,-0.997840,-0.095672,-0.937879,-0.890896,-0.162592,0.622408,0.820474,-0.773926,0.341553,-0.338379,0.076262,-0.046144,-0.010178,0.999986,-0.000813,0.003112,0.004102,0.621735,-0.096048,-0.748929,0.208147
48701,NaN,7.664158,-4.092104,-0.702393,-0.421021,-0.386126,-1.114924,-0.156623,0.630133,0.829661,-0.768066,0.350098,-0.338379,0.076788,-0.040608,-0.007234,0.999986,-0.000783,0.003151,0.004148,0.623475,-0.100745,-0.746161,0.210650
48702,NaN,8.132333,-4.650951,-0.320172,-0.795930,-0.680548,-0.497575,-0.116499,0.643590,0.877654,-0.765869,0.352051,-0.342529,0.081516,-0.046154,-0.003437,0.999985,-0.000582,0.003218,0.004388,0.624888,-0.105079,-0.743817,0.212628
48703,NaN,8.847055,-5.895561,0.503008,-1.555297,-1.516597,0.606564,0.035443,0.683981,0.956922,-0.759766,0.360596,-0.353027,0.088768,-0.058532,0.004716,0.999983,0.000177,0.003420,0.004785,0.626734,-0.109679,-0.740572,0.216168
48704,NaN,9.310539,-6.496739,1.080038,-2.097851,-1.829496,1.246720,0.107997,0.708632,1.050982,-0.747314,0.366943,-0.359131,0.093482,-0.064483,0.010435,0.999980,0.000540,0.003543,0.005255,0.628272,-0.114016,-0.737635,0.219473
48705,NaN,9.088633,-5.983094,0.267863,-1.260944,-1.178504,0.934030,0.146190,0.640013,1.122800,-0.741211,0.373291,-0.361328,0.091228,-0.059321,0.002344,0.999979,0.000731,0.003200,0.005614,0.629806,-0.118822,-0.734210,0.223969
48706,NaN,8.892707,-5.112282,-0.140179,-0.883770,-0.303879,0.403006,0.217539,0.495015,1.205239,-0.735107,0.379639,-0.369629,0.089229,-0.050584,-0.001678,0.999978,0.001088,0.002475,0.006026,0.630393,-0.123133,-0.731667,0.228268
48707,NaN,9.066895,-4.368135,-0.274404,-0.830303,0.594786,0.203294,0.104526,0.290581,1.262308,-0.731201,0.385986,-0.371582,0.090938,-0.043106,-0.002899,0.999979,0.000523,0.001453,0.006311,0.630399,-0.128150,-0.729233,0.233224
48708,NaN,10.099953,-3.753357,-0.354154,-0.997263,1.764095,0.775710,-0.085271,0.133459,1.229779,-0.720947,0.398682,-0.369873,0.101225,-0.036913,-0.003593,0.999981,-0.000426,0.000667,0.006149,0.629388,-0.133076,-0.728102,0.236703
48709,NaN,10.641428,-4.161987,-0.678718,-0.732448,1.890698,1.452743,0.028726,-0.008528,1.226301,-0.714844,0.407227,-0.369873,0.106667,-0.040965,-0.006789,0.999981,0.000144,-0.000043,0.006131,0.628254,-0.137763,-0.726681,0.241358
48710,NaN,11.302648,-5.249473,-1.675523,0.210189,1.627035,2.654094,0.167569,-0.210671,1.254337,-0.708496,0.409424,-0.372070,0.113370,-0.051770,-0.016680,0.999979,0.000838,-0.001053,0.006272,0.626080,-0.141557,-0.726253,0.246052
48711,NaN,11.744957,-7.108739,-1.814759,0.439182,0.510949,4.018960,0.695151,-0.390883,1.307671,-0.706543,0.413574,-0.365967,0.117946,-0.070254,-0.018163,0.999971,0.003476,-0.001954,0.006538,0.623859,-0.143890,-0.725135,0.253524
48712,NaN,11.819684,-8.591595,-1.921230,0.663672,-0.449102,4.903458,1.175211,-0.634003,1.402254,-0.704834,0.422119,-0.370117,0.118856,-0.084971,-0.019337,0.999953,0.005876,-0.003170,0.007011,0.620602,-0.144519,-0.724572,0.262608
48713,NaN,11.984191,-8.538702,-2.322933,1.007597,0.026658,5.050174,1.547682,-0.917924,1.485477,-0.704834,0.424072,-0.368164,0.120578,-0.084313,-0.023332,0.999932,0.007738,-0.004590,0.007427,0.616692,-0.144104,-0.723770,0.274010
48714,NaN,12.264992,-7.318789,-3.165173,1.553118,1.622037,4.642849,1.718657,-1.193065,1.606431,-0.696533,0.426270,-0.376221,0.123419,-0.071927,-0.031539,0.999913,0.008593,-0.005965,0.008032,0.611361,-0.142992,-0.723866,0.286023
48715,NaN,12.428954,-5.907276,-4.459206,2.453026,3.452846,4.018790,1.692723,-1.538216,1.718185,-0.700928,0.430420,-0.368164,0.125129,-0.057625,-0.044124,0.999898,0.008463,-0.007691,0.008591,0.604720,-0.142008,-0.724418,0.298941
48716,NaN,12.572812,-5.034323,-4.224578,1.859372,4.446962,3.529836,1.631781,-1.839955,1.788148,-0.696777,0.436768,-0.360107,0.126553,-0.048874,-0.041487,0.999884,0.008159,-0.009199,0.008940,0.596473,-0.140806,-0.726182,0.311534
48717,NaN,12.344929,-4.453186,-3.449803,0.839805,4.810693,2.847096,1.388609,-2.027673,1.830311,-0.696777,0.438965,-0.354004,0.124192,-0.043162,-0.033544,0.999883,0.006943,-0.010138,0.009151,0.587349,-0.140233,-0.728392,0.323728
48718,NaN,10.742588,-3.879644,-2.515972,0.037624,4.228712,1.091154,1.178089,-2.038809,1.782884,-0.701416,0.447510,-0.348145,0.108016,-0.037691,-0.024285,0.999891,0.005890,-0.010194,0.008914,0.577802,-0.139973,-0.731136,0.334652
48719,NaN,8.833904,-3.899097,-2.028229,-0.061170,3.090233,-0.442703,1.049022,-1.900725,1.682851,-0.695312,0.458008,-0.335938,0.088851,-0.038141,-0.019641,0.999906,0.005245,-0.009503,0.008414,0.568907,-0.139896,-0.733413,0.344788
48720,NaN,7.395727,-6.297803,-1.776559,0.454833,0.560528,0.035711,1.053279,-1.610307,1.622983,-0.695557,0.462158,-0.338135,0.074606,-0.062282,-0.017496,0.999921,0.005266,-0.008051,0.008115,0.560897,-0.140086,-0.734978,0.354370
48721,NaN,5.987806,-8.699504,-2.235846,1.715347,-1.651584,0.716345,0.974299,-1.319866,1.605191,-0.689453,0.468506,-0.333984,0.060721,-0.086401,-0.022381,0.999934,0.004871,-0.006599,0.008026,0.554032,-0.140862,-0.735613,0.363429
48722,NaN,4.685720,-9.237762,-2.942094,2.856100,-2.366017,0.296190,0.868730,-1.044251,1.545624,-0.685547,0.477051,-0.330078,0.047723,-0.091883,-0.029573,0.999947,0.004344,-0.005221,0.007728,0.547966,-0.142257,-0.735792,0.371625
48723,NaN,4.077292,-9.434040,-3.340726,3.431595,-2.535181,0.116049,0.749644,-0.826033,1.489313,-0.679443,0.485596,-0.330322,0.041612,-0.093907,-0.033589,0.999957,0.003748,-0.004130,0.007446,0.542760,-0.144169,-0.735438,0.379155
48724,NaN,4.627082,-9.590120,-3.374020,3.242677,-2.109570,0.665682,0.621272,-0.631051,1.442102,-0.679688,0.491943,-0.330322,0.047067,-0.095459,-0.033890,0.999964,0.003106,-0.003155,0.007210,0.538135,-0.146607,-0.734900,0.385797
48725,NaN,5.616332,-9.409011,-3.292009,2.706608,-1.225374,1.236296,0.507063,-0.420029,1.439521,-0.671387,0.500488,-0.332520,0.056907,-0.093599,-0.033039,0.999969,0.002535,-0.002100,0.007198,0.534141,-0.149831,-0.733884,0.391993
48726,NaN,6.226374,-9.241055,-3.126564,2.241231,-0.625126,1.524142,0.535833,-0.209577,1.427305,-0.667236,0.502441,-0.328369,0.062954,-0.091879,-0.031447,0.999970,0.002679,-0.001048,0.007136,0.530961,-0.153244,-0.732296,0.397919
48727,NaN,6.406981,-9.323953,-3.055723,2.088432,-0.408551,1.710841,0.604846,-0.013461,1.442863,-0.656982,0.510986,-0.338867,0.064742,-0.092681,-0.030834,0.999969,0.003024,-0.000067,0.007214,0.528386,-0.157049,-0.729949,0.404127
48728,NaN,6.739252,-9.284173,-2.802133,1.708635,-0.087562,1.872143,0.709031,0.188137,1.427683,-0.650879,0.517334,-0.344971,0.068026,-0.092257,-0.028413,0.999968,0.003545,0.000941,0.007138,0.526728,-0.160784,-0.726868,0.410329
48729,NaN,7.017389,-8.895003,-2.216017,1.006014,0.281230,1.684323,0.882283,0.421898,1.368373,-0.640381,0.521484,-0.357178,0.070732,-0.088368,-0.022700,0.999965,0.004411,0.002109,0.006842,0.525996,-0.164476,-0.722801,0.416934
48730,NaN,7.160722,-8.390896,-1.282907,0.056164,0.470232,1.282416,1.028493,0.691568,1.308783,-0.629883,0.523682,-0.365479,0.072108,-0.083370,-0.013507,0.999959,0.005142,0.003458,0.006544,0.526591,-0.167959,-0.717726,0.423510
48731,NaN,7.022239,-7.749624,-0.623247,-0.544712,0.656190,0.628879,1.098432,0.971100,1.226399,-0.615234,0.525635,-0.379639,0.070663,-0.077027,-0.006999,0.999954,0.005492,0.004855,0.006132,0.528227,-0.171693,-0.711774,0.429971
48732,NaN,6.620006,-7.223816,-0.044760,-0.934394,0.601334,-0.077581,1.011097,1.208361,1.155852,-0.604736,0.532227,-0.394043,0.066610,-0.071849,-0.001213,0.999952,0.005055,0.006042,0.005779,0.530884,-0.175748,-0.705376,0.435567
48733,NaN,6.009332,-6.985275,0.352362,-1.030482,0.293570,-0.654099,0.835597,1.360311,1.078084,-0.600586,0.536377,-0.406494,0.060490,-0.069540,0.002822,0.999954,0.004178,0.006801,0.005390,0.533925,-0.180436,-0.698954,0.440262
48734,NaN,5.625799,-7.602506,0.461016,-0.769978,-0.219337,-0.377809,0.762905,1.427911,0.965467,-0.583740,0.534180,-0.416504,0.056654,-0.075768,0.003917,0.999956,0.003814,0.007139,0.004827,0.537453,-0.184931,-0.692553,0.444201
48735,NaN,5.613258,-8.747652,0.594056,-0.545275,-0.747539,0.556699,0.756436,1.460779,0.917349,-0.575195,0.534180,-0.430908,0.056573,-0.087238,0.005198,0.999956,0.003782,0.007304,0.004587,0.541059,-0.189442,-0.686041,0.448012
48736,NaN,5.485971,-9.540568,0.282794,0.059991,-0.978229,1.152475,0.828254,1.476335,0.887467,-0.558594,0.542725,-0.438965,0.055299,-0.095170,0.002026,0.999954,0.004141,0.007382,0.004437,0.544893,-0.193566,-0.679313,0.451838
48737,NaN,5.272455,-9.477092,-0.314334,0.777153,-0.708696,0.985619,1.042004,1.469683,0.830395,-0.552002,0.538330,-0.461426,0.053090,-0.094532,-0.004026,0.999951,0.005210,0.007348,0.004152,0.548903,-0.196994,-0.672075,0.456306
48738,NaN,5.120824,-9.199303,-0.295559,0.876801,-0.540183,0.669355,1.245629,1.474832,0.807291,-0.534912,0.534180,-0.473633,0.051552,-0.091763,-0.003907,0.999945,0.006228,0.007374,0.004036,0.553212,-0.199664,-0.664346,0.461233
48739,NaN,4.818719,-9.027624,-0.454945,1.216330,-0.474294,0.346892,1.335857,1.477230,0.784588,-0.528564,0.531982,-0.489990,0.048502,-0.090052,-0.005509,0.999943,0.006679,0.007386,0.003923,0.557507,-0.202123,-0.656321,0.466449
48740,NaN,4.641758,-8.995985,-0.394992,1.354277,-0.477158,0.215490,1.408019,1.468141,0.731687,-0.513672,0.527832,-0.508057,0.046712,-0.089757,-0.004924,0.999942,0.007040,0.007341,0.003658,0.562006,-0.204034,-0.648160,0.471602
48741,NaN,4.784431,-9.210160,-0.215681,1.359306,-0.386924,0.471427,1.456438,1.475531,0.696935,-0.503174,0.527832,-0.524414,0.048144,-0.091914,-0.003181,0.999940,0.007282,0.007378,0.003485,0.566470,-0.205840,-0.639810,0.476850
48742,NaN,4.879109,-9.235079,0.092423,1.222024,-0.294032,0.556352,1.504052,1.502452,0.668762,-0.492188,0.515137,-0.544678,0.049101,-0.092189,-0.000138,0.999938,0.007520,0.007512,0.003344,0.571191,-0.207311,-0.631233,0.481983
48743,NaN,5.229675,-9.130273,1.093496,0.351643,-0.181437,0.758300,1.576630,1.573904,0.640638,-0.472656,0.506592,-0.554688,0.052669,-0.091215,0.009802,0.999933,0.007883,0.007869,0.003203,0.576066,-0.208801,-0.622229,0.487218
48744,NaN,5.661972,-8.997619,2.178436,-0.610363,-0.005779,1.021654,1.484901,1.671550,0.675683,-0.464111,0.504395,-0.577148,0.057099,-0.089940,0.020641,0.999932,0.007424,0.008358,0.003378,0.581127,-0.210706,-0.613042,0.492010
48745,NaN,5.746555,-8.728915,2.373877,-0.718854,0.277862,0.876254,1.305803,1.767482,0.674109,-0.447266,0.502197,-0.587158,0.057963,-0.087245,0.022658,0.999934,0.006529,0.008837,0.003370,0.586090,-0.213496,-0.603936,0.496164
48746,NaN,5.857953,-9.084427,2.529151,-0.600763,0.334014,1.267110,1.124606,1.860700,0.641376,-0.427734,0.489502,-0.605225,0.059099,-0.090794,0.024233,0.999936,0.005623,0.009303,0.003207,0.591276,-0.216762,-0.594963,0.499426
48747,NaN,6.135376,-9.623071,2.548192,-0.328901,0.513414,1.864773,0.972063,1.964825,0.584262,-0.408691,0.493652,-0.613525,0.061878,-0.096171,0.024408,0.999936,0.004860,0.009824,0.002921,0.596565,-0.220682,-0.586041,0.501961
48748,NaN,6.191536,-9.367995,2.153502,0.106453,0.948392,1.581044,0.804109,2.070285,0.477993,-0.398193,0.491455,-0.631836,0.062355,-0.093615,0.020515,0.999935,0.004020,0.010351,0.002390,0.602276,-0.224888,-0.577275,0.503431
48749,NaN,5.741740,-8.511571,1.517959,0.629678,1.222202,0.474463,0.616028,2.164385,0.308976,-0.381104,0.487305,-0.641846,0.057707,-0.085072,0.014294,0.999936,0.003080,0.010822,0.001545,0.608300,-0.229503,-0.568817,0.503733
48750,NaN,5.058732,-8.634116,1.136573,1.269321,0.783236,0.147433,0.403895,2.190071,0.169077,-0.364258,0.489258,-0.647949,0.050779,-0.086320,0.010636,0.999938,0.002019,0.010950,0.000845,0.614524,-0.234279,-0.560901,0.502856
48751,NaN,4.519489,-9.765413,1.560373,1.473149,-0.169320,0.958729,0.371186,2.150539,0.031269,-0.344971,0.487061,-0.662109,0.045373,-0.097675,0.014935,0.999940,0.001856,0.010752,0.000156,0.620774,-0.238756,-0.553314,0.501477
48752,NaN,4.360197,-10.783866,2.496895,1.122630,-0.876902,1.998585,0.589859,2.099858,-0.135930,-0.336182,0.474365,-0.670166,0.043785,-0.107940,0.024192,0.999940,0.002949,0.010499,-0.000680,0.627586,-0.241821,-0.545438,0.500156
48753,NaN,4.407186,-10.549606,3.433900,0.330178,-0.905628,2.085909,0.951221,2.075472,-0.301642,-0.319092,0.468018,-0.684082,0.044262,-0.105723,0.033378,0.999934,0.004756,0.010377,-0.001508,0.634993,-0.243344,-0.536914,0.499290
48754,NaN,4.463508,-9.599796,4.532403,-0.832370,-0.676077,1.653212,1.331320,2.128326,-0.450365,-0.306152,0.459473,-0.698242,0.044893,-0.096396,0.044206,0.999919,0.006656,0.010641,-0.002252,0.643394,-0.243223,-0.527329,0.498810
48755,NaN,4.535957,-8.411982,5.546221,-1.984299,-0.297671,1.053063,1.614541,2.258232,-0.568716,-0.295166,0.446777,-0.716553,0.045737,-0.084691,0.054265,0.999900,0.008072,0.011291,-0.002843,0.652556,-0.242297,-0.516701,0.498480
48756,NaN,4.319665,-7.424490,6.009768,-2.534485,-0.126058,0.358526,1.722004,2.440299,-0.675027,-0.277588,0.431885,-0.730469,0.043668,-0.074902,0.058924,0.999883,0.008610,0.012201,-0.003375,0.662547,-0.241009,-0.505196,0.497718
48757,NaN,3.552247,-6.495532,5.437713,-2.157291,-0.273595,-0.888238,1.487462,2.551446,-0.723651,-0.262451,0.423340,-0.740479,0.035972,-0.065485,0.053434,0.999884,0.007437,0.012757,-0.003618,0.672434,-0.240705,-0.493842,0.495998
48758,NaN,2.918849,-6.247126,5.435841,-2.080091,-0.675520,-1.309256,1.193368,2.544779,-0.748619,-0.242920,0.408447,-0.754395,0.029639,-0.062903,0.053609,0.999894,0.005967,0.012723,-0.003743,0.681933,-0.241150,-0.483167,0.493320
48759,NaN,2.582352,-6.563971,5.736284,-2.062517,-1.078810,-1.024119,0.969148,2.454310,-0.808936,-0.228027,0.402100,-0.766602,0.026256,-0.066021,0.056723,0.999905,0.004846,0.012271,-0.004045,0.690912,-0.242030,-0.473285,0.489963
48760,NaN,2.446573,-6.940795,5.698845,-1.725715,-1.290655,-0.757773,0.810280,2.292443,-0.881762,-0.212891,0.397705,-0.772461,0.024808,-0.069746,0.056423,0.999916,0.004051,0.011462,-0.004409,0.699414,-0.242760,-0.464399,0.486026
48761,NaN,2.620110,-7.620717,6.302321,-1.789256,-1.435308,0.157060,0.893387,2.130480,-0.975904,-0.199951,0.386963,-0.782471,0.026495,-0.076616,0.062400,0.999921,0.004467,0.010652,-0.004879,0.707728,-0.242630,-0.455832,0.482150
48762,NaN,3.040027,-8.020148,7.050720,-2.036884,-1.268537,1.027776,1.191003,2.014387,-1.046904,-0.186768,0.372070,-0.788330,0.030683,-0.080778,0.069719,0.999918,0.005955,0.010072,-0.005234,0.716223,-0.240885,-0.447056,0.478685
48763,NaN,3.063213,-7.913766,7.462054,-2.226413,-1.219571,1.198415,1.469620,1.945327,-1.055750,-0.171631,0.361572,-0.802246,0.030932,-0.079844,0.073736,0.999912,0.007348,0.009726,-0.005279,0.724784,-0.237998,-0.437670,0.475910
48764,NaN,2.951900,-7.318641,7.898405,-2.672949,-1.084305,0.973210,1.609215,1.904691,-1.058729,-0.158203,0.340332,-0.812256,0.029875,-0.073975,0.078108,0.999908,0.008046,0.009523,-0.005293,0.733314,-0.234380,-0.428149,0.473293
48765,NaN,2.813296,-6.317452,7.815843,-2.890319,-0.748873,0.186966,1.587095,1.857248,-1.089822,-0.145264,0.333740,-0.816162,0.028507,-0.063945,0.077389,0.999911,0.007935,0.009286,-0.005449,0.741658,-0.230693,-0.418641,0.470599
48766,NaN,2.684970,-5.950306,7.002525,-2.226670,-0.649536,-0.524623,1.195479,1.708167,-1.077287,-0.140381,0.316895,-0.823975,0.027122,-0.060065,0.069436,0.999931,0.005977,0.008541,-0.005386,0.749090,-0.228028,-0.410698,0.467113
48767,NaN,2.966805,-6.114568,6.093586,-1.187031,-0.434908,-0.772635,0.562918,1.483531,-1.093957,-0.129883,0.321045,-0.834229,0.029782,-0.061479,0.060542,0.999954,0.002815,0.007418,-0.005470,0.755312,-0.227203,-0.404833,0.462594
48768,NaN,3.321798,-6.518856,5.665874,-0.458290,-0.312799,-0.575603,0.112781,1.210398,-1.126223,-0.127930,0.321045,-0.825928,0.033192,-0.065407,0.056421,0.999966,0.000564,0.006052,-0.005631,0.760463,-0.227308,-0.401257,0.457187
48769,NaN,3.868270,-6.980940,5.586479,0.038415,-0.082325,-0.071166,-0.081504,0.940337,-1.158693,-0.117188,0.321045,-0.830078,0.038540,-0.070010,0.055712,0.999972,-0.000408,0.004702,-0.005793,0.764901,-0.227511,-0.398945,0.451673
48770,NaN,4.212226,-7.493586,5.456563,0.533040,-0.083942,0.354868,-0.084493,0.717950,-1.157965,-0.119141,0.316650,-0.830078,0.041883,-0.075156,0.054447,0.999977,-0.000422,0.003590,-0.005790,0.768828,-0.227159,-0.397688,0.446259
48771,NaN,4.552191,-8.034418,5.393273,0.990559,-0.126367,0.834560,0.078846,0.544013,-1.134835,-0.119141,0.316650,-0.832031,0.045211,-0.080623,0.053778,0.999980,0.000394,0.002720,-0.005674,0.772529,-0.225888,-0.396488,0.441556
48772,NaN,4.659166,-8.292634,5.253889,1.310807,-0.251578,0.971398,0.372312,0.414728,-1.061684,-0.123291,0.310303,-0.832031,0.046259,-0.083270,0.052288,0.999982,0.001862,0.002074,-0.005308,0.776096,-0.223275,-0.395245,0.437727
48773,NaN,4.689803,-8.151510,5.340953,1.250418,-0.243000,0.927107,0.729077,0.294255,-0.966095,-0.118896,0.306152,-0.840088,0.046581,-0.081934,0.053043,0.999981,0.003645,0.001471,-0.004830,0.779593,-0.219268,-0.393391,0.435202
48774,NaN,4.737778,-7.574432,5.540895,0.905695,0.002646,0.660996,1.046304,0.197199,-0.876507,-0.122559,0.289307,-0.843750,0.047099,-0.076239,0.054964,0.999976,0.005231,0.000986,-0.004383,0.783011,-0.213908,-0.391287,0.433627
48775,NaN,4.855952,-6.778527,5.637816,0.569049,0.431088,0.227340,1.249679,0.109552,-0.796657,-0.118408,0.289307,-0.847900,0.048319,-0.068328,0.055926,0.999972,0.006248,0.000548,-0.003983,0.786261,-0.207788,-0.388826,0.432933
48776,NaN,4.861372,-6.224329,5.553515,0.458997,0.640662,-0.190111,1.288821,0.029220,-0.703112,-0.119873,0.272217,-0.851807,0.048402,-0.062770,0.055125,0.999973,0.006444,0.000146,-0.003516,0.789153,-0.201431,-0.386631,0.432644
48777,NaN,4.804134,-6.002766,5.497026,0.469531,0.629885,-0.394000,1.241688,-0.068866,-0.583957,-0.127930,0.261719,-0.859863,0.047846,-0.060507,0.054612,0.999976,0.006208,-0.000344,-0.002920,0.791509,-0.195343,-0.384650,0.432896
48778,NaN,4.905135,-5.696299,5.358581,0.533512,0.805181,-0.631806,1.176974,-0.177641,-0.501178,-0.129639,0.250977,-0.859619,0.048860,-0.057400,0.053292,0.999979,0.005885,-0.000888,-0.002506,0.793380,-0.189351,-0.383277,0.433352
48779,NaN,5.086583,-5.642637,5.286353,0.700258,0.914785,-0.629548,1.200499,-0.230116,-0.411782,-0.135742,0.240479,-0.863525,0.050688,-0.056847,0.052582,0.999979,0.006002,-0.001151,-0.002059,0.794946,-0.183382,-0.381844,0.434312
48780,NaN,5.253356,-5.802810,5.273943,0.931404,0.893769,-0.462951,1.239155,-0.264065,-0.303352,-0.135254,0.225586,-0.861084,0.052376,-0.058433,0.052447,0.999979,0.006196,-0.001320,-0.001517,0.796215,-0.177318,-0.380463,0.435716
48781,NaN,5.313242,-5.760154,5.210774,1.056609,0.905989,-0.505489,1.307194,-0.287927,-0.226927,-0.141113,0.215088,-0.867188,0.052992,-0.058001,0.051806,0.999977,0.006536,-0.001440,-0.001135,0.797296,-0.171127,-0.378852,0.437614
48782,NaN,5.306770,-5.509974,5.257793,0.960401,0.974705,-0.631584,1.403040,-0.289688,-0.160430,-0.140869,0.204346,-0.871094,0.052947,-0.055510,0.052266,0.999974,0.007015,-0.001448,-0.000802,0.798272,-0.164610,-0.377054,0.439881
48783,NaN,5.236349,-5.155783,5.399375,0.712366,1.047193,-0.782196,1.416959,-0.279693,-0.086044,-0.148926,0.193848,-0.873047,0.052266,-0.051961,0.053700,0.999974,0.007085,-0.001398,-0.000430,0.799071,-0.158240,-0.375038,0.442483
48784,NaN,5.122623,-4.770124,5.593463,0.384643,1.100804,-0.928895,1.316049,-0.255039,-0.001279,-0.148682,0.183350,-0.878906,0.051155,-0.048069,0.055684,0.999978,0.006580,-0.001275,-0.000006,0.799614,-0.152431,-0.373128,0.445150
48785,NaN,4.942943,-4.439607,5.638084,0.165082,1.091282,-1.169065,1.139296,-0.225110,0.085450,-0.147949,0.166260,-0.882812,0.049385,-0.044695,0.056182,0.999983,0.005696,-0.001126,0.000427,0.799850,-0.147587,-0.371364,0.447824
48786,NaN,4.754140,-4.375240,5.651928,0.110240,0.939120,-1.280717,0.930538,-0.201075,0.166316,-0.154297,0.164062,-0.884766,0.047521,-0.043975,0.056363,0.999988,0.004653,-0.001005,0.000832,0.799776,-0.143740,-0.369947,0.450373
48787,NaN,4.523865,-4.231403,5.626411,0.008171,0.813200,-1.484113,0.719059,-0.177468,0.259139,-0.147705,0.157715,-0.880615,0.045244,-0.042457,0.056152,0.999992,0.003595,-0.000887,0.001296,0.799370,-0.140984,-0.368803,0.452897
48788,NaN,4.358644,-4.341936,5.677308,0.017378,0.603442,-1.462986,0.563406,-0.151300,0.355172,-0.151855,0.157715,-0.884521,0.043621,-0.043502,0.056684,0.999994,0.002817,-0.000756,0.001776,0.798673,-0.139062,-0.367869,0.455472
48789,NaN,4.269774,-4.740265,5.775358,0.192794,0.305223,-1.214696,0.487188,-0.125418,0.438210,-0.153809,0.147217,-0.892578,0.042765,-0.047450,0.057665,0.999994,0.002436,-0.000627,0.002191,0.797776,-0.137667,-0.366915,0.458230
48790,NaN,4.270157,-5.117740,5.804826,0.434937,0.109688,-0.985444,0.511041,-0.086548,0.502411,-0.153564,0.145020,-0.892578,0.042805,-0.051218,0.057936,0.999993,0.002555,-0.000433,0.002512,0.796807,-0.136369,-0.365732,0.461240
48791,NaN,4.259559,-5.650243,5.864728,0.761706,-0.173629,-0.655526,0.630433,-0.059971,0.559690,-0.155518,0.140869,-0.890381,0.042736,-0.056567,0.058482,0.999991,0.003152,-0.000300,0.002798,0.795824,-0.134771,-0.364100,0.464684
48792,NaN,4.276114,-6.000705,5.879279,1.031450,-0.327587,-0.448500,0.844160,-0.044000,0.569679,-0.147217,0.140869,-0.896484,0.042919,-0.060132,0.058549,0.999987,0.004221,-0.000220,0.002848,0.794973,-0.132364,-0.361916,0.468524
48793,NaN,4.500080,-6.016651,6.304659,0.883467,-0.184680,-0.046199,1.089145,0.007899,0.553257,-0.150879,0.125977,-0.896240,0.045170,-0.060384,0.062716,0.999981,0.005446,0.000039,0.002766,0.794386,-0.129091,-0.358940,0.472703
48794,NaN,4.744284,-5.887669,7.003193,0.481601,0.007572,0.482198,1.251566,0.068434,0.557639,-0.150635,0.115479,-0.900146,0.047631,-0.059181,0.069646,0.999976,0.006258,0.000342,0.002788,0.793974,-0.125298,-0.355332,0.477122
48795,NaN,4.921874,-5.723426,7.838247,-0.040086,0.138647,1.068429,1.226494,0.136872,0.581656,-0.145996,0.104736,-0.902100,0.049439,-0.057570,0.077996,0.999977,0.006132,0.000684,0.002908,0.793564,-0.121830,-0.351478,0.481535
48796,NaN,5.087491,-5.653971,8.454085,-0.349966,0.245358,1.551200,1.042592,0.196160,0.615971,-0.143799,0.100586,-0.902100,0.051132,-0.056822,0.084195,0.999981,0.005213,0.000981,0.003080,0.793040,-0.119265,-0.347799,0.485695
48797,NaN,5.124264,-5.689300,8.639017,-0.346010,0.264010,1.722853,0.859455,0.242619,0.635918,-0.145264,0.083496,-0.909912,0.051529,-0.057100,0.086083,0.999985,0.004297,0.001213,0.003180,0.792405,-0.117590,-0.344352,0.489580
48798,NaN,5.080717,-5.647426,8.345771,-0.116762,0.333802,1.467090,0.685245,0.266926,0.639720,-0.136963,0.087646,-0.909912,0.051099,-0.056596,0.083196,0.999988,0.003426,0.001335,0.003199,0.791685,-0.116647,-0.341228,0.493145
48799,NaN,4.879594,-5.564282,7.857580,0.148782,0.324877,0.975505,0.550258,0.276051,0.653916,-0.136719,0.081299,-0.911865,0.049086,-0.055698,0.078355,0.999990,0.002751,0.001380,0.003270,0.790846,-0.116297,-0.338380,0.496525
48800,NaN,4.622070,-5.639292,7.446025,0.449172,0.181118,0.597570,0.544331,0.250018,0.687791,-0.136719,0.081299,-0.909912,0.046508,-0.056436,0.074249,0.999990,0.002722,0.001250,0.003439,0.789863,-0.115946,-0.335628,0.500028
48801,NaN,4.333995,-5.529089,7.072490,0.583230,0.090071,0.138483,0.615077,0.204570,0.693987,-0.134277,0.074951,-0.919922,0.043604,-0.055357,0.070510,0.999989,0.003075,0.001023,0.003470,0.788807,-0.115224,-0.332868,0.503693
48802,NaN,4.149015,-5.422949,6.823362,0.673032,0.058945,-0.183352,0.767327,0.161801,0.670708,-0.134033,0.068604,-0.919922,0.041727,-0.054351,0.067992,0.999987,0.003837,0.000809,0.003354,0.787811,-0.113738,-0.329898,0.507528
48803,NaN,4.160682,-5.553168,6.986751,0.735607,0.019345,0.006761,0.953702,0.128670,0.668982,-0.127686,0.062256,-0.915527,0.041838,-0.055724,0.069575,0.999983,0.004768,0.000643,0.003345,0.786840,-0.111446,-0.326585,0.511669
48804,NaN,4.060621,-5.493016,6.991706,0.746751,-0.012675,-0.066547,1.141125,0.106078,0.668708,-0.127197,0.051514,-0.917480,0.040827,-0.055192,0.069581,0.999978,0.005706,0.000530,0.003344,0.785913,-0.108335,-0.322860,0.516106
48805,NaN,3.919386,-5.059804,7.131986,0.399164,0.054435,-0.238492,1.297439,0.099601,0.644695,-0.128906,0.038818,-0.923340,0.039393,-0.050932,0.070971,0.999974,0.006487,0.000498,0.003223,0.785075,-0.104573,-0.318772,0.520679
48806,NaN,3.710858,-4.430246,7.122742,-0.019936,0.159789,-0.641851,1.320850,0.081620,0.626446,-0.128418,0.026123,-0.923096,0.037277,-0.044655,0.070918,0.999973,0.006604,0.000408,0.003132,0.784236,-0.100615,-0.314668,0.525200
48807,NaN,3.663159,-4.089561,7.348318,-0.331169,0.233875,-0.648849,1.243664,0.076910,0.628593,-0.130127,0.013428,-0.929199,0.036789,-0.041236,0.073213,0.999976,0.006218,0.000385,0.003143,0.783295,-0.096967,-0.310788,0.529582
48808,NaN,3.638465,-4.114817,7.506241,-0.321429,0.182770,-0.518795,1.168958,0.066706,0.633920,-0.129883,0.002930,-0.930908,0.036541,-0.041470,0.074808,0.999978,0.005845,0.000334,0.003170,0.782261,-0.093567,-0.307109,0.533850
48809,NaN,3.675236,-4.194219,7.765929,-0.317083,0.147702,-0.258341,1.083373,0.071789,0.641266,-0.127441,-0.003662,-0.930908,0.036915,-0.042244,0.077418,0.999980,0.005417,0.000359,0.003206,0.781135,-0.090539,-0.303639,0.537990
48810,NaN,3.717365,-4.329025,7.925913,-0.210175,0.117481,-0.049451,1.048297,0.097268,0.665587,-0.129150,-0.014160,-0.932617,0.037357,-0.043581,0.079013,0.999981,0.005241,0.000486,0.003328,0.779944,-0.087733,-0.300124,0.542140
48811,NaN,3.678750,-4.238829,7.962289,-0.229899,0.131568,-0.074711,1.026258,0.117472,0.660849,-0.126953,-0.018555,-0.930664,0.036975,-0.042674,0.079383,0.999981,0.005131,0.000587,0.003304,0.778750,-0.085070,-0.296595,0.546207
48812,NaN,3.625568,-4.264756,8.177626,-0.257943,0.054394,0.093690,1.032597,0.148339,0.669653,-0.120117,-0.031250,-0.930420,0.036460,-0.042947,0.081528,0.999981,0.005163,0.000742,0.003348,0.777557,-0.082464,-0.292899,0.550286
48813,NaN,3.581551,-4.441683,8.103447,-0.001960,-0.012778,0.097970,0.984655,0.150307,0.680707,-0.126465,-0.033203,-0.938477,0.036028,-0.044693,0.080788,0.999982,0.004923,0.000752,0.003404,0.776283,-0.080073,-0.289323,0.554314
48814,NaN,3.616461,-4.638058,8.174300,0.207033,-0.038028,0.255314,0.940268,0.163491,0.698710,-0.128174,-0.041748,-0.928223,0.036394,-0.046637,0.081494,0.999983,0.004701,0.000817,0.003494,0.774938,-0.077904,-0.285790,0.558325
48815,NaN,3.763650,-4.903080,8.448438,0.386539,-0.017696,0.648241,0.863918,0.188866,0.743621,-0.123779,-0.048096,-0.936279,0.037899,-0.049254,0.084236,0.999983,0.004320,0.000944,0.003718,0.773442,-0.076173,-0.282357,0.562370
48816,NaN,3.887844,-5.238874,8.842520,0.554138,-0.053607,1.161862,0.738062,0.238161,0.804854,-0.125732,-0.052490,-0.932129,0.039195,-0.052557,0.088185,0.999984,0.003690,0.001191,0.004024,0.771775,-0.075142,-0.279042,0.566438
48817,NaN,3.754787,-5.417699,8.592160,0.862805,-0.125942,0.981488,0.588039,0.266687,0.868678,-0.123291,-0.062988,-0.936035,0.037898,-0.054265,0.085712,0.999985,0.002940,0.001333,0.004343,0.769882,-0.074871,-0.276026,0.570514
48818,NaN,3.551634,-5.280253,8.227804,0.940133,-0.124184,0.545503,0.520188,0.306514,0.905215,-0.114746,-0.065186,-0.933838,0.035881,-0.052854,0.082086,0.999985,0.002601,0.001533,0.004526,0.767897,-0.075009,-0.273012,0.574606
48819,NaN,3.184939,-4.842514,7.988021,0.660583,-0.200003,0.032381,0.449339,0.313948,0.952939,-0.114746,-0.065186,-0.939941,0.032205,-0.048451,0.079721,0.999985,0.002247,0.001570,0.004765,0.765726,-0.075525,-0.270171,0.578763
48820,NaN,2.741758,-4.362556,7.544998,0.422787,-0.301379,-0.690948,0.334814,0.300439,1.010206,-0.116943,-0.067383,-0.937744,0.027751,-0.043612,0.075335,0.999985,0.001674,0.001502,0.005051,0.763314,-0.076494,-0.267659,0.582974
48821,NaN,2.289691,-4.083668,7.196915,0.296968,-0.502506,-1.246851,0.272143,0.271591,1.052406,-0.112549,-0.067383,-0.937744,0.023209,-0.040813,0.071882,0.999984,0.001361,0.001358,0.005262,0.760682,-0.077700,-0.265442,0.587253
48822,NaN,1.994898,-4.118666,7.489707,0.147760,-0.782930,-1.071772,0.270389,0.212826,1.095537,-0.112549,-0.067383,-0.941895,0.020254,-0.041177,0.074820,0.999984,0.001352,0.001064,0.005478,0.757830,-0.078767,-0.263402,0.591700
48823,NaN,1.709931,-4.250782,7.276908,0.333370,-0.988027,-1.276952,0.237661,0.109893,1.157386,-0.116943,-0.067383,-0.939941,0.017385,-0.042494,0.072709,0.999982,0.001188,0.000549,0.005787,0.754609,-0.079768,-0.261837,0.596358
48824,NaN,1.394823,-4.142263,6.705888,0.485960,-1.093008,-1.898031,0.275379,-0.000622,1.162878,-0.118896,-0.067383,-0.944092,0.014189,-0.041433,0.067002,0.999982,0.001377,-0.000003,0.005814,0.751228,-0.080266,-0.260543,0.601109
48825,NaN,1.242011,-3.895329,6.600117,0.319621,-1.109838,-2.135208,0.365069,-0.115016,1.153021,-0.120850,-0.071533,-0.947998,0.012607,-0.039001,0.065937,0.999982,0.001825,-0.000575,0.005765,0.747720,-0.080114,-0.259421,0.605968
48826,NaN,1.169210,-3.899221,6.932377,0.173612,-1.213217,-1.867457,0.411319,-0.230078,1.156574,-0.123047,-0.073730,-0.943848,0.011838,-0.039067,0.069257,0.999981,0.002057,-0.001150,0.005783,0.744058,-0.079396,-0.258560,0.610918
