// Start Time: Unknown
// Update Rate: 100.0Hz
// Filter Profile: human (46.1)
// Firmware Version: 4.4.0
PacketCounter,SampleTimeFine,Acc_X,Acc_Y,Acc_Z,FreeAcc_X,FreeAcc_Y,FreeAcc_Z,Gyr_X,Gyr_Y,Gyr_Z,Mag_X,Mag_Y,Mag_Z,VelInc_X,VelInc_Y,VelInc_Z,OriInc_q0,OriInc_q1,OriInc_q2,OriInc_q3,Quat_q0,Quat_q1,Quat_q2,Quat_q3
62896,NaN,15.753555,2.029301,0.330183,-0.000000,0.000000,6.074434,-0.109896,-0.447890,0.513500,-1.015137,-0.180664,0.116455,0.157475,0.020699,0.003643,0.999994,-0.000549,-0.002239,0.002567,-0.167595,-0.695040,0.073844,-0.695254
62897,NaN,15.299848,1.535320,-0.877569,-2.020545,0.918458,5.428245,-0.293159,-0.310066,0.438267,-1.015381,-0.172119,0.116455,0.152978,0.015676,-0.008561,0.999995,-0.001466,-0.001550,0.002191,-0.124680,-0.676614,0.028151,-0.725159
62898,NaN,12.611141,0.258567,-1.143739,-1.829350,1.779936,2.593000,-0.644007,-0.261771,0.164712,-1.010986,-0.178467,0.122803,0.126124,0.002653,-0.011281,0.999994,-0.003220,-0.001309,0.000824,-0.126224,-0.677134,0.031206,-0.724281
62899,NaN,9.783080,-0.452288,-0.199083,-0.558781,1.885911,-0.216654,-1.023384,-0.298891,-0.080611,-1.017334,-0.178467,0.118652,0.097832,-0.004572,-0.001821,0.999986,-0.005117,-0.001494,-0.000403,-0.131302,-0.677885,0.033944,-0.722551
62900,NaN,8.339743,-1.272859,0.982734,0.885886,2.196393,-1.656207,-1.361048,-0.269463,-0.155856,-1.015137,-0.182861,0.118652,0.083374,-0.012726,0.010026,0.999976,-0.006805,-0.001347,-0.000779,-0.136429,-0.677975,0.038509,-0.721287
62901,NaN,8.282757,-2.244582,1.371142,1.550895,3.003262,-1.806614,-1.541037,-0.099976,-0.058330,-1.008789,-0.180664,0.112305,0.082814,-0.022363,0.013925,0.999970,-0.007705,-0.000500,-0.000292,-0.142474,-0.677277,0.044736,-0.720413
62902,NaN,8.381502,-3.737540,2.326890,2.900163,4.158612,-1.817197,-1.430180,0.063342,0.101260,-1.012939,-0.182861,0.110107,0.083841,-0.037165,0.023509,0.999974,-0.007151,0.000317,0.000506,-0.146963,-0.675990,0.050184,-0.720362
62903,NaN,7.896260,-4.331317,3.173405,3.939871,4.310189,-2.257484,-0.917087,0.022940,0.249205,-1.015137,-0.178467,0.110107,0.079020,-0.043069,0.031923,0.999989,-0.004585,0.000115,0.001246,-0.150177,-0.674427,0.058457,-0.720540
62904,NaN,8.741439,-3.582529,2.683013,3.224067,3.810093,-1.354894,-0.116735,-0.112453,0.402268,-1.011230,-0.174316,0.110107,0.087471,-0.035634,0.026900,0.999998,-0.000584,-0.000562,0.002011,-0.149089,-0.674625,0.060318,-0.720427
62905,NaN,9.437827,-2.729287,2.065091,2.348232,3.124060,-0.565410,0.664960,-0.278465,0.486594,-1.013184,-0.172119,0.116455,0.094416,-0.027132,0.020692,0.999991,0.003325,-0.001392,0.002433,-0.147534,-0.674123,0.068318,-0.720503
62906,NaN,10.386196,-1.777973,1.811543,1.786042,2.377269,0.457385,1.124214,-0.585169,0.466357,-1.011230,-0.163574,0.131104,0.103850,-0.017640,0.018320,0.999977,0.005621,-0.002926,0.002332,-0.141861,-0.676886,0.066270,-0.719242
62907,NaN,11.079131,-0.116613,1.348760,0.836456,0.839960,1.285686,1.145170,-0.880236,0.350797,-1.009277,-0.157227,0.137451,0.110732,-0.001051,0.013969,0.999972,0.005726,-0.004401,0.001754,-0.141012,-0.678414,0.075407,-0.717066
62908,NaN,10.999340,0.616788,1.186390,0.552253,0.134188,1.253001,0.880440,-0.913670,0.247169,-1.009277,-0.159424,0.145996,0.109930,0.006250,0.012394,0.999979,0.004402,-0.004568,0.001236,-0.136792,-0.682203,0.073731,-0.714458
62909,NaN,10.334787,2.033571,0.594718,-0.404782,-1.226775,0.657621,0.534780,-0.787132,0.216445,-1.009277,-0.157227,0.152344,0.103301,0.020431,0.006408,0.999988,0.002674,-0.003936,0.001082,-0.139195,-0.683027,0.084212,-0.712044
62910,NaN,9.890810,2.934197,0.022259,-1.153719,-1.984444,0.245579,0.108286,-0.546620,0.262109,-1.007324,-0.150879,0.154297,0.098868,0.029471,0.000509,0.999995,0.000541,-0.002733,0.001311,-0.137661,-0.684935,0.085102,-0.710402
62911,NaN,9.708806,3.474315,0.174500,-1.222993,-2.616330,0.087879,-0.184740,-0.269961,0.315852,-1.011719,-0.146484,0.160645,0.097031,0.034898,0.001844,0.999997,-0.000924,-0.001350,0.001579,-0.141397,-0.683913,0.094264,-0.709496
62912,NaN,9.287146,3.545831,0.745343,-0.694353,-2.936956,-0.311552,-0.194913,-0.169617,0.351540,-1.009521,-0.146484,0.160645,0.092803,0.035629,0.007497,0.999998,-0.000975,-0.000848,0.001758,-0.140736,-0.684210,0.096277,-0.709070
62913,NaN,9.118871,3.463598,1.117061,-0.341099,-3.024010,-0.477967,-0.045905,-0.234364,0.371108,-1.007812,-0.135742,0.166992,0.091111,0.034808,0.011269,0.999998,-0.000230,-0.001172,0.001856,-0.141136,-0.683890,0.099292,-0.708884
62914,NaN,8.920532,3.173671,1.662831,0.293206,-2.988525,-0.680569,0.168272,-0.402894,0.384147,-1.005371,-0.140137,0.173340,0.089110,0.031894,0.016835,0.999996,0.000841,-0.002014,0.001921,-0.138999,-0.685243,0.100293,-0.707858
62915,NaN,9.073372,2.579486,2.159984,1.006155,-2.580687,-0.540548,0.428002,-0.646834,0.354352,-1.005615,-0.133789,0.177490,0.090617,0.025909,0.021948,0.999991,0.002140,-0.003234,0.001772,-0.134801,-0.687173,0.096340,-0.707348
62916,NaN,9.118026,2.055615,2.575764,1.640403,-2.259710,-0.528265,0.652559,-0.877796,0.289365,-1.003662,-0.127197,0.185791,0.091036,0.020603,0.026225,0.999984,0.003263,-0.004389,0.001447,-0.131110,-0.690567,0.095616,-0.704830
62917,NaN,9.076752,1.620988,2.542241,1.848103,-1.778116,-0.598576,0.779436,-1.014428,0.226357,-1.001709,-0.116699,0.202637,0.090618,0.016212,0.025945,0.999979,0.003897,-0.005072,0.001132,-0.123742,-0.693981,0.086063,-0.704039
62918,NaN,8.932009,1.405699,1.918401,1.414730,-1.431478,-0.791295,0.716948,-1.039085,0.188758,-0.997314,-0.125244,0.208984,0.089205,0.014071,0.019698,0.999980,0.003585,-0.005195,0.000944,-0.120141,-0.697987,0.084835,-0.700845
62919,NaN,9.025816,1.442499,0.853127,0.468478,-1.114095,-0.712548,0.401873,-0.980348,0.167744,-1.001709,-0.116699,0.217529,0.090203,0.014483,0.009003,0.999986,0.002009,-0.004902,0.000839,-0.113029,-0.700754,0.074899,-0.700398
62920,NaN,9.168491,1.570791,-0.152279,-0.455597,-1.001008,-0.574629,-0.051142,-0.836817,0.165303,-0.990967,-0.123047,0.228027,0.091677,0.015783,-0.001143,0.999991,-0.000256,-0.004184,0.000827,-0.112315,-0.703588,0.076129,-0.697534
62921,NaN,9.253571,1.444951,-0.626074,-0.822458,-0.724917,-0.490336,-0.435789,-0.638069,0.192856,-0.991211,-0.114502,0.229980,0.092541,0.014525,-0.005997,0.999992,-0.002179,-0.003190,0.000964,-0.109563,-0.705129,0.070038,-0.697054
62922,NaN,9.265722,1.177284,-0.540115,-0.634377,-0.513988,-0.492570,-0.613109,-0.434091,0.227557,-0.995117,-0.121094,0.228027,0.092655,0.011862,-0.005236,0.999992,-0.003066,-0.002170,0.001138,-0.110779,-0.706221,0.073215,-0.695428
62923,NaN,9.074475,0.945331,0.146573,0.111794,-0.414909,-0.698057,-0.549891,-0.326712,0.249620,-0.993164,-0.114502,0.236328,0.090730,0.009571,0.001588,0.999994,-0.002749,-0.001634,0.001248,-0.106921,-0.707035,0.064590,-0.696059
62924,NaN,8.943940,0.751124,1.198990,1.193126,-0.517904,-0.851440,-0.344157,-0.271086,0.248116,-0.989014,-0.116699,0.240723,0.089414,0.007643,0.012098,0.999997,-0.001721,-0.001355,0.001241,-0.107186,-0.707712,0.066809,-0.695120
62925,NaN,8.953432,0.593130,2.304789,2.320062,-0.580148,-0.862355,-0.125804,-0.265443,0.230133,-0.993408,-0.108154,0.238525,0.089497,0.006049,0.023163,0.999998,-0.000629,-0.001327,0.001151,-0.103016,-0.708364,0.060734,-0.695643
62926,NaN,9.010529,0.487115,3.195765,3.230211,-0.702999,-0.828741,0.031171,-0.243597,0.164570,-0.986816,-0.110352,0.249023,0.090062,0.004940,0.032068,0.999999,0.000156,-0.001218,0.000823,-0.102259,-0.709177,0.061333,-0.694874
62927,NaN,8.898412,0.564400,3.698444,3.698050,-0.791540,-0.931435,0.156205,-0.185599,0.067497,-0.993408,-0.110352,0.244873,0.088948,0.005645,0.037071,0.999999,0.000781,-0.000928,0.000337,-0.096468,-0.708810,0.052531,-0.696794
62928,NaN,8.521060,0.577855,3.877076,3.875800,-0.861230,-1.315009,0.287656,-0.099118,-0.035008,-0.986816,-0.114746,0.244873,0.085192,0.005708,0.038821,0.999999,0.001438,-0.000496,-0.000175,-0.095544,-0.709303,0.051452,-0.696501
62929,NaN,8.105435,0.591033,3.969518,3.952872,-0.832120,-1.720297,0.441635,-0.017101,-0.134022,-0.989014,-0.110352,0.242676,0.081055,0.005768,0.039715,0.999997,0.002208,-0.000086,-0.000670,-0.093409,-0.708783,0.045290,-0.697746
62930,NaN,7.801008,0.602661,3.983527,3.964144,-0.833342,-2.023054,0.575101,0.096089,-0.203237,-0.989258,-0.105957,0.242676,0.078035,0.005833,0.039815,0.999995,0.002875,0.000480,-0.001016,-0.092101,-0.708759,0.042518,-0.698119
62931,NaN,7.536760,0.802931,3.836154,3.752182,-0.819477,-2.235555,0.686260,0.251248,-0.242010,-0.989258,-0.108154,0.240723,0.075425,0.007807,0.038294,0.999993,0.003431,0.001256,-0.001210,-0.084609,-0.706182,0.027643,-0.702413
62932,NaN,7.074589,0.895223,3.742942,3.628686,-0.883574,-2.677387,0.824988,0.452547,-0.216042,-0.984863,-0.110352,0.236328,0.070840,0.008722,0.037305,0.999988,0.004125,0.002263,-0.001080,-0.082517,-0.704963,0.023791,-0.704025
62933,NaN,6.465149,0.945560,3.505084,3.338781,-0.783690,-3.238807,0.992054,0.660381,-0.155259,-0.989014,-0.112549,0.236328,0.064774,0.009232,0.034883,0.999982,0.004960,0.003302,-0.000776,-0.074543,-0.700880,0.010042,-0.709302
62934,NaN,5.720048,0.658487,3.288729,3.131641,-0.493581,-3.988843,1.098220,0.827756,-0.076043,-0.995605,-0.108154,0.221680,0.057338,0.006383,0.032686,0.999976,0.005491,0.004139,-0.000380,-0.071004,-0.698341,0.005572,-0.712213
62935,NaN,5.097747,0.458089,3.215664,3.025304,-0.283350,-4.587336,1.120248,0.898260,0.005735,-0.989502,-0.101807,0.215088,0.051121,0.004403,0.031952,0.999974,0.005601,0.004491,0.000029,-0.067783,-0.693472,0.000152,-0.717287
62936,NaN,4.893022,0.280243,2.768947,2.565846,-0.047764,-4.802580,1.094949,0.899346,0.083341,-0.995850,-0.099609,0.210938,0.049053,0.002672,0.027484,0.999975,0.005475,0.004497,0.000417,-0.063688,-0.690600,-0.003791,-0.720417
62937,NaN,4.872747,0.134323,1.966928,1.704120,0.255634,-4.846708,1.131241,0.857471,0.122215,-1.000244,-0.095215,0.206787,0.048810,0.001263,0.019467,0.999975,0.005656,0.004287,0.000611,-0.052357,-0.685219,-0.017793,-0.726235
62938,NaN,5.059969,0.210188,1.133584,0.820430,0.252080,-4.694513,1.256892,0.777428,0.136424,-0.998291,-0.090820,0.204590,0.050642,0.002066,0.011152,0.999972,0.006284,0.003887,0.000682,-0.047486,-0.682717,-0.022093,-0.728803
62939,NaN,5.779809,0.524466,0.676324,0.229168,0.035795,-3.974472,1.394139,0.736692,0.133641,-1.002686,-0.086670,0.194092,0.057819,0.005237,0.006587,0.999969,0.006971,0.003683,0.000668,-0.037486,-0.677601,-0.031204,-0.733811
62940,NaN,6.676719,0.818278,0.444414,-0.111387,-0.165492,-3.074307,1.469311,0.692374,0.057732,-1.004883,-0.090820,0.187744,0.066780,0.008170,0.004273,0.999967,0.007346,0.003462,0.000289,-0.032188,-0.675322,-0.036528,-0.735915
62941,NaN,7.886997,1.596633,0.347028,-0.393373,-0.826409,-1.810400,1.380154,0.700032,-0.074823,-1.005127,-0.080078,0.185547,0.078888,0.015914,0.003304,0.999970,0.006901,0.003500,-0.000374,-0.030945,-0.671286,-0.037949,-0.739579
62942,NaN,8.743698,1.874663,0.550116,-0.314296,-0.998418,-0.914746,1.085244,0.790772,-0.242818,-1.005127,-0.082275,0.172852,0.087481,0.018611,0.005257,0.999977,0.005426,0.003954,-0.001214,-0.028051,-0.668468,-0.042899,-0.741973
62943,NaN,8.911840,2.257653,0.787092,-0.171826,-1.303527,-0.679879,0.780602,0.916065,-0.404236,-1.000732,-0.086670,0.172852,0.089199,0.022366,0.007550,0.999980,0.003903,0.004580,-0.002021,-0.022279,-0.662959,-0.052837,-0.746457
62944,NaN,8.742742,3.075509,1.072484,0.084414,-2.073450,-0.716682,0.477705,1.114706,-0.545929,-1.007080,-0.090820,0.153809,0.087569,0.030491,0.010310,0.999978,0.002389,0.005573,-0.002730,-0.022439,-0.658692,-0.056553,-0.749948
62945,NaN,8.391333,2.898021,0.526993,-0.533397,-1.914116,-1.144294,0.204502,1.374698,-0.654933,-1.004883,-0.094971,0.139160,0.084041,0.028700,0.004722,0.999970,0.001022,0.006873,-0.003275,-0.023126,-0.652446,-0.060326,-0.755077
62946,NaN,8.111750,3.042713,-0.661431,-1.790054,-2.109063,-1.576085,-0.086349,1.730761,-0.749829,-1.012939,-0.107910,0.124512,0.081169,0.030120,-0.007330,0.999955,-0.000432,0.008654,-0.003749,-0.025716,-0.645646,-0.062644,-0.760628
62947,NaN,8.558494,2.970188,-0.350696,-1.743708,-1.891145,-1.119443,-0.314735,2.077434,-0.841494,-1.012939,-0.114258,0.105469,0.085666,0.029335,-0.004443,0.999936,-0.001574,0.010387,-0.004207,-0.029061,-0.636385,-0.066094,-0.767985
62948,NaN,10.451047,2.485607,0.379958,-1.632574,-1.040773,0.760464,-0.616680,2.385961,-1.081931,-1.010498,-0.131348,0.078125,0.104678,0.024299,0.002476,0.999909,-0.003083,0.011929,-0.005409,-0.034388,-0.626719,-0.067510,-0.775554
62949,NaN,13.273218,2.080146,1.515854,-1.491923,-0.042500,3.624557,-1.025670,2.845789,-1.357096,-1.012451,-0.137451,0.040039,0.133066,0.019970,0.013163,0.999863,-0.005128,0.014228,-0.006785,-0.044604,-0.614658,-0.066395,-0.784728
62950,NaN,15.955701,2.327321,3.016090,-1.184741,0.366730,6.543523,-1.457051,3.479055,-1.530389,-1.010010,-0.158936,0.000000,0.160220,0.022254,0.027213,0.999793,-0.007285,0.017394,-0.007651,-0.053923,-0.600048,-0.066145,-0.795399
62951,NaN,18.024057,1.851334,2.990684,-2.493002,1.444707,8.322429,-1.833934,4.018507,-1.496433,-1.009766,-0.171631,-0.042236,0.180924,0.017412,0.026113,0.999728,-0.009169,0.020091,-0.007481,-0.062831,-0.581991,-0.068053,-0.807903
62952,NaN,18.670754,-0.296734,3.112823,-3.283475,3.891310,8.419135,-1.805582,4.024718,-1.520977,-0.998779,-0.190674,-0.084229,0.187255,-0.004132,0.027397,0.999728,-0.009027,0.020122,-0.007604,-0.072843,-0.564491,-0.066432,-0.819531
62953,NaN,16.358348,-3.594668,2.786310,-3.249825,6.916755,5.347920,-1.242091,3.954088,-1.435697,-1.000732,-0.197021,-0.120117,0.163832,-0.036962,0.024853,0.999760,-0.006210,0.019769,-0.007178,-0.083647,-0.547140,-0.065915,-0.830239
62954,NaN,13.568845,-4.459759,4.594524,-0.944135,7.382396,3.214338,-0.444494,3.326741,-1.232821,-0.989746,-0.214111,-0.149658,0.136151,-0.045337,0.043783,0.999840,-0.002222,0.016633,-0.006164,-0.088872,-0.532650,-0.068824,-0.838838
62955,NaN,10.684825,-1.108274,4.405371,-0.495948,3.585979,1.218528,-0.097485,2.565533,-1.096858,-0.987549,-0.220459,-0.168701,0.107339,-0.011650,0.042684,0.999903,-0.000487,0.012827,-0.005484,-0.095814,-0.521531,-0.069027,-0.845021
62956,NaN,8.440233,-1.378861,5.046440,0.851585,3.449114,-0.540148,0.096711,2.035926,-0.939784,-0.980957,-0.231201,-0.194092,0.084844,-0.014211,0.049595,0.999937,0.000484,0.010179,-0.004699,-0.098826,-0.512617,-0.072859,-0.849793
62957,NaN,6.905525,-0.944067,5.950390,2.180853,2.715267,-1.336005,0.453292,1.330913,-0.773439,-0.978760,-0.237549,-0.200439,0.069412,-0.009843,0.059021,0.999968,0.002266,0.006654,-0.003867,-0.103639,-0.507097,-0.073114,-0.852506
62958,NaN,8.903914,-0.719648,6.456092,1.584127,3.110669,0.641571,0.698787,0.741565,-0.646797,-0.974365,-0.243896,-0.198242,0.089253,-0.007710,0.064204,0.999982,0.003494,0.003708,-0.003234,-0.104354,-0.504052,-0.078116,-0.853780
62959,NaN,11.520276,0.571394,6.201683,-0.048721,2.582761,3.025919,0.577338,0.469909,-0.632174,-0.974121,-0.252441,-0.202393,0.115365,0.005171,0.061761,0.999988,0.002887,0.002350,-0.003161,-0.107548,-0.502291,-0.078615,-0.854375
62960,NaN,12.246489,2.128409,4.913727,-1.725053,1.336051,3.374040,0.091856,0.318429,-0.618161,-0.967773,-0.250488,-0.204590,0.122608,0.020883,0.048952,0.999994,0.000459,0.001592,-0.003091,-0.109834,-0.500735,-0.080731,-0.854800
62961,NaN,11.113619,2.026228,3.517211,-2.422672,1.123244,1.713702,-0.379347,0.103397,-0.554958,-0.963135,-0.260986,-0.210693,0.111210,0.020020,0.035077,0.999994,-0.001897,0.000517,-0.002775,-0.112652,-0.500123,-0.079004,-0.854953
62962,NaN,9.346447,0.981928,3.171224,-1.775133,1.677730,-0.199624,-0.499226,-0.071299,-0.440090,-0.967285,-0.263184,-0.208740,0.093475,0.009693,0.031721,0.999994,-0.002496,-0.000356,-0.002200,-0.115810,-0.499974,-0.077930,-0.854717
62963,NaN,7.297593,1.874514,3.427729,-0.669308,0.255045,-1.566179,-0.295778,-0.380106,-0.328322,-0.965332,-0.261230,-0.200195,0.072941,0.018676,0.034388,0.999996,-0.001479,-0.001901,-0.001642,-0.117785,-0.501777,-0.075870,-0.853575
62964,NaN,5.550135,3.122368,4.247025,0.748535,-1.412046,-2.326968,0.012614,-0.772567,-0.166561,-0.962891,-0.269775,-0.197998,0.055363,0.031175,0.042686,0.999992,0.000063,-0.003863,-0.000833,-0.118757,-0.505020,-0.075886,-0.851524
62965,NaN,4.137471,3.361821,5.069471,2.178329,-2.034706,-3.087058,0.411360,-1.331360,-0.015672,-0.969482,-0.263428,-0.177002,0.041038,0.033510,0.051038,0.999976,0.002057,-0.006657,-0.000078,-0.116774,-0.511447,-0.076668,-0.847884
62966,NaN,3.222655,3.274234,5.565856,3.151199,-2.191905,-3.701334,0.811743,-1.852617,0.155683,-0.967041,-0.265625,-0.162109,0.031683,0.032540,0.056086,0.999949,0.004059,-0.009263,0.000778,-0.114742,-0.519816,-0.078625,-0.842878
62967,NaN,2.566848,2.906958,5.645420,3.697787,-1.990154,-4.402204,1.034532,-2.129965,0.367932,-0.975586,-0.261230,-0.134521,0.025011,0.028823,0.056872,0.999928,0.005173,-0.010650,0.001840,-0.108473,-0.529687,-0.082037,-0.837219
62968,NaN,2.111537,2.322510,4.943540,3.435598,-1.555781,-5.333226,1.031375,-2.268034,0.577810,-0.975586,-0.257080,-0.104980,0.020485,0.023029,0.049789,0.999918,0.005157,-0.011340,0.002889,-0.104244,-0.539943,-0.083587,-0.831028
62969,NaN,1.410484,1.997387,4.176458,3.158144,-1.421689,-6.432542,0.874400,-2.365895,0.814335,-0.982178,-0.246582,-0.079834,0.013528,0.019846,0.042014,0.999912,0.004372,-0.011829,0.004072,-0.095844,-0.550417,-0.085920,-0.824908
62970,NaN,0.634543,3.422770,3.559832,2.872935,-3.031621,-7.102615,0.408693,-2.523791,1.091410,-0.984619,-0.238037,-0.062988,0.005708,0.034187,0.035743,0.999903,0.002043,-0.012619,0.005457,-0.091292,-0.561449,-0.083384,-0.818222
62971,NaN,1.317588,2.815536,1.259299,0.602216,-2.378191,-7.525739,-0.088491,-2.574269,1.362663,-0.991211,-0.220947,-0.031250,0.012820,0.028249,0.012747,0.999894,-0.000442,-0.012871,0.006813,-0.083273,-0.571997,-0.080664,-0.812021
62972,NaN,1.436271,1.626018,-0.517631,-1.016560,-1.284962,-8.299386,-0.306025,-2.734416,1.571623,-0.987305,-0.210205,-0.010254,0.014304,0.016365,-0.005005,0.999874,-0.001530,-0.013672,0.007858,-0.078858,-0.583546,-0.073777,-0.804868
62973,NaN,3.854004,1.678049,-1.823751,-2.931503,-0.918923,-6.413302,-0.380358,-2.889718,1.885921,-0.996338,-0.188965,0.015137,0.038638,0.017111,-0.017712,0.999849,-0.001902,-0.014448,0.009429,-0.070163,-0.595270,-0.068284,-0.797539
62974,NaN,5.898296,-0.287503,-1.042556,-2.574592,1.347374,-4.567503,-0.440067,-2.910519,1.908469,-0.992188,-0.174072,0.046631,0.059150,-0.002333,-0.009560,0.999846,-0.002200,-0.014552,0.009542,-0.064842,-0.607296,-0.059816,-0.789563
62975,NaN,8.267698,0.078932,0.870027,-1.153597,1.305884,-1.684006,-0.733775,-2.813600,1.738472,-0.997070,-0.154785,0.067627,0.082533,0.001542,0.009857,0.999857,-0.003669,-0.014067,0.008692,-0.059496,-0.618477,-0.052117,-0.781812
62976,NaN,10.281258,-0.175434,1.631335,-0.621368,1.718559,0.436631,-1.045815,-2.522077,1.493084,-0.995117,-0.142090,0.086426,0.102605,-0.000898,0.017614,0.999879,-0.005229,-0.012610,0.007465,-0.057540,-0.628354,-0.042654,-0.774623
62977,NaN,10.144339,-0.512508,1.831127,-0.143741,1.869895,0.336200,-1.101507,-2.238868,1.173216,-0.997314,-0.139893,0.101318,0.101257,-0.004426,0.019471,0.999905,-0.005507,-0.011194,0.005866,-0.057501,-0.636767,-0.033463,-0.768180
62978,NaN,9.107835,-0.785873,2.296430,0.720378,1.867439,-0.602158,-1.126540,-1.908156,0.808278,-0.991211,-0.129150,0.118164,0.090884,-0.007358,0.023874,0.999930,-0.005633,-0.009541,0.004041,-0.058294,-0.643878,-0.026011,-0.762461
62979,NaN,8.043669,-0.966154,3.242743,2.001839,1.760916,-1.503708,-1.245466,-1.480752,0.503979,-0.991211,-0.129395,0.130859,0.080217,-0.009255,0.033080,0.999950,-0.006227,-0.007404,0.002520,-0.063513,-0.649014,-0.016262,-0.757946
62980,NaN,6.950507,-0.772372,3.858432,2.864250,1.318487,-2.474422,-1.336425,-1.054478,0.283242,-0.995361,-0.131348,0.135010,0.069311,-0.007366,0.039000,0.999963,-0.006682,-0.005272,0.001416,-0.066856,-0.652598,-0.009941,-0.754683
62981,NaN,4.844698,-1.139521,3.433045,2.841152,1.379752,-4.657198,-1.145427,-0.817445,0.156156,-0.989014,-0.125000,0.139160,0.048315,-0.011160,0.034592,0.999975,-0.005727,-0.004087,0.000781,-0.072560,-0.654878,-0.001963,-0.752241
62982,NaN,4.203773,-0.996539,2.549842,2.086187,1.207939,-5.413258,-0.722759,-0.821440,0.037328,-0.986572,-0.133545,0.147705,0.041934,-0.009865,0.025707,0.999985,-0.003614,-0.004107,0.000187,-0.074790,-0.657708,0.001177,-0.749550
62983,NaN,4.759195,-0.969793,1.941969,1.457510,1.270589,-4.952360,-0.392258,-0.786310,-0.052858,-0.984375,-0.135742,0.154053,0.047512,-0.009672,0.019626,0.999990,-0.001961,-0.003932,-0.000264,-0.078168,-0.659975,0.005286,-0.747191
62984,NaN,8.284616,-0.723403,0.907734,0.049372,1.520971,-1.586751,-0.190252,-0.745295,-0.051612,-0.986816,-0.131592,0.158203,0.082810,-0.007247,0.009393,0.999993,-0.000951,-0.003726,-0.000258,-0.078965,-0.662693,0.006119,-0.744691
62985,NaN,18.312265,-0.671605,2.483665,0.567835,2.349175,8.520800,-0.084005,-0.557801,0.009390,-0.978271,-0.131592,0.162598,0.183053,-0.006697,0.025350,0.999996,-0.000420,-0.002789,0.000047,-0.080734,-0.664176,0.009049,-0.743149
62986,NaN,24.363363,-2.603131,2.075270,-0.170827,4.930749,14.277038,0.183426,0.032492,0.175574,-0.988770,-0.131592,0.164551,0.243660,-0.025836,0.020689,0.999999,0.000917,0.000162,0.000878,-0.079471,-0.664131,0.008938,-0.743327
62987,NaN,17.333208,-4.286991,2.566728,1.236120,5.738970,7.244347,0.335310,0.251965,0.010881,-0.986572,-0.131592,0.160400,0.173367,-0.042903,0.025377,0.999998,0.001677,0.001260,0.000054,-0.079428,-0.662821,0.009913,-0.744488
62988,NaN,15.462329,-2.375556,2.904512,1.490289,3.638237,5.605005,-0.362863,0.122344,-0.276300,-0.986572,-0.133545,0.158447,0.154608,-0.023917,0.028994,0.999997,-0.001814,0.000612,-0.001382,-0.081662,-0.662242,0.010301,-0.744755
62989,NaN,14.918085,-0.823576,1.638815,0.076907,2.214851,5.053430,-0.683405,0.106415,-0.486975,-0.982178,-0.140137,0.156250,0.149169,-0.008543,0.016338,0.999991,-0.003417,0.000532,-0.002435,-0.086869,-0.661034,0.013914,-0.745181
62990,NaN,15.833252,1.315395,0.007500,-1.924583,0.503310,5.950059,-0.076102,-0.182067,-0.542300,-0.977783,-0.146484,0.162598,0.158367,0.012725,0.000214,0.999996,-0.000381,-0.000910,-0.002711,-0.089125,-0.661723,0.012486,-0.744328
62991,NaN,22.076542,5.486374,0.721879,-2.491247,-2.914172,12.621533,0.623360,-0.270931,-0.556689,-0.979980,-0.146484,0.158447,0.220907,0.054226,0.007688,0.999990,0.003117,-0.001355,-0.002783,-0.090232,-0.662643,0.011084,-0.743397
62992,NaN,21.330089,8.654524,1.927703,-1.631094,-6.138552,12.396420,0.627951,0.219010,-0.737579,-0.975342,-0.157227,0.156250,0.213639,0.085697,0.019313,0.999988,0.003140,0.001095,-0.003688,-0.090902,-0.662153,0.006208,-0.743809
62993,NaN,11.902452,5.804795,2.885985,0.697639,-4.518960,2.945960,0.471175,0.584846,-1.013374,-0.979492,-0.159424,0.154297,0.119400,0.057376,0.028647,0.999980,0.002356,0.002924,-0.005067,-0.093703,-0.659934,0.002419,-0.745454
62994,NaN,8.151322,3.639444,3.035599,1.538771,-2.796779,-0.940624,0.267077,0.660078,-1.038013,-0.974854,-0.172119,0.150146,0.081800,0.035930,0.030135,0.999980,0.001335,0.003300,-0.005190,-0.096694,-0.657606,-0.002309,-0.747127
62995,NaN,5.068865,2.272596,1.407405,0.444947,-1.640852,-4.340191,-0.308040,0.683341,-0.733396,-0.976807,-0.180664,0.141846,0.050819,0.022561,0.013866,0.999986,-0.001540,0.003417,-0.003667,-0.100746,-0.654599,-0.003052,-0.749227
62996,NaN,1.727457,2.034814,0.528169,-0.003130,-1.790021,-7.763466,-0.595661,0.493602,-0.300417,-0.972656,-0.178711,0.135254,0.017318,0.020338,0.005178,0.999991,-0.002978,0.002468,-0.001502,-0.103810,-0.652447,-0.002051,-0.750687
62997,NaN,0.840271,1.773570,-0.548156,-0.936223,-1.519455,-8.829426,-0.762445,0.280314,-0.006422,-0.976807,-0.180664,0.131104,0.008396,0.017714,-0.005561,0.999992,-0.003812,0.001402,-0.000032,-0.109208,-0.650695,0.003521,-0.751437
62998,NaN,3.210795,1.550391,-1.820001,-2.459228,-0.727523,-6.738893,-0.723661,-0.039521,0.114550,-0.972656,-0.180664,0.124756,0.032103,0.015456,-0.018250,0.999993,-0.003618,-0.000198,0.000573,-0.111128,-0.650450,0.006635,-0.751347
62999,NaN,7.637947,2.117539,-1.642454,-2.959899,-0.592142,-2.302150,-0.416223,-0.396047,0.206666,-0.974854,-0.178711,0.135254,0.076390,0.021220,-0.016317,0.999995,-0.002081,-0.001980,0.001033,-0.113807,-0.651451,0.011143,-0.750023
63000,NaN,13.943228,3.161142,-0.559532,-2.834922,-0.829079,4.187118,-0.004235,-0.672440,0.190217,-0.974854,-0.172119,0.141602,0.139420,0.031744,-0.005127,0.999994,-0.000021,-0.003362,0.000951,-0.113067,-0.653964,0.012163,-0.747930
63001,NaN,19.859557,3.126681,-0.179008,-3.069063,0.001727,10.056629,0.329075,-0.542668,0.187960,-0.968506,-0.172119,0.147949,0.198570,0.031456,-0.001200,0.999995,0.001645,-0.002713,0.000940,-0.111961,-0.656071,0.012586,-0.746242
63002,NaN,18.737273,3.474057,0.929997,-1.851096,-0.723178,9.162816,0.133025,-0.154355,0.026535,-0.972656,-0.178711,0.139648,0.187361,0.034759,0.009468,0.999999,0.000665,-0.000772,0.000133,-0.111413,-0.656727,0.012265,-0.745752
63003,NaN,11.427628,2.857192,2.517624,0.633648,-1.485231,2.124028,-0.514005,0.061465,-0.135932,-0.972656,-0.174316,0.147949,0.114303,0.028559,0.025068,0.999996,-0.002570,0.000307,-0.000680,-0.115361,-0.656184,0.015284,-0.745574
63004,NaN,7.541690,1.009221,4.678805,3.520795,-0.662701,-1.630291,-0.790128,-0.145117,-0.183585,-0.972412,-0.182861,0.141846,0.075392,0.010208,0.046803,0.999992,-0.003951,-0.000726,-0.000918,-0.118623,-0.656286,0.017712,-0.744919
63005,NaN,7.238462,0.844252,5.293719,4.192400,-0.696974,-1.871059,-0.434392,-0.372052,-0.108035,-0.972412,-0.180664,0.147949,0.072291,0.008519,0.053053,0.999996,-0.002172,-0.001860,-0.000540,-0.121637,-0.657313,0.020253,-0.743461
63006,NaN,7.870124,0.998712,5.020747,3.861328,-0.716687,-1.285059,0.072455,-0.553354,0.092726,-0.968262,-0.178711,0.158691,0.078557,0.010005,0.050429,0.999996,0.000362,-0.002767,0.000464,-0.120996,-0.659409,0.020626,-0.741697
63007,NaN,9.657522,0.741227,3.735784,2.526070,0.025605,0.256635,0.427138,-0.517341,0.307951,-0.966309,-0.172363,0.160645,0.096467,0.007481,0.037623,0.999993,0.002136,-0.002587,0.001540,-0.118917,-0.661329,0.020816,-0.740317
63008,NaN,10.712235,1.083628,2.527919,1.215430,0.049527,1.179890,0.655603,-0.205817,0.361072,-0.968506,-0.167969,0.158447,0.107077,0.010946,0.025425,0.999992,0.003278,-0.001029,0.001805,-0.115388,-0.662445,0.019707,-0.739908
63009,NaN,10.456087,0.790310,1.864007,0.643908,0.402183,0.810517,0.767563,0.251383,0.239163,-0.972900,-0.163574,0.160645,0.104575,0.007957,0.018539,0.999991,0.003838,0.001257,0.001196,-0.111956,-0.661670,0.017484,-0.741184
63010,NaN,9.381586,0.301688,1.963122,0.897718,0.717362,-0.292281,0.843798,0.721644,0.033383,-0.970947,-0.161621,0.154297,0.093885,0.002951,0.019305,0.999985,0.004219,0.003608,0.000167,-0.109100,-0.659462,0.014065,-0.743646
63011,NaN,8.623494,0.339096,2.381777,1.298822,0.546494,-0.971536,0.935395,1.130071,-0.211145,-0.977295,-0.163574,0.143799,0.086371,0.003190,0.023345,0.999973,0.004677,0.005650,-0.001056,-0.106555,-0.655504,0.009027,-0.747582
63012,NaN,7.906363,0.753733,1.963780,0.803640,0.165291,-1.672634,0.813858,1.581310,-0.447073,-0.981445,-0.169922,0.128906,0.079232,0.007282,0.019042,0.999958,0.004069,0.007906,-0.002235,-0.105623,-0.650027,0.003678,-0.752526
63013,NaN,6.927596,-0.171295,1.965582,0.955301,0.992634,-2.742727,0.571413,2.115699,-0.582915,-0.979248,-0.174316,0.112061,0.069473,-0.001970,0.018916,0.999936,0.002857,0.010578,-0.002915,-0.106290,-0.642047,-0.001172,-0.759260
63014,NaN,6.930612,-0.533340,1.869156,0.770280,1.441060,-2.802768,0.403143,2.315835,-0.732295,-0.979248,-0.180664,0.093018,0.069496,-0.005624,0.017876,0.999924,0.002016,0.011579,-0.003661,-0.107752,-0.633425,-0.006283,-0.766240
63015,NaN,8.183294,-0.451091,1.891206,0.383199,1.670917,-1.578395,0.217793,2.451031,-0.932368,-0.979004,-0.187012,0.063477,0.082034,-0.004913,0.017902,0.999913,0.001089,0.012255,-0.004662,-0.111049,-0.623785,-0.010853,-0.773591
63016,NaN,9.738086,-0.564509,1.114977,-0.867934,2.295077,-0.306648,-0.160466,2.638808,-1.237067,-0.980957,-0.199707,0.038330,0.097479,-0.006240,0.009869,0.999894,-0.000802,0.013194,-0.006185,-0.116177,-0.613364,-0.015553,-0.781054
63017,NaN,9.997404,-0.455633,0.052940,-2.204936,2.531761,-0.385145,-0.551559,2.770824,-1.590325,-0.974121,-0.216797,0.010986,0.099928,-0.005352,-0.000841,0.999869,-0.002758,0.013854,-0.007951,-0.123791,-0.601755,-0.019682,-0.788784
63018,NaN,10.780859,-1.545208,0.289594,-2.224720,3.932607,0.100585,-0.701673,2.888509,-1.819456,-0.971680,-0.236084,-0.016357,0.107689,-0.016426,0.001396,0.999848,-0.003508,0.014442,-0.009097,-0.132773,-0.589666,-0.024172,-0.796292
63019,NaN,12.071226,-1.643827,0.017851,-3.068715,4.603945,1.040383,-0.610071,2.993536,-1.854166,-0.969238,-0.246582,-0.045898,0.120538,-0.017559,-0.001574,0.999840,-0.003050,0.014967,-0.009270,-0.142366,-0.576900,-0.028230,-0.803817
63020,NaN,13.046381,-1.042098,-0.011561,-3.819528,4.523330,1.858920,-0.619511,3.353014,-1.434244,-0.964844,-0.259277,-0.079834,0.130359,-0.011361,-0.002268,0.999829,-0.003097,0.016764,-0.007171,-0.149418,-0.562690,-0.032257,-0.812412
63021,NaN,12.232594,-0.155194,1.237924,-2.956469,3.487183,1.601185,-0.502833,3.346509,-1.032298,-0.956299,-0.267822,-0.113525,0.122500,-0.002156,0.010335,0.999844,-0.002514,0.016732,-0.005161,-0.153312,-0.548421,-0.035787,-0.821248
63022,NaN,9.361398,1.546893,1.884416,-2.043691,1.100029,-0.422011,-0.310237,3.151654,-0.631758,-0.958252,-0.274170,-0.140869,0.093943,0.015200,0.017342,0.999870,-0.001551,0.015758,-0.003159,-0.156171,-0.535066,-0.038654,-0.829350
63023,NaN,8.138139,2.836204,1.700004,-2.272127,-0.410398,-1.337523,-0.036940,2.599200,-0.140744,-0.951904,-0.276367,-0.157959,0.081613,0.028308,0.015935,0.999915,-0.000185,0.012996,-0.000704,-0.155240,-0.524236,-0.040945,-0.836302
63024,NaN,10.917741,2.608627,1.415674,-3.799422,0.691297,0.821628,0.203839,2.009687,0.360785,-0.956543,-0.267578,-0.174805,0.109265,0.026270,0.013086,0.999947,0.001019,0.010048,0.001804,-0.152776,-0.516046,-0.042408,-0.841759
63025,NaN,13.727791,1.138260,2.601649,-3.836043,2.780080,3.380806,0.600085,1.566795,0.625109,-0.957031,-0.254639,-0.183350,0.137440,0.011736,0.024975,0.999960,0.003000,0.007834,0.003126,-0.146575,-0.510157,-0.044952,-0.846307
63026,NaN,13.628693,0.731544,3.476962,-3.134489,3.036639,3.578237,0.958076,1.246624,0.679634,-0.952881,-0.252686,-0.194092,0.136475,0.007615,0.033955,0.999963,0.004790,0.006233,0.003398,-0.140967,-0.505727,-0.048182,-0.849734
63027,NaN,11.956722,1.768141,4.031892,-2.225710,1.473844,2.646011,1.012617,0.753290,0.531213,-0.958984,-0.254639,-0.191895,0.119671,0.017796,0.039958,0.999977,0.005063,0.003766,0.002656,-0.132302,-0.503487,-0.053133,-0.852158
63028,NaN,9.425551,3.980520,4.347134,-1.199215,-1.378297,1.152953,0.774387,0.116612,0.397723,-0.959229,-0.252686,-0.193848,0.094202,0.039824,0.043571,0.999990,0.003872,0.000583,0.001989,-0.128623,-0.503613,-0.055506,-0.852496
63029,NaN,6.892854,4.711894,4.577319,0.111520,-2.813595,-0.716761,0.409627,-0.677581,0.449716,-0.957031,-0.250488,-0.181396,0.068667,0.047179,0.046103,0.999990,0.002048,-0.003388,0.002249,-0.124310,-0.507160,-0.056004,-0.850999
63030,NaN,5.329462,2.226109,5.773636,2.352665,-0.914496,-2.046034,0.126754,-1.480879,0.511444,-0.963379,-0.246338,-0.168701,0.052808,0.022360,0.058143,0.999969,0.000634,-0.007404,0.002557,-0.122220,-0.513677,-0.054322,-0.847495
63031,NaN,5.368301,1.074732,7.735341,4.388019,0.071930,-1.413530,-0.118799,-2.106662,0.467317,-0.969971,-0.235596,-0.145508,0.052839,0.010918,0.077907,0.999942,-0.000594,-0.010533,0.002337,-0.120577,-0.522886,-0.051186,-0.842278
63032,NaN,4.725359,1.133541,9.352931,6.276042,-0.300017,-1.350592,-0.068268,-2.389070,0.466159,-0.972168,-0.235596,-0.124268,0.046105,0.011476,0.094081,0.999926,-0.000341,-0.011945,0.002331,-0.119391,-0.532996,-0.048234,-0.836262
63033,NaN,4.048085,0.940276,10.258939,7.589357,-0.390578,-1.765333,0.297434,-2.409147,0.554068,-0.974365,-0.225098,-0.094727,0.039215,0.009360,0.103081,0.999923,0.001487,-0.012045,0.002770,-0.115705,-0.543400,-0.046815,-0.830143
63034,NaN,3.192201,1.231478,9.324600,7.190467,-0.877711,-3.017258,0.553729,-2.033898,0.766735,-0.974365,-0.222900,-0.079834,0.030924,0.012176,0.093598,0.999937,0.002769,-0.010169,0.003834,-0.111484,-0.552317,-0.045848,-0.824873
63035,NaN,0.956409,2.288191,5.841696,4.760010,-2.282359,-6.290188,0.285418,-1.474354,1.129838,-0.981201,-0.210205,-0.065186,0.009004,0.022850,0.058517,0.999956,0.001427,-0.007372,0.005649,-0.105679,-0.558660,-0.043091,-0.821508
63036,NaN,-3.814119,2.913492,1.993837,2.818908,-3.759342,-12.033396,-0.361923,-1.253362,1.502370,-0.988037,-0.192871,-0.056885,-0.038483,0.028882,0.019646,0.999951,-0.001810,-0.006267,0.007512,-0.100780,-0.563922,-0.036741,-0.818832
63037,NaN,-1.379975,1.826985,-1.505075,-1.168035,-1.973306,-11.312341,-0.662229,-2.329421,1.570977,-0.990479,-0.180176,-0.040039,-0.013765,0.018111,-0.015271,0.999896,-0.003311,-0.011647,0.007855,-0.095785,-0.573109,-0.028694,-0.813356
63038,NaN,4.401289,1.299057,-3.117976,-4.468473,-0.269470,-6.535679,-0.392409,-2.984674,1.495272,-0.990479,-0.167480,-0.004150,0.044373,0.013261,-0.030545,0.999859,-0.001962,-0.014923,0.007476,-0.091239,-0.585201,-0.021377,-0.805455
63039,NaN,8.016188,1.446015,-1.558254,-3.930966,0.007278,-2.510722,0.065503,-3.331375,1.398521,-0.993164,-0.148193,0.029541,0.080303,0.015026,-0.014241,0.999837,0.000327,-0.016656,0.006992,-0.085839,-0.598554,-0.015721,-0.796315
63040,NaN,11.060761,2.884388,0.629592,-2.521028,-1.259794,1.282300,0.467950,-3.459917,1.324631,-0.991211,-0.139893,0.063232,0.110282,0.029557,0.008274,0.999826,0.002340,-0.017299,0.006623,-0.079418,-0.612539,-0.012130,-0.786347
63041,NaN,12.902876,2.765852,1.844994,-1.375162,-1.173060,3.387819,0.685681,-3.142310,1.270133,-0.991455,-0.126953,0.096924,0.128538,0.028408,0.020569,0.999851,0.003428,-0.015711,0.006350,-0.072224,-0.625095,-0.009712,-0.777140
63042,NaN,12.875198,1.274675,2.421361,-0.264485,0.083487,3.346650,0.665941,-2.859195,1.004472,-0.989502,-0.114258,0.122314,0.128322,0.013307,0.026094,0.999880,0.003330,-0.014295,0.005022,-0.066366,-0.636427,-0.008124,-0.768434
63043,NaN,13.737741,0.751127,2.574652,0.126798,0.555176,4.172456,0.195936,-2.395900,0.615893,-0.987305,-0.112061,0.141357,0.137032,0.007907,0.027397,0.999923,0.000980,-0.011979,0.003079,-0.063645,-0.645638,-0.005811,-0.760965
63044,NaN,12.660857,0.268853,2.833536,0.844199,0.809636,3.111223,-0.632173,-1.369010,0.315901,-0.982910,-0.116455,0.149658,0.126406,0.002980,0.029192,0.999970,-0.003161,-0.006845,0.001579,-0.064517,-0.650644,-0.001948,-0.756635
63045,NaN,9.333204,-0.240749,2.604570,1.258128,0.926793,-0.246695,-1.444138,-0.458552,0.138738,-0.980957,-0.112305,0.151855,0.093274,-0.002154,0.026276,0.999971,-0.007221,-0.002293,0.000694,-0.070438,-0.651814,0.005783,-0.755078
63046,NaN,6.175609,-0.885684,1.215290,0.434933,1.350790,-3.617073,-1.908739,0.035046,0.064916,-0.985107,-0.116455,0.143311,0.061761,-0.008720,0.012226,0.999954,-0.009544,0.000175,0.000325,-0.076407,-0.650986,0.013191,-0.755119
63047,NaN,3.178719,-1.637891,0.010629,-0.198592,1.926355,-6.806577,-1.900970,0.065736,0.055011,-0.987061,-0.118652,0.136963,0.031792,-0.016368,0.000251,0.999955,-0.009505,0.000329,0.000275,-0.083871,-0.649847,0.022013,-0.755103
63048,NaN,2.034404,-3.129140,-0.290086,-0.060005,3.320938,-8.085837,-1.511570,-0.199377,0.034596,-0.987061,-0.125000,0.139160,0.020352,-0.031309,-0.002644,0.999971,-0.007558,-0.000997,0.000173,-0.088624,-0.649951,0.027918,-0.754275
63049,NaN,3.529002,-3.876655,0.400187,0.605352,4.079231,-6.551449,-0.824712,-0.523220,0.034004,-0.989258,-0.120850,0.143555,0.035286,-0.038743,0.004254,0.999988,-0.004124,-0.002616,0.000170,-0.093234,-0.651360,0.033520,-0.752273
63050,NaN,8.593560,-4.116674,1.414290,1.014311,4.609999,-1.415357,0.149338,-0.862314,0.188661,-0.982910,-0.116455,0.156006,0.085912,-0.041096,0.014483,0.999990,0.000747,-0.004312,0.000943,-0.091889,-0.654642,0.033977,-0.749564
63051,NaN,17.357216,-4.957975,2.731127,1.448683,5.966328,7.380811,0.939952,-0.961384,0.392409,-0.987305,-0.107910,0.166504,0.173536,-0.049369,0.027913,0.999975,0.004700,-0.004807,0.001962,-0.088105,-0.658470,0.033481,-0.746681
63052,NaN,22.248895,-5.880829,5.363553,3.643158,6.827262,12.513998,1.124596,-0.113091,0.352218,-0.985107,-0.107910,0.168701,0.222562,-0.058717,0.053431,0.999982,0.005623,-0.000565,0.001761,-0.083063,-0.659324,0.030495,-0.746634
63053,NaN,16.557971,-3.361859,7.917728,6.298131,3.499719,7.398966,0.547806,0.896920,-0.329753,-0.983154,-0.107910,0.153809,0.165876,-0.034107,0.078341,0.999985,0.002739,0.004485,-0.001649,-0.083190,-0.656111,0.028199,-0.749535
63054,NaN,13.464980,0.670852,5.546823,3.581550,-0.239031,4.316542,0.103314,0.935610,-0.989697,-0.991211,-0.122803,0.147705,0.134938,0.006013,0.054841,0.999977,0.000517,0.004678,-0.004948,-0.086686,-0.652778,0.024179,-0.752184
63055,NaN,11.919099,2.757075,0.859891,-1.251737,-1.587719,2.283390,0.132623,1.004216,-1.200743,-0.984863,-0.127197,0.139160,0.119395,0.026849,0.008018,0.999969,0.000663,0.005021,-0.006004,-0.092408,-0.648931,0.021365,-0.754912
63056,NaN,8.402817,4.850835,-1.839103,-3.788039,-3.509197,-1.395084,0.870265,0.567584,-0.979692,-0.984619,-0.135742,0.139404,0.084212,0.048176,-0.018420,0.999975,0.004351,0.002838,-0.004898,-0.093336,-0.647285,0.014642,-0.756370
63057,NaN,6.914775,4.924861,-2.979663,-4.667379,-3.574209,-3.001910,1.639803,-0.056293,-0.569236,-0.986572,-0.133545,0.149902,0.069296,0.049294,-0.029373,0.999962,0.008199,-0.000281,-0.002846,-0.090378,-0.648156,0.007405,-0.756089
63058,NaN,7.656782,5.143829,-1.758371,-3.507742,-3.880410,-2.014373,1.849214,-0.540019,-0.096554,-0.978271,-0.131592,0.154053,0.076639,0.051560,-0.016900,0.999953,0.009246,-0.002700,-0.000483,-0.084722,-0.651013,0.000349,-0.754324
63059,NaN,12.405550,6.269148,2.125286,-0.337827,-4.854431,3.379543,1.240903,-0.649128,0.209404,-0.984619,-0.131592,0.164551,0.123919,0.062686,0.022044,0.999975,0.006204,-0.003246,0.001047,-0.078680,-0.653964,-0.003973,-0.752413
63060,NaN,24.477582,8.477791,4.490231,0.287829,-5.806108,15.826967,0.129238,-0.480582,0.150489,-0.982666,-0.127197,0.164551,0.244603,0.084933,0.045545,0.999997,0.000646,-0.002403,0.000752,-0.077696,-0.655830,-0.003774,-0.750890
63061,NaN,28.040476,5.390192,2.271482,-2.049444,-2.111449,18.679764,-0.910409,0.578672,-0.225742,-0.982422,-0.135742,0.156250,0.280529,0.053686,0.021659,0.999985,-0.004552,0.002893,-0.001129,-0.081038,-0.653260,-0.001501,-0.752783
63062,NaN,13.089298,1.362052,1.176949,-0.830789,0.223826,3.371629,-1.364099,1.174832,-0.994241,-0.984131,-0.148682,0.141602,0.131025,0.013046,0.010910,0.999947,-0.006820,0.005874,-0.004971,-0.089218,-0.648250,-0.000086,-0.756182
63063,NaN,7.975451,0.825048,0.164710,-1.116374,0.298279,-1.876735,-1.216062,0.555851,-1.245480,-0.983887,-0.157227,0.135254,0.079808,0.007763,0.001377,0.999958,-0.006080,0.002779,-0.006227,-0.098515,-0.645544,0.000945,-0.757342
63064,NaN,5.810191,2.306924,-0.138287,-1.352148,-1.349795,-3.858814,-1.422718,0.073167,-1.034114,-0.983398,-0.174316,0.131104,0.058220,0.022758,-0.001567,0.999961,-0.007113,0.000366,-0.005171,-0.107015,-0.644553,0.002962,-0.757028
63065,NaN,5.874330,1.966558,-0.560826,-1.744539,-0.888457,-3.908739,-1.768042,-0.064765,-0.589724,-0.980957,-0.182861,0.126953,0.058803,0.019442,-0.005762,0.999957,-0.008840,-0.000324,-0.002949,-0.114887,-0.643824,0.007905,-0.756458
63066,NaN,6.795896,0.127978,-0.885450,-1.866285,1.140562,-3.316485,-1.676533,0.013589,-0.122264,-0.981201,-0.178467,0.124756,0.067959,0.001164,-0.008869,0.999965,-0.008383,0.000068,-0.000611,-0.120738,-0.642798,0.013849,-0.756334
63067,NaN,7.983789,-0.644743,-0.446284,-1.460280,2.013267,-2.185757,-0.997157,0.134308,0.197983,-0.985352,-0.180664,0.126953,0.079841,-0.006391,-0.004485,0.999987,-0.004986,0.000672,0.000990,-0.123072,-0.641681,0.018226,-0.756813
63068,NaN,8.554670,-1.194505,0.509665,-0.527886,2.445421,-1.529569,0.049602,0.398378,0.359149,-0.981201,-0.178467,0.120605,0.085578,-0.011793,0.004923,0.999996,0.000248,0.001992,0.001796,-0.121584,-0.640176,0.018950,-0.758310
63069,NaN,8.514108,-1.282927,3.147502,2.006542,2.035066,-1.102071,1.173618,0.283678,0.300941,-0.987793,-0.169922,0.122559,0.085205,-0.012885,0.031279,0.999981,0.005868,0.001418,0.001505,-0.116439,-0.639839,0.015279,-0.759483
63070,NaN,9.517782,0.072509,4.649521,3.027470,0.658226,0.317084,1.837793,0.017526,0.205486,-0.988037,-0.165771,0.126953,0.095181,0.000396,0.046492,0.999957,0.009189,0.000088,0.001027,-0.109770,-0.640806,0.008951,-0.759762
63071,NaN,10.326745,0.806443,5.423044,3.540839,0.022335,1.330150,1.769279,0.047128,0.153310,-0.983887,-0.159180,0.124756,0.103274,0.007664,0.054275,0.999961,0.008846,0.000236,0.000767,-0.102476,-0.641608,0.002115,-0.760153
63072,NaN,10.314976,0.850259,5.908229,4.021023,-0.010154,1.406029,1.430066,0.198270,0.072252,-0.992432,-0.157227,0.135254,0.103205,0.008118,0.059039,0.999974,0.007150,0.000991,0.000361,-0.097607,-0.641576,-0.003186,-0.760817
63073,NaN,9.747166,1.021926,4.686843,2.890316,-0.046505,0.659261,1.169931,0.237446,-0.010832,-0.983887,-0.159424,0.135254,0.097528,0.009940,0.046811,0.999982,0.005850,0.001187,-0.000054,-0.092604,-0.641211,-0.008554,-0.761709
63074,NaN,9.021289,2.309015,3.117101,1.303314,-1.205896,-0.154605,1.072757,0.264507,-0.088506,-0.992432,-0.155029,0.131104,0.090264,0.022883,0.031175,0.999985,0.005364,0.001323,-0.000443,-0.089482,-0.640693,-0.013041,-0.762453
63075,NaN,8.690846,3.579724,2.273203,0.385926,-2.388158,-0.449980,1.045689,0.382964,-0.177084,-0.988281,-0.155029,0.131104,0.086984,0.035601,0.022752,0.999984,0.005228,0.001915,-0.000885,-0.086185,-0.639650,-0.018017,-0.763607
63076,NaN,8.220561,4.266231,1.867657,-0.013879,-3.061939,-0.874531,0.823637,0.661389,-0.271320,-0.992432,-0.159180,0.120605,0.082325,0.042474,0.018580,0.999985,0.004118,0.003307,-0.001357,-0.084519,-0.637453,-0.022309,-0.765514
63077,NaN,7.875734,4.620213,1.893650,0.004892,-3.423468,-1.138655,0.536777,0.956802,-0.384287,-0.988281,-0.159180,0.116211,0.078936,0.046000,0.018683,0.999983,0.002684,0.004784,-0.001921,-0.083410,-0.633898,-0.026440,-0.768451
63078,NaN,7.401500,4.086911,1.603101,-0.215618,-2.906561,-1.715811,0.242291,1.384676,-0.466422,-0.992188,-0.165527,0.103516,0.074219,0.040677,0.015567,0.999973,0.001211,0.006923,-0.002332,-0.084241,-0.628608,-0.029421,-0.772586
63079,NaN,6.604252,3.219290,0.732983,-0.938243,-2.087916,-2.793007,-0.184746,1.912130,-0.528820,-0.996582,-0.171875,0.076172,0.066193,0.032024,0.006668,0.999950,-0.000924,0.009560,-0.002644,-0.085773,-0.620975,-0.031730,-0.778477
63080,NaN,6.140364,1.406978,1.404743,-0.160090,-0.378443,-3.371736,-0.392365,2.451863,-0.588769,-0.994385,-0.176270,0.055176,0.061611,0.013915,0.013266,0.999919,-0.001962,0.012259,-0.002944,-0.088880,-0.611128,-0.033075,-0.785830
63081,NaN,6.523394,0.013846,2.912095,1.165818,1.028182,-2.840212,-0.319533,2.799925,-0.702815,-1.000488,-0.182617,0.031982,0.065633,-0.000046,0.028204,0.999895,-0.001598,0.013999,-0.003514,-0.091555,-0.599700,-0.035599,-0.794173
63082,NaN,7.625184,-0.217249,3.046353,0.818091,1.531521,-1.784545,-0.082527,2.878138,-0.900640,-0.998291,-0.193115,-0.001953,0.076669,-0.002505,0.029363,0.999886,-0.000413,0.014390,-0.004503,-0.094848,-0.588014,-0.039279,-0.802309
63083,NaN,9.014639,0.003112,2.717086,-0.168114,1.718506,-0.557541,0.077630,2.863085,-1.171645,-0.995850,-0.206055,-0.022949,0.090521,-0.000509,0.025877,0.999880,0.000388,0.014315,-0.005858,-0.097886,-0.576176,-0.044901,-0.810200
63084,NaN,10.744666,0.038244,2.255069,-1.431425,2.222899,0.842542,0.023442,2.887800,-1.471357,-0.989258,-0.220947,-0.054443,0.107756,-0.000412,0.020996,0.999869,0.000117,0.014438,-0.007356,-0.103109,-0.564093,-0.050636,-0.817682
63085,NaN,12.174776,-0.991228,1.823871,-2.535333,3.755411,1.675878,-0.263806,3.242466,-1.622355,-0.991211,-0.229248,-0.086182,0.121937,-0.010879,0.016277,0.999835,-0.001319,0.016211,-0.008111,-0.109559,-0.550196,-0.055758,-0.825937
63086,NaN,12.931095,-1.741471,1.182358,-3.683187,4.885714,1.771334,-0.646931,3.417523,-1.482012,-0.980225,-0.246338,-0.128418,0.129355,-0.018340,0.009672,0.999821,-0.003234,0.017087,-0.007410,-0.116478,-0.535227,-0.059020,-0.834554
63087,NaN,13.208168,-1.129188,1.262520,-4.189916,4.524914,1.988901,-0.749225,3.260788,-1.266636,-0.973877,-0.254883,-0.153809,0.132190,-0.012087,0.010515,0.999840,-0.003746,0.016303,-0.006333,-0.121212,-0.520653,-0.061843,-0.842854
63088,NaN,11.320194,3.019835,1.551922,-4.065238,0.145536,1.283019,-0.890811,3.093985,-0.710273,-0.969482,-0.261230,-0.185303,0.113529,0.029859,0.013631,0.999864,-0.004454,0.015469,-0.003551,-0.125541,-0.506795,-0.061798,-0.850635
63089,NaN,8.272988,5.824795,2.377388,-2.676782,-3.375428,-0.354492,-0.908501,2.618305,-0.007711,-0.967773,-0.254639,-0.208740,0.083032,0.058349,0.022423,0.999904,-0.004542,0.013091,-0.000039,-0.125693,-0.495121,-0.060050,-0.857584
63090,NaN,9.178340,6.761642,2.356768,-3.521576,-4.055506,0.515039,-0.863771,2.057632,0.557785,-0.967773,-0.250244,-0.227783,0.091828,0.067971,0.022330,0.999934,-0.004319,0.010288,0.002789,-0.124803,-0.485901,-0.056248,-0.863227
63091,NaN,11.117635,6.534038,3.404145,-3.786398,-3.442925,2.503344,-0.962662,2.089374,0.782833,-0.966309,-0.237305,-0.251221,0.111264,0.065935,0.032563,0.999926,-0.004813,0.010447,0.003914,-0.121025,-0.476622,-0.052406,-0.869159
63092,NaN,11.216124,4.441103,5.662928,-1.878698,-1.570929,3.286479,-1.075988,1.872613,0.909027,-0.968750,-0.228760,-0.266113,0.112479,0.045222,0.055335,0.999931,-0.005380,0.009363,0.004545,-0.119128,-0.468051,-0.046687,-0.874390
63093,NaN,10.667326,1.331515,7.265433,0.039852,1.120198,3.113701,-0.820082,1.034414,0.803562,-0.967041,-0.218018,-0.276611,0.106991,0.014041,0.072045,0.999970,-0.004100,0.005172,0.004018,-0.115169,-0.463373,-0.042828,-0.877603
63094,NaN,9.227564,-0.718441,7.475825,1.235219,2.655486,1.718753,-0.330516,0.146420,0.601039,-0.971191,-0.213623,-0.276611,0.092351,-0.006783,0.074702,0.999994,-0.001653,0.000732,0.003005,-0.113253,-0.462678,-0.040063,-0.878349
63095,NaN,6.359183,-1.893431,7.424049,2.958525,3.077215,-0.817228,0.082683,-0.746459,0.367947,-0.977539,-0.213867,-0.261963,0.063349,-0.018848,0.074469,0.999991,0.000413,-0.003732,0.001840,-0.110159,-0.466173,-0.039829,-0.876905
63096,NaN,5.592167,-2.058624,6.632194,2.840164,3.058100,-1.933842,0.096468,-1.610098,0.143080,-0.979736,-0.209473,-0.249268,0.055400,-0.020579,0.066759,0.999967,0.000482,-0.008050,0.000715,-0.109611,-0.473311,-0.039024,-0.873177
63097,NaN,6.698555,-3.235563,6.560923,2.545697,4.427605,-1.309901,0.168539,-2.240355,-0.018641,-0.975098,-0.218262,-0.223877,0.066242,-0.032418,0.066327,0.999937,0.000843,-0.011202,-0.000093,-0.109822,-0.483244,-0.038384,-0.867722
63098,NaN,7.448599,-4.508063,7.382595,3.273876,5.791310,-0.536687,0.522816,-2.433103,-0.192067,-0.983643,-0.216064,-0.202637,0.073538,-0.045346,0.074606,0.999922,0.002614,-0.012165,-0.000960,-0.109837,-0.494025,-0.039771,-0.861564
63099,NaN,6.875379,-3.940981,7.293518,3.603042,5.120209,-1.049368,0.723763,-2.003424,-0.211338,-0.989990,-0.216064,-0.183594,0.067978,-0.039747,0.073475,0.999943,0.003619,-0.010017,-0.001057,-0.109534,-0.503039,-0.041964,-0.856267
63100,NaN,5.123112,-2.678612,6.303337,3.518517,3.550790,-2.872650,0.661849,-1.420872,-0.057644,-0.994141,-0.216309,-0.172852,0.050774,-0.027010,0.063306,0.999969,0.003309,-0.007104,-0.000288,-0.108398,-0.509469,-0.044157,-0.852491
63101,NaN,2.963434,-1.230317,4.537420,2.825029,1.716036,-5.345251,0.487550,-1.039716,0.150925,-0.994141,-0.216309,-0.164551,0.029407,-0.012392,0.045497,0.999983,0.002438,-0.005199,0.000755,-0.106994,-0.514211,-0.044809,-0.849783
63102,NaN,-0.114490,0.405502,2.374978,2.100457,-0.500639,-8.737769,0.261290,-0.949467,0.411746,-0.998291,-0.214111,-0.143311,-0.001266,0.004021,0.023749,0.999986,0.001306,-0.004747,0.002059,-0.104771,-0.518482,-0.044345,-0.847486
63103,NaN,-2.729823,1.913920,0.272290,1.177945,-2.475766,-11.728936,0.194974,-1.556356,0.687057,-1.004883,-0.205566,-0.128662,-0.027384,0.019043,0.002529,0.999963,0.000975,-0.007782,0.003435,-0.101945,-0.525302,-0.042092,-0.843738
63104,NaN,1.367704,2.739585,-1.824883,-2.554004,-2.319024,-8.915404,0.389729,-2.360830,0.836465,-1.005127,-0.197021,-0.109619,0.013776,0.027489,-0.018033,0.999920,0.001949,-0.011804,0.004182,-0.097869,-0.535606,-0.040325,-0.837808
63105,NaN,2.817577,4.231632,-1.388588,-2.876502,-3.519323,-7.145688,0.522014,-2.565270,0.962545,-1.020020,-0.186523,-0.086426,0.028146,0.042487,-0.013414,0.999903,0.002610,-0.012826,0.004813,-0.093137,-0.546739,-0.038279,-0.831226
63106,NaN,4.693531,5.009055,-0.124957,-2.407389,-4.013364,-4.789705,0.517939,-2.791212,1.108530,-1.013672,-0.182373,-0.046387,0.046667,0.050352,-0.000467,0.999884,0.002590,-0.013956,0.005542,-0.087625,-0.558741,-0.036089,-0.823910
63107,NaN,7.276559,5.211013,1.141871,-1.986215,-3.874788,-1.910672,0.381692,-2.926457,1.259269,-1.016357,-0.163086,-0.023193,0.072257,0.052543,0.012579,0.999871,0.001908,-0.014632,0.006296,-0.082001,-0.571129,-0.032587,-0.816104
63108,NaN,9.900414,4.490828,2.365245,-1.362280,-2.905248,0.839673,0.178768,-3.074314,1.367232,-1.020752,-0.150391,0.010498,0.098315,0.045560,0.025208,0.999858,0.000894,-0.015371,0.006836,-0.076388,-0.583900,-0.028140,-0.807734
63109,NaN,12.660790,3.478502,3.354908,-0.817227,-1.715025,3.604630,-0.069772,-3.086310,1.450570,-1.016846,-0.133301,0.044189,0.125813,0.035712,0.035482,0.999855,-0.000349,-0.015431,0.007252,-0.071213,-0.596477,-0.022278,-0.799155
63110,NaN,13.859596,1.785724,4.563612,0.556291,-0.169762,4.875622,-0.334933,-2.925945,1.399118,-1.023193,-0.129150,0.069580,0.137779,0.018902,0.047625,0.999867,-0.001675,-0.014629,0.006995,-0.066925,-0.608136,-0.015714,-0.790851
63111,NaN,13.959069,-0.165755,5.767334,2.272235,1.468114,5.046930,-0.552752,-2.883523,1.073576,-1.015137,-0.114258,0.094971,0.138746,-0.000748,0.059681,0.999878,-0.002764,-0.014417,0.005368,-0.064616,-0.619381,-0.009169,-0.782374
63112,NaN,14.501015,-0.704207,6.058832,2.872334,1.832378,5.545119,-0.979182,-2.442717,0.678455,-1.017090,-0.114258,0.111816,0.144278,-0.006249,0.062385,0.999908,-0.004896,-0.012213,0.003392,-0.065088,-0.628604,-0.002439,-0.774993
63113,NaN,13.026520,-1.805987,5.398036,2.931204,2.643109,3.844040,-1.552673,-1.577850,0.337678,-1.017334,-0.107910,0.126465,0.129863,-0.017415,0.055143,0.999937,-0.007763,-0.007889,0.001688,-0.068724,-0.634164,0.005325,-0.770120
63114,NaN,11.096702,-2.803019,3.988339,2.215725,3.449476,1.593000,-1.828971,-0.921039,0.009074,-1.016846,-0.120605,0.128662,0.110782,-0.027656,0.040648,0.999948,-0.009145,-0.004605,0.000045,-0.074448,-0.637059,0.012722,-0.767106
63115,NaN,9.673236,-4.049718,1.485999,0.317783,4.769935,-0.361462,-1.558451,-0.463136,-0.197786,-1.016846,-0.120605,0.130859,0.096657,-0.040474,0.015399,0.999966,-0.007792,-0.002316,-0.000989,-0.080216,-0.638205,0.018496,-0.765453
63116,NaN,9.356930,-3.722381,-0.603789,-1.628682,4.682395,-1.026612,-0.570538,-0.374825,-0.119938,-1.016846,-0.120850,0.139404,0.093558,-0.037297,-0.005756,0.999994,-0.002853,-0.001874,-0.000600,-0.082448,-0.639428,0.020456,-0.764144
63117,NaN,11.347273,-5.043327,-1.308315,-2.410378,6.262577,0.717150,0.850993,-0.581729,0.200381,-1.016846,-0.116455,0.143555,0.113561,-0.050264,-0.012967,0.999986,0.004255,-0.002909,0.001002,-0.079025,-0.641944,0.018466,-0.762445
63118,NaN,13.432701,-5.923073,0.037877,-1.309672,7.117905,2.960004,1.961993,-0.836113,0.363091,-1.014893,-0.107910,0.158203,0.134433,-0.058990,0.000361,0.999941,0.009810,-0.004180,0.001815,-0.071249,-0.645846,0.012491,-0.760034
63119,NaN,14.473282,-6.674891,2.148144,0.658269,7.696849,4.292965,2.119648,-0.531717,0.295951,-1.019531,-0.101562,0.160400,0.144775,-0.066760,0.021159,0.999939,0.010598,-0.002659,0.001480,-0.063429,-0.648565,0.006140,-0.758487
63120,NaN,10.583870,-7.372558,3.773075,2.836416,7.928209,0.661389,1.329719,-0.000632,0.043448,-1.017334,-0.097168,0.162354,0.105855,-0.073951,0.037240,0.999978,0.006649,-0.000003,0.000217,-0.058938,-0.648984,0.001248,-0.758515
63121,NaN,9.727259,-5.292866,4.697739,3.610334,5.745579,0.119886,0.206197,0.643415,-0.162815,-1.019531,-0.099365,0.151855,0.097380,-0.053056,0.046610,0.999994,0.001031,0.003217,-0.000814,-0.059143,-0.646589,0.000499,-0.760542
63122,NaN,8.090974,-2.034620,5.329311,4.113267,2.337778,-1.116702,-0.479986,1.103823,-0.338727,-1.021484,-0.105713,0.141357,0.081168,-0.020356,0.052894,0.999980,-0.002400,0.005519,-0.001694,-0.061971,-0.642248,0.000913,-0.763987
63123,NaN,9.719364,0.608745,3.399973,1.599229,0.035066,0.377343,-0.071923,0.997725,-0.254638,-1.017334,-0.107910,0.137207,0.097369,0.005976,0.033512,0.999987,-0.000360,0.004989,-0.001273,-0.063464,-0.638356,0.000882,-0.767120
63124,NaN,25.562959,4.900959,0.832741,-4.216073,-2.463340,15.767269,1.390299,0.471548,0.011600,-1.019287,-0.107910,0.130859,0.255646,0.048968,0.008065,0.999973,0.006951,0.002358,0.000058,-0.058969,-0.636982,-0.004553,-0.768606
63125,NaN,30.877948,13.972577,0.327816,-6.516206,-10.851310,21.628901,2.494859,1.293867,-0.480903,-1.023682,-0.105713,0.122314,0.309134,0.138944,0.003016,0.999898,0.012474,0.006469,-0.002404,-0.053131,-0.632653,-0.015286,-0.772459
63126,NaN,11.582972,14.340089,1.831459,-1.255364,-13.056003,3.268282,2.679616,1.353175,-1.223825,-1.025635,-0.116455,0.115967,0.116832,0.142433,0.019439,0.999869,0.013397,0.006766,-0.006119,-0.049258,-0.627973,-0.029853,-0.776101
63127,NaN,3.420318,6.302367,4.716846,3.672603,-5.891019,-4.765642,1.322716,0.786953,-1.221200,-1.029541,-0.125000,0.111816,0.034772,0.062499,0.047447,0.999952,0.006613,0.003935,-0.006106,-0.049879,-0.625056,-0.038584,-0.778029
63128,NaN,1.317975,3.730193,3.375922,2.888961,-3.540498,-7.329389,-0.404059,0.557255,-0.838803,-1.018799,-0.133545,0.103516,0.013430,0.037314,0.033647,0.999985,-0.002020,0.002786,-0.004194,-0.054283,-0.622627,-0.039762,-0.779620
63129,NaN,1.104759,2.651419,1.892375,1.495846,-2.497668,-7.980852,-0.902379,0.056862,-0.247703,-1.027100,-0.133545,0.105713,0.011086,0.026585,0.018801,0.999989,-0.004512,0.000284,-0.001239,-0.058157,-0.622095,-0.036726,-0.779915
63130,NaN,5.574151,2.427056,2.008585,0.622526,-1.690494,-3.668522,-0.968866,-0.266312,0.224462,-1.022949,-0.135742,0.103516,0.055687,0.024430,0.020042,0.999987,-0.004844,-0.001332,0.001122,-0.060330,-0.622896,-0.032161,-0.779312
63131,NaN,9.527617,4.086542,1.146104,-1.172559,-2.828240,0.158008,-0.989048,-0.367696,0.423356,-1.031738,-0.127197,0.111816,0.095168,0.041124,0.011433,0.999984,-0.004945,-0.001838,0.002117,-0.061897,-0.624059,-0.026637,-0.778466
63132,NaN,14.757228,6.309587,-0.498093,-4.010141,-4.355611,5.113183,-0.582237,-0.566391,0.448977,-1.023193,-0.127197,0.116211,0.147444,0.063413,-0.004748,0.999989,-0.002911,-0.002832,0.002245,-0.062027,-0.626147,-0.022784,-0.776900
63133,NaN,15.825576,5.775017,-2.018728,-5.624614,-3.689127,5.763846,-0.154295,-0.500495,0.323765,-1.029785,-0.118652,0.120361,0.158212,0.057991,-0.019836,0.999995,-0.000771,-0.002502,0.001619,-0.061345,-0.628067,-0.020877,-0.775456
63134,NaN,13.857279,2.397268,-1.327513,-4.256924,-0.643137,3.640865,-0.038753,-0.390503,0.092470,-1.027588,-0.120605,0.124512,0.138587,0.024034,-0.013009,0.999998,-0.000194,-0.001953,0.000462,-0.061135,-0.629589,-0.020306,-0.774253
63135,NaN,10.903443,1.753284,0.899609,-1.404820,-0.465650,1.168111,-0.099360,-0.286626,-0.089584,-1.029541,-0.125000,0.126709,0.109029,0.017489,0.009144,0.999999,-0.000497,-0.001433,-0.000448,-0.061835,-0.630685,-0.020039,-0.773312
63136,NaN,8.637742,4.009170,2.912497,0.876177,-3.068146,-0.379479,-0.353461,-0.391066,-0.130401,-1.027344,-0.125000,0.130859,0.086346,0.040087,0.029223,0.999996,-0.001767,-0.001955,-0.000652,-0.063479,-0.632083,-0.018952,-0.772064
63137,NaN,8.347305,3.818432,3.237033,1.288818,-2.939257,-0.623785,-0.513818,-0.557284,-0.062255,-1.027100,-0.131348,0.135254,0.083395,0.038242,0.032505,0.999993,-0.002569,-0.002786,-0.000311,-0.065387,-0.634086,-0.016965,-0.770306
63138,NaN,8.199309,2.486295,3.699548,1.914976,-1.683043,-0.835108,-0.441892,-0.726498,0.013552,-1.018799,-0.127197,0.141602,0.081856,0.024951,0.037238,0.999991,-0.002209,-0.003632,0.000068,-0.066783,-0.636746,-0.014972,-0.768031
63139,NaN,8.413905,1.759061,4.021886,2.311657,-0.980915,-0.660788,-0.301725,-0.805243,0.069650,-1.020752,-0.129395,0.152100,0.083970,0.017681,0.040531,0.999991,-0.001509,-0.004026,0.000348,-0.067505,-0.639744,-0.013355,-0.765501
63140,NaN,8.664466,2.125963,3.618271,1.910997,-1.313779,-0.468914,-0.178582,-0.867999,0.124038,-1.027100,-0.131592,0.156250,0.086473,0.021346,0.036539,0.999990,-0.000893,-0.004340,0.000620,-0.067645,-0.643018,-0.011971,-0.762764
63141,NaN,9.028598,2.729186,2.940743,1.203162,-1.848433,-0.182150,-0.303469,-0.814825,0.136527,-1.023193,-0.120850,0.160400,0.090147,0.027398,0.029733,0.999990,-0.001517,-0.004074,0.000683,-0.068107,-0.646013,-0.010157,-0.760214
63142,NaN,9.188852,1.940105,2.349473,0.724906,-1.036444,-0.214820,-0.556143,-0.632309,0.156443,-1.018555,-0.129395,0.166992,0.091798,0.019539,0.023731,0.999991,-0.002781,-0.003162,0.000782,-0.069327,-0.648240,-0.007312,-0.758239
63143,NaN,9.088740,0.428264,2.535307,1.103615,0.401902,-0.440562,-0.552801,-0.344910,0.186367,-1.022949,-0.127197,0.168945,0.090839,0.004438,0.025498,0.999994,-0.002764,-0.001725,0.000932,-0.070372,-0.649335,-0.004576,-0.757226
63144,NaN,8.415371,-0.429969,3.328403,2.085941,1.079385,-1.062525,-0.164994,-0.089196,0.213380,-1.020996,-0.123047,0.166748,0.084143,-0.004182,0.033325,0.999999,-0.000825,-0.000446,0.001067,-0.070088,-0.649629,-0.003216,-0.757007
63145,NaN,7.792884,-0.783954,4.179050,3.048349,1.276719,-1.573414,0.394725,0.049398,0.224850,-1.020996,-0.118652,0.173096,0.077948,-0.007834,0.041756,0.999997,0.001974,0.000247,0.001124,-0.067908,-0.649546,-0.004067,-0.757273
63146,NaN,7.789849,-0.474509,4.433439,3.259589,0.959597,-1.505071,0.743620,0.120848,0.161376,-1.020996,-0.116455,0.166748,0.077929,-0.004847,0.044269,0.999993,0.003718,0.000604,0.000807,-0.064865,-0.649349,-0.006388,-0.757692
63147,NaN,8.140768,0.105572,4.062751,2.772502,0.477641,-1.159702,0.735479,0.285383,-0.012463,-1.027344,-0.118652,0.171143,0.081466,0.000902,0.040515,0.999992,0.003677,0.001427,-0.000062,-0.062476,-0.648445,-0.009346,-0.758636
63148,NaN,8.503680,0.671654,3.303063,1.890177,0.043740,-0.862888,0.446542,0.558753,-0.279493,-1.025146,-0.123047,0.164795,0.085138,0.006524,0.032808,0.999993,0.002233,0.002794,-0.001397,-0.062048,-0.646458,-0.012110,-0.760326
63149,NaN,8.646009,0.723102,2.626028,1.132946,0.099364,-0.819461,-0.000956,0.946232,-0.538292,-1.022949,-0.127197,0.154297,0.086602,0.006998,0.025851,0.999985,-0.000005,0.004731,-0.002691,-0.064004,-0.642746,-0.014180,-0.763270
63150,NaN,8.488835,0.318312,1.327642,-0.181958,0.620280,-1.239181,-0.461712,1.345838,-0.724953,-1.033203,-0.142090,0.139648,0.084986,0.002905,0.012698,0.999968,-0.002309,0.006729,-0.003625,-0.068143,-0.637400,-0.015167,-0.767364
63151,NaN,7.603493,-0.570322,0.296202,-1.084172,1.519990,-2.414147,-0.784288,1.913945,-0.744829,-1.035400,-0.142090,0.112061,0.076037,-0.005977,0.002257,0.999940,-0.003921,0.009570,-0.003724,-0.073319,-0.629617,-0.015215,-0.773289
63152,NaN,6.631984,-0.684916,0.109570,-1.191959,1.578784,-3.444850,-0.745683,2.047523,-0.794236,-1.030762,-0.156982,0.091064,0.066299,-0.007110,0.000443,0.999933,-0.003728,0.010237,-0.003971,-0.078563,-0.621335,-0.015571,-0.779441
63153,NaN,6.617578,-1.728013,0.532799,-0.800731,2.634720,-3.529589,-0.516899,2.355219,-0.780005,-1.041504,-0.161133,0.070068,0.066165,-0.017526,0.004594,0.999920,-0.002584,0.011776,-0.003900,-0.082996,-0.611769,-0.016893,-0.786489
63154,NaN,6.830195,-1.698018,0.898893,-0.646692,2.674040,-3.272688,-0.128854,2.449729,-0.855455,-1.034912,-0.171875,0.044678,0.068332,-0.017267,0.008163,0.999916,-0.000644,0.012248,-0.004277,-0.086527,-0.601969,-0.020008,-0.793565
63155,NaN,8.397706,-1.402615,0.838648,-1.317367,2.727090,-1.811720,0.152012,2.410130,-1.062960,-1.041016,-0.182617,0.021484,0.083994,-0.014478,0.007363,0.999913,0.000760,0.012050,-0.005315,-0.090041,-0.592262,-0.024783,-0.800315
63156,NaN,10.446891,-1.023315,1.091211,-1.907718,2.822797,0.175342,0.118592,2.449967,-1.324431,-1.038574,-0.195312,-0.003906,0.104521,-0.010931,0.009626,0.999903,0.000593,0.012249,-0.006622,-0.094663,-0.582301,-0.030270,-0.806875
63157,NaN,12.454147,-0.653530,1.106790,-2.804813,3.015645,2.010401,-0.005302,2.557233,-1.492459,-1.038330,-0.210205,-0.033203,0.124616,-0.007465,0.009475,0.999890,-0.000027,0.012786,-0.007462,-0.100335,-0.571662,-0.035679,-0.813549
63158,NaN,14.134537,0.624272,0.380607,-4.524955,2.362198,3.387525,-0.253307,3.055595,-1.392757,-1.031494,-0.225098,-0.062744,0.141420,0.005261,0.001639,0.999858,-0.001266,0.015277,-0.006963,-0.106151,-0.558788,-0.040147,-0.821508
63159,NaN,13.657785,0.967452,0.905649,-4.322017,2.100726,3.039446,-0.400079,3.434148,-1.232312,-1.029297,-0.237793,-0.100830,0.136762,0.008847,0.006691,0.999832,-0.002000,0.017170,-0.006161,-0.111689,-0.544136,-0.043592,-0.830387
63160,NaN,12.125156,1.707682,1.609550,-3.607341,1.157877,1.941300,-0.366355,3.448194,-0.944236,-1.022949,-0.241943,-0.134521,0.121584,0.016530,0.013970,0.999839,-0.001832,0.017240,-0.004721,-0.115822,-0.529333,-0.046548,-0.839181
63161,NaN,9.313006,2.922141,2.772118,-1.926883,-0.651746,0.127620,-0.241265,3.114739,-0.432078,-1.016602,-0.246338,-0.159912,0.093609,0.029052,0.026231,0.999876,-0.001206,0.015573,-0.002160,-0.117624,-0.516005,-0.048283,-0.847096
63162,NaN,8.461275,3.029795,3.759504,-0.954921,-0.954333,-0.164895,0.039109,2.421758,-0.060192,-1.016602,-0.246094,-0.178955,0.085069,0.030265,0.036573,0.999927,0.000196,0.012108,-0.000301,-0.117170,-0.505731,-0.050015,-0.853233
63163,NaN,10.516936,2.560294,4.264572,-1.606449,0.030136,1.709556,0.302055,1.987511,0.081567,-1.014648,-0.246094,-0.195801,0.105576,0.025583,0.041637,0.999949,0.001510,0.009937,0.000408,-0.115640,-0.497484,-0.052087,-0.858151
63164,NaN,11.635134,2.282016,5.534024,-1.213649,0.584949,3.202315,0.450056,1.762611,0.053586,-1.010254,-0.250488,-0.210693,0.116827,0.022728,0.054363,0.999959,0.002250,0.008813,0.000268,-0.113812,-0.490187,-0.054892,-0.862410
63165,NaN,11.124149,2.366122,6.843613,-0.026772,0.403235,3.454373,0.457519,1.229953,-0.051965,-1.012451,-0.250244,-0.225586,0.111666,0.023477,0.067804,0.999978,0.002288,0.006150,-0.000260,-0.112663,-0.485190,-0.057522,-0.865211
63166,NaN,9.914627,2.304958,6.838844,0.481164,0.208444,2.439127,0.313632,0.642661,-0.081430,-1.008057,-0.254639,-0.223389,0.099375,0.022902,0.068105,0.999994,0.001568,0.003213,-0.000407,-0.112054,-0.482572,-0.059429,-0.866624
63167,NaN,8.794475,0.834834,5.988272,0.496439,1.380530,0.758348,0.214902,0.063240,-0.052677,-1.016602,-0.256836,-0.225342,0.087966,0.008261,0.059864,0.999999,0.001075,0.000316,-0.000263,-0.111832,-0.482470,-0.060352,-0.866645
63168,NaN,7.974849,-0.538601,5.050964,0.322768,2.514918,-0.703822,0.134061,-0.431706,0.008647,-1.012451,-0.250244,-0.217041,0.079639,-0.005417,0.050678,0.999997,0.000670,-0.002159,0.000043,-0.111586,-0.484429,-0.060662,-0.865562
63169,NaN,7.412961,-0.960663,4.428319,0.187641,2.776608,-1.582271,0.081697,-0.771068,0.069738,-1.010010,-0.254639,-0.206543,0.073962,-0.009599,0.044565,0.999992,0.000408,-0.003855,0.000349,-0.111424,-0.487897,-0.060214,-0.863664
63170,NaN,6.494533,-0.293808,4.280584,0.503592,1.890427,-2.278711,0.251880,-1.066596,0.150328,-1.012207,-0.250488,-0.195801,0.064718,-0.002944,0.043148,0.999985,0.001259,-0.005333,0.000752,-0.110465,-0.492693,-0.060331,-0.861053
63171,NaN,5.106695,0.229709,4.128961,1.068846,1.028616,-3.411257,0.599632,-1.277336,0.265079,-1.022949,-0.248291,-0.181152,0.050799,0.002240,0.041621,0.999974,0.002998,-0.006387,0.001325,-0.108351,-0.498658,-0.061313,-0.857812
63172,NaN,3.851785,0.982175,4.203106,1.729802,-0.011359,-4.292372,0.877334,-1.511667,0.459869,-1.029297,-0.246338,-0.159912,0.038176,0.009724,0.042363,0.999959,0.004387,-0.007558,0.002299,-0.104636,-0.505750,-0.063099,-0.853983
63173,NaN,2.732044,1.459382,4.594835,2.636203,-0.746182,-4.996156,0.926334,-1.739168,0.699475,-1.031982,-0.227051,-0.143066,0.026868,0.014475,0.046251,0.999945,0.004632,-0.008696,0.003497,-0.099967,-0.513908,-0.064128,-0.849584
63174,NaN,1.620632,1.949423,5.084295,3.619115,-1.482498,-5.692065,0.792970,-1.982847,0.968230,-1.035889,-0.229248,-0.122070,0.015607,0.019369,0.051077,0.999931,0.003965,-0.009914,0.004841,-0.094431,-0.523014,-0.064003,-0.844655
63175,NaN,0.882146,2.707942,5.018204,3.907855,-2.398595,-6.310262,0.649587,-2.245208,1.219057,-1.038330,-0.216553,-0.090332,0.008092,0.026967,0.050363,0.999913,0.003248,-0.011226,0.006095,-0.088389,-0.533171,-0.062274,-0.839070
63176,NaN,0.938124,3.319861,4.174021,3.170181,-3.007333,-6.614592,0.637529,-2.476365,1.451526,-1.045166,-0.201416,-0.064941,0.008622,0.033130,0.041956,0.999892,0.003188,-0.012381,0.007257,-0.081346,-0.544248,-0.059968,-0.832815
63177,NaN,1.487003,3.514167,2.724373,1.718185,-3.126545,-6.770721,0.842082,-2.621958,1.609506,-1.045410,-0.184570,-0.033447,0.014227,0.035142,0.027581,0.999873,0.004210,-0.013109,0.008047,-0.073186,-0.555909,-0.057856,-0.825991
63178,NaN,2.957510,3.419853,1.131290,-0.168580,-2.822382,-6.107870,1.222568,-2.840637,1.753975,-1.050049,-0.169678,-0.003906,0.029107,0.034383,0.011938,0.999842,0.006113,-0.014202,0.008769,-0.063340,-0.568518,-0.056971,-0.818248
63179,NaN,6.434290,3.212337,0.143589,-2.090173,-2.140410,-3.271810,1.504304,-3.062601,1.888217,-1.056885,-0.150391,0.029785,0.064001,0.032712,0.002662,0.999810,0.007521,-0.015312,0.009440,-0.052224,-0.581930,-0.056671,-0.809579
63180,NaN,9.458579,3.185708,0.261538,-2.645484,-1.803878,-0.356624,1.368778,-3.029808,1.927733,-1.059326,-0.129150,0.063477,0.094217,0.032741,0.004267,0.999815,0.006843,-0.015148,0.009638,-0.041273,-0.595001,-0.055790,-0.800723
63181,NaN,10.463792,2.591300,1.061336,-1.833379,-1.227375,0.791656,0.820363,-2.945715,1.845345,-1.057617,-0.109863,0.094971,0.104221,0.026828,0.012259,0.999841,0.004102,-0.014728,0.009226,-0.032269,-0.607374,-0.052896,-0.791996
63182,NaN,10.851793,1.985975,1.548845,-1.139465,-0.733924,1.244268,0.081474,-2.856847,1.623179,-1.058105,-0.092773,0.124512,0.108116,0.020732,0.017043,0.999865,0.000407,-0.014284,0.008116,-0.026330,-0.619058,-0.047811,-0.783446
63183,NaN,11.413251,1.291971,2.605189,0.061824,-0.108021,1.964106,-0.711771,-2.670036,1.273729,-1.051758,-0.084229,0.149658,0.113686,0.013741,0.027524,0.999884,-0.003559,-0.013350,0.006368,-0.024181,-0.629657,-0.040668,-0.775431
63184,NaN,12.243093,0.578753,3.336701,0.898291,0.542124,2.846378,-1.393551,-2.352792,0.882012,-1.049805,-0.080078,0.166504,0.122000,0.006565,0.034760,0.999897,-0.006968,-0.011764,0.004410,-0.025610,-0.638735,-0.032189,-0.768326
63185,NaN,11.977203,0.202954,3.703347,1.555779,0.755403,2.605573,-1.950856,-1.695511,0.500567,-1.047607,-0.080078,0.181396,0.119446,0.002696,0.038023,0.999913,-0.009754,-0.008477,0.002503,-0.030188,-0.645021,-0.022818,-0.763227
63186,NaN,11.250402,0.284607,3.730183,1.849795,0.493388,1.887734,-2.381719,-0.849162,0.196640,-1.049561,-0.088623,0.181396,0.112341,0.003404,0.037741,0.999920,-0.011908,-0.004246,0.000983,-0.037199,-0.647883,-0.012953,-0.760721
63187,NaN,10.791495,0.356761,2.609416,0.864635,0.329458,1.256920,-2.412028,-0.230897,-0.003941,-1.049316,-0.093018,0.175293,0.107885,0.003881,0.026173,0.999927,-0.012060,-0.001154,-0.000020,-0.045039,-0.648250,-0.003683,-0.760085
63188,NaN,10.221970,0.073392,0.200148,-1.381362,0.662733,0.296054,-1.701561,-0.318533,-0.006938,-1.044922,-0.095215,0.183594,0.102216,0.000748,0.002158,0.999963,-0.008508,-0.001593,-0.000035,-0.050570,-0.649063,0.002845,-0.759047
63189,NaN,12.949828,-1.078669,-1.735468,-3.543818,2.128952,2.628426,-0.596021,-0.794435,0.205408,-1.049316,-0.093018,0.187744,0.129577,-0.010704,-0.016808,0.999987,-0.002980,-0.003972,0.001027,-0.051715,-0.651903,0.006049,-0.756512
63190,NaN,17.263723,-3.896509,-0.667125,-2.768112,5.098279,6.920734,0.537794,-0.788106,0.437075,-1.045166,-0.084473,0.196289,0.172747,-0.038571,-0.006095,0.999986,0.002689,-0.003941,0.002185,-0.048270,-0.655011,0.005655,-0.754055
63191,NaN,16.473111,-7.456811,4.051715,2.288772,8.208211,6.642395,1.227040,0.039541,0.315187,-1.047607,-0.080078,0.198242,0.164857,-0.074555,0.040027,0.999980,0.006135,0.000198,0.001576,-0.043092,-0.655146,0.002192,-0.754269
63192,NaN,9.655083,-8.586978,10.277561,9.320585,8.605033,0.754293,1.023716,0.867767,-0.096362,-1.047363,-0.084473,0.187744,0.096953,-0.086440,0.101914,0.999977,0.005119,0.004339,-0.000482,-0.040096,-0.652090,-0.002159,-0.757078
63193,NaN,5.561653,-6.950654,11.600635,10.986606,6.782506,-2.949228,0.993974,0.911407,-0.512904,-1.053955,-0.082275,0.185791,0.055964,-0.070224,0.115404,0.999974,0.004970,0.004557,-0.002564,-0.038856,-0.648794,-0.007503,-0.759935
63194,NaN,5.100566,-4.844534,9.223449,8.519282,4.893924,-3.646129,1.182664,0.209162,-0.729605,-1.047119,-0.095215,0.185791,0.050923,-0.049175,0.091892,0.999975,0.005913,0.001046,-0.003648,-0.037768,-0.648195,-0.014392,-0.760401
63195,NaN,8.116595,-3.333273,-5.022924,-6.099604,4.070962,-2.852682,0.898096,-0.400572,-0.402778,-1.049316,-0.090820,0.192139,0.081199,-0.033271,-0.050216,0.999986,0.004490,-0.002003,-0.002014,-0.036502,-0.649769,-0.018685,-0.759025
63196,NaN,13.130950,8.101246,-10.283254,-12.318005,-6.894440,2.209155,1.398719,-0.804217,-0.101216,-1.045166,-0.088867,0.204834,0.131761,0.081660,-0.101734,0.999967,0.006994,-0.004021,-0.000506,-0.032402,-0.653056,-0.024162,-0.756230
63197,NaN,15.281179,13.093312,-9.511620,-11.677465,-11.865973,4.960244,2.137304,-0.667498,0.054794,-1.042969,-0.084473,0.219482,0.153089,0.131978,-0.093199,0.999937,0.010686,-0.003337,0.000274,-0.025382,-0.655875,-0.031622,-0.753779
63198,NaN,22.837985,13.935682,-2.703602,-5.520784,-12.151253,13.531013,2.551155,-0.844776,0.138034,-1.039062,-0.075928,0.225830,0.228390,0.139836,-0.024290,0.999909,0.012755,-0.004224,0.000690,-0.016612,-0.659355,-0.040661,-0.750547
63199,NaN,25.259791,16.111260,3.213953,0.391854,-13.885397,16.926792,0.642712,0.134729,-0.342200,-1.047363,-0.080322,0.215332,0.252895,0.160576,0.032486,0.999993,0.003214,0.000674,-0.001711,-0.015780,-0.658862,-0.044074,-0.750806
63200,NaN,12.285046,5.655339,6.528588,4.940128,-4.327383,3.692571,-1.500423,0.983936,-0.826148,-1.044922,-0.097412,0.204834,0.123402,0.056529,0.064256,0.999951,-0.007502,0.004920,-0.004131,-0.023592,-0.654846,-0.041226,-0.754268
63201,NaN,7.106470,0.871073,6.164830,5.072403,-0.075252,-1.842143,-2.369695,0.793797,-0.923488,-1.046631,-0.112305,0.202881,0.071350,0.009109,0.061259,0.999911,-0.011848,0.003969,-0.004617,-0.034640,-0.651329,-0.035428,-0.757176
63202,NaN,6.105640,0.278970,2.716993,1.762701,0.339665,-3.369384,-2.451811,0.242557,-0.814155,-1.046143,-0.127441,0.190186,0.061101,0.002873,0.027061,0.999916,-0.012259,0.001213,-0.004071,-0.045646,-0.649797,-0.028824,-0.758188
63203,NaN,6.394251,-0.109226,0.758412,-0.205365,0.787551,-3.424331,-2.257006,-0.265803,-0.545622,-1.041504,-0.138184,0.198730,0.063929,-0.001180,0.007682,0.999932,-0.011285,-0.001329,-0.002728,-0.055050,-0.650152,-0.022004,-0.757488
63204,NaN,8.943470,-0.175743,-1.629931,-2.902999,1.260299,-1.288775,-1.929762,-0.516187,-0.151472,-1.041504,-0.142334,0.198730,0.089475,-0.001981,-0.016050,0.999950,-0.009649,-0.002581,-0.000757,-0.061936,-0.651536,-0.015032,-0.755935
63205,NaN,10.018676,-0.289537,-3.154828,-4.508684,1.613865,-0.459738,-1.329157,-0.361726,0.217844,-1.039307,-0.140137,0.194580,0.100247,-0.002995,-0.031347,0.999976,-0.006646,-0.001809,0.001089,-0.065444,-0.652489,-0.009192,-0.754911
63206,NaN,9.406286,-0.995346,-2.546014,-3.727056,2.197790,-1.024642,-0.500784,-0.294652,0.406936,-1.037354,-0.135986,0.198730,0.094120,-0.009825,-0.025297,0.999994,-0.002504,-0.001473,0.002035,-0.065540,-0.653461,-0.005864,-0.754094
63207,NaN,8.565405,-2.477777,-0.913209,-1.846532,3.418620,-1.735394,0.294662,-0.259397,0.444451,-1.041748,-0.127441,0.198730,0.085721,-0.024574,-0.009057,0.999996,0.001473,-0.001297,0.002222,-0.062903,-0.654568,-0.005405,-0.753362
63208,NaN,8.685331,-1.881666,1.125697,0.107385,2.652918,-1.257382,0.767374,-0.327140,0.437565,-1.039795,-0.125244,0.202881,0.086876,-0.018670,0.011327,0.999989,0.003837,-0.001636,0.002188,-0.058737,-0.656056,-0.006747,-0.752393
63209,NaN,9.697771,-0.590287,3.267143,2.012203,1.303383,0.153330,0.859130,-0.448578,0.379409,-1.044189,-0.120850,0.215576,0.096915,-0.005860,0.032864,0.999986,0.004296,-0.002243,0.001897,-0.054518,-0.658029,-0.008519,-0.750968
63210,NaN,10.098111,0.032145,4.760203,3.441769,0.628239,0.788806,0.767020,-0.523911,0.293733,-1.037842,-0.118896,0.226074,0.100856,0.000286,0.047867,0.999988,0.003835,-0.002620,0.001469,-0.050898,-0.660219,-0.010276,-0.749276
63211,NaN,9.931816,0.166439,4.153687,2.909565,0.509525,0.540878,0.671642,-0.527604,0.249656,-1.038086,-0.110352,0.230225,0.099206,0.001648,0.041804,0.999990,0.003358,-0.002638,0.001248,-0.047784,-0.662388,-0.011743,-0.747543
63212,NaN,9.296760,1.346946,3.226510,2.058557,-0.681446,-0.119803,0.681443,-0.550512,0.236562,-1.040039,-0.110352,0.230225,0.092862,0.013469,0.032567,0.999990,0.003407,-0.002753,0.001183,-0.044659,-0.664625,-0.013362,-0.745721
63213,NaN,9.390806,1.990916,2.657753,1.512886,-1.300280,-0.053857,0.632079,-0.491263,0.236396,-1.035889,-0.108154,0.238770,0.093819,0.019935,0.026871,0.999991,0.003160,-0.002456,0.001182,-0.041714,-0.666606,-0.014739,-0.744096
63214,NaN,9.478735,2.152143,2.601809,1.487859,-1.462367,0.030848,0.493798,-0.232470,0.235764,-1.031982,-0.099609,0.242920,0.094732,0.021569,0.026181,0.999996,0.002469,-0.001162,0.001179,-0.039193,-0.667597,-0.015728,-0.743324
63215,NaN,8.900998,2.200530,2.714774,1.679336,-1.570291,-0.530764,0.471494,0.031572,0.227348,-1.038330,-0.095215,0.240723,0.088989,0.022042,0.027186,0.999997,0.002357,0.000158,0.001137,-0.036766,-0.667577,-0.016670,-0.743446
63216,NaN,8.155994,1.846137,2.950014,2.004490,-1.283102,-1.270632,0.614066,0.214025,0.194187,-1.038330,-0.095215,0.238525,0.081574,0.018450,0.029470,0.999994,0.003070,0.001070,0.000971,-0.033962,-0.666916,-0.018331,-0.744133
63217,NaN,7.514188,1.063922,2.915902,2.045406,-0.543683,-1.962968,0.763578,0.400033,0.141378,-1.034424,-0.088867,0.236328,0.075193,0.010581,0.029049,0.999990,0.003818,0.002000,0.000707,-0.030835,-0.665539,-0.020737,-0.745437
63218,NaN,7.597752,0.724178,2.817323,1.911864,-0.180447,-1.907019,0.860534,0.625031,0.042311,-1.040771,-0.088867,0.228027,0.076064,0.007137,0.027966,0.999986,0.004303,0.003125,0.000212,-0.027734,-0.663347,-0.023886,-0.747416
63219,NaN,7.670799,0.513979,2.645809,1.678250,0.061938,-1.857515,0.930155,0.933914,-0.087666,-1.049316,-0.086670,0.219482,0.076833,0.004984,0.026123,0.999978,0.004651,0.004670,-0.000438,-0.024842,-0.659926,-0.027762,-0.750407
63220,NaN,7.334174,0.659871,1.682767,0.689213,-0.084611,-2.291094,0.956919,1.209623,-0.218237,-1.047363,-0.086670,0.208984,0.073449,0.006439,0.016415,0.999970,0.004785,0.006048,-0.001091,-0.022320,-0.655466,-0.032208,-0.754208
63221,NaN,6.973895,0.974906,0.625443,-0.392008,-0.415795,-2.766443,1.010968,1.391282,-0.354020,-1.045166,-0.084473,0.196289,0.069798,0.009595,0.005818,0.999961,0.005055,0.006956,-0.001770,-0.020093,-0.650207,-0.037318,-0.758574
63222,NaN,6.775084,1.346261,-0.782075,-1.834592,-0.819328,-3.157762,1.037013,1.563632,-0.488077,-1.049316,-0.093018,0.181641,0.067720,0.013339,-0.008281,0.999953,0.005185,0.007818,-0.002440,-0.018265,-0.644269,-0.042980,-0.763372
63223,NaN,7.022431,1.616399,-1.337307,-2.516509,-1.068262,-3.012650,0.830350,1.797474,-0.613477,-1.057861,-0.093018,0.164551,0.070150,0.016006,-0.013937,0.999946,0.004152,0.008987,-0.003067,-0.017520,-0.637285,-0.048277,-0.768915
63224,NaN,7.613746,1.238179,-0.029194,-1.484271,-0.530790,-2.261785,0.627230,2.020679,-0.855080,-1.055420,-0.105713,0.139404,0.076182,0.012059,-0.001023,0.999935,0.003136,0.010103,-0.004275,-0.018305,-0.629334,-0.053574,-0.775070
63225,NaN,9.476098,1.432323,1.006976,-1.025664,-0.398824,-0.239473,0.387081,2.114769,-1.236575,-1.059326,-0.120605,0.122559,0.094947,0.013718,0.009093,0.999923,0.001935,0.010574,-0.006183,-0.021286,-0.620772,-0.059153,-0.781467
63226,NaN,11.270042,1.317689,1.356504,-1.346304,0.071315,1.534693,-0.063948,2.456280,-1.664763,-1.058838,-0.139893,0.093018,0.112960,0.012241,0.012175,0.999890,-0.000320,0.012281,-0.008324,-0.027245,-0.610618,-0.064313,-0.788839
63227,NaN,12.655318,1.308248,1.256927,-2.116434,0.445317,2.787128,-0.533855,2.667307,-2.046635,-1.060547,-0.163330,0.065918,0.126831,0.011816,0.010846,0.999855,-0.002669,0.013336,-0.010233,-0.036064,-0.599264,-0.068811,-0.796773
63228,NaN,14.745042,1.278548,0.464223,-3.883178,0.968545,4.442882,-0.999788,3.250238,-2.095688,-1.057861,-0.188965,0.025879,0.147623,0.011254,0.002185,0.999801,-0.004999,0.016250,-0.010478,-0.046268,-0.585307,-0.071668,-0.806312
63229,NaN,14.720453,0.085889,1.604119,-3.315945,2.469823,4.405093,-1.140352,3.717381,-1.972742,-1.057373,-0.206055,-0.012207,0.147468,-0.000514,0.013302,0.999762,-0.005701,0.018585,-0.009863,-0.056202,-0.569216,-0.073672,-0.816949
63230,NaN,13.681736,-0.293136,3.392053,-1.792471,2.983065,3.849136,-0.775648,3.596505,-1.725103,-1.052979,-0.220947,-0.054199,0.137367,-0.003989,0.031468,0.999794,-0.003878,0.017981,-0.008625,-0.064104,-0.553567,-0.076397,-0.826812
63231,NaN,12.366073,-0.113309,4.603188,-0.632413,2.799935,3.066194,-0.210148,3.200092,-1.316446,-1.048584,-0.227295,-0.081787,0.124365,-0.001903,0.044047,0.999850,-0.001051,0.016000,-0.006582,-0.068904,-0.539713,-0.080126,-0.835190
63232,NaN,9.838062,0.616379,4.835068,0.242495,1.721457,1.027777,0.300749,2.559933,-0.850312,-1.043945,-0.248535,-0.102783,0.099014,0.005672,0.047095,0.999908,0.001504,0.012799,-0.004251,-0.070595,-0.528748,-0.084540,-0.841602
63233,NaN,7.780368,0.983703,4.862332,0.919133,1.029296,-0.689267,0.722584,1.943908,-0.493556,-1.041992,-0.239990,-0.115479,0.078295,0.009470,0.047899,0.999943,0.003613,0.009719,-0.002468,-0.069961,-0.520623,-0.089478,-0.846198
63234,NaN,8.799266,0.571925,5.779892,1.141050,1.806711,0.511696,1.036853,1.332449,-0.351409,-1.037598,-0.250732,-0.124023,0.088385,0.005266,0.057239,0.999963,0.005184,0.006662,-0.001757,-0.068134,-0.515183,-0.095231,-0.849044
63235,NaN,10.404541,0.464338,6.499738,0.925668,2.426831,2.185985,1.265284,0.907580,-0.360706,-1.039551,-0.257080,-0.128174,0.104347,0.004046,0.064551,0.999968,0.006326,0.004538,-0.001804,-0.066004,-0.511607,-0.101734,-0.850619
63236,NaN,10.697348,0.533415,6.575332,0.763475,2.548868,2.470288,1.275828,0.670907,-0.305518,-1.032959,-0.259277,-0.125977,0.107201,0.004752,0.065426,0.999973,0.006379,0.003355,-0.001528,-0.063680,-0.509017,-0.108149,-0.851557
63237,NaN,9.473326,1.409121,6.663647,1.367206,1.547753,1.670694,1.085048,0.388241,-0.255427,-1.035156,-0.261230,-0.130127,0.094880,0.013609,0.066527,0.999983,0.005425,0.001941,-0.001277,-0.061841,-0.507594,-0.113411,-0.851858
63238,NaN,7.800190,1.831731,6.100526,1.666607,0.773268,0.088767,0.755160,-0.067684,-0.129885,-1.028564,-0.261475,-0.121826,0.077993,0.018036,0.061100,0.999993,0.003776,-0.000338,-0.000649,-0.060500,-0.508051,-0.116925,-0.851207
63239,NaN,6.531673,1.653631,5.121001,1.445359,0.568426,-1.493471,0.532536,-0.634713,-0.002424,-1.039307,-0.261475,-0.111084,0.065154,0.016399,0.051461,0.999991,0.002663,-0.003174,-0.000012,-0.059577,-0.510930,-0.118863,-0.849278
63240,NaN,5.753467,1.728793,4.549038,1.383013,0.261414,-2.409776,0.537910,-1.104921,0.162416,-1.034912,-0.265625,-0.100586,0.057268,0.017212,0.045854,0.999981,0.002690,-0.005525,0.000812,-0.058152,-0.515882,-0.120390,-0.846162
63241,NaN,4.685439,2.379730,4.776620,2.191760,-0.560382,-3.081146,0.716959,-1.396023,0.352464,-1.039062,-0.261475,-0.079346,0.046477,0.023707,0.048177,0.999968,0.003585,-0.006980,0.001762,-0.055696,-0.522206,-0.121962,-0.842214
63242,NaN,3.537335,2.718191,5.392832,3.379391,-1.033742,-3.771694,0.945329,-1.549628,0.562552,-1.039062,-0.259277,-0.064697,0.034877,0.027024,0.054328,0.999955,0.004727,-0.007748,0.002813,-0.051785,-0.529326,-0.124025,-0.837705
63243,NaN,2.822653,2.587252,6.354219,4.665662,-0.893616,-4.114582,1.083343,-1.673009,0.801312,-1.041748,-0.240234,-0.041504,0.027590,0.025638,0.063914,0.999942,0.005417,-0.008365,0.004006,-0.046628,-0.537074,-0.125876,-0.832786
63244,NaN,2.310029,2.343659,6.746847,5.339865,-0.675538,-4.580466,1.131250,-1.727361,1.072577,-1.048096,-0.233887,-0.022461,0.022391,0.023175,0.067795,0.999932,0.005656,-0.008637,0.005363,-0.040193,-0.545181,-0.127283,-0.827624
63245,NaN,1.488687,2.180414,5.882262,4.974846,-0.802015,-5.790604,1.181177,-1.781155,1.344225,-1.052734,-0.218750,-0.003662,0.014216,0.021553,0.059079,0.999920,0.005906,-0.008906,0.006721,-0.032557,-0.553560,-0.128033,-0.822264
63246,NaN,0.398612,1.647838,3.789105,3.503354,-0.837504,-7.749774,1.306865,-1.942423,1.637823,-1.055420,-0.197510,0.028076,0.003483,0.016260,0.038033,0.999898,0.006534,-0.009712,0.008189,-0.023431,-0.562763,-0.128532,-0.816228
63247,NaN,1.210693,0.954356,1.006402,0.616705,-0.519335,-8.157669,1.483520,-2.327922,1.862815,-1.055664,-0.180420,0.053223,0.011899,0.009579,0.010274,0.999861,0.007417,-0.011639,0.009314,-0.013149,-0.573487,-0.128970,-0.808892
63248,NaN,3.571836,0.255008,-1.435734,-2.478485,0.045791,-6.856727,1.614392,-2.660534,2.056878,-1.056396,-0.152588,0.082520,0.035875,0.003032,-0.013858,0.999826,0.008071,-0.013302,0.010284,-0.001900,-0.585591,-0.129392,-0.800210
63249,NaN,5.820166,-0.731256,-2.232553,-3.958108,1.090525,-5.065828,1.646647,-2.853989,2.229307,-1.061279,-0.129150,0.118408,0.058588,-0.006481,-0.021547,0.999802,0.008233,-0.014269,0.011146,0.009995,-0.598290,-0.129322,-0.790712
63250,NaN,8.009000,-0.699634,-1.998314,-4.161183,1.282404,-2.765840,1.613805,-3.010598,2.292282,-1.055176,-0.112305,0.149902,0.080451,-0.005921,-0.018825,0.999788,0.008068,-0.015052,0.011461,0.021951,-0.611478,-0.128956,-0.780374
63251,NaN,9.475407,-0.388962,-1.325827,-3.565062,1.167187,-1.003063,1.518787,-2.995375,2.196998,-1.051758,-0.080078,0.185547,0.094973,-0.002753,-0.011861,0.999799,0.007593,-0.014976,0.010984,0.033223,-0.624258,-0.128367,-0.769883
63252,NaN,10.192604,-0.182227,-0.642126,-2.715214,1.067626,-0.024357,1.461302,-2.907314,2.016175,-1.048096,-0.061035,0.212891,0.102016,-0.000754,-0.004947,0.999817,0.007306,-0.014536,0.010080,0.043687,-0.636397,-0.128146,-0.759387
63253,NaN,10.676802,-0.486838,0.590983,-1.382570,1.598331,0.680420,1.325173,-2.639863,1.725949,-1.039795,-0.043945,0.240234,0.106715,-0.003993,0.007290,0.999854,0.006626,-0.013199,0.008629,0.052745,-0.647130,-0.128123,-0.749684
63254,NaN,10.560526,-1.026936,1.991845,0.120186,2.390583,0.714043,1.033710,-2.181910,1.361969,-1.038086,-0.026855,0.263428,0.105447,-0.009658,0.021018,0.999904,0.005168,-0.010909,0.006810,0.059807,-0.655857,-0.128141,-0.741522
63255,NaN,9.124107,-1.410942,2.748048,1.141228,2.800304,-0.666900,0.729197,-1.738574,0.981145,-1.034180,-0.018311,0.280273,0.091066,-0.013764,0.028222,0.999944,0.003646,-0.008693,0.004906,0.064700,-0.662669,-0.127993,-0.735052
63256,NaN,7.381918,-0.719712,3.048742,1.946710,2.069762,-2.313962,0.459900,-1.390937,0.693395,-1.030029,-0.009766,0.290771,0.073629,-0.007012,0.030984,0.999967,0.002299,-0.006955,0.003467,0.067894,-0.668065,-0.127818,-0.729892
63257,NaN,5.981964,0.151308,3.102216,2.459332,1.144363,-3.642422,0.469723,-1.078001,0.440865,-1.023926,-0.003418,0.297119,0.059648,0.001571,0.031348,0.999980,0.002349,-0.005390,0.002204,0.070361,-0.672094,-0.128253,-0.725872
63258,NaN,5.417617,0.428070,2.900662,2.452754,0.797859,-4.218519,0.865710,-0.986158,0.248962,-1.025879,-0.003418,0.309814,0.054027,0.004222,0.029292,0.999978,0.004329,-0.004931,0.001245,0.073553,-0.675524,-0.130888,-0.721890
63259,NaN,7.332529,1.554073,1.267560,1.143912,-0.582777,-2.320122,1.681003,-1.207536,0.192091,-1.015869,0.013672,0.320068,0.073232,0.015501,0.013248,0.999946,0.008405,-0.006038,0.000960,0.079112,-0.679328,-0.136571,-0.716661
63260,NaN,12.667280,2.419877,0.950544,0.928567,-1.060346,3.041406,2.583524,-1.443006,0.207377,-1.009521,0.017822,0.345459,0.126573,0.024197,0.010732,0.999890,0.012917,-0.007215,0.001037,0.087650,-0.683554,-0.145665,-0.709826
63261,NaN,18.642202,4.380144,-1.102907,-0.359414,-3.052441,9.120686,2.850996,-1.552425,0.108763,-1.001465,0.037109,0.355957,0.186473,0.044040,-0.008955,0.999868,0.014254,-0.007762,0.000544,0.096625,-0.687775,-0.155917,-0.702366
63262,NaN,17.584928,4.064737,-3.651097,-2.461475,-3.669162,8.063345,1.915337,-1.268169,0.008898,-0.997314,0.043457,0.362061,0.176073,0.040995,-0.035003,0.999934,0.009576,-0.006341,0.000044,0.102261,-0.691276,-0.163201,-0.696452
63263,NaN,15.733610,4.361103,-0.853953,0.459064,-3.021562,6.248261,0.139820,-0.281563,-0.206989,-1.003418,0.034912,0.366455,0.157393,0.043454,-0.008288,0.999998,0.000699,-0.001408,-0.001035,0.101792,-0.691991,-0.164434,-0.695520
63264,NaN,12.464577,4.673492,2.619689,3.830553,-2.289641,2.999537,-1.294365,0.444163,-0.513807,-0.992432,0.022217,0.364258,0.124823,0.046581,0.025618,0.999973,-0.006472,0.002221,-0.002569,0.095902,-0.690675,-0.161466,-0.698355
63265,NaN,12.667978,4.411984,3.434091,4.374501,-1.759643,3.206623,-1.584448,0.361637,-0.490371,-0.996826,0.020020,0.353760,0.126849,0.044078,0.033762,0.999964,-0.007922,0.001808,-0.002452,0.089010,-0.689713,-0.157378,-0.701146
63266,NaN,12.024676,1.613338,5.263555,5.082861,1.382314,2.318018,-1.054569,0.299445,-0.122855,-1.002686,0.007080,0.351807,0.120335,0.016336,0.052370,0.999985,-0.005273,0.001497,-0.000614,0.085190,-0.689037,-0.153954,-0.703043
63267,NaN,10.529479,-2.417070,2.489733,1.176560,4.051713,0.439633,-0.427700,-0.009760,0.319865,-1.002686,0.009277,0.355957,0.105332,-0.023949,0.024954,0.999996,-0.002138,-0.000049,0.001599,0.084850,-0.689430,-0.151299,-0.703275
63268,NaN,11.178280,-2.642338,-0.973587,-2.144051,3.137722,1.070370,0.151272,-0.454099,0.577530,-0.996582,0.015625,0.358154,0.111880,-0.026093,-0.009502,0.999993,0.000756,-0.002270,0.002888,0.087071,-0.691405,-0.150017,-0.701336
63269,NaN,12.237019,-1.447642,-0.957699,-1.693183,2.056360,2.256326,0.698908,-0.561496,0.645349,-1.001221,0.030762,0.362305,0.122442,-0.014049,-0.009283,0.999985,0.003495,-0.002807,0.003227,0.091329,-0.693490,-0.150379,-0.698654
63270,NaN,12.102582,-0.499457,-0.244175,-0.609893,1.341879,2.212619,1.242043,-0.654868,0.624764,-0.992920,0.039307,0.376953,0.121048,-0.004603,-0.002075,0.999970,0.006210,-0.003274,0.003124,0.097336,-0.695670,-0.152831,-0.695135
63271,NaN,11.195209,0.823880,-0.024146,0.176102,0.073812,1.411141,1.498011,-0.837954,0.573415,-0.993408,0.052002,0.383301,0.111927,0.008559,0.000291,0.999959,0.007490,-0.004190,0.002867,0.103903,-0.698217,-0.156324,-0.690840
63272,NaN,10.581113,2.155269,0.248999,1.048702,-1.125237,0.878404,1.384279,-0.981429,0.569901,-0.980713,0.058594,0.389404,0.105735,0.021834,0.003159,0.999960,0.006921,-0.004907,0.002849,0.109947,-0.701315,-0.159604,-0.685999
63273,NaN,11.205789,3.370694,0.431903,1.827461,-2.146222,1.552603,0.908220,-0.987054,0.647856,-0.979004,0.075684,0.399902,0.111924,0.034048,0.005026,0.999972,0.004541,-0.004935,0.003239,0.114564,-0.704654,-0.160874,-0.681511
63274,NaN,12.704091,3.200940,0.269026,1.794707,-1.971556,3.017053,0.404498,-0.884934,0.730802,-0.977051,0.082031,0.408203,0.126909,0.032467,0.003317,0.999981,0.002022,-0.004425,0.003654,0.117779,-0.708023,-0.160166,-0.677627
63275,NaN,13.065342,2.431167,0.469086,1.830431,-1.210512,3.302810,0.026601,-0.759718,0.763950,-0.972900,0.088379,0.416748,0.130540,0.024810,0.005190,0.999985,0.000133,-0.003799,0.003820,0.119869,-0.711123,-0.157921,-0.674534
63276,NaN,12.527793,1.263327,0.422893,1.444677,-0.239957,2.700272,-0.126280,-0.806045,0.769122,-0.968994,0.099121,0.420898,0.125210,0.013118,0.004725,0.999984,-0.000631,-0.004030,0.003846,0.121389,-0.714524,-0.155226,-0.671286
63277,NaN,11.992338,0.527509,0.787224,1.602283,0.495398,2.099474,-0.040693,-0.943174,0.796684,-0.962646,0.099121,0.427002,0.119862,0.005754,0.008436,0.999981,-0.000203,-0.004716,0.003983,0.123202,-0.718250,-0.152754,-0.667536
63278,NaN,11.540193,0.216994,1.692489,2.431928,1.062011,1.547049,0.381788,-1.058910,0.797476,-0.958740,0.116211,0.439697,0.115300,0.002597,0.017540,0.999976,0.001909,-0.005295,0.003987,0.126436,-0.722151,-0.151797,-0.662925
63279,NaN,11.175311,0.805478,2.290022,3.325499,0.703028,1.106349,0.895957,-1.128427,0.837145,-0.957031,0.128906,0.452148,0.111587,0.008418,0.023567,0.999965,0.004480,-0.005642,0.004186,0.131600,-0.725856,-0.152394,-0.657716
63280,NaN,10.650462,1.297037,2.813862,4.097209,0.420250,0.486187,1.253349,-1.098141,0.891313,-0.944336,0.135498,0.464844,0.106289,0.013265,0.028805,0.999955,0.006267,-0.005491,0.004457,0.138250,-0.729299,-0.153980,-0.652151
63281,NaN,10.546769,2.515128,3.326966,5.184615,-0.494167,0.262152,1.297066,-0.987700,0.939615,-0.940674,0.154785,0.462646,0.105182,0.025427,0.033954,0.999956,0.006485,-0.004938,0.004698,0.145298,-0.732228,-0.155404,-0.646978
63282,NaN,10.119089,3.564103,3.563585,5.921562,-1.367304,-0.280557,1.176031,-0.848073,0.992207,-0.928467,0.171875,0.475098,0.100860,0.035930,0.036275,0.999961,0.005880,-0.004240,0.004961,0.152161,-0.734869,-0.156170,-0.642204
63283,NaN,8.683381,3.832199,3.369730,5.795314,-1.747594,-1.762793,1.059072,-0.672361,1.039567,-0.935303,0.188965,0.472900,0.086519,0.038592,0.034192,0.999967,0.005295,-0.003362,0.005198,0.158898,-0.736891,-0.156241,-0.638226
63284,NaN,7.919290,3.835645,2.883888,5.355825,-1.994639,-2.527111,1.021237,-0.530134,1.067272,-0.920898,0.201660,0.481201,0.078910,0.038629,0.029245,0.999969,0.005106,-0.002651,0.005336,0.165660,-0.738591,-0.155967,-0.634597
63285,NaN,7.654845,3.348573,2.324631,4.686340,-1.830418,-2.748659,0.953241,-0.421274,1.035290,-0.923584,0.218994,0.483154,0.076325,0.033769,0.023568,0.999973,0.004766,-0.002106,0.005176,0.172187,-0.739775,-0.155553,-0.631576
63286,NaN,8.194220,2.763175,1.618397,3.955561,-1.646953,-2.128932,0.753707,-0.344369,0.868046,-0.917480,0.227539,0.480957,0.081793,0.027925,0.016430,0.999982,0.003769,-0.001722,0.004340,0.177457,-0.740884,-0.154999,-0.628947
63287,NaN,8.723764,1.935439,0.811348,3.007326,-1.309578,-1.461101,0.549458,-0.142739,0.621276,-0.917480,0.233887,0.485107,0.087171,0.019603,0.008229,0.999991,0.002747,-0.000714,0.003106,0.181390,-0.741155,-0.154624,-0.627597
63288,NaN,8.816538,1.231308,0.513838,2.463359,-0.856201,-1.285660,0.510817,0.195567,0.376726,-0.921875,0.238281,0.476562,0.088147,0.012466,0.005084,0.999994,0.002554,0.000978,0.001884,0.184628,-0.740374,-0.154636,-0.627572
63289,NaN,8.311120,1.024441,1.356123,2.997890,-0.306992,-1.882903,0.569477,0.649825,0.129927,-0.924316,0.246826,0.466064,0.083148,0.010260,0.013320,0.999990,0.002847,0.003249,0.000650,0.187668,-0.737729,-0.155420,-0.629588
63290,NaN,7.959418,0.844788,3.364402,4.545562,0.783543,-2.456853,0.592661,1.141075,-0.154154,-0.930664,0.242676,0.453369,0.079791,0.008288,0.033214,0.999979,0.002963,0.005705,-0.000771,0.190265,-0.733454,-0.156763,-0.633459
63291,NaN,7.170572,0.722038,4.683108,5.414085,1.520244,-3.313105,0.567733,1.666530,-0.391627,-0.945801,0.246826,0.436523,0.072107,0.006948,0.046251,0.999959,0.002839,0.008333,-0.001958,0.192460,-0.727083,-0.158526,-0.639671
63292,NaN,5.946059,-0.406315,4.381696,4.332764,2.369544,-4.305413,0.583283,2.114903,-0.491834,-0.956299,0.240479,0.417480,0.059909,-0.004337,0.043173,0.999937,0.002916,0.010574,-0.002459,0.194684,-0.719330,-0.160118,-0.647321
63293,NaN,5.229655,-1.526064,2.053891,1.556582,2.201880,-4.652885,0.560045,2.468401,-0.492471,-0.969238,0.247070,0.392090,0.052506,-0.015446,0.019849,0.999917,0.002800,0.012342,-0.002462,0.197118,-0.710096,-0.161403,-0.656398
63294,NaN,5.337167,-2.720799,-0.347347,-1.245422,2.012044,-4.298418,0.221960,2.844744,-0.508294,-0.983887,0.234375,0.366943,0.053245,-0.027339,-0.004262,0.999895,0.001110,0.014223,-0.002541,0.198526,-0.700064,-0.161099,-0.666742
63295,NaN,7.132123,-4.515321,-0.453700,-2.298576,3.390557,-2.418250,-0.181486,3.090911,-0.668795,-0.996582,0.225830,0.333252,0.071089,-0.045396,-0.005596,0.999875,-0.000907,0.015454,-0.003344,0.198207,-0.689067,-0.159844,-0.678491
63296,NaN,10.404356,-5.189019,-1.536785,-3.753880,3.222841,0.819775,-0.297593,3.308105,-0.928046,-1.009033,0.215332,0.301758,0.103529,-0.052396,-0.017005,0.999851,-0.001488,0.016540,-0.004640,0.196662,-0.677303,-0.158714,-0.690937
63297,NaN,13.195245,-5.491946,-3.330867,-5.902845,2.370759,3.411636,0.189773,3.591488,-1.094408,-1.026123,0.208984,0.270020,0.131022,-0.055605,-0.035720,0.999823,0.000949,0.017956,-0.005472,0.196309,-0.663501,-0.159514,-0.704120
63298,NaN,15.402191,-4.701990,-3.239531,-6.067994,1.448733,5.381926,1.181908,3.601312,-1.155333,-1.034424,0.200439,0.223633,0.153128,-0.047703,-0.035439,0.999804,0.005909,0.018005,-0.005776,0.199010,-0.648619,-0.163926,-0.716113
63299,NaN,17.775385,-1.299503,-0.276460,-2.646748,-0.341558,7.810231,2.085360,3.451728,-1.542952,-1.049316,0.191895,0.185791,0.177562,-0.014314,-0.005975,0.999767,0.010426,0.017257,-0.007714,0.203070,-0.632574,-0.172912,-0.727127
63300,NaN,21.723403,-0.187539,2.918477,-0.571799,0.021166,12.097933,2.519450,2.977611,-1.931984,-1.052979,0.170654,0.160400,0.217602,-0.004316,0.025903,0.999763,0.012596,0.014887,-0.009659,0.206556,-0.617379,-0.185101,-0.736149
63301,NaN,23.601163,0.095847,5.889280,0.904693,1.363129,14.455817,2.458845,2.536750,-2.295136,-1.065430,0.153564,0.135254,0.236718,-0.002455,0.055877,0.999778,0.012293,0.012683,-0.011475,0.208019,-0.603085,-0.198536,-0.744043
63302,NaN,21.347306,0.344778,6.800626,1.353632,2.104479,12.452731,2.155175,2.197757,-2.756281,-1.066895,0.132324,0.110107,0.214217,-0.000217,0.065666,0.999787,0.010775,0.010988,-0.013780,0.206417,-0.589811,-0.212521,-0.751232
63303,NaN,20.705361,-2.519893,7.051540,-0.713054,4.986578,11.619770,1.609587,1.930742,-2.998374,-1.074707,0.100098,0.080811,0.207306,-0.028861,0.068292,0.999809,0.008047,0.009653,-0.014991,0.201924,-0.577474,-0.225297,-0.758282
63304,NaN,19.727624,-3.882256,6.202190,-2.605096,5.998555,10.184922,0.749049,1.549375,-3.062556,-1.080078,0.068115,0.072510,0.197120,-0.042070,0.060341,0.999846,0.003745,0.007746,-0.015312,0.194206,-0.567314,-0.235366,-0.764881
63305,NaN,20.106145,-5.862204,2.822257,-6.994209,5.975870,9.211625,0.833211,0.804561,-2.760496,-1.087891,0.042480,0.068604,0.200336,-0.061505,0.027163,0.999888,0.004166,0.004023,-0.013802,0.186929,-0.559968,-0.245455,-0.768924
63306,NaN,20.437496,-1.026764,2.135296,-5.268469,2.006787,9.973737,0.971025,0.115547,-2.191604,-1.074463,0.020996,0.066650,0.204258,-0.012609,0.021177,0.999928,0.004855,0.000578,-0.010958,0.181367,-0.555895,-0.255184,-0.770044
63307,NaN,18.603937,1.366609,1.660986,-3.999065,0.087019,8.482673,0.957918,0.603668,-1.931426,-1.082520,0.005859,0.062500,0.186208,0.011790,0.016107,0.999937,0.004789,0.003018,-0.009657,0.177316,-0.550104,-0.263499,-0.772343
63308,NaN,13.397271,1.351008,3.911908,-0.869787,1.572951,4.093254,0.977613,1.044773,-1.950966,-1.079590,-0.019775,0.050049,0.134297,0.012012,0.038479,0.999927,0.004888,0.005224,-0.009755,0.173852,-0.542601,-0.271679,-0.775597
63309,NaN,10.906046,1.589526,4.787243,0.499818,1.986572,2.027146,0.127709,1.430293,-2.256312,-1.079102,-0.039062,0.031006,0.109569,0.014631,0.047100,0.999911,0.000639,0.007151,-0.011281,0.167331,-0.533745,-0.276840,-0.781329
63310,NaN,11.391119,4.761854,3.936352,1.140235,-0.959192,3.059687,-1.200060,1.469147,-2.133948,-1.080811,-0.062500,0.012207,0.114696,0.046629,0.038241,0.999898,-0.006000,0.007345,-0.010669,0.157826,-0.526011,-0.276574,-0.788612
63311,NaN,10.923837,6.434412,2.301689,0.658221,-3.312082,2.621735,-2.014710,1.573255,-1.857596,-1.080322,-0.079590,-0.006592,0.110004,0.063546,0.021511,0.999875,-0.010073,0.007866,-0.009288,0.147312,-0.518675,-0.272050,-0.797035
63312,NaN,8.655976,6.532563,1.586526,0.782517,-3.978232,0.369162,-2.003849,1.699590,-1.532432,-1.073486,-0.094482,-0.021240,0.087185,0.064809,0.014475,0.999884,-0.010019,0.008498,-0.007662,0.138321,-0.511243,-0.266740,-0.805201
63313,NaN,5.528926,4.904840,1.766730,1.245289,-2.754278,-2.840687,-1.184852,1.386524,-1.172859,-1.073242,-0.107422,-0.040283,0.055695,0.048825,0.016992,0.999941,-0.005924,0.006932,-0.005864,0.132379,-0.504788,-0.263841,-0.811205
63314,NaN,3.508761,3.017000,2.771651,1.901739,-0.746805,-4.820585,-0.031020,0.740128,-0.909760,-1.074951,-0.117920,-0.044434,0.035327,0.030014,0.027581,0.999983,-0.000155,0.003701,-0.004549,0.129604,-0.500606,-0.265502,-0.813698
63315,NaN,3.045985,1.256536,3.315409,1.642095,1.010315,-5.554582,0.612118,0.127717,-0.713473,-1.070801,-0.122314,-0.046631,0.030525,0.012355,0.033173,0.999989,0.003061,0.000639,-0.003567,0.128377,-0.498628,-0.269564,-0.813772
63316,NaN,3.058924,-0.271577,3.480090,1.014792,2.391968,-5.966858,0.368249,-0.257157,-0.508733,-1.070557,-0.128662,-0.040039,0.030537,-0.002858,0.034835,0.999994,0.001841,-0.001286,-0.002544,0.126896,-0.498758,-0.272479,-0.812953
63317,NaN,2.993702,-0.857485,3.477814,0.775687,2.879272,-6.220926,-0.491688,-0.515737,-0.232480,-1.070557,-0.128662,-0.040039,0.029837,-0.008524,0.034876,0.999993,-0.002458,-0.002579,-0.001162,0.123994,-0.500735,-0.271245,-0.812599
63318,NaN,2.576848,-0.661501,2.928865,0.692136,2.369992,-6.720788,-1.243012,-0.723310,0.109126,-1.068359,-0.128662,-0.025391,0.025666,-0.006418,0.029422,0.999974,-0.006215,-0.003617,0.000546,0.120360,-0.504587,-0.266347,-0.812382
63319,NaN,1.510977,-0.433511,2.461680,0.984014,1.820631,-7.751708,-1.473088,-0.975000,0.459938,-1.070801,-0.115967,-0.023438,0.014999,-0.004119,0.024721,0.999958,-0.007365,-0.004875,0.002300,0.117177,-0.509916,-0.259614,-0.811699
63320,NaN,0.236172,-0.199406,2.141065,1.459296,1.329831,-8.928626,-1.434705,-1.168753,0.780552,-1.068604,-0.115967,-0.010742,0.002244,-0.001831,0.021438,0.999950,-0.007173,-0.005844,0.003903,0.115184,-0.516495,-0.252457,-0.810081
63321,NaN,-1.021239,-0.079552,1.970863,1.952155,1.021903,-10.092480,-1.202506,-1.347032,1.019619,-1.073242,-0.098877,-0.002197,-0.010341,-0.000730,0.019644,0.999946,-0.006012,-0.006735,0.005098,0.114473,-0.523789,-0.245539,-0.807621
63322,NaN,-1.437528,-0.945665,1.172053,1.112137,1.308167,-10.990100,-0.708811,-1.486573,1.207383,-1.073730,-0.085938,0.018799,-0.014405,-0.009502,0.011647,0.999948,-0.003544,-0.007433,0.006037,0.115680,-0.531660,-0.240336,-0.803862
63323,NaN,-1.390253,-1.358109,0.084427,0.019399,1.114768,-11.406806,-0.056069,-1.618158,1.356145,-1.078125,-0.073242,0.022949,-0.013816,-0.013675,0.000736,0.999944,-0.000280,-0.008091,0.006781,0.119007,-0.539676,-0.237247,-0.798938
63324,NaN,-0.991651,0.463504,-0.212557,0.412647,-0.570151,-10.677559,0.553684,-1.868881,1.395682,-1.074219,-0.060547,0.050293,-0.009928,0.004572,-0.002206,0.999928,0.002768,-0.009344,0.006978,0.123870,-0.548435,-0.236770,-0.792348
63325,NaN,-0.270061,2.371332,0.755185,1.804006,-1.658397,-9.301297,0.814638,-2.265333,1.327216,-1.070557,-0.041260,0.077637,-0.002944,0.023663,0.007616,0.999906,0.004073,-0.011326,0.006636,0.128648,-0.558306,-0.237560,-0.784417
63326,NaN,2.264225,3.419701,2.555974,2.956474,-1.442837,-6.272916,0.653868,-2.709104,1.136929,-1.066162,-0.037109,0.103027,0.022098,0.034239,0.025973,0.999887,0.003269,-0.013545,0.005684,0.131719,-0.569804,-0.238648,-0.775255
63327,NaN,7.308062,6.274133,5.324541,5.184347,-2.052892,-0.324641,0.147843,-2.992183,0.869500,-1.068604,-0.022217,0.132324,0.071999,0.063016,0.054375,0.999878,0.000739,-0.014960,0.004347,0.131918,-0.582145,-0.238530,-0.766035
63328,NaN,15.263242,7.766819,7.698168,5.927849,-1.431849,7.945304,-0.447955,-2.518574,0.542484,-1.064209,-0.024414,0.153564,0.151437,0.078255,0.078719,0.999915,-0.002240,-0.012593,0.002712,0.129695,-0.592690,-0.236857,-0.758813
63329,NaN,21.677375,6.871957,9.664702,5.746375,0.897593,14.202084,-0.903401,-0.949647,0.006660,-1.064209,-0.024414,0.153564,0.216310,0.069165,0.097363,0.999979,-0.004517,-0.004748,0.000033,0.125925,-0.596713,-0.233898,-0.757211
63330,NaN,20.291855,7.458690,9.610535,6.304174,0.259043,12.989477,-0.263671,0.742115,-0.802014,-1.066162,-0.037109,0.140869,0.203570,0.073897,0.095253,0.999984,-0.001318,0.003711,-0.004010,0.122986,-0.593128,-0.234802,-0.760225
63331,NaN,14.509227,2.658378,9.427832,5.109406,3.871460,6.477043,1.183040,1.956596,-1.564501,-1.069824,-0.052002,0.124268,0.146205,0.024890,0.093002,0.999904,0.005915,0.009783,-0.007822,0.122842,-0.582871,-0.242603,-0.765712
63332,NaN,13.421677,-1.506320,4.292821,-1.231227,4.824379,3.455055,2.424726,1.857989,-1.549866,-1.067627,-0.060547,0.113770,0.134482,-0.016613,0.041485,0.999853,0.012123,0.009289,-0.007749,0.126229,-0.572309,-0.255206,-0.769024
63333,NaN,38.123405,4.951691,-0.515401,-10.012970,-0.749760,27.300054,3.074125,0.752477,0.029747,-1.072266,-0.045654,0.096680,0.381206,0.049660,-0.005826,0.999875,0.015370,0.003762,0.000149,0.136079,-0.567253,-0.266288,-0.767331
63334,NaN,32.851092,-7.083478,-7.984773,-20.724846,4.008539,17.527161,2.511744,2.088185,0.309824,-1.078857,-0.047607,0.079834,0.327755,-0.069288,-0.084149,0.999865,0.012558,0.010440,0.001549,0.147173,-0.557875,-0.273570,-0.769594
63335,NaN,12.809225,-17.720446,2.012486,-12.290881,16.416608,-1.966830,0.137187,2.636359,-0.755821,-1.078613,-0.056152,0.052490,0.127671,-0.177700,0.018318,0.999906,0.000686,0.013181,-0.003779,0.148252,-0.546425,-0.274057,-0.777389
63336,NaN,2.130399,-18.714368,2.921777,-8.269927,17.022820,-12.076051,-1.949075,1.772483,-1.299152,-1.073975,-0.075439,0.033447,0.020358,-0.186983,0.030857,0.999892,-0.009745,0.008862,-0.006496,0.140311,-0.539148,-0.268668,-0.785780
63337,NaN,-0.197257,-10.619755,3.238691,-2.706120,10.548405,-11.982760,-2.239469,0.264677,-1.049003,-1.073486,-0.086182,0.039795,-0.002484,-0.105814,0.033576,0.999923,-0.011197,0.001323,-0.005245,0.130403,-0.538220,-0.262115,-0.790322
63338,NaN,1.739488,-6.771530,-0.341101,-4.207580,5.582319,-10.171860,-1.235364,-0.235131,-0.554086,-1.069336,-0.086182,0.027100,0.017211,-0.067782,-0.002972,0.999976,-0.006177,-0.001176,-0.002770,0.124599,-0.539222,-0.258852,-0.791650
63339,NaN,1.577446,-7.490309,-3.884853,-7.278704,4.209750,-11.539459,1.852948,-0.318783,-0.155779,-1.075684,-0.086182,0.046143,0.015779,-0.074551,-0.039515,0.999956,0.009265,-0.001594,-0.000779,0.128449,-0.539138,-0.266336,-0.788604
63340,NaN,3.485565,-4.955405,-4.642678,-7.436470,1.622063,-9.249601,5.301797,-1.077936,0.473902,-1.071533,-0.077637,0.069336,0.035225,-0.048221,-0.047528,0.999631,0.026506,-0.005389,0.002369,0.143146,-0.540422,-0.286535,-0.778043
63341,NaN,8.568121,1.619137,-4.546495,-5.595537,-3.332795,-2.446145,6.554427,-2.265658,1.189488,-1.072266,-0.049805,0.096680,0.086081,0.018159,-0.043917,0.999381,0.032765,-0.011326,0.005946,0.162050,-0.546013,-0.309767,-0.761350
63342,NaN,18.053598,6.262974,-4.430990,-5.428899,-5.888313,8.091366,5.819291,-2.744221,1.840969,-1.064453,-0.020020,0.128174,0.180510,0.065497,-0.039955,0.999440,0.029091,-0.013719,0.009203,0.180622,-0.554296,-0.328919,-0.742929
63343,NaN,19.996179,5.235036,-5.669179,-6.636120,-5.741134,9.740242,4.730660,-2.216486,1.981262,-1.067139,0.003418,0.151367,0.200024,0.055618,-0.053185,0.999610,0.023650,-0.011081,0.009905,0.197312,-0.561410,-0.342415,-0.727076
63344,NaN,17.992512,2.452623,-3.639721,-5.796439,-2.534218,7.592535,3.401949,-1.951891,1.659019,-1.054932,0.022705,0.174316,0.180051,0.026614,-0.034199,0.999773,0.017008,-0.009759,0.008294,0.209525,-0.567871,-0.351952,-0.713969
63345,NaN,15.886143,1.413335,-1.067200,-3.779502,-0.067431,5.718029,1.985435,-2.068446,1.068424,-1.051270,0.044189,0.195312,0.158881,0.015076,-0.008882,0.999883,0.009927,-0.010342,0.005342,0.215258,-0.575115,-0.357716,-0.703524
63346,NaN,13.399105,3.495156,-2.546607,-2.329339,-2.633668,3.820549,0.978082,-2.253041,0.462242,-1.046875,0.041992,0.216309,0.134184,0.035381,-0.023783,0.999922,0.004890,-0.011265,0.002311,0.215670,-0.582780,-0.362202,-0.694740
63347,NaN,10.554258,3.098339,-3.526691,-2.372624,-3.306034,0.997733,0.672210,-1.979566,0.564956,-1.049316,0.054688,0.237549,0.105796,0.031398,-0.034116,0.999941,0.003361,-0.009898,0.002825,0.215953,-0.590060,-0.364597,-0.687214
63348,NaN,9.343839,2.234981,-2.626517,-1.956060,-2.138844,-0.283983,0.950383,-1.724722,1.024181,-1.034668,0.067627,0.247803,0.093543,0.022951,-0.025351,0.999938,0.004752,-0.008623,0.005121,0.219138,-0.596802,-0.366657,-0.679241
63349,NaN,8.438644,2.799838,-1.981653,-0.736944,-2.089426,-0.977312,1.449451,-1.495148,1.396504,-1.041748,0.088867,0.262451,0.084332,0.028727,-0.018980,0.999921,0.007247,-0.007476,0.006982,0.225421,-0.602945,-0.368638,-0.670633
63350,NaN,7.804221,2.669590,-1.751904,-0.357452,-1.901923,-1.605829,1.957609,-1.216441,1.677620,-1.027344,0.112549,0.272949,0.077917,0.027516,-0.016778,0.999898,0.009788,-0.006082,0.008388,0.234702,-0.607860,-0.371454,-0.661395
63351,NaN,6.668214,1.521770,-1.221549,-0.523179,-0.950263,-2.950216,2.336511,-1.039148,1.825713,-1.026123,0.140381,0.274902,0.066600,0.015965,-0.011686,0.999877,0.011682,-0.005196,0.009128,0.245867,-0.612005,-0.374441,-0.651762
63352,NaN,5.690362,-1.131639,0.176213,-1.463687,1.589010,-4.425332,2.933579,-1.282770,1.804918,-1.018311,0.166016,0.291504,0.056991,-0.010830,0.001966,0.999831,0.014667,-0.006413,0.009024,0.258301,-0.615866,-0.379967,-0.640011
63353,NaN,6.226153,-3.202357,0.294384,-3.014887,2.925490,-4.203957,3.312152,-1.928091,1.591732,-1.008301,0.187256,0.301758,0.062485,-0.031576,0.003020,0.999785,0.016560,-0.009640,0.007958,0.269870,-0.620786,-0.387708,-0.625681
63354,NaN,9.440222,-2.894948,-2.129616,-4.265883,1.216925,-0.737954,2.839082,-2.092401,1.257102,-1.002686,0.212891,0.322754,0.094799,-0.028058,-0.020708,0.999825,0.014195,-0.010461,0.006285,0.278529,-0.625842,-0.395418,-0.611872
63355,NaN,11.164155,-1.906593,-4.566341,-4.652133,-1.060259,1.427998,2.012222,-1.508987,0.978884,-0.994629,0.228027,0.326904,0.112073,-0.018063,-0.045004,0.999909,0.010061,-0.007545,0.004894,0.284817,-0.629691,-0.400190,-0.601845
63356,NaN,10.882294,-0.516898,-4.711879,-3.324590,-1.942398,1.415139,1.768484,-0.902276,0.851909,-0.990723,0.242920,0.337402,0.109054,-0.004291,-0.046668,0.999942,0.008842,-0.004511,0.004259,0.291143,-0.631569,-0.404065,-0.594212
63357,NaN,9.326714,0.600281,-2.819844,-1.158538,-1.165830,-0.190020,2.273018,-0.693644,0.902169,-0.984863,0.262207,0.334961,0.093335,0.006741,-0.027801,0.999919,0.011365,-0.003468,0.004511,0.299591,-0.632261,-0.408564,-0.586145
63358,NaN,8.062821,1.467046,-1.191715,0.590420,-0.381462,-1.561311,2.830382,-0.890425,1.011000,-0.979248,0.283691,0.339111,0.080603,0.015241,-0.011345,0.999877,0.014151,-0.004452,0.005055,0.309662,-0.632633,-0.414921,-0.575956
63359,NaN,7.883016,1.830210,-0.154970,1.553710,0.380355,-1.878296,3.011932,-1.125298,1.044076,-0.973389,0.300781,0.341064,0.078739,0.018729,-0.000827,0.999857,0.015059,-0.005626,0.005220,0.319841,-0.633452,-0.421603,-0.564528
63360,NaN,8.303124,2.005864,-0.004089,1.926177,0.600185,-1.512551,2.947351,-1.194539,1.035076,-0.969727,0.320068,0.343018,0.082923,0.020481,0.000754,0.999860,0.014736,-0.005972,0.005175,0.329550,-0.634219,-0.428469,-0.552790
63361,NaN,9.206788,2.575886,-0.370766,2.466271,0.297335,-0.573458,2.742264,-1.094218,0.987104,-0.957520,0.341553,0.344971,0.091956,0.026256,-0.002847,0.999879,0.013711,-0.005471,0.004935,0.338620,-0.634915,-0.434310,-0.541843
63362,NaN,9.337130,3.368384,-0.715814,3.222479,-0.196722,-0.399175,2.392959,-0.859061,0.935031,-0.959961,0.354248,0.353271,0.093241,0.034199,-0.006350,0.999908,0.011964,-0.004295,0.004675,0.346868,-0.635180,-0.439213,-0.532279
63363,NaN,8.795223,3.746670,-0.119433,3.913035,0.189695,-1.091582,2.069526,-0.672382,0.928894,-0.952148,0.373779,0.342529,0.087779,0.037882,-0.000508,0.999930,0.010347,-0.003362,0.004644,0.354445,-0.635512,-0.442564,-0.524051
63364,NaN,8.370075,3.901210,0.838610,4.481946,1.016118,-1.759193,1.850796,-0.644740,0.904689,-0.946045,0.388672,0.346680,0.083495,0.039309,0.009018,0.999942,0.009254,-0.003224,0.004523,0.361264,-0.635904,-0.445630,-0.516264
63365,NaN,7.942407,4.042682,1.636890,4.940149,1.700909,-2.409658,1.674595,-0.658599,0.848207,-0.937988,0.397217,0.338135,0.079197,0.040623,0.016970,0.999951,0.008373,-0.003293,0.004241,0.367328,-0.636550,-0.448099,-0.509001
63366,NaN,8.277636,4.109877,1.565450,5.078706,1.765621,-2.134865,1.480958,-0.647419,0.729831,-0.932129,0.416504,0.344238,0.082574,0.041282,0.016227,0.999961,0.007405,-0.003237,0.003649,0.372448,-0.637106,-0.450690,-0.502252
63367,NaN,8.608614,4.086340,0.913873,4.957575,1.313705,-1.729558,1.352016,-0.635370,0.611500,-0.930420,0.427246,0.342041,0.085931,0.041062,0.009689,0.999967,0.006760,-0.003177,0.003057,0.376881,-0.637632,-0.452994,-0.496168
63368,NaN,9.329184,4.109293,0.123251,4.893123,0.802245,-0.904962,1.343235,-0.626880,0.565446,-0.921875,0.429443,0.343994,0.093170,0.041346,0.001802,0.999969,0.006716,-0.003134,0.002827,0.381148,-0.637935,-0.455664,-0.490036
63369,NaN,10.072648,4.175353,0.005143,5.083703,0.906758,-0.209346,1.334691,-0.599289,0.567127,-0.917969,0.437988,0.337646,0.100606,0.042036,0.000633,0.999969,0.006673,-0.002996,0.002836,0.385452,-0.638201,-0.457961,-0.484147
63370,NaN,10.507272,3.588938,0.524183,4.787380,1.731888,0.068528,1.204433,-0.565516,0.554237,-0.914062,0.452881,0.343994,0.104957,0.036147,0.005756,0.999974,0.006022,-0.002828,0.002771,0.389345,-0.638520,-0.460159,-0.478494
63371,NaN,10.807335,2.597883,1.120563,4.086562,2.685153,0.231841,0.926480,-0.437756,0.441026,-0.909912,0.452881,0.339600,0.107991,0.026164,0.011563,0.999984,0.004632,-0.002189,0.002205,0.392376,-0.638816,-0.461536,-0.474278
63372,NaN,11.137888,1.955372,0.972027,3.521068,2.834255,0.598346,0.776488,-0.336331,0.357524,-0.912354,0.463623,0.345947,0.111327,0.019714,0.009984,0.999989,0.003882,-0.001682,0.001788,0.394938,-0.638927,-0.462864,-0.470695
63373,NaN,11.273092,2.009110,0.696132,3.566480,2.620057,0.771216,0.699462,-0.277193,0.298263,-0.912354,0.465820,0.331055,0.112691,0.020234,0.007188,0.999992,0.003497,-0.001386,0.001491,0.397258,-0.638919,-0.463825,-0.467798
63374,NaN,11.011606,1.991641,0.410986,3.481561,2.328394,0.572312,0.597803,-0.210412,0.187531,-0.906006,0.465820,0.339600,0.110093,0.020007,0.004285,0.999995,0.002989,-0.001052,0.000938,0.399129,-0.638675,-0.465012,-0.465354
63375,NaN,11.116228,1.943057,0.172648,3.414859,2.160150,0.725254,0.545871,-0.190984,0.059473,-0.906250,0.474365,0.326904,0.111155,0.019459,0.001886,0.999996,0.002729,-0.000955,0.000297,0.400596,-0.638179,-0.466204,-0.463578
63376,NaN,11.746194,1.744210,0.753944,3.437680,2.928953,1.195822,0.557150,-0.188957,-0.097605,-0.908447,0.474365,0.328857,0.117463,0.017363,0.007699,0.999996,0.002786,-0.000945,-0.000488,0.401719,-0.637290,-0.468156,-0.461859
63377,NaN,12.509072,1.178659,1.274682,3.080457,3.753569,1.845452,0.607411,-0.117127,-0.318957,-0.906006,0.465820,0.328857,0.125102,0.011548,0.012855,0.999994,0.003037,-0.000586,-0.001595,0.402682,-0.635589,-0.470540,-0.460940
63378,NaN,13.514606,0.382046,1.488750,2.423268,4.395245,2.829142,0.695557,0.030853,-0.572668,-0.912598,0.468018,0.326904,0.135158,0.003382,0.014879,0.999990,0.003478,0.000154,-0.002863,0.403655,-0.632784,-0.473868,-0.460539
63379,NaN,14.707714,-0.952002,1.113625,1.094502,4.605819,4.189107,0.768937,0.257554,-0.821729,-0.920898,0.459473,0.316406,0.147050,-0.010166,0.010909,0.999983,0.003845,0.001288,-0.004109,0.404816,-0.628694,-0.477421,-0.461451
63380,NaN,15.652154,-2.402862,0.224133,-0.539787,4.240173,5.436573,0.773438,0.634611,-1.056721,-0.918457,0.450928,0.303711,0.156398,-0.024862,0.001650,0.999974,0.003867,0.003173,-0.005284,0.406327,-0.623146,-0.481202,-0.463715
63381,NaN,15.310976,-2.931940,0.648964,-1.219997,4.556650,5.059630,0.723561,1.076907,-1.241910,-0.928955,0.442383,0.293213,0.152955,-0.030291,0.005557,0.999960,0.003618,0.005384,-0.006209,0.408302,-0.616168,-0.484239,-0.468123
63382,NaN,12.940815,-2.823854,2.574557,-1.216744,5.715231,2.349371,0.571628,1.497516,-1.471825,-0.939209,0.431641,0.274414,0.129383,-0.029262,0.024694,0.999941,0.002858,0.007487,-0.007359,0.410234,-0.607918,-0.486997,-0.474318
63383,NaN,11.636514,-3.454086,2.626061,-2.163297,5.427318,1.145907,0.511679,2.055022,-1.629901,-0.951416,0.412598,0.253418,0.116339,-0.035554,0.024975,0.999911,0.002558,0.010275,-0.008149,0.412915,-0.597994,-0.488557,-0.482924
63384,NaN,11.591403,-5.824833,1.608405,-4.929242,4.622758,1.376439,0.664472,2.376501,-1.757356,-0.961914,0.399658,0.221924,0.115575,-0.059315,0.014513,0.999885,0.003322,0.011882,-0.008786,0.416432,-0.586545,-0.490425,-0.491968
63385,NaN,12.803027,-9.196266,1.397331,-8.538301,4.840596,2.600308,1.001037,2.938173,-1.855568,-0.983154,0.391357,0.188232,0.127352,-0.093208,0.011635,0.999837,0.005005,0.014690,-0.009277,0.421950,-0.572626,-0.491746,-0.502238
63386,NaN,14.350516,-11.556388,0.343577,-11.338372,3.890074,4.182873,1.417296,3.185977,-1.503099,-0.993408,0.376465,0.152344,0.142653,-0.116648,0.000335,0.999820,0.007086,0.015929,-0.007515,0.430007,-0.557860,-0.492770,-0.510944
63387,NaN,13.993652,-11.023043,-2.650614,-11.515085,0.212474,4.031897,1.602947,3.321300,-1.342518,-1.003906,0.370117,0.114502,0.138718,-0.110935,-0.029704,0.999807,0.008014,0.016605,-0.006712,0.439181,-0.542583,-0.492939,-0.519361
63388,NaN,14.917976,-8.985675,-6.038464,-10.156635,-3.971038,5.045986,2.007468,3.165867,-1.451086,-1.011963,0.350830,0.076416,0.147535,-0.090303,-0.063634,0.999798,0.010037,0.015828,-0.007255,0.448590,-0.526291,-0.495009,-0.526070
63389,NaN,14.473050,-6.633819,-5.007240,-7.841330,-3.845545,4.408401,2.823193,2.784758,-1.681572,-1.016113,0.342529,0.042725,0.143445,-0.066813,-0.053017,0.999768,0.014115,0.013923,-0.008407,0.458395,-0.508484,-0.500044,-0.530352
63390,NaN,14.770960,-3.032586,-4.714365,-4.401208,-4.345901,4.724336,3.255735,2.348095,-1.968829,-1.024170,0.323242,0.007080,0.146836,-0.030983,-0.049372,0.999750,0.016277,0.011739,-0.009843,0.467226,-0.489772,-0.508150,-0.532548
63391,NaN,15.689218,-1.552839,-2.504948,-3.102223,-2.629728,5.623599,3.482284,2.214533,-2.170571,-1.034424,0.304199,-0.026611,0.156422,-0.016768,-0.027068,0.999728,0.017410,0.011072,-0.010852,0.475482,-0.470262,-0.516989,-0.534315
63392,NaN,16.363953,0.502996,0.093349,-1.411337,-0.441395,6.491691,3.335180,2.185440,-2.254909,-1.033936,0.278564,-0.051758,0.163680,0.003188,-0.000792,0.999738,0.016674,0.010926,-0.011274,0.482844,-0.450570,-0.525844,-0.536039
63393,NaN,15.906746,-0.505586,1.392929,-2.750571,0.448312,5.917033,2.906101,2.728961,-2.215855,-1.035400,0.257080,-0.089844,0.159167,-0.007000,0.011666,0.999740,0.014529,0.013644,-0.011078,0.490503,-0.430476,-0.531488,-0.540017
63394,NaN,14.170357,-0.658815,2.244113,-3.037224,0.956489,4.191019,2.522932,2.928688,-2.038981,-1.037354,0.240234,-0.125488,0.141932,-0.008299,0.020266,0.999761,0.012614,0.014642,-0.010194,0.498114,-0.410887,-0.535355,-0.544472
63395,NaN,13.519569,-0.529216,1.914826,-3.046509,0.254410,3.504912,2.078650,2.985536,-1.764456,-1.036865,0.220947,-0.152832,0.135406,-0.006671,0.017063,0.999796,0.010393,0.014927,-0.008822,0.505465,-0.392972,-0.536676,-0.549597
63396,NaN,11.671611,-1.623511,1.417974,-3.932554,-0.490701,1.374472,1.958091,2.795846,-1.628199,-1.032227,0.206055,-0.184570,0.116760,-0.017313,0.012382,0.999821,0.009790,0.013978,-0.008141,0.512272,-0.375930,-0.538071,-0.553836
63397,NaN,10.083487,-0.417053,1.281760,-2.589037,-0.558102,0.009308,1.836098,2.259310,-1.552165,-1.038086,0.186768,-0.209717,0.100934,-0.005064,0.011634,0.999864,0.009180,0.011296,-0.007760,0.517424,-0.360957,-0.539805,-0.557309
63398,NaN,8.900758,2.152234,1.210667,0.010942,-0.315408,-0.581334,1.373049,1.982576,-1.456065,-1.031494,0.169678,-0.230713,0.089276,0.020793,0.011367,0.999901,0.006865,0.009913,-0.007280,0.521166,-0.347943,-0.541055,-0.560875
63399,NaN,8.052385,2.319274,0.531086,0.359985,-0.942989,-1.477199,0.841478,1.876536,-1.437887,-1.024658,0.154785,-0.251709,0.080733,0.022592,0.004650,0.999921,0.004207,0.009382,-0.007189,0.523616,-0.336778,-0.540595,-0.565831
63400,NaN,7.141977,2.943319,0.265853,1.116772,-1.054305,-2.237688,0.484760,1.875553,-1.448730,-1.024170,0.139893,-0.264404,0.071652,0.028909,0.002058,0.999927,0.002424,0.009378,-0.007243,0.525388,-0.326290,-0.539435,-0.571412
63401,NaN,5.914420,3.464691,0.209914,1.834688,-0.867994,-3.262315,0.315173,1.871313,-1.400334,-1.021973,0.133545,-0.285400,0.059401,0.034229,0.001598,0.999930,0.001576,0.009356,-0.007002,0.526885,-0.316514,-0.537298,-0.577514
63402,NaN,4.949028,3.598045,0.208697,2.133452,-0.704278,-4.117640,0.203756,1.873231,-1.306171,-1.019531,0.118408,-0.300049,0.049741,0.035654,0.001658,0.999934,0.001019,0.009366,-0.006531,0.528457,-0.307068,-0.534963,-0.583316
63403,NaN,3.964564,3.676644,0.513017,2.345978,-0.225122,-4.919483,-0.082437,1.863658,-1.200733,-1.012939,0.105713,-0.321289,0.039911,0.036529,0.004744,0.999938,-0.000412,0.009318,-0.006004,0.529747,-0.298802,-0.531261,-0.589786
63404,NaN,3.247935,3.563281,0.584836,2.375971,-0.043204,-5.577095,-0.516603,1.713629,-1.088326,-1.008545,0.097168,-0.340332,0.032721,0.035470,0.005477,0.999945,-0.002583,0.008568,-0.005442,0.530313,-0.292239,-0.526776,-0.596550
63405,NaN,3.105010,2.683218,0.706686,1.540570,-0.073546,-5.944765,-0.954807,1.468236,-0.924737,-1.006104,0.090820,-0.352783,0.031224,0.026721,0.006710,0.999951,-0.004774,0.007341,-0.004624,0.529958,-0.288105,-0.521030,-0.603878
63406,NaN,3.268279,1.721528,0.560246,0.611295,-0.439897,-6.153231,-1.292988,1.227624,-0.667613,-0.997803,0.093018,-0.361328,0.032773,0.017141,0.005290,0.999955,-0.006465,0.006138,-0.003338,0.529279,-0.286101,-0.514791,-0.610737
63407,NaN,3.467922,1.113982,0.432861,0.008310,-0.745249,-6.221157,-1.492612,1.082641,-0.347246,-0.997803,0.088623,-0.369873,0.034721,0.011111,0.004058,0.999956,-0.007463,0.005413,-0.001736,0.528800,-0.285992,-0.507520,-0.617254
63408,NaN,3.060197,0.920718,0.411795,-0.049065,-0.679297,-6.663388,-1.457823,1.003797,0.010917,-0.985352,0.099365,-0.378418,0.030621,0.009238,0.003897,0.999961,-0.007289,0.005019,0.000055,0.529302,-0.286794,-0.500311,-0.622316
63409,NaN,2.373915,0.634450,0.293004,-0.095799,-0.585338,-7.410192,-1.087716,0.809359,0.361733,-0.983398,0.108154,-0.386963,0.023739,0.006403,0.002799,0.999975,-0.005439,0.004047,0.001809,0.530833,-0.288198,-0.493938,-0.625447
63410,NaN,1.858037,0.671290,-0.064638,0.152659,-0.734473,-7.983936,-0.371600,0.541749,0.668731,-0.988037,0.116699,-0.393311,0.018556,0.006774,-0.000709,0.999989,-0.001858,0.002709,0.003344,0.533748,-0.289167,-0.490349,-0.625343
63411,NaN,0.831580,0.660500,0.097358,0.397753,-0.194576,-8.842538,0.555801,0.210347,0.893228,-0.983887,0.123047,-0.393311,0.008287,0.006639,0.000983,0.999986,0.002779,0.001052,0.004466,0.537810,-0.289353,-0.489918,-0.622106
63412,NaN,-0.026489,0.901747,0.763751,0.733512,0.773604,-9.302168,1.363411,-0.261363,0.974572,-0.981934,0.129395,-0.389160,-0.000319,0.008964,0.007698,0.999964,0.006817,-0.001307,0.004873,0.542181,-0.288905,-0.493414,-0.615724
63413,NaN,-0.056637,0.819454,1.743213,0.469841,1.696966,-9.029791,1.756059,-0.781257,0.986323,-0.979980,0.131592,-0.385010,-0.000675,0.008038,0.017501,0.999942,0.008780,-0.003906,0.004932,0.545759,-0.289102,-0.499184,-0.607768
63414,NaN,1.233518,0.752124,2.824095,-0.137638,2.232011,-7.562878,1.692991,-1.217683,0.981462,-0.986328,0.133789,-0.365967,0.012126,0.007341,0.028378,0.999934,0.008465,-0.006088,0.004907,0.548140,-0.290643,-0.506180,-0.599042
63415,NaN,3.104104,1.020920,4.178520,-0.613030,2.894173,-5.409856,1.219689,-1.540089,0.915944,-0.994873,0.140137,-0.355469,0.030671,0.010094,0.042084,0.999941,0.006098,-0.007700,0.004580,0.548695,-0.294351,-0.512389,-0.591396
63416,NaN,5.591425,2.419816,5.523059,-0.123147,3.569978,-2.405828,0.326515,-1.809507,0.818962,-0.997070,0.146484,-0.332275,0.055312,0.024335,0.055772,0.999949,0.001633,-0.009047,0.004095,0.546960,-0.300920,-0.517067,-0.585597
63417,NaN,7.510808,3.349225,6.375131,0.224443,4.019381,-0.217800,-0.596869,-2.030977,0.738460,-1.001709,0.155029,-0.319580,0.074331,0.033959,0.064408,0.999937,-0.002984,-0.010155,0.003692,0.542912,-0.310531,-0.519411,-0.582262
63418,NaN,10.718466,5.225329,6.941572,1.335197,4.028775,3.315608,-1.222240,-2.413296,0.770249,-1.008057,0.165527,-0.285645,0.106136,0.053092,0.070378,0.999901,-0.006111,-0.012066,0.003851,0.536962,-0.322875,-0.521135,-0.579519
63419,NaN,15.688018,8.081331,8.121234,3.000255,4.387576,8.871671,-1.461444,-2.633954,0.796544,-1.012695,0.176270,-0.266846,0.155473,0.082035,0.082670,0.999879,-0.007307,-0.013169,0.003983,0.529959,-0.336610,-0.522282,-0.577112
