// Start Time: Unknown
// Update Rate: 100.0Hz
// Filter Profile: human (46.1)
// Firmware Version: 4.4.0
PacketCounter,SampleTimeFine,Acc_X,Acc_Y,Acc_Z,FreeAcc_X,FreeAcc_Y,FreeAcc_Z,Gyr_X,Gyr_Y,Gyr_Z,Mag_X,Mag_Y,Mag_Z,VelInc_X,VelInc_Y,VelInc_Z,OriInc_q0,OriInc_q1,OriInc_q2,OriInc_q3,Quat_q0,Quat_q1,Quat_q2,Quat_q3
15632,NaN,2.120654,-8.396452,-0.930001,0.236105,0.058631,-1.106217,-1.088879,1.899772,-0.626003,-0.724854,0.579102,-0.299316,0.020857,-0.084080,-0.009042,0.999935,-0.005444,0.009499,-0.003130,-0.283934,0.120332,0.728015,-0.612287
15633,NaN,2.373215,-9.740353,-1.085478,0.404450,-0.065780,0.262819,-0.778691,1.847472,-0.913203,-0.729004,0.574951,-0.299316,0.023188,-0.097552,-0.010691,0.999939,-0.003893,0.009237,-0.004566,-0.292968,0.123762,0.728282,-0.607007
15634,NaN,2.879078,-11.186023,-0.885027,0.234049,-0.362215,1.763646,-0.477402,1.714941,-1.207245,-0.730957,0.570557,-0.315674,0.028039,-0.112052,-0.008826,0.999942,-0.002387,0.008575,-0.006036,-0.302902,0.126341,0.727226,-0.602853
15635,NaN,3.419279,-12.188761,-0.556260,-0.060192,-0.672569,2.840676,-0.344250,1.492671,-1.475999,-0.730469,0.557861,-0.321533,0.033250,-0.122145,-0.005603,0.999943,-0.001721,0.007463,-0.007380,-0.312543,0.125988,0.726894,-0.598388
15636,NaN,3.887129,-13.129735,-0.453895,-0.130236,-0.834037,3.861683,-0.338896,1.193384,-1.701760,-0.740723,0.549561,-0.323486,0.037725,-0.131629,-0.004543,0.999945,-0.001694,0.005967,-0.008509,-0.321387,0.124003,0.726641,-0.594413
15637,NaN,4.248306,-14.315944,0.110194,-0.315030,-1.550567,5.036439,-0.400005,0.858227,-1.867291,-0.744873,0.541016,-0.329346,0.041149,-0.143545,0.001210,0.999945,-0.002000,0.004291,-0.009336,-0.329789,0.120405,0.727568,-0.589394
15638,NaN,4.793768,-15.223749,1.837359,-1.383486,-2.980105,5.913587,-0.569522,0.467444,-1.953750,-0.759033,0.526123,-0.329346,0.046491,-0.152643,0.018698,0.999946,-0.002848,0.002337,-0.009769,-0.335012,0.114220,0.728446,-0.586589
15639,NaN,6.032289,-15.947741,3.693097,-3.104014,-4.224284,6.826586,-0.777752,-0.300080,-2.153151,-0.769287,0.513428,-0.322998,0.058546,-0.159969,0.037641,0.999933,-0.003889,-0.001500,-0.010766,-0.339768,0.106793,0.732411,-0.580282
15640,NaN,10.593052,-18.705355,4.781830,-6.105969,-3.460611,11.060460,-0.207704,-0.956951,-2.130585,-0.783691,0.498779,-0.316650,0.103699,-0.188116,0.048513,0.999931,-0.001038,-0.004785,-0.010653,-0.336658,0.090924,0.729704,-0.588155
15641,NaN,12.927086,-18.896234,6.858832,-8.752137,-4.322049,12.002936,0.176270,-0.969707,-1.792594,-0.795654,0.483887,-0.306152,0.127236,-0.190170,0.069041,0.999948,0.000881,-0.004848,-0.008963,-0.338454,0.081231,0.731595,-0.586191
15642,NaN,11.676545,-16.158414,7.284502,-8.050885,-4.422265,9.321464,0.152689,-1.034477,-1.418566,-0.807861,0.466797,-0.301758,0.115237,-0.162461,0.073320,0.999961,0.000763,-0.005172,-0.007093,-0.332433,0.060142,0.720866,-0.605164
15643,NaN,9.949184,-13.568746,6.845038,-7.072907,-4.450029,6.315453,0.550520,-1.040800,-1.108848,-0.816162,0.462646,-0.297607,0.098380,-0.136424,0.068589,0.999967,0.002753,-0.005204,-0.005544,-0.332192,0.052079,0.721240,-0.605598
15644,NaN,7.161047,-11.580477,6.062169,-4.385336,-4.311426,3.763602,0.821847,-0.912622,-0.774224,-0.815918,0.452148,-0.291504,0.070885,-0.116329,0.060469,0.999974,0.004109,-0.004563,-0.003871,-0.322935,0.026671,0.702018,-0.634170
15645,NaN,4.305242,-9.986387,4.685397,-1.903236,-4.107076,1.129167,0.950045,-0.796316,-0.561524,-0.826416,0.449951,-0.291504,0.042586,-0.100205,0.046549,0.999977,0.004750,-0.003982,-0.002808,-0.322040,0.020641,0.700350,-0.636690
15646,NaN,3.066068,-8.875968,3.334925,-0.190308,-2.760914,-0.239524,1.093777,-0.797439,-0.414882,-0.825928,0.439209,-0.282959,0.030344,-0.089004,0.032984,0.999975,0.005469,-0.003987,-0.002074,-0.308878,-0.004635,0.677382,-0.667627
15647,NaN,3.623555,-8.594909,2.298327,-0.236455,-1.523610,-0.330768,1.347678,-1.087331,-0.284225,-0.830078,0.432861,-0.284912,0.035990,-0.086153,0.022599,0.999962,0.006738,-0.005437,-0.001421,-0.306101,-0.011308,0.674530,-0.671702
15648,NaN,4.672168,-8.351726,1.267314,-0.547872,0.289324,-0.179306,1.694410,-1.372677,-0.182541,-0.838135,0.424561,-0.282715,0.046560,-0.083665,0.012285,0.999940,0.008472,-0.006863,-0.000913,-0.290269,-0.035589,0.652924,-0.698690
15649,NaN,4.671701,-8.249866,0.603725,-0.313525,0.986425,-0.369317,2.150255,-1.532429,-0.098491,-0.842285,0.422363,-0.274658,0.046633,-0.082583,0.005507,0.999913,0.010751,-0.007662,-0.000492,-0.285203,-0.044381,0.647562,-0.705233
15650,NaN,3.884853,-8.038897,0.337978,0.461486,1.332072,-0.989926,2.560511,-1.658221,0.031878,-0.848145,0.407471,-0.272461,0.038837,-0.080420,0.002672,0.999884,0.012802,-0.008291,0.000159,-0.273328,-0.064436,0.628230,-0.725581
15651,NaN,3.039176,-7.498461,0.277637,0.968622,1.235949,-1.870868,2.909739,-1.716825,0.189114,-0.850342,0.409668,-0.272461,0.030444,-0.074988,0.001947,0.999857,0.014548,-0.008584,0.000946,-0.266273,-0.074037,0.619991,-0.734322
15652,NaN,2.449949,-6.793876,0.114196,1.239550,1.427832,-2.841721,3.155270,-1.764969,0.353264,-0.854248,0.396973,-0.270264,0.024614,-0.067904,0.000287,0.999835,0.015775,-0.008824,0.001766,-0.256524,-0.090259,0.603812,-0.749306
15653,NaN,2.387365,-6.060429,-0.080222,0.965020,1.656203,-3.587073,3.340889,-1.849337,0.527657,-0.858154,0.390625,-0.270020,0.024046,-0.060519,-0.001592,0.999814,0.016703,-0.009246,0.002638,-0.247409,-0.099862,0.593794,-0.759095
15654,NaN,2.466306,-5.346384,-0.229343,0.578496,1.874001,-4.256539,3.464775,-1.929178,0.670626,-0.858154,0.388428,-0.259766,0.024869,-0.053333,-0.002979,0.999798,0.017323,-0.009645,0.003353,-0.237392,-0.114040,0.579924,-0.770927
15655,NaN,2.509973,-4.551910,-0.217356,0.109401,1.824173,-4.941723,3.533221,-1.965250,0.763948,-0.864258,0.384277,-0.257812,0.025298,-0.045378,-0.002728,0.999788,0.017665,-0.009826,0.003819,-0.226684,-0.123570,0.568951,-0.780794
15656,NaN,2.476473,-3.721252,-0.129722,-0.289032,1.602197,-5.647812,3.519883,-1.971853,0.807383,-0.862061,0.379883,-0.255615,0.024930,-0.037084,-0.001705,0.999788,0.017598,-0.009859,0.004037,-0.218936,-0.133262,0.559622,-0.788119
15657,NaN,2.555552,-2.912766,-0.056859,-0.794127,1.385703,-6.281799,3.420177,-1.953228,0.821550,-0.866211,0.375732,-0.251465,0.025682,-0.029010,-0.000815,0.999798,0.017100,-0.009765,0.004107,-0.207911,-0.142376,0.548717,-0.797127
15658,NaN,2.878432,-2.234393,0.120925,-1.415682,1.087283,-6.633679,3.241107,-1.902027,0.811159,-0.868164,0.369385,-0.247314,0.028864,-0.022246,0.001122,0.999815,0.016205,-0.009510,0.004056,-0.199822,-0.152116,0.539725,-0.803510
15659,NaN,3.305683,-1.827014,0.351656,-1.998894,0.804819,-6.690854,3.009978,-1.804948,0.776339,-0.865967,0.371338,-0.247314,0.033096,-0.018195,0.003541,0.999838,0.015049,-0.009024,0.003881,-0.189511,-0.160255,0.529940,-0.810906
15660,NaN,3.876837,-1.677635,0.535588,-2.552924,0.641841,-6.465785,2.753580,-1.666747,0.693361,-0.868164,0.371338,-0.243164,0.038781,-0.016717,0.005449,0.999864,0.013767,-0.008333,0.003467,-0.181844,-0.169533,0.521382,-0.816304
15661,NaN,4.505113,-1.746831,0.607192,-3.069535,0.655537,-6.089206,2.463846,-1.482314,0.561749,-0.874268,0.367188,-0.237061,0.045055,-0.017418,0.006191,0.999893,0.012319,-0.007411,0.002809,-0.173579,-0.176340,0.513094,-0.821893
15662,NaN,5.240979,-1.885404,0.632312,-3.615638,0.737617,-5.593035,2.145788,-1.253902,0.367345,-0.872314,0.369385,-0.230957,0.052404,-0.018827,0.006450,0.999921,0.010729,-0.006269,0.001837,-0.169199,-0.185435,0.505903,-0.825256
15663,NaN,6.098406,-2.112408,0.537232,-4.267463,0.978109,-5.040532,1.827604,-0.973134,0.101323,-0.878418,0.363037,-0.232910,0.060968,-0.021143,0.005476,0.999946,0.009138,-0.004866,0.000507,-0.164617,-0.190730,0.499252,-0.829018
15664,NaN,7.187831,-2.410509,0.272135,-5.043867,1.432037,-4.330156,1.501714,-0.659061,-0.205314,-0.878174,0.354492,-0.234863,0.071844,-0.024200,0.002777,0.999966,0.007508,-0.003295,-0.001027,-0.166718,-0.198670,0.494630,-0.829504
15665,NaN,8.613145,-3.090042,-0.159974,-6.001957,2.251148,-3.280547,1.192904,-0.324438,-0.541028,-0.877930,0.345947,-0.228516,0.086050,-0.031124,-0.001645,0.999977,0.005964,-0.001622,-0.002705,-0.166971,-0.202344,0.489404,-0.831662
15666,NaN,10.698336,-4.094616,-0.319705,-7.204999,3.070779,-1.447291,0.921541,0.038696,-0.876683,-0.884033,0.337402,-0.238525,0.106802,-0.041399,-0.003408,0.999980,0.004608,0.000193,-0.004383,-0.172860,-0.209317,0.484870,-0.831389
15667,NaN,12.900171,-5.557033,-0.785358,-8.356985,4.463256,0.586785,0.666147,0.414921,-1.196768,-0.883545,0.322754,-0.250488,0.128649,-0.056314,-0.008307,0.999974,0.003331,0.002075,-0.005984,-0.178140,-0.211064,0.480477,-0.832382
15668,NaN,15.027758,-7.185832,-1.660232,-9.209093,6.306785,2.662720,0.520667,0.790829,-1.524920,-0.887207,0.310059,-0.256592,0.149656,-0.072956,-0.017384,0.999960,0.002603,0.003954,-0.007624,-0.186327,-0.220052,0.474271,-0.831821
15669,NaN,16.725192,-8.781733,-2.643117,-9.754074,8.379988,4.274748,0.521278,1.130089,-1.849555,-0.886475,0.286621,-0.268311,0.166277,-0.089287,-0.027604,0.999938,0.002606,0.005650,-0.009248,-0.196115,-0.220211,0.468985,-0.832526
15670,NaN,17.795923,-9.658507,-2.991499,-9.728374,9.458822,5.510414,0.492286,1.365627,-2.097576,-0.888184,0.271729,-0.280518,0.176723,-0.098367,-0.031365,0.999919,0.002461,0.006828,-0.010488,-0.208507,-0.228502,0.463246,-0.830490
15671,NaN,18.202532,-9.357683,-3.145147,-9.899779,9.896097,5.446003,0.209233,1.445582,-2.166827,-0.893799,0.254883,-0.294434,0.180763,-0.095506,-0.032860,0.999915,0.001046,0.007228,-0.010834,-0.220598,-0.227717,0.458354,-0.830297
15672,NaN,17.774163,-7.953428,-3.424169,-9.673901,9.676059,4.458641,-0.153311,1.462900,-2.136572,-0.891113,0.235840,-0.308350,0.176622,-0.081452,-0.035474,0.999916,-0.000767,0.007314,-0.010683,-0.240424,-0.233051,0.460259,-0.822220
15673,NaN,16.742102,-6.159041,-3.212139,-9.589642,8.814372,2.791997,-0.473422,1.431436,-2.074787,-0.890625,0.220947,-0.312256,0.166535,-0.063399,-0.033167,0.999918,-0.002367,0.007157,-0.010374,-0.252781,-0.231353,0.458027,-0.820237
15674,NaN,15.373276,-4.422239,-2.680241,-8.910512,7.569788,1.428558,-0.722714,1.339962,-2.028664,-0.887939,0.206055,-0.320068,0.153090,-0.045876,-0.027666,0.999920,-0.003613,0.006700,-0.010143,-0.275378,-0.233077,0.465540,-0.808155
15675,NaN,13.934715,-3.151009,-1.807537,-8.316972,6.191141,0.180336,-0.846595,1.215501,-2.006419,-0.893799,0.191406,-0.334229,0.138908,-0.032984,-0.018783,0.999922,-0.004233,0.006077,-0.010032,-0.287282,-0.231652,0.464911,-0.804776
15676,NaN,12.552947,-2.682593,-0.633644,-7.006242,4.837169,-0.185547,-0.862757,1.077672,-2.001069,-0.891113,0.172119,-0.340088,0.125216,-0.028109,-0.006892,0.999926,-0.004314,0.005388,-0.010005,-0.311306,-0.232399,0.474552,-0.789861
15677,NaN,11.429824,-2.683940,0.602877,-5.930476,3.585962,-0.316728,-0.823024,0.930565,-2.004743,-0.888672,0.159424,-0.354248,0.114048,-0.027960,0.005611,0.999930,-0.004115,0.004653,-0.010023,-0.322368,-0.232184,0.473990,-0.785814
15678,NaN,10.428558,-2.665377,1.738349,-4.914537,2.310995,-0.358380,-0.811663,0.790054,-2.005545,-0.885986,0.146729,-0.354004,0.104080,-0.027628,0.017083,0.999934,-0.004058,0.003950,-0.010028,-0.336406,-0.236366,0.478215,-0.776062
15679,NaN,9.537356,-2.376012,2.610620,-4.346466,1.263252,-0.705995,-0.887483,0.675154,-1.977013,-0.891846,0.131836,-0.357666,0.095221,-0.024587,0.025892,0.999936,-0.004437,0.003376,-0.009885,-0.346721,-0.236966,0.478154,-0.771363
15680,NaN,8.735750,-1.922792,3.300892,-3.958643,0.270177,-1.143144,-1.071389,0.582817,-1.893960,-0.891602,0.121338,-0.359619,0.087267,-0.019878,0.032860,0.999937,-0.005357,0.002914,-0.009470,-0.362296,-0.238912,0.484555,-0.759519
15681,NaN,7.986671,-1.644986,3.735005,-3.608991,-0.390494,-1.611156,-1.353507,0.501577,-1.775514,-0.886719,0.108643,-0.359375,0.079811,-0.016906,0.037263,0.999935,-0.006767,0.002508,-0.008877,-0.371850,-0.238842,0.486631,-0.753573
15682,NaN,7.285193,-1.760579,3.756807,-2.983462,-0.620119,-2.002348,-1.688568,0.418764,-1.649317,-0.888672,0.102295,-0.367432,0.072784,-0.017889,0.037566,0.999928,-0.008443,0.002094,-0.008246,-0.388487,-0.238083,0.495458,-0.739537
15683,NaN,6.873036,-2.165319,3.588603,-2.363539,-0.526633,-2.135351,-2.046050,0.356094,-1.530898,-0.890625,0.095703,-0.367432,0.068628,-0.021811,0.035986,0.999917,-0.010230,0.001780,-0.007654,-0.397436,-0.236565,0.500465,-0.731858
15684,NaN,6.584889,-2.747427,3.408021,-1.646412,-0.443531,-2.091541,-2.390242,0.310452,-1.389314,-0.890625,0.097900,-0.367432,0.065711,-0.027522,0.034307,0.999903,-0.011951,0.001552,-0.006946,-0.408123,-0.236456,0.509411,-0.719739
15685,NaN,6.389966,-3.436144,2.995059,-0.921286,-0.093085,-2.018387,-2.717416,0.267121,-1.224276,-0.892822,0.100098,-0.367432,0.063730,-0.034342,0.030332,0.999888,-0.013587,0.001336,-0.006121,-0.416380,-0.233041,0.517136,-0.710556
15686,NaN,6.252622,-4.028635,2.452911,-0.252632,0.255507,-1.988889,-2.967871,0.241953,-1.052031,-0.886719,0.102051,-0.365479,0.062345,-0.040245,0.025051,0.999875,-0.014839,0.001210,-0.005260,-0.425342,-0.231883,0.528765,-0.696937
15687,NaN,6.055014,-4.569286,1.881741,0.377709,0.641779,-2.032809,-3.098544,0.234794,-0.898109,-0.888916,0.110596,-0.365479,0.060368,-0.045666,0.019454,0.999869,-0.015492,0.001174,-0.004490,-0.432633,-0.226819,0.537949,-0.687017
15688,NaN,5.743104,-4.988223,1.097177,1.025206,1.073077,-2.271794,-3.121668,0.232702,-0.769421,-0.889404,0.121338,-0.361572,0.057252,-0.049924,0.011684,0.999870,-0.015608,0.001163,-0.003847,-0.440081,-0.222465,0.550628,-0.673533
15689,NaN,5.307131,-5.284917,0.374843,1.637834,1.453858,-2.640631,-2.972367,0.239852,-0.684023,-0.883301,0.125488,-0.363770,0.052895,-0.052967,0.004472,0.999883,-0.014861,0.001199,-0.003420,-0.446303,-0.216973,0.559281,-0.664034
15690,NaN,4.933365,-5.489750,-0.150797,2.121072,1.586676,-2.922111,-2.633552,0.261201,-0.643104,-0.889648,0.129883,-0.361816,0.049155,-0.055070,-0.000848,0.999907,-0.013167,0.001306,-0.003215,-0.451552,-0.213141,0.570838,-0.651779
15691,NaN,4.707276,-5.585687,-0.621290,2.449491,1.816849,-3.146191,-2.154544,0.288194,-0.648117,-0.887451,0.129883,-0.361816,0.046883,-0.056072,-0.005677,0.999936,-0.010772,0.001441,-0.003241,-0.456757,-0.209171,0.576478,-0.644433
15692,NaN,4.675802,-5.626991,-0.942179,2.627147,1.931470,-3.195996,-1.577577,0.312429,-0.664287,-0.891846,0.129883,-0.357666,0.046556,-0.056497,-0.009050,0.999962,-0.007888,0.001562,-0.003321,-0.462101,-0.207287,0.583253,-0.635067
15693,NaN,4.922067,-5.753669,-1.178098,2.719345,2.151047,-2.979161,-0.968076,0.340459,-0.668347,-0.889648,0.125488,-0.361816,0.049008,-0.057757,-0.011585,0.999981,-0.004840,0.001702,-0.003342,-0.466213,-0.205910,0.584834,-0.631043
15694,NaN,5.253420,-5.986125,-1.389047,2.896242,2.316692,-2.628957,-0.374114,0.368325,-0.666448,-0.889404,0.121338,-0.365723,0.052309,-0.060062,-0.013875,0.999991,-0.001871,0.001842,-0.003332,-0.472080,-0.205882,0.587243,-0.624419
15695,NaN,5.704337,-6.244923,-1.436060,2.971242,2.473812,-2.154203,0.135812,0.391486,-0.668290,-0.887207,0.119141,-0.367676,0.056806,-0.062629,-0.014514,0.999992,0.000679,0.001957,-0.003341,-0.475175,-0.206936,0.585199,-0.623641
15696,NaN,6.129797,-6.289941,-1.367023,2.875635,2.497957,-1.781692,0.510478,0.412886,-0.681442,-0.891113,0.110840,-0.377930,0.061055,-0.063072,-0.013957,0.999989,0.002552,0.002064,-0.003407,-0.479352,-0.208773,0.584651,-0.620337
15697,NaN,6.609447,-6.220855,-1.199334,2.623401,2.559814,-1.423019,0.751961,0.438118,-0.733036,-0.882324,0.100098,-0.379639,0.065839,-0.062404,-0.012372,0.999984,0.003760,0.002191,-0.003665,-0.482116,-0.211350,0.580491,-0.621229
15698,NaN,7.111173,-5.929672,-0.911190,2.158833,2.497891,-1.114467,0.839748,0.458099,-0.813925,-0.882080,0.091553,-0.383545,0.070848,-0.059546,-0.009524,0.999980,0.004199,0.002290,-0.004070,-0.485429,-0.214680,0.578306,-0.619543
15699,NaN,7.676531,-5.749899,-0.447919,1.719155,2.345148,-0.662021,0.853552,0.471775,-0.894175,-0.879395,0.076660,-0.387451,0.076496,-0.057821,-0.004906,0.999978,0.004268,0.002359,-0.004471,-0.488639,-0.217864,0.573541,-0.620337
15700,NaN,8.321719,-5.845773,0.300649,1.427207,1.861336,0.087389,0.837480,0.473978,-0.955634,-0.876953,0.066162,-0.391357,0.082943,-0.058866,0.002564,0.999977,0.004187,0.002370,-0.004778,-0.493902,-0.219686,0.571363,-0.617530
15701,NaN,8.929388,-6.212881,0.927897,1.432453,1.496751,0.906502,0.744128,0.440729,-0.998983,-0.880859,0.053467,-0.393066,0.089002,-0.062607,0.008850,0.999978,0.003721,0.002204,-0.004995,-0.497420,-0.223003,0.566864,-0.617664
15702,NaN,9.468113,-6.500361,1.350241,1.488586,1.236333,1.588050,0.617055,0.373094,-1.050948,-0.878418,0.044922,-0.397217,0.094362,-0.065541,0.013125,0.999980,0.003085,0.001865,-0.005255,-0.503266,-0.224944,0.565253,-0.613688
15703,NaN,9.828778,-6.604751,1.631081,1.502623,1.116645,1.993297,0.528711,0.288437,-1.150533,-0.871582,0.030029,-0.400879,0.097929,-0.066654,0.015994,0.999979,0.002644,0.001442,-0.005753,-0.507009,-0.228627,0.561595,-0.612603
15704,NaN,10.215186,-6.445330,1.909958,1.295698,0.966442,2.308578,0.452526,0.163723,-1.282648,-0.875244,0.015137,-0.398682,0.101751,-0.065150,0.018869,0.999977,0.002263,0.000819,-0.006413,-0.512785,-0.231426,0.560695,-0.607548
15705,NaN,10.690219,-6.327261,2.343888,1.062488,0.737373,2.762424,0.330150,0.028040,-1.414092,-0.878906,-0.001709,-0.398438,0.106454,-0.064065,0.023319,0.999974,0.001651,0.000140,-0.007070,-0.516767,-0.236135,0.557965,-0.604870
15706,NaN,11.296600,-6.263973,2.961259,0.817590,0.294378,3.410816,0.150661,-0.112653,-1.532895,-0.876221,-0.016602,-0.395996,0.112465,-0.063525,0.029628,0.999970,0.000753,-0.000563,-0.007664,-0.523404,-0.240063,0.557728,-0.597794
15707,NaN,12.020294,-6.493003,3.536363,0.805363,-0.099034,4.275948,0.038092,-0.278858,-1.615776,-0.875977,-0.027344,-0.393799,0.119624,-0.065905,0.035518,0.999966,0.000190,-0.001394,-0.008079,-0.527396,-0.245484,0.556382,-0.593322
15708,NaN,12.897198,-7.078084,4.087410,1.113235,-0.571355,5.404818,0.110080,-0.433638,-1.659371,-0.879639,-0.044189,-0.391357,0.128290,-0.071870,0.041113,0.999963,0.000550,-0.002168,-0.008297,-0.533436,-0.250426,0.556798,-0.585413
15709,NaN,13.578197,-7.938006,4.608881,1.761950,-1.112459,6.443765,0.402981,-0.552545,-1.618261,-0.875000,-0.052734,-0.387207,0.135006,-0.080568,0.046301,0.999961,0.002015,-0.002763,-0.008091,-0.536113,-0.257603,0.555040,-0.581510
15710,NaN,13.780249,-8.616746,4.934660,2.476931,-1.663927,6.908055,0.886674,-0.629718,-1.498920,-0.880859,-0.072021,-0.382812,0.136995,-0.087415,0.049393,0.999957,0.004433,-0.003149,-0.007494,-0.538938,-0.265155,0.553831,-0.576636
15711,NaN,13.362867,-8.647984,5.047011,2.863052,-1.995061,6.516485,1.480259,-0.664907,-1.287437,-0.884277,-0.091064,-0.370361,0.132899,-0.087709,0.050267,0.999946,0.007401,-0.003324,-0.006437,-0.538821,-0.274602,0.549614,-0.576360
15712,NaN,12.532807,-7.897493,4.912822,2.699747,-2.079398,5.417509,2.103917,-0.669689,-1.017238,-0.883789,-0.108154,-0.363770,0.124759,-0.080124,0.048708,0.999926,0.010519,-0.003348,-0.005086,-0.537963,-0.284664,0.545222,-0.576451
15713,NaN,11.564395,-6.784754,4.617512,2.242886,-1.890527,4.061028,2.659521,-0.662598,-0.709824,-0.885254,-0.123047,-0.353271,0.115249,-0.068866,0.045646,0.999900,0.013297,-0.003313,-0.003549,-0.534367,-0.295623,0.538270,-0.580797
15714,NaN,10.641533,-5.523453,4.190768,1.607059,-1.562226,2.688779,3.081762,-0.642566,-0.381442,-0.884766,-0.137939,-0.342773,0.106175,-0.056078,0.041389,0.999874,0.015408,-0.003213,-0.001907,-0.530308,-0.306177,0.531594,-0.585182
15715,NaN,9.686740,-4.441182,3.857394,1.062887,-1.330754,1.391493,3.344599,-0.628365,-0.056032,-0.892822,-0.150635,-0.334473,0.096735,-0.045079,0.038128,0.999855,0.016722,-0.003142,-0.000280,-0.523607,-0.316977,0.523308,-0.592882
15716,NaN,8.824539,-3.530410,3.430138,0.616005,-1.049154,0.218304,3.443424,-0.629037,0.244621,-0.894531,-0.163330,-0.323975,0.088182,-0.035783,0.033965,0.999846,0.017216,-0.003145,0.001223,-0.516743,-0.326825,0.516030,-0.599896
15717,NaN,8.048010,-2.820615,3.071935,0.269743,-0.834148,-0.790822,3.408786,-0.654518,0.510881,-0.898438,-0.174072,-0.311523,0.080453,-0.028522,0.030498,0.999846,0.017043,-0.003272,0.002554,-0.507875,-0.336216,0.508249,-0.608855
15718,NaN,7.445046,-2.267992,2.763911,-0.008257,-0.667223,-1.580658,3.258895,-0.690055,0.742759,-0.900635,-0.174072,-0.295166,0.074440,-0.022853,0.027525,0.999854,0.016294,-0.003450,0.003714,-0.499648,-0.344594,0.501752,-0.616322
15719,NaN,6.963257,-1.795645,2.564857,-0.296252,-0.592184,-2.206682,3.024728,-0.723875,0.937105,-0.902832,-0.171875,-0.287109,0.069624,-0.018018,0.025628,0.999868,0.015123,-0.003619,0.004685,-0.489669,-0.351974,0.495784,-0.624929
15720,NaN,6.442222,-1.263197,2.556814,-0.651649,-0.748584,-2.837722,2.733701,-0.736420,1.082530,-0.908936,-0.174072,-0.276855,0.064396,-0.012633,0.025633,0.999885,0.013668,-0.003682,0.005412,-0.480755,-0.358162,0.491562,-0.631633
15721,NaN,5.887047,-0.888136,2.694010,-0.858269,-1.061610,-3.422061,2.420258,-0.732324,1.172197,-0.913330,-0.167725,-0.264648,0.058824,-0.008863,0.027048,0.999903,0.012101,-0.003662,0.005861,-0.470875,-0.363366,0.487728,-0.639033
15722,NaN,5.055017,-0.714372,2.628199,-0.775283,-1.244013,-4.260906,2.187394,-0.722113,1.165104,-0.913330,-0.167725,-0.252441,0.050497,-0.007138,0.026386,0.999917,0.010937,-0.003610,0.005825,-0.462423,-0.368048,0.484905,-0.644649
15723,NaN,4.400379,-0.625017,2.251314,-0.666707,-1.066917,-4.991946,2.291899,-0.744636,1.014227,-0.917725,-0.167725,-0.244385,0.043952,-0.006286,0.022605,0.999915,0.011459,-0.003723,0.005071,-0.453094,-0.373247,0.481062,-0.651132
15724,NaN,4.638469,-0.552618,2.393571,-0.774691,-1.172272,-4.755465,2.733002,-0.650847,0.783357,-0.919678,-0.167725,-0.234131,0.046329,-0.005672,0.024010,0.999894,0.013665,-0.003254,0.003917,-0.445657,-0.379422,0.475387,-0.656838
15725,NaN,4.894090,-0.697613,2.817265,-0.640406,-1.504085,-4.362636,3.243975,-0.490946,0.638529,-0.923828,-0.169922,-0.221924,0.048895,-0.007277,0.028176,0.999860,0.016219,-0.002455,0.003192,-0.436180,-0.386683,0.466969,-0.664954
15726,NaN,5.008378,-0.812901,2.614500,-0.520684,-1.246235,-4.266907,3.648465,-0.363399,0.594419,-0.925781,-0.174072,-0.217773,0.050061,-0.008456,0.026084,0.999828,0.018241,-0.001817,0.002972,-0.428112,-0.394310,0.456917,-0.672657
15727,NaN,5.413651,-0.218475,2.449635,-1.167894,-1.113066,-4.089682,3.940952,-0.230280,0.547579,-0.925537,-0.184814,-0.205078,0.054115,-0.002519,0.024511,0.999801,0.019703,-0.001151,0.002738,-0.417893,-0.402181,0.445141,-0.682251
15728,NaN,5.672485,1.177518,2.429498,-2.469825,-1.389526,-4.206030,4.053993,-0.059364,0.454418,-0.925293,-0.193359,-0.196777,0.056691,0.011408,0.024546,0.999792,0.020269,-0.000297,0.002272,-0.410175,-0.409723,0.432288,-0.690660
15729,NaN,5.832278,2.810378,2.476901,-3.927863,-1.925959,-4.435897,3.911431,0.070185,0.352648,-0.933594,-0.195312,-0.190674,0.058282,0.027715,0.025293,0.999807,0.019556,0.000351,0.001763,-0.401021,-0.416652,0.419271,-0.699854
15730,NaN,5.940376,3.788878,2.441985,-4.754384,-2.245892,-4.525252,3.580403,0.145400,0.257906,-0.931396,-0.201904,-0.186523,0.059373,0.037521,0.025051,0.999839,0.017901,0.000727,0.001289,-0.395735,-0.422942,0.406832,-0.706400
15731,NaN,6.483899,3.826531,2.294319,-4.914536,-2.092797,-4.032250,3.093895,0.152545,0.171120,-0.930908,-0.210205,-0.180176,0.064824,0.037960,0.023483,0.999880,0.015469,0.000763,0.000856,-0.388855,-0.428117,0.395910,-0.713276
15732,NaN,7.491918,3.571797,2.083164,-5.018197,-1.521262,-3.050368,2.391370,0.109487,0.114416,-0.935059,-0.214600,-0.169922,0.074910,0.035509,0.021216,0.999928,0.011957,0.000547,0.000572,-0.393435,-0.428757,0.391265,-0.712943
15733,NaN,8.519867,3.177739,2.053680,-4.959646,-1.154165,-2.004142,1.460595,0.044557,0.123056,-0.928711,-0.216797,-0.171875,0.085184,0.031679,0.020749,0.999973,0.007303,0.000223,0.000615,-0.389947,-0.431211,0.386217,-0.716125
15734,NaN,9.664088,2.820604,2.138465,-4.934944,-0.745651,-0.811923,0.405384,0.004435,0.149133,-0.937256,-0.210205,-0.172119,0.096620,0.028235,0.021440,0.999998,0.002027,0.000022,0.000746,-0.396808,-0.429715,0.387785,-0.712398
15735,NaN,11.065872,2.588551,2.243501,-5.150177,-0.428353,0.554546,-0.654738,-0.000321,0.079548,-0.926758,-0.212402,-0.176025,0.110648,0.026003,0.022350,0.999995,-0.003274,-0.000002,0.000398,-0.397935,-0.428252,0.390278,-0.711288
15736,NaN,12.717493,2.493987,2.140842,-5.592933,0.201091,2.070756,-1.676937,0.039037,-0.076099,-0.933105,-0.208252,-0.178223,0.127189,0.025070,0.021174,0.999965,-0.008385,0.000195,-0.000380,-0.408421,-0.423282,0.397886,-0.704068
15737,NaN,14.407474,2.146605,1.687466,-5.953396,1.186026,3.535748,-2.639347,0.117495,-0.245979,-0.933350,-0.201904,-0.184570,0.144111,0.021508,0.016506,0.999912,-0.013196,0.000587,-0.001230,-0.415079,-0.417923,0.406371,-0.698507
15738,NaN,15.843496,1.233572,0.706915,-5.704892,2.873626,4.755555,-3.525152,0.204932,-0.373156,-0.931396,-0.199707,-0.190674,0.158465,0.012160,0.006691,0.999842,-0.017625,0.001025,-0.001866,-0.429079,-0.409675,0.418481,-0.687701
15739,NaN,17.667648,0.061436,-0.564674,-5.358886,4.913901,6.299517,-4.362782,0.285094,-0.469358,-0.929443,-0.191162,-0.205078,0.176669,0.000073,-0.005904,0.999758,-0.021812,0.001425,-0.002347,-0.440130,-0.400211,0.431795,-0.677989
15740,NaN,19.643985,-1.075061,-1.333102,-4.738060,6.511200,8.186525,-5.144985,0.449401,-0.506264,-0.925537,-0.186768,-0.221436,0.196381,-0.011593,-0.013481,0.999663,-0.025722,0.002247,-0.002531,-0.456528,-0.387980,0.447679,-0.663805
15741,NaN,20.929371,-1.973724,-2.264504,-4.148732,7.945956,9.336915,-5.825837,0.623030,-0.487941,-0.926270,-0.165527,-0.232178,0.209173,-0.020908,-0.022699,0.999568,-0.029125,0.003115,-0.002439,-0.470654,-0.373534,0.464439,-0.650580
15742,NaN,21.308196,-2.803704,-3.273010,-3.137347,9.139467,9.661203,-6.223547,0.757836,-0.423038,-0.922119,-0.159180,-0.248535,0.212897,-0.029504,-0.032634,0.999506,-0.031113,0.003789,-0.002115,-0.487449,-0.357137,0.482372,-0.634164
15743,NaN,20.356886,-3.565431,-3.764031,-1.843835,9.372444,8.896476,-6.341084,0.861594,-0.293962,-0.923096,-0.135742,-0.269531,0.203354,-0.037141,-0.037355,0.999487,-0.031700,0.004307,-0.001470,-0.501540,-0.339473,0.499591,-0.619375
15744,NaN,18.362317,-4.087923,-3.889938,-0.453209,8.815765,7.248598,-6.194093,0.895828,-0.157315,-0.923584,-0.120850,-0.288086,0.183417,-0.042219,-0.038427,0.999510,-0.030965,0.004478,-0.000786,-0.515816,-0.321734,0.516632,-0.602920
15745,NaN,16.196570,-4.167499,-3.707077,0.392483,7.892493,5.385628,-5.793327,0.869604,-0.048091,-0.917725,-0.101807,-0.298584,0.161796,-0.042778,-0.036546,0.999571,-0.028962,0.004347,-0.000240,-0.527315,-0.304154,0.531540,-0.588977
15746,NaN,14.152682,-4.052942,-3.107609,0.905981,6.564947,3.695078,-5.293807,0.812111,0.047515,-0.907959,-0.082764,-0.309082,0.141412,-0.041309,-0.030564,0.999641,-0.026466,0.004060,0.000238,-0.538355,-0.287689,0.545770,-0.574060
15747,NaN,12.237952,-3.877299,-2.347219,1.130231,5.185726,2.109551,-4.776833,0.757611,0.179630,-0.914795,-0.067627,-0.325684,0.122327,-0.039216,-0.023002,0.999707,-0.023882,0.003788,0.000898,-0.546630,-0.272078,0.557526,-0.562436
15748,NaN,10.385006,-3.692545,-1.446827,1.213991,3.684963,0.604759,-4.226154,0.713214,0.336919,-0.911377,-0.044434,-0.328125,0.103862,-0.037050,-0.014057,0.999769,-0.021129,0.003566,0.001684,-0.554498,-0.257197,0.569018,-0.550091
15749,NaN,8.615968,-3.581642,-0.638125,1.254736,2.348832,-0.847285,-3.640615,0.706878,0.495253,-0.907715,-0.027344,-0.340820,0.086226,-0.035715,-0.006035,0.999825,-0.018202,0.003534,0.002476,-0.559743,-0.243700,0.577596,-0.541923
15750,NaN,7.031011,-3.463006,0.051644,1.240537,1.177323,-2.163850,-3.054148,0.725758,0.625160,-0.897705,-0.008301,-0.345215,0.070420,-0.034399,0.000788,0.999872,-0.015270,0.003629,0.003126,-0.564890,-0.230812,0.585888,-0.533255
15751,NaN,5.669074,-3.230074,0.470310,1.142729,0.413019,-3.384924,-2.514861,0.758612,0.716316,-0.900391,0.006592,-0.355713,0.056824,-0.032037,0.004892,0.999907,-0.012574,0.003793,0.003581,-0.568064,-0.219560,0.591211,-0.528741
15752,NaN,4.475982,-2.772423,0.645378,0.915800,-0.010015,-4.587921,-2.054846,0.783864,0.777327,-0.892334,0.021484,-0.353760,0.044893,-0.027483,0.006561,0.999932,-0.010274,0.003919,0.003887,-0.572181,-0.207792,0.596763,-0.522785
15753,NaN,3.471196,-2.327845,0.551745,0.793083,-0.107782,-5.673639,-1.675182,0.804038,0.811124,-0.892822,0.032227,-0.364258,0.034828,-0.023091,0.005572,0.999949,-0.008376,0.004020,0.004056,-0.574183,-0.198461,0.599642,-0.520920
15754,NaN,2.594181,-1.982703,0.210213,0.862477,-0.004277,-6.656565,-1.391304,0.812619,0.831704,-0.889160,0.049072,-0.372803,0.026033,-0.019704,0.002134,0.999959,-0.006956,0.004063,0.004158,-0.577048,-0.188780,0.603099,-0.517349
15755,NaN,1.890269,-1.783064,-0.107431,1.017950,0.089838,-7.421110,-1.230441,0.790127,0.857258,-0.887451,0.061768,-0.376953,0.018975,-0.017756,-0.001040,0.999964,-0.006152,0.003951,0.004286,-0.578364,-0.180587,0.604778,-0.516843
15756,NaN,1.245184,-1.640629,-0.470815,1.244543,0.194120,-8.116450,-1.175924,0.743371,0.896767,-0.883545,0.072510,-0.381348,0.012508,-0.016378,-0.004658,0.999966,-0.005880,0.003717,0.004484,-0.580916,-0.171063,0.607733,-0.513747
15757,NaN,0.699087,-1.561115,-0.765199,1.471751,0.251998,-8.680540,-1.171133,0.651009,0.959786,-0.879639,0.085205,-0.387695,0.007041,-0.015622,-0.007583,0.999966,-0.005856,0.003255,0.004799,-0.581421,-0.163058,0.609639,-0.513519
15758,NaN,0.371520,-1.513233,-0.965426,1.625714,0.283135,-9.014689,-1.162947,0.560902,1.029449,-0.873779,0.100098,-0.387695,0.003766,-0.015169,-0.009577,0.999966,-0.005815,0.002804,0.005147,-0.582803,-0.153939,0.612898,-0.510880
15759,NaN,0.307960,-1.625998,-1.007884,1.749012,0.231439,-9.011506,-1.110543,0.461423,1.092866,-0.874268,0.114990,-0.398193,0.003145,-0.016299,-0.009996,0.999967,-0.005553,0.002307,0.005464,-0.582272,-0.146161,0.615200,-0.511004
15760,NaN,0.937354,-2.028758,-0.670713,1.681865,0.025920,-8.195607,-1.000146,0.387608,1.120394,-0.868408,0.127686,-0.392334,0.009474,-0.020268,-0.006624,0.999970,-0.005001,0.001938,0.005602,-0.582901,-0.137312,0.618460,-0.508802
15761,NaN,2.068913,-2.635015,-0.084478,1.457369,-0.224127,-6.803277,-0.898014,0.360129,1.110244,-0.862793,0.144531,-0.400879,0.020834,-0.026238,-0.000764,0.999973,-0.004490,0.001801,0.005551,-0.581801,-0.130332,0.620430,-0.509498
15762,NaN,3.323850,-3.339652,0.412801,1.289149,-0.390122,-5.278670,-0.783750,0.366085,1.036359,-0.869385,0.157471,-0.403076,0.033419,-0.033207,0.004197,0.999977,-0.003919,0.001830,0.005182,-0.582432,-0.122225,0.622990,-0.507659
15763,NaN,4.770898,-4.371237,0.697725,1.413374,-0.415873,-3.473517,-0.582910,0.390838,0.913982,-0.863281,0.165771,-0.401123,0.047922,-0.043473,0.007011,0.999983,-0.002915,0.001954,0.004570,-0.581686,-0.116675,0.623870,-0.508739
15764,NaN,6.311221,-5.648503,0.960190,1.690230,-0.494282,-1.472576,-0.286921,0.416629,0.761538,-0.857178,0.170166,-0.403320,0.063347,-0.056230,0.009551,0.999990,-0.001435,0.002083,0.003808,-0.582534,-0.111343,0.624584,-0.508087
15765,NaN,7.737987,-7.104657,1.024765,2.258988,-0.503527,0.485162,0.062179,0.460864,0.579180,-0.857422,0.174316,-0.413574,0.077608,-0.070825,0.010047,0.999993,0.000311,0.002304,0.002896,-0.582473,-0.108532,0.623392,-0.510225
15766,NaN,8.986442,-8.485077,1.015392,2.901987,-0.507705,2.233211,0.482520,0.456362,0.352362,-0.859375,0.174316,-0.411621,0.090036,-0.084716,0.009744,0.999993,0.002413,0.002282,0.001762,-0.584068,-0.106702,0.621636,-0.510928
15767,NaN,10.228062,-9.382340,1.264966,3.087342,-0.431175,3.771223,0.993273,0.389115,0.083934,-0.854980,0.170166,-0.419678,0.102344,-0.093841,0.011985,0.999986,0.004966,0.001946,0.000420,-0.584534,-0.108334,0.617989,-0.514464
15768,NaN,11.375772,-9.450410,1.628609,2.696937,-0.131335,4.818695,1.514597,0.271973,-0.190157,-0.856934,0.159424,-0.423584,0.113689,-0.094731,0.015415,0.999970,0.007573,0.001360,-0.000951,-0.585675,-0.112577,0.613690,-0.517394
15769,NaN,12.051904,-8.676680,2.073111,1.821236,0.281127,5.067890,1.893182,0.140286,-0.393166,-0.856445,0.146729,-0.427490,0.120362,-0.087194,0.019823,0.999953,0.009466,0.000701,-0.001966,-0.586038,-0.118947,0.608122,-0.522110
15770,NaN,11.841840,-7.294995,2.824675,0.582286,0.232998,4.365769,2.003164,0.015909,-0.464261,-0.857910,0.129883,-0.437256,0.118250,-0.073503,0.027503,0.999947,0.010016,0.000080,-0.002321,-0.586577,-0.126333,0.602986,-0.525714
15771,NaN,10.835764,-5.755016,3.382558,-0.476725,0.003867,2.905274,1.858369,-0.107883,-0.440223,-0.859619,0.117188,-0.427002,0.108212,-0.058100,0.033346,0.999954,0.009292,-0.000539,-0.002201,-0.586217,-0.133377,0.598103,-0.529937
15772,NaN,10.048075,-4.603545,4.036101,-1.386682,-0.433779,1.863547,1.544094,-0.297783,-0.374078,-0.863770,0.110840,-0.428955,0.100334,-0.046534,0.040152,0.999967,0.007720,-0.001489,-0.001870,-0.585663,-0.140194,0.594947,-0.532338
15773,NaN,10.054915,-4.277582,4.710075,-1.921945,-0.876416,1.897185,1.199309,-0.541353,-0.294744,-0.869629,0.102295,-0.424561,0.100358,-0.043206,0.047114,0.999977,0.005997,-0.002707,-0.001474,-0.583992,-0.146009,0.593110,-0.534654
15774,NaN,10.532254,-4.590177,5.265195,-2.029394,-1.319974,2.591296,0.903057,-0.781067,-0.236476,-0.869629,0.097900,-0.416504,0.105062,-0.046264,0.052854,0.999981,0.004515,-0.003905,-0.001182,-0.581605,-0.152233,0.593059,-0.535577
15775,NaN,11.117081,-5.750783,5.587577,-1.387241,-1.858802,3.696621,0.750153,-0.991796,-0.169468,-0.873535,0.091553,-0.412109,0.110844,-0.057812,0.056210,0.999980,0.003751,-0.004959,-0.000847,-0.578544,-0.157559,0.593785,-0.536546
15776,NaN,11.362186,-7.166897,5.573506,-0.266043,-2.394964,4.530259,0.929730,-1.133995,-0.009272,-0.884033,0.085205,-0.399902,0.113301,-0.071934,0.056044,0.999973,0.004649,-0.005670,-0.000046,-0.574712,-0.163726,0.594812,-0.537679
15777,NaN,11.069973,-7.883236,5.795912,0.326824,-3.046513,4.640468,1.346295,-1.168359,0.183941,-0.885986,0.081055,-0.393555,0.110433,-0.079121,0.058073,0.999960,0.006731,-0.005842,0.000920,-0.569626,-0.170172,0.594668,-0.541237
15778,NaN,10.095907,-7.349902,6.281661,0.027127,-3.732698,3.658500,1.904979,-1.137760,0.269370,-0.892334,0.081055,-0.383545,0.100702,-0.073961,0.062687,0.999938,0.009525,-0.005689,0.001347,-0.563768,-0.178703,0.593021,-0.546404
15779,NaN,8.719612,-6.489599,5.463333,0.258378,-3.311166,1.890355,2.946988,-1.102575,0.160676,-0.893555,0.059814,-0.375000,0.086949,-0.065626,0.054150,0.999876,0.014734,-0.005513,0.000803,-0.557365,-0.189514,0.588140,-0.554545
15780,NaN,7.573058,-6.368543,4.802285,1.035397,-3.124832,0.681531,4.104759,-1.139177,-0.065130,-0.897217,0.040527,-0.364502,0.075439,-0.064684,0.047132,0.999773,0.020522,-0.005695,-0.000326,-0.550208,-0.204867,0.579786,-0.564932
15781,NaN,6.774713,-5.420566,4.144508,1.001450,-2.513287,-0.586081,4.720888,-1.183028,-0.168626,-0.909180,0.021484,-0.355957,0.067459,-0.055227,0.040549,0.999704,0.023602,-0.005915,-0.000843,-0.542265,-0.221614,0.569355,-0.576777
15782,NaN,6.230919,-3.504538,4.076832,-0.223623,-2.159950,-1.875004,4.815809,-1.200767,-0.146210,-0.910645,0.000244,-0.349365,0.062040,-0.036065,0.040281,0.999692,0.024077,-0.006003,-0.000731,-0.533096,-0.239820,0.558079,-0.588934
15783,NaN,5.873605,-1.448744,4.229557,-1.791231,-2.052280,-2.952392,4.462081,-1.218645,-0.022208,-0.914307,-0.016602,-0.341064,0.058477,-0.015438,0.042315,0.999733,0.022308,-0.006093,-0.000111,-0.524276,-0.255291,0.548006,-0.599709
15784,NaN,5.555706,0.034340,4.544279,-2.943498,-2.317457,-3.690619,3.892728,-1.205544,0.148346,-0.920166,-0.029541,-0.330566,0.055282,-0.000504,0.045772,0.999792,0.019462,-0.006027,0.000742,-0.515551,-0.269278,0.539435,-0.608856
15785,NaN,5.038833,0.708510,4.816618,-3.315409,-2.776372,-4.300064,3.215587,-1.164056,0.323427,-0.924316,-0.035889,-0.318115,0.050096,0.006388,0.048565,0.999853,0.016077,-0.005820,0.001617,-0.507030,-0.280192,0.532995,-0.616709
15786,NaN,4.736801,1.022952,4.938211,-3.410319,-3.070672,-4.634986,2.520830,-1.172312,0.466753,-0.930664,-0.035889,-0.301758,0.047054,0.009714,0.049783,0.999901,0.012604,-0.005861,0.002334,-0.499332,-0.289286,0.528706,-0.622456
15787,NaN,4.744493,0.887816,4.821800,-3.182404,-3.063596,-4.613290,1.883932,-1.191767,0.534460,-0.932617,-0.038086,-0.291504,0.047133,0.008548,0.048581,0.999934,0.009419,-0.005959,0.002672,-0.491769,-0.296260,0.526548,-0.627009
15788,NaN,4.861794,0.293230,4.551343,-2.562795,-2.882283,-4.375631,1.410692,-1.185796,0.527205,-0.949707,-0.037842,-0.287598,0.048339,0.002737,0.045820,0.999954,0.007053,-0.005929,0.002636,-0.484810,-0.302788,0.525479,-0.630198
15789,NaN,5.176185,-0.538516,4.165101,-1.812459,-2.511005,-3.910117,1.057417,-1.177004,0.480317,-0.943359,-0.035889,-0.269287,0.051529,-0.005482,0.041926,0.999966,0.005287,-0.005885,0.002402,-0.478596,-0.307782,0.525701,-0.632341
15790,NaN,5.767161,-1.471997,3.621035,-1.063611,-1.898765,-3.194389,0.806669,-1.165196,0.416360,-0.949463,-0.040039,-0.259033,0.057490,-0.014747,0.036486,0.999973,0.004033,-0.005826,0.002082,-0.473290,-0.312741,0.526328,-0.633379
15791,NaN,6.661305,-2.465923,3.061623,-0.395112,-1.182633,-2.179062,0.702347,-1.111847,0.346653,-0.951904,-0.033691,-0.254883,0.066485,-0.024652,0.030899,0.999977,0.003512,-0.005559,0.001733,-0.468166,-0.317000,0.527256,-0.634297
15792,NaN,7.710850,-3.494583,2.687243,0.227424,-0.601699,-0.953988,0.698144,-1.005682,0.272350,-0.960205,-0.035889,-0.240723,0.077020,-0.034935,0.027138,0.999980,0.003491,-0.005028,0.001362,-0.464198,-0.321257,0.527669,-0.634727
15793,NaN,8.979953,-4.428285,2.425352,0.657346,-0.068728,0.468101,0.790284,-0.855307,0.183003,-0.962158,-0.044434,-0.234375,0.089736,-0.044297,0.024462,0.999983,0.003951,-0.004277,0.000915,-0.460093,-0.325313,0.527422,-0.635855
15794,NaN,10.685207,-5.178878,2.190705,0.777271,0.556880,2.223894,1.066677,-0.636322,0.040001,-0.962158,-0.040283,-0.226318,0.106793,-0.051884,0.021970,0.999981,0.005333,-0.003182,0.000200,-0.456945,-0.330067,0.525286,-0.637442
15795,NaN,12.895223,-5.699708,1.806479,0.515569,1.475162,4.315107,1.470980,-0.391416,-0.167338,-0.961914,-0.048584,-0.224121,0.128869,-0.057237,0.017897,0.999971,0.007355,-0.001957,-0.000837,-0.454019,-0.335101,0.521191,-0.640261
15796,NaN,15.820004,-6.043560,1.221190,-0.113489,2.792833,6.934689,1.752248,-0.149808,-0.326884,-0.968018,-0.057129,-0.221924,0.158092,-0.060799,0.011799,0.999960,0.008761,-0.000749,-0.001634,-0.452355,-0.340470,0.515280,-0.643383
15797,NaN,18.831931,-5.660087,0.350263,-1.440780,4.410048,9.299471,1.778915,0.101413,-0.440971,-0.965576,-0.065674,-0.219727,0.188195,-0.057043,0.002901,0.999958,0.008894,0.000507,-0.002205,-0.450998,-0.345286,0.508546,-0.647117
15798,NaN,21.668313,-4.440237,-0.954517,-3.443806,6.374058,11.107430,1.596188,0.368472,-0.547643,-0.963135,-0.072021,-0.227783,0.216542,-0.044915,-0.010301,0.999963,0.007981,0.001842,-0.002738,-0.451432,-0.349254,0.501528,-0.650155
15799,NaN,23.215529,-2.998017,-1.882887,-5.220060,7.681483,11.756629,1.288723,0.684202,-0.628142,-0.960693,-0.082520,-0.233643,0.231993,-0.030583,-0.019818,0.999968,0.006444,0.003421,-0.003141,-0.452935,-0.351499,0.494671,-0.653145
15800,NaN,22.742068,-1.859904,-2.530596,-5.961487,8.303948,10.743673,0.746576,0.975229,-0.618503,-0.956055,-0.093262,-0.241699,0.227235,-0.019205,-0.026485,0.999976,0.003733,0.004876,-0.003092,-0.457350,-0.351101,0.489370,-0.654276
15801,NaN,20.683620,-1.262537,-3.105682,-5.717154,8.507132,8.462643,0.151999,1.201590,-0.591746,-0.956055,-0.099609,-0.257812,0.206606,-0.013213,-0.032308,0.999977,0.000760,0.006008,-0.002959,-0.461959,-0.348954,0.485064,-0.655392
15802,NaN,18.507442,-0.966257,-3.289271,-5.103595,8.319063,6.281368,-0.403162,1.334628,-0.556586,-0.951904,-0.097412,-0.270264,0.184822,-0.010245,-0.034106,0.999972,-0.002016,0.006673,-0.002783,-0.469246,-0.344533,0.482935,-0.654124
15803,NaN,16.945452,-0.634188,-3.163414,-4.791093,7.949616,4.726961,-0.982978,1.360218,-0.470219,-0.947510,-0.101562,-0.282471,0.169219,-0.006899,-0.032753,0.999962,-0.004915,0.006801,-0.002351,-0.475755,-0.338897,0.482119,-0.652968
15804,NaN,15.654425,-0.053900,-2.713423,-4.781622,7.302625,3.462472,-1.572643,1.347113,-0.311296,-0.943359,-0.097412,-0.296875,0.156355,-0.001001,-0.028181,0.999945,-0.007863,0.006735,-0.001556,-0.484058,-0.331158,0.484145,-0.649327
15805,NaN,14.008413,0.559508,-2.195867,-4.781412,6.451636,1.886955,-2.138987,1.278848,-0.075682,-0.939453,-0.088867,-0.311279,0.139942,0.005300,-0.022912,0.999922,-0.010695,0.006394,-0.000378,-0.490914,-0.321984,0.487820,-0.646035
15806,NaN,12.254688,0.704428,-1.627584,-4.320916,5.509324,0.399926,-2.562740,1.152715,0.144434,-0.931396,-0.078369,-0.319580,0.122445,0.006917,-0.017071,0.999901,-0.012813,0.005763,0.000722,-0.498565,-0.311440,0.494041,-0.640594
15807,NaN,10.680688,0.510322,-0.907454,-3.693183,4.439589,-0.767788,-2.830317,0.999691,0.320735,-0.927490,-0.063477,-0.332031,0.106751,0.005140,-0.009681,0.999886,-0.014151,0.004998,0.001604,-0.504369,-0.300352,0.501046,-0.635888
15808,NaN,9.395120,0.289745,-0.119047,-3.170874,3.350595,-1.622159,-2.983901,0.817892,0.430692,-0.925781,-0.050537,-0.342529,0.093939,0.003078,-0.001620,0.999878,-0.014919,0.004089,0.002153,-0.510384,-0.289240,0.509493,-0.629495
15809,NaN,8.570210,0.089818,0.923412,-2.929230,2.150307,-1.995763,-3.117421,0.661879,0.508254,-0.926514,-0.029297,-0.344971,0.085729,0.001257,0.008933,0.999870,-0.015586,0.003309,0.002541,-0.514924,-0.277866,0.518273,-0.623728
15810,NaN,8.007228,-0.092545,1.834354,-2.817441,1.141375,-2.180699,-3.319835,0.578153,0.604970,-0.925049,-0.014404,-0.357422,0.080127,-0.000381,0.018121,0.999853,-0.016598,0.002891,0.003025,-0.519878,-0.266141,0.528253,-0.616315
15811,NaN,7.626978,-0.604348,2.526825,-2.493874,0.359655,-2.159568,-3.639172,0.556851,0.730084,-0.921631,0.010986,-0.359863,0.076360,-0.005306,0.025157,0.999824,-0.018195,0.002784,0.003650,-0.523863,-0.252989,0.538886,-0.609234
15812,NaN,7.337137,-1.648183,2.760317,-1.653610,-0.073168,-1.975149,-3.990521,0.575193,0.870788,-0.916260,0.038574,-0.362305,0.073520,-0.015610,0.027709,0.999787,-0.019951,0.002876,0.004354,-0.528896,-0.238248,0.550943,-0.599974
15813,NaN,6.977643,-3.010898,2.498026,-0.421779,-0.200179,-1.826963,-4.293845,0.634172,0.998031,-0.916992,0.059814,-0.364746,0.070004,-0.029218,0.025392,0.999752,-0.021467,0.003171,0.004990,-0.532645,-0.222182,0.563187,-0.591393
15814,NaN,6.466209,-4.496128,1.854364,1.078513,-0.179846,-1.796088,-4.425790,0.686062,1.109794,-0.915771,0.085205,-0.367188,0.064974,-0.044180,0.019305,0.999734,-0.022127,0.003430,0.005548,-0.536978,-0.205229,0.575798,-0.581371
15815,NaN,5.824912,-5.673772,1.156666,2.364402,-0.189947,-1.949641,-4.344161,0.720478,1.206473,-0.904297,0.121338,-0.369873,0.058633,-0.056119,0.012579,0.999739,-0.021719,0.003602,0.006032,-0.539876,-0.187944,0.587568,-0.572692
15816,NaN,5.026825,-6.333935,0.264480,3.377395,-0.051254,-2.461290,-4.076779,0.710533,1.294050,-0.907227,0.146973,-0.374512,0.050688,-0.062943,0.003751,0.999765,-0.020382,0.003552,0.006470,-0.542832,-0.171055,0.598626,-0.563668
15817,NaN,4.296867,-6.462825,-0.525825,3.927205,0.160405,-3.100399,-3.611307,0.689732,1.358091,-0.897461,0.172363,-0.374756,0.043391,-0.064417,-0.004243,0.999808,-0.018055,0.003448,0.006790,-0.544066,-0.155211,0.607967,-0.557026
15818,NaN,3.617135,-6.211112,-1.091203,4.114556,0.305407,-3.827138,-2.954776,0.688295,1.399798,-0.894043,0.193604,-0.371094,0.036570,-0.062010,-0.010121,0.999860,-0.014773,0.003441,0.006999,-0.545793,-0.140350,0.615653,-0.550802
15819,NaN,3.011780,-5.807005,-1.498836,4.126969,0.455389,-4.540305,-2.172444,0.680322,1.416288,-0.886475,0.218994,-0.379639,0.030479,-0.058014,-0.014461,0.999910,-0.010862,0.003402,0.007081,-0.545476,-0.128174,0.620707,-0.548406
15820,NaN,2.629386,-5.539348,-1.741122,4.124495,0.533560,-4.982287,-1.288133,0.677791,1.432420,-0.884766,0.236084,-0.382080,0.026632,-0.055315,-0.017145,0.999948,-0.006441,0.003389,0.007162,-0.545631,-0.117766,0.623576,-0.547330
15821,NaN,2.490504,-5.558617,-1.537300,4.019512,0.312222,-4.995045,-0.465889,0.681719,1.443822,-0.874512,0.244385,-0.390381,0.025253,-0.055440,-0.015329,0.999965,-0.002329,0.003409,0.007219,-0.544075,-0.110123,0.623810,-0.550197
15822,NaN,2.676243,-5.724193,-1.243202,3.862139,0.130880,-4.660964,0.191506,0.682955,1.482139,-0.866455,0.257080,-0.392578,0.027143,-0.057030,-0.012579,0.999966,0.000958,0.003415,0.007411,-0.543459,-0.103202,0.622566,-0.553546
15823,NaN,2.972505,-5.901451,-0.941971,3.668492,0.056413,-4.237018,0.734713,0.672976,1.496325,-0.862549,0.263428,-0.398682,0.030133,-0.058755,-0.009737,0.999960,0.003674,0.003365,0.007482,-0.541026,-0.098673,0.619440,-0.560222
15824,NaN,3.429375,-5.993692,-0.520540,3.294852,0.013957,-3.721868,1.183193,0.671835,1.469193,-0.856445,0.274170,-0.409180,0.034714,-0.059650,-0.005675,0.999950,0.005916,0.003359,0.007346,-0.539299,-0.095066,0.615281,-0.567052
15825,NaN,3.751165,-5.874224,-0.035398,2.792704,-0.033142,-3.427008,1.435158,0.683909,1.407579,-0.852539,0.282715,-0.419434,0.037921,-0.058471,-0.000903,0.999944,0.007176,0.003419,0.007038,-0.536714,-0.092660,0.609993,-0.575553
15826,NaN,3.867877,-5.597084,0.347755,2.329758,-0.059305,-3.411461,1.591920,0.705248,1.301252,-0.846191,0.280518,-0.429688,0.039053,-0.055742,0.002896,0.999941,0.007959,0.003526,0.006506,-0.535191,-0.090597,0.604391,-0.583160
15827,NaN,4.103968,-5.556555,0.924734,1.897903,-0.242819,-3.111178,1.695956,0.713392,1.150161,-0.837402,0.276367,-0.439697,0.041390,-0.055403,0.008630,0.999941,0.008480,0.003567,0.005751,-0.533207,-0.089572,0.598012,-0.591648
15828,NaN,4.459827,-5.615836,1.510008,1.505074,-0.411186,-2.652251,1.643598,0.683231,0.964433,-0.835449,0.280518,-0.450195,0.044919,-0.056063,0.014486,0.999949,0.008218,0.003416,0.004822,-0.532025,-0.089205,0.591960,-0.598811
15829,NaN,4.887810,-5.616496,1.887094,1.157559,-0.356271,-2.227925,1.489028,0.651051,0.737977,-0.831299,0.282715,-0.464355,0.049145,-0.056122,0.018293,0.999960,0.007445,0.003255,0.003690,-0.531071,-0.089027,0.586066,-0.605445
15830,NaN,5.247765,-5.697315,2.298573,0.893781,-0.408044,-1.792996,1.303837,0.603060,0.484072,-0.822510,0.271973,-0.472412,0.052684,-0.056993,0.022456,0.999971,0.006519,0.003015,0.002420,-0.531265,-0.089271,0.580976,-0.610127
15831,NaN,5.583271,-5.903210,2.555764,0.820737,-0.386108,-1.343374,1.066342,0.506920,0.218450,-0.824707,0.274170,-0.478516,0.055961,-0.059106,0.025101,0.999982,0.005332,0.002535,0.001092,-0.531601,-0.089920,0.576454,-0.614017
15832,NaN,5.900266,-6.231865,2.787991,0.872380,-0.413459,-0.841080,0.765174,0.366049,-0.044612,-0.824463,0.265625,-0.480469,0.059039,-0.062438,0.027533,0.999991,0.003826,0.001830,-0.000223,-0.532452,-0.091432,0.573269,-0.616034
15833,NaN,6.221988,-6.597521,2.942360,0.988683,-0.406634,-0.338785,0.399010,0.193582,-0.292980,-0.824219,0.261475,-0.482422,0.062151,-0.066125,0.029232,0.999996,0.001995,0.000968,-0.001465,-0.533740,-0.092736,0.571378,-0.616480
15834,NaN,6.485005,-7.030617,3.136444,1.163495,-0.528995,0.171719,0.007023,-0.002141,-0.519359,-0.828369,0.257324,-0.484375,0.064667,-0.070475,0.031363,0.999997,0.000035,-0.000011,-0.002597,-0.535288,-0.094753,0.571303,-0.614899
15835,NaN,6.856327,-7.672668,3.278165,1.473088,-0.634741,0.866823,-0.302335,-0.224462,-0.726575,-0.830322,0.252930,-0.482178,0.068247,-0.076925,0.032975,0.999992,-0.001512,-0.001122,-0.003633,-0.537035,-0.096708,0.572475,-0.611975
15836,NaN,7.559093,-8.560834,3.484889,1.811177,-0.734167,1.966590,-0.485969,-0.477158,-0.909463,-0.843018,0.248779,-0.469971,0.075117,-0.085865,0.035237,0.999984,-0.002430,-0.002386,-0.004547,-0.538567,-0.099997,0.574964,-0.607753
15837,NaN,8.583487,-9.257283,3.774034,1.834188,-0.735238,3.214561,-0.574822,-0.769669,-1.028034,-0.851074,0.238281,-0.461670,0.085211,-0.092902,0.038336,0.999975,-0.002874,-0.003848,-0.005140,-0.539767,-0.103741,0.578245,-0.602928
15838,NaN,9.214702,-9.394251,3.774716,1.735072,-0.645826,3.751219,-0.571462,-1.035514,-1.082852,-0.853271,0.238281,-0.453613,0.091439,-0.094330,0.038491,0.999968,-0.002857,-0.005178,-0.005414,-0.540110,-0.109048,0.582395,-0.597667
15839,NaN,9.138973,-9.259692,3.753304,1.716629,-0.851007,3.591590,-0.393601,-1.262024,-1.087260,-0.863525,0.233887,-0.445312,0.090645,-0.093016,0.038289,0.999963,-0.001968,-0.006310,-0.005436,-0.539894,-0.114921,0.586355,-0.592870
15840,NaN,8.772937,-9.006617,3.890628,1.650455,-1.308142,3.178896,-0.119478,-1.451788,-1.043154,-0.871582,0.221191,-0.432861,0.086972,-0.090498,0.039593,0.999960,-0.000597,-0.007259,-0.005216,-0.538647,-0.122353,0.590202,-0.588686
15841,NaN,8.312732,-8.583588,3.882199,1.568864,-1.611347,2.548123,0.212453,-1.615868,-0.971609,-0.883789,0.206299,-0.420410,0.082392,-0.086279,0.039398,0.999955,0.001062,-0.008079,-0.004858,-0.536599,-0.130546,0.593298,-0.585676
15842,NaN,8.133045,-7.968517,3.688956,1.330205,-1.551498,1.980211,0.611100,-1.748965,-0.901698,-0.896240,0.199951,-0.404053,0.080644,-0.080163,0.037352,0.999947,0.003055,-0.008745,-0.004508,-0.533437,-0.140408,0.595723,-0.583819
15843,NaN,8.101790,-7.422167,3.371081,1.150852,-1.300018,1.548420,1.057732,-1.835086,-0.808180,-0.904297,0.185059,-0.393555,0.080405,-0.074727,0.034056,0.999936,0.005289,-0.009175,-0.004041,-0.529569,-0.150987,0.596915,-0.583484
15844,NaN,7.871889,-7.075381,3.057324,1.208294,-1.170279,1.075077,1.497515,-1.905034,-0.685443,-0.912598,0.178711,-0.375000,0.078183,-0.071252,0.030787,0.999921,0.007487,-0.009525,-0.003427,-0.524534,-0.162902,0.597161,-0.584573
15845,NaN,7.402608,-6.822884,2.659305,1.468244,-1.046007,0.442603,1.945338,-1.984228,-0.548340,-0.926758,0.163818,-0.360596,0.073574,-0.068690,0.026658,0.999900,0.009726,-0.009921,-0.002742,-0.518591,-0.175428,0.596163,-0.587264
15846,NaN,6.984975,-6.565952,2.284697,1.684082,-0.879043,-0.142550,2.393836,-2.068442,-0.398035,-0.937012,0.153320,-0.343994,0.069483,-0.066071,0.022778,0.999873,0.011969,-0.010342,-0.001990,-0.511305,-0.189106,0.594218,-0.591363
15847,NaN,6.613186,-6.093786,2.056528,1.630371,-0.732558,-0.762704,2.790837,-2.153408,-0.242925,-0.944824,0.136230,-0.329346,0.065837,-0.061304,0.020421,0.999844,0.013953,-0.010766,-0.001215,-0.502923,-0.203303,0.591139,-0.596901
15848,NaN,6.250188,-5.389181,2.002488,1.297486,-0.683042,-1.448034,3.086207,-2.229313,-0.087150,-0.953125,0.127686,-0.317139,0.062256,-0.054227,0.019885,0.999819,0.015430,-0.011146,-0.000436,-0.493236,-0.218132,0.587478,-0.603330
15849,NaN,5.963058,-4.660820,2.051619,0.863937,-0.704590,-2.050786,3.272297,-2.296701,0.067637,-0.958984,0.114990,-0.298584,0.059411,-0.046923,0.020433,0.999800,0.016360,-0.011483,0.000338,-0.482634,-0.232890,0.583217,-0.610479
15850,NaN,5.761842,-3.999503,2.221488,0.408053,-0.850030,-2.516092,3.386948,-2.343958,0.212170,-0.967285,0.106445,-0.280029,0.057401,-0.040310,0.022208,0.999787,0.016934,-0.011719,0.001061,-0.470986,-0.247697,0.578792,-0.617914
15851,NaN,5.772492,-3.574071,2.372453,0.068389,-0.968098,-2.686550,3.412070,-2.363551,0.369407,-0.979492,0.095947,-0.257324,0.057510,-0.036040,0.023792,0.999783,0.017059,-0.011817,0.001847,-0.458694,-0.261914,0.574138,-0.625593
15852,NaN,5.978578,-3.280930,2.420858,-0.226839,-0.974070,-2.645556,3.398938,-2.338771,0.534295,-0.981689,0.095947,-0.242920,0.059590,-0.033063,0.024346,0.999784,0.016993,-0.011693,0.002671,-0.445637,-0.275563,0.569569,-0.633295
15853,NaN,6.152869,-3.089529,2.417426,-0.423169,-0.960641,-2.591558,3.357349,-2.278708,0.713913,-0.988037,0.097900,-0.220703,0.061363,-0.031084,0.024353,0.999788,0.016786,-0.011393,0.003569,-0.432184,-0.288169,0.564868,-0.641170
15854,NaN,6.298617,-2.913584,2.256509,-0.593472,-0.816313,-2.585337,3.303776,-2.187386,0.898407,-0.994141,0.091553,-0.206299,0.062869,-0.029228,0.022771,0.999794,0.016518,-0.010936,0.004492,-0.418169,-0.299829,0.560293,-0.649083
15855,NaN,6.401708,-2.689780,2.066989,-0.811033,-0.660384,-2.643646,3.254025,-2.064087,1.078340,-0.998779,0.100098,-0.187988,0.063947,-0.026892,0.020893,0.999800,0.016269,-0.010320,0.005391,-0.403942,-0.310253,0.555542,-0.657227
15856,NaN,6.677033,-2.519165,1.869668,-1.092131,-0.474676,-2.532142,3.236662,-1.907237,1.219198,-1.000977,0.108398,-0.175781,0.066744,-0.025090,0.018927,0.999805,0.016182,-0.009536,0.006096,-0.389442,-0.319706,0.550639,-0.665522
15857,NaN,7.412798,-2.375937,1.715189,-1.604376,-0.264590,-2.009346,3.204498,-1.726599,1.294664,-1.000977,0.108398,-0.161621,0.074131,-0.023557,0.017413,0.999813,0.016021,-0.008632,0.006473,-0.375202,-0.328069,0.545294,-0.673980
15858,NaN,8.635853,-2.185063,1.611828,-2.430828,-0.070329,-1.092827,3.115920,-1.498337,1.278026,-1.003418,0.114746,-0.147217,0.086375,-0.021553,0.016428,0.999830,0.015579,-0.007491,0.006390,-0.361559,-0.335513,0.539697,-0.682227
15859,NaN,10.188798,-2.012244,1.518210,-3.438137,0.127559,0.103351,2.931853,-1.195357,1.175015,-1.003662,0.123291,-0.139404,0.101913,-0.019749,0.015500,0.999857,0.014659,-0.005976,0.005875,-0.349372,-0.341673,0.533740,-0.690159
15860,NaN,11.912560,-1.851504,1.318180,-4.560534,0.421222,1.416648,2.478005,-0.823141,1.013582,-1.003906,0.127441,-0.141357,0.119163,-0.018077,0.013446,0.999902,0.012390,-0.004116,0.005068,-0.339368,-0.346202,0.528385,-0.696981
15861,NaN,13.630862,-1.512841,1.096246,-5.858813,0.695031,2.616363,1.769648,-0.364886,0.833580,-1.003906,0.131836,-0.135254,0.136350,-0.014658,0.011080,0.999951,0.008848,-0.001824,0.004168,-0.332435,-0.348259,0.524244,-0.702404
15862,NaN,15.007751,-0.450413,1.176960,-7.543582,0.489768,3.213233,0.888222,0.115171,0.610155,-1.006104,0.131836,-0.143555,0.150097,-0.004098,0.011664,0.999985,0.004441,0.000576,0.003051,-0.329059,-0.347847,0.522056,-0.705818
15863,NaN,15.676344,1.193254,1.227267,-9.317767,0.152738,2.908673,-0.155714,0.500312,0.241434,-1.004150,0.138184,-0.145752,0.156779,0.012131,0.011871,0.999996,-0.000779,0.002502,0.001207,-0.329799,-0.345195,0.522190,-0.706676
15864,NaN,16.195729,2.418406,0.760811,-10.699504,0.481081,2.597636,-1.335398,0.783952,-0.251483,-1.001953,0.131836,-0.153809,0.162015,0.024028,0.006812,0.999969,-0.006677,0.003920,-0.001257,-0.335143,-0.341027,0.525213,-0.703939
15865,NaN,16.959656,2.283558,-0.081469,-11.076054,1.628661,3.130004,-2.504063,1.107366,-0.751267,-0.999756,0.134033,-0.161865,0.169672,0.022178,-0.002034,0.999899,-0.012520,0.005537,-0.003756,-0.344947,-0.334874,0.530826,-0.697921
15866,NaN,17.384826,0.797603,-1.076357,-10.027921,3.233434,4.079813,-3.548105,1.439373,-1.121583,-0.997559,0.129639,-0.170166,0.173804,0.006794,-0.012142,0.999801,-0.017739,0.007196,-0.005608,-0.358787,-0.326847,0.538758,-0.688609
15867,NaN,17.664561,-0.974339,-1.671316,-8.487302,4.448263,5.152065,-4.409139,1.762400,-1.343393,-0.997314,0.123291,-0.186279,0.176418,-0.011317,-0.018031,0.999696,-0.022043,0.008811,-0.006716,-0.375272,-0.316392,0.548406,-0.676992
15868,NaN,17.575498,-2.216460,-2.011914,-7.061397,5.190943,5.712574,-5.110503,2.047080,-1.403276,-0.997314,0.125488,-0.200684,0.175377,-0.023931,-0.021319,0.999597,-0.025549,0.010234,-0.007015,-0.393880,-0.303849,0.559418,-0.663013
15869,NaN,17.291486,-3.194673,-2.094817,-5.723846,5.510491,6.012860,-5.644820,2.210969,-1.298446,-0.993164,0.127686,-0.217041,0.172461,-0.033677,-0.021922,0.999520,-0.028220,0.011053,-0.006491,-0.412769,-0.288894,0.571522,-0.647707
15870,NaN,16.845049,-4.484813,-2.041009,-4.037322,5.508676,6.354564,-6.024364,2.304111,-1.056509,-0.987305,0.136230,-0.231445,0.167969,-0.046362,-0.020966,0.999466,-0.030116,0.011519,-0.005282,-0.431607,-0.272162,0.584425,-0.630945
15871,NaN,15.990153,-5.513102,-1.933811,-2.467992,5.190459,6.211714,-6.270947,2.346485,-0.761073,-0.983398,0.151123,-0.248047,0.159461,-0.056347,-0.019457,0.999432,-0.031349,0.011730,-0.003805,-0.449167,-0.253303,0.597763,-0.613813
15872,NaN,14.606711,-6.005478,-1.777590,-1.200380,4.581454,5.357930,-6.327674,2.331926,-0.484118,-0.973145,0.155273,-0.252197,0.145715,-0.060966,-0.017557,0.999429,-0.031632,0.011657,-0.002420,-0.465740,-0.233568,0.610960,-0.596038
15873,NaN,12.980976,-6.004665,-1.496009,-0.400942,3.776123,4.057347,-6.219479,2.237785,-0.241225,-0.967529,0.178711,-0.264893,0.129573,-0.060659,-0.014531,0.999453,-0.031092,0.011187,-0.001206,-0.480317,-0.213033,0.623655,-0.578763
15874,NaN,11.364027,-5.700798,-1.160399,0.034593,2.940059,2.610685,-5.980676,2.088847,-0.045840,-0.963867,0.193604,-0.275391,0.113510,-0.057371,-0.011078,0.999498,-0.029898,0.010442,-0.000229,-0.493448,-0.193008,0.635545,-0.561551
15875,NaN,9.908812,-5.264492,-0.902897,0.230599,2.267923,1.210781,-5.665991,1.919097,0.094418,-0.958252,0.214844,-0.283936,0.099030,-0.052844,-0.008484,0.999553,-0.028326,0.009594,0.000472,-0.504543,-0.173263,0.646514,-0.545377
15876,NaN,8.670072,-5.097829,-0.599961,0.477768,1.537823,0.133351,-5.264197,1.762351,0.204574,-0.950439,0.233887,-0.286133,0.086703,-0.051037,-0.005421,0.999614,-0.026318,0.008811,0.001023,-0.514395,-0.154799,0.656302,-0.529814
15877,NaN,7.558865,-5.135156,-0.341682,0.784525,0.820585,-0.738939,-4.782571,1.620416,0.283891,-0.948730,0.248779,-0.290527,0.075637,-0.051316,-0.002802,0.999680,-0.023910,0.008101,0.001419,-0.522513,-0.137234,0.664803,-0.515929
15878,NaN,6.567131,-5.253591,-0.061165,1.053200,0.085027,-1.469223,-4.227400,1.505776,0.343599,-0.934570,0.271973,-0.294922,0.065760,-0.052427,0.000002,0.999747,-0.021135,0.007528,0.001718,-0.529741,-0.121471,0.671786,-0.503313
15879,NaN,5.878822,-5.363936,0.348596,1.073986,-0.623298,-1.944347,-3.609363,1.436971,0.396015,-0.928711,0.284668,-0.292969,0.058922,-0.053453,0.004029,0.999809,-0.018046,0.007184,0.001980,-0.535678,-0.106950,0.677166,-0.493008
15880,NaN,5.530510,-5.586395,0.778495,1.003592,-1.251251,-2.077916,-2.933695,1.432654,0.452262,-0.925049,0.297607,-0.301514,0.055489,-0.055620,0.008205,0.999864,-0.014668,0.007163,0.002261,-0.541240,-0.094339,0.680646,-0.484645
15881,NaN,5.560129,-5.871188,1.149204,0.847182,-1.674831,-1.863904,-2.201596,1.509211,0.518486,-0.921143,0.310303,-0.309814,0.055841,-0.058439,0.011716,0.999908,-0.011008,0.007546,0.002592,-0.546125,-0.082960,0.682070,-0.479214
15882,NaN,5.580378,-6.057582,1.205399,0.859083,-1.779394,-1.726702,-1.484337,1.643797,0.593047,-0.915039,0.318848,-0.324219,0.056082,-0.060320,0.012042,0.999934,-0.007422,0.008219,0.002965,-0.551211,-0.073246,0.681264,-0.476109
15883,NaN,5.288077,-5.930145,0.931204,1.043619,-1.568546,-2.037893,-0.814140,1.794867,0.681602,-0.904785,0.322998,-0.336670,0.053165,-0.059083,0.009077,0.999946,-0.004071,0.008974,0.003408,-0.555987,-0.064413,0.678460,-0.475838
15884,NaN,4.734459,-5.677500,0.383263,1.479097,-1.197792,-2.659177,-0.177043,1.902192,0.757220,-0.894531,0.333740,-0.357178,0.047593,-0.056592,0.003431,0.999947,-0.000885,0.009511,0.003786,-0.560976,-0.057110,0.673720,-0.477646
15885,NaN,4.064501,-5.276678,-0.334881,2.007406,-0.679491,-3.489459,0.381770,1.976673,0.797952,-0.881836,0.337891,-0.375488,0.040819,-0.052597,-0.003852,0.999941,0.001909,0.009883,0.003990,-0.565604,-0.050779,0.667444,-0.481697
15886,NaN,3.441745,-4.737731,-1.021873,2.429794,-0.108711,-4.388749,0.829101,1.978487,0.809713,-0.875732,0.342041,-0.389893,0.034504,-0.047194,-0.010756,0.999934,0.004145,0.009892,0.004048,-0.570293,-0.045929,0.659939,-0.486967
15887,NaN,2.975166,-4.074393,-1.629507,2.659565,0.526306,-5.256781,1.098436,1.926769,0.788273,-0.862793,0.337891,-0.412354,0.029751,-0.040535,-0.016805,0.999931,0.005492,0.009634,0.003941,-0.574457,-0.041775,0.651898,-0.493238
15888,NaN,2.547947,-3.496463,-2.212545,2.902829,1.087172,-6.070572,1.206758,1.850114,0.741810,-0.852295,0.340088,-0.432861,0.025401,-0.034735,-0.022571,0.999932,0.006034,0.009250,0.003709,-0.578615,-0.038538,0.643664,-0.499415
15889,NaN,2.223551,-3.420641,-2.588888,3.264491,1.283886,-6.489846,1.228280,1.732640,0.674424,-0.837646,0.344238,-0.453125,0.022124,-0.033971,-0.026290,0.999938,0.006141,0.008663,0.003372,-0.582252,-0.035601,0.635667,-0.505612
15890,NaN,2.313029,-3.776966,-2.503680,3.438268,1.163658,-6.247925,1.097491,1.578763,0.589468,-0.831299,0.340088,-0.463379,0.023042,-0.037563,-0.025425,0.999949,0.005487,0.007894,0.002947,-0.585758,-0.033216,0.628340,-0.510855
15891,NaN,2.482902,-4.423993,-2.407014,3.766241,0.945594,-5.756711,0.886095,1.412460,0.479097,-0.818604,0.340088,-0.479736,0.024763,-0.044073,-0.024441,0.999962,0.004430,0.007062,0.002395,-0.588820,-0.030706,0.621988,-0.515246
15892,NaN,2.851053,-5.506760,-2.197488,4.245428,0.562294,-4.818543,0.741275,1.240951,0.315114,-0.814209,0.340088,-0.493896,0.028459,-0.054940,-0.022355,0.999973,0.003706,0.006205,0.001576,-0.591897,-0.029001,0.616460,-0.518454
15893,NaN,3.489877,-6.883245,-1.609970,4.581978,-0.041795,-3.397588,0.613813,1.043723,0.149800,-0.814209,0.337891,-0.500000,0.034865,-0.068756,-0.016493,0.999981,0.003069,0.005219,0.000749,-0.594643,-0.027659,0.611783,-0.520919
15894,NaN,4.157488,-7.979289,-1.050640,4.766172,-0.479222,-2.124315,0.512858,0.820619,-0.044110,-0.812012,0.337891,-0.510254,0.041513,-0.079774,-0.010881,0.999988,0.002564,0.004103,-0.000221,-0.597295,-0.027472,0.608027,-0.522290
15895,NaN,4.786823,-8.575640,-0.365937,4.559929,-0.801557,-1.143588,0.465732,0.576628,-0.302032,-0.803467,0.329346,-0.516113,0.047727,-0.085820,-0.003997,0.999992,0.002329,0.002883,-0.001510,-0.599786,-0.028284,0.605035,-0.522867
15896,NaN,5.400496,-8.838012,0.332878,4.145594,-1.021048,-0.370356,0.366018,0.334626,-0.580595,-0.809570,0.322998,-0.518066,0.053753,-0.088542,0.003077,0.999993,0.001830,0.001673,-0.002903,-0.602316,-0.030538,0.603046,-0.522129
15897,NaN,6.034671,-9.036468,0.891739,3.786295,-1.138259,0.347917,0.178863,0.106865,-0.795329,-0.809326,0.314697,-0.520020,0.059991,-0.090612,0.008804,0.999992,0.000894,0.000534,-0.003977,-0.604700,-0.033205,0.602123,-0.520273
15898,NaN,6.687877,-9.558895,1.400853,3.671044,-1.404609,1.260350,-0.097242,-0.072985,-0.887319,-0.815430,0.310303,-0.513916,0.066449,-0.095878,0.014079,0.999990,-0.000486,-0.000365,-0.004437,-0.606815,-0.036036,0.602515,-0.517158
15899,NaN,7.239160,-10.349421,1.747738,3.851914,-1.782816,2.210357,-0.432335,-0.230045,-0.850432,-0.817383,0.303955,-0.517822,0.071930,-0.103763,0.017784,0.999988,-0.002162,-0.001150,-0.004252,-0.608410,-0.037890,0.604163,-0.513215
15900,NaN,7.589227,-11.158868,1.722027,4.320289,-2.083095,2.918220,-0.746562,-0.380868,-0.750722,-0.821777,0.308350,-0.503662,0.075439,-0.111807,0.017781,0.999984,-0.003733,-0.001904,-0.003754,-0.609304,-0.039102,0.607169,-0.508493
15901,NaN,7.745480,-11.639195,1.427573,4.766063,-2.183776,3.226276,-0.900947,-0.541381,-0.645314,-0.829834,0.302002,-0.501465,0.077039,-0.116574,0.015010,0.999981,-0.004505,-0.002707,-0.003227,-0.609483,-0.039702,0.610964,-0.503664
15902,NaN,7.781734,-11.666714,1.046310,4.980286,-2.088970,3.171643,-0.846260,-0.729905,-0.527816,-0.836426,0.303955,-0.491455,0.077469,-0.116825,0.011240,0.999981,-0.004231,-0.003650,-0.002639,-0.608693,-0.040773,0.615305,-0.499230
15903,NaN,7.539843,-11.297470,0.557112,5.075634,-1.862002,2.659737,-0.636653,-0.923995,-0.398511,-0.840576,0.303955,-0.481201,0.075145,-0.113105,0.006279,0.999982,-0.003183,-0.004620,-0.001993,-0.606981,-0.042377,0.619606,-0.495849
15904,NaN,7.006608,-10.676505,0.128048,5.047581,-1.676720,1.797917,-0.307089,-1.115673,-0.266416,-0.846924,0.302002,-0.470947,0.069915,-0.106856,0.001835,0.999982,-0.001535,-0.005578,-0.001332,-0.604149,-0.045224,0.623798,-0.493797
15905,NaN,6.219722,-10.068546,-0.229108,5.063201,-1.631679,0.761539,0.115112,-1.310205,-0.129407,-0.853027,0.297607,-0.460693,0.062146,-0.100724,-0.001942,0.999978,0.000576,-0.006551,-0.000647,-0.600360,-0.049220,0.627421,-0.493445
15906,NaN,5.546234,-9.547953,-0.421730,5.009882,-1.630505,-0.099581,0.582466,-1.489605,0.015125,-0.857178,0.297607,-0.448486,0.055500,-0.095463,-0.004082,0.999968,0.002912,-0.007448,0.000076,-0.595359,-0.054764,0.630560,-0.494916
15907,NaN,5.068273,-9.088606,-0.449124,4.846777,-1.622188,-0.736948,1.031338,-1.657382,0.186249,-0.865479,0.291260,-0.436035,0.050805,-0.090815,-0.004539,0.999952,0.005157,-0.008287,0.000931,-0.589379,-0.061356,0.632955,-0.498232
15908,NaN,4.642929,-8.744588,-0.369080,4.684066,-1.682399,-1.245916,1.429200,-1.799809,0.376373,-0.880371,0.291260,-0.426025,0.046628,-0.087331,-0.003896,0.999932,0.007146,-0.008999,0.001882,-0.582103,-0.068995,0.634906,-0.503279
15909,NaN,4.259903,-8.356794,-0.263541,4.476504,-1.687248,-1.740162,1.782072,-1.928019,0.571945,-0.886475,0.282715,-0.415527,0.042865,-0.083420,-0.002967,0.999910,0.008910,-0.009640,0.002860,-0.573893,-0.077222,0.636166,-0.509878
15910,NaN,3.879622,-7.936696,-0.072899,4.198779,-1.718524,-2.232196,2.069638,-2.037029,0.766713,-0.886719,0.289062,-0.401367,0.039110,-0.079207,-0.001152,0.999887,0.010348,-0.010185,0.003833,-0.564373,-0.086057,0.637101,-0.517860
15911,NaN,3.473644,-7.436976,-0.001088,3.961236,-1.626310,-2.810028,2.326864,-2.130500,0.929801,-0.896973,0.282715,-0.388916,0.035085,-0.074203,-0.000502,0.999865,0.011634,-0.010652,0.004649,-0.554119,-0.095177,0.637394,-0.526898
15912,NaN,3.254436,-6.909482,0.136256,3.599816,-1.482938,-3.240657,2.616769,-2.197563,1.059086,-0.899170,0.282715,-0.374756,0.032899,-0.068934,0.000820,0.999840,0.013083,-0.010987,0.005295,-0.542758,-0.104911,0.637138,-0.537087
15913,NaN,3.233067,-6.446838,0.521760,3.073858,-1.484499,-3.438297,2.918792,-2.241666,1.155208,-0.907227,0.274170,-0.368408,0.032648,-0.064351,0.004643,0.999814,0.014593,-0.011208,0.005776,-0.530901,-0.115162,0.635863,-0.548233
15914,NaN,3.654321,-6.091745,0.888209,2.463369,-1.344291,-3.226661,3.173005,-2.281921,1.219610,-0.913574,0.274170,-0.354248,0.036817,-0.060829,0.008336,0.999790,0.015864,-0.011409,0.006098,-0.518101,-0.126026,0.633926,-0.560202
15915,NaN,4.205196,-5.767304,1.177766,1.855854,-1.133893,-2.913283,3.294140,-2.301732,1.271877,-0.922119,0.276367,-0.339844,0.042286,-0.057594,0.011314,0.999778,0.016469,-0.011508,0.006359,-0.505071,-0.136956,0.631315,-0.572353
15916,NaN,4.761818,-5.602609,1.419686,1.370284,-0.972613,-2.515059,3.260580,-2.290791,1.314766,-0.922119,0.272217,-0.329590,0.047826,-0.055940,0.013831,0.999780,0.016302,-0.011453,0.006573,-0.491442,-0.147649,0.628655,-0.584360
15917,NaN,5.250429,-5.542704,1.501953,1.051193,-0.761712,-2.140738,3.111690,-2.265844,1.338053,-0.928467,0.276367,-0.319580,0.052706,-0.055306,0.014755,0.999792,0.015557,-0.011328,0.006690,-0.478030,-0.157688,0.625981,-0.595625
15918,NaN,5.851584,-5.741605,1.490835,0.883675,-0.514438,-1.543241,2.893879,-2.231512,1.339935,-0.932617,0.274170,-0.307129,0.058735,-0.057237,0.014734,0.999811,0.014468,-0.011157,0.006699,-0.464400,-0.167078,0.623743,-0.606104
15919,NaN,6.815742,-6.272922,1.153151,0.873659,0.075099,-0.519457,2.629037,-2.184016,1.325557,-0.939209,0.278564,-0.295166,0.068446,-0.062427,0.011456,0.999832,0.013144,-0.010919,0.006627,-0.451317,-0.175648,0.621842,-0.615446
15920,NaN,8.137363,-7.276385,0.757455,0.990593,0.751294,1.058802,2.440331,-2.079014,1.309963,-0.935303,0.286865,-0.287109,0.081770,-0.072321,0.007539,0.999850,0.012201,-0.010395,0.006549,-0.438320,-0.183504,0.620177,-0.624165
15921,NaN,9.464921,-8.597457,0.218974,1.328000,1.531669,2.814157,2.285389,-1.941825,1.301461,-0.939453,0.286865,-0.270752,0.095185,-0.085381,0.002134,0.999866,0.011426,-0.009709,0.006507,-0.426101,-0.190522,0.618404,-0.632231
15922,NaN,10.683535,-9.991480,-0.604394,1.781355,2.573676,4.488793,2.216093,-1.782023,1.271411,-0.939697,0.293213,-0.262695,0.107522,-0.099165,-0.006190,0.999879,0.011080,-0.008910,0.006357,-0.414128,-0.196936,0.616429,-0.640101
15923,NaN,11.924836,-11.014774,-1.245866,1.823533,3.539785,5.973985,2.295287,-1.574241,1.204459,-0.943848,0.295410,-0.254395,0.120008,-0.109281,-0.012774,0.999885,0.011476,-0.007871,0.006022,-0.403133,-0.203001,0.613450,-0.648038
15924,NaN,13.407751,-11.520134,-1.624949,1.202971,4.401148,7.342452,2.400069,-1.309862,1.113146,-0.944092,0.301758,-0.252441,0.134824,-0.114253,-0.016743,0.999891,0.012000,-0.006549,0.005566,-0.392701,-0.208692,0.609485,-0.656325
15925,NaN,15.131153,-11.402531,-2.022224,-0.064051,5.394662,8.461502,2.408797,-1.019916,1.045460,-0.944092,0.301758,-0.254639,0.152009,-0.112984,-0.020813,0.999901,0.012044,-0.005099,0.005227,-0.383629,-0.213571,0.604605,-0.664581
15926,NaN,16.203391,-10.935770,-2.330321,-1.259014,6.135799,8.850945,2.345358,-0.688594,1.010259,-0.942139,0.303711,-0.252686,0.162664,-0.108258,-0.024018,0.999913,0.011726,-0.003443,0.005051,-0.375308,-0.217341,0.599282,-0.672880
15927,NaN,16.295508,-10.478012,-2.332698,-1.883821,6.341590,8.544923,2.183594,-0.381161,1.024993,-0.940186,0.308105,-0.256836,0.163534,-0.103682,-0.024152,0.999925,0.010918,-0.001906,0.005125,-0.368337,-0.219641,0.593713,-0.680875
15928,NaN,15.629470,-10.117100,-1.988686,-2.002964,6.022288,7.802760,1.980395,-0.114547,1.039219,-0.940430,0.316650,-0.259033,0.156829,-0.100154,-0.020792,0.999937,0.009902,-0.000573,0.005196,-0.361892,-0.220676,0.588434,-0.688536
15929,NaN,14.534088,-9.746209,-1.349059,-1.845997,5.316545,6.811656,1.739581,0.082535,1.035206,-0.929688,0.314453,-0.264893,0.145837,-0.096586,-0.014393,0.999949,0.008698,0.000413,0.005176,-0.356652,-0.220491,0.583401,-0.695577
15930,NaN,13.415121,-9.135498,-0.597882,-1.834727,4.452961,5.697970,1.469699,0.219143,1.014081,-0.932129,0.320801,-0.277344,0.134605,-0.090625,-0.006794,0.999960,0.007348,0.001096,0.005070,-0.351744,-0.219506,0.579168,-0.701895
15931,NaN,12.426881,-8.290173,0.185339,-2.036393,3.543892,4.556702,1.148785,0.315426,0.979222,-0.919434,0.324951,-0.283447,0.124675,-0.082300,0.001183,0.999970,0.005744,0.001577,0.004896,-0.347969,-0.217585,0.575633,-0.707263
15932,NaN,11.486255,-7.372538,0.898611,-2.291001,2.654638,3.408425,0.761167,0.398457,0.975743,-0.917725,0.331299,-0.283691,0.115238,-0.073197,0.008478,0.999979,0.003806,0.001992,0.004879,-0.344464,-0.214826,0.573481,-0.711557
15933,NaN,10.308686,-6.403212,1.424068,-2.377511,1.847899,2.029155,0.304774,0.460298,0.984452,-0.909424,0.339844,-0.289795,0.103433,-0.063545,0.013906,0.999984,0.001524,0.002301,0.004922,-0.341968,-0.210895,0.572646,-0.714603
15934,NaN,9.003399,-5.487818,1.738958,-2.304698,1.170434,0.556429,-0.152988,0.513811,1.011690,-0.907715,0.348389,-0.294189,0.090354,-0.054408,0.017199,0.999984,-0.000765,0.002569,0.005058,-0.339620,-0.206053,0.573569,-0.716393
15935,NaN,7.613892,-4.759337,1.936769,-2.004297,0.582033,-0.867477,-0.565386,0.544524,1.019120,-0.899658,0.363281,-0.300537,0.076433,-0.047150,0.019294,0.999979,-0.002827,0.002723,0.005096,-0.338126,-0.200224,0.575701,-0.717042
15936,NaN,6.400845,-4.223351,2.036159,-1.661170,0.125677,-2.055281,-0.903296,0.562988,1.002124,-0.897705,0.369629,-0.298584,0.064276,-0.041820,0.020370,0.999973,-0.004516,0.002815,0.005011,-0.336723,-0.193944,0.579170,-0.716635
15937,NaN,5.359258,-3.850031,2.138961,-1.302477,-0.282495,-3.005149,-1.148191,0.563513,0.967194,-0.894043,0.386475,-0.300781,0.053838,-0.038117,0.021458,0.999968,-0.005741,0.002818,0.004836,-0.336012,-0.187193,0.583249,-0.715455
15938,NaN,4.745772,-3.665660,2.172877,-1.091949,-0.508878,-3.549393,-1.296489,0.556350,0.909557,-0.890137,0.395020,-0.301025,0.047684,-0.036299,0.021832,0.999965,-0.006482,0.002782,0.004548,-0.335258,-0.180547,0.587971,-0.713650
15939,NaN,4.446625,-3.525488,2.179664,-1.059142,-0.623221,-3.859393,-1.395548,0.541142,0.841058,-0.877930,0.409912,-0.301270,0.044673,-0.034915,0.021920,0.999963,-0.006978,0.002706,0.004205,-0.335114,-0.173806,0.592776,-0.711412
15940,NaN,4.513253,-3.454175,2.277214,-1.248825,-0.725163,-3.862853,-1.397654,0.546613,0.752636,-0.882324,0.416260,-0.301270,0.045324,-0.034212,0.022888,0.999965,-0.006988,0.002733,0.003763,-0.334979,-0.167444,0.597644,-0.708924
15941,NaN,4.656665,-3.426570,2.289508,-1.444722,-0.714014,-3.806833,-1.333570,0.551303,0.636953,-0.872314,0.428955,-0.299316,0.046738,-0.033964,0.022994,0.999969,-0.006668,0.002756,0.003185,-0.335494,-0.161357,0.601958,-0.706438
15942,NaN,4.827352,-3.357489,2.176349,-1.658349,-0.576327,-3.793554,-1.252922,0.543646,0.500989,-0.872559,0.437500,-0.301514,0.048416,-0.033317,0.021841,0.999974,-0.006265,0.002718,0.002505,-0.336091,-0.156004,0.606027,-0.703873
15943,NaN,4.878441,-3.301738,2.004374,-1.751500,-0.407440,-3.855824,-1.156975,0.526221,0.359109,-0.864258,0.441650,-0.293457,0.048896,-0.032813,0.020105,0.999978,-0.005785,0.002631,0.001796,-0.337336,-0.151126,0.609477,-0.701358
15944,NaN,4.888627,-3.288204,1.830704,-1.773312,-0.248012,-3.908774,-1.006501,0.497180,0.225550,-0.862305,0.445801,-0.291504,0.048969,-0.032735,0.018350,0.999984,-0.005032,0.002486,0.001128,-0.338580,-0.147160,0.612493,-0.698971
15945,NaN,4.921344,-3.458472,1.639384,-1.672659,-0.056145,-3.807086,-0.825184,0.438597,0.095942,-0.864502,0.447998,-0.295654,0.049266,-0.034493,0.016428,0.999989,-0.004126,0.002193,0.000480,-0.340210,-0.143945,0.614694,-0.696913
15946,NaN,4.899050,-3.554388,1.475335,-1.573910,0.087906,-3.785578,-0.621363,0.358940,-0.035289,-0.858154,0.452148,-0.297607,0.049011,-0.035507,0.014776,0.999994,-0.003107,0.001795,-0.000176,-0.341657,-0.141928,0.616379,-0.695128
15947,NaN,4.710463,-3.432030,1.329693,-1.485494,0.168632,-4.024748,-0.316132,0.280936,-0.178694,-0.866455,0.445801,-0.295654,0.047093,-0.034341,0.013285,0.999997,-0.001581,0.001405,-0.000893,-0.343386,-0.140972,0.616866,-0.694038
15948,NaN,4.554649,-3.277210,1.390127,-1.475155,0.066374,-4.223693,0.119757,0.217942,-0.331889,-0.866455,0.443848,-0.297607,0.045507,-0.032856,0.013832,0.999998,0.000599,0.001090,-0.001659,-0.344925,-0.141627,0.615987,-0.693922
15949,NaN,4.914872,-3.123846,1.559716,-1.844109,0.030135,-4.072891,0.616897,0.157671,-0.531896,-0.866211,0.437500,-0.301514,0.049078,-0.031417,0.015462,0.999991,0.003084,0.000788,-0.002659,-0.346835,-0.143791,0.613190,-0.695002
15950,NaN,5.756836,-2.879021,1.728906,-2.596883,0.146708,-3.676463,1.040843,0.134717,-0.759585,-0.863770,0.431152,-0.315674,0.057470,-0.029098,0.017099,0.999979,0.005204,0.000674,-0.003798,-0.348934,-0.147653,0.608922,-0.696892
15951,NaN,6.771180,-2.560940,1.768581,-3.464918,0.450180,-3.230444,1.376538,0.172493,-0.995620,-0.869385,0.409912,-0.321533,0.067598,-0.026067,0.017449,0.999964,0.006883,0.000862,-0.004978,-0.351917,-0.152490,0.603064,-0.699439
15952,NaN,7.652087,-2.360543,1.762067,-4.120477,0.765388,-2.765297,1.697868,0.254592,-1.218260,-0.877441,0.395020,-0.331543,0.076397,-0.024219,0.017319,0.999945,0.008489,0.001273,-0.006091,-0.355515,-0.158403,0.595832,-0.702497
15953,NaN,8.493155,-2.377163,1.760946,-4.566077,1.089205,-2.141476,1.934469,0.336004,-1.456401,-0.870361,0.373779,-0.341309,0.084784,-0.024557,0.017232,0.999925,0.009672,0.001680,-0.007282,-0.360092,-0.164999,0.587238,-0.705876
15954,NaN,9.265973,-2.551362,1.838112,-4.825846,1.339846,-1.406834,2.055601,0.398786,-1.716229,-0.882324,0.348389,-0.353271,0.092471,-0.026493,0.017928,0.999908,0.010278,0.001994,-0.008581,-0.365490,-0.172500,0.577904,-0.709005
15955,NaN,10.058785,-2.830364,2.097948,-5.002512,1.455247,-0.515229,1.993235,0.426831,-1.993800,-0.889893,0.320801,-0.363037,0.100342,-0.029511,0.020475,0.999898,0.009966,0.002134,-0.009969,-0.372054,-0.180383,0.568276,-0.711407
15956,NaN,10.964984,-3.310226,2.423719,-5.047144,1.571726,0.632902,1.847207,0.401585,-2.287278,-0.895264,0.293457,-0.372803,0.109308,-0.034574,0.023703,0.999890,0.009236,0.002008,-0.011436,-0.379529,-0.189106,0.558928,-0.712598
15957,NaN,12.144208,-4.237357,2.787456,-4.840362,1.799130,2.292181,1.628082,0.303530,-2.651942,-0.900635,0.263672,-0.374512,0.120906,-0.044203,0.027336,0.999878,0.008140,0.001518,-0.013259,-0.388259,-0.198511,0.549972,-0.712306
15958,NaN,13.577557,-5.732584,2.580770,-4.124871,2.693509,4.314692,1.437838,0.130125,-3.074162,-0.910156,0.233887,-0.380127,0.134888,-0.059587,0.025297,0.999856,0.007189,0.000651,-0.015370,-0.398012,-0.209508,0.541564,-0.710212
15959,NaN,15.425811,-7.543105,2.768229,-3.260509,3.384674,6.932321,1.407998,-0.079295,-3.519411,-0.915039,0.191650,-0.387451,0.152886,-0.078322,0.027198,0.999820,0.007040,-0.000396,-0.017596,-0.408767,-0.222093,0.532933,-0.706800
15960,NaN,17.145500,-8.839601,2.874138,-2.476140,4.023037,9.108161,1.387821,-0.304844,-3.905045,-0.928711,0.153320,-0.386963,0.169640,-0.091918,0.028371,0.999784,0.006939,-0.001524,-0.019524,-0.420071,-0.236613,0.524297,-0.701903
15961,NaN,18.161807,-9.432257,3.213237,-1.722279,4.100406,10.418431,1.380136,-0.559756,-4.109146,-0.933350,0.106689,-0.384033,0.179537,-0.098247,0.031968,0.999761,0.006900,-0.002799,-0.020544,-0.431310,-0.252200,0.515637,-0.696050
15962,NaN,18.113690,-9.459503,3.804684,-0.834840,3.461411,10.664560,1.326716,-0.810021,-4.117922,-0.940430,0.066406,-0.369141,0.178981,-0.098548,0.038130,0.999758,0.006633,-0.004050,-0.020588,-0.441705,-0.268713,0.507542,-0.689269
15963,NaN,17.024103,-8.717157,4.547259,-0.169320,2.226848,9.717759,1.346845,-1.037437,-4.050740,-0.949463,0.019531,-0.358154,0.168188,-0.090900,0.045745,0.999759,0.006734,-0.005187,-0.020252,-0.451134,-0.285485,0.499621,-0.682169
15964,NaN,15.626373,-7.544571,5.396287,0.142424,0.725204,8.342901,1.531405,-1.230454,-3.951643,-0.949951,-0.024902,-0.347168,0.154394,-0.078924,0.054321,0.999757,0.007656,-0.006152,-0.019757,-0.459141,-0.303236,0.491511,-0.675022
15965,NaN,14.424650,-6.287751,5.998046,0.193797,-0.471950,7.018154,1.775939,-1.392621,-3.819004,-0.957031,-0.071777,-0.330078,0.142585,-0.066146,0.060399,0.999754,0.008879,-0.006963,-0.019093,-0.465821,-0.321332,0.482796,-0.668330
15966,NaN,13.366847,-5.233272,6.328106,0.292306,-1.342082,5.813529,2.067195,-1.454832,-3.662224,-0.957764,-0.107910,-0.321289,0.132210,-0.055420,0.063684,0.999752,0.010335,-0.007274,-0.018310,-0.471002,-0.340063,0.473352,-0.662157
15967,NaN,12.199486,-4.551543,6.436560,0.682984,-1.959011,4.562133,2.405165,-1.445740,-3.483672,-0.956299,-0.150391,-0.302002,0.120702,-0.048402,0.064671,0.999750,0.012025,-0.007228,-0.017417,-0.474925,-0.358681,0.462745,-0.657009
15968,NaN,11.044565,-4.154555,6.328193,1.245837,-2.301974,3.317780,2.727752,-1.407589,-3.295682,-0.957031,-0.190918,-0.278809,0.109285,-0.044218,0.063463,0.999746,0.013638,-0.007037,-0.016477,-0.477386,-0.377573,0.451167,-0.652679
15969,NaN,10.011825,-3.795026,6.169272,1.712151,-2.512379,2.163598,2.990684,-1.359718,-3.103481,-0.951660,-0.229004,-0.263916,0.099084,-0.040417,0.061777,0.999745,0.014952,-0.006798,-0.015516,-0.478697,-0.396060,0.438671,-0.649271
15970,NaN,9.145086,-3.360728,5.916417,1.973112,-2.576080,1.113517,3.179900,-1.289812,-2.915431,-0.956787,-0.263184,-0.246826,0.090557,-0.035873,0.059192,0.999747,0.015898,-0.006449,-0.014576,-0.478808,-0.414391,0.425604,-0.646440
15971,NaN,8.596078,-2.927137,5.581723,2.075456,-2.456287,0.348958,3.289569,-1.204555,-2.733755,-0.945068,-0.297119,-0.223877,0.085205,-0.031358,0.055828,0.999753,0.016446,-0.006022,-0.013668,-0.478165,-0.431881,0.412078,-0.644227
15972,NaN,8.306920,-2.692201,5.243621,2.258494,-2.222213,-0.133033,3.307291,-1.096356,-2.551684,-0.941650,-0.331299,-0.208984,0.082422,-0.028843,0.052423,0.999767,0.016535,-0.005481,-0.012757,-0.476768,-0.448680,0.398486,-0.642330
15973,NaN,8.250840,-2.639947,4.976310,2.539293,-1.942145,-0.348127,3.182744,-0.964472,-2.377043,-0.938721,-0.358887,-0.183838,0.081941,-0.028167,0.049720,0.999791,0.015913,-0.004822,-0.011884,-0.475259,-0.464013,0.385138,-0.640694
15974,NaN,8.199346,-2.684004,4.801302,2.887043,-1.718285,-0.528899,2.898840,-0.822890,-2.216232,-0.933594,-0.380127,-0.169189,0.081487,-0.028440,0.047945,0.999825,0.014493,-0.004114,-0.011081,-0.473856,-0.477905,0.372634,-0.638914
15975,NaN,7.982930,-2.599760,4.485242,3.041492,-1.433496,-0.908166,2.533739,-0.707738,-2.105652,-0.919922,-0.410156,-0.154297,0.079387,-0.027403,0.044793,0.999858,0.012668,-0.003539,-0.010528,-0.473162,-0.490031,0.361122,-0.636850
15976,NaN,7.741975,-2.304125,4.359042,2.999989,-1.403549,-1.252726,2.099712,-0.612340,-2.030785,-0.915039,-0.429199,-0.141602,0.077044,-0.024282,0.043576,0.999889,0.010498,-0.003062,-0.010154,-0.473209,-0.500715,0.350903,-0.634212
15977,NaN,7.507671,-1.973057,4.334992,2.917179,-1.488529,-1.547081,1.633525,-0.508463,-1.985352,-0.912109,-0.456787,-0.130859,0.074763,-0.020828,0.043373,0.999914,0.008167,-0.002542,-0.009926,-0.474501,-0.509640,0.341914,-0.631039
15978,NaN,7.240323,-1.816150,4.317899,2.972252,-1.546724,-1.866938,1.187225,-0.403947,-1.970267,-0.896729,-0.473877,-0.114258,0.072131,-0.019129,0.043213,0.999932,0.005936,-0.002020,-0.009851,-0.476845,-0.517203,0.334110,-0.627289
15979,NaN,7.121947,-1.903328,4.217568,3.198964,-1.416861,-2.073882,0.801674,-0.289261,-1.958049,-0.889893,-0.484619,-0.107910,0.070966,-0.019898,0.042200,0.999943,0.004008,-0.001446,-0.009790,-0.480421,-0.523269,0.327191,-0.623162
15980,NaN,6.981960,-2.088993,4.105493,3.490755,-1.254156,-2.315605,0.500385,-0.168755,-1.935895,-0.880615,-0.508057,-0.113525,0.069578,-0.021667,0.041060,0.999950,0.002502,-0.000844,-0.009679,-0.484706,-0.528261,0.320978,-0.618848
15981,NaN,6.716346,-2.310291,3.991413,3.789244,-1.111067,-2.686434,0.311636,-0.049106,-1.891647,-0.875977,-0.518555,-0.109131,0.066931,-0.023799,0.039894,0.999954,0.001558,-0.000246,-0.009458,-0.489653,-0.532187,0.315109,-0.614592
15982,NaN,6.297148,-2.475782,3.908415,4.016316,-1.057740,-3.193911,0.240610,0.069557,-1.845051,-0.862793,-0.535645,-0.102783,0.062753,-0.025384,0.039032,0.999957,0.001203,0.000348,-0.009225,-0.494640,-0.535538,0.309307,-0.610622
15983,NaN,5.873170,-2.614875,3.910372,4.226196,-1.091088,-3.683232,0.258161,0.175137,-1.798589,-0.845459,-0.548584,-0.110596,0.058527,-0.026726,0.039018,0.999958,0.001291,0.000876,-0.008993,-0.499709,-0.538407,0.303245,-0.607002
15984,NaN,5.532378,-2.838178,3.861990,4.485660,-1.029130,-4.120941,0.332395,0.264027,-1.762250,-0.840576,-0.565430,-0.106201,0.055121,-0.028932,0.038499,0.999959,0.001662,0.001320,-0.008811,-0.504392,-0.541168,0.296847,-0.603828
15985,NaN,5.364086,-2.974330,3.882068,4.692726,-1.004971,-4.366802,0.425214,0.327999,-1.734256,-0.827148,-0.584717,-0.112061,0.053443,-0.030290,0.038669,0.999959,0.002126,0.001640,-0.008671,-0.508962,-0.543807,0.290018,-0.600933
15986,NaN,5.526382,-3.319050,3.974339,5.150000,-0.877173,-4.330073,0.541832,0.383290,-1.690347,-0.820312,-0.599609,-0.113770,0.055056,-0.033764,0.039547,0.999959,0.002709,0.001916,-0.008452,-0.512942,-0.546526,0.282834,-0.598502
15987,NaN,5.875866,-3.641247,4.073529,5.614319,-0.695189,-4.122984,0.623809,0.429885,-1.603363,-0.811768,-0.604004,-0.107422,0.058551,-0.037009,0.040494,0.999961,0.003119,0.002149,-0.008017,-0.516641,-0.549091,0.275460,-0.596408
15988,NaN,6.232111,-4.063495,4.161356,6.168132,-0.455726,-3.946439,0.708314,0.482205,-1.486395,-0.804688,-0.623047,-0.107178,0.062116,-0.041244,0.041318,0.999963,0.003542,0.002411,-0.007432,-0.519599,-0.551544,0.268051,-0.594949
15989,NaN,6.727795,-4.577505,4.330506,6.857622,-0.199120,-3.656261,0.801133,0.534187,-1.333820,-0.789551,-0.633789,-0.106934,0.067085,-0.046395,0.042941,0.999966,0.004006,0.002671,-0.006669,-0.522075,-0.553810,0.260580,-0.593995
15990,NaN,7.232505,-5.124103,4.533480,7.586935,0.063728,-3.366733,0.897520,0.594192,-1.148696,-0.781006,-0.637939,-0.102539,0.072162,-0.051858,0.044888,0.999969,0.004488,0.002971,-0.005743,-0.523542,-0.555895,0.253207,-0.593945
15991,NaN,7.726684,-5.524984,4.739522,8.181069,0.296142,-3.054703,1.008741,0.645171,-0.962635,-0.776367,-0.650879,-0.104492,0.077151,-0.055859,0.046866,0.999970,0.005044,0.003226,-0.004813,-0.524417,-0.557826,0.245827,-0.594463
15992,NaN,8.318144,-5.803830,4.866972,8.641459,0.618049,-2.636049,1.107039,0.685565,-0.792170,-0.765381,-0.659424,-0.102295,0.083115,-0.058635,0.048061,0.999971,0.005535,0.003428,-0.003961,-0.524265,-0.559647,0.238570,-0.595840
15993,NaN,9.367271,-6.014551,4.896561,9.077854,1.190273,-1.808323,1.220477,0.723044,-0.650653,-0.765137,-0.665771,-0.095947,0.093651,-0.060746,0.048258,0.999970,0.006102,0.003615,-0.003253,-0.523653,-0.561455,0.231199,-0.597580
15994,NaN,10.890931,-6.438579,5.057122,9.831136,1.932722,-0.579486,1.311570,0.732484,-0.509817,-0.762939,-0.667725,-0.093994,0.108927,-0.064991,0.049747,0.999969,0.006558,0.003662,-0.002549,-0.522032,-0.563261,0.223964,-0.600050
15995,NaN,12.696836,-6.906011,5.331853,10.715141,2.736141,0.912354,1.321880,0.772822,-0.336564,-0.758545,-0.676270,-0.085449,0.127055,-0.069622,0.052369,0.999969,0.006609,0.003864,-0.001683,-0.520187,-0.564756,0.217014,-0.602795
15996,NaN,14.304998,-7.081824,5.480794,11.214063,3.513040,2.300237,1.327216,0.860459,-0.103349,-0.758789,-0.669922,-0.089844,0.143246,-0.071251,0.053720,0.999969,0.006636,0.004302,-0.000517,-0.517281,-0.565679,0.210520,-0.606720
15997,NaN,15.712664,-7.046589,5.390393,11.346245,4.366609,3.521037,1.379277,0.979600,0.169193,-0.752197,-0.676514,-0.091553,0.157446,-0.070699,0.052646,0.999964,0.006896,0.004898,0.000846,-0.513897,-0.566080,0.204262,-0.611343
15998,NaN,17.125543,-6.835724,5.112332,11.153703,5.337578,4.790230,1.351961,1.103717,0.487969,-0.758789,-0.669922,-0.083496,0.171699,-0.068278,0.049715,0.999959,0.006760,0.005519,0.002440,-0.509324,-0.565556,0.198793,-0.617427
15999,NaN,18.125718,-6.089518,4.334224,10.111892,6.330553,5.746047,1.140614,1.217181,0.864039,-0.767578,-0.659424,-0.083740,0.181777,-0.060352,0.041892,0.999956,0.005703,0.006086,0.004320,-0.504637,-0.563823,0.194597,-0.624161
16000,NaN,18.330637,-4.893779,3.310054,8.320249,6.961400,6.100167,0.834039,1.316641,1.287112,-0.770020,-0.650879,-0.090088,0.183829,-0.047890,0.031690,0.999949,0.004170,0.006583,0.006435,-0.498975,-0.560454,0.192386,-0.632378
16001,NaN,18.216938,-3.900961,2.203846,6.546319,7.529250,6.073554,0.422517,1.373484,1.748720,-0.782959,-0.642334,-0.102539,0.182647,-0.037459,0.020705,0.999936,0.002113,0.006867,0.008743,-0.493570,-0.555451,0.192503,-0.640941
16002,NaN,17.935550,-3.330352,1.169343,5.045228,8.070755,5.792823,-0.014790,1.408844,2.220020,-0.792236,-0.614502,-0.115479,0.179787,-0.031309,0.010430,0.999914,-0.000074,0.007044,0.011100,-0.487255,-0.548606,0.195382,-0.650723
16003,NaN,17.817786,-3.306991,0.553147,4.197095,8.538119,5.620243,-0.292810,1.467644,2.683525,-0.805664,-0.595459,-0.127930,0.178635,-0.030668,0.004268,0.999882,-0.001464,0.007338,0.013417,-0.480723,-0.540435,0.200089,-0.660908
16004,NaN,17.389968,-3.806656,0.186599,3.829435,8.877599,5.134876,-0.346015,1.509616,3.087014,-0.817139,-0.572021,-0.138672,0.174467,-0.035375,0.000613,0.999851,-0.001730,0.007548,0.015434,-0.472394,-0.531275,0.206204,-0.672362
16005,NaN,17.105107,-3.840573,-0.477055,2.908124,9.263232,4.790844,-0.454831,1.405931,3.462839,-0.837402,-0.537842,-0.153809,0.171643,-0.035450,-0.005893,0.999823,-0.002274,0.007029,0.017313,-0.463346,-0.521815,0.213568,-0.683673
16006,NaN,17.088228,-3.371859,-1.079210,1.527350,9.412713,4.801357,-0.340313,1.331450,3.784920,-0.853271,-0.501709,-0.166748,0.171403,-0.030498,-0.011878,0.999797,-0.001701,0.006657,0.018923,-0.451962,-0.512241,0.221719,-0.695830
16007,NaN,16.927184,-3.106084,-1.471986,0.425503,9.400891,4.669805,-0.038344,1.246076,4.047521,-0.867188,-0.471924,-0.173340,0.169758,-0.027631,-0.015771,0.999776,-0.000192,0.006230,0.020236,-0.439279,-0.503223,0.229348,-0.707955
16008,NaN,16.518210,-2.990180,-1.596017,-0.425295,9.105536,4.371890,0.218729,1.117939,4.265693,-0.891846,-0.431396,-0.184326,0.165677,-0.026353,-0.016915,0.999756,0.001094,0.005589,0.021327,-0.424080,-0.494658,0.237080,-0.720599
16009,NaN,15.932987,-2.850792,-1.555751,-1.143342,8.583118,3.949011,0.341101,0.984590,4.454257,-0.901367,-0.395264,-0.189209,0.159832,-0.024924,-0.016388,0.999738,0.001705,0.004923,0.022269,-0.408265,-0.486431,0.244714,-0.732680
16010,NaN,15.191026,-2.713686,-1.235609,-1.669042,7.749926,3.482673,0.350961,0.844139,4.630905,-0.919922,-0.352539,-0.189941,0.152430,-0.023589,-0.013042,0.999722,0.001755,0.004220,0.023152,-0.390503,-0.478233,0.253173,-0.744784
16011,NaN,14.409619,-2.556152,-0.796671,-2.053368,6.801753,3.004634,0.255900,0.709301,4.776659,-0.936279,-0.303711,-0.192871,0.144622,-0.022101,-0.008509,0.999708,0.001279,0.003546,0.023881,-0.372909,-0.469913,0.262181,-0.755898
16012,NaN,13.699427,-2.616918,-0.491632,-2.307330,6.074563,2.536431,0.049512,0.579450,4.902703,-0.944092,-0.261230,-0.203857,0.137566,-0.022800,-0.005320,0.999695,0.000248,0.002897,0.024511,-0.353666,-0.461397,0.272525,-0.766657
16013,NaN,13.039781,-2.921183,-0.247922,-2.328994,5.575647,2.107101,-0.204837,0.444182,4.994449,-0.952148,-0.214355,-0.206787,0.131067,-0.025947,-0.002742,0.999685,-0.001024,0.002221,0.024970,-0.335508,-0.452391,0.283960,-0.775979
16014,NaN,12.584173,-3.375393,-0.314205,-2.438216,5.442285,1.774109,-0.427426,0.320372,5.067762,-0.966553,-0.161133,-0.207764,0.126638,-0.030558,-0.003277,0.999675,-0.002137,0.001602,0.025336,-0.316256,-0.443142,0.296758,-0.784565
16015,NaN,12.264790,-3.910084,-0.502393,-2.558629,5.502313,1.549899,-0.532388,0.196387,5.116525,-0.966064,-0.114502,-0.210693,0.123590,-0.035960,-0.005046,0.999669,-0.002662,0.000982,0.025580,-0.297572,-0.433801,0.309774,-0.792027
16016,NaN,12.067247,-4.541938,-0.808293,-2.727516,5.718843,1.444332,-0.468102,0.056711,5.124702,-0.967773,-0.063477,-0.207520,0.121781,-0.042327,-0.008016,0.999669,-0.002340,0.000284,0.025621,-0.277203,-0.424933,0.322844,-0.798975
16017,NaN,11.935001,-4.983311,-1.156458,-3.065918,5.878076,1.350986,-0.304659,-0.063253,5.088206,-0.975586,-0.016846,-0.200195,0.120570,-0.046793,-0.011454,0.999675,-0.001523,-0.000316,0.025438,-0.257352,-0.416424,0.334856,-0.805129
16018,NaN,11.947297,-5.075529,-1.392059,-3.681766,5.722074,1.327501,-0.127642,-0.169856,5.021384,-0.975342,0.034180,-0.209229,0.120709,-0.047744,-0.013787,0.999684,-0.000638,-0.000849,0.025104,-0.235782,-0.408707,0.346158,-0.810888
16019,NaN,11.867169,-4.794725,-1.623601,-4.457884,5.326092,1.058446,0.021293,-0.241169,4.944680,-0.970459,0.080811,-0.195557,0.119828,-0.044992,-0.016097,0.999694,0.000106,-0.001206,0.024721,-0.215221,-0.401041,0.356357,-0.816000
16020,NaN,11.520794,-4.335563,-1.864212,-5.167597,4.780688,0.454339,0.137253,-0.305803,4.849797,-0.965576,0.125488,-0.194336,0.116242,-0.040532,-0.018493,0.999705,0.000686,-0.001529,0.024247,-0.193487,-0.393863,0.366042,-0.820639
16021,NaN,11.249439,-3.847315,-2.108923,-5.861226,4.257701,-0.154007,0.206810,-0.369738,4.738190,-0.956543,0.167725,-0.188965,0.113402,-0.035772,-0.020918,0.999717,0.001034,-0.001849,0.023689,-0.172925,-0.386813,0.374782,-0.824628
16022,NaN,11.351771,-3.471888,-2.441820,-6.726380,3.857655,-0.499920,0.234130,-0.414241,4.610772,-0.951660,0.214600,-0.185547,0.114328,-0.032061,-0.024221,0.999731,0.001171,-0.002071,0.023052,-0.151655,-0.380153,0.383310,-0.827984
16023,NaN,11.666971,-3.181475,-2.834306,-7.667789,3.561028,-0.714777,0.232160,-0.446230,4.469269,-0.940430,0.254883,-0.177979,0.117404,-0.029164,-0.028117,0.999747,0.001161,-0.002231,0.022344,-0.131836,-0.373532,0.391090,-0.830748
16024,NaN,11.827167,-2.928753,-3.281705,-8.493507,3.304023,-1.086384,0.260549,-0.450742,4.332188,-0.926758,0.292969,-0.168457,0.118942,-0.026673,-0.032585,0.999762,0.001303,-0.002254,0.021659,-0.111544,-0.367155,0.398652,-0.832966
16025,NaN,11.724981,-2.701820,-3.597404,-9.011870,3.016569,-1.604147,0.303395,-0.450602,4.202460,-0.919678,0.329102,-0.173096,0.117863,-0.024491,-0.035747,0.999776,0.001517,-0.002253,0.021011,-0.092579,-0.360761,0.405270,-0.834887
16026,NaN,11.710594,-2.483777,-3.782301,-9.490311,2.616290,-2.022904,0.340551,-0.454986,4.066276,-0.903809,0.364990,-0.159424,0.117663,-0.022385,-0.037595,0.999789,0.001703,-0.002275,0.020330,-0.073232,-0.354652,0.411671,-0.836293
16027,NaN,11.669507,-2.205145,-3.974414,-9.935169,2.218949,-2.519887,0.372207,-0.463196,3.931360,-0.885986,0.400879,-0.155762,0.117189,-0.019677,-0.039511,0.999802,0.001861,-0.002316,0.019656,-0.055182,-0.348584,0.417180,-0.837499
16028,NaN,11.683419,-2.001661,-4.061407,-10.302683,1.773289,-2.906481,0.380521,-0.466977,3.789793,-0.874268,0.426514,-0.150146,0.117279,-0.017720,-0.040376,0.999816,0.001902,-0.002335,0.018948,-0.036921,-0.342843,0.422620,-0.838146
16029,NaN,11.899799,-1.807989,-4.043404,-10.727349,1.240286,-3.135023,0.354988,-0.477895,3.653760,-0.856201,0.460205,-0.146484,0.119397,-0.015830,-0.040178,0.999829,0.001775,-0.002389,0.018268,-0.020001,-0.337154,0.427417,-0.838595
16030,NaN,12.106497,-1.643111,-4.105958,-11.152502,0.768381,-3.398601,0.307284,-0.499751,3.514824,-0.846680,0.487793,-0.145020,0.121430,-0.014236,-0.040779,0.999841,0.001536,-0.002499,0.017573,-0.003012,-0.331905,0.432421,-0.838357
16031,NaN,12.371624,-1.638702,-4.105658,-11.514491,0.355686,-3.498192,0.244987,-0.528546,3.367316,-0.828369,0.509033,-0.130859,0.124076,-0.014250,-0.040747,0.999854,0.001225,-0.002643,0.016836,0.012636,-0.326820,0.436933,-0.837925
16032,NaN,12.831904,-1.635413,-3.927008,-11.911333,-0.267483,-3.426224,0.188046,-0.567338,3.198634,-0.812256,0.538574,-0.131348,0.128669,-0.014261,-0.038919,0.999868,0.000940,-0.002837,0.015992,0.028154,-0.322368,0.441671,-0.836787
16033,NaN,13.346881,-1.768744,-3.668382,-12.256096,-0.873098,-3.199389,0.153408,-0.608988,3.009770,-0.800537,0.566162,-0.127686,0.133825,-0.015647,-0.036289,0.999882,0.000767,-0.003045,0.015048,0.042320,-0.318236,0.445749,-0.835609
16034,NaN,13.698259,-1.968405,-3.347922,-12.405784,-1.450785,-2.978686,0.152594,-0.650282,2.796390,-0.777832,0.580811,-0.123779,0.137348,-0.017740,-0.033047,0.999897,0.000763,-0.003251,0.013981,0.056163,-0.314894,0.449776,-0.833900
16035,NaN,13.734305,-2.188298,-3.047415,-12.300144,-1.863218,-2.889581,0.178511,-0.710531,2.574629,-0.767822,0.597900,-0.113770,0.137716,-0.020085,-0.030004,0.999910,0.000893,-0.003553,0.012873,0.068756,-0.312016,0.452851,-0.832373
16036,NaN,13.278440,-2.453694,-2.685167,-11.741135,-2.097592,-2.936361,0.274596,-0.801613,2.331517,-0.753662,0.618896,-0.112061,0.133164,-0.022950,-0.026351,0.999923,0.001373,-0.004008,0.011657,0.081063,-0.310217,0.455434,-0.830526
16037,NaN,12.559796,-2.607207,-2.200941,-10.906001,-2.324077,-3.101465,0.414217,-0.919781,2.077863,-0.741211,0.629639,-0.105957,0.125959,-0.024720,-0.021483,0.999933,0.002071,-0.004599,0.010389,0.092408,-0.309145,0.456539,-0.829133
16038,NaN,11.660693,-2.873095,-1.622086,-9.835326,-2.444154,-3.168546,0.619775,-1.066633,1.818313,-0.735596,0.646484,-0.102051,0.116946,-0.027620,-0.015685,0.999940,0.003099,-0.005333,0.009091,0.103599,-0.309389,0.456653,-0.827656
16039,NaN,10.858354,-3.169324,-0.942589,-8.767747,-2.599019,-3.089238,0.899147,-1.229975,1.565513,-0.729492,0.655029,-0.100342,0.108883,-0.030801,-0.008897,0.999940,0.004496,-0.006150,0.007827,0.114255,-0.310450,0.454695,-0.826934
16040,NaN,10.314216,-3.583839,-0.046555,-7.740760,-2.913647,-2.684022,1.257818,-1.371784,1.327809,-0.721191,0.661377,-0.092041,0.103378,-0.035152,0.000020,0.999935,0.006289,-0.006859,0.006639,0.124991,-0.312647,0.451123,-0.826509
16041,NaN,10.176574,-3.912125,0.795651,-7.061680,-3.370093,-2.178939,1.653520,-1.462411,1.094753,-0.712891,0.665527,-0.096191,0.101918,-0.038632,0.008381,0.999924,0.008267,-0.007312,0.005474,0.135373,-0.315196,0.445057,-0.827194
16042,NaN,10.402450,-4.052566,1.326877,-6.848825,-3.868146,-1.779937,2.027308,-1.534451,0.838980,-0.711182,0.674072,-0.100586,0.104090,-0.040226,0.013658,0.999910,0.010136,-0.007672,0.004195,0.145557,-0.318554,0.437281,-0.828324
16043,NaN,10.348475,-3.951803,1.699584,-6.527067,-4.202773,-1.729989,2.516411,-1.559485,0.590094,-0.706787,0.669678,-0.104492,0.103467,-0.039429,0.017306,0.999886,0.012582,-0.007797,0.002950,0.155385,-0.321887,0.426618,-0.830807
16044,NaN,9.496271,-3.830925,2.172251,-5.531848,-4.133656,-1.945976,3.082054,-1.606403,0.373044,-0.706543,0.665527,-0.118652,0.094859,-0.038469,0.021893,0.999847,0.015409,-0.008032,0.001865,0.165355,-0.325595,0.413448,-0.834090
16045,NaN,8.346422,-3.742538,2.679016,-4.308769,-3.817120,-2.215983,3.638678,-1.695246,0.209441,-0.706299,0.656982,-0.132812,0.083276,-0.037826,0.026811,0.999798,0.018192,-0.008476,0.001047,0.175605,-0.329190,0.397133,-0.838500
16046,NaN,7.351590,-3.642396,3.217521,-3.185328,-3.532346,-2.393801,4.236881,-1.811099,0.085424,-0.718994,0.655029,-0.149170,0.073241,-0.037073,0.032058,0.999735,0.021183,-0.009055,0.000427,0.186504,-0.333071,0.378141,-0.843380
16047,NaN,6.549745,-3.666412,3.795768,-2.202343,-3.201079,-2.352880,4.904559,-1.934569,-0.030261,-0.720703,0.644531,-0.169434,0.065126,-0.037600,0.037674,0.999653,0.024520,-0.009672,-0.000151,0.198116,-0.336629,0.355478,-0.849156
16048,NaN,6.111229,-3.590338,4.349276,-1.499272,-3.037937,-2.218580,5.567010,-2.041413,-0.161793,-0.722168,0.627686,-0.185547,0.060641,-0.037156,0.043091,0.999560,0.027831,-0.010206,-0.000809,0.210338,-0.340172,0.329698,-0.855185
16049,NaN,5.911286,-3.337743,4.846039,-0.995505,-3.014966,-2.100556,6.139894,-2.101925,-0.306650,-0.730225,0.614990,-0.214111,0.058554,-0.034946,0.048021,0.999472,0.030694,-0.010508,-0.001533,0.222800,-0.343061,0.300545,-0.861593
16050,NaN,5.949478,-2.730585,5.237432,-0.655194,-3.280980,-2.126584,6.546996,-2.130396,-0.422489,-0.735840,0.593750,-0.238281,0.058879,-0.029139,0.052070,0.999405,0.032728,-0.010650,-0.002112,0.235270,-0.345609,0.269352,-0.867555
16051,NaN,6.089266,-1.985492,5.527473,-0.393870,-3.637128,-2.185387,6.727565,-2.134278,-0.477935,-0.745605,0.568359,-0.260498,0.060253,-0.021857,0.055207,0.999375,0.033631,-0.010669,-0.002389,0.247523,-0.347413,0.236672,-0.872939
16052,NaN,6.259166,-1.194735,5.518983,-0.297584,-3.971746,-2.383959,6.576239,-2.183691,-0.459966,-0.757812,0.549561,-0.282715,0.061957,-0.013911,0.055433,0.999397,0.032875,-0.010916,-0.002299,0.259360,-0.349356,0.204587,-0.876828
16053,NaN,6.566310,-0.543675,5.361159,-0.373355,-4.285722,-2.489131,6.098649,-2.281656,-0.381838,-0.761230,0.528320,-0.296631,0.065035,-0.007207,0.054154,0.999468,0.030488,-0.011406,-0.001909,0.270506,-0.351687,0.174121,-0.879105
16054,NaN,6.815336,0.378913,5.360016,-0.127016,-4.847344,-2.615675,5.373696,-2.435817,-0.316453,-0.775391,0.507080,-0.298340,0.067498,0.002226,0.054499,0.999564,0.026865,-0.012177,-0.001582,0.280545,-0.355448,0.146805,-0.879431
16055,NaN,6.913670,1.839939,5.791066,0.814571,-5.793910,-2.708208,4.446839,-2.623604,-0.336293,-0.787354,0.488037,-0.304199,0.068395,0.016977,0.059199,0.999665,0.022232,-0.013117,-0.001681,0.288772,-0.360905,0.122927,-0.878207
16056,NaN,6.887204,3.495114,6.471713,2.187815,-6.813973,-2.720391,3.217320,-2.836442,-0.462295,-0.797607,0.475342,-0.295898,0.068019,0.033736,0.066235,0.999767,0.016085,-0.014181,-0.002311,0.294190,-0.369099,0.104037,-0.875440
16057,NaN,6.791009,4.689027,6.985179,3.345184,-7.421390,-2.698054,1.830621,-3.009196,-0.682741,-0.807861,0.466797,-0.279297,0.067003,0.046012,0.071288,0.999839,0.009153,-0.015045,-0.003414,0.296067,-0.379904,0.090319,-0.871699
16058,NaN,6.902104,4.956228,7.236407,3.811278,-7.454809,-2.432946,0.469603,-3.119317,-0.954213,-0.820068,0.451904,-0.256592,0.068115,0.049064,0.073547,0.999864,0.002348,-0.015596,-0.004771,0.294119,-0.393348,0.081981,-0.867208
16059,NaN,7.163984,4.253251,7.264298,3.602390,-6.854842,-1.925296,-0.719749,-3.141342,-1.240620,-0.832764,0.451904,-0.223877,0.070752,0.042356,0.073606,0.999851,-0.003599,-0.015706,-0.006203,0.288537,-0.408506,0.078028,-0.862427
16060,NaN,7.558844,2.829556,7.093461,2.885968,-5.796154,-1.237724,-1.714179,-3.097674,-1.496193,-0.847168,0.437012,-0.188965,0.074692,0.028348,0.071853,0.999815,-0.008570,-0.015487,-0.007481,0.279675,-0.424988,0.077989,-0.857371
16061,NaN,8.017191,1.027460,6.774362,1.923272,-4.478133,-0.460487,-2.426584,-2.971370,-1.669380,-0.861816,0.432617,-0.148193,0.079242,0.010441,0.068800,0.999781,-0.012132,-0.014856,-0.008346,0.268428,-0.441705,0.080668,-0.852253
16062,NaN,8.419948,-0.991392,6.433195,0.976346,-2.924823,0.372966,-2.791106,-2.779778,-1.789521,-0.876221,0.424316,-0.119385,0.083206,-0.009752,0.065630,0.999766,-0.013954,-0.013898,-0.008947,0.255621,-0.458041,0.084940,-0.847137
16063,NaN,8.541947,-2.807194,6.019762,0.264095,-1.359909,0.918238,-2.816254,-2.544494,-1.882029,-0.877686,0.407227,-0.078125,0.084377,-0.028008,0.061670,0.999776,-0.014080,-0.012722,-0.009409,0.242192,-0.473142,0.089282,-0.842323
16064,NaN,8.488177,-4.581056,5.627432,-0.267918,0.308810,1.346344,-2.531581,-2.290781,-1.969758,-0.896484,0.396484,-0.051514,0.083774,-0.045914,0.057819,0.999806,-0.012657,-0.011453,-0.009848,0.228804,-0.486759,0.092558,-0.837943
16065,NaN,8.504069,-6.330060,5.346070,-0.683017,1.988309,1.872207,-2.005618,-2.046424,-2.047412,-0.904541,0.383789,-0.028809,0.083833,-0.063617,0.054960,0.999845,-0.010028,-0.010232,-0.010237,0.216224,-0.498526,0.093617,-0.834239
16066,NaN,8.637728,-8.006496,4.836607,-1.303412,3.597008,2.330520,-1.367698,-1.795219,-2.081766,-0.909912,0.358154,-0.011963,0.085098,-0.080618,0.049684,0.999882,-0.006838,-0.008976,-0.010408,0.204875,-0.508518,0.092241,-0.831220
16067,NaN,8.776318,-8.982302,4.525621,-1.602764,4.641923,2.599398,-0.611575,-1.569757,-2.073531,-0.917725,0.341309,0.008545,0.086466,-0.090584,0.046214,0.999911,-0.003058,-0.007849,-0.010367,0.195375,-0.516607,0.087889,-0.828988
16068,NaN,8.926621,-9.291043,4.354336,-1.689651,5.119833,2.672967,0.181991,-1.396224,-2.027373,-0.923828,0.330566,0.010742,0.088012,-0.093847,0.044076,0.999924,0.000910,-0.006981,-0.010137,0.187985,-0.523173,0.080591,-0.827319
16069,NaN,9.041372,-9.125508,4.254505,-1.678542,5.201094,2.566526,0.922340,-1.232746,-1.941720,-0.925049,0.305176,0.025635,0.089258,-0.092322,0.042673,0.999923,0.004612,-0.006164,-0.009708,0.182814,-0.528175,0.070526,-0.826218
16070,NaN,9.204500,-8.666303,4.488835,-1.394168,5.022349,2.548598,1.539659,-1.072128,-1.803892,-0.933105,0.294434,0.023682,0.091016,-0.087832,0.044705,0.999915,0.007698,-0.005360,-0.009019,0.179753,-0.531891,0.058484,-0.825446
16071,NaN,9.268879,-8.015558,4.838465,-0.985810,4.715212,2.449405,1.982926,-0.911099,-1.624925,-0.934570,0.275391,0.030273,0.091812,-0.081381,0.048001,0.999907,0.009914,-0.004555,-0.008124,0.178536,-0.534321,0.045149,-0.824978
16072,NaN,9.114770,-7.147105,5.078758,-0.572079,4.258679,2.081978,2.207220,-0.763505,-1.437912,-0.942627,0.264893,0.032471,0.090435,-0.072680,0.050336,0.999906,0.011036,-0.003817,-0.007189,0.178636,-0.535873,0.031590,-0.824580
16073,NaN,8.733610,-6.079889,5.289912,-0.057009,3.666556,1.490915,2.225174,-0.636075,-1.256489,-0.944580,0.254150,0.024414,0.086782,-0.061931,0.052491,0.999913,0.011126,-0.003180,-0.006282,0.179467,-0.536685,0.018473,-0.824269
16074,NaN,8.251044,-5.089273,5.561877,0.547644,3.157680,0.894302,2.063389,-0.525123,-1.094863,-0.948242,0.239258,0.024658,0.082083,-0.051915,0.055303,0.999928,0.010317,-0.002626,-0.005474,0.180519,-0.537153,0.006632,-0.823915
16075,NaN,7.833514,-4.458824,5.886156,1.092263,2.947543,0.483315,1.774685,-0.419396,-0.931686,-0.948242,0.237305,0.024658,0.078002,-0.045473,0.058624,0.999948,0.008873,-0.002097,-0.004658,0.181416,-0.537306,-0.003566,-0.823637
16076,NaN,7.446475,-4.132554,6.095584,1.454292,2.958078,0.127981,1.416599,-0.343567,-0.777679,-0.952148,0.226562,0.026855,0.074198,-0.042045,0.060787,0.999966,0.007083,-0.001718,-0.003888,0.182008,-0.537487,-0.011729,-0.823312
16077,NaN,7.163702,-3.920377,6.305127,1.759551,3.014309,-0.103964,1.055353,-0.279549,-0.634374,-0.949951,0.224365,0.031006,0.071423,-0.039763,0.062942,0.999980,0.005277,-0.001398,-0.003172,0.182176,-0.537654,-0.018039,-0.823052
16078,NaN,6.963556,-3.960005,6.522265,1.977582,3.253693,-0.209842,0.752865,-0.222436,-0.502619,-0.949463,0.216064,0.033203,0.069463,-0.040020,0.065150,0.999989,0.003764,-0.001112,-0.002513,0.182121,-0.537906,-0.022623,-0.822786
16079,NaN,6.750849,-4.120257,6.687816,2.125664,3.571618,-0.325742,0.464236,-0.173865,-0.357790,-0.951416,0.207520,0.033203,0.067376,-0.041478,0.066841,0.999995,0.002321,-0.000869,-0.001789,0.181840,-0.538179,-0.025660,-0.822581
16080,NaN,6.598973,-4.206604,6.761601,2.208793,3.753140,-0.432053,0.201423,-0.129041,-0.198440,-0.953857,0.216064,0.031006,0.065904,-0.042200,0.067616,0.999999,0.001007,-0.000645,-0.000992,0.181571,-0.538564,-0.027074,-0.822343
16081,NaN,6.432772,-4.471633,6.878619,2.285974,4.091428,-0.500008,0.003415,-0.090774,-0.038610,-0.945068,0.211670,0.029297,0.064288,-0.044730,0.068815,1.000000,0.000017,-0.000454,-0.000193,0.181372,-0.538952,-0.027281,-0.822125
16082,NaN,6.373749,-4.851453,6.813243,2.137004,4.440820,-0.523239,-0.143348,-0.053982,0.113487,-0.953857,0.216064,0.027100,0.063747,-0.048429,0.068184,1.000000,-0.000717,-0.000270,0.000567,0.181477,-0.539372,-0.026371,-0.821856
16083,NaN,6.425852,-5.367329,6.719027,1.885415,4.863051,-0.429674,-0.258107,-0.027931,0.266227,-0.947510,0.218018,0.031006,0.064320,-0.053501,0.067268,0.999998,-0.001291,-0.000140,0.001331,0.181834,-0.539780,-0.024624,-0.821564
16084,NaN,6.490872,-5.753061,6.452933,1.526702,5.101800,-0.404710,-0.315381,-0.006643,0.417349,-0.949951,0.224609,0.029053,0.065026,-0.057293,0.064622,0.999997,-0.001577,-0.000033,0.002087,0.182740,-0.540188,-0.022145,-0.821165
16085,NaN,6.533964,-6.086738,6.230434,1.230725,5.298056,-0.380035,-0.293598,0.010146,0.555088,-0.949707,0.222412,0.035156,0.065511,-0.060594,0.062390,0.999995,-0.001468,0.000051,0.002775,0.184188,-0.540498,-0.019437,-0.820706
16086,NaN,6.524364,-6.481346,5.986086,0.910196,5.550711,-0.390952,-0.211762,0.007339,0.683902,-0.939697,0.237305,0.030762,0.065467,-0.064526,0.059927,0.999994,-0.001059,0.000037,0.003420,0.186477,-0.540765,-0.016648,-0.820075
16087,NaN,6.639550,-6.851508,5.777331,0.577546,5.749380,-0.272514,-0.083312,-0.008852,0.788094,-0.937744,0.243652,0.034912,0.066662,-0.068229,0.057805,0.999992,-0.000417,-0.000044,0.003940,0.189444,-0.540965,-0.014191,-0.819309
16088,NaN,6.879958,-7.100017,5.632595,0.287337,5.805436,-0.030868,0.083347,-0.026930,0.875633,-0.933594,0.247803,0.030762,0.069102,-0.070722,0.056306,0.999990,0.000417,-0.000135,0.004378,0.193318,-0.541087,-0.012120,-0.818356
16089,NaN,7.112333,-7.251655,5.523057,0.050991,5.779190,0.200988,0.256255,-0.056684,0.945990,-0.932129,0.260498,0.034424,0.071450,-0.072250,0.055158,0.999988,0.001281,-0.000283,0.004730,0.197838,-0.541147,-0.010671,-0.817255
16090,NaN,7.297286,-7.180423,5.361983,-0.149546,5.544355,0.326192,0.417380,-0.094736,0.990196,-0.927979,0.269043,0.030273,0.073302,-0.071554,0.053505,0.999985,0.002087,-0.000474,0.004951,0.203080,-0.541197,-0.009719,-0.815947
16091,NaN,7.403301,-7.104437,5.295166,-0.244586,5.354982,0.413966,0.565985,-0.159754,1.016746,-0.921875,0.273193,0.030273,0.074351,-0.070817,0.052810,0.999983,0.002830,-0.000799,0.005084,0.208710,-0.541340,-0.009446,-0.814433
16092,NaN,7.431074,-7.197225,5.222762,-0.381855,5.344415,0.462965,0.715584,-0.237205,1.025454,-0.922363,0.285889,0.028076,0.074617,-0.071777,0.052059,0.999980,0.003578,-0.001186,0.005127,0.214887,-0.541624,-0.009756,-0.812632
16093,NaN,7.604829,-7.411116,5.146284,-0.617542,5.399554,0.661341,0.838520,-0.341034,1.011449,-0.918457,0.296631,0.029785,0.076335,-0.073941,0.051283,0.999977,0.004193,-0.001705,0.005057,0.221209,-0.542172,-0.010798,-0.810555
16094,NaN,7.886412,-7.727797,5.141086,-0.867743,5.526340,1.006334,1.000207,-0.437374,1.004179,-0.916748,0.307129,0.033691,0.079140,-0.077137,0.051198,0.999972,0.005001,-0.002187,0.005021,0.228045,-0.542903,-0.012534,-0.808143
16095,NaN,8.308339,-8.088825,5.292817,-1.051521,5.685721,1.546794,1.184616,-0.505826,1.032607,-0.908447,0.311279,0.031738,0.083367,-0.080771,0.052660,0.999966,0.005923,-0.002529,0.005163,0.235356,-0.543668,-0.015103,-0.805484
16096,NaN,8.754350,-8.410482,5.428952,-1.255300,5.785714,2.095180,1.381235,-0.527280,1.108525,-0.906494,0.322021,0.033691,0.087867,-0.083992,0.053941,0.999957,0.006906,-0.002636,0.005543,0.243616,-0.544249,-0.018189,-0.802567
16097,NaN,9.250187,-8.556547,5.516586,-1.460294,5.685461,2.627371,1.557999,-0.496400,1.226892,-0.902832,0.334717,0.033447,0.092890,-0.085424,0.054730,0.999948,0.007790,-0.002482,0.006134,0.252683,-0.544453,-0.021715,-0.799532
16098,NaN,9.748449,-8.454435,5.396268,-1.745846,5.275561,3.022744,1.665897,-0.447660,1.354658,-0.896973,0.349609,0.033203,0.097936,-0.084329,0.053479,0.999940,0.008329,-0.002238,0.006773,0.262663,-0.544272,-0.025163,-0.796331
16099,NaN,10.396198,-8.266686,4.993588,-2.267248,4.613671,3.413290,1.723838,-0.372998,1.459552,-0.895264,0.360107,0.034912,0.104471,-0.082333,0.049420,0.999934,0.008619,-0.001865,0.007298,0.273064,-0.543668,-0.028553,-0.793124
16100,NaN,10.971308,-7.967512,4.431069,-2.833583,3.786428,3.645257,1.753878,-0.279810,1.544430,-0.885010,0.370850,0.022705,0.110264,-0.079210,0.043769,0.999931,0.008769,-0.001399,0.007722,0.283992,-0.542584,-0.031597,-0.789907
16101,NaN,11.450883,-7.648178,3.726536,-3.458590,2.893059,3.721320,1.733189,-0.192030,1.634800,-0.878906,0.383545,0.016357,0.115095,-0.075862,0.036716,0.999929,0.008666,-0.000960,0.008174,0.295062,-0.541128,-0.034288,-0.786729
16102,NaN,11.735210,-7.392069,2.851353,-4.174119,2.024043,3.565047,1.661742,-0.129763,1.724430,-0.875244,0.394043,0.014160,0.117967,-0.073139,0.027980,0.999928,0.008309,-0.000649,0.008622,0.306387,-0.539463,-0.036252,-0.783449
16103,NaN,11.953301,-7.139760,2.079266,-4.754496,1.192806,3.383823,1.547814,-0.086592,1.811144,-0.867188,0.411133,0.007568,0.120165,-0.070470,0.020297,0.999929,0.007739,-0.000433,0.009056,0.317581,-0.537749,-0.037571,-0.780101
16104,NaN,11.998024,-6.938804,1.442449,-5.174470,0.503144,3.115822,1.398501,-0.066711,1.884187,-0.859375,0.426025,0.003418,0.120623,-0.068352,0.013984,0.999931,0.006992,-0.000334,0.009421,0.328735,-0.536131,-0.037963,-0.776567
16105,NaN,11.992458,-6.687022,1.060284,-5.318138,-0.107672,2.890046,1.213316,-0.060150,1.944642,-0.851318,0.442871,-0.000977,0.120564,-0.065763,0.010238,0.999934,0.006066,-0.000301,0.009723,0.339467,-0.534732,-0.037569,-0.772925
16106,NaN,11.833767,-6.373649,0.784829,-5.277886,-0.651179,2.556279,0.987999,-0.073263,2.003912,-0.847900,0.464111,-0.001221,0.118966,-0.062584,0.007581,0.999938,0.004940,-0.000366,0.010019,0.349885,-0.533714,-0.036048,-0.769045
16107,NaN,11.557613,-6.173725,0.548928,-5.223965,-1.020581,2.173021,0.739295,-0.095935,2.062637,-0.833496,0.474609,-0.011719,0.116202,-0.060561,0.005320,0.999940,0.003696,-0.000480,0.010313,0.359712,-0.533158,-0.033565,-0.764999
16108,NaN,11.180837,-6.076294,0.346548,-5.163611,-1.238809,1.756626,0.474730,-0.126343,2.121062,-0.825684,0.493652,-0.001709,0.112442,-0.059581,0.003394,0.999941,0.002374,-0.000632,0.010605,0.369100,-0.533153,-0.029847,-0.760672
16109,NaN,10.655607,-6.022461,0.204530,-5.046201,-1.302270,1.263766,0.233608,-0.161241,2.190557,-0.817627,0.510742,-0.008057,0.107206,-0.059055,0.002062,0.999939,0.001168,-0.000806,0.010953,0.377970,-0.533658,-0.025205,-0.756117
16110,NaN,10.051241,-6.012593,0.176197,-4.846282,-1.226222,0.780417,0.051960,-0.211147,2.258925,-0.803467,0.527588,-0.002197,0.101181,-0.058986,0.001853,0.999936,0.000260,-0.001056,0.011294,0.386635,-0.534658,-0.019664,-0.751177
16111,NaN,9.438175,-5.963001,0.169318,-4.606641,-1.141615,0.293504,-0.073487,-0.275390,2.319033,-0.793701,0.548828,0.003662,0.095062,-0.058530,0.001845,0.999932,-0.000367,-0.001377,0.011595,0.395058,-0.536056,-0.013734,-0.745912
16112,NaN,8.845620,-5.849390,0.180870,-4.318126,-1.086324,-0.186610,-0.153964,-0.346739,2.368781,-0.779297,0.563477,0.003418,0.089137,-0.057439,0.002007,0.999928,-0.000770,-0.001734,0.011844,0.403452,-0.537834,-0.007387,-0.740207
16113,NaN,8.359249,-5.678675,0.154957,-4.043148,-1.125900,-0.618744,-0.185758,-0.421966,2.410708,-0.764893,0.580566,0.009277,0.084265,-0.055772,0.001779,0.999925,-0.000929,-0.002110,0.012053,0.411792,-0.539849,-0.001082,-0.734159
16114,NaN,7.892960,-5.514222,0.091797,-3.808196,-1.173174,-1.047394,-0.183826,-0.499663,2.447732,-0.757324,0.603760,0.019043,0.079594,-0.054170,0.001166,0.999922,-0.000919,-0.002498,0.012238,0.420259,-0.542095,0.005279,-0.727659
16115,NaN,7.503696,-5.377284,0.073476,-3.569822,-1.210626,-1.385808,-0.152931,-0.573995,2.460767,-0.736572,0.618652,0.019043,0.075688,-0.052844,0.000992,0.999920,-0.000765,-0.002870,0.012304,0.428742,-0.544427,0.011283,-0.720869
16116,NaN,7.189958,-5.256914,-0.028724,-3.419069,-1.309823,-1.693478,-0.084487,-0.628987,2.468021,-0.724365,0.633301,0.029053,0.072541,-0.051677,-0.000038,0.999919,-0.000422,-0.003145,0.012340,0.437413,-0.546757,0.017065,-0.713747
16117,NaN,6.993686,-5.181816,-0.102662,-3.286789,-1.430812,-1.880524,0.030527,-0.697419,2.444424,-0.710449,0.654541,0.030762,0.070566,-0.050958,-0.000789,0.999919,0.000153,-0.003487,0.012222,0.446208,-0.548958,0.022095,-0.706438
16118,NaN,6.906986,-5.149169,-0.226743,-3.224100,-1.614163,-1.985323,0.121238,-0.759223,2.416854,-0.694092,0.673584,0.030518,0.069693,-0.050651,-0.002035,0.999920,0.000606,-0.003796,0.012084,0.455120,-0.551127,0.026713,-0.698864
16119,NaN,6.828150,-5.080400,-0.423488,-3.201523,-1.851286,-2.135919,0.215836,-0.802735,2.375796,-0.681885,0.688477,0.036377,0.068895,-0.049984,-0.004013,0.999921,0.001079,-0.004014,0.011879,0.464052,-0.553112,0.030659,-0.691218
16120,NaN,6.774975,-5.048219,-0.555124,-3.149984,-2.050136,-2.225591,0.298999,-0.834799,2.319046,-0.667480,0.700928,0.040283,0.068352,-0.049684,-0.005341,0.999923,0.001495,-0.004174,0.011595,0.472973,-0.554975,0.034206,-0.683468
16121,NaN,6.913139,-5.023764,-0.764746,-3.155605,-2.407602,-2.206325,0.363525,-0.848755,2.243881,-0.653076,0.715820,0.048340,0.069721,-0.049444,-0.007443,0.999926,0.001818,-0.004244,0.011219,0.481725,-0.556623,0.037161,-0.675818
16122,NaN,7.237786,-5.051999,-0.983085,-3.176694,-2.870576,-2.031964,0.405977,-0.854013,2.162876,-0.636719,0.730713,0.052246,0.072960,-0.049713,-0.009622,0.999930,0.002030,-0.004270,0.010814,0.490264,-0.558167,0.039857,-0.668208
16123,NaN,7.876111,-5.063962,-1.247204,-3.179340,-3.586035,-1.672608,0.458702,-0.842286,2.063150,-0.620361,0.745361,0.056152,0.079330,-0.049795,-0.012254,0.999935,0.002293,-0.004211,0.010316,0.498538,-0.559442,0.041995,-0.660848
16124,NaN,8.488327,-5.007485,-1.482799,-3.098612,-4.306921,-1.376418,0.478785,-0.824952,1.954720,-0.612305,0.758057,0.055908,0.085428,-0.049207,-0.014595,0.999941,0.002394,-0.004125,0.009773,0.506447,-0.560611,0.043930,-0.653680
16125,NaN,8.963138,-4.842949,-1.767613,-2.993997,-5.004439,-1.274278,0.476734,-0.791370,1.845748,-0.597900,0.772949,0.057861,0.090142,-0.047557,-0.017434,0.999947,0.002384,-0.003957,0.009229,0.513928,-0.561588,0.045518,-0.646858
16126,NaN,9.314318,-4.548118,-1.934275,-2.725711,-5.605918,-1.308328,0.470153,-0.751542,1.737734,-0.583252,0.774902,0.059814,0.093605,-0.044624,-0.019097,0.999952,0.002351,-0.003758,0.008689,0.520969,-0.562473,0.047047,-0.640313
16127,NaN,9.720696,-4.278232,-2.130107,-2.481038,-6.238191,-1.312171,0.463166,-0.721378,1.636441,-0.572998,0.787598,0.063721,0.097629,-0.041936,-0.021047,0.999957,0.002316,-0.003607,0.008182,0.527625,-0.563200,0.048263,-0.634104
16128,NaN,10.200313,-4.024267,-2.224624,-2.146014,-6.851075,-1.231054,0.437548,-0.694164,1.533894,-0.566895,0.796143,0.063721,0.102384,-0.039410,-0.021978,0.999962,0.002188,-0.003471,0.007669,0.533807,-0.563948,0.049463,-0.628145
16129,NaN,10.603576,-3.780921,-2.315998,-1.826442,-7.389697,-1.201722,0.400876,-0.652033,1.429780,-0.554443,0.806641,0.067627,0.106377,-0.037003,-0.022888,0.999967,0.002004,-0.003260,0.007149,0.539538,-0.564587,0.050470,-0.622570
16130,NaN,10.962113,-3.538421,-2.248232,-1.394219,-7.796026,-1.151365,0.359303,-0.608218,1.329639,-0.546387,0.817139,0.061279,0.109921,-0.034614,-0.022211,0.999972,0.001796,-0.003041,0.006648,0.544754,-0.565259,0.051558,-0.617306
16131,NaN,11.243783,-3.380193,-2.196384,-1.047812,-8.107932,-1.104427,0.334904,-0.563639,1.211661,-0.538086,0.823486,0.065430,0.112701,-0.033083,-0.021702,0.999976,0.001675,-0.002818,0.006058,0.549540,-0.565794,0.052388,-0.612486
16132,NaN,11.521939,-3.264685,-2.070393,-0.678230,-8.347421,-1.005958,0.312257,-0.523764,1.092188,-0.527832,0.832031,0.067383,0.115449,-0.031985,-0.020452,0.999980,0.001561,-0.002619,0.005461,0.553806,-0.566348,0.053167,-0.608048
16133,NaN,11.775520,-3.206107,-1.781100,-0.237738,-8.444200,-0.826487,0.312386,-0.475438,0.955512,-0.519287,0.829834,0.069336,0.117948,-0.031470,-0.017580,0.999985,0.001562,-0.002377,0.004778,0.557680,-0.566699,0.053581,-0.604131
16134,NaN,11.838926,-3.208483,-1.418949,0.155992,-8.326104,-0.695750,0.367011,-0.423947,0.809460,-0.515381,0.838379,0.065186,0.118548,-0.031579,-0.013997,0.999988,0.001835,-0.002120,0.004047,0.561169,-0.566847,0.053662,-0.600745
16135,NaN,11.666092,-3.293491,-0.968497,0.480015,-7.943859,-0.617754,0.447236,-0.394148,0.652860,-0.509277,0.842529,0.067139,0.116786,-0.032532,-0.009528,0.999990,0.002236,-0.001971,0.003264,0.564465,-0.566628,0.053037,-0.597913
16136,NaN,11.290861,-3.418673,-0.460397,0.742731,-7.353911,-0.606666,0.545445,-0.376313,0.490187,-0.511475,0.844727,0.062988,0.113000,-0.033898,-0.004484,0.999992,0.002727,-0.001882,0.002451,0.567455,-0.566199,0.051799,-0.595592
16137,NaN,10.724591,-3.558942,0.053540,0.918671,-6.605203,-0.690571,0.689641,-0.369944,0.327648,-0.500732,0.844727,0.059082,0.107303,-0.035416,0.000612,0.999991,0.003448,-0.001850,0.001638,0.570441,-0.565287,0.049597,-0.593791
16138,NaN,10.201399,-3.780466,0.643205,1.083376,-5.805632,-0.653260,0.868920,-0.369059,0.167132,-0.505127,0.846924,0.056885,0.102034,-0.037747,0.006456,0.999989,0.004345,-0.001845,0.000836,0.573353,-0.563982,0.046493,-0.592477
16139,NaN,9.812228,-4.032197,1.088238,1.131842,-5.171250,-0.555270,1.070258,-0.385471,-0.008171,-0.500977,0.851074,0.048584,0.098100,-0.040384,0.010855,0.999984,0.005351,-0.001927,-0.000041,0.576394,-0.562081,0.042168,-0.591655
16140,NaN,9.675677,-4.186221,1.480011,1.248664,-4.775736,-0.380474,1.283502,-0.396070,-0.182191,-0.509521,0.851074,0.038330,0.096689,-0.042045,0.014722,0.999977,0.006417,-0.001980,-0.000911,0.579402,-0.559709,0.036764,-0.591326
16141,NaN,9.491347,-4.135400,1.706783,1.335966,-4.502823,-0.429740,1.489408,-0.408972,-0.374796,-0.515625,0.846924,0.032471,0.094801,-0.041658,0.016952,0.999968,0.007447,-0.002045,-0.001874,0.582486,-0.556687,0.030099,-0.591526
16142,NaN,9.236402,-3.956881,1.808610,1.376339,-4.283843,-0.647930,1.689309,-0.442261,-0.571869,-0.519775,0.840576,0.018066,0.092210,-0.039985,0.017954,0.999958,0.008446,-0.002211,-0.002859,0.585405,-0.553271,0.022260,-0.592197
16143,NaN,9.020962,-3.769468,1.976206,1.459538,-4.043913,-0.812276,1.892330,-0.502217,-0.781793,-0.519775,0.844971,0.001709,0.090011,-0.038233,0.019628,0.999944,0.009461,-0.002511,-0.003909,0.588314,-0.549307,0.012997,-0.593278
16144,NaN,8.882658,-3.774121,2.177837,1.439143,-3.763183,-0.776414,2.084334,-0.591103,-0.949017,-0.536377,0.834473,-0.008545,0.088581,-0.038388,0.021643,0.999930,0.010421,-0.002955,-0.004745,0.591085,-0.545088,0.002498,-0.594551
16145,NaN,8.833317,-4.103099,2.538516,1.294542,-3.336280,-0.405347,2.336797,-0.679527,-1.043099,-0.538574,0.830078,-0.022705,0.088031,-0.041786,0.025199,0.999912,0.011684,-0.003398,-0.005215,0.594275,-0.540199,-0.009327,-0.595764
16146,NaN,8.860192,-4.681416,3.351147,1.236370,-2.584485,0.357725,2.534727,-0.766384,-1.065650,-0.550781,0.821777,-0.039062,0.088222,-0.047707,0.033249,0.999898,0.012673,-0.003832,-0.005328,0.597714,-0.534984,-0.022010,-0.596696
16147,NaN,8.992102,-5.004967,4.174707,1.344717,-1.958313,1.035736,2.575604,-0.848025,-1.037283,-0.563232,0.811279,-0.057129,0.089482,-0.051050,0.041474,0.999895,0.012878,-0.004240,-0.005186,0.601317,-0.529677,-0.035026,-0.597188
16148,NaN,9.206572,-4.887971,4.896902,1.709838,-1.558319,1.468987,2.601111,-0.892324,-0.975285,-0.569580,0.809326,-0.075684,0.091606,-0.049962,0.048733,0.999894,0.013005,-0.004461,-0.004876,0.604938,-0.524434,-0.048040,-0.597253
16149,NaN,9.654840,-5.031054,5.454872,1.818467,-1.347542,2.152060,2.679916,-0.890488,-0.839899,-0.573486,0.800781,-0.095947,0.096092,-0.051443,0.054293,0.999891,0.013399,-0.004452,-0.004199,0.609142,-0.518758,-0.060959,-0.596758
16150,NaN,10.345544,-5.555131,6.025310,1.680697,-1.191024,3.223644,2.611590,-0.874828,-0.605339,-0.579834,0.796631,-0.108154,0.103022,-0.056648,0.059969,0.999901,0.013058,-0.004374,-0.003027,0.613651,-0.513317,-0.072971,-0.595494
16151,NaN,10.699250,-5.966485,5.957366,1.205161,-1.313899,3.692173,2.343021,-0.828955,-0.314899,-0.585938,0.792480,-0.120361,0.106651,-0.060529,0.059310,0.999922,0.011715,-0.004145,-0.001574,0.618340,-0.508469,-0.083319,-0.593441
16152,NaN,10.362673,-6.023868,5.556634,0.709958,-1.332467,3.312378,1.968453,-0.814117,-0.026122,-0.585938,0.790283,-0.130615,0.103393,-0.060798,0.055391,0.999943,0.009842,-0.004071,-0.000131,0.622764,-0.504898,-0.091733,-0.590617
16153,NaN,9.518942,-5.742021,5.090258,0.385564,-1.163717,2.352366,1.571137,-0.862875,0.227784,-0.577148,0.786133,-0.134521,0.095036,-0.057712,0.050860,0.999959,0.007856,-0.004314,0.001139,0.626946,-0.502665,-0.098507,-0.586995
