// Start Time: Unknown
// Update Rate: 100.0Hz
// Filter Profile: human (46.1)
// Firmware Version: 4.4.0
PacketCounter,SampleTimeFine,Acc_X,Acc_Y,Acc_Z,FreeAcc_X,FreeAcc_Y,FreeAcc_Z,Gyr_X,Gyr_Y,Gyr_Z,Mag_X,Mag_Y,Mag_Z,VelInc_X,VelInc_Y,VelInc_Z,OriInc_q0,OriInc_q1,OriInc_q2,OriInc_q3,Quat_q0,Quat_q1,Quat_q2,Quat_q3
56698,NaN,8.806554,-3.234098,4.215836,0.000000,-0.000000,0.472618,-1.355233,0.276281,0.208165,-0.943848,-0.084473,-0.317383,0.088157,-0.031963,0.042254,0.999976,-0.006776,0.001381,0.001041,-0.434000,-0.341256,0.422060,-0.719064
56699,NaN,8.708101,-3.339638,3.985516,0.218336,0.273471,0.323664,-1.362905,0.250108,0.174814,-0.939453,-0.086670,-0.323486,0.087160,-0.033048,0.039972,0.999976,-0.006814,0.001251,0.000874,-0.439101,-0.339689,0.421533,-0.717016
56700,NaN,8.732110,-3.353023,3.781705,0.134108,0.434645,0.266326,-1.349378,0.224080,0.138981,-0.935547,-0.078125,-0.323730,0.087387,-0.033214,0.037944,0.999976,-0.006747,0.001120,0.000695,-0.441356,-0.335623,0.426105,-0.714840
56701,NaN,8.791163,-3.349012,3.566082,0.031455,0.603840,0.229793,-1.335023,0.188914,0.103256,-0.937744,-0.076172,-0.325684,0.087963,-0.033206,0.035800,0.999977,-0.006675,0.000945,0.000516,-0.443407,-0.332171,0.430872,-0.712322
56702,NaN,8.789951,-3.353533,3.369434,-0.031626,0.746787,0.152428,-1.327121,0.155670,0.062801,-0.931641,-0.069824,-0.329834,0.087936,-0.033283,0.033847,0.999978,-0.006636,0.000778,0.000314,-0.445712,-0.328531,0.435348,-0.709845
56703,NaN,8.878151,-3.303726,3.128156,-0.172455,0.937003,0.117749,-1.338673,0.126787,0.013216,-0.936279,-0.059082,-0.332275,0.088804,-0.032821,0.031445,0.999977,-0.006693,0.000634,0.000066,-0.448269,-0.325105,0.440408,-0.706684
56704,NaN,8.966725,-3.185702,2.930220,-0.363645,1.085560,0.078023,-1.379804,0.102333,-0.043846,-0.936279,-0.054932,-0.330078,0.089675,-0.031674,0.029475,0.999976,-0.006899,0.000512,-0.000219,-0.450882,-0.321739,0.444972,-0.703697
56705,NaN,9.079375,-3.055313,2.622873,-0.564521,1.308616,0.016763,-1.465173,0.087000,-0.096102,-0.930176,-0.052734,-0.336426,0.090791,-0.030404,0.026412,0.999973,-0.007326,0.000435,-0.000481,-0.454434,-0.318489,0.451467,-0.698735
56706,NaN,9.172597,-2.894172,2.264014,-0.783593,1.602560,-0.093832,-1.579619,0.080133,-0.146363,-0.927979,-0.048584,-0.334473,0.091714,-0.028829,0.022831,0.999968,-0.007898,0.000401,-0.000732,-0.457628,-0.314941,0.456557,-0.694943
56707,NaN,9.162640,-2.730161,1.923066,-0.927528,1.803433,-0.273658,-1.743580,0.072843,-0.187378,-0.926270,-0.040039,-0.336426,0.091608,-0.027219,0.019435,0.999961,-0.008718,0.000364,-0.000937,-0.463693,-0.310618,0.465139,-0.687133
56708,NaN,9.168181,-2.558431,1.563611,-1.097371,2.072806,-0.456134,-1.933505,0.067398,-0.232057,-0.932861,-0.035645,-0.344727,0.091657,-0.025538,0.015852,0.999953,-0.009667,0.000337,-0.001160,-0.467628,-0.306429,0.471243,-0.682170
56709,NaN,9.013812,-2.494153,1.231559,-1.040059,2.207899,-0.700628,-2.148390,0.071200,-0.269973,-0.932861,-0.029297,-0.349121,0.090109,-0.024929,0.012551,0.999941,-0.010742,0.000356,-0.001350,-0.476701,-0.300632,0.483185,-0.670006
56710,NaN,8.744940,-2.354003,0.893533,-1.051763,2.371894,-1.090221,-2.382109,0.077478,-0.304314,-0.924805,-0.020996,-0.343018,0.087417,-0.023565,0.009182,0.999928,-0.011910,0.000387,-0.001522,-0.481454,-0.295408,0.490488,-0.663594
56711,NaN,8.345401,-2.328245,0.537579,-0.808799,2.423307,-1.516387,-2.615198,0.085473,-0.331596,-0.931396,-0.014404,-0.343262,0.083418,-0.023348,0.005645,0.999913,-0.013076,0.000427,-0.001658,-0.493784,-0.287288,0.505958,-0.646257
56712,NaN,7.874382,-2.276920,0.275135,-0.647768,2.450700,-2.012681,-2.832304,0.084876,-0.363296,-0.929688,-0.003906,-0.345459,0.078704,-0.022870,0.003041,0.999898,-0.014161,0.000424,-0.001816,-0.499191,-0.280911,0.514327,-0.638252
56713,NaN,7.356845,-2.352085,0.075006,-0.253203,2.272660,-2.434912,-3.022654,0.074832,-0.393578,-0.925537,-0.001709,-0.351562,0.073522,-0.023651,0.001079,0.999884,-0.015113,0.000374,-0.001968,-0.513714,-0.270635,0.532637,-0.615753
56714,NaN,6.914479,-2.348079,-0.114262,-0.055500,2.227638,-2.857792,-3.176707,0.060860,-0.446944,-0.923584,0.006836,-0.345459,0.069092,-0.023650,-0.000789,0.999871,-0.015883,0.000304,-0.002235,-0.519485,-0.263444,0.541587,-0.606149
56715,NaN,6.595137,-2.437210,-0.280050,0.289894,2.043254,-3.085530,-3.302302,0.038432,-0.503929,-0.926270,0.019531,-0.349854,0.065889,-0.024580,-0.002408,0.999860,-0.016511,0.000192,-0.002520,-0.535258,-0.250916,0.560832,-0.579662
56716,NaN,6.429452,-2.619018,-0.379076,0.553916,1.951577,-3.162538,-3.394951,0.024457,-0.555919,-0.926514,0.030029,-0.345947,0.064221,-0.026428,-0.003351,0.999852,-0.016974,0.000122,-0.002779,-0.541117,-0.243281,0.569826,-0.568599
56717,NaN,6.366356,-2.736352,-0.446609,0.804426,1.701582,-3.128819,-3.442748,0.017454,-0.608462,-0.922363,0.034424,-0.350098,0.063579,-0.027629,-0.003998,0.999847,-0.017213,0.000087,-0.003042,-0.556549,-0.229355,0.588541,-0.539693
56718,NaN,6.406117,-2.861603,-0.421788,0.906402,1.544911,-3.015953,-3.482428,0.013590,-0.655473,-0.922607,0.040771,-0.346191,0.063967,-0.028893,-0.003721,0.999843,-0.017411,0.000068,-0.003277,-0.562264,-0.221521,0.597056,-0.527553
56719,NaN,6.499147,-2.946824,-0.456033,1.040034,1.294996,-2.857777,-3.453706,0.013549,-0.691960,-0.927246,0.051270,-0.346191,0.064889,-0.029766,-0.004052,0.999845,-0.017268,0.000068,-0.003460,-0.576437,-0.206578,0.614048,-0.497987
56720,NaN,6.781836,-3.117443,-0.403612,1.089020,1.150116,-2.507575,-3.332180,0.001767,-0.716028,-0.927246,0.051270,-0.338135,0.067706,-0.031478,-0.003514,0.999855,-0.016660,0.000009,-0.003580,-0.581583,-0.199138,0.621510,-0.485623
56721,NaN,7.137687,-3.421306,-0.151879,1.137941,0.624077,-2.003122,-3.146237,-0.009697,-0.717814,-0.918945,0.059814,-0.338135,0.071253,-0.034487,-0.000974,0.999870,-0.015731,-0.000048,-0.003589,-0.593319,-0.185388,0.635740,-0.457645
56722,NaN,7.420386,-3.675497,0.013453,1.160532,0.326912,-1.620211,-2.896463,0.014224,-0.710851,-0.925537,0.063965,-0.346436,0.074073,-0.037011,0.000664,0.999889,-0.014482,0.000071,-0.003554,-0.597609,-0.179002,0.641596,-0.446292
56723,NaN,7.556754,-3.923901,0.287124,1.110977,-0.235791,-1.369164,-2.587382,0.063364,-0.696614,-0.919189,0.066162,-0.336182,0.075431,-0.039461,0.003357,0.999910,-0.012937,0.000317,-0.003483,-0.606714,-0.166203,0.652595,-0.422369
56724,NaN,7.743923,-4.054303,0.551192,0.974072,-0.555698,-1.126424,-2.218392,0.121948,-0.673481,-0.921631,0.072510,-0.338379,0.077306,-0.040739,0.005916,0.999933,-0.011092,0.000610,-0.003367,-0.610336,-0.161402,0.656306,-0.413160
56725,NaN,7.969365,-4.096481,0.735369,0.786022,-0.831032,-0.895076,-1.814617,0.195670,-0.642894,-0.919434,0.070312,-0.340576,0.079569,-0.041152,0.007649,0.999953,-0.009073,0.000978,-0.003214,-0.616861,-0.152443,0.663061,-0.395719
56726,NaN,8.164844,-3.994115,0.815607,0.621023,-0.831058,-0.745920,-1.408655,0.283249,-0.621948,-0.921875,0.078857,-0.348877,0.081536,-0.040137,0.008323,0.999969,-0.007043,0.001416,-0.003110,-0.620086,-0.149595,0.664480,-0.389334
56727,NaN,8.388021,-3.736795,0.846978,0.353756,-0.724833,-0.626327,-1.032290,0.368718,-0.599680,-0.919434,0.070312,-0.346680,0.083783,-0.037575,0.008509,0.999980,-0.005161,0.001844,-0.002998,-0.625221,-0.142471,0.668349,-0.376976
56728,NaN,8.457360,-3.390152,0.823506,0.162558,-0.486730,-0.678427,-0.678671,0.435567,-0.575895,-0.917236,0.066162,-0.352539,0.084493,-0.034117,0.008167,0.999988,-0.003393,0.002178,-0.002879,-0.628237,-0.141451,0.667848,-0.373213
56729,NaN,8.475672,-3.095237,0.893201,-0.059329,-0.369184,-0.753148,-0.365527,0.489758,-0.552910,-0.919434,0.070312,-0.356934,0.084692,-0.031170,0.008781,0.999992,-0.001828,0.002449,-0.002765,-0.632577,-0.137715,0.668479,-0.366082
56730,NaN,8.433137,-2.885414,0.860270,-0.106232,-0.223566,-0.861605,-0.103537,0.535025,-0.542414,-0.914795,0.055664,-0.360596,0.084275,-0.029078,0.008392,0.999993,-0.000518,0.002675,-0.002712,-0.635425,-0.138220,0.666598,-0.364386
56731,NaN,8.326609,-2.737650,0.891052,-0.160506,-0.187669,-1.005885,0.082812,0.558096,-0.533306,-0.908203,0.053467,-0.362549,0.083217,-0.027602,0.008667,0.999992,0.000414,0.002790,-0.002667,-0.639076,-0.136568,0.665735,-0.360177
56732,NaN,8.204515,-2.570407,0.856821,-0.156584,-0.082818,-1.174201,0.189213,0.568869,-0.519575,-0.910156,0.044922,-0.368652,0.082002,-0.025925,0.008310,0.999992,0.000946,0.002844,-0.002598,-0.641771,-0.137877,0.663217,-0.359532
56733,NaN,8.018657,-2.328323,0.874472,-0.238296,0.019174,-1.420600,0.204606,0.570218,-0.504496,-0.907959,0.042725,-0.376709,0.080152,-0.023494,0.008492,0.999992,0.001023,0.002851,-0.002522,-0.645108,-0.137557,0.661402,-0.357017
56734,NaN,7.778768,-2.035292,0.905313,-0.355574,0.141198,-1.730326,0.139823,0.563734,-0.470646,-0.909912,0.038574,-0.378662,0.077765,-0.020542,0.008820,0.999993,0.000699,0.002819,-0.002353,-0.647712,-0.138557,0.659006,-0.356347
56735,NaN,7.555647,-1.680164,0.911151,-0.509372,0.325193,-2.042520,-0.007114,0.549116,-0.437214,-0.899414,0.038574,-0.384766,0.075544,-0.016966,0.008905,0.999994,-0.000036,0.002746,-0.002186,-0.650989,-0.137252,0.657745,-0.353195
56736,NaN,7.322097,-1.419897,0.929001,-0.613888,0.436386,-2.334399,-0.209747,0.523237,-0.412298,-0.899170,0.036377,-0.390869,0.073216,-0.014340,0.009113,0.999994,-0.001049,0.002616,-0.002061,-0.653578,-0.137000,0.656126,-0.351520
56737,NaN,7.022302,-1.259045,1.010059,-0.706868,0.413076,-2.653935,-0.459232,0.485241,-0.398909,-0.899170,0.034424,-0.395020,0.070222,-0.012708,0.009959,0.999992,-0.002296,0.002426,-0.001995,-0.657061,-0.134059,0.655947,-0.346456
56738,NaN,6.786613,-1.179397,1.032559,-0.718164,0.390547,-2.895541,-0.739118,0.437125,-0.403967,-0.896973,0.030029,-0.396973,0.067865,-0.011893,0.010221,0.999989,-0.003696,0.002186,-0.002020,-0.659683,-0.132197,0.655514,-0.342994
56739,NaN,6.675298,-1.341590,1.066368,-0.605074,0.210948,-2.950768,-0.943184,0.384691,-0.437465,-0.896973,0.032227,-0.405029,0.066744,-0.013512,0.010599,0.999985,-0.004716,0.001923,-0.002187,-0.663358,-0.128136,0.656199,-0.336067
56740,NaN,6.759349,-1.758354,1.229408,-0.465321,-0.184048,-2.738677,-1.075674,0.348617,-0.485137,-0.899170,0.034424,-0.405273,0.067572,-0.017681,0.012271,0.999981,-0.005378,0.001743,-0.002426,-0.665994,-0.125571,0.656526,-0.331145
56741,NaN,6.962848,-2.335187,1.499874,-0.336793,-0.744961,-2.361812,-1.148133,0.327784,-0.533149,-0.892822,0.034424,-0.409180,0.069591,-0.023451,0.015019,0.999979,-0.005741,0.001639,-0.002666,-0.669739,-0.121194,0.657487,-0.323223
56742,NaN,7.172070,-2.913775,1.755854,-0.208722,-1.301191,-1.984854,-1.191761,0.318160,-0.571625,-0.888672,0.036377,-0.411377,0.071665,-0.029238,0.017619,0.999977,-0.005959,0.001591,-0.002858,-0.672415,-0.118565,0.657986,-0.317576
56743,NaN,7.409711,-3.361897,1.952915,-0.125795,-1.723667,-1.625312,-1.188478,0.315381,-0.630826,-0.895020,0.036621,-0.415527,0.074022,-0.033736,0.019613,0.999976,-0.005942,0.001577,-0.003154,-0.675836,-0.114876,0.658568,-0.310382
56744,NaN,7.743144,-3.719537,2.130760,-0.085771,-2.049820,-1.203267,-1.168739,0.306508,-0.713403,-0.891113,0.042969,-0.417480,0.077331,-0.037346,0.021407,0.999975,-0.005844,0.001533,-0.003567,-0.678607,-0.112797,0.658920,-0.304292
56745,NaN,8.318680,-3.910711,2.215750,-0.073324,-2.126998,-0.599985,-1.151543,0.284080,-0.827843,-0.888672,0.034424,-0.419434,0.083056,-0.039323,0.022265,0.999974,-0.005758,0.001420,-0.004139,-0.681636,-0.110547,0.658928,-0.298271
56746,NaN,9.077223,-4.073855,2.131914,0.064876,-2.076012,0.148377,-1.094567,0.258565,-0.967606,-0.890381,0.028076,-0.423340,0.090602,-0.041060,0.021426,0.999972,-0.005473,0.001293,-0.004838,-0.684518,-0.109615,0.659126,-0.291502
56747,NaN,9.916067,-4.218907,2.065946,0.200070,-1.998409,0.974396,-1.016421,0.211921,-1.120624,-0.886230,0.028076,-0.425537,0.098945,-0.042639,0.020770,0.999971,-0.005082,0.001060,-0.005603,-0.687316,-0.109397,0.658628,-0.286073
56748,NaN,10.835721,-4.429680,2.025793,0.357931,-2.028808,1.887444,-0.890380,0.156672,-1.282929,-0.890137,0.019531,-0.427490,0.108086,-0.044900,0.020372,0.999969,-0.004452,0.000783,-0.006415,-0.690133,-0.110334,0.658641,-0.278809
56749,NaN,11.752437,-4.588202,2.087759,0.434198,-2.063210,2.800098,-0.722544,0.077946,-1.441495,-0.883545,0.010986,-0.425293,0.117198,-0.046652,0.020999,0.999967,-0.003613,0.000390,-0.007207,-0.692428,-0.112704,0.657766,-0.274200
56750,NaN,12.511757,-4.652023,2.213678,0.417683,-2.176731,3.535331,-0.566265,-0.031635,-1.608868,-0.891602,-0.001709,-0.427002,0.124735,-0.047462,0.022290,0.999964,-0.002831,-0.000158,-0.008044,-0.694824,-0.116074,0.657721,-0.266740
56751,NaN,13.354263,-4.652948,2.403339,0.345247,-2.239380,4.351458,-0.383247,-0.168578,-1.809119,-0.895264,-0.018799,-0.420654,0.133094,-0.047688,0.024236,0.999957,-0.001916,-0.000843,-0.009045,-0.696270,-0.121567,0.656802,-0.262755
56752,NaN,14.473033,-4.682057,3.010445,-0.060232,-2.605248,5.473064,-0.169208,-0.315038,-2.017753,-0.896729,-0.039795,-0.418213,0.144201,-0.048252,0.030372,0.999948,-0.000846,-0.001575,-0.010089,-0.697953,-0.128011,0.656860,-0.254970
56753,NaN,15.460580,-4.720720,3.740607,-0.521894,-3.066031,6.485259,-0.022679,-0.464475,-2.161706,-0.900391,-0.054688,-0.413818,0.153996,-0.048870,0.037770,0.999939,-0.000113,-0.002322,-0.010808,-0.698320,-0.136825,0.655932,-0.251755
56754,NaN,15.849739,-4.677682,4.320524,-0.918892,-3.617322,6.855242,0.090774,-0.598161,-2.219170,-0.899658,-0.075928,-0.411377,0.157835,-0.048550,0.043656,0.999934,0.000454,-0.002991,-0.011096,-0.699044,-0.145164,0.656345,-0.243879
56755,NaN,15.387789,-4.585346,4.954434,-1.357992,-4.229375,6.392598,0.258076,-0.719987,-2.218077,-0.903320,-0.093018,-0.396973,0.153177,-0.047619,0.050036,0.999931,0.001290,-0.003600,-0.011090,-0.698311,-0.155858,0.655281,-0.242233
56756,NaN,14.484589,-4.563272,5.513610,-1.758445,-4.995312,5.450629,0.501419,-0.854060,-2.192512,-0.900391,-0.118652,-0.390381,0.144096,-0.047354,0.055635,0.999928,0.002507,-0.004270,-0.010962,-0.697727,-0.165814,0.655900,-0.235538
56757,NaN,14.010201,-4.678805,6.061973,-1.976739,-5.726403,4.959313,0.809024,-0.996447,-2.154600,-0.901855,-0.137695,-0.379639,0.139282,-0.048538,0.061121,0.999921,0.004045,-0.004982,-0.010773,-0.695393,-0.179143,0.654300,-0.237126
56758,NaN,13.916562,-4.841832,6.538782,-2.165047,-6.501705,4.778261,1.181862,-1.091097,-2.068200,-0.909424,-0.163086,-0.377197,0.138294,-0.050240,0.065851,0.999914,0.005909,-0.005455,-0.010341,-0.693157,-0.191295,0.654783,-0.232804
56759,NaN,13.903411,-5.009877,6.841172,-2.034476,-7.087946,4.706697,1.594062,-1.135927,-1.914547,-0.906494,-0.186523,-0.356445,0.138153,-0.051971,0.068789,0.999906,0.007970,-0.005679,-0.009572,-0.689216,-0.207440,0.651672,-0.239318
56760,NaN,13.754167,-5.050682,7.002757,-1.975308,-7.576102,4.414451,2.066217,-1.127799,-1.706715,-0.907959,-0.205811,-0.343750,0.136704,-0.052401,0.070265,0.999894,0.010331,-0.005639,-0.008533,-0.685368,-0.221448,0.651247,-0.238974
56761,NaN,13.492002,-4.995060,6.943429,-1.578680,-7.720128,4.082987,2.564893,-1.065401,-1.462019,-0.906982,-0.231201,-0.331055,0.134176,-0.051824,0.069494,0.999877,0.012824,-0.005327,-0.007310,-0.679707,-0.240035,0.645681,-0.251948
56762,NaN,13.005099,-4.743846,6.609006,-1.272273,-7.608565,3.446072,3.066148,-0.960631,-1.204304,-0.906250,-0.252441,-0.310303,0.129441,-0.049231,0.065967,0.999853,0.015330,-0.004803,-0.006021,-0.674343,-0.255517,0.643543,-0.256564
56763,NaN,12.211519,-4.177071,5.904177,-0.718487,-6.832300,2.605946,3.460690,-0.844110,-0.956772,-0.903809,-0.267334,-0.299805,0.121662,-0.043373,0.058815,0.999830,0.017302,-0.004220,-0.004784,-0.666986,-0.275820,0.634866,-0.275678
56764,NaN,11.174119,-3.361675,5.201948,-0.620490,-5.956666,1.472193,3.690086,-0.728048,-0.719217,-0.907227,-0.290771,-0.281006,0.111428,-0.034975,0.051789,0.999817,0.018449,-0.003640,-0.003596,-0.660455,-0.291360,0.631100,-0.283939
56765,NaN,10.255743,-2.534069,4.740848,-0.596416,-5.093121,0.568897,3.725107,-0.601127,-0.490557,-0.904541,-0.305664,-0.262207,0.102351,-0.026473,0.047230,0.999819,0.018624,-0.003005,-0.002453,-0.652080,-0.310749,0.620199,-0.305909
56766,NaN,9.376433,-1.702002,4.322212,-0.857071,-4.368549,-0.343033,3.523512,-0.491333,-0.264871,-0.908203,-0.318604,-0.241699,0.093635,-0.017905,0.043142,0.999841,0.017617,-0.002457,-0.001324,-0.645384,-0.323759,0.615901,-0.315160
56767,NaN,8.628726,-0.833685,3.955950,-1.138394,-3.577404,-1.054584,3.080463,-0.403701,-0.042412,-0.906006,-0.324951,-0.235352,0.086205,-0.008965,0.039599,0.999879,0.015402,-0.002018,-0.000212,-0.637157,-0.339013,0.605086,-0.336113
56768,NaN,7.968765,-0.060051,3.634626,-1.564456,-2.968869,-1.722382,2.490440,-0.323641,0.150750,-0.912109,-0.331299,-0.225098,0.079629,-0.000994,0.036464,0.999921,0.012452,-0.001618,0.000754,-0.631653,-0.347007,0.602139,-0.343553
56769,NaN,7.482236,0.497556,3.372294,-1.803827,-2.473364,-2.181680,1.855522,-0.259849,0.315328,-0.912109,-0.329102,-0.218994,0.074771,0.004780,0.033865,0.999955,0.009277,-0.001299,0.001577,-0.625045,-0.356933,0.592801,-0.361253
56770,NaN,7.118782,0.630730,3.155528,-1.820695,-2.264018,-2.560690,1.266266,-0.206812,0.437663,-0.907959,-0.329346,-0.210693,0.071141,0.006263,0.031669,0.999977,0.006331,-0.001034,0.002188,-0.621368,-0.359958,0.591928,-0.365998
56771,NaN,6.779872,0.340031,2.874731,-1.384757,-2.137295,-2.894542,0.795956,-0.164211,0.532894,-0.912354,-0.324951,-0.208740,0.067766,0.003466,0.028817,0.999988,0.003980,-0.000821,0.002664,-0.616508,-0.365400,0.584659,-0.380230
56772,NaN,6.446480,-0.261301,2.602969,-0.757027,-2.175134,-3.247898,0.479430,-0.118654,0.605564,-0.918701,-0.322754,-0.202881,0.064457,-0.002480,0.026062,0.999992,0.002397,-0.000593,0.003028,-0.614129,-0.365330,0.585215,-0.383279
56773,NaN,6.113114,-0.854875,2.406900,-0.109228,-2.204009,-3.565731,0.328274,-0.074673,0.656675,-0.921143,-0.316406,-0.204834,0.061150,-0.008388,0.024078,0.999993,0.001641,-0.000373,0.003283,-0.610112,-0.368431,0.579199,-0.395665
56774,NaN,5.703259,-1.256599,2.321963,0.255272,-2.302389,-3.970474,0.305019,-0.023247,0.710444,-0.919189,-0.310059,-0.202881,0.057074,-0.012399,0.023207,0.999993,0.001525,-0.000116,0.003552,-0.608073,-0.367347,0.579970,-0.398671
56775,NaN,5.283858,-1.509620,2.241598,0.546920,-2.276469,-4.359126,0.350659,0.016701,0.773098,-0.921387,-0.305908,-0.197021,0.052898,-0.014931,0.022385,0.999991,0.001753,0.000084,0.003865,-0.603913,-0.369818,0.574128,-0.410975
56776,NaN,4.912840,-1.578718,2.255658,0.577080,-2.322150,-4.714567,0.420713,0.053746,0.845296,-0.923828,-0.299561,-0.201172,0.049201,-0.015627,0.022510,0.999989,0.002104,0.000269,0.004226,-0.601546,-0.368546,0.574657,-0.414831
56777,NaN,4.511323,-1.644683,2.204569,0.688043,-2.252572,-5.083042,0.484437,0.078837,0.925083,-0.919678,-0.293213,-0.197266,0.045198,-0.016291,0.021988,0.999986,0.002422,0.000394,0.004625,-0.596667,-0.370708,0.569015,-0.427534
56778,NaN,4.175782,-1.665789,2.170803,0.700186,-2.234332,-5.403404,0.544584,0.101807,0.999316,-0.924316,-0.282471,-0.197266,0.041852,-0.016508,0.021642,0.999984,0.002723,0.000509,0.004997,-0.593802,-0.369265,0.569390,-0.432248
56779,NaN,3.875317,-1.674475,2.184334,0.737050,-2.204171,-5.666421,0.566960,0.116714,1.072973,-0.931152,-0.269775,-0.199707,0.038855,-0.016598,0.021773,0.999981,0.002835,0.000584,0.005365,-0.588217,-0.371166,0.563863,-0.445303
56780,NaN,3.709863,-1.674321,2.230563,0.703617,-2.239565,-5.808816,0.592410,0.135375,1.136154,-0.929199,-0.265381,-0.197754,0.037208,-0.016598,0.022231,0.999979,0.002962,0.000677,0.005681,-0.584958,-0.369395,0.564243,-0.450557
56781,NaN,3.669090,-1.706430,2.376206,0.712059,-2.320338,-5.796552,0.610537,0.149425,1.189199,-0.933838,-0.250488,-0.195801,0.036809,-0.016918,0.023683,0.999977,0.003053,0.000747,0.005946,-0.579226,-0.370522,0.559066,-0.463310
56782,NaN,3.737673,-1.857519,2.339854,0.838171,-2.294471,-5.698297,0.624347,0.155945,1.220812,-0.933838,-0.248535,-0.196045,0.037508,-0.018419,0.023312,0.999976,0.003122,0.000780,0.006104,-0.575663,-0.368546,0.559416,-0.468870
56783,NaN,3.956417,-2.079889,2.465076,1.017200,-2.368556,-5.406916,0.637157,0.175097,1.238116,-0.936523,-0.231445,-0.196289,0.039714,-0.020632,0.024550,0.999975,0.003186,0.000875,0.006191,-0.569456,-0.369478,0.554421,-0.481480
56784,NaN,4.189928,-2.328087,2.542810,1.185170,-2.441457,-5.114201,0.625316,0.200948,1.253800,-0.938965,-0.225098,-0.196289,0.042070,-0.023097,0.025313,0.999975,0.003127,0.001005,0.006269,-0.565826,-0.367288,0.554645,-0.487144
56785,NaN,4.396984,-2.497465,2.639973,1.315207,-2.452425,-4.833149,0.612985,0.238525,1.246892,-0.945801,-0.212402,-0.196533,0.044156,-0.024780,0.026271,0.999975,0.003065,0.001193,0.006234,-0.559605,-0.367804,0.549702,-0.499390
56786,NaN,4.645374,-2.671024,2.680292,1.412370,-2.450812,-4.530999,0.663617,0.274674,1.221744,-0.937744,-0.201660,-0.196777,0.046653,-0.026514,0.026651,0.999975,0.003318,0.001373,0.006109,-0.556075,-0.365606,0.549509,-0.505126
56787,NaN,5.047802,-2.991048,2.599761,1.698470,-2.265476,-4.053534,0.736725,0.318634,1.182347,-0.939941,-0.197510,-0.194824,0.050695,-0.029707,0.025807,0.999974,0.003684,0.001593,0.005912,-0.549791,-0.366214,0.544127,-0.517246
56788,NaN,5.702130,-3.263835,2.305779,1.905005,-1.867523,-3.381021,0.780312,0.347062,1.130993,-0.948975,-0.182617,-0.203369,0.057245,-0.032404,0.022832,0.999975,0.003902,0.001735,0.005655,-0.546368,-0.364373,0.543212,-0.523102
56789,NaN,6.786027,-3.538385,2.040793,2.056606,-1.324809,-2.279445,0.849048,0.381327,1.068567,-0.944824,-0.176270,-0.205322,0.068087,-0.035106,0.020129,0.999975,0.004245,0.001907,0.005343,-0.539920,-0.365490,0.537187,-0.535102
56790,NaN,8.051650,-3.731862,1.874648,2.032925,-0.884305,-1.017545,0.863858,0.395476,0.995167,-0.945068,-0.169922,-0.205566,0.080738,-0.036997,0.018427,0.999976,0.004319,0.001977,0.004976,-0.536728,-0.364080,0.535614,-0.540820
56791,NaN,9.482972,-3.736002,1.791145,1.771567,-0.359523,0.376717,0.865962,0.416008,0.921114,-0.949463,-0.163330,-0.207764,0.095037,-0.036999,0.017553,0.999978,0.004330,0.002080,0.004606,-0.530711,-0.365278,0.529403,-0.551951
56792,NaN,10.973849,-3.763510,1.806080,1.474151,0.012466,1.835350,0.862367,0.463411,0.870711,-0.949707,-0.159180,-0.211914,0.109942,-0.037233,0.017645,0.999979,0.004312,0.002317,0.004354,-0.527949,-0.363973,0.527372,-0.557380
56793,NaN,12.334473,-3.881583,2.011287,1.231487,0.268829,3.212699,0.710822,0.533974,0.894719,-0.950195,-0.142090,-0.218262,0.123570,-0.038334,0.019646,0.999980,0.003554,0.002670,0.004474,-0.522523,-0.364242,0.521598,-0.567656
56794,NaN,13.385288,-4.102377,2.124447,1.134141,0.479770,4.293694,0.489375,0.638826,0.941982,-0.946045,-0.140137,-0.222412,0.134111,-0.040444,0.020717,0.999981,0.002447,0.003194,0.004710,-0.520614,-0.361242,0.520245,-0.572547
56795,NaN,14.272715,-4.432926,1.886815,1.181169,1.094965,5.164774,0.376385,0.726690,0.948974,-0.946289,-0.133545,-0.232666,0.143003,-0.043686,0.018266,0.999980,0.001882,0.003633,0.004745,-0.516885,-0.359016,0.515803,-0.581278
56796,NaN,15.071857,-4.776674,1.458909,1.273063,1.816707,5.909319,0.347202,0.774956,0.937304,-0.946533,-0.127197,-0.234863,0.150995,-0.047084,0.013922,0.999980,0.001736,0.003875,0.004686,-0.515526,-0.355235,0.514463,-0.585977
56797,NaN,15.763157,-5.064246,1.173996,1.274963,2.480416,6.549465,0.387529,0.847175,0.940190,-0.938477,-0.118896,-0.241211,0.157915,-0.049922,0.010974,0.999978,0.001938,0.004236,0.004701,-0.511779,-0.352955,0.509794,-0.594655
56798,NaN,16.430257,-5.240209,0.891547,1.182355,3.091315,7.135735,0.456261,0.914490,0.958893,-0.938721,-0.105957,-0.255615,0.164589,-0.051632,0.008045,0.999975,0.002281,0.004572,0.004794,-0.510442,-0.348948,0.507776,-0.599873
56799,NaN,17.274055,-5.189145,0.650905,0.781324,3.802043,7.813208,0.500999,0.966618,0.980392,-0.934570,-0.104004,-0.257812,0.173021,-0.051058,0.005545,0.999973,0.002505,0.004833,0.004902,-0.507830,-0.345328,0.503653,-0.607611
56800,NaN,18.223388,-4.976516,0.429605,0.201010,4.490058,8.540361,0.508898,1.028823,1.001248,-0.932861,-0.095459,-0.270264,0.182498,-0.048861,0.003233,0.999971,0.002544,0.005144,0.005006,-0.506485,-0.340961,0.501208,-0.613196
56801,NaN,18.773937,-4.653532,0.291220,-0.442510,5.050788,8.855117,0.476013,1.105185,1.029186,-0.931396,-0.078369,-0.276611,0.187987,-0.045573,0.001765,0.999969,0.002380,0.005526,0.005146,-0.504007,-0.336754,0.497261,-0.620730
56802,NaN,18.654121,-4.257891,0.047156,-0.951590,5.486929,8.492726,0.387189,1.165215,1.065526,-0.925293,-0.069824,-0.289062,0.186763,-0.041584,-0.000697,0.999967,0.001936,0.005826,0.005328,-0.502929,-0.331451,0.494900,-0.626320
56803,NaN,18.121288,-3.857328,-0.065146,-1.381490,5.684922,7.766554,0.251542,1.194210,1.100569,-0.921387,-0.061279,-0.297363,0.181413,-0.037574,-0.001782,0.999966,0.001258,0.005971,0.005503,-0.501689,-0.325364,0.492461,-0.632399
56804,NaN,17.208321,-3.445533,-0.159880,-1.690819,5.699753,6.700050,0.040595,1.200378,1.159295,-0.917236,-0.057129,-0.309570,0.172265,-0.033457,-0.002639,0.999965,0.000203,0.006002,0.005796,-0.500896,-0.318802,0.491189,-0.637340
56805,NaN,16.005228,-3.037579,-0.047838,-1.924908,5.396218,5.437422,-0.215589,1.192171,1.242576,-0.917725,-0.042236,-0.318115,0.160230,-0.029382,-0.001401,0.999962,-0.001078,0.005961,0.006213,-0.500035,-0.311295,0.490734,-0.642060
56806,NaN,14.668149,-2.641581,0.105419,-2.088653,4.965063,4.084213,-0.516736,1.174244,1.348216,-0.909668,-0.031738,-0.326416,0.146858,-0.025425,0.000259,0.999957,-0.002584,0.005871,0.006741,-0.499371,-0.302909,0.491533,-0.645964
56807,NaN,13.242329,-2.323554,0.354744,-2.150108,4.369509,2.723806,-0.861981,1.126674,1.472148,-0.906006,-0.012451,-0.336914,0.132607,-0.022246,0.002898,0.999948,-0.004310,0.005633,0.007361,-0.498346,-0.293673,0.493747,-0.649324
56808,NaN,11.813229,-2.031347,0.434007,-2.144283,3.897986,1.326016,-1.222015,1.055803,1.611854,-0.900146,0.004395,-0.347412,0.118312,-0.019336,0.003836,0.999935,-0.006110,0.005279,0.008059,-0.497482,-0.283200,0.497417,-0.651833
56809,NaN,10.408857,-1.865213,0.692158,-2.026568,3.228529,0.075101,-1.536712,0.973611,1.750576,-0.896973,0.034180,-0.352051,0.104279,-0.017689,0.006553,0.999920,-0.007683,0.004868,0.008753,-0.496624,-0.271714,0.502848,-0.653208
56810,NaN,9.073099,-1.776629,0.837158,-1.829401,2.663130,-1.110031,-1.792399,0.876184,1.871317,-0.891357,0.057617,-0.366699,0.090927,-0.016843,0.008127,0.999906,-0.008962,0.004381,0.009356,-0.495104,-0.259669,0.509020,-0.654479
56811,NaN,7.830035,-1.837166,0.946411,-1.493201,2.130969,-2.144119,-2.008782,0.756996,1.968510,-0.887939,0.081055,-0.364990,0.078511,-0.017505,0.009346,0.999894,-0.010044,0.003785,0.009842,-0.493895,-0.246788,0.516845,-0.654244
56812,NaN,6.787015,-1.990078,1.049394,-1.133061,1.656718,-2.950154,-2.151404,0.637325,2.017460,-0.880371,0.108398,-0.367432,0.068099,-0.019102,0.010486,0.999886,-0.010757,0.003187,0.010087,-0.491541,-0.234147,0.524738,-0.654380
56813,NaN,5.891946,-2.147748,1.056332,-0.783010,1.299744,-3.636984,-2.234844,0.526598,2.032782,-0.876953,0.131836,-0.372070,0.059161,-0.020758,0.010642,0.999882,-0.011174,0.002633,0.010164,-0.489154,-0.221603,0.533521,-0.653434
56814,NaN,5.095679,-2.277971,1.092415,-0.485138,0.944757,-4.225298,-2.271097,0.424431,1.997399,-0.875977,0.163818,-0.374512,0.051203,-0.022144,0.011070,0.999883,-0.011355,0.002122,0.009987,-0.486221,-0.209305,0.542053,-0.652656
56815,NaN,4.384135,-2.343646,0.997421,-0.219345,0.728268,-4.799864,-2.248542,0.334877,1.935134,-0.868164,0.184814,-0.370850,0.044082,-0.022897,0.010160,0.999889,-0.011242,0.001674,0.009675,-0.484037,-0.197025,0.551141,-0.650487
56816,NaN,3.795997,-2.416086,0.895943,0.020830,0.563238,-5.259544,-2.138805,0.260136,1.853802,-0.860840,0.212402,-0.371338,0.038193,-0.023710,0.009165,0.999899,-0.010694,0.001301,0.009269,-0.480784,-0.185872,0.559237,-0.649271
56817,NaN,3.292416,-2.439437,0.766955,0.215796,0.451767,-5.674129,-1.940636,0.206995,1.759413,-0.865723,0.233643,-0.367676,0.033145,-0.024028,0.007870,0.999914,-0.009703,0.001035,0.008797,-0.478468,-0.175002,0.567219,-0.647074
56818,NaN,2.857033,-2.509002,0.751272,0.399097,0.265830,-5.966700,-1.693922,0.183204,1.670415,-0.859863,0.250732,-0.361816,0.028785,-0.024786,0.007697,0.999929,-0.008469,0.000916,0.008352,-0.475032,-0.165605,0.573682,-0.646382
56819,NaN,2.607625,-2.667836,0.722938,0.582157,0.156463,-6.060909,-1.425938,0.176659,1.583971,-0.858643,0.274170,-0.364258,0.026293,-0.026418,0.007395,0.999943,-0.007130,0.000883,0.007920,-0.471744,-0.157260,0.579488,-0.645693
56820,NaN,2.487201,-2.757793,0.718954,0.644797,0.095187,-6.086661,-1.161674,0.203600,1.505735,-0.844238,0.291016,-0.358154,0.025086,-0.027347,0.007323,0.999954,-0.005808,0.001018,0.007529,-0.468366,-0.149490,0.583915,-0.646011
56821,NaN,2.485064,-2.847692,0.627905,0.685063,0.162301,-6.046631,-0.924700,0.249972,1.412813,-0.840576,0.303711,-0.356445,0.025059,-0.028271,0.006379,0.999964,-0.004623,0.001250,0.007064,-0.465740,-0.142164,0.587762,-0.646074
56822,NaN,2.537321,-2.918991,0.591123,0.667855,0.216727,-5.963705,-0.726295,0.306146,1.319230,-0.841064,0.316406,-0.356689,0.025574,-0.029000,0.005978,0.999970,-0.003631,0.001531,0.006596,-0.462881,-0.135600,0.590314,-0.647211
56823,NaN,2.636482,-2.956031,0.538958,0.610710,0.310977,-5.874447,-0.545034,0.361589,1.207237,-0.824463,0.329102,-0.363037,0.026552,-0.029386,0.005422,0.999976,-0.002725,0.001808,0.006036,-0.460377,-0.129861,0.592331,-0.648331
56824,NaN,2.922303,-3.003202,0.589531,0.425678,0.404500,-5.622030,-0.375930,0.409193,1.072716,-0.822754,0.339600,-0.359131,0.029396,-0.029864,0.005892,0.999982,-0.001880,0.002046,0.005364,-0.458348,-0.124488,0.593293,-0.649942
56825,NaN,3.241008,-3.081594,0.475443,0.314433,0.655661,-5.374503,-0.248720,0.454589,0.923853,-0.822998,0.348145,-0.365234,0.032563,-0.030660,0.004719,0.999986,-0.001244,0.002273,0.004619,-0.457807,-0.119009,0.594091,-0.650619
56826,NaN,3.558422,-3.205414,0.458856,0.203476,0.824723,-5.077089,-0.129455,0.496870,0.752565,-0.814697,0.354492,-0.367432,0.035716,-0.031917,0.004521,0.999990,-0.000647,0.002484,0.003763,-0.456908,-0.114857,0.593815,-0.652247
56827,NaN,3.869580,-3.348854,0.538903,0.080832,0.904165,-4.747639,-0.006120,0.540747,0.571532,-0.814697,0.350342,-0.373535,0.038806,-0.033378,0.005285,0.999992,-0.000031,0.002704,0.002858,-0.457113,-0.111156,0.593298,-0.653215
56828,NaN,4.211471,-3.528572,0.716079,-0.063712,0.918822,-4.349019,0.107715,0.579499,0.367227,-0.810547,0.358887,-0.375732,0.042200,-0.035212,0.007020,0.999994,0.000539,0.002897,0.001836,-0.457570,-0.108418,0.591821,-0.654693
56829,NaN,4.462201,-3.671577,0.782464,-0.126815,0.991483,-4.067713,0.213373,0.602991,0.138861,-0.802246,0.358887,-0.383789,0.044671,-0.036693,0.007651,0.999995,0.001067,0.003015,0.000694,-0.458992,-0.106547,0.590143,-0.655519
56830,NaN,4.786918,-3.800472,0.752355,-0.187461,1.192973,-3.774002,0.349060,0.611088,-0.113622,-0.808350,0.356689,-0.387939,0.047870,-0.038045,0.007311,0.999994,0.001745,0.003055,-0.000568,-0.460979,-0.105678,0.587531,-0.656610
56831,NaN,5.220287,-3.966752,0.856263,-0.310819,1.322957,-3.341784,0.512771,0.606326,-0.404972,-0.806152,0.350342,-0.397949,0.052148,-0.039795,0.008303,0.999990,0.002564,0.003032,-0.002025,-0.464325,-0.105805,0.584622,-0.656829
56832,NaN,5.826517,-4.011524,0.998194,-0.607526,1.525566,-2.859987,0.649374,0.578777,-0.721307,-0.805664,0.339844,-0.404053,0.058148,-0.040357,0.009683,0.999984,0.003247,0.002894,-0.003607,-0.468035,-0.107516,0.580754,-0.657350
56833,NaN,6.585712,-4.012390,1.357137,-1.068363,1.615298,-2.225782,0.742343,0.546050,-1.041734,-0.801270,0.329102,-0.405762,0.065683,-0.040516,0.013242,0.999976,0.003712,0.002730,-0.005209,-0.473300,-0.110136,0.576884,-0.656553
56834,NaN,7.334414,-3.845139,1.782171,-1.640471,1.664845,-1.670795,0.747987,0.507385,-1.362350,-0.802734,0.314209,-0.417725,0.073124,-0.039016,0.017491,0.999967,0.003740,0.002537,-0.006812,-0.478808,-0.114165,0.572457,-0.655745
56835,NaN,8.057600,-3.751370,2.029902,-2.025492,1.834977,-1.115220,0.705632,0.471826,-1.701596,-0.810547,0.293213,-0.425537,0.080300,-0.038269,0.019975,0.999955,0.003528,0.002359,-0.008508,-0.486142,-0.118729,0.568481,-0.652992
56836,NaN,8.928055,-4.276026,2.282100,-1.961271,1.994453,-0.046733,0.747715,0.413701,-2.052806,-0.810059,0.278320,-0.431396,0.088882,-0.043758,0.022475,0.999938,0.003738,0.002068,-0.010264,-0.493547,-0.125021,0.563779,-0.650334
56837,NaN,10.212755,-5.289996,3.068165,-1.825050,1.819709,1.808338,0.826189,0.315614,-2.391394,-0.819824,0.254883,-0.433105,0.101532,-0.054242,0.030299,0.999919,0.004131,0.001578,-0.011957,-0.503087,-0.131887,0.559351,-0.645473
56838,NaN,11.867275,-6.321369,3.872603,-1.735020,1.774422,3.957453,0.790359,0.141792,-2.751454,-0.829590,0.227295,-0.436768,0.117814,-0.064991,0.038388,0.999897,0.003952,0.000709,-0.013757,-0.511791,-0.141097,0.554571,-0.640790
56839,NaN,13.741698,-6.838118,4.502209,-1.932212,1.971131,5.942420,0.624736,-0.116673,-3.148901,-0.834961,0.197754,-0.432373,0.136290,-0.070673,0.044883,0.999871,0.003124,-0.000583,-0.015744,-0.521645,-0.151686,0.550999,-0.633466
56840,NaN,15.449166,-6.707948,4.857926,-2.357082,2.331132,7.399258,0.381832,-0.388349,-3.507488,-0.840088,0.161621,-0.429688,0.153188,-0.069867,0.048746,0.999843,0.001909,-0.001942,-0.017537,-0.531312,-0.163549,0.548054,-0.624976
56841,NaN,16.457132,-6.018569,4.961372,-2.783637,2.544277,8.003465,0.078617,-0.626762,-3.742941,-0.849609,0.134033,-0.425049,0.163250,-0.063269,0.050102,0.999820,0.000393,-0.003134,-0.018714,-0.541204,-0.176377,0.546591,-0.614189
56842,NaN,16.227571,-5.207978,5.111256,-2.886606,2.120227,7.614789,-0.271110,-0.809154,-3.825101,-0.858887,0.097900,-0.418457,0.161032,-0.055098,0.051839,0.999808,-0.001355,-0.004046,-0.019124,-0.550874,-0.188546,0.546135,-0.602267
56843,NaN,15.085086,-4.477603,5.341222,-2.717757,1.166663,6.538438,-0.652601,-0.979875,-3.793954,-0.868896,0.076660,-0.399658,0.149703,-0.047447,0.054299,0.999803,-0.003263,-0.004899,-0.018969,-0.560478,-0.200264,0.547443,-0.588272
56844,NaN,13.891969,-3.810274,5.521819,-2.590506,0.270564,5.392148,-0.924401,-1.096626,-3.728530,-0.867920,0.046875,-0.393066,0.137874,-0.040422,0.056159,0.999801,-0.004622,-0.005483,-0.018641,-0.569257,-0.211063,0.549392,-0.574079
56845,NaN,12.620844,-3.408491,5.238761,-2.130959,-0.297484,4.104892,-0.993682,-1.269087,-3.603241,-0.881836,0.023682,-0.376221,0.125234,-0.036084,0.053360,0.999805,-0.004968,-0.006345,-0.018015,-0.576610,-0.222757,0.551937,-0.559702
56846,NaN,12.237980,-3.133940,6.485232,-2.467894,-1.816410,4.052447,-1.146225,-1.347592,-3.394619,-0.885254,-0.003906,-0.367676,0.121387,-0.033030,0.065859,0.999817,-0.005731,-0.006738,-0.016972,-0.583562,-0.232550,0.555147,-0.545150
56847,NaN,11.496323,-2.447878,7.623367,-3.141528,-3.240619,3.449755,-1.659532,-1.339606,-3.076533,-0.884521,-0.023193,-0.361084,0.114060,-0.025600,0.077209,0.999825,-0.008297,-0.006698,-0.015382,-0.589504,-0.241046,0.559701,-0.530204
56848,NaN,10.641480,-1.939347,7.513633,-3.272212,-3.565040,2.436142,-2.111145,-1.294662,-2.781657,-0.894531,-0.038086,-0.346680,0.105649,-0.020067,0.076031,0.999827,-0.010555,-0.006473,-0.013907,-0.595698,-0.245997,0.565664,-0.514446
56849,NaN,9.940567,-2.757053,7.177237,-2.223422,-4.042851,1.876429,-2.148628,-1.161547,-2.509751,-0.894287,-0.048584,-0.342285,0.098636,-0.028034,0.072646,0.999847,-0.010743,-0.005807,-0.012548,-0.601923,-0.249700,0.571571,-0.498643
56850,NaN,9.582645,-4.417569,6.825958,-0.516007,-4.713931,1.825304,-1.884908,-0.951992,-2.260581,-0.899902,-0.065674,-0.338135,0.094996,-0.044604,0.069132,0.999880,-0.009424,-0.004760,-0.011302,-0.607120,-0.252831,0.576245,-0.485206
56851,NaN,8.893304,-6.111225,5.169785,1.867232,-4.405151,1.153950,-1.064435,-0.786022,-2.163812,-0.901855,-0.076172,-0.329590,0.088062,-0.061791,0.052373,0.999920,-0.005322,-0.003930,-0.010819,-0.612457,-0.257035,0.578707,-0.473211
56852,NaN,8.493919,-8.012337,3.361300,4.559854,-3.943719,0.736756,0.558139,-0.694492,-2.154314,-0.900879,-0.099609,-0.323242,0.083952,-0.081125,0.033680,0.999932,0.002791,-0.003472,-0.010771,-0.614786,-0.266602,0.576704,-0.467305
56853,NaN,8.228918,-9.372428,2.489280,6.429277,-3.927849,0.433295,2.346095,-0.652495,-2.055451,-0.897705,-0.131592,-0.310303,0.081239,-0.094848,0.024051,0.999873,0.011730,-0.003262,-0.010277,-0.615301,-0.280698,0.570606,-0.465857
56854,NaN,7.850054,-9.315048,2.125827,6.892396,-3.617869,-0.205204,3.803929,-0.666907,-1.852144,-0.896729,-0.163330,-0.303711,0.077564,-0.094257,0.019732,0.999771,0.019018,-0.003334,-0.009260,-0.612233,-0.299172,0.561067,-0.469969
56855,NaN,7.636726,-8.054939,1.843035,6.219411,-2.773073,-0.856541,4.840223,-0.705572,-1.602608,-0.897949,-0.188965,-0.284668,0.075655,-0.081576,0.016732,0.999669,0.024198,-0.003527,-0.008012,-0.606613,-0.320253,0.549076,-0.477466
56856,NaN,7.493386,-6.567787,1.819556,5.165953,-2.085624,-1.354044,5.449351,-0.720681,-1.346356,-0.896973,-0.218750,-0.267822,0.074425,-0.066648,0.016657,0.999600,0.027243,-0.003603,-0.006731,-0.598882,-0.342066,0.535878,-0.486997
56857,NaN,7.394918,-5.589407,1.839341,4.514116,-1.642794,-1.674859,5.697007,-0.715468,-1.085260,-0.895996,-0.242188,-0.253174,0.073580,-0.056792,0.017048,0.999573,0.028481,-0.003577,-0.005426,-0.589305,-0.364012,0.521732,-0.498006
56858,NaN,7.259371,-5.041134,1.749690,4.243947,-1.272386,-1.968200,5.681069,-0.720305,-0.810965,-0.895264,-0.267578,-0.228271,0.072327,-0.051180,0.016311,0.999582,0.028401,-0.003601,-0.004054,-0.578861,-0.384505,0.508015,-0.508916
56859,NaN,7.157637,-4.491752,1.566238,3.927591,-0.841655,-2.215204,5.529918,-0.738415,-0.530632,-0.900879,-0.284668,-0.203369,0.071401,-0.045522,0.014673,0.999607,0.027646,-0.003692,-0.002653,-0.567547,-0.403488,0.494846,-0.519823
56860,NaN,6.998028,-3.697019,1.376963,3.304580,-0.436573,-2.503576,5.301165,-0.744806,-0.241988,-0.898438,-0.299561,-0.180664,0.069886,-0.037407,0.013042,0.999641,0.026503,-0.003724,-0.001210,-0.555436,-0.420918,0.482516,-0.530563
56861,NaN,6.674834,-2.789743,1.312332,2.504327,-0.241946,-2.904211,5.044903,-0.736806,0.024767,-0.895996,-0.306152,-0.157959,0.066705,-0.028212,0.012660,0.999675,0.025222,-0.003684,0.000124,-0.541846,-0.437422,0.470332,-0.542082
56862,NaN,6.367812,-2.028327,1.292186,1.812424,-0.186048,-3.254259,4.812829,-0.718303,0.240990,-0.901855,-0.316650,-0.141357,0.063657,-0.020513,0.012659,0.999703,0.024062,-0.003591,0.001205,-0.528818,-0.451710,0.459621,-0.552321
56863,NaN,6.241463,-1.428820,1.379359,1.259876,-0.264181,-3.390634,4.605262,-0.689934,0.409788,-0.904053,-0.318848,-0.118896,0.062397,-0.014476,0.013677,0.999727,0.023024,-0.003449,0.002049,-0.515042,-0.465025,0.449124,-0.562823
56864,NaN,6.174734,-0.983803,1.541239,0.863743,-0.449147,-3.446940,4.416503,-0.646756,0.549850,-0.906006,-0.321045,-0.098389,0.061725,-0.010008,0.015392,0.999747,0.022081,-0.003234,0.002749,-0.501645,-0.476865,0.439526,-0.572511
56865,NaN,6.254215,-0.603656,1.754145,0.538558,-0.687309,-3.347853,4.211862,-0.597396,0.662270,-0.907959,-0.323242,-0.080078,0.062510,-0.006200,0.017599,0.999768,0.021058,-0.002987,0.003311,-0.487901,-0.487754,0.430129,-0.582270
56866,NaN,6.394922,-0.296429,1.965795,0.293709,-0.933137,-3.187725,4.012296,-0.526503,0.756748,-0.910400,-0.319092,-0.061768,0.063909,-0.003118,0.019765,0.999788,0.020060,-0.002632,0.003783,-0.474678,-0.497343,0.421486,-0.591338
56867,NaN,6.609666,-0.142649,2.228952,0.215004,-1.203347,-2.943782,3.798415,-0.427717,0.834082,-0.914551,-0.316895,-0.043457,0.066055,-0.001576,0.022402,0.999809,0.018991,-0.002138,0.004170,-0.461627,-0.505829,0.413061,-0.600348
56868,NaN,6.803022,0.002048,2.505310,0.157921,-1.492853,-2.720153,3.540537,-0.321451,0.904339,-0.916748,-0.316895,-0.027100,0.067990,-0.000117,0.025161,0.999832,0.017702,-0.001607,0.004521,-0.449218,-0.513013,0.405392,-0.608834
56869,NaN,6.886492,0.248395,2.688844,-0.004358,-1.737879,-2.622762,3.225552,-0.213058,0.972439,-0.921387,-0.306396,-0.017090,0.068824,0.002384,0.027001,0.999858,0.016127,-0.001065,0.004862,-0.437024,-0.519211,0.397949,-0.617306
56870,NaN,6.922107,0.539395,2.780630,-0.236733,-1.926277,-2.589684,2.831208,-0.112045,1.016410,-0.923584,-0.300049,-0.009033,0.069178,0.005351,0.027921,0.999887,0.014156,-0.000560,0.005082,-0.426265,-0.523662,0.392048,-0.624800
56871,NaN,7.150087,0.796209,2.866035,-0.459559,-2.081857,-2.367791,2.401006,-0.024371,1.025261,-0.928223,-0.291504,0.005127,0.071456,0.007984,0.028765,0.999915,0.012005,-0.000122,0.005126,-0.416637,-0.526901,0.386962,-0.631703
56872,NaN,7.618657,0.850390,2.879851,-0.555878,-2.078842,-1.911421,1.923679,0.053034,0.982372,-0.928223,-0.287354,0.009277,0.076152,0.008601,0.028861,0.999942,0.009618,0.000265,0.004912,-0.408546,-0.528810,0.383340,-0.637574
56873,NaN,8.325943,0.749322,2.957859,-0.522596,-2.046396,-1.200441,1.418235,0.131923,0.901811,-0.928467,-0.278809,0.007080,0.083245,0.007659,0.029578,0.999964,0.007091,0.000660,0.004509,-0.401496,-0.530105,0.380085,-0.642903
56874,NaN,9.338867,0.559831,3.088833,-0.455404,-1.985485,-0.173237,0.925201,0.228526,0.792979,-0.937256,-0.270264,0.010986,0.093401,0.005826,0.030808,0.999981,0.004626,0.001143,0.003965,-0.396923,-0.529712,0.378745,-0.646846
56875,NaN,10.739118,0.299268,3.500849,-0.285376,-2.088794,1.288179,0.432074,0.376205,0.675981,-0.937500,-0.263916,0.010742,0.107446,0.003280,0.034813,0.999990,0.002160,0.001881,0.003380,-0.394420,-0.528151,0.378072,-0.650039
56876,NaN,12.144745,0.098815,3.814608,-0.248981,-2.109393,2.738941,-0.137266,0.569016,0.587205,-0.943848,-0.263916,0.008789,0.121552,0.001371,0.037800,0.999991,-0.000686,0.002845,0.002936,-0.393948,-0.524918,0.378941,-0.652434
56877,NaN,13.134536,-0.027475,3.719739,-0.412535,-1.807873,3.711844,-0.772822,0.776660,0.523669,-0.944336,-0.253174,-0.005615,0.131488,0.000212,0.036687,0.999982,-0.003864,0.003883,0.002618,-0.394947,-0.520481,0.380332,-0.654572
56878,NaN,13.775692,-0.289010,3.475071,-0.504066,-1.336174,4.325466,-1.383922,0.962618,0.453380,-0.946533,-0.246826,-0.011963,0.137928,-0.002340,0.034105,0.999962,-0.006920,0.004813,0.002267,-0.398882,-0.513717,0.384123,-0.655314
56879,NaN,14.342756,-0.741631,3.065036,-0.480859,-0.621621,4.851505,-1.937645,1.127093,0.363909,-0.948975,-0.238281,-0.038818,0.143610,-0.006863,0.029910,0.999936,-0.009688,0.005635,0.001820,-0.403763,-0.506066,0.388071,-0.655953
56880,NaN,15.015275,-1.352854,2.460853,-0.395577,0.357669,5.453519,-2.464722,1.269677,0.282758,-0.947021,-0.236084,-0.055176,0.150324,-0.013019,0.023817,0.999903,-0.012323,0.006348,0.001414,-0.411498,-0.496330,0.394266,-0.654889
56881,NaN,15.849883,-1.853151,1.714786,-0.464763,1.478698,6.161913,-2.958622,1.408300,0.226182,-0.945068,-0.227539,-0.075684,0.158636,-0.018107,0.016301,0.999865,-0.014792,0.007041,0.001131,-0.420742,-0.485022,0.401251,-0.653243
56882,NaN,16.672865,-2.003378,0.921441,-0.829970,2.544087,6.791001,-3.422617,1.532335,0.195296,-0.945312,-0.221191,-0.100342,0.166814,-0.019724,0.008276,0.999824,-0.017112,0.007661,0.000976,-0.431406,-0.472343,0.409606,-0.650388
56883,NaN,17.479876,-1.819487,0.139030,-1.466410,3.551836,7.336831,-3.831935,1.639678,0.187479,-0.945801,-0.212646,-0.127197,0.174821,-0.018018,0.000303,0.999782,-0.019158,0.008198,0.000937,-0.442924,-0.458184,0.418612,-0.647031
56884,NaN,17.969922,-1.583979,-0.511099,-2.004455,4.411170,7.571417,-4.226934,1.725096,0.207410,-0.937500,-0.204102,-0.151855,0.179665,-0.015779,-0.006327,0.999739,-0.021133,0.008625,0.001037,-0.455432,-0.442691,0.428829,-0.642426
56885,NaN,17.835913,-1.403969,-1.132453,-2.312357,5.181143,7.192510,-4.625095,1.786032,0.282117,-0.937988,-0.188965,-0.182617,0.178270,-0.014070,-0.012592,0.999692,-0.023123,0.008929,0.001410,-0.468818,-0.425202,0.440286,-0.636837
56886,NaN,17.169252,-1.339637,-1.580580,-2.321053,5.686739,6.353474,-4.959006,1.805265,0.386613,-0.936523,-0.171875,-0.207520,0.171569,-0.013477,-0.017021,0.999650,-0.024792,0.009025,0.001933,-0.481940,-0.406833,0.452509,-0.630441
56887,NaN,16.262117,-1.439471,-1.855590,-2.052073,5.972316,5.355976,-5.223334,1.765130,0.501210,-0.924316,-0.155029,-0.232178,0.162487,-0.014490,-0.019613,0.999617,-0.026113,0.008825,0.002506,-0.495514,-0.386546,0.466081,-0.622749
56888,NaN,15.376225,-1.540370,-1.898599,-1.756961,5.974392,4.456961,-5.410542,1.673181,0.632578,-0.923096,-0.129395,-0.253174,0.153647,-0.015447,-0.019854,0.999594,-0.027049,0.008365,0.003162,-0.507699,-0.366304,0.479812,-0.614689
56889,NaN,14.382486,-1.674259,-1.726836,-1.410497,5.686719,3.540638,-5.538568,1.547923,0.771726,-0.923828,-0.108154,-0.271973,0.143752,-0.016678,-0.017919,0.999579,-0.027689,0.007739,0.003858,-0.519437,-0.344780,0.494596,-0.605547
56890,NaN,13.203670,-1.766397,-1.552475,-1.087345,5.277882,2.468526,-5.627048,1.383694,0.918483,-0.922852,-0.076172,-0.294922,0.132008,-0.017502,-0.015944,0.999570,-0.028131,0.006917,0.004592,-0.529556,-0.323559,0.509406,-0.596143
56891,NaN,12.007208,-1.921304,-1.283114,-0.744646,4.706357,1.448139,-5.631830,1.186263,1.046023,-0.917236,-0.052979,-0.307617,0.120095,-0.018950,-0.013007,0.999572,-0.028155,0.005930,0.005229,-0.538281,-0.301951,0.524903,-0.586136
56892,NaN,10.780608,-2.067809,-0.907526,-0.452554,3.971817,0.450857,-5.523984,0.967402,1.134860,-0.909912,-0.019043,-0.310303,0.107878,-0.020316,-0.009032,0.999591,-0.027616,0.004836,0.005674,-0.545614,-0.281148,0.539984,-0.575915
56893,NaN,9.634577,-2.340767,-0.522624,-0.112856,3.182186,-0.408566,-5.244730,0.761157,1.171285,-0.911133,0.010742,-0.325195,0.096462,-0.022976,-0.004987,0.999632,-0.026220,0.003805,0.005856,-0.551136,-0.261272,0.554813,-0.565834
56894,NaN,8.693047,-2.683256,0.011520,0.159728,2.272764,-1.004927,-4.837383,0.567120,1.149888,-0.911865,0.034180,-0.329590,0.087084,-0.026323,0.000509,0.999687,-0.024184,0.002835,0.005749,-0.555603,-0.243065,0.568263,-0.556149
56895,NaN,7.875520,-3.116068,0.516806,0.440941,1.375285,-1.451288,-4.341716,0.410913,1.080201,-0.908447,0.059570,-0.325928,0.078933,-0.030615,0.005675,0.999748,-0.021707,0.002054,0.005401,-0.559188,-0.225968,0.580971,-0.546552
56896,NaN,7.121326,-3.528480,0.929920,0.694349,0.570140,-1.861654,-3.782925,0.283782,0.973151,-0.902832,0.083008,-0.332520,0.071397,-0.034755,0.009859,0.999808,-0.018913,0.001419,0.004865,-0.561520,-0.211743,0.591502,-0.538502
56897,NaN,6.419540,-3.914842,1.251740,0.930516,-0.146147,-2.248681,-3.174196,0.179129,0.861537,-0.907715,0.100098,-0.324463,0.064374,-0.038667,0.013076,0.999864,-0.015870,0.000896,0.004307,-0.563195,-0.199239,0.600867,-0.531107
56898,NaN,5.716543,-4.155661,1.503000,1.083779,-0.749502,-2.708492,-2.532855,0.087358,0.742922,-0.904053,0.114990,-0.324707,0.057325,-0.041149,0.015528,0.999913,-0.012664,0.000437,0.003715,-0.563958,-0.189621,0.608035,-0.525632
56899,NaN,5.154372,-4.322391,1.538193,1.254016,-1.089937,-3.115281,-1.841534,0.023260,0.628396,-0.908447,0.125488,-0.318848,0.051681,-0.042918,0.015772,0.999953,-0.009208,0.000116,0.003142,-0.564136,-0.182236,0.613733,-0.521414
56900,NaN,4.622350,-4.369642,1.567114,1.354883,-1.352100,-3.547589,-1.121337,-0.016057,0.515365,-0.904541,0.131836,-0.322998,0.046334,-0.043488,0.015919,0.999981,-0.005607,-0.000080,0.002577,-0.563754,-0.177526,0.617160,-0.519404
56901,NaN,4.241940,-4.382804,1.412400,1.507824,-1.379790,-3.894880,-0.394197,-0.030077,0.409225,-0.902588,0.135986,-0.319092,0.042507,-0.043713,0.014217,0.999996,-0.001971,-0.000150,0.002046,-0.563059,-0.175087,0.618889,-0.518927
56902,NaN,3.937469,-4.175804,1.283358,1.481891,-1.291791,-4.269831,0.291701,-0.030003,0.318564,-0.902832,0.140381,-0.321045,0.039439,-0.041714,0.012779,0.999998,0.001459,-0.000150,0.001593,-0.561882,-0.174995,0.618494,-0.520701
56903,NaN,3.775499,-3.884496,1.162585,1.364268,-1.112626,-4.559494,0.934528,-0.013577,0.246093,-0.900391,0.134033,-0.322998,0.037802,-0.038852,0.011447,0.999988,0.004673,-0.000068,0.001230,-0.560520,-0.176735,0.616523,-0.523910
56904,NaN,3.740594,-3.522951,1.059748,1.160890,-0.858723,-4.768785,1.542619,0.032900,0.184775,-0.906982,0.138184,-0.325195,0.037440,-0.035275,0.010319,0.999970,0.007713,0.000165,0.000924,-0.558756,-0.180393,0.612535,-0.529198
56905,NaN,3.811570,-3.245222,1.010688,0.975268,-0.638695,-4.840612,2.015985,0.089928,0.135489,-0.900146,0.123291,-0.331055,0.038142,-0.032526,0.009762,0.999949,0.010080,0.000450,0.000677,-0.556965,-0.185214,0.607239,-0.535488
56906,NaN,3.898273,-2.925246,0.828242,0.818235,-0.277960,-4.945211,2.341030,0.159913,0.090696,-0.899902,0.119141,-0.335205,0.039002,-0.029329,0.007908,0.999931,0.011705,0.000800,0.000453,-0.555000,-0.191012,0.600569,-0.542962
56907,NaN,3.963019,-2.678404,0.660832,0.715888,0.033711,-5.037552,2.550436,0.220438,0.049259,-0.893066,0.108398,-0.336914,0.039644,-0.026855,0.006222,0.999918,0.012752,0.001102,0.000246,-0.553207,-0.197177,0.593212,-0.550621
56908,NaN,4.113296,-2.478408,0.606780,0.570123,0.263249,-5.013203,2.616459,0.276496,0.007938,-0.901367,0.100098,-0.349121,0.041142,-0.024859,0.005686,0.999913,0.013082,0.001382,0.000040,-0.551376,-0.203608,0.585202,-0.558630
56909,NaN,4.295934,-2.266124,0.543546,0.402588,0.508698,-4.968668,2.545671,0.313746,-0.047100,-0.900879,0.087402,-0.346924,0.042962,-0.022738,0.005079,0.999918,0.012728,0.001569,-0.000235,-0.549945,-0.209720,0.577322,-0.565931
56910,NaN,4.692908,-2.164949,0.541590,0.236465,0.746079,-4.675496,2.412496,0.349695,-0.110708,-0.894287,0.078857,-0.354736,0.046926,-0.021738,0.005072,0.999926,0.012062,0.001748,-0.000554,-0.548696,-0.215664,0.569376,-0.572916
56911,NaN,5.221970,-2.249020,0.777798,0.105633,0.771310,-4.127136,2.229281,0.382147,-0.174217,-0.895996,0.068115,-0.364746,0.052214,-0.022620,0.007427,0.999936,0.011146,0.001911,-0.000871,-0.547983,-0.221060,0.561919,-0.578874
56912,NaN,5.848135,-2.430916,1.066274,0.027163,0.770075,-3.436743,2.031245,0.425482,-0.238731,-0.893555,0.057617,-0.364746,0.058474,-0.024485,0.010290,0.999945,0.010156,0.002127,-0.001194,-0.547593,-0.226049,0.554581,-0.584367
56913,NaN,6.386893,-2.701898,1.330978,0.079682,0.742302,-2.790857,1.855596,0.477418,-0.297600,-0.891113,0.044922,-0.370605,0.063860,-0.027235,0.012905,0.999953,0.009278,0.002387,-0.001488,-0.547840,-0.230414,0.547693,-0.588909
56914,NaN,6.716731,-2.947093,1.315018,0.276992,0.902757,-2.421031,1.743364,0.542582,-0.349818,-0.895020,0.036377,-0.376465,0.067150,-0.029700,0.012710,0.999957,0.008717,0.002713,-0.001749,-0.548322,-0.234536,0.540648,-0.593326
56915,NaN,7.031030,-3.144257,1.148580,0.491877,1.209160,-2.135711,1.747456,0.595606,-0.429798,-0.888184,0.021484,-0.380371,0.070276,-0.031691,0.011000,0.999955,0.008737,0.002978,-0.002149,-0.549308,-0.238612,0.533513,-0.597234
56916,NaN,7.381685,-3.125578,1.007528,0.500019,1.557326,-1.900850,1.805295,0.636080,-0.539160,-0.885498,0.006592,-0.382080,0.073763,-0.031543,0.009557,0.999951,0.009026,0.003180,-0.002696,-0.550433,-0.243094,0.525707,-0.601299
56917,NaN,7.936200,-2.966693,1.004774,0.295628,1.885487,-1.497021,1.870980,0.631126,-0.641676,-0.883057,-0.001709,-0.392334,0.079297,-0.030012,0.009518,0.999946,0.009355,0.003156,-0.003208,-0.551908,-0.247960,0.517760,-0.604845
56918,NaN,8.694160,-2.884550,1.346006,0.029029,1.978687,-0.768176,1.797461,0.586589,-0.741625,-0.884521,-0.020996,-0.397949,0.086872,-0.029286,0.012943,0.999948,0.008987,0.002933,-0.003708,-0.553412,-0.253050,0.509761,-0.608149
56919,NaN,9.486457,-2.667130,1.800559,-0.374075,1.991930,-0.002535,1.563747,0.523376,-0.828247,-0.882080,-0.029297,-0.401855,0.094799,-0.027202,0.017546,0.999957,0.007819,0.002617,-0.004141,-0.555480,-0.257805,0.502738,-0.610110
56920,NaN,10.181980,-2.452734,2.320597,-0.746620,1.897431,0.718905,1.235378,0.441220,-0.886109,-0.877441,-0.044189,-0.405762,0.101760,-0.025120,0.022827,0.999969,0.006177,0.002206,-0.004430,-0.557681,-0.262107,0.496587,-0.611305
56921,NaN,10.802567,-2.239224,2.793127,-1.072597,1.794691,1.373831,0.877433,0.349667,-0.926104,-0.879150,-0.054932,-0.407715,0.107969,-0.023014,0.027642,0.999978,0.004387,0.001748,-0.004630,-0.560441,-0.265697,0.491983,-0.610954
56922,NaN,11.382515,-2.254556,3.297994,-1.174048,1.607338,2.085130,0.464553,0.228992,-0.975923,-0.876709,-0.065430,-0.409424,0.113751,-0.023177,0.032796,0.999985,0.002323,0.001145,-0.004880,-0.563359,-0.268694,0.488619,-0.609658
56923,NaN,11.922539,-2.335593,3.729627,-1.182424,1.433836,2.759373,0.016668,0.097966,-1.036464,-0.876221,-0.078369,-0.407227,0.119120,-0.023977,0.037236,0.999986,0.000083,0.000490,-0.005182,-0.566950,-0.270913,0.487181,-0.606488
56924,NaN,12.397028,-2.294355,4.096739,-1.283381,1.283809,3.318845,-0.457563,-0.043403,-1.111558,-0.876221,-0.080322,-0.405273,0.123832,-0.023538,0.041048,0.999982,-0.002288,-0.000217,-0.005558,-0.570824,-0.272449,0.487178,-0.602153
56925,NaN,12.771284,-2.252551,4.572951,-1.397448,0.958408,3.833520,-0.916429,-0.168889,-1.164922,-0.873779,-0.086670,-0.409180,0.127541,-0.023059,0.045942,0.999972,-0.004582,-0.000844,-0.005825,-0.575354,-0.273169,0.489114,-0.595915
56926,NaN,12.951976,-2.295851,5.030997,-1.413997,0.539312,4.188892,-1.344295,-0.272643,-1.170433,-0.875977,-0.086670,-0.406982,0.129315,-0.023376,0.050643,0.999959,-0.006721,-0.001363,-0.005852,-0.579986,-0.272965,0.492286,-0.588864
56927,NaN,12.681333,-2.619664,5.235636,-1.053817,0.085197,4.114688,-1.713568,-0.369577,-1.148668,-0.877930,-0.095215,-0.404785,0.126565,-0.026473,0.052816,0.999945,-0.008568,-0.001848,-0.005743,-0.584948,-0.271841,0.497102,-0.580368
56928,NaN,12.302979,-3.228689,5.229576,-0.386544,-0.300399,3.931214,-1.967956,-0.493856,-1.128111,-0.879883,-0.097412,-0.398682,0.122717,-0.032461,0.052918,0.999933,-0.009840,-0.002469,-0.005640,-0.589629,-0.270303,0.502692,-0.571468
56929,NaN,12.136307,-3.970322,5.301186,0.321970,-0.750945,3.988969,-2.068758,-0.637815,-1.126185,-0.882080,-0.095215,-0.394775,0.120968,-0.039831,0.053810,0.999926,-0.010344,-0.003189,-0.005631,-0.594149,-0.268859,0.509189,-0.561630
56930,NaN,12.077809,-4.594560,5.376047,0.879955,-1.173564,4.106011,-2.018037,-0.762954,-1.096970,-0.886230,-0.097412,-0.392578,0.120318,-0.046058,0.054684,0.999927,-0.010090,-0.003815,-0.005485,-0.597955,-0.267779,0.515612,-0.552167
56931,NaN,11.696587,-4.942621,5.482423,1.198499,-1.718765,3.858531,-1.842165,-0.844570,-1.042464,-0.884277,-0.095215,-0.382324,0.116474,-0.049523,0.055773,0.999935,-0.009211,-0.004223,-0.005212,-0.601158,-0.267295,0.522066,-0.542780
56932,NaN,10.904355,-5.092909,5.404007,1.442418,-2.189557,3.116653,-1.545337,-0.888099,-0.957909,-0.888428,-0.097412,-0.376221,0.108557,-0.051028,0.054917,0.999949,-0.007727,-0.004440,-0.004789,-0.603473,-0.267548,0.527624,-0.534651
56933,NaN,9.973634,-5.197751,5.166295,1.717713,-2.539751,2.178022,-1.130328,-0.899380,-0.876977,-0.894531,-0.103760,-0.374268,0.099273,-0.052119,0.052404,0.999964,-0.005652,-0.004497,-0.004385,-0.604929,-0.268849,0.532455,-0.527516
56934,NaN,9.037018,-5.226559,4.836339,1.976425,-2.743037,1.184697,-0.611785,-0.889845,-0.804113,-0.898682,-0.107910,-0.367920,0.089943,-0.052479,0.048925,0.999977,-0.003059,-0.004449,-0.004021,-0.605487,-0.271481,0.535670,-0.522246
56935,NaN,8.370193,-5.157461,4.543920,2.119695,-2.820941,0.427171,-0.035623,-0.850217,-0.733643,-0.902588,-0.114258,-0.361816,0.083318,-0.051873,0.045803,0.999984,-0.000178,-0.004251,-0.003668,-0.605149,-0.275552,0.537549,-0.518562
56936,NaN,7.872557,-5.003509,4.268430,2.185099,-2.786523,-0.185048,0.507309,-0.805014,-0.655675,-0.900146,-0.120850,-0.349365,0.078388,-0.050401,0.042873,0.999983,0.002537,-0.004025,-0.003278,-0.603973,-0.280933,0.537761,-0.516823
56937,NaN,7.540419,-4.735216,4.013594,2.132987,-2.651705,-0.658064,0.991062,-0.749775,-0.560205,-0.901855,-0.133545,-0.344971,0.075120,-0.047762,0.040182,0.999977,0.004955,-0.003749,-0.002801,-0.601934,-0.287352,0.536866,-0.516604
56938,NaN,7.084223,-4.274170,3.759156,1.926667,-2.467005,-1.281154,1.407273,-0.689091,-0.451296,-0.910156,-0.142090,-0.334717,0.070616,-0.043165,0.037532,0.999967,0.007036,-0.003445,-0.002256,-0.599205,-0.294570,0.534643,-0.518015
56939,NaN,6.605795,-3.700716,3.500787,1.615357,-2.236597,-1.940274,1.732876,-0.633706,-0.333351,-0.909912,-0.150635,-0.328369,0.065885,-0.037420,0.034894,0.999956,0.008664,-0.003168,-0.001667,-0.595721,-0.302308,0.531684,-0.520612
56940,NaN,6.198030,-3.278095,3.336586,1.399788,-2.101600,-2.469831,1.896116,-0.590824,-0.229322,-0.909668,-0.154785,-0.318115,0.061844,-0.033167,0.033235,0.999950,0.009480,-0.002954,-0.001147,-0.591849,-0.310090,0.528140,-0.524050
56941,NaN,5.840663,-2.876463,3.203510,1.174285,-1.985782,-2.933218,1.913433,-0.565867,-0.124441,-0.909180,-0.165527,-0.311768,0.058298,-0.029107,0.031923,0.999950,0.009567,-0.002829,-0.000622,-0.587563,-0.317546,0.524731,-0.527819
56942,NaN,5.627577,-2.474242,2.980705,0.942376,-1.747752,-3.275632,1.797751,-0.557861,-0.025646,-0.915527,-0.167480,-0.301514,0.056190,-0.025017,0.029740,0.999956,0.008989,-0.002789,-0.000128,-0.583282,-0.324354,0.521566,-0.531550
56943,NaN,5.471349,-2.123522,2.801999,0.718266,-1.555035,-3.538772,1.591786,-0.557852,0.071384,-0.913330,-0.174072,-0.301514,0.054643,-0.021439,0.028002,0.999964,0.007959,-0.002789,0.000357,-0.578898,-0.330271,0.519189,-0.535014
56944,NaN,5.342386,-1.868846,2.574674,0.576704,-1.335743,-3.767379,1.328371,-0.566936,0.168193,-0.923584,-0.180420,-0.284912,0.053367,-0.018815,0.025773,0.999974,0.006642,-0.002835,0.000841,-0.574764,-0.335189,0.517546,-0.537998
56945,NaN,5.226532,-1.725137,2.289628,0.533648,-1.085736,-3.975608,1.077114,-0.589933,0.250590,-0.927979,-0.176025,-0.281006,0.052219,-0.017309,0.022957,0.999980,0.005386,-0.002950,0.001253,-0.570623,-0.339223,0.516824,-0.540565
56946,NaN,5.173030,-1.845319,1.937780,0.738875,-0.805796,-4.092096,0.911596,-0.619085,0.313122,-0.925781,-0.178223,-0.270752,0.051699,-0.018461,0.019454,0.999984,0.004558,-0.003095,0.001566,-0.566617,-0.342684,0.516655,-0.542753
56947,NaN,5.301706,-2.078017,1.726997,0.987497,-0.630305,-3.978624,0.837407,-0.648174,0.352820,-0.931885,-0.182373,-0.264648,0.052998,-0.020759,0.017355,0.999984,0.004187,-0.003241,0.001764,-0.562319,-0.345944,0.516916,-0.544902
56948,NaN,5.577914,-2.257269,1.504678,1.162205,-0.394551,-3.732718,0.854235,-0.673714,0.374531,-0.929932,-0.182617,-0.258545,0.055770,-0.022533,0.015138,0.999983,0.004271,-0.003369,0.001873,-0.558066,-0.349209,0.517128,-0.546986
56949,NaN,5.999216,-2.356502,1.532128,1.185103,-0.349031,-3.303864,0.940869,-0.690893,0.388725,-0.932129,-0.178223,-0.250244,0.059985,-0.023521,0.015418,0.999981,0.004704,-0.003454,0.001944,-0.553408,-0.352839,0.517151,-0.549362
56950,NaN,6.498147,-2.405077,1.642313,1.130611,-0.358197,-2.791229,1.055452,-0.689698,0.410722,-0.938477,-0.178223,-0.242188,0.064974,-0.024004,0.016520,0.999978,0.005277,-0.003448,0.002054,-0.548617,-0.356586,0.516880,-0.551997
56951,NaN,6.897412,-2.338433,1.776602,0.971024,-0.401801,-2.390120,1.160662,-0.673828,0.451656,-0.938477,-0.178223,-0.238037,0.068967,-0.023332,0.017863,0.999975,0.005803,-0.003369,0.002258,-0.543392,-0.360521,0.516337,-0.555109
56952,NaN,7.220844,-2.257924,2.095526,0.780345,-0.641632,-2.027485,1.261886,-0.627905,0.497369,-0.949219,-0.174072,-0.228027,0.072199,-0.022532,0.021040,0.999972,0.006309,-0.003139,0.002487,-0.538096,-0.364401,0.515428,-0.558568
56953,NaN,7.624036,-2.096278,2.469248,0.493257,-0.909814,-1.594026,1.325042,-0.567757,0.526079,-0.947021,-0.176270,-0.217773,0.076225,-0.020926,0.024770,0.999971,0.006625,-0.002839,0.002630,-0.532598,-0.368219,0.514190,-0.562461
56954,NaN,8.318723,-1.884105,2.972215,0.100182,-1.239500,-0.866255,1.342786,-0.477878,0.509816,-0.951172,-0.178223,-0.209473,0.083164,-0.018829,0.029794,0.999971,0.006714,-0.002389,0.002549,-0.527443,-0.371821,0.512616,-0.566372
56955,NaN,9.332871,-1.634233,3.698919,-0.398871,-1.720345,0.204123,1.315392,-0.313293,0.467403,-0.955811,-0.167725,-0.205566,0.093309,-0.016368,0.037028,0.999974,0.006577,-0.001566,0.002337,-0.522679,-0.375161,0.510509,-0.570475
56956,NaN,10.276642,-1.293377,4.124703,-0.935324,-1.914272,1.130625,1.109661,-0.112600,0.398514,-0.951416,-0.174072,-0.205566,0.102769,-0.012958,0.041233,0.999982,0.005548,-0.000563,0.001993,-0.519159,-0.377363,0.508382,-0.574125
56957,NaN,11.011763,-0.802179,4.110761,-1.545443,-1.708266,1.741280,0.737353,0.093442,0.329844,-0.953369,-0.174072,-0.205566,0.110150,-0.007992,0.041027,0.999992,0.003687,0.000467,0.001649,-0.516864,-0.378282,0.506579,-0.577176
56958,NaN,11.389216,-0.344215,3.921710,-2.057989,-1.395858,1.978355,0.275649,0.268607,0.273721,-0.955566,-0.169678,-0.211670,0.113949,-0.003340,0.039059,0.999997,0.001378,0.001343,0.001369,-0.516226,-0.377530,0.505611,-0.579085
56959,NaN,11.653329,-0.137169,3.578405,-2.302845,-0.952630,2.121004,-0.208622,0.394739,0.215541,-0.955566,-0.169678,-0.209717,0.116605,-0.001209,0.035555,0.999997,-0.001043,0.001974,0.001078,-0.516891,-0.375437,0.505426,-0.580013
56960,NaN,12.066264,-0.431845,3.129796,-2.083082,-0.385122,2.479136,-0.640759,0.464392,0.131589,-0.955811,-0.163330,-0.215820,0.120738,-0.004139,0.031031,0.999992,-0.003204,0.002322,0.000658,-0.518877,-0.372104,0.506332,-0.579597
56961,NaN,12.926173,-1.148745,2.648433,-1.522816,0.295323,3.340763,-0.956894,0.497221,0.018813,-0.949707,-0.161377,-0.224121,0.129328,-0.011349,0.026217,0.999985,-0.004784,0.002486,0.000094,-0.521685,-0.368329,0.507696,-0.578293
56962,NaN,14.112573,-1.834400,2.116132,-1.032662,1.097461,4.495936,-1.182852,0.510957,-0.087292,-0.947510,-0.161133,-0.234375,0.141171,-0.018281,0.020909,0.999979,-0.005914,0.002555,-0.000436,-0.525397,-0.363986,0.509617,-0.575988
56963,NaN,15.425058,-2.240180,1.599732,-0.815236,1.930802,5.715260,-1.334942,0.532030,-0.164022,-0.943604,-0.152832,-0.242676,0.154274,-0.022423,0.015737,0.999974,-0.006675,0.002660,-0.000820,-0.529583,-0.359448,0.511591,-0.573248
56964,NaN,16.772167,-2.289248,1.187474,-0.941098,2.702344,6.913569,-1.438827,0.560250,-0.193907,-0.947998,-0.148438,-0.244873,0.167732,-0.022971,0.011570,0.999970,-0.007194,0.002801,-0.000970,-0.534138,-0.354524,0.513871,-0.570040
56965,NaN,18.024743,-2.179403,0.789099,-1.192770,3.469145,7.986349,-1.542066,0.581084,-0.157631,-0.941406,-0.152832,-0.252930,0.180252,-0.021877,0.007536,0.999966,-0.007710,0.002905,-0.000788,-0.538723,-0.349086,0.516394,-0.566792
56966,NaN,18.976478,-2.091462,0.486683,-1.373204,4.080151,8.793331,-1.652921,0.613108,-0.082935,-0.943604,-0.150635,-0.265137,0.189770,-0.020955,0.004458,0.999961,-0.008264,0.003065,-0.000415,-0.543401,-0.343102,0.519267,-0.563346
56967,NaN,19.040249,-2.121917,0.374156,-1.321467,4.282894,8.817490,-1.749597,0.656816,0.034522,-0.950439,-0.139893,-0.277588,0.190417,-0.021156,0.003301,0.999956,-0.008748,0.003284,0.000173,-0.547981,-0.336446,0.522392,-0.560025
56968,NaN,18.040388,-2.171292,0.411227,-1.116863,4.065182,7.866831,-1.811240,0.686988,0.171666,-0.942139,-0.131348,-0.279785,0.180436,-0.021523,0.003688,0.999953,-0.009056,0.003435,0.000858,-0.552312,-0.329101,0.525849,-0.556890
56969,NaN,16.322023,-2.052850,0.511400,-0.989293,3.611224,6.214284,-1.832044,0.666943,0.308820,-0.942383,-0.125000,-0.288086,0.163268,-0.020232,0.004756,0.999951,-0.009160,0.003335,0.001544,-0.556157,-0.321287,0.529661,-0.554007
56970,NaN,14.556549,-1.795824,0.749711,-1.034396,3.020268,4.522145,-1.826680,0.606664,0.433068,-0.940674,-0.114502,-0.292480,0.145626,-0.017576,0.007217,0.999951,-0.009133,0.003033,0.002165,-0.559467,-0.313370,0.533707,-0.551319
56971,NaN,13.036752,-1.532571,1.070451,-1.168014,2.402938,3.083527,-1.829281,0.518908,0.551221,-0.936768,-0.105957,-0.302734,0.130436,-0.014870,0.010504,0.999951,-0.009146,0.002594,0.002756,-0.562115,-0.305332,0.538276,-0.548687
56972,NaN,11.704923,-1.311648,1.458248,-1.326343,1.759530,1.849045,-1.819152,0.433679,0.669603,-0.935059,-0.091064,-0.307129,0.117123,-0.012593,0.014445,0.999951,-0.009096,0.002168,0.003348,-0.564191,-0.297218,0.543048,-0.546305
56973,NaN,10.480004,-1.303255,1.777597,-1.298409,1.150971,0.755050,-1.820559,0.347749,0.779840,-0.933350,-0.080322,-0.311279,0.104880,-0.012462,0.017709,0.999949,-0.009103,0.001739,0.003899,-0.565689,-0.288967,0.548296,-0.543935
56974,NaN,9.304869,-1.447441,2.033249,-1.125141,0.566801,-0.261698,-1.797412,0.251355,0.868722,-0.931885,-0.061279,-0.313721,0.093135,-0.013887,0.020342,0.999949,-0.008987,0.001257,0.004344,-0.566579,-0.280809,0.553706,-0.541797
56975,NaN,8.313957,-1.656034,2.096982,-0.868202,0.179802,-1.125083,-1.726168,0.170037,0.912777,-0.934570,-0.044189,-0.322266,0.083231,-0.015999,0.021039,0.999952,-0.008631,0.000850,0.004564,-0.566974,-0.272867,0.559307,-0.539686
56976,NaN,7.509797,-1.862163,2.242553,-0.670942,-0.237604,-1.788589,-1.614566,0.092535,0.910687,-0.937012,-0.033691,-0.316162,0.075192,-0.018098,0.022538,0.999957,-0.008073,0.000463,0.004553,-0.566948,-0.265487,0.564625,-0.537853
56977,NaN,6.736800,-2.048188,2.184976,-0.418646,-0.468357,-2.467059,-1.473785,0.033567,0.872018,-0.935303,-0.025146,-0.318359,0.067460,-0.020026,0.021987,0.999963,-0.007369,0.000168,0.004360,-0.566603,-0.258633,0.569803,-0.536093
56978,NaN,6.156116,-2.293719,2.102777,-0.126718,-0.642921,-2.946058,-1.276770,0.006906,0.799810,-0.944336,-0.008057,-0.324951,0.061653,-0.022556,0.021170,0.999972,-0.006384,0.000035,0.003999,-0.566108,-0.252716,0.574229,-0.534713
56979,NaN,5.634624,-2.656148,1.975905,0.289719,-0.802416,-3.333481,-1.035786,0.005328,0.701668,-0.934082,0.002441,-0.324951,0.056439,-0.026261,0.019894,0.999980,-0.005179,0.000027,0.003508,-0.565525,-0.247720,0.577981,-0.533623
56980,NaN,5.218381,-3.076379,1.831442,0.757851,-0.934819,-3.599691,-0.785596,0.021265,0.587169,-0.934326,0.010986,-0.316895,0.052276,-0.030538,0.018429,0.999988,-0.003928,0.000106,0.002936,-0.564980,-0.243746,0.580744,-0.533031
56981,NaN,4.918165,-3.407642,1.678219,1.137148,-0.997139,-3.785311,-0.517785,0.074070,0.471679,-0.936279,0.008789,-0.319092,0.049268,-0.033917,0.016852,0.999994,-0.002589,0.000370,0.002358,-0.564540,-0.240602,0.582626,-0.532872
56982,NaN,4.673599,-3.720395,1.512589,1.508887,-1.020437,-3.925948,-0.252715,0.149329,0.374896,-0.938721,0.017334,-0.325439,0.046817,-0.037097,0.015138,0.999997,-0.001264,0.000747,0.001874,-0.564272,-0.238401,0.583333,-0.533370
56983,NaN,4.348557,-3.848623,1.178012,1.820457,-0.855940,-4.239284,-0.014883,0.242548,0.288181,-0.940918,0.019531,-0.327393,0.043555,-0.038423,0.011730,0.999998,-0.000074,0.001213,0.001441,-0.564218,-0.236890,0.583115,-0.534340
56984,NaN,4.125046,-3.823315,0.891522,1.964859,-0.644736,-4.506828,0.207530,0.327693,0.212017,-0.934814,0.023682,-0.323242,0.041305,-0.038199,0.008808,0.999998,0.001038,0.001638,0.001060,-0.564353,-0.235985,0.581892,-0.535928
56985,NaN,4.024326,-3.749731,0.657614,2.022497,-0.419730,-4.672514,0.395703,0.410279,0.150339,-0.932617,0.021484,-0.335693,0.040285,-0.037480,0.006419,0.999996,0.001979,0.002051,0.000752,-0.564604,-0.235553,0.579981,-0.537921
56986,NaN,4.063551,-3.643840,0.578702,1.961347,-0.269317,-4.693569,0.523400,0.483883,0.094950,-0.930420,0.017334,-0.337646,0.040666,-0.036434,0.005593,0.999994,0.002617,0.002419,0.000475,-0.565124,-0.235456,0.577322,-0.540272
56987,NaN,4.334614,-3.513220,0.528231,1.812926,-0.054836,-4.509787,0.564101,0.551510,0.049117,-0.930176,0.015137,-0.341553,0.043369,-0.035136,0.005064,0.999992,0.002820,0.002758,0.000246,-0.565927,-0.235370,0.574355,-0.542627
56988,NaN,4.624574,-3.368491,0.533081,1.629412,0.125212,-4.303900,0.558587,0.614525,0.003053,-0.927979,0.013184,-0.343506,0.046262,-0.033699,0.005095,0.999991,0.002793,0.003073,0.000015,-0.567014,-0.235276,0.571106,-0.544957
56989,NaN,5.062087,-3.312102,0.459079,1.522261,0.402426,-3.953844,0.528025,0.669177,-0.042756,-0.923584,0.008789,-0.353760,0.050629,-0.033144,0.004334,0.999991,0.002640,0.003346,-0.000214,-0.568383,-0.235114,0.567813,-0.547038
56990,NaN,5.522633,-3.352347,0.435504,1.480695,0.621537,-3.539862,0.501120,0.714704,-0.080985,-0.921387,0.006836,-0.357666,0.055228,-0.033556,0.004074,0.999990,0.002506,0.003574,-0.000405,-0.570032,-0.234815,0.564318,-0.549064
56991,NaN,5.969808,-3.400895,0.404269,1.458397,0.844821,-3.139819,0.485467,0.746283,-0.113715,-0.910889,0.006836,-0.365967,0.059693,-0.034052,0.003737,0.999990,0.002427,0.003731,-0.000569,-0.571877,-0.234506,0.560793,-0.550885
56992,NaN,6.349516,-3.429786,0.398385,1.430348,1.034624,-2.803995,0.529137,0.769340,-0.137295,-0.915039,0.000244,-0.365723,0.063486,-0.034351,0.003649,0.999989,0.002646,0.003847,-0.000686,-0.573779,-0.234287,0.556976,-0.552870
56993,NaN,6.804836,-3.551285,0.692201,1.360563,0.969001,-2.288996,0.677057,0.799645,-0.147208,-0.908447,-0.003906,-0.382080,0.068049,-0.035585,0.006530,0.999986,0.003385,0.003998,-0.000736,-0.575595,-0.234437,0.552758,-0.555147
56994,NaN,7.376630,-3.885907,1.188972,1.393204,0.730127,-1.539016,0.932702,0.854735,-0.139631,-0.910400,-0.008057,-0.390137,0.073789,-0.038964,0.011393,0.999980,0.004663,0.004274,-0.000698,-0.577233,-0.235135,0.547542,-0.558312
56995,NaN,7.795137,-4.156854,1.479348,1.496971,0.654725,-1.005801,1.169382,0.900120,-0.109138,-0.901611,-0.016602,-0.396240,0.077993,-0.041695,0.014199,0.999973,0.005847,0.004501,-0.000546,-0.578650,-0.236269,0.541607,-0.562142
56996,NaN,8.156422,-4.321689,1.518335,1.622899,0.828088,-0.637262,1.404504,0.899609,-0.124137,-0.897217,-0.025146,-0.406250,0.081604,-0.043371,0.014512,0.999965,0.007022,0.004498,-0.000621,-0.579748,-0.238137,0.534899,-0.566627
56997,NaN,8.602818,-4.236671,1.697314,1.466726,0.984558,-0.235824,1.558398,0.865350,-0.148312,-0.890381,-0.040039,-0.412109,0.086068,-0.042559,0.016270,0.999960,0.007792,0.004327,-0.000742,-0.580685,-0.240600,0.527820,-0.571247
56998,NaN,8.993890,-3.833377,2.001226,0.997011,1.084333,0.057380,1.592326,0.815659,-0.191679,-0.894287,-0.048340,-0.416016,0.089982,-0.038576,0.019339,0.999960,0.007962,0.004078,-0.000958,-0.581439,-0.243395,0.520659,-0.575848
56999,NaN,9.379305,-3.162215,2.401951,0.261838,1.137060,0.305486,1.509138,0.728610,-0.256714,-0.885498,-0.059082,-0.419922,0.093838,-0.031921,0.023438,0.999964,0.007546,0.003643,-0.001284,-0.582351,-0.246494,0.513852,-0.579711
57000,NaN,9.762073,-2.657961,2.988367,-0.374588,0.967539,0.685672,1.284793,0.607450,-0.331815,-0.883057,-0.065430,-0.425781,0.097666,-0.026932,0.029415,0.999973,0.006424,0.003037,-0.001659,-0.583269,-0.249328,0.507943,-0.582775
57001,NaN,10.099528,-2.298191,3.596490,-0.863239,0.701906,1.095024,0.935027,0.463985,-0.425785,-0.878662,-0.073975,-0.427734,0.101029,-0.023364,0.035622,0.999984,0.004675,0.002320,-0.002129,-0.584646,-0.251953,0.503335,-0.584262
57002,NaN,10.360766,-2.108661,4.123400,-1.157813,0.420304,1.469003,0.488898,0.301994,-0.548817,-0.880371,-0.086670,-0.427490,0.103611,-0.021471,0.041025,0.999992,0.002444,0.001510,-0.002744,-0.586384,-0.253887,0.500335,-0.584260
57003,NaN,10.650283,-2.075378,4.429048,-1.246743,0.285019,1.837040,-0.020925,0.120537,-0.671115,-0.875732,-0.097412,-0.427246,0.106459,-0.021106,0.044229,0.999994,-0.000105,0.000603,-0.003356,-0.588813,-0.255381,0.499189,-0.582143
57004,NaN,10.994915,-2.197794,4.599898,-1.179194,0.237538,2.246759,-0.555025,-0.059547,-0.773957,-0.884033,-0.097168,-0.433594,0.109850,-0.022275,0.046093,0.999989,-0.002775,-0.000298,-0.003870,-0.591614,-0.255860,0.499991,-0.578391
57005,NaN,11.317086,-2.483590,4.589498,-0.910043,0.268124,2.613397,-1.043493,-0.250881,-0.818256,-0.877686,-0.099365,-0.431396,0.113011,-0.025058,0.046167,0.999977,-0.005217,-0.001254,-0.004091,-0.594853,-0.255854,0.502630,-0.572758
57006,NaN,11.448832,-3.035979,4.539190,-0.378122,0.160845,2.865141,-1.398077,-0.445509,-0.827763,-0.884033,-0.103760,-0.427246,0.114260,-0.030514,0.045860,0.999965,-0.006990,-0.002228,-0.004139,-0.597867,-0.255055,0.506887,-0.566187
57007,NaN,11.468545,-3.744129,4.442774,0.319408,-0.040663,3.039504,-1.537827,-0.642221,-0.824702,-0.890381,-0.103516,-0.425293,0.114387,-0.037568,0.045084,0.999957,-0.007689,-0.003211,-0.004123,-0.600673,-0.254610,0.512032,-0.558738
57008,NaN,11.494643,-4.418684,4.505062,0.910432,-0.413125,3.261904,-1.487876,-0.827853,-0.823702,-0.892578,-0.101562,-0.415039,0.114575,-0.044320,0.045855,0.999955,-0.007439,-0.004139,-0.004118,-0.602719,-0.254565,0.517608,-0.551370
57009,NaN,11.587524,-4.961299,4.727158,1.313568,-0.908528,3.554326,-1.260040,-0.975333,-0.820706,-0.900879,-0.103516,-0.408936,0.115438,-0.049786,0.048149,0.999960,-0.006300,-0.004877,-0.004103,-0.604134,-0.255812,0.522982,-0.544125
57010,NaN,11.539164,-5.288139,5.055225,1.497393,-1.505577,3.683967,-0.894805,-1.063736,-0.810230,-0.900635,-0.107910,-0.398682,0.114905,-0.053119,0.051402,0.999968,-0.004474,-0.005319,-0.004051,-0.604678,-0.258129,0.527580,-0.537952
57011,NaN,11.357039,-5.440022,5.208921,1.618331,-1.954490,3.576375,-0.451653,-1.090904,-0.781095,-0.906738,-0.114258,-0.386230,0.113070,-0.054724,0.052830,0.999975,-0.002258,-0.005454,-0.003905,-0.604503,-0.261947,0.531160,-0.532755
57012,NaN,10.917084,-5.445280,5.137950,1.738171,-2.228877,3.119473,0.014525,-1.084070,-0.713732,-0.915283,-0.116455,-0.380127,0.108695,-0.054845,0.051966,0.999979,0.000073,-0.005420,-0.003569,-0.603490,-0.266786,0.533456,-0.529197
57013,NaN,10.457334,-5.267375,4.907632,1.770274,-2.287142,2.549318,0.472616,-1.039375,-0.636068,-0.919189,-0.126953,-0.375977,0.104148,-0.053122,0.049493,0.999979,0.002363,-0.005197,-0.003180,-0.601726,-0.272808,0.534610,-0.526966
57014,NaN,9.883691,-4.968905,4.558908,1.762165,-2.198946,1.815685,0.891081,-0.968772,-0.543746,-0.920898,-0.137695,-0.359375,0.098479,-0.050161,0.045844,0.999975,0.004455,-0.004844,-0.002719,-0.599335,-0.279506,0.534425,-0.526368
57015,NaN,9.230707,-4.496254,4.304540,1.575431,-2.137015,0.999409,1.231723,-0.882854,-0.442816,-0.927002,-0.141846,-0.351074,0.092016,-0.045432,0.043173,0.999969,0.006159,-0.004414,-0.002214,-0.596353,-0.286807,0.533245,-0.527025
57016,NaN,8.526904,-3.876631,4.047303,1.254640,-2.017408,0.110626,1.455037,-0.795300,-0.332668,-0.928955,-0.150391,-0.342773,0.085043,-0.039203,0.040527,0.999964,0.007275,-0.003976,-0.001663,-0.592997,-0.294137,0.531289,-0.528744
57017,NaN,7.804543,-3.174445,3.833777,0.830029,-1.906716,-0.792669,1.551336,-0.720176,-0.220870,-0.933105,-0.152588,-0.330566,0.077872,-0.032128,0.038370,0.999963,0.007757,-0.003601,-0.001104,-0.589268,-0.301254,0.529066,-0.531129
57018,NaN,7.093474,-2.462880,3.488340,0.417001,-1.662169,-1.712403,1.503655,-0.658966,-0.112583,-0.937012,-0.158936,-0.326416,0.070806,-0.024931,0.034930,0.999966,0.007518,-0.003295,-0.000563,-0.585535,-0.307741,0.526830,-0.533754
57019,NaN,6.434775,-1.828264,3.249750,0.012834,-1.519033,-2.532446,1.349897,-0.613493,-0.008690,-0.941162,-0.165283,-0.318115,0.064247,-0.018505,0.032570,0.999973,0.006749,-0.003067,-0.000043,-0.581729,-0.313327,0.525092,-0.536373
57020,NaN,5.843123,-1.362480,2.909255,-0.230427,-1.301229,-3.276955,1.121435,-0.597961,0.084838,-0.943115,-0.165283,-0.309814,0.058350,-0.013764,0.029190,0.999980,0.005607,-0.002990,0.000424,-0.578159,-0.317983,0.523949,-0.538606
57021,NaN,5.386749,-1.135117,2.644713,-0.304246,-1.166393,-3.825455,0.860328,-0.605071,0.168162,-0.943115,-0.165283,-0.301758,0.053797,-0.011420,0.026561,0.999986,0.004302,-0.003025,0.000841,-0.574633,-0.321644,0.523696,-0.540449
57022,NaN,4.972253,-1.126611,2.284227,-0.162235,-0.972471,-4.313763,0.632679,-0.621676,0.245138,-0.951660,-0.163086,-0.297607,0.049665,-0.011278,0.022961,0.999989,0.003163,-0.003108,0.001226,-0.571315,-0.324515,0.524164,-0.541794
57023,NaN,4.632853,-1.380131,1.930555,0.207844,-0.811231,-4.675199,0.492150,-0.659592,0.312333,-0.956055,-0.163086,-0.293701,0.046286,-0.013777,0.019424,0.999990,0.002461,-0.003298,0.001562,-0.567826,-0.326866,0.525260,-0.542986
57024,NaN,4.417709,-1.781597,1.769671,0.651559,-0.820205,-4.840298,0.435634,-0.691874,0.367245,-0.958008,-0.161133,-0.281494,0.044148,-0.017774,0.017811,0.999990,0.002178,-0.003459,0.001836,-0.564290,-0.329033,0.526640,-0.544027
57025,NaN,4.198604,-2.010573,1.693693,0.907414,-0.870824,-5.021289,0.443799,-0.710286,0.413743,-0.958252,-0.156738,-0.279541,0.041967,-0.020057,0.017041,0.999989,0.002219,-0.003551,0.002069,-0.560451,-0.331111,0.528138,-0.545280
57026,NaN,4.018777,-2.039015,1.673326,0.953105,-0.922747,-5.192270,0.478325,-0.755763,0.452243,-0.958496,-0.148438,-0.275391,0.040170,-0.020339,0.016836,0.999987,0.002392,-0.003779,0.002261,-0.556419,-0.333332,0.529696,-0.546543
57027,NaN,4.025204,-2.008445,1.693310,0.901663,-0.954269,-5.188865,0.458368,-0.826434,0.515648,-0.962891,-0.144043,-0.261230,0.040233,-0.020020,0.017053,0.999986,0.002292,-0.004132,0.002578,-0.551964,-0.335451,0.531623,-0.547891
57028,NaN,4.322882,-2.056655,1.772772,0.860403,-0.989264,-4.879047,0.363633,-0.901621,0.594879,-0.971436,-0.146240,-0.250977,0.043209,-0.020470,0.017885,0.999984,0.001818,-0.004508,0.002974,-0.547314,-0.337356,0.534107,-0.548969
57029,NaN,4.895913,-2.149368,2.019699,0.765527,-1.134858,-4.263383,0.211006,-0.956930,0.695051,-0.977783,-0.139893,-0.242920,0.048936,-0.021345,0.020409,0.999982,0.001055,-0.004785,0.003475,-0.542371,-0.338684,0.537326,-0.549916
57030,NaN,5.507604,-2.310787,2.314523,0.703043,-1.343593,-3.589301,0.012593,-0.995392,0.780802,-0.980469,-0.129150,-0.239014,0.055050,-0.022894,0.023418,0.999980,0.000063,-0.004977,0.003904,-0.537513,-0.339369,0.541305,-0.550362
57031,NaN,6.030446,-2.530645,2.218602,0.774571,-1.219335,-3.059516,-0.085889,-1.023206,0.851578,-0.986816,-0.122803,-0.227051,0.060297,-0.025040,0.022505,0.999978,-0.000429,-0.005116,0.004258,-0.532424,-0.339623,0.545730,-0.550781
57032,NaN,6.742886,-2.999335,2.217826,1.009981,-1.196808,-2.267615,-0.040506,-1.042413,0.902632,-0.989258,-0.114502,-0.218994,0.067446,-0.029684,0.022536,0.999976,-0.000203,-0.005212,0.004513,-0.527145,-0.339933,0.550139,-0.551281
57033,NaN,7.729258,-3.655043,2.315577,1.324666,-1.250405,-1.144152,0.083371,-1.021367,0.932600,-0.989746,-0.103760,-0.210938,0.077342,-0.036200,0.023536,0.999976,0.000417,-0.005107,0.004663,-0.521498,-0.340373,0.554173,-0.552339
57034,NaN,8.838481,-4.243962,2.321558,1.548851,-1.187604,0.072114,0.291455,-0.981214,0.924430,-0.992188,-0.093262,-0.198975,0.088465,-0.042065,0.023588,0.999976,0.001457,-0.004906,0.004622,-0.515713,-0.341292,0.557489,-0.553865
57035,NaN,10.110474,-4.729522,2.297393,1.623608,-1.046541,1.418334,0.597938,-0.914896,0.898909,-0.996582,-0.088867,-0.182617,0.101210,-0.046910,0.023296,0.999975,0.002990,-0.004574,0.004495,-0.509532,-0.342814,0.559714,-0.556396
57036,NaN,11.496951,-5.135980,2.136045,1.607327,-0.733604,2.836358,0.925259,-0.830335,0.892339,-1.000977,-0.080566,-0.178711,0.115108,-0.050946,0.021602,0.999971,0.004626,-0.004152,0.004462,-0.503120,-0.344992,0.560771,-0.559810
57037,NaN,12.966376,-5.367530,1.872968,1.398160,-0.267171,4.273413,1.225139,-0.719153,0.870339,-1.000977,-0.082520,-0.170410,0.129828,-0.053226,0.018869,0.999965,0.006126,-0.003596,0.004352,-0.496396,-0.347621,0.560619,-0.564321
57038,NaN,14.606397,-5.371748,1.696901,0.898233,0.186849,5.815475,1.572271,-0.579257,0.813036,-1.001221,-0.074219,-0.158447,0.146232,-0.053257,0.016972,0.999957,0.007861,-0.002896,0.004065,-0.489718,-0.350882,0.559011,-0.569706
57039,NaN,16.332991,-5.381869,1.610949,0.349846,0.589708,7.445797,1.893184,-0.413467,0.731190,-1.003418,-0.072021,-0.156250,0.163493,-0.053373,0.015941,0.999946,0.009466,-0.002067,0.003656,-0.482993,-0.354615,0.555868,-0.576175
57040,NaN,17.867904,-5.173571,1.405969,-0.340175,1.120252,8.805390,2.097285,-0.227217,0.649157,-1.007812,-0.067871,-0.156494,0.178830,-0.051301,0.013723,0.999939,0.010486,-0.001136,0.003246,-0.476738,-0.358527,0.551493,-0.583125
57041,NaN,18.954553,-4.689965,1.036373,-1.160819,1.779272,9.625168,2.139759,-0.045201,0.568482,-1.007812,-0.065674,-0.158447,0.189676,-0.046468,0.009908,0.999939,0.010699,-0.000226,0.002842,-0.470971,-0.362131,0.546343,-0.590387
57042,NaN,19.587419,-3.879999,0.619680,-2.159451,2.430697,9.898534,2.067259,0.152737,0.488683,-1.005859,-0.065674,-0.156494,0.195973,-0.038381,0.005649,0.999943,0.010336,0.000764,0.002443,-0.466170,-0.365211,0.540736,-0.597419
57043,NaN,19.652209,-2.925982,0.396388,-3.148180,2.800580,9.608224,1.876972,0.350475,0.411861,-1.010010,-0.067871,-0.160645,0.196588,-0.028888,0.003347,0.999952,0.009385,0.001752,0.002059,-0.462354,-0.367352,0.535054,-0.604151
57044,NaN,19.134399,-2.135019,0.286180,-3.800085,2.953108,8.831401,1.568102,0.536914,0.353143,-1.010010,-0.067627,-0.166748,0.191388,-0.021031,0.002182,0.999964,0.007840,0.002685,0.001766,-0.459822,-0.368416,0.529706,-0.610118
57045,NaN,18.184133,-1.454366,0.308470,-4.213786,2.896100,7.700956,1.111089,0.697369,0.312922,-1.003662,-0.065674,-0.174805,0.181873,-0.014274,0.002371,0.999977,0.005555,0.003487,0.001565,-0.458600,-0.367958,0.525305,-0.615099
57046,NaN,17.012404,-0.890239,0.372922,-4.435932,2.750202,6.407991,0.572450,0.825920,0.295059,-1.007812,-0.067627,-0.180908,0.170150,-0.008661,0.003002,0.999986,0.002862,0.004130,0.001475,-0.458798,-0.365969,0.522188,-0.618782
57047,NaN,15.809441,-0.482655,0.544982,-4.499432,2.485550,5.155399,-0.035943,0.908762,0.312694,-1.001709,-0.063477,-0.191162,0.158124,-0.004578,0.004732,0.999988,-0.000180,0.004544,0.001563,-0.460237,-0.362213,0.520820,-0.621071
57048,NaN,14.494908,-0.213326,0.674182,-4.394595,2.231691,3.836766,-0.647215,0.967284,0.367913,-1.001953,-0.052734,-0.197510,0.144983,-0.001846,0.006047,0.999981,-0.003236,0.004836,0.001840,-0.462773,-0.356774,0.521262,-0.621965
57049,NaN,13.092170,-0.172678,0.711441,-4.046798,2.037930,2.492165,-1.206874,0.989607,0.449002,-0.993652,-0.050781,-0.211914,0.130958,-0.001392,0.006476,0.999967,-0.006034,0.004948,0.002245,-0.466081,-0.349703,0.523549,-0.621589
57050,NaN,11.739089,-0.344293,0.801274,-3.519436,1.780026,1.278317,-1.700220,0.972460,0.538289,-0.994141,-0.037842,-0.218262,0.117437,-0.003062,0.007469,0.999948,-0.008501,0.004862,0.002691,-0.469898,-0.341309,0.527483,-0.620053
57051,NaN,10.477981,-0.725884,0.844686,-2.824501,1.551604,0.219365,-2.087820,0.916300,0.623861,-0.992432,-0.025146,-0.234863,0.104839,-0.006847,0.008040,0.999930,-0.010439,0.004581,0.003119,-0.473920,-0.331887,0.532873,-0.617493
57052,NaN,9.383557,-1.206137,0.848681,-2.089646,1.353681,-0.646103,-2.349309,0.826811,0.699185,-0.997070,-0.012451,-0.241211,0.093911,-0.011635,0.008237,0.999916,-0.011746,0.004134,0.003496,-0.477818,-0.321895,0.539284,-0.614203
57053,NaN,8.514131,-1.646860,0.882357,-1.471678,1.136783,-1.296684,-2.497375,0.734503,0.762321,-0.990967,-0.001709,-0.245361,0.085235,-0.016035,0.008713,0.999908,-0.012486,0.003672,0.003811,-0.481462,-0.311579,0.546423,-0.610356
57054,NaN,7.741325,-1.953831,0.945491,-1.017373,0.885668,-1.886818,-2.566881,0.628571,0.802635,-0.989746,0.021484,-0.251953,0.077520,-0.019106,0.009458,0.999905,-0.012834,0.003143,0.004013,-0.484678,-0.301278,0.553943,-0.606189
57055,NaN,7.015251,-2.141317,0.990916,-0.686918,0.643807,-2.471441,-2.591652,0.515147,0.825442,-0.990234,0.036377,-0.256348,0.070265,-0.020994,0.010002,0.999904,-0.012958,0.002576,0.004127,-0.487484,-0.291128,0.561784,-0.601666
57056,NaN,6.436304,-2.235218,0.914628,-0.466767,0.546689,-2.975919,-2.561739,0.405473,0.834221,-0.982178,0.049072,-0.258545,0.064474,-0.021965,0.009299,0.999907,-0.012808,0.002027,0.004171,-0.489792,-0.281313,0.569667,-0.597031
57057,NaN,5.883593,-2.455437,0.906814,-0.148383,0.359179,-3.384895,-2.471725,0.311373,0.810737,-0.982910,0.068359,-0.256836,0.058949,-0.024202,0.009277,0.999914,-0.012358,0.001557,0.004054,-0.491720,-0.272002,0.577419,-0.592295
57058,NaN,5.430385,-2.749843,0.903715,0.204035,0.167771,-3.664757,-2.319022,0.238466,0.765181,-0.981201,0.083252,-0.257080,0.054419,-0.027184,0.009289,0.999925,-0.011595,0.001192,0.003826,-0.493254,-0.263383,0.584700,-0.587754
57059,NaN,5.028982,-3.197492,0.890465,0.680611,-0.041128,-3.825864,-2.093028,0.180242,0.696135,-0.977295,0.089600,-0.255127,0.050409,-0.031704,0.009192,0.999939,-0.010465,0.000901,0.003481,-0.494479,-0.255651,0.591332,-0.583489
57060,NaN,4.709734,-3.624757,0.831852,1.125947,-0.193923,-3.921459,-1.809246,0.129689,0.613415,-0.977539,0.102295,-0.253418,0.047214,-0.036026,0.008615,0.999954,-0.009046,0.000648,0.003067,-0.495357,-0.248993,0.597050,-0.579789
57061,NaN,4.431162,-3.969094,0.752054,1.497810,-0.305680,-4.014650,-1.456631,0.113703,0.533273,-0.977783,0.108643,-0.259521,0.044422,-0.039517,0.007784,0.999970,-0.007283,0.000569,0.002666,-0.495961,-0.243475,0.601677,-0.576825
57062,NaN,4.085276,-4.169713,0.723969,1.765855,-0.450014,-4.219911,-1.048557,0.111047,0.466233,-0.980225,0.119141,-0.257812,0.040954,-0.041563,0.007435,0.999983,-0.005243,0.000555,0.002331,-0.496213,-0.239167,0.604987,-0.574946
57063,NaN,3.861997,-4.335138,0.705805,1.964499,-0.551242,-4.331503,-0.596115,0.125456,0.403031,-0.978516,0.125732,-0.263916,0.038712,-0.043252,0.007163,0.999993,-0.002981,0.000627,0.002015,-0.496161,-0.236106,0.606907,-0.574232
57064,NaN,3.787504,-4.374755,0.741632,1.991691,-0.615941,-4.364069,-0.125850,0.152205,0.334630,-0.982422,0.121338,-0.261963,0.037954,-0.043679,0.007415,0.999998,-0.000629,0.000761,0.001673,-0.495804,-0.234359,0.607288,-0.574852
57065,NaN,3.907005,-4.302009,0.740969,1.870500,-0.548821,-4.288108,0.309550,0.194684,0.266889,-0.974365,0.127686,-0.263916,0.039135,-0.042979,0.007305,0.999997,0.001548,0.000973,0.001334,-0.495280,-0.233744,0.606270,-0.576627
57066,NaN,4.267543,-4.124354,0.731262,1.578233,-0.363715,-4.056498,0.677974,0.255615,0.190140,-0.972168,0.129883,-0.266113,0.042724,-0.041227,0.007118,0.999993,0.003390,0.001278,0.000951,-0.494705,-0.234126,0.603904,-0.579442
57067,NaN,4.691404,-3.817592,0.626182,1.190414,-0.031120,-3.849711,0.971041,0.327843,0.108920,-0.971924,0.121338,-0.274170,0.046945,-0.038180,0.006000,0.999987,0.004855,0.001639,0.000545,-0.494239,-0.235226,0.600450,-0.582972
57068,NaN,5.041471,-3.462714,0.519236,0.798782,0.300036,-3.734199,1.212370,0.409723,0.021059,-0.974121,0.121338,-0.271973,0.050429,-0.034652,0.004879,0.999980,0.006062,0.002049,0.000105,-0.493966,-0.236978,0.595920,-0.587128
57069,NaN,5.310821,-3.198519,0.372583,0.534928,0.629983,-3.657144,1.386668,0.493227,-0.071941,-0.975830,0.113037,-0.280029,0.053105,-0.032028,0.003373,0.999973,0.006933,0.002466,-0.000360,-0.493992,-0.239152,0.590580,-0.591602
57070,NaN,5.528012,-3.060596,0.258251,0.396613,0.894542,-3.564902,1.531685,0.563299,-0.181558,-0.967285,0.106445,-0.288086,0.055259,-0.030674,0.002192,0.999966,0.007658,0.002816,-0.000908,-0.494339,-0.241816,0.584425,-0.596324
57071,NaN,5.809717,-2.974290,0.151340,0.281350,1.166274,-3.395356,1.617092,0.618321,-0.290857,-0.971191,0.100342,-0.298340,0.058058,-0.029837,0.001093,0.999961,0.008085,0.003092,-0.001454,-0.495037,-0.244806,0.577758,-0.601003
57072,NaN,6.087337,-2.954311,0.152529,0.202971,1.329028,-3.179539,1.625199,0.662844,-0.396047,-0.966553,0.089600,-0.310303,0.060819,-0.029674,0.001083,0.999960,0.008126,0.003314,-0.001980,-0.496127,-0.247990,0.570729,-0.605498
57073,NaN,6.339031,-2.763491,0.251710,-0.033877,1.417030,-3.039677,1.554560,0.699031,-0.496247,-0.966064,0.074707,-0.318359,0.063329,-0.027809,0.002080,0.999961,0.007773,0.003495,-0.002481,-0.497695,-0.251110,0.563711,-0.609486
57074,NaN,6.535652,-2.555934,0.369942,-0.261137,1.467731,-2.945285,1.398914,0.733594,-0.598126,-0.963623,0.059814,-0.324219,0.065292,-0.025779,0.003280,0.999964,0.006994,0.003668,-0.002991,-0.499806,-0.254051,0.556855,-0.612833
57075,NaN,6.723646,-2.236528,0.459182,-0.569955,1.548562,-2.906409,1.165087,0.752553,-0.729637,-0.961182,0.051514,-0.330078,0.067171,-0.022636,0.004208,0.999969,0.005825,0.003763,-0.003648,-0.502680,-0.256667,0.550523,-0.615109
57076,NaN,7.072216,-2.034657,0.611595,-0.837869,1.603754,-2.653410,0.886224,0.761405,-0.856720,-0.956543,0.038574,-0.335938,0.070656,-0.020675,0.005756,0.999974,0.004431,0.003807,-0.004284,-0.506255,-0.258923,0.544773,-0.616349
57077,NaN,7.618656,-1.969574,0.766531,-1.038515,1.704781,-2.162525,0.532852,0.757776,-0.997834,-0.956299,0.034424,-0.343994,0.076115,-0.020095,0.007324,0.999977,0.002664,0.003789,-0.004989,-0.510720,-0.260642,0.539988,-0.616152
57078,NaN,8.377079,-2.049281,0.845541,-1.141890,1.935434,-1.443762,0.180857,0.775458,-1.142952,-0.953857,0.021729,-0.352051,0.083684,-0.020979,0.008112,0.999976,0.000904,0.003877,-0.005715,-0.516082,-0.261814,0.535952,-0.614710
57079,NaN,9.322877,-2.125647,1.035307,-1.306541,2.130863,-0.525223,-0.172460,0.801242,-1.308634,-0.948975,0.002686,-0.361816,0.093128,-0.021857,0.009999,0.999970,-0.000862,0.004006,-0.006543,-0.522485,-0.262386,0.532782,-0.611806
57080,NaN,10.400620,-2.168346,1.301228,-1.524053,2.311507,0.526543,-0.576646,0.832158,-1.491925,-0.944336,-0.005859,-0.367920,0.103894,-0.022422,0.012644,0.999959,-0.002883,0.004161,-0.007460,-0.529996,-0.262317,0.530397,-0.607432
57081,NaN,11.464159,-2.093792,1.452878,-1.773310,2.609485,1.499454,-1.023465,0.865639,-1.680659,-0.942139,-0.012207,-0.375977,0.114522,-0.021828,0.014143,0.999942,-0.005117,0.004328,-0.008403,-0.538764,-0.261409,0.529065,-0.601240
57082,NaN,12.411426,-2.143608,1.390495,-1.772240,3.042812,2.359750,-1.558782,0.853701,-1.885498,-0.935303,-0.024902,-0.383789,0.123964,-0.022499,0.013548,0.999916,-0.007794,0.004268,-0.009427,-0.548678,-0.259628,0.528947,-0.593095
57083,NaN,13.346263,-2.139102,1.109597,-1.702057,3.656649,3.135508,-2.178455,0.762776,-2.106105,-0.935059,-0.033447,-0.385742,0.133270,-0.022676,0.010830,0.999878,-0.010892,0.003814,-0.010530,-0.559751,-0.256906,0.530631,-0.582330
57084,NaN,14.581396,-2.332748,0.900386,-1.473855,4.242738,4.282987,-2.781017,0.615195,-2.320569,-0.928223,-0.044189,-0.397949,0.145559,-0.024893,0.008895,0.999831,-0.013904,0.003076,-0.011602,-0.571612,-0.253463,0.533942,-0.569142
57085,NaN,15.479271,-2.731468,0.743251,-0.931135,4.533356,5.226989,-3.392255,0.418740,-2.461192,-0.932373,-0.050537,-0.399902,0.154458,-0.029089,0.007592,0.999778,-0.016960,0.002094,-0.012305,-0.583951,-0.249081,0.539300,-0.553277
57086,NaN,15.196075,-3.314140,0.633097,0.010760,4.194645,5.177253,-3.931922,0.228367,-2.473484,-0.923584,-0.054688,-0.405762,0.151544,-0.034886,0.006832,0.999730,-0.019658,0.001142,-0.012366,-0.596142,-0.243590,0.546289,-0.535581
57087,NaN,13.680024,-4.051505,0.876874,1.094028,2.935935,4.133630,-4.285285,0.015020,-2.401399,-0.927734,-0.056885,-0.405762,0.136303,-0.041953,0.009647,0.999698,-0.021424,0.000075,-0.012006,-0.607691,-0.237233,0.554801,-0.516359
57088,NaN,11.773548,-4.856426,1.383803,2.029035,1.214429,2.777573,-4.366127,-0.239401,-2.324592,-0.929932,-0.061035,-0.405762,0.117145,-0.049608,0.015054,0.999693,-0.021828,-0.001197,-0.011622,-0.618014,-0.230979,0.563880,-0.496736
57089,NaN,10.395681,-5.746533,2.266440,2.617893,-0.721771,1.970556,-4.150569,-0.513359,-2.265164,-0.927734,-0.063232,-0.403564,0.103240,-0.058147,0.024132,0.999717,-0.020751,-0.002567,-0.011325,-0.626811,-0.225713,0.573208,-0.477068
57090,NaN,9.823697,-6.637638,3.440043,2.819719,-2.640240,1.911823,-3.668635,-0.718393,-2.203384,-0.931641,-0.067383,-0.399414,0.097375,-0.066802,0.035974,0.999765,-0.018342,-0.003592,-0.011016,-0.633993,-0.222209,0.581596,-0.458718
57091,NaN,9.764905,-7.426853,4.593776,2.787619,-4.334271,2.230827,-2.985563,-0.851896,-2.103320,-0.933594,-0.073730,-0.395264,0.096666,-0.074588,0.047463,0.999824,-0.014927,-0.004259,-0.010516,-0.639520,-0.220716,0.588918,-0.442125
57092,NaN,10.103241,-7.973356,5.415903,2.676392,-5.498633,2.740165,-2.101457,-0.889343,-1.995353,-0.935547,-0.082275,-0.386963,0.099989,-0.080157,0.055446,0.999885,-0.010507,-0.004447,-0.009976,-0.643549,-0.221829,0.594146,-0.428517
57093,NaN,10.353824,-8.185133,5.790339,2.595127,-6.131630,2.969607,-0.989612,-0.849137,-1.903820,-0.934814,-0.101562,-0.376465,0.102506,-0.082541,0.058747,0.999933,-0.004948,-0.004246,-0.009519,-0.646106,-0.226023,0.597053,-0.418317
57094,NaN,10.424804,-8.110926,5.787964,2.620112,-6.310596,2.886463,0.286428,-0.790764,-1.850877,-0.936279,-0.120605,-0.369873,0.103261,-0.082151,0.058172,0.999948,0.001432,-0.003954,-0.009254,-0.647250,-0.234131,0.596895,-0.412269
57095,NaN,10.288264,-7.709903,5.376660,2.740278,-5.986875,2.468939,1.609283,-0.733549,-1.844601,-0.933350,-0.144043,-0.361328,0.101967,-0.078474,0.053514,0.999918,0.008046,-0.003668,-0.009223,-0.646855,-0.246332,0.593901,-0.410099
57096,NaN,10.059797,-7.089956,5.046492,2.732769,-5.571296,1.952266,2.797233,-0.673711,-1.846467,-0.940918,-0.171631,-0.348633,0.099765,-0.072523,0.049795,0.999854,0.013985,-0.003368,-0.009232,-0.645091,-0.262222,0.587994,-0.411534
57097,NaN,9.579093,-6.275221,4.589697,2.678351,-4.962166,1.159636,3.747462,-0.621482,-1.811408,-0.937500,-0.207764,-0.341797,0.095071,-0.064464,0.044996,0.999779,0.018736,-0.003107,-0.009056,-0.641849,-0.280856,0.579912,-0.415755
57098,NaN,9.091311,-5.448450,4.028965,2.652245,-4.221798,0.370559,4.463646,-0.563158,-1.718833,-0.932373,-0.235352,-0.322998,0.090324,-0.056147,0.039304,0.999710,0.022316,-0.002816,-0.008593,-0.637326,-0.301268,0.569868,-0.422260
57099,NaN,8.433647,-4.798116,3.499397,2.702183,-3.595891,-0.530945,4.826187,-0.529510,-1.556064,-0.937500,-0.271484,-0.305908,0.083864,-0.049464,0.034035,0.999675,0.024128,-0.002647,-0.007779,-0.631570,-0.322115,0.558898,-0.430110
57100,NaN,7.856670,-4.006463,3.019205,2.506853,-2.923820,-1.324199,4.662839,-0.516577,-1.313943,-0.936768,-0.294922,-0.289307,0.078221,-0.041272,0.029442,0.999703,0.023312,-0.002583,-0.006569,-0.625246,-0.341540,0.548230,-0.438021
57101,NaN,7.248639,-3.109216,2.834751,1.989319,-2.504915,-2.066094,4.158503,-0.485318,-1.073213,-0.929443,-0.318359,-0.266357,0.072248,-0.032063,0.027863,0.999767,0.020791,-0.002426,-0.005366,-0.618926,-0.358520,0.538727,-0.445161
57102,NaN,6.570539,-2.127546,2.781911,1.257845,-2.232626,-2.822086,3.439786,-0.479035,-0.861752,-0.926758,-0.333252,-0.253662,0.065545,-0.022034,0.027602,0.999840,0.017198,-0.002395,-0.004309,-0.613280,-0.372510,0.530931,-0.450818
57103,NaN,5.923883,-1.243749,2.751025,0.540424,-2.053065,-3.511954,2.597058,-0.519577,-0.660552,-0.932861,-0.345947,-0.243408,0.059125,-0.012990,0.027498,0.999907,0.012985,-0.002598,-0.003303,-0.608390,-0.383428,0.525425,-0.454724
57104,NaN,5.511552,-0.700774,2.538641,0.152188,-1.794956,-3.975952,1.765980,-0.599295,-0.476089,-0.930176,-0.358887,-0.232910,0.055022,-0.007364,0.025487,0.999954,0.008830,-0.002996,-0.002380,-0.604475,-0.391412,0.522304,-0.456733
57105,NaN,5.335996,-0.869420,2.299295,0.420679,-1.679914,-4.198760,1.149095,-0.673698,-0.322023,-0.930176,-0.361084,-0.224609,0.053268,-0.008913,0.023122,0.999977,0.005745,-0.003368,-0.001610,-0.601117,-0.397256,0.521088,-0.457509
57106,NaN,5.441948,-1.797976,2.108567,1.397324,-1.765666,-4.136126,0.851873,-0.698336,-0.177650,-0.930176,-0.363037,-0.206299,0.054330,-0.018118,0.021199,0.999984,0.004259,-0.003492,-0.000888,-0.597994,-0.401886,0.520885,-0.457788
57107,NaN,5.680095,-3.017358,2.131341,2.595375,-2.096553,-3.915318,0.805219,-0.678254,-0.041487,-0.929932,-0.367432,-0.202148,0.056722,-0.030271,0.021384,0.999986,0.004026,-0.003391,-0.000207,-0.594609,-0.405943,0.520998,-0.458488
57108,NaN,5.903293,-3.869207,2.149626,3.437791,-2.312190,-3.707291,0.954965,-0.614146,0.116604,-0.940430,-0.369385,-0.193848,0.058990,-0.038760,0.021492,0.999984,0.004775,-0.003071,0.000583,-0.590785,-0.409896,0.520871,-0.460057
57109,NaN,6.104464,-4.425153,2.221352,3.979787,-2.481792,-3.505326,1.266269,-0.531936,0.323317,-0.936279,-0.365234,-0.177490,0.061057,-0.044293,0.022096,0.999975,0.006331,-0.002660,0.001617,-0.585962,-0.413993,0.520183,-0.463323
57110,NaN,6.270918,-4.572759,2.131098,4.158631,-2.377679,-3.345202,1.538925,-0.459852,0.584696,-0.940674,-0.363281,-0.177734,0.062794,-0.045707,0.021104,0.999963,0.007695,-0.002299,0.002923,-0.580196,-0.418047,0.519164,-0.468058
57111,NaN,6.202262,-4.175268,1.912935,3.811286,-2.039131,-3.419255,1.743784,-0.404952,0.868386,-0.947021,-0.358887,-0.159424,0.062165,-0.041648,0.018892,0.999951,0.008719,-0.002025,0.004342,-0.573328,-0.421745,0.518060,-0.474384
57112,NaN,6.070516,-3.580782,1.792206,3.232095,-1.766776,-3.542370,1.884073,-0.379241,1.128181,-0.949463,-0.350586,-0.149170,0.060873,-0.035632,0.017701,0.999938,0.009420,-0.001896,0.005641,-0.565653,-0.425113,0.517032,-0.481658
57113,NaN,6.293630,-3.240232,1.833002,2.854557,-1.671121,-3.291399,1.938859,-0.394149,1.342607,-0.954102,-0.342041,-0.147461,0.063117,-0.032155,0.018142,0.999929,0.009694,-0.001971,0.006713,-0.557091,-0.428035,0.516296,-0.489769
57114,NaN,6.922536,-3.280977,2.245379,2.773380,-1.969222,-2.590636,1.933864,-0.405775,1.508048,-0.964844,-0.333496,-0.129150,0.069426,-0.032503,0.022279,0.999923,0.009669,-0.002029,0.007540,-0.548160,-0.430506,0.515885,-0.498044
57115,NaN,7.778439,-3.558021,2.663156,2.901143,-2.279626,-1.649235,1.928506,-0.405209,1.617574,-0.965576,-0.316406,-0.119141,0.078016,-0.035205,0.026449,0.999919,0.009642,-0.002026,0.008088,-0.538786,-0.432543,0.515614,-0.506712
57116,NaN,8.853716,-4.066212,2.809812,3.258691,-2.318517,-0.494874,2.028450,-0.403993,1.700589,-0.978760,-0.301514,-0.109375,0.088824,-0.040191,0.027868,0.999910,0.010142,-0.002020,0.008503,-0.528993,-0.434625,0.515202,-0.515592
57117,NaN,10.284924,-4.910769,2.749198,3.907327,-2.115790,1.036622,2.287727,-0.362177,1.755423,-0.976807,-0.291016,-0.093262,0.103227,-0.048514,0.027121,0.999894,0.011438,-0.001811,0.008777,-0.518343,-0.437004,0.514001,-0.525501
57118,NaN,11.838691,-6.165865,2.641675,4.910179,-1.822191,2.745843,2.697439,-0.261913,1.775593,-0.990234,-0.273926,-0.083252,0.118896,-0.060955,0.025747,0.999869,0.013487,-0.001310,0.008878,-0.507035,-0.440079,0.511411,-0.536382
57119,NaN,13.367304,-7.333304,2.286346,5.781244,-1.175250,4.430854,3.191652,-0.159063,1.721399,-0.990723,-0.257080,-0.075439,0.134282,-0.072533,0.021808,0.999835,0.015957,-0.000795,0.008607,-0.494691,-0.444128,0.506906,-0.548705
57120,NaN,14.843631,-7.787556,1.879754,5.893835,-0.382726,5.986658,3.644505,-0.080441,1.598642,-0.997559,-0.246582,-0.063232,0.149047,-0.077012,0.017449,0.999802,0.018221,-0.000402,0.007993,-0.481902,-0.449240,0.500562,-0.561597
57121,NaN,16.278763,-7.367786,1.526099,5.080047,0.379270,7.381780,3.973581,0.031066,1.453538,-0.997803,-0.238037,-0.059326,0.163321,-0.072776,0.013784,0.999776,0.019866,0.000155,0.007267,-0.468644,-0.454944,0.492433,-0.575246
57122,NaN,17.510149,-6.513283,1.465435,3.849890,0.775347,8.510596,4.084177,0.152540,1.301753,-1.002197,-0.231689,-0.049316,0.175532,-0.064271,0.013202,0.999770,0.020419,0.000763,0.006508,-0.455870,-0.460782,0.483182,-0.588556
57123,NaN,18.413879,-5.613194,1.996869,2.670948,0.498264,9.349143,3.771533,0.315936,1.217891,-0.998291,-0.218994,-0.049561,0.184508,-0.055369,0.018628,0.999802,0.018856,0.001580,0.006089,-0.444102,-0.465342,0.474024,-0.601275
57124,NaN,18.677221,-5.058364,2.802683,2.009802,-0.112585,9.635223,3.144747,0.526359,1.184933,-1.002930,-0.212402,-0.045654,0.187141,-0.049903,0.026746,0.999855,0.015723,0.002632,0.005924,-0.434398,-0.467884,0.466095,-0.612486
57125,NaN,18.435136,-5.055147,3.425279,1.964732,-0.508584,9.500916,2.356849,0.718365,1.131322,-1.007324,-0.204102,-0.045654,0.184755,-0.049901,0.032999,0.999908,0.011784,0.003592,0.005656,-0.426920,-0.468009,0.459885,-0.622264
57126,NaN,17.898208,-5.328169,3.778532,2.209049,-0.628902,9.101064,1.482357,0.902568,1.088008,-1.005615,-0.191162,-0.060303,0.179436,-0.052580,0.036585,0.999948,0.007412,0.004513,0.005440,-0.422111,-0.465856,0.455873,-0.630064
57127,NaN,17.076841,-5.625040,3.952587,2.477615,-0.614054,8.418040,0.586586,1.104650,1.129620,-1.003906,-0.182617,-0.074707,0.171297,-0.055398,0.038417,0.999964,0.002933,0.005523,0.005648,-0.419549,-0.460899,0.454279,-0.636539
57128,NaN,16.027298,-5.699692,3.933543,2.528513,-0.530751,7.454340,-0.289413,1.312266,1.261522,-1.004395,-0.169922,-0.085205,0.160882,-0.055927,0.038363,0.999958,-0.001447,0.006561,0.006308,-0.419156,-0.453248,0.455340,-0.641514
57129,NaN,14.714058,-5.577071,3.475090,2.340435,-0.144473,6.130219,-1.078663,1.493500,1.428143,-1.011475,-0.148682,-0.101807,0.147788,-0.054532,0.033945,0.999932,-0.005393,0.007467,0.007141,-0.420321,-0.442723,0.458873,-0.645572
57130,NaN,13.460637,-5.463554,2.693106,2.105061,0.510388,4.802091,-1.692822,1.609886,1.609669,-1.003174,-0.140137,-0.120361,0.135252,-0.053324,0.026299,0.999899,-0.008464,0.008049,0.008048,-0.422516,-0.430249,0.464475,-0.648560
57131,NaN,12.075002,-5.450160,1.649453,1.992876,1.378907,3.315538,-2.162689,1.679207,1.816722,-1.004150,-0.114502,-0.143311,0.121373,-0.053226,0.016057,0.999865,-0.010813,0.008396,0.009083,-0.425001,-0.415775,0.471795,-0.651087
57132,NaN,10.651503,-5.585302,0.608434,2.117300,2.218246,1.832524,-2.418310,1.679166,2.010882,-1.004883,-0.089111,-0.156006,0.107119,-0.054706,0.005853,0.999841,-0.012091,0.008395,0.010054,-0.427368,-0.400377,0.480210,-0.653034
57133,NaN,9.269384,-5.882747,-0.170881,2.494963,2.794550,0.508089,-2.485967,1.609155,2.190067,-1.003662,-0.063477,-0.170898,0.093317,-0.057829,-0.001735,0.999830,-0.012429,0.008045,0.010950,-0.428859,-0.384290,0.489223,-0.655027
57134,NaN,8.095947,-6.144392,-0.622868,2.878648,3.037884,-0.530105,-2.440697,1.496345,2.365561,-1.000488,-0.031494,-0.191895,0.081633,-0.060556,-0.006095,0.999828,-0.012203,0.007481,0.011827,-0.429379,-0.368321,0.498474,-0.656884
57135,NaN,7.016425,-6.349246,-0.900160,3.232485,3.090203,-1.425137,-2.301854,1.351725,2.534109,-0.995117,-0.001953,-0.210693,0.070902,-0.062699,-0.008754,0.999831,-0.011509,0.006758,0.012670,-0.428390,-0.352395,0.507774,-0.659140
57136,NaN,6.039744,-6.447147,-0.986426,3.500294,2.942732,-2.190261,-2.074273,1.192950,2.679204,-0.996338,0.032227,-0.215332,0.061197,-0.063755,-0.009564,0.999839,-0.010371,0.005964,0.013395,-0.426166,-0.337178,0.516699,-0.661601
57137,NaN,5.253423,-6.294466,-1.001345,3.488637,2.735335,-2.843837,-1.801355,1.019780,2.785090,-0.993164,0.059814,-0.219971,0.053355,-0.062294,-0.009721,0.999849,-0.009006,0.005099,0.013925,-0.422394,-0.322474,0.525192,-0.664656
57138,NaN,4.638247,-6.020990,-0.958205,3.326062,2.502574,-3.381932,-1.504290,0.846532,2.862737,-0.983643,0.091553,-0.230713,0.047199,-0.059609,-0.009331,0.999860,-0.007521,0.004232,0.014313,-0.417460,-0.308937,0.532951,-0.668018
57139,NaN,4.176461,-5.629783,-0.863766,3.007279,2.255663,-3.833691,-1.233900,0.682802,2.903003,-0.978516,0.127686,-0.231201,0.042547,-0.055736,-0.008437,0.999870,-0.006169,0.003414,0.014514,-0.411190,-0.296143,0.540175,-0.671888
57140,NaN,3.822657,-5.239848,-0.732525,2.662545,2.007158,-4.201574,-0.999909,0.521077,2.939288,-0.975342,0.157471,-0.235840,0.038973,-0.051865,-0.007166,0.999876,-0.004999,0.002605,0.014696,-0.404142,-0.284377,0.546754,-0.675913
57141,NaN,3.584381,-4.881070,-0.558798,2.297383,1.754748,-4.462436,-0.786218,0.383294,2.953401,-0.967773,0.187012,-0.240479,0.036549,-0.048296,-0.005467,0.999881,-0.003931,0.001916,0.014766,-0.395961,-0.273210,0.552913,-0.680337
57142,NaN,3.427114,-4.525013,-0.368019,1.910789,1.510178,-4.672430,-0.591392,0.259329,2.938728,-0.958008,0.214600,-0.234619,0.034926,-0.044751,-0.003592,0.999887,-0.002957,0.001297,0.014693,-0.387434,-0.263018,0.558369,-0.684792
57143,NaN,3.403953,-4.247654,-0.092951,1.517650,1.225260,-4.730217,-0.407669,0.164533,2.895549,-0.954834,0.242188,-0.243408,0.034649,-0.041980,-0.000872,0.999893,-0.002038,0.000823,0.014477,-0.378181,-0.253386,0.563338,-0.689510
57144,NaN,3.424609,-3.980571,0.147446,1.122964,0.987224,-4.777102,-0.244526,0.093110,2.834473,-0.945068,0.267822,-0.241699,0.034806,-0.039313,0.001507,0.999899,-0.001223,0.000466,0.014172,-0.368931,-0.244609,0.567545,-0.694225
57145,NaN,3.432481,-3.777145,0.385424,0.793263,0.754448,-4.812969,-0.112190,0.049521,2.753429,-0.939697,0.297363,-0.238037,0.034841,-0.037292,0.003867,0.999905,-0.000561,0.000248,0.013767,-0.359426,-0.236199,0.571275,-0.699048
57146,NaN,3.427742,-3.662411,0.514157,0.561930,0.632695,-4.841824,-0.000616,0.025718,2.654613,-0.929932,0.322754,-0.240479,0.034760,-0.036165,0.005137,0.999912,-0.000003,0.000129,0.013273,-0.350177,-0.228520,0.574322,-0.703782
57147,NaN,3.561665,-3.582238,0.638689,0.271362,0.550329,-4.758190,0.104439,0.018984,2.537264,-0.924072,0.335693,-0.242920,0.036068,-0.035370,0.006365,0.999919,0.000522,0.000095,0.012686,-0.340875,-0.221162,0.576923,-0.708556
57148,NaN,3.837872,-3.597669,0.659844,-0.029318,0.610720,-4.546500,0.175156,0.017417,2.390214,-0.916260,0.354736,-0.245117,0.038806,-0.035520,0.006564,0.999928,0.000876,0.000087,0.011951,-0.332226,-0.214503,0.578880,-0.713100
57149,NaN,4.392663,-3.588557,0.625980,-0.538898,0.784568,-4.186157,0.257719,0.048561,2.193270,-0.910645,0.375977,-0.245605,0.044318,-0.035409,0.006203,0.999939,0.001289,0.000243,0.010966,-0.324179,-0.208297,0.580278,-0.717494
57150,NaN,5.184142,-3.556003,0.683470,-1.242097,0.922501,-3.681410,0.379939,0.127768,1.943024,-0.900635,0.395020,-0.249756,0.052188,-0.035067,0.006735,0.999951,0.001900,0.000639,0.009715,-0.317155,-0.202822,0.580709,-0.721840
57151,NaN,6.145560,-3.643043,0.636976,-1.983054,1.219942,-3.028632,0.495996,0.249555,1.669988,-0.888428,0.405518,-0.251953,0.061765,-0.035931,0.006203,0.999961,0.002480,0.001248,0.008350,-0.311262,-0.197735,0.580278,-0.726150
57152,NaN,7.191701,-3.756645,0.567216,-2.769075,1.575925,-2.329233,0.594793,0.403878,1.409303,-0.886475,0.414062,-0.258301,0.072191,-0.037075,0.005416,0.999969,0.002974,0.002019,0.007046,-0.306706,-0.193115,0.578871,-0.730443
57153,NaN,8.358051,-4.053942,0.459574,-3.523357,2.040614,-1.450685,0.650273,0.540701,1.198358,-0.882568,0.420410,-0.264648,0.083833,-0.040052,0.004239,0.999973,0.003251,0.002703,0.005992,-0.303222,-0.188567,0.576888,-0.734642
57154,NaN,9.413848,-4.390123,0.552436,-4.190141,2.313871,-0.577643,0.574170,0.622067,1.062724,-0.870117,0.428955,-0.279053,0.094386,-0.043415,0.005106,0.999977,0.002871,0.003110,0.005314,-0.300551,-0.184099,0.574830,-0.738477
57155,NaN,10.178724,-4.436459,0.808151,-4.849748,2.328575,-0.066006,0.294692,0.657338,1.015889,-0.870361,0.437256,-0.279053,0.102037,-0.043858,0.007682,0.999981,0.001473,0.003287,0.005079,-0.298481,-0.179128,0.573724,-0.741393
57156,NaN,10.213998,-4.305084,0.651637,-5.046695,2.531986,-0.252217,-0.001938,0.690046,0.999293,-0.860107,0.445801,-0.285400,0.102375,-0.042540,0.006164,0.999982,-0.000010,0.003450,0.004996,-0.296739,-0.173713,0.573591,-0.743481
57157,NaN,9.552723,-4.374554,0.508761,-4.576664,2.578260,-0.699203,-0.130504,0.732267,0.940753,-0.856201,0.452148,-0.297607,0.095749,-0.043292,0.004766,0.999982,-0.000653,0.003661,0.004704,-0.295490,-0.168079,0.573901,-0.745032
57158,NaN,9.020628,-4.713182,0.348146,-4.018930,2.711873,-0.857238,-0.120686,0.721392,0.824256,-0.852051,0.458496,-0.299805,0.090411,-0.046758,0.003184,0.999985,-0.000603,0.003607,0.004121,-0.294573,-0.162862,0.573974,-0.746496
57159,NaN,9.178105,-5.135079,0.377565,-3.945731,2.850417,-0.482374,-0.021881,0.671839,0.706537,-0.850342,0.467041,-0.303955,0.091974,-0.051026,0.003473,0.999988,-0.000109,0.003359,0.003533,-0.294036,-0.158281,0.573662,-0.747932
57160,NaN,9.799745,-5.472779,0.921773,-4.339480,2.609569,0.246844,0.038143,0.650089,0.671533,-0.837402,0.464844,-0.310059,0.098210,-0.054400,0.008888,0.999989,0.000191,0.003250,0.003358,-0.293344,-0.153995,0.573093,-0.749532
57161,NaN,10.313493,-5.655740,1.568167,-4.765124,2.226596,0.824486,0.016177,0.674830,0.720433,-0.831543,0.477783,-0.322510,0.103390,-0.056187,0.015329,0.999988,0.000081,0.003374,0.003602,-0.292731,-0.149456,0.572667,-0.751015
57162,NaN,10.362601,-5.918790,1.890235,-4.759972,2.051437,1.101594,0.054744,0.718373,0.763289,-0.823242,0.479736,-0.324707,0.103918,-0.058797,0.018513,0.999986,0.000274,0.003592,0.003816,-0.291864,-0.144669,0.571978,-0.752813
57163,NaN,10.281003,-6.478489,2.138915,-4.466978,1.977538,1.517751,0.220893,0.746119,0.723539,-0.821289,0.488281,-0.328857,0.103122,-0.064435,0.020934,0.999986,0.001104,0.003731,0.003618,-0.291263,-0.140053,0.570558,-0.754993
57164,NaN,10.223434,-7.304222,2.584325,-4.054878,1.787061,2.225250,0.358097,0.749524,0.602098,-0.814941,0.488281,-0.339111,0.102549,-0.072779,0.025329,0.999987,0.001790,0.003748,0.003010,-0.290862,-0.136044,0.568533,-0.757404
57165,NaN,10.555138,-8.348380,3.227481,-3.833500,1.578514,3.390881,0.412453,0.723239,0.407239,-0.808838,0.490479,-0.349365,0.105837,-0.083334,0.031720,0.999989,0.002062,0.003616,0.002036,-0.291242,-0.132732,0.566263,-0.759544
57166,NaN,11.355253,-9.691110,4.239683,-3.840231,1.230361,5.173039,0.328598,0.662409,0.167866,-0.808594,0.488281,-0.355469,0.113773,-0.096885,0.041861,0.999993,0.001643,0.003312,0.000839,-0.292248,-0.130237,0.564162,-0.761151
57167,NaN,12.423384,-10.952487,4.954311,-4.043028,1.216775,6.950832,0.019816,0.551321,-0.101419,-0.808594,0.486084,-0.357422,0.124314,-0.109593,0.049190,0.999996,0.000099,0.002757,-0.000507,-0.294358,-0.128451,0.563224,-0.761336
57168,NaN,13.158362,-11.648968,5.172803,-4.215154,1.410748,7.959225,-0.323828,0.377464,-0.438178,-0.810791,0.486084,-0.357422,0.131426,-0.116694,0.051669,0.999995,-0.001619,0.001887,-0.002191,-0.297284,-0.127790,0.563621,-0.760016
57169,NaN,13.231335,-11.888461,5.033729,-4.026553,1.578879,8.160483,-0.598741,0.157385,-0.799474,-0.808350,0.481934,-0.355225,0.131877,-0.119261,0.050590,0.999987,-0.002994,0.000787,-0.003997,-0.301338,-0.128588,0.565240,-0.757076
57170,NaN,12.715701,-12.247647,5.140802,-3.297087,1.289064,8.231320,-0.829421,-0.057823,-1.045066,-0.818848,0.477783,-0.343018,0.126501,-0.122924,0.051954,0.999978,-0.004147,-0.000289,-0.005225,-0.305646,-0.130527,0.567787,-0.753101
57171,NaN,11.729508,-12.688041,5.555738,-2.180999,0.506422,8.198872,-1.018102,-0.222076,-1.118218,-0.822754,0.469238,-0.342773,0.116522,-0.127248,0.056334,0.999971,-0.005090,-0.001110,-0.005591,-0.309999,-0.132956,0.571390,-0.748156
57172,NaN,10.509444,-12.732942,6.041297,-1.153176,-0.518069,7.722145,-1.107585,-0.343787,-1.089252,-0.829102,0.469238,-0.334717,0.104295,-0.127561,0.061299,0.999968,-0.005538,-0.001719,-0.005446,-0.313807,-0.135653,0.575329,-0.743048
57173,NaN,9.153849,-12.416747,6.122295,-0.207318,-1.267348,6.734144,-1.005319,-0.429006,-1.017477,-0.833252,0.462891,-0.322266,0.090774,-0.124320,0.062043,0.999972,-0.005027,-0.002145,-0.005087,-0.317121,-0.138556,0.579156,-0.738115
57174,NaN,7.796452,-12.105180,5.848822,0.783018,-1.643164,5.621452,-0.693825,-0.479341,-0.941834,-0.845703,0.456543,-0.316162,0.077253,-0.121212,0.059094,0.999980,-0.003469,-0.002397,-0.004709,-0.319672,-0.141969,0.581818,-0.734263
57175,NaN,6.382103,-11.962432,5.594812,1.912570,-1.980186,4.593977,-0.248819,-0.503463,-0.862776,-0.849854,0.452148,-0.313965,0.063163,-0.119828,0.056257,0.999987,-0.001244,-0.002517,-0.004314,-0.321607,-0.145882,0.583087,-0.731640
57176,NaN,5.070853,-11.827223,5.218162,2.989665,-2.093659,3.585189,0.238361,-0.516908,-0.769552,-0.855713,0.443848,-0.313965,0.050118,-0.118528,0.052171,0.999989,0.001192,-0.002585,-0.003848,-0.322726,-0.150418,0.582484,-0.730709
57177,NaN,4.041604,-11.552286,4.999982,3.735668,-2.223093,2.672940,0.690191,-0.513557,-0.654612,-0.855713,0.439453,-0.307617,0.039909,-0.115826,0.049703,0.999985,0.003451,-0.002568,-0.003273,-0.323132,-0.155256,0.580382,-0.731189
57178,NaN,3.324298,-11.135538,4.917534,4.131983,-2.345604,1.877320,1.081256,-0.503501,-0.515795,-0.861816,0.431152,-0.311768,0.032832,-0.111704,0.048655,0.999979,0.005406,-0.002517,-0.002579,-0.322698,-0.160357,0.576836,-0.733084
57179,NaN,3.016704,-10.377389,4.921253,3.975673,-2.439075,1.107580,1.343745,-0.491047,-0.384789,-0.865723,0.422607,-0.315674,0.029847,-0.104159,0.048587,0.999973,0.006719,-0.002455,-0.001924,-0.321576,-0.165323,0.572486,-0.735878
57180,NaN,2.869374,-9.588667,4.858682,3.680680,-2.412623,0.405542,1.533514,-0.457937,-0.274287,-0.863525,0.418457,-0.317627,0.028452,-0.096295,0.047915,0.999967,0.007667,-0.002290,-0.001371,-0.319984,-0.170273,0.567340,-0.739420
57181,NaN,2.713220,-8.929023,4.868742,3.454905,-2.436051,-0.173153,1.668673,-0.391671,-0.190244,-0.867188,0.407715,-0.315430,0.026953,-0.089718,0.047993,0.999963,0.008343,-0.001958,-0.000951,-0.318097,-0.174805,0.561663,-0.743500
57182,NaN,2.445316,-8.555706,4.787921,3.503800,-2.358143,-0.633139,1.731557,-0.312861,-0.109495,-0.875488,0.401367,-0.319336,0.024332,-0.085981,0.047174,0.999961,0.008658,-0.001564,-0.000547,-0.316088,-0.179042,0.555611,-0.747882
57183,NaN,2.079050,-8.276206,4.531377,3.686119,-2.126914,-1.138704,1.752772,-0.226071,-0.036471,-0.875244,0.388672,-0.325439,0.020725,-0.083159,0.044610,0.999961,0.008764,-0.001130,-0.000182,-0.313980,-0.182668,0.549482,-0.752409
57184,NaN,1.596070,-8.030132,4.216375,3.967166,-1.863825,-1.713685,1.814992,-0.141685,0.025696,-0.873047,0.390869,-0.337646,0.015942,-0.080678,0.041444,0.999959,0.009075,-0.000708,0.000128,-0.311812,-0.185992,0.542883,-0.757271
57185,NaN,1.124810,-7.905483,3.957416,4.301295,-1.624282,-2.178463,1.849462,-0.080943,0.103360,-0.868408,0.380127,-0.343506,0.011273,-0.079410,0.038845,0.999957,0.009247,-0.000405,0.000517,-0.309445,-0.188822,0.536129,-0.762336
57186,NaN,0.756185,-7.811352,3.652999,4.568378,-1.308225,-2.577367,1.825559,-0.040854,0.208807,-0.870361,0.375977,-0.345459,0.007636,-0.078435,0.035817,0.999958,0.009128,-0.000204,0.001044,-0.306792,-0.191254,0.529414,-0.767477
57187,NaN,0.374792,-7.531003,3.314625,4.701742,-1.017523,-3.126905,1.774294,-0.031626,0.328001,-0.870361,0.371826,-0.353760,0.003867,-0.075594,0.032477,0.999959,0.008871,-0.000158,0.001640,-0.303696,-0.193119,0.522973,-0.772640
57188,NaN,-0.077049,-7.086487,3.057248,4.762961,-0.879790,-3.803557,1.709035,-0.062882,0.444458,-0.868164,0.369629,-0.355713,-0.000622,-0.071124,0.029965,0.999961,0.008545,-0.000314,0.002222,-0.300142,-0.194808,0.516880,-0.777689
57189,NaN,-0.495383,-6.571646,2.890092,4.741852,-0.856719,-4.468139,1.615838,-0.137062,0.556958,-0.868164,0.371826,-0.357666,-0.004790,-0.065961,0.028365,0.999963,0.008079,-0.000685,0.002785,-0.295993,-0.196220,0.511393,-0.782537
57190,NaN,-0.963166,-6.133820,2.613119,4.805930,-0.742315,-5.151056,1.500757,-0.261140,0.674192,-0.865967,0.369629,-0.363770,-0.009458,-0.061564,0.025657,0.999965,0.007504,-0.001306,0.003371,-0.291194,-0.197753,0.506556,-0.787084
57191,NaN,-1.268106,-5.787644,2.373844,4.803781,-0.607999,-5.654177,1.396532,-0.442028,0.774106,-0.863770,0.367432,-0.365723,-0.012508,-0.058089,0.023306,0.999966,0.006983,-0.002210,0.003870,-0.285559,-0.199434,0.502577,-0.791264
57192,NaN,-1.256332,-5.480190,2.179974,4.588133,-0.433524,-5.923792,1.294413,-0.662937,0.844072,-0.863770,0.365479,-0.363770,-0.012403,-0.054994,0.021403,0.999965,0.006472,-0.003315,0.004220,-0.279243,-0.201797,0.499232,-0.795028
57193,NaN,-1.107428,-5.326557,2.172826,4.372435,-0.355494,-5.930085,1.189211,-0.865090,0.878335,-0.866211,0.373779,-0.351562,-0.010933,-0.053442,0.021363,0.999963,0.005946,-0.004325,0.004392,-0.272361,-0.204619,0.496636,-0.798313
57194,NaN,-1.046780,-5.320349,2.247514,4.324047,-0.329862,-5.857123,1.049353,-1.011829,0.884279,-0.868408,0.378174,-0.349609,-0.010345,-0.053366,0.022143,0.999964,0.005247,-0.005059,0.004421,-0.265225,-0.207904,0.494717,-0.801053
57195,NaN,-0.975516,-5.517029,2.217696,4.386820,-0.141546,-5.684401,0.946088,-1.118263,0.849671,-0.862061,0.380127,-0.343506,-0.009643,-0.055315,0.021861,0.999964,0.004730,-0.005591,0.004248,-0.257994,-0.211439,0.493475,-0.803253
57196,NaN,-0.849633,-5.996663,2.202265,4.581943,0.154957,-5.283547,0.965115,-1.188948,0.794982,-0.868652,0.384521,-0.339600,-0.008387,-0.060105,0.021683,0.999963,0.004826,-0.005945,0.003975,-0.250827,-0.215511,0.491959,-0.805367
57197,NaN,-0.662832,-6.749052,2.181370,4.888760,0.583434,-4.664248,1.055749,-1.247069,0.713067,-0.866455,0.382324,-0.337402,-0.006522,-0.067628,0.021416,0.999960,0.005279,-0.006235,0.003565,-0.243648,-0.219962,0.490140,-0.807475
57198,NaN,-0.580012,-7.572550,1.790850,5.268733,1.374160,-4.223566,1.216224,-1.296154,0.601020,-0.875000,0.384521,-0.331299,-0.005686,-0.075850,0.017410,0.999956,0.006081,-0.006481,0.003005,-0.236685,-0.225215,0.487453,-0.809721
57199,NaN,-0.676443,-8.381658,1.239963,5.738366,2.305664,-3.981678,1.546272,-1.352547,0.438800,-0.877197,0.384521,-0.323242,-0.006661,-0.083924,0.011706,0.999945,0.007731,-0.006763,0.002194,-0.229807,-0.231291,0.483297,-0.812476
57200,NaN,-0.808742,-9.394824,0.642653,6.326648,3.411473,-3.675760,1.973697,-1.444124,0.262134,-0.878906,0.373779,-0.312744,-0.008006,-0.094016,0.005441,0.999924,0.009868,-0.007220,0.001311,-0.222941,-0.238796,0.477210,-0.815809
57201,NaN,-0.740679,-10.632718,0.017182,6.845432,4.729598,-3.151675,2.298627,-1.575526,0.144699,-0.880859,0.367432,-0.308594,-0.007324,-0.106325,-0.001108,0.999903,0.011493,-0.007877,0.000723,-0.215769,-0.247248,0.469833,-0.819493
57202,NaN,-0.301588,-12.184758,-0.486743,7.232726,6.195317,-2.190757,2.509730,-1.737351,0.116242,-0.884766,0.358887,-0.306396,-0.002894,-0.121775,-0.006421,0.999883,0.012548,-0.008686,0.000581,-0.208073,-0.256793,0.461518,-0.823265
57203,NaN,0.608602,-14.264426,-0.972934,7.496644,8.018289,-0.631964,2.782409,-1.923895,0.129557,-0.888672,0.350342,-0.296143,0.006284,-0.142487,-0.011653,0.999857,0.013911,-0.009619,0.000648,-0.199482,-0.267027,0.452300,-0.827241
57204,NaN,2.153256,-16.777381,-0.662533,7.647625,9.544578,1.889846,3.282023,-2.088386,0.191796,-0.898926,0.339844,-0.289795,0.021780,-0.167617,-0.009150,0.999810,0.016409,-0.010441,0.000959,-0.189536,-0.278475,0.440983,-0.831903
57205,NaN,4.190223,-18.969539,-0.273846,7.192461,10.998194,4.496480,3.775490,-2.305605,0.289918,-0.909180,0.331299,-0.279541,0.042232,-0.189544,-0.005832,0.999754,0.018876,-0.011527,0.001449,-0.178006,-0.290606,0.427970,-0.837081
57206,NaN,6.623561,-19.844569,-0.282539,5.503422,12.144728,6.309842,4.299575,-2.499690,0.441055,-0.910889,0.322754,-0.273193,0.066737,-0.198189,-0.006256,0.999688,0.021496,-0.012497,0.002205,-0.164499,-0.303881,0.412712,-0.842773
57207,NaN,9.288607,-19.742837,0.145367,3.199767,12.332767,7.898869,4.803269,-2.555296,0.731709,-0.913086,0.320801,-0.262939,0.093619,-0.197065,-0.002089,0.999623,0.024013,-0.012775,0.003658,-0.148920,-0.316582,0.395833,-0.849067
57208,NaN,11.496420,-18.836268,0.760297,0.878746,11.754137,8.857589,4.963826,-2.475622,1.185958,-0.919189,0.312256,-0.256592,0.116012,-0.187812,0.004368,0.999598,0.024816,-0.012376,0.005929,-0.131060,-0.328333,0.378327,-0.855505
57209,NaN,12.636257,-17.550214,1.238753,-0.874454,10.841633,8.919152,4.766291,-2.332040,1.653726,-0.915039,0.314209,-0.252686,0.127686,-0.174702,0.009701,0.999614,0.023828,-0.011659,0.008268,-0.111867,-0.337749,0.362410,-0.861435
57210,NaN,12.618679,-16.216264,1.526061,-1.824454,9.891396,8.168791,4.323201,-2.224231,2.050635,-0.919434,0.320801,-0.246582,0.127688,-0.161158,0.013184,0.999652,0.021613,-0.011120,0.010252,-0.091657,-0.345936,0.348374,-0.866350
57211,NaN,12.063158,-15.390598,1.558750,-2.237807,9.367856,7.276302,3.789880,-2.135590,2.343087,-0.915771,0.337646,-0.236572,0.122271,-0.152755,0.013985,0.999695,0.018947,-0.010677,0.011714,-0.071572,-0.352253,0.337347,-0.870053
57212,NaN,11.353302,-14.923826,1.342270,-2.502506,9.195058,6.391858,3.258869,-2.092572,2.570946,-0.914062,0.348145,-0.228760,0.115309,-0.147969,0.012205,0.999730,0.016293,-0.010462,0.012854,-0.051091,-0.358113,0.328360,-0.872539
57213,NaN,11.012098,-14.669077,0.888434,-3.084630,9.186343,5.785769,2.754087,-2.081625,2.778402,-0.910400,0.367188,-0.216797,0.112059,-0.145257,0.008037,0.999755,0.013769,-0.010407,0.013891,-0.030968,-0.362783,0.322278,-0.873823
57214,NaN,10.751686,-14.358058,0.424985,-3.737332,9.033594,5.231771,2.304394,-2.068009,3.003536,-0.896240,0.390625,-0.206787,0.109617,-0.141990,0.003734,0.999767,0.011521,-0.010339,0.015017,-0.010318,-0.367274,0.317906,-0.874036
57215,NaN,10.174830,-13.688551,-0.005849,-4.201703,8.561933,4.326528,1.956722,-2.065396,3.206388,-0.888672,0.411621,-0.197021,0.103928,-0.135229,-0.000321,0.999770,0.009783,-0.010326,0.016031,0.010173,-0.370750,0.315832,-0.873322
57216,NaN,9.406950,-12.910305,-0.244950,-4.384367,7.915437,3.352617,1.707214,-2.085666,3.359653,-0.883057,0.439209,-0.181152,0.096246,-0.127477,-0.002546,0.999768,0.008535,-0.010428,0.016797,0.031307,-0.374403,0.314427,-0.871767
57217,NaN,8.693876,-11.864037,-0.375986,-4.516483,6.982817,2.324013,1.532588,-2.120730,3.456582,-0.869141,0.462646,-0.169189,0.089011,-0.117085,-0.003725,0.999765,0.007662,-0.010603,0.017282,0.052101,-0.377397,0.314418,-0.869482
57218,NaN,8.003130,-10.923540,-0.488801,-4.567218,6.143584,1.367202,1.451899,-2.156040,3.497127,-0.857422,0.492188,-0.161377,0.081977,-0.107778,-0.004797,0.999763,0.007259,-0.010779,0.017484,0.073429,-0.380829,0.314070,-0.866567
57219,NaN,7.419481,-10.009130,-0.516454,-4.559986,5.280641,0.521840,1.421778,-2.179458,3.514228,-0.839355,0.523926,-0.145508,0.075993,-0.098730,-0.005048,0.999761,0.007108,-0.010896,0.017570,0.094230,-0.383633,0.314376,-0.863200
