// Start Time: Unknown
// Update Rate: 100.0Hz
// Filter Profile: human (46.1)
// Firmware Version: 4.4.0
PacketCounter,SampleTimeFine,Acc_X,Acc_Y,Acc_Z,FreeAcc_X,FreeAcc_Y,FreeAcc_Z,Gyr_X,Gyr_Y,Gyr_Z,Mag_X,Mag_Y,Mag_Z,VelInc_X,VelInc_Y,VelInc_Z,OriInc_q0,OriInc_q1,OriInc_q2,OriInc_q3,Quat_q0,Quat_q1,Quat_q2,Quat_q3
04277,NaN,5.808454,-5.091072,1.448045,-0.000000,0.000000,-1.954317,-1.791034,1.494931,-0.518561,-0.835938,0.229492,-0.438965,0.058061,-0.050931,0.014502,0.999929,-0.008955,0.007474,-0.002593,-0.530125,-0.057919,0.635902,-0.557890
04278,NaN,5.781472,-5.530347,1.877635,-0.078460,-0.805461,-1.634624,-1.698859,1.389847,-0.699595,-0.833984,0.233887,-0.447266,0.057752,-0.055346,0.018845,0.999934,-0.008494,0.006949,-0.003498,0.549165,0.039382,-0.650343,0.523374
04279,NaN,5.850552,-5.966855,2.105709,0.018964,-1.160213,-1.273382,-1.583263,1.242537,-0.906582,-0.827393,0.229492,-0.453369,0.058366,-0.059766,0.021167,0.999939,-0.007916,0.006213,-0.004533,0.555856,0.034729,-0.650857,0.515949
04280,NaN,6.032785,-6.351975,2.439658,-0.027355,-1.515628,-0.846316,-1.343211,1.056694,-1.119264,-0.827393,0.225342,-0.465332,0.060101,-0.063692,0.024506,0.999948,-0.006716,0.005283,-0.005596,0.562424,0.031419,-0.650856,0.508997
04281,NaN,6.214988,-6.660626,2.808456,-0.131332,-1.890021,-0.469915,-1.092141,0.808735,-1.329969,-0.827148,0.223145,-0.465332,0.061820,-0.066864,0.028199,0.999955,-0.005461,0.004044,-0.006650,0.568587,0.030616,-0.651123,0.501807
04282,NaN,6.202464,-6.857764,3.037423,-0.115233,-2.205181,-0.333859,-0.875995,0.527811,-1.538428,-0.829346,0.218994,-0.465332,0.061576,-0.068919,0.030513,0.999957,-0.004380,0.002639,-0.007692,0.573702,0.031667,-0.650556,0.496628
04283,NaN,6.203107,-7.247962,3.261218,0.027298,-2.670978,-0.091056,-0.600793,0.206196,-1.791982,-0.833008,0.202148,-0.471191,0.061413,-0.072933,0.032767,0.999955,-0.003004,0.001031,-0.008960,0.578892,0.035259,-0.651143,0.489544
04284,NaN,7.245502,-8.386910,4.252607,-0.190788,-3.452668,1.543394,-0.214742,-0.138971,-2.054479,-0.843018,0.185059,-0.466797,0.071559,-0.084562,0.042667,0.999946,-0.001074,-0.000695,-0.010272,0.581143,0.042633,-0.649282,0.488762
04285,NaN,9.150385,-9.719829,5.931214,-1.024737,-4.537332,4.034270,-0.050671,-0.514186,-2.165158,-0.848633,0.166016,-0.462402,0.090292,-0.098165,0.059570,0.999938,-0.000253,-0.002571,-0.010826,0.584740,0.050768,-0.650398,0.482166
04286,NaN,10.871233,-10.276016,6.781250,-1.507501,-4.605012,5.880453,-0.064868,-0.937789,-2.161929,-0.856689,0.151123,-0.451904,0.107274,-0.103903,0.068351,0.999931,-0.000324,-0.004689,-0.010809,0.581193,0.063553,-0.646953,0.489518
04287,NaN,12.178621,-10.417203,7.239791,-1.973282,-4.728336,7.009454,0.151600,-1.292279,-2.129129,-0.860107,0.132080,-0.435303,0.120197,-0.105512,0.073098,0.999922,0.000758,-0.006461,-0.010645,0.582130,0.074039,-0.649610,0.483373
04288,NaN,13.417935,-10.719958,7.946712,-2.146269,-4.755347,8.377129,0.537230,-1.519631,-2.023353,-0.878662,0.114990,-0.427002,0.132477,-0.108760,0.080187,0.999916,0.002686,-0.007598,-0.010116,0.572755,0.092913,-0.641007,0.502423
04289,NaN,14.227890,-10.942942,8.733937,-2.511932,-5.495914,9.211699,0.892013,-1.591393,-1.819502,-0.886475,0.093750,-0.414307,0.140575,-0.111105,0.087969,0.999917,0.004460,-0.007957,-0.009097,0.571764,0.105289,-0.642425,0.499290
04290,NaN,14.275667,-10.792896,8.500565,-1.749923,-4.922644,9.298287,1.175294,-1.577584,-1.541661,-0.892090,0.076904,-0.399658,0.141243,-0.109523,0.085483,0.999922,0.005876,-0.007888,-0.007708,0.557176,0.128354,-0.626166,0.530091
04291,NaN,13.745677,-10.545875,7.564343,-0.950512,-4.594525,8.499977,1.479056,-1.529929,-1.206373,-0.897949,0.057617,-0.387207,0.136235,-0.106844,0.075902,0.999925,0.007395,-0.007649,-0.006032,0.554592,0.140296,-0.625687,0.530340
04292,NaN,12.898181,-10.326708,6.230255,0.549813,-3.100271,7.562565,1.796197,-1.487845,-0.833244,-0.912109,0.044922,-0.374756,0.128085,-0.104362,0.062324,0.999923,0.008981,-0.007439,-0.004166,0.534750,0.164997,-0.602744,0.568786
04293,NaN,11.922379,-9.985141,4.963285,1.433399,-2.412081,6.268485,2.079621,-1.458544,-0.488647,-0.913818,0.030029,-0.362305,0.118617,-0.100657,0.049456,0.999916,0.010398,-0.007293,-0.002443,0.529984,0.176164,-0.600276,0.572496
04294,NaN,10.941405,-9.179471,4.207974,1.825698,-1.172789,4.917336,2.303885,-1.447382,-0.185490,-0.917725,0.021484,-0.343750,0.109025,-0.092379,0.041808,0.999907,0.011519,-0.007237,-0.000927,0.506750,0.199488,-0.575686,0.609913
04295,NaN,9.984456,-7.907549,3.829577,1.394601,-0.975502,3.377719,2.430491,-1.452283,0.069551,-0.926025,0.015137,-0.333496,0.099595,-0.079504,0.038055,0.999900,0.012152,-0.007261,0.000348,0.499883,0.209855,-0.571966,0.615576
04296,NaN,9.098781,-6.403600,3.784346,0.650622,-0.592868,1.906523,2.400796,-1.443572,0.300180,-0.929932,0.006592,-0.322998,0.090812,-0.064353,0.037728,0.999901,0.012004,-0.007218,0.001501,0.476307,0.229532,-0.550094,0.646408
04297,NaN,8.197804,-5.074394,4.006539,-0.092798,-1.055306,0.574001,2.196615,-1.413166,0.517820,-0.936279,0.006592,-0.308838,0.081827,-0.050972,0.040085,0.999911,0.010983,-0.007066,0.002589,0.468184,0.237886,-0.546905,0.652003
04298,NaN,7.291599,-4.105678,4.471678,-0.475523,-1.575277,-0.468594,1.873173,-1.336775,0.696941,-0.936279,0.008789,-0.296631,0.072760,-0.041222,0.044818,0.999928,0.009366,-0.006684,0.003485,0.446695,0.253016,-0.529065,0.675675
04299,NaN,6.334043,-3.497821,4.652872,-0.543757,-2.122608,-1.493865,1.502283,-1.220197,0.845744,-0.938477,0.008789,-0.286377,0.063204,-0.035061,0.046651,0.999944,0.007511,-0.006101,0.004229,0.438685,0.258242,-0.527755,0.679956
04300,NaN,5.458806,-3.283553,4.460742,-0.158483,-2.095291,-2.325159,1.195353,-1.097883,0.983291,-0.942871,0.017334,-0.278320,0.054504,-0.032834,0.044711,0.999955,0.005977,-0.005489,0.004916,0.418987,0.269306,-0.512590,0.699411
04301,NaN,4.685780,-3.367660,4.072822,0.320884,-1.978693,-3.040146,0.936077,-0.960214,1.134062,-0.947510,0.023682,-0.266113,0.046853,-0.033602,0.040796,0.999961,0.004680,-0.004801,0.005670,0.411284,0.271708,-0.512835,0.702866
04302,NaN,4.064804,-3.568029,3.618058,0.887747,-1.546158,-3.554490,0.739581,-0.837393,1.248753,-0.949951,0.034180,-0.264404,0.040719,-0.035560,0.036219,0.999965,0.003698,-0.004187,0.006244,0.392464,0.279682,-0.499728,0.719738
04303,NaN,3.651049,-3.695639,3.061604,1.180299,-1.118085,-4.005967,0.785277,-0.706241,1.303445,-0.946045,0.046875,-0.252197,0.036643,-0.036838,0.030600,0.999965,0.003926,-0.003531,0.006517,0.384897,0.280497,-0.500093,0.723245
04304,NaN,3.619946,-3.920056,2.696964,1.371923,-0.572115,-4.021762,0.999377,-0.598979,1.280626,-0.950439,0.053223,-0.244141,0.036369,-0.039103,0.026883,0.999963,0.004997,-0.002995,0.006403,0.368072,0.286627,-0.487633,0.737957
04305,NaN,3.900797,-3.172964,2.422146,0.544324,-0.414746,-4.273529,1.017726,-0.490114,1.264960,-0.948730,0.061768,-0.246338,0.039149,-0.031605,0.024156,0.999964,0.005089,-0.002451,0.006325,0.360738,0.287214,-0.486576,0.742038
04306,NaN,4.088166,-1.912232,2.020684,-0.650073,-0.273946,-4.918286,1.059764,-0.350491,1.217467,-0.946777,0.070312,-0.242432,0.040962,-0.018980,0.020178,0.999966,0.005299,-0.001752,0.006087,0.344562,0.291945,-0.475664,0.754844
04307,NaN,3.996889,-0.950492,1.720732,-1.427180,-0.322614,-5.605731,1.007370,-0.274945,1.165443,-0.943115,0.084961,-0.234375,0.040000,-0.009359,0.017215,0.999969,0.005037,-0.001375,0.005827,0.338028,0.291937,-0.474023,0.758823
04308,NaN,3.551924,-0.217470,1.474051,-1.787481,-0.449577,-6.430531,0.613771,-0.246642,1.175961,-0.945312,0.087158,-0.236572,0.035513,-0.002011,0.014778,0.999977,0.003069,-0.001233,0.005880,0.325891,0.293771,-0.466765,0.767870
04309,NaN,2.636588,0.330480,1.285639,-1.697376,-0.696658,-7.500289,0.150705,-0.239927,1.198248,-0.947998,0.102051,-0.234863,0.026330,0.003453,0.012891,0.999981,0.000754,-0.001200,0.005991,0.320503,0.292136,-0.468329,0.769807
04310,NaN,2.050511,0.230665,1.210334,-1.264896,-0.746928,-7.924626,-0.213616,-0.287998,1.201188,-0.948486,0.119141,-0.230957,0.020473,0.002443,0.012130,0.999980,-0.001068,-0.001440,0.006006,0.309519,0.294038,-0.464591,0.775819
04311,NaN,2.243060,-0.563920,1.108753,-0.825205,-0.334909,-7.407394,-0.476709,-0.373494,1.167154,-0.942627,0.129639,-0.222900,0.022442,-0.005482,0.011143,0.999978,-0.002384,-0.001867,0.005836,0.304818,0.292031,-0.468724,0.775952
04312,NaN,3.279836,-1.582248,0.966861,-0.795858,0.373374,-6.148995,-0.660938,-0.398929,1.096560,-0.947266,0.144531,-0.219238,0.032865,-0.015610,0.009786,0.999978,-0.003305,-0.001995,0.005483,0.297261,0.290598,-0.469335,0.779047
04313,NaN,4.739834,-2.478585,0.891354,-1.146208,1.022664,-4.612309,-0.652997,-0.335758,0.984198,-0.945312,0.148682,-0.223389,0.047504,-0.024523,0.009074,0.999981,-0.003265,-0.001679,0.004921,0.293582,0.288620,-0.473799,0.778475
04314,NaN,6.207515,-3.370126,0.980685,-1.505944,1.527079,-3.011771,-0.552044,-0.198693,0.876081,-0.939453,0.163574,-0.219482,0.062212,-0.033402,0.009961,0.999986,-0.002760,-0.000993,0.004380,0.288468,0.288024,-0.474192,0.780366
04315,NaN,7.985319,-4.221549,1.396294,-2.066470,1.750503,-1.083349,-0.432131,0.001857,0.788344,-0.941895,0.174316,-0.219727,0.080019,-0.041870,0.014053,0.999990,-0.002161,0.000009,0.003942,0.286016,0.285521,-0.477006,0.780473
04316,NaN,10.380555,-4.644656,1.474849,-3.404267,2.267923,0.900428,-0.372616,0.276098,0.664624,-0.935547,0.176270,-0.221680,0.103979,-0.046074,0.014691,0.999992,-0.001863,0.001380,0.003323,0.286502,0.282310,-0.478056,0.780820
04317,NaN,13.069714,-4.868215,0.482148,-5.306014,3.745043,2.539216,-0.279887,0.598175,0.490403,-0.931641,0.182617,-0.219727,0.130830,-0.048355,0.004498,0.999992,-0.001399,0.002991,0.002452,0.286410,0.278399,-0.478980,0.781691
04318,NaN,15.238400,-5.186919,-1.436503,-6.872344,6.070775,3.494890,-0.122729,0.867136,0.278557,-0.933838,0.187012,-0.234131,0.152392,-0.051666,-0.014994,0.999989,-0.000614,0.004336,0.001393,0.288937,0.275126,-0.478715,0.782082
04319,NaN,16.520971,-5.419481,-3.625936,-7.949309,8.507757,3.599424,0.040032,1.012506,0.085711,-0.929688,0.184814,-0.244385,0.165046,-0.054117,-0.037106,0.999987,0.000200,0.005063,0.000429,0.290966,0.271016,-0.477208,0.783685
04320,NaN,17.059787,-5.375776,-4.998914,-8.348606,10.006933,3.419222,0.133177,1.043274,-0.030664,-0.925293,0.182617,-0.252441,0.170326,-0.053750,-0.050914,0.999986,0.000666,0.005216,-0.000153,0.298834,0.267595,-0.478523,0.781093
04321,NaN,17.070671,-5.363881,-5.079039,-8.359922,10.231813,3.279085,-0.000014,1.039883,-0.044499,-0.921143,0.184814,-0.262695,0.170428,-0.053677,-0.051677,0.999986,-0.000000,0.005199,-0.000222,0.301492,0.263636,-0.476904,0.782408
04322,NaN,16.204330,-5.560887,-4.428475,-7.220605,9.649792,3.143304,-0.389889,1.007010,0.024063,-0.916992,0.187012,-0.272949,0.161825,-0.055677,-0.044991,0.999985,-0.001949,0.005035,0.000120,0.312865,0.258727,-0.483860,0.775278
04323,NaN,15.179129,-5.512762,-3.448904,-6.451269,8.602427,2.720071,-0.866482,0.922490,0.113215,-0.915039,0.191162,-0.279053,0.151662,-0.055192,-0.034950,0.999980,-0.004332,0.004612,0.000566,0.315772,0.253516,-0.485913,0.774536
04324,NaN,14.307799,-5.008094,-2.515807,-5.853683,7.393187,2.319846,-1.340444,0.790680,0.188457,-0.911377,0.208252,-0.277344,0.143025,-0.050116,-0.025388,0.999969,-0.006702,0.003953,0.000942,0.328646,0.247071,-0.498442,0.763219
04325,NaN,13.360724,-4.396869,-1.685493,-5.639407,6.235413,1.589023,-1.769158,0.675145,0.246014,-0.911377,0.206055,-0.285400,0.133604,-0.043954,-0.016917,0.999954,-0.008846,0.003376,0.001230,0.331560,0.240962,-0.504366,0.760014
04326,NaN,12.169542,-4.023572,-0.920451,-4.869527,5.051047,0.953403,-2.135688,0.610855,0.298285,-0.907471,0.220947,-0.285645,0.121727,-0.040152,-0.009147,0.999937,-0.010678,0.003054,0.001491,0.345759,0.232904,-0.521513,0.744467
04327,NaN,10.956160,-3.942831,-0.210270,-4.174097,4.015199,0.290900,-2.394793,0.581008,0.343647,-0.903564,0.227295,-0.283691,0.109623,-0.039264,-0.001950,0.999923,-0.011974,0.002905,0.001718,0.348755,0.225685,-0.529783,0.739436
04328,NaN,9.775328,-3.985303,0.290813,-3.284051,3.091484,-0.263782,-2.568205,0.576636,0.393859,-0.901611,0.235840,-0.279785,0.097840,-0.039621,0.003136,0.999911,-0.012841,0.002883,0.001969,0.360034,0.217866,-0.546278,0.724217
04329,NaN,8.618131,-3.844246,0.497334,-2.713508,2.500985,-1.113306,-2.636587,0.614963,0.461352,-0.895752,0.250732,-0.286133,0.086285,-0.038176,0.005213,0.999906,-0.013183,0.003075,0.002307,0.362880,0.209610,-0.555169,0.718449
04330,NaN,7.462899,-3.607951,0.482050,-2.114457,2.034241,-2.045124,-2.578509,0.667498,0.549771,-0.892090,0.267578,-0.280273,0.074744,-0.035810,0.005034,0.999908,-0.012892,0.003337,0.002749,0.372135,0.200724,-0.569722,0.704728
04331,NaN,6.419857,-3.356556,0.262893,-1.660466,1.882563,-3.012051,-2.404703,0.740108,0.621571,-0.886230,0.280273,-0.276367,0.064313,-0.033333,0.002793,0.999916,-0.012023,0.003700,0.003108,0.374434,0.191851,-0.577395,0.699720
04332,NaN,5.477817,-3.146044,-0.056648,-1.145719,1.795173,-3.865269,-2.151276,0.795225,0.665419,-0.886719,0.292969,-0.282715,0.054881,-0.031283,-0.000447,0.999929,-0.010756,0.003976,0.003327,0.382244,0.182841,-0.590003,0.687281
04333,NaN,4.790050,-3.072819,-0.357261,-0.737854,1.854324,-4.471209,-1.806183,0.855953,0.672845,-0.878662,0.305664,-0.285156,0.047989,-0.030599,-0.003501,0.999944,-0.009031,0.004280,0.003364,0.384085,0.174448,-0.595157,0.683985
04334,NaN,4.501498,-3.114361,-0.440118,-0.497457,1.780141,-4.641613,-1.406006,0.920473,0.623894,-0.876709,0.312256,-0.293213,0.045092,-0.031034,-0.004390,0.999960,-0.007030,0.004602,0.003119,0.389017,0.167792,-0.602819,0.676107
04335,NaN,4.463503,-3.190865,-0.790780,-0.353332,2.105873,-4.697003,-1.032232,0.983563,0.544824,-0.868408,0.316406,-0.293457,0.044683,-0.031828,-0.007963,0.999971,-0.005161,0.004918,0.002724,0.390992,0.160807,-0.604836,0.674863
04336,NaN,4.518082,-3.230024,-1.121434,-0.254904,2.413695,-4.692848,-0.620117,1.070272,0.444996,-0.864502,0.324951,-0.301758,0.045192,-0.032235,-0.011356,0.999978,-0.003101,0.005351,0.002225,0.395750,0.154873,-0.608141,0.670494
04337,NaN,4.255377,-3.229625,-1.350353,-0.023252,2.571698,-4.939512,-0.226685,1.154918,0.338229,-0.858398,0.329102,-0.309814,0.042530,-0.032240,-0.013713,0.999981,-0.001133,0.005775,0.001691,0.398293,0.149514,-0.606866,0.671358
04338,NaN,3.899395,-3.317625,-1.515266,0.354922,2.592501,-5.158584,0.094629,1.227637,0.228697,-0.854004,0.329102,-0.324219,0.038938,-0.033124,-0.015407,0.999980,0.000473,0.006138,0.001143,0.404031,0.144514,-0.607519,0.668427
04339,NaN,3.569225,-3.464305,-1.313916,0.625469,2.322751,-5.265110,0.353912,1.294746,0.117705,-0.847900,0.331299,-0.332275,0.035626,-0.034598,-0.013431,0.999977,0.001770,0.006474,0.000589,0.407304,0.140533,-0.603792,0.670663
04340,NaN,3.404011,-3.549207,-0.683262,0.635515,1.684260,-5.185584,0.428256,1.342687,0.034702,-0.847656,0.327148,-0.344482,0.033999,-0.035471,-0.007137,0.999975,0.002141,0.006713,0.000174,0.413206,0.136334,-0.602529,0.669054
04341,NaN,3.230203,-3.395878,-0.138722,0.482703,1.178741,-5.300178,0.351664,1.390717,-0.046186,-0.837158,0.327148,-0.358887,0.032283,-0.033963,-0.001671,0.999974,0.001758,0.006954,-0.000231,0.417298,0.132534,-0.598431,0.670952
04342,NaN,3.156684,-3.274872,0.325983,0.326103,0.747164,-5.325944,0.242437,1.446579,-0.184809,-0.836914,0.324951,-0.373047,0.031559,-0.032782,0.002992,0.999973,0.001212,0.007233,-0.000924,0.425026,0.127946,-0.597146,0.668132
04343,NaN,3.486485,-3.490130,0.952910,0.095527,0.348250,-4.801305,0.090095,1.485117,-0.351577,-0.826172,0.320557,-0.381104,0.034873,-0.034967,0.009254,0.999971,0.000450,0.007426,-0.001758,0.430562,0.124212,-0.593445,0.668588
04344,NaN,4.226870,-4.172010,1.677261,-0.069985,-0.025022,-3.641832,-0.131599,1.498666,-0.528939,-0.815430,0.314209,-0.395264,0.042282,-0.041821,0.016483,0.999968,-0.000658,0.007493,-0.002645,0.439347,0.119696,-0.592693,0.664351
04345,NaN,5.066233,-4.996287,2.110254,-0.082465,-0.064490,-2.391671,-0.398153,1.508994,-0.686231,-0.819824,0.316406,-0.401611,0.050648,-0.050095,0.020820,0.999964,-0.001991,0.007545,-0.003431,0.446319,0.115827,-0.590267,0.662547
04346,NaN,5.764377,-5.821041,2.405175,0.049542,-0.091818,-1.275346,-0.568312,1.490266,-0.849106,-0.812988,0.303711,-0.409424,0.057574,-0.058387,0.023788,0.999959,-0.002842,0.007451,-0.004245,0.456385,0.110531,-0.590705,0.656173
04347,NaN,6.448171,-6.657010,2.659501,0.240157,-0.060319,-0.173920,-0.637786,1.426006,-1.029534,-0.815186,0.308105,-0.419678,0.064327,-0.066817,0.026349,0.999956,-0.003189,0.007130,-0.005148,0.464305,0.107421,-0.588947,0.652704
04348,NaN,7.376330,-7.675173,3.051019,0.418689,-0.137915,1.252217,-0.678802,1.286239,-1.232112,-0.808594,0.295166,-0.425781,0.073484,-0.077102,0.030298,0.999955,-0.003394,0.006431,-0.006160,0.475838,0.103992,-0.589583,0.644326
04349,NaN,8.605402,-8.862137,3.468774,0.577329,-0.087400,3.004509,-0.803550,1.089989,-1.378632,-0.808350,0.293213,-0.435791,0.085630,-0.089074,0.034578,0.999953,-0.004018,0.005450,-0.006893,0.483887,0.102615,-0.588831,0.639219
04350,NaN,9.946817,-10.000334,3.911870,0.672954,-0.123565,4.808475,-0.964544,0.834436,-1.466646,-0.810059,0.280518,-0.435547,0.098896,-0.100541,0.039189,0.999953,-0.004823,0.004172,-0.007333,0.493901,0.101030,-0.591010,0.629732
04351,NaN,11.066399,-11.048429,4.219325,0.881535,-0.137164,6.359407,-1.194189,0.504918,-1.451531,-0.812256,0.278320,-0.437744,0.109967,-0.111031,0.042577,0.999953,-0.005971,0.002525,-0.007258,0.500541,0.100762,-0.592759,0.622850
04352,NaN,11.607109,-11.878849,4.386411,1.272219,-0.453100,7.311687,-1.381838,0.135820,-1.351270,-0.814209,0.273926,-0.431396,0.115296,-0.119263,0.044609,0.999953,-0.006909,0.000679,-0.006756,0.508161,0.100244,-0.597541,0.612101
04353,NaN,11.741657,-12.273767,4.661536,1.417716,-0.952218,7.717828,-1.470010,-0.241922,-1.199470,-0.816406,0.276123,-0.423340,0.116622,-0.123091,0.047661,0.999954,-0.007350,-0.001210,-0.005997,0.511822,0.100814,-0.602023,0.604519
04354,NaN,11.923508,-12.273821,5.012166,1.168919,-1.532601,7.913450,-1.438502,-0.594104,-1.030046,-0.824463,0.267578,-0.410889,0.118451,-0.122983,0.051358,0.999956,-0.007192,-0.002970,-0.005150,0.515401,0.101855,-0.608978,0.594250
04355,NaN,12.094504,-12.006718,5.225266,0.758601,-1.851161,7.899783,-1.286823,-0.907917,-0.858333,-0.828857,0.271973,-0.404785,0.120188,-0.120242,0.053573,0.999960,-0.006434,-0.004540,-0.004292,0.515820,0.103830,-0.614678,0.587640
04356,NaN,12.101090,-11.610919,5.322090,0.384240,-2.178289,7.642251,-0.988579,-1.143491,-0.673108,-0.834961,0.265625,-0.390625,0.120311,-0.116248,0.054484,0.999966,-0.004943,-0.005717,-0.003366,0.516291,0.106668,-0.621224,0.579782
04357,NaN,11.810704,-11.211636,5.321120,0.181843,-2.453096,7.141724,-0.536687,-1.264824,-0.501929,-0.843506,0.269775,-0.382324,0.117484,-0.112267,0.054257,0.999973,-0.002683,-0.006324,-0.002510,0.514087,0.110489,-0.625759,0.576136
04358,NaN,11.117566,-10.727292,5.241416,0.185817,-2.797335,6.258568,0.057772,-1.295363,-0.347346,-0.849609,0.259277,-0.370117,0.110647,-0.107481,0.053101,0.999977,0.000289,-0.006477,-0.001737,0.511830,0.115930,-0.629128,0.573401
04359,NaN,10.065096,-10.100088,4.838598,0.431833,-2.862093,4.964013,0.716696,-1.270677,-0.192500,-0.855957,0.261230,-0.364014,0.100245,-0.101272,0.048661,0.999973,0.003583,-0.006353,-0.000962,0.507953,0.121993,-0.630196,0.574417
04360,NaN,8.828439,-9.215782,4.177033,0.762660,-2.635007,3.332427,1.409650,-1.227667,-0.040815,-0.864014,0.250732,-0.355713,0.088010,-0.092470,0.041660,0.999956,0.007048,-0.006138,-0.000204,0.503986,0.129959,-0.629065,0.577396
04361,NaN,7.578520,-8.099990,3.702206,0.826065,-2.412058,1.599970,2.060403,-1.175601,0.109515,-0.861572,0.239990,-0.353271,0.075614,-0.081337,0.036630,0.999930,0.010302,-0.005878,0.000548,0.498595,0.138174,-0.626106,0.583354
04362,NaN,6.410906,-7.066504,3.422230,0.849647,-2.306579,0.021085,2.610058,-1.105275,0.238370,-0.863770,0.238037,-0.351318,0.064007,-0.071030,0.033651,0.999899,0.013050,-0.005526,0.001192,0.493215,0.147850,-0.620918,0.591051
04363,NaN,5.342893,-6.088795,3.025208,0.893351,-2.048329,-1.459477,3.106671,-1.046550,0.362370,-0.869629,0.227295,-0.349121,0.053384,-0.061254,0.029582,0.999864,0.015533,-0.005233,0.001812,0.486529,0.157441,-0.614501,0.600742
04364,NaN,4.484384,-5.341816,2.582499,1.030916,-1.712639,-2.649169,3.494608,-0.995139,0.477840,-0.873291,0.212402,-0.346924,0.044846,-0.053754,0.025111,0.999832,0.017472,-0.004975,0.002389,0.479502,0.168197,-0.606179,0.611829
04365,NaN,3.867138,-4.782975,2.220676,1.126742,-1.395709,-3.524332,3.770285,-0.949485,0.575958,-0.877441,0.206055,-0.344727,0.038707,-0.048128,0.021485,0.999807,0.018850,-0.004747,0.002880,0.471597,0.178345,-0.597289,0.623727
04366,NaN,3.509581,-4.297561,2.045867,1.073614,-1.171676,-4.116674,3.841041,-0.940328,0.684687,-0.875000,0.193359,-0.346436,0.035149,-0.043240,0.019795,0.999799,0.019204,-0.004701,0.003423,0.463563,0.188916,-0.587465,0.635849
04367,NaN,3.198956,-3.536552,1.979564,0.702853,-1.029190,-4.802204,3.651234,-0.932093,0.785366,-0.878906,0.184814,-0.346436,0.032038,-0.035595,0.019296,0.999815,0.018255,-0.004660,0.003927,0.454791,0.197983,-0.578651,0.647403
04368,NaN,3.030841,-2.724690,1.969381,0.189290,-0.935365,-5.388078,3.389732,-0.910774,0.847418,-0.880859,0.182861,-0.344238,0.030336,-0.027449,0.019368,0.999837,0.016948,-0.004554,0.004237,0.446301,0.206746,-0.569929,0.658219
04369,NaN,2.967657,-2.144145,1.971446,-0.214603,-0.883273,-5.755042,3.112108,-0.897769,0.897192,-0.882812,0.180664,-0.340088,0.029685,-0.021613,0.019512,0.999859,0.015560,-0.004489,0.004486,0.437507,0.214043,-0.562538,0.668075
04370,NaN,2.934525,-1.685122,1.868660,-0.518263,-0.762295,-6.058597,2.734290,-0.905079,0.931055,-0.884766,0.174316,-0.333984,0.029340,-0.016969,0.018588,0.999885,0.013671,-0.004525,0.004655,0.429093,0.221039,-0.555769,0.676861
04371,NaN,2.918221,-1.271006,1.639968,-0.794571,-0.548122,-6.364619,2.288425,-0.908201,0.966296,-0.882812,0.176270,-0.333984,0.029169,-0.012757,0.016386,0.999913,0.011442,-0.004541,0.004831,0.420730,0.226302,-0.550993,0.684238
04372,NaN,2.784562,-0.955521,1.394922,-0.935411,-0.375184,-6.714809,1.825106,-0.907743,0.988823,-0.884766,0.174316,-0.325684,0.027829,-0.009545,0.013988,0.999936,0.009125,-0.004539,0.004944,0.412994,0.231116,-0.547213,0.690347
04373,NaN,2.722188,-0.762172,1.314287,-1.053711,-0.342271,-6.898741,1.348220,-0.906496,1.003558,-0.887207,0.184814,-0.321777,0.027200,-0.007574,0.013215,0.999954,0.006741,-0.004532,0.005018,0.405470,0.234257,-0.545566,0.695036
04374,NaN,2.645635,-0.639190,1.247893,-1.108806,-0.329752,-7.050994,0.888119,-0.905964,0.991527,-0.889648,0.191162,-0.313721,0.026431,-0.006317,0.012571,0.999968,0.004441,-0.004530,0.004958,0.398718,0.237126,-0.544941,0.698451
04375,NaN,2.834073,-0.799000,1.073016,-1.082772,-0.115087,-6.873978,0.464114,-0.912221,0.932458,-0.889648,0.191162,-0.307617,0.028328,-0.007883,0.010841,0.999976,0.002321,-0.004561,0.004662,0.392414,0.238675,-0.546232,0.700483
04376,NaN,3.218338,-1.243280,0.960414,-0.949713,0.120592,-6.361712,0.153478,-0.884222,0.810636,-0.898438,0.199707,-0.301758,0.032191,-0.012310,0.009737,0.999982,0.000767,-0.004421,0.004053,0.387178,0.240528,-0.547875,0.701479
04377,NaN,3.946095,-1.850071,0.988656,-0.912007,0.328141,-5.450085,-0.017954,-0.800166,0.620001,-0.892334,0.208252,-0.293701,0.039478,-0.018377,0.010046,0.999987,-0.000090,-0.004001,0.003100,0.382825,0.241583,-0.550226,0.701665
04378,NaN,5.101798,-2.588890,0.985444,-1.006230,0.698715,-4.138099,-0.095156,-0.655452,0.367500,-0.896484,0.208252,-0.291504,0.051033,-0.025790,0.010034,0.999993,-0.000476,-0.003277,0.001837,0.384156,0.240177,-0.553161,0.699108
04379,NaN,6.509943,-3.313994,0.984388,-1.268067,1.114565,-2.637691,-0.117972,-0.470796,0.078242,-0.898682,0.206055,-0.287598,0.065089,-0.033109,0.010017,0.999997,-0.000590,-0.002354,0.000391,0.382719,0.241365,-0.554570,0.698370
04380,NaN,8.362738,-4.200192,1.243764,-1.637247,1.429414,-0.625738,-0.140644,-0.270190,-0.230702,-0.900635,0.201904,-0.281250,0.083562,-0.042090,0.012580,0.999998,-0.000703,-0.001351,-0.001154,0.387090,0.240309,-0.556154,0.695058
04381,NaN,10.988780,-5.270638,1.438085,-2.291440,2.017432,2.073437,-0.212539,-0.050750,-0.515089,-0.902344,0.195312,-0.281250,0.109748,-0.052974,0.014465,0.999996,-0.001063,-0.000254,-0.002575,0.388991,0.241491,-0.556369,0.693413
04382,NaN,14.016805,-6.858648,0.765124,-2.554108,3.620173,5.169529,-0.170941,0.194111,-0.823503,-0.906250,0.184814,-0.282959,0.139891,-0.069156,0.007574,0.999991,-0.000855,0.000971,-0.004118,0.395704,0.241314,-0.556171,0.689826
04383,NaN,16.945305,-8.695061,-0.617391,-2.403550,5.911616,8.142807,0.022289,0.388968,-1.174328,-0.906006,0.178467,-0.284912,0.168926,-0.087943,-0.006513,0.999981,0.000111,0.001945,-0.005872,0.400801,0.243264,-0.553895,0.688027
04384,NaN,19.294203,-9.529580,-1.773727,-2.539093,7.810247,10.156506,0.197112,0.535075,-1.469771,-0.914062,0.165771,-0.291016,0.192186,-0.096692,-0.018347,0.999969,0.000986,0.002675,-0.007349,0.409809,0.244884,-0.550953,0.684499
04385,NaN,20.551978,-9.197157,-2.520389,-3.066773,8.974830,10.763001,0.169188,0.675299,-1.543196,-0.913574,0.150879,-0.298828,0.204715,-0.093531,-0.025975,0.999964,0.000846,0.003376,-0.007716,0.416729,0.247150,-0.547079,0.682612
04386,NaN,19.552854,-8.031623,-2.919557,-3.024015,9.103217,9.248308,-0.024692,0.796769,-1.430169,-0.913330,0.138184,-0.300781,0.194829,-0.081715,-0.029963,0.999966,-0.000123,0.003984,-0.007151,0.426319,0.247642,-0.544533,0.678535
04387,NaN,17.740108,-6.295773,-2.840701,-3.278435,8.498742,6.903604,-0.264951,0.784767,-1.266726,-0.914795,0.123291,-0.312744,0.176884,-0.064117,-0.029017,0.999971,-0.001325,0.003924,-0.006334,0.433071,0.247845,-0.542172,0.676071
04388,NaN,16.519558,-4.475550,-2.585177,-3.933987,7.873896,5.091360,-0.470045,0.678886,-1.126920,-0.910400,0.119141,-0.312744,0.164851,-0.045746,-0.026305,0.999976,-0.002350,0.003394,-0.005635,0.441600,0.247258,-0.541887,0.670978
04389,NaN,15.862377,-2.923471,-2.064608,-4.825944,7.198738,3.946293,-0.610646,0.590369,-1.023772,-0.906006,0.112793,-0.314453,0.158409,-0.030110,-0.021023,0.999978,-0.003053,0.002952,-0.005119,0.447382,0.246688,-0.541351,0.667783
04390,NaN,14.979627,-2.086995,-1.155431,-5.036054,6.085778,3.136404,-0.758979,0.529280,-0.951511,-0.912354,0.110596,-0.322754,0.149663,-0.021627,-0.011869,0.999978,-0.003795,0.002646,-0.004758,0.455072,0.245636,-0.542684,0.661866
04391,NaN,13.841423,-2.089706,-0.302909,-4.507213,4.943537,2.487253,-0.887054,0.455844,-0.902091,-0.897217,0.102051,-0.322510,0.138311,-0.021535,-0.003250,0.999977,-0.004435,0.002279,-0.004510,0.460375,0.244543,-0.543458,0.657956
04392,NaN,12.728917,-2.579035,0.461957,-3.537394,3.849950,2.084955,-0.917966,0.361571,-0.855032,-0.903564,0.104248,-0.328613,0.127186,-0.026313,0.004510,0.999979,-0.004590,0.001808,-0.004275,0.467870,0.243129,-0.545920,0.651120
04393,NaN,11.687256,-2.949092,1.151200,-2.790222,2.837186,1.623166,-0.869405,0.295270,-0.810942,-0.907471,0.093750,-0.328613,0.116769,-0.029915,0.011469,0.999981,-0.004347,0.001476,-0.004055,0.472368,0.242335,-0.547059,0.647201
04394,NaN,10.602504,-2.879901,1.738902,-2.380094,1.893961,0.886769,-0.793743,0.258463,-0.760903,-0.903076,0.091553,-0.334717,0.105937,-0.029133,0.017367,0.999984,-0.003969,0.001292,-0.003804,0.479181,0.241222,-0.549419,0.640575
04395,NaN,9.595194,-2.606677,2.098846,-2.211364,1.217502,0.030838,-0.771829,0.234169,-0.713167,-0.907471,0.093750,-0.330566,0.095883,-0.026328,0.020977,0.999986,-0.003859,0.001171,-0.003566,0.483036,0.240571,-0.550457,0.637023
04396,NaN,8.780548,-2.427125,2.236899,-1.986371,0.796241,-0.679622,-0.845113,0.222573,-0.650843,-0.909424,0.091553,-0.332520,0.087751,-0.024462,0.022374,0.999985,-0.004226,0.001113,-0.003254,0.489482,0.239022,-0.553118,0.630346
04397,NaN,8.161245,-2.549698,2.219547,-1.590909,0.573636,-1.142442,-0.962805,0.235707,-0.574840,-0.905273,0.091553,-0.334717,0.081565,-0.025625,0.022222,0.999984,-0.004814,0.001179,-0.002874,0.493092,0.237502,-0.554874,0.626552
04398,NaN,7.692260,-2.892814,2.094069,-1.025498,0.457322,-1.406527,-1.078830,0.267767,-0.503566,-0.905029,0.085205,-0.336670,0.076878,-0.029009,0.020994,0.999981,-0.005394,0.001339,-0.002518,0.499119,0.235017,-0.558150,0.619771
04399,NaN,7.310495,-3.282184,1.846030,-0.455246,0.487685,-1.616422,-1.130089,0.309468,-0.431296,-0.903076,0.087402,-0.336670,0.073063,-0.032875,0.018533,0.999981,-0.005650,0.001547,-0.002156,0.502641,0.232430,-0.560356,0.615897
04400,NaN,6.887952,-3.549534,1.570769,0.048657,0.514571,-1.923250,-1.102771,0.357702,-0.360135,-0.905273,0.091553,-0.340820,0.068844,-0.035532,0.015780,0.999982,-0.005514,0.001788,-0.001801,0.508479,0.229047,-0.563503,0.609468
04401,NaN,6.427042,-3.658888,1.267220,0.412781,0.595640,-2.344422,-1.015018,0.410943,-0.295359,-0.898926,0.091553,-0.342773,0.064242,-0.036619,0.012726,0.999984,-0.005075,0.002055,-0.001477,0.511695,0.226037,-0.565199,0.606322
04402,NaN,5.875972,-3.659105,1.011387,0.720443,0.594542,-2.879689,-0.873871,0.453164,-0.249534,-0.898926,0.089355,-0.350830,0.058737,-0.036620,0.010141,0.999987,-0.004369,0.002266,-0.001248,0.517196,0.222384,-0.567511,0.600820
04403,NaN,5.407967,-3.632977,0.848445,0.926872,0.571389,-3.333574,-0.691557,0.506586,-0.206304,-0.896729,0.091553,-0.351074,0.054064,-0.036356,0.008473,0.999990,-0.003458,0.002533,-0.001032,0.520022,0.219652,-0.568038,0.598885
04404,NaN,4.986387,-3.620570,0.836729,1.094290,0.406637,-3.704507,-0.527043,0.557636,-0.165599,-0.901123,0.093750,-0.355225,0.049857,-0.036225,0.008324,0.999992,-0.002635,0.002788,-0.000828,0.525278,0.216075,-0.569066,0.594607
04405,NaN,4.687616,-3.500724,0.824174,1.107570,0.338724,-4.019017,-0.376689,0.604126,-0.134034,-0.896973,0.097900,-0.363281,0.046877,-0.035023,0.008166,0.999993,-0.001883,0.003021,-0.000670,0.527804,0.213664,-0.568445,0.593836
04406,NaN,4.592161,-3.314130,0.824017,0.999668,0.334940,-4.187845,-0.269373,0.641946,-0.118117,-0.894775,0.093750,-0.373535,0.045928,-0.033157,0.008137,0.999994,-0.001347,0.003210,-0.000591,0.532455,0.210692,-0.568415,0.590767
04407,NaN,4.716205,-3.178796,0.668286,0.906292,0.572202,-4.187290,-0.179254,0.674333,-0.122779,-0.886475,0.097900,-0.371582,0.047165,-0.031811,0.006552,0.999994,-0.000896,0.003372,-0.000614,0.534924,0.208565,-0.567010,0.590640
04408,NaN,5.163012,-3.186442,0.596553,0.816902,0.816923,-3.826772,-0.099271,0.707952,-0.129699,-0.888428,0.095947,-0.381592,0.051630,-0.031895,0.005799,0.999993,-0.000496,0.003540,-0.000648,0.539931,0.205349,-0.566367,0.587822
04409,NaN,5.653786,-3.240163,0.484314,0.761003,1.131681,-3.422182,-0.076619,0.706681,-0.138919,-0.884277,0.091553,-0.383545,0.056532,-0.032439,0.004656,0.999993,-0.000383,0.003533,-0.000695,0.542420,0.203451,-0.564533,0.587955
04410,NaN,6.141642,-3.203233,0.372959,0.651703,1.449316,-3.060340,-0.077455,0.690052,-0.175716,-0.884033,0.087402,-0.387695,0.061401,-0.032085,0.003530,0.999994,-0.000387,0.003450,-0.000879,0.547072,0.200820,-0.563690,0.585352
04411,NaN,6.464934,-3.311877,0.521404,0.612927,1.456998,-2.703743,-0.141166,0.663362,-0.249027,-0.877930,0.093750,-0.397949,0.064625,-0.033196,0.005023,0.999993,-0.000706,0.003317,-0.001245,0.549813,0.199186,-0.562029,0.584939
04412,NaN,6.923643,-3.290036,0.975763,0.323032,1.263248,-2.196062,-0.266194,0.654566,-0.355754,-0.879883,0.087402,-0.399902,0.069209,-0.033011,0.009575,0.999992,-0.001331,0.003273,-0.001779,0.554835,0.196802,-0.561585,0.581420
04413,NaN,7.385352,-3.248090,1.399184,0.016843,1.122440,-1.701529,-0.382972,0.636087,-0.488811,-0.875488,0.085205,-0.406006,0.073818,-0.032635,0.013819,0.999990,-0.001915,0.003180,-0.002444,0.558418,0.195254,-0.560441,0.579612
04414,NaN,7.956297,-3.398546,1.724993,-0.093226,1.042242,-1.052938,-0.461394,0.565396,-0.590316,-0.877441,0.083252,-0.409912,0.079511,-0.034181,0.017104,0.999989,-0.002307,0.002827,-0.002952,0.563808,0.193435,-0.560478,0.574950
04415,NaN,8.520685,-3.640207,1.837983,-0.043082,1.129620,-0.434349,-0.572964,0.490054,-0.661993,-0.875244,0.078857,-0.414062,0.085131,-0.036631,0.018276,0.999987,-0.002865,0.002450,-0.003310,0.567636,0.192257,-0.560091,0.571948
04416,NaN,8.934541,-3.781027,1.991600,-0.031345,1.109446,0.028884,-0.672980,0.411559,-0.739436,-0.870850,0.074707,-0.416016,0.089246,-0.038073,0.019860,0.999985,-0.003365,0.002058,-0.003697,0.573013,0.190837,-0.560934,0.566207
04417,NaN,9.168744,-3.949702,2.127084,0.051354,1.024961,0.342948,-0.732776,0.299676,-0.854996,-0.868652,0.070312,-0.411865,0.091550,-0.039811,0.021279,0.999983,-0.003664,0.001498,-0.004275,0.576968,0.190278,-0.561319,0.561982
04418,NaN,9.606818,-4.298419,2.329005,0.230451,0.871319,0.928756,-0.737637,0.142002,-1.027078,-0.870605,0.066162,-0.419922,0.095863,-0.043391,0.023381,0.999980,-0.003688,0.000710,-0.005135,0.582353,0.190130,-0.562815,0.554936
04419,NaN,10.541751,-4.799608,2.715929,0.338480,0.715309,2.058005,-0.749488,-0.045262,-1.238666,-0.868164,0.057617,-0.417725,0.105112,-0.048545,0.027364,0.999974,-0.003747,-0.000226,-0.006193,0.586364,0.191547,-0.563830,0.549166
04420,NaN,11.653476,-5.352780,3.113006,0.483603,0.530191,3.364146,-0.799834,-0.224969,-1.426405,-0.876221,0.042725,-0.409424,0.116114,-0.054232,0.031477,0.999966,-0.003999,-0.001125,-0.007132,0.592061,0.192915,-0.566195,0.540065
04421,NaN,12.507817,-5.852398,3.516617,0.648592,0.219321,4.420722,-0.792199,-0.388556,-1.544179,-0.877930,0.034180,-0.405029,0.124553,-0.059346,0.035642,0.999960,-0.003961,-0.001943,-0.007721,0.595875,0.195977,-0.567968,0.532858
04422,NaN,13.123776,-6.273727,3.781062,0.897341,-0.129860,5.189387,-0.614760,-0.553057,-1.615298,-0.884033,0.021484,-0.400879,0.130620,-0.063677,0.038367,0.999959,-0.003074,-0.002765,-0.008076,0.599759,0.200576,-0.570142,0.524401
04423,NaN,13.330862,-6.899054,3.927809,1.469033,-0.620795,5.620608,-0.239032,-0.704064,-1.664700,-0.885742,0.015137,-0.396729,0.132589,-0.070049,0.039829,0.999958,-0.001195,-0.003520,-0.008323,0.602334,0.206437,-0.571183,0.518003
04424,NaN,13.267153,-7.235812,4.192450,1.825481,-1.261680,5.712114,0.226383,-0.831978,-1.683569,-0.893555,-0.008057,-0.381836,0.131880,-0.073518,0.042391,0.999955,0.001132,-0.004160,-0.008418,0.604744,0.214153,-0.571944,0.511179
04425,NaN,13.059174,-7.086142,4.378750,1.841429,-1.660269,5.476978,0.706953,-0.936867,-1.664794,-0.895264,-0.018799,-0.385742,0.129789,-0.072100,0.044143,0.999948,0.003535,-0.004684,-0.008324,0.605534,0.223430,-0.571155,0.507139
04426,NaN,12.866641,-6.619574,4.543806,1.615397,-1.928527,5.143216,1.196606,-1.000762,-1.579270,-0.896484,-0.042236,-0.375244,0.127909,-0.067481,0.045678,0.999938,0.005983,-0.005004,-0.007896,0.605777,0.234314,-0.569897,0.503338
04427,NaN,12.571737,-6.152098,4.783938,1.372537,-2.236541,4.743751,1.617277,-1.010671,-1.422799,-0.900146,-0.061279,-0.360596,0.125031,-0.062800,0.047968,0.999929,0.008086,-0.005053,-0.007114,0.604542,0.245790,-0.567179,0.502419
04428,NaN,11.925850,-5.381866,5.124274,0.862588,-2.635428,3.962407,1.800944,-0.980776,-1.209075,-0.905762,-0.084717,-0.356201,0.118677,-0.054999,0.051334,0.999929,0.009005,-0.004904,-0.006045,0.603356,0.256807,-0.564755,0.501061
04429,NaN,10.853304,-4.273080,5.138391,0.213518,-2.712198,2.639254,1.765700,-0.947948,-0.989953,-0.909668,-0.093262,-0.339600,0.108074,-0.043721,0.051514,0.999938,0.008828,-0.004740,-0.004950,0.600856,0.267284,-0.561884,0.501814
04430,NaN,9.894571,-3.120876,5.174379,-0.548819,-2.762131,1.433791,1.585599,-0.909174,-0.808756,-0.913330,-0.105957,-0.325195,0.098582,-0.032019,0.051941,0.999950,0.007928,-0.004546,-0.004044,0.598630,0.276752,-0.559935,0.501520
04431,NaN,8.932151,-2.027322,5.095136,-1.266814,-2.704338,0.233889,1.290135,-0.865900,-0.667815,-0.915283,-0.112305,-0.321045,0.089031,-0.020901,0.051204,0.999964,0.006451,-0.004329,-0.003339,0.596075,0.284641,-0.558347,0.501918
04432,NaN,8.063391,-1.284417,4.987139,-1.707223,-2.714180,-0.798418,0.929782,-0.815455,-0.560491,-0.921143,-0.125000,-0.318604,0.080393,-0.013302,0.050138,0.999977,0.004649,-0.004077,-0.002802,0.593930,0.291426,-0.557985,0.500970
04433,NaN,7.340462,-0.986224,4.774787,-1.754957,-2.703060,-1.611070,0.614056,-0.747867,-0.469451,-0.923340,-0.125000,-0.306396,0.073202,-0.010181,0.047991,0.999986,0.003070,-0.003739,-0.002347,0.592115,0.296426,-0.557976,0.500193
04434,NaN,6.613897,-1.239123,4.453274,-1.280032,-2.755847,-2.337585,0.361144,-0.670531,-0.389783,-0.923096,-0.131348,-0.304199,0.065965,-0.012601,0.044731,0.999991,0.001806,-0.003353,-0.001949,0.591237,0.300096,-0.558957,0.497944
04435,NaN,5.874851,-1.660046,4.134587,-0.663557,-2.841368,-3.041386,0.202806,-0.608912,-0.322958,-0.925049,-0.135742,-0.293945,0.058595,-0.016737,0.041507,0.999994,0.001014,-0.003045,-0.001615,0.590031,0.303110,-0.559765,0.496640
04436,NaN,5.193820,-2.029975,3.919570,-0.151444,-2.979125,-3.683959,0.195593,-0.563374,-0.285574,-0.922852,-0.142090,-0.291748,0.051798,-0.020412,0.039322,0.999995,0.000978,-0.002817,-0.001428,0.589561,0.305477,-0.561018,0.494328
04437,NaN,4.647845,-2.368070,3.702499,0.320807,-3.055243,-4.201880,0.317327,-0.550740,-0.256003,-0.924805,-0.146240,-0.283447,0.046346,-0.023799,0.037115,0.999994,0.001587,-0.002754,-0.001280,0.588159,0.308488,-0.561465,0.493621
04438,NaN,4.306042,-2.732516,3.639820,0.738998,-3.227354,-4.493394,0.511114,-0.547400,-0.202702,-0.928955,-0.148438,-0.277344,0.042933,-0.027462,0.036446,0.999992,0.002556,-0.002737,-0.001014,0.586971,0.311610,-0.561824,0.492664
04439,NaN,3.882590,-2.939062,3.626215,1.012445,-3.397648,-4.883911,0.673090,-0.551713,-0.141596,-0.930908,-0.150635,-0.275391,0.038705,-0.029540,0.036270,0.999990,0.003365,-0.002759,-0.000708,0.584714,0.315337,-0.561562,0.493276
04440,NaN,3.551512,-2.593196,3.459013,0.812846,-3.227849,-5.315706,0.724454,-0.581158,-0.085004,-0.932861,-0.154785,-0.269043,0.035404,-0.026072,0.034599,0.999989,0.003622,-0.002906,-0.000425,0.582635,0.318903,-0.561586,0.493415
04441,NaN,3.448938,-2.002526,3.255830,0.371571,-2.895779,-5.572170,0.847891,-0.618877,-0.082393,-0.932617,-0.161133,-0.258789,0.034380,-0.020178,0.032579,0.999986,0.004239,-0.003094,-0.000412,0.579738,0.323125,-0.561161,0.494562
04442,NaN,3.959421,-1.394363,3.121822,-0.183337,-2.503121,-5.222737,1.006240,-0.641827,-0.136407,-0.934814,-0.161133,-0.256836,0.039484,-0.014128,0.031274,0.999982,0.005031,-0.003209,-0.000682,0.577078,0.327859,-0.560432,0.495384
04443,NaN,4.969919,-1.041362,3.013153,-0.562282,-2.122194,-4.331494,1.212838,-0.622124,-0.240340,-0.938721,-0.167725,-0.250488,0.049593,-0.010656,0.030222,0.999976,0.006064,-0.003111,-0.001202,0.573926,0.333564,-0.558818,0.497057
04444,NaN,6.707168,-1.165608,2.720951,-0.511837,-1.576170,-2.671147,1.505566,-0.563613,-0.372970,-0.940674,-0.178223,-0.238037,0.066973,-0.011986,0.027309,0.999966,0.007528,-0.002818,-0.001865,0.571707,0.339525,-0.556463,0.498220
04445,NaN,8.998643,-1.774098,2.204989,0.021713,-0.853608,-0.418261,1.819403,-0.447818,-0.475901,-0.936035,-0.188965,-0.229736,0.089894,-0.018156,0.022087,0.999953,0.009097,-0.002239,-0.002379,0.568529,0.347148,-0.552380,0.501138
04446,NaN,11.754559,-2.650177,2.129590,0.663904,-0.514782,2.394757,1.984654,-0.263905,-0.434508,-0.933594,-0.197510,-0.223389,0.117459,-0.026968,0.021185,0.999948,0.009923,-0.001320,-0.002173,0.565577,0.354836,-0.547228,0.504733
04447,NaN,14.182115,-3.490157,2.412105,1.222444,-0.522397,4.930577,1.706323,0.028647,-0.190961,-0.941895,-0.203857,-0.221191,0.141791,-0.035241,0.023801,0.999963,0.008532,0.000143,-0.000955,0.563087,0.360097,-0.542485,0.508894
04448,NaN,15.542269,-3.654827,1.833743,1.444363,0.305058,6.190518,1.135835,0.301434,0.063187,-0.941650,-0.210205,-0.225342,0.155461,-0.036602,0.017895,0.999983,0.005679,0.001507,0.000316,0.561839,0.362544,-0.538702,0.512541
04449,NaN,15.804907,-2.850224,0.192935,1.038231,2.191445,6.064178,0.719165,0.505720,0.149683,-0.937500,-0.203857,-0.225342,0.158074,-0.028390,0.001427,0.999990,0.003596,0.002529,0.000748,0.561507,0.362862,-0.535707,0.515810
04450,NaN,15.303026,-1.643895,-1.514585,0.320788,4.084321,5.100172,0.375979,0.649755,0.168363,-0.939697,-0.205811,-0.235596,0.152994,-0.016281,-0.015674,0.999993,0.001880,0.003249,0.000842,0.562425,0.361813,-0.533187,0.518152
04451,NaN,14.934679,-0.564999,-2.781962,-0.405097,5.550727,4.333953,-0.102440,0.723356,0.222415,-0.935547,-0.203857,-0.245850,0.149251,-0.005498,-0.028357,0.999993,-0.000512,0.003617,0.001112,0.563956,0.359056,-0.531819,0.519808
04452,NaN,15.783320,-0.160370,-3.193174,-0.762473,6.313069,4.982503,-0.587494,0.800784,0.261063,-0.935791,-0.195312,-0.254150,0.157706,-0.001493,-0.032559,0.999987,-0.002937,0.004004,0.001305,0.567399,0.353958,-0.531972,0.519401
04453,NaN,16.983792,-0.391529,-3.423823,-0.595590,6.864091,6.088662,-1.170462,0.839573,0.324849,-0.933838,-0.190918,-0.262451,0.169699,-0.003843,-0.034928,0.999973,-0.005852,0.004198,0.001624,0.570844,0.347584,-0.533193,0.518680
04454,NaN,17.558632,-0.646769,-3.775914,-0.267060,7.394817,6.564890,-1.746672,0.856158,0.471592,-0.936523,-0.176025,-0.274902,0.175438,-0.006388,-0.038454,0.999950,-0.008733,0.004281,0.002358,0.575956,0.338245,-0.536695,0.515581
04455,NaN,17.126705,-0.781398,-3.866917,-0.049342,7.472885,6.094535,-2.105200,0.838266,0.634595,-0.930420,-0.165527,-0.291504,0.171128,-0.007682,-0.039305,0.999931,-0.010526,0.004191,0.003173,0.580089,0.328296,-0.540746,0.513140
04456,NaN,15.724716,-0.797306,-3.689959,0.119240,7.068793,4.731559,-2.309186,0.763276,0.764467,-0.932861,-0.154785,-0.295654,0.157135,-0.007802,-0.037409,0.999919,-0.011546,0.003816,0.003822,0.585346,0.316183,-0.546610,0.508543
04457,NaN,14.121803,-0.724228,-3.074124,0.031822,6.205818,3.259660,-2.429013,0.635103,0.825739,-0.933594,-0.137695,-0.310303,0.141149,-0.007036,-0.031103,0.999913,-0.012145,0.003175,0.004129,0.588770,0.305175,-0.552187,0.505280
04458,NaN,12.621205,-0.651075,-2.389346,-0.088564,5.268259,1.920382,-2.471140,0.477222,0.846793,-0.929688,-0.122803,-0.312744,0.126182,-0.006274,-0.024116,0.999912,-0.012355,0.002386,0.004234,0.592526,0.293623,-0.558919,0.500308
04459,NaN,11.424100,-0.942064,-1.656744,0.021690,4.235803,0.966902,-2.451366,0.339378,0.868332,-0.928467,-0.101562,-0.321289,0.114253,-0.009128,-0.016648,0.999914,-0.012256,0.001697,0.004342,0.594849,0.283060,-0.565274,0.496484
04460,NaN,10.376535,-1.564541,-0.926358,0.393268,3.095965,0.249034,-2.448971,0.224885,0.952199,-0.935303,-0.086670,-0.317383,0.103828,-0.015264,-0.009192,0.999913,-0.012245,0.001124,0.004761,0.597511,0.271559,-0.572746,0.491120
04461,NaN,9.364347,-2.283152,-0.377282,0.859724,2.075540,-0.431950,-2.394317,0.155185,1.078951,-0.929688,-0.061279,-0.323975,0.093762,-0.022369,-0.003576,0.999913,-0.011971,0.000776,0.005395,0.598505,0.260911,-0.579578,0.487654
04462,NaN,8.348425,-2.830919,-0.032173,1.234403,1.267250,-1.176688,-2.190484,0.111185,1.220104,-0.927979,-0.052734,-0.323975,0.083655,-0.027801,-0.000062,0.999921,-0.010952,0.000556,0.006100,0.599026,0.250145,-0.586724,0.484097
04463,NaN,7.515247,-3.006121,0.247798,1.269982,0.723357,-1.847781,-1.842663,0.095927,1.343215,-0.932861,-0.029297,-0.328613,0.075353,-0.029531,0.002716,0.999935,-0.009213,0.000480,0.006716,0.598321,0.240436,-0.592540,0.482802
04464,NaN,6.885817,-2.879795,0.440763,1.058760,0.436969,-2.424257,-1.424834,0.117600,1.435561,-0.933594,-0.012451,-0.330811,0.069065,-0.028271,0.004570,0.999949,-0.007124,0.000588,0.007178,0.597309,0.231255,-0.597843,0.482003
04465,NaN,6.421043,-2.537509,0.578167,0.675087,0.362595,-2.926848,-1.040561,0.150963,1.499317,-0.929932,0.004639,-0.335205,0.064403,-0.024862,0.005863,0.999958,-0.005203,0.000755,0.007496,0.595324,0.223291,-0.601611,0.483524
04466,NaN,6.155972,-2.178942,0.550328,0.342170,0.498359,-3.287329,-0.740090,0.197630,1.525083,-0.928223,0.015137,-0.333496,0.061729,-0.021299,0.005522,0.999964,-0.003700,0.000988,0.007625,0.593882,0.215102,-0.605140,0.484603
04467,NaN,5.967189,-1.960527,0.390249,0.193624,0.721384,-3.564117,-0.486882,0.240936,1.511269,-0.926758,0.038574,-0.337891,0.059822,-0.019144,0.003877,0.999968,-0.002434,0.001205,0.007556,0.591453,0.208492,-0.607213,0.487860
04468,NaN,5.734972,-1.964571,0.144017,0.300970,0.899506,-3.823546,-0.241303,0.278644,1.468054,-0.927246,0.053467,-0.340088,0.057494,-0.019222,0.001383,0.999971,-0.001207,0.001393,0.007340,0.589659,0.201956,-0.609021,0.490519
04469,NaN,5.419407,-2.236471,-0.139669,0.677304,0.970039,-4.068911,0.032186,0.310043,1.413784,-0.923340,0.063965,-0.334229,0.054348,-0.021981,-0.001484,0.999974,0.000161,0.001550,0.007069,0.587087,0.196978,-0.609442,0.495085
04470,NaN,5.042220,-2.673817,-0.486479,1.249967,0.994741,-4.312010,0.343657,0.331608,1.353878,-0.923828,0.074707,-0.342529,0.050593,-0.026388,-0.004994,0.999974,0.001718,0.001658,0.006769,0.584810,0.192632,-0.609421,0.499497
04471,NaN,4.545689,-3.115399,-0.837310,1.867155,0.992869,-4.655415,0.706806,0.338938,1.277167,-0.921875,0.083252,-0.346924,0.045640,-0.030833,-0.008560,0.999972,0.003534,0.001695,0.006386,0.581954,0.189953,-0.607880,0.505697
04472,NaN,4.112717,-3.289825,-1.144702,2.240431,1.088256,-5.033221,1.048033,0.326513,1.180082,-0.922363,0.093750,-0.351074,0.041301,-0.032594,-0.011686,0.999968,0.005240,0.001633,0.005900,0.579264,0.188354,-0.605813,0.511827
04473,NaN,3.758165,-3.243255,-1.299864,2.341750,1.187082,-5.403766,1.355910,0.300712,1.068997,-0.918213,0.095947,-0.355225,0.037734,-0.032142,-0.013274,0.999962,0.006779,0.001504,0.005345,0.576138,0.188265,-0.602458,0.519293
04474,NaN,3.576900,-3.123997,-1.329934,2.282334,1.264105,-5.627635,1.615378,0.261584,0.970757,-0.920166,0.091553,-0.357178,0.035902,-0.030957,-0.013597,0.999955,0.008077,0.001308,0.004854,0.573260,0.188931,-0.598900,0.526305
04475,NaN,3.553308,-3.009920,-1.311237,2.161626,1.363310,-5.704997,1.778872,0.200063,0.871033,-0.913818,0.091797,-0.367432,0.035650,-0.029826,-0.013414,0.999950,0.008894,0.001000,0.004355,0.569857,0.190884,-0.594441,0.534290
04476,NaN,3.960376,-3.071652,-0.911921,1.892270,1.229813,-5.245681,1.861024,0.130821,0.768527,-0.911621,0.091553,-0.365234,0.039715,-0.030477,-0.009430,0.999949,0.009305,0.000654,0.003843,0.566440,0.193715,-0.590121,0.541643
04477,NaN,4.761873,-3.189988,-0.144718,1.401023,0.914451,-4.328813,1.823585,0.055788,0.651462,-0.915771,0.089600,-0.369385,0.047722,-0.031730,-0.001750,0.999953,0.009118,0.000279,0.003257,0.563047,0.196797,-0.585630,0.548896
04478,NaN,5.627746,-3.242561,0.605241,0.861640,0.643132,-3.378737,1.677908,-0.011797,0.498316,-0.915527,0.083252,-0.363281,0.056358,-0.032335,0.005784,0.999962,0.008389,-0.000059,0.002492,0.559817,0.200457,-0.581793,0.554922
04479,NaN,6.389232,-3.100645,1.338835,0.213218,0.394794,-2.599696,1.591593,-0.038087,0.323315,-0.911133,0.076904,-0.373291,0.063940,-0.031008,0.013154,0.999967,0.007958,-0.000190,0.001617,0.557195,0.204071,-0.577791,0.560398
04480,NaN,7.058938,-3.009107,2.137941,-0.366941,0.011544,-1.855355,1.559308,-0.048788,0.143831,-0.911133,0.072510,-0.371094,0.070606,-0.030206,0.021161,0.999969,0.007796,-0.000244,0.000719,0.554771,0.208697,-0.573893,0.565085
04481,NaN,7.766458,-2.929478,2.831503,-0.878321,-0.275107,-1.090894,1.502264,-0.046379,-0.026824,-0.915283,0.072510,-0.373291,0.077654,-0.029517,0.028112,0.999972,0.007511,-0.000232,-0.000134,0.553130,0.213068,-0.569736,0.569254
04482,NaN,8.452841,-2.850038,3.454830,-1.327980,-0.532386,-0.354270,1.415627,-0.044741,-0.183330,-0.914551,0.053467,-0.372803,0.084494,-0.028822,0.034364,0.999975,0.007078,-0.000224,-0.000917,0.551752,0.218121,-0.565810,0.572583
04483,NaN,8.833044,-2.641504,3.635997,-1.614371,-0.486629,-0.046567,1.287954,-0.047595,-0.342587,-0.916748,0.051270,-0.376953,0.088276,-0.026800,0.036209,0.999978,0.006440,-0.000238,-0.001713,0.551181,0.222777,-0.561870,0.575214
04484,NaN,8.938058,-2.521431,3.447875,-1.595064,-0.263618,-0.039256,1.096297,-0.078347,-0.526743,-0.920166,0.030029,-0.370361,0.089300,-0.025638,0.034374,0.999981,0.005481,-0.000392,-0.002634,0.550860,0.228208,-0.558402,0.576769
04485,NaN,9.396829,-2.569073,3.328816,-1.549560,-0.010271,0.364709,0.870322,-0.160824,-0.768541,-0.922119,0.025879,-0.372314,0.093842,-0.026196,0.033250,0.999983,0.004352,-0.000804,-0.003843,0.551626,0.233214,-0.555450,0.576885
04486,NaN,10.938245,-3.107819,3.514645,-1.444112,0.225624,1.999097,0.725383,-0.289338,-1.072145,-0.921387,0.006836,-0.370117,0.109162,-0.031791,0.035190,0.999978,0.003627,-0.001447,-0.005361,0.552445,0.239996,-0.552868,0.575799
04487,NaN,13.433506,-4.115104,4.104301,-1.254790,0.316737,4.766742,0.571412,-0.430412,-1.313598,-0.927490,-0.005859,-0.369873,0.133972,-0.042149,0.041212,0.999972,0.002857,-0.002152,-0.006568,0.554337,0.246443,-0.550821,0.573212
04488,NaN,15.629046,-4.892724,4.221963,-0.957164,0.695605,7.058139,0.406973,-0.540075,-1.443288,-0.926758,-0.022949,-0.357178,0.155817,-0.050139,0.042540,0.999968,0.002035,-0.002700,-0.007216,0.555937,0.253925,-0.549320,0.569828
04489,NaN,16.559451,-4.999405,4.182789,-0.844634,0.877196,7.941593,0.433674,-0.639496,-1.555022,-0.930664,-0.037842,-0.359131,0.165064,-0.051370,0.042246,0.999962,0.002168,-0.003197,-0.007775,0.558041,0.261220,-0.547868,0.565857
04490,NaN,16.160600,-4.724908,4.553125,-0.852786,0.263704,7.606113,0.602026,-0.759728,-1.683990,-0.932129,-0.056885,-0.352539,0.161026,-0.048745,0.045998,0.999953,0.003010,-0.003799,-0.008420,0.559605,0.270171,-0.546151,0.561755
04491,NaN,14.885804,-4.186586,5.190651,-0.979387,-0.821031,6.448137,0.728748,-0.872903,-1.797482,-0.942139,-0.073975,-0.340088,0.148245,-0.043390,0.052398,0.999943,0.003644,-0.004364,-0.008987,0.561256,0.279562,-0.544088,0.557499
04492,NaN,13.593146,-3.471717,5.661215,-1.232156,-1.722373,5.166684,0.729098,-0.958238,-1.879970,-0.941406,-0.093018,-0.335693,0.135323,-0.036199,0.057131,0.999938,0.003645,-0.004791,-0.009400,0.562712,0.289649,-0.542255,0.552646
04493,NaN,12.936385,-2.863219,6.000230,-1.507560,-2.302830,4.468996,0.646342,-0.993828,-1.861589,-0.947021,-0.116455,-0.321045,0.128789,-0.030028,0.060548,0.999939,0.003232,-0.004969,-0.009308,0.564194,0.299251,-0.540536,0.547682
04494,NaN,12.198386,-2.930055,6.047686,-1.083943,-2.776377,3.791368,0.581714,-0.964954,-1.717397,-0.946533,-0.131348,-0.310547,0.121432,-0.030522,0.060976,0.999947,0.002909,-0.004825,-0.008587,0.565361,0.308318,-0.539252,0.542691
04495,NaN,11.034317,-3.565793,5.937328,-0.050940,-3.303106,2.789105,0.586674,-0.892644,-1.463780,-0.950195,-0.146240,-0.298096,0.109811,-0.036638,0.059758,0.999959,0.002933,-0.004463,-0.007319,0.566002,0.316340,-0.537904,0.538731
04496,NaN,9.417226,-4.502483,5.376857,1.408922,-3.548338,1.290852,0.690368,-0.824761,-1.157002,-0.949707,-0.156738,-0.289551,0.093687,-0.045754,0.053998,0.999969,0.003452,-0.004124,-0.005785,0.565787,0.323735,-0.536692,0.535763
04497,NaN,7.691258,-5.129591,4.815198,2.540524,-3.680507,-0.397151,0.927201,-0.780471,-0.852986,-0.951660,-0.167480,-0.283203,0.076504,-0.051846,0.048212,0.999973,0.004636,-0.003902,-0.004265,0.564464,0.330737,-0.535020,0.534553
04498,NaN,6.270883,-4.728496,4.606523,2.517406,-3.800226,-1.930894,1.141073,-0.790140,-0.571378,-0.955322,-0.177979,-0.272949,0.062391,-0.047726,0.046041,0.999972,0.005705,-0.003951,-0.002857,0.561961,0.337671,-0.533378,0.534497
04499,NaN,5.277855,-3.571847,4.096278,1.753128,-3.348586,-3.247154,1.330164,-0.845981,-0.343878,-0.959473,-0.184570,-0.262695,0.052543,-0.036081,0.040946,0.999967,0.006651,-0.004230,-0.001719,0.558362,0.344582,-0.531602,0.535625
04500,NaN,4.930169,-2.503145,3.762543,0.918952,-2.935028,-3.873861,1.569871,-0.888328,-0.188719,-0.959473,-0.186523,-0.252441,0.049111,-0.025373,0.037646,0.999959,0.007849,-0.004442,-0.000944,0.553746,0.351889,-0.529644,0.537602
04501,NaN,4.820112,-2.206440,3.584772,0.753967,-2.761870,-4.089439,1.797523,-0.927323,-0.063581,-0.967773,-0.188721,-0.239990,0.048028,-0.022402,0.035870,0.999949,0.008987,-0.004637,-0.000318,0.548273,0.359516,-0.527240,0.540520
04502,NaN,4.896859,-2.547276,3.296275,1.197712,-2.539883,-4.029322,2.044845,-0.964585,0.043765,-0.965332,-0.197266,-0.225586,0.048815,-0.025799,0.032936,0.999936,0.010224,-0.004823,0.000219,0.541868,0.367626,-0.524496,0.544183
04503,NaN,5.016689,-3.033659,2.926628,1.784937,-2.226029,-3.914060,2.320115,-0.991830,0.138753,-0.967285,-0.199463,-0.209229,0.050043,-0.030641,0.029160,0.999920,0.011600,-0.004959,0.000694,0.534584,0.376225,-0.521082,0.548769
04504,NaN,5.156794,-3.195101,2.705401,2.020543,-1.987278,-3.805351,2.664454,-0.981185,0.225081,-0.971191,-0.208008,-0.192627,0.051472,-0.032252,0.026878,0.999899,0.013322,-0.004906,0.001125,0.526299,0.385435,-0.516841,0.554369
04505,NaN,5.304559,-2.975885,2.630920,1.859175,-1.840553,-3.724063,2.993456,-0.950125,0.311129,-0.977539,-0.210205,-0.182373,0.052968,-0.030068,0.026112,0.999875,0.014967,-0.004750,0.001556,0.517150,0.395101,-0.511578,0.561016
04506,NaN,5.532794,-2.542073,2.732197,1.456115,-1.847147,-3.567197,3.199998,-0.895290,0.393514,-0.977539,-0.208008,-0.168213,0.055257,-0.025747,0.027159,0.999860,0.015999,-0.004476,0.001967,0.507306,0.404828,-0.505688,0.568362
04507,NaN,5.902768,-1.953945,2.787904,0.882251,-1.805612,-3.301619,3.250412,-0.813553,0.460527,-0.979492,-0.212402,-0.153809,0.058960,-0.019856,0.027798,0.999857,0.016251,-0.004068,0.002303,0.497292,0.414169,-0.499373,0.576014
04508,NaN,6.442949,-1.450920,2.740109,0.359073,-1.670019,-2.869576,3.175028,-0.703463,0.496188,-0.983887,-0.214355,-0.143555,0.064370,-0.014784,0.027394,0.999865,0.015874,-0.003517,0.002481,0.487406,0.422780,-0.492990,0.583655
04509,NaN,7.198368,-1.258798,2.523299,0.089316,-1.350700,-2.201144,3.022474,-0.604662,0.500938,-0.985840,-0.214355,-0.131348,0.071939,-0.012789,0.025258,0.999878,0.015112,-0.003023,0.002505,0.478009,0.430631,-0.486641,0.590970
04510,NaN,8.102946,-1.159366,2.139905,-0.150452,-0.853489,-1.396636,2.823715,-0.506319,0.485721,-0.992188,-0.214600,-0.116943,0.081004,-0.011699,0.021439,0.999894,0.014118,-0.002532,0.002429,0.469156,0.437628,-0.480538,0.597878
04511,NaN,9.099705,-1.337590,1.563490,-0.183610,-0.131856,-0.485996,2.665243,-0.390945,0.488872,-0.994385,-0.212402,-0.113037,0.090999,-0.013362,0.015635,0.999906,0.013326,-0.001955,0.002444,0.460883,0.443841,-0.474510,0.604510
04512,NaN,10.211426,-1.825425,1.173212,0.037189,0.472217,0.615992,2.509863,-0.249426,0.525956,-0.994385,-0.210205,-0.102783,0.102147,-0.018132,0.011631,0.999917,0.012549,-0.001247,0.002630,0.453041,0.449073,-0.468654,0.611105
04513,NaN,11.507645,-2.282660,0.878198,0.167303,1.029559,1.905647,2.335698,-0.083495,0.538244,-0.994385,-0.214600,-0.098633,0.115134,-0.022618,0.008565,0.999928,0.011678,-0.000417,0.002691,0.445928,0.453333,-0.462880,0.617560
04514,NaN,12.997583,-2.224023,0.422028,-0.297431,1.702348,3.266862,2.133001,0.080400,0.454622,-1.000732,-0.210205,-0.092529,0.130028,-0.021988,0.003933,0.999940,0.010665,0.000402,0.002273,0.439796,0.456743,-0.457149,0.623683
04515,NaN,14.710822,-1.566318,-0.193722,-1.429149,2.447784,4.708488,1.817501,0.242404,0.282944,-0.996582,-0.208252,-0.092529,0.147128,-0.015436,-0.002256,0.999957,0.009087,0.001212,0.001415,0.435302,0.459325,-0.451573,0.628980
04516,NaN,16.632309,-0.599846,-0.795211,-2.900810,3.139205,6.291847,1.325819,0.421986,0.077064,-0.998779,-0.210205,-0.092529,0.166308,-0.005880,-0.008342,0.999976,0.006629,0.002110,0.000385,0.432905,0.460692,-0.446695,0.633103
04517,NaN,18.856764,0.357238,-1.229889,-4.373942,3.738932,8.190246,0.654406,0.642324,-0.114223,-0.989990,-0.218750,-0.098633,0.188529,0.003506,-0.012893,0.999989,0.003272,0.003212,-0.000571,0.433193,0.460333,-0.442963,0.635784
04518,NaN,20.805803,1.006913,-1.605399,-5.458883,4.380362,9.871884,-0.201776,0.902528,-0.262239,-0.994385,-0.214600,-0.113037,0.207996,0.009780,-0.017003,0.999988,-0.001009,0.004513,-0.001311,0.436455,0.457627,-0.441102,0.636800
04519,NaN,21.527000,1.155047,-2.142107,-5.819631,5.208183,10.394596,-1.149668,1.197346,-0.325614,-0.994141,-0.218750,-0.133301,0.215155,0.011072,-0.022774,0.999964,-0.005748,0.005987,-0.001628,0.442751,0.452015,-0.441387,0.636264
04520,NaN,20.203960,0.721086,-2.620104,-5.167504,5.839722,9.022653,-2.077842,1.468405,-0.325106,-0.981445,-0.218750,-0.153809,0.201851,0.006600,-0.027754,0.999918,-0.010389,0.007342,-0.001625,0.451689,0.443494,-0.444054,0.634119
04521,NaN,17.940553,0.232836,-3.025920,-4.226033,6.235273,6.750117,-2.952818,1.640835,-0.280732,-0.985840,-0.214355,-0.172119,0.179152,0.001615,-0.031757,0.999856,-0.014763,0.008204,-0.001404,0.462708,0.432190,-0.449023,0.630469
04522,NaN,16.080222,0.154177,-3.426786,-3.707368,6.559623,4.800945,-3.815906,1.656338,-0.204905,-0.982178,-0.201660,-0.197021,0.160512,0.000706,-0.035617,0.999783,-0.019078,0.008281,-0.001024,0.475244,0.418623,-0.456782,0.624698
04523,NaN,14.981050,0.433019,-3.824401,-3.637457,6.939650,3.523246,-4.665635,1.540034,-0.059832,-0.974121,-0.190918,-0.219727,0.149511,0.003374,-0.039482,0.999698,-0.023326,0.007699,-0.000299,0.488573,0.402746,-0.467430,0.616929
04524,NaN,13.971489,0.526886,-4.022644,-3.345787,7.123865,2.422939,-5.273603,1.413326,0.165751,-0.974365,-0.177979,-0.248535,0.139422,0.004304,-0.041334,0.999627,-0.026365,0.007066,0.000829,0.501845,0.385125,-0.480530,0.607389
04525,NaN,12.623946,0.114614,-3.744268,-2.496444,6.728078,1.227830,-5.565905,1.257763,0.442611,-0.973145,-0.156738,-0.269287,0.125999,0.000368,-0.038253,0.999591,-0.027826,0.006288,0.002213,0.514037,0.366128,-0.494930,0.597294
04526,NaN,11.159224,-0.694151,-3.025374,-1.319561,5.750392,0.154933,-5.725020,1.069406,0.719269,-0.967529,-0.131348,-0.283936,0.111455,-0.007414,-0.030642,0.999570,-0.028621,0.005346,0.003596,0.524856,0.346479,-0.510525,0.586381
04527,NaN,9.845117,-1.462503,-2.127982,-0.348974,4.518766,-0.699376,-5.767152,0.883956,0.948288,-0.964600,-0.095215,-0.301025,0.098427,-0.014772,-0.021290,0.999563,-0.028832,0.004419,0.004741,0.534096,0.326192,-0.526531,0.575418
04528,NaN,8.644728,-2.012994,-1.224784,0.270181,3.234277,-1.461057,-5.647712,0.716504,1.079676,-0.969727,-0.071777,-0.313721,0.086512,-0.020004,-0.011992,0.999580,-0.028235,0.003582,0.005398,0.541932,0.306283,-0.542561,0.564029
04529,NaN,7.666909,-2.298589,-0.315922,0.474817,2.004211,-2.071790,-5.438689,0.572063,1.130143,-0.964355,-0.039795,-0.316162,0.076789,-0.022631,-0.002760,0.999610,-0.027190,0.002860,0.005650,0.548417,0.286759,-0.557866,0.552987
04530,NaN,6.984628,-2.565723,0.288645,0.597600,1.121055,-2.475405,-5.212535,0.458420,1.126266,-0.963135,-0.010254,-0.324951,0.069996,-0.025179,0.003387,0.999642,-0.026060,0.002292,0.005631,0.553929,0.268173,-0.572586,0.541655
04531,NaN,6.516752,-2.992525,0.727097,0.809422,0.401464,-2.661933,-4.936878,0.405986,1.114820,-0.961914,0.015381,-0.327393,0.065348,-0.029372,0.007868,0.999678,-0.024682,0.002030,0.005574,0.558516,0.250133,-0.586142,0.530972
04532,NaN,5.991854,-3.644665,0.955125,1.274641,-0.243112,-2.854850,-4.584220,0.409960,1.089740,-0.956543,0.042969,-0.332031,0.060136,-0.035890,0.010255,0.999720,-0.022919,0.002050,0.005448,0.562476,0.233191,-0.598507,0.520607
04533,NaN,5.425661,-4.413655,0.874461,1.957503,-0.697201,-3.077558,-4.077754,0.428847,1.034363,-0.955078,0.064209,-0.330322,0.054503,-0.043666,0.009521,0.999776,-0.020387,0.002144,0.005171,0.565698,0.217469,-0.608988,0.511690
04534,NaN,4.892593,-5.135956,0.696518,2.638627,-1.078497,-3.280264,-3.406298,0.459892,0.967675,-0.956055,0.087402,-0.334717,0.049190,-0.050995,0.007723,0.999841,-0.017031,0.002299,0.004838,0.568306,0.203875,-0.617488,0.504155
04535,NaN,4.343742,-5.480504,0.557022,3.007360,-1.352205,-3.620765,-2.646287,0.513048,0.885858,-0.954590,0.108643,-0.335205,0.043695,-0.054533,0.006181,0.999899,-0.013231,0.002565,0.004429,0.570300,0.192317,-0.623543,0.498966
04536,NaN,3.793605,-5.293108,0.288610,3.046749,-1.281335,-4.194284,-1.867909,0.568149,0.799874,-0.950684,0.119385,-0.337402,0.038156,-0.052749,0.003271,0.999944,-0.009339,0.002841,0.003999,0.571884,0.183256,-0.627447,0.495656
04537,NaN,3.185923,-4.754594,-0.062049,2.912305,-0.976821,-4.983174,-1.084438,0.617178,0.700252,-0.946777,0.129883,-0.343750,0.032024,-0.047437,-0.000462,0.999974,-0.005422,0.003086,0.003501,0.573066,0.176434,-0.628997,0.494801
04538,NaN,2.654605,-4.094528,-0.231688,2.603968,-0.720953,-5.742641,-0.317010,0.658237,0.605289,-0.947021,0.134277,-0.351807,0.026662,-0.040868,-0.002340,0.999989,-0.001585,0.003291,0.003026,0.573933,0.172169,-0.628556,0.495859
04539,NaN,2.262879,-3.612904,-0.399511,2.420877,-0.478153,-6.313556,0.375142,0.677228,0.522413,-0.936523,0.134277,-0.360107,0.022709,-0.036062,-0.004140,0.999989,0.001876,0.003386,0.002612,0.574440,0.169933,-0.626127,0.499106
04540,NaN,2.060872,-3.440231,-0.497722,2.402720,-0.353024,-6.582796,0.993572,0.691649,0.455578,-0.936279,0.132080,-0.368164,0.020669,-0.034330,-0.005219,0.999979,0.004968,0.003458,0.002278,0.574612,0.169802,-0.622172,0.503876
04541,NaN,2.054965,-3.523776,-0.415475,2.442525,-0.400632,-6.543796,1.528772,0.690551,0.405884,-0.936523,0.134277,-0.378418,0.020606,-0.035162,-0.004495,0.999963,0.007644,0.003453,0.002029,0.574421,0.171195,-0.616660,0.510356
04542,NaN,2.299918,-3.872405,-0.236001,2.584190,-0.528720,-6.154477,1.995951,0.690741,0.380085,-0.931885,0.125732,-0.386475,0.023063,-0.038654,-0.002826,0.999942,0.009980,0.003454,0.001900,0.573814,0.174151,-0.610019,0.517964
04543,NaN,2.743720,-4.428708,-0.168117,2.914527,-0.538441,-5.525030,2.380798,0.685504,0.365694,-0.923096,0.119385,-0.390381,0.027511,-0.044212,-0.002302,0.999922,0.011904,0.003427,0.001828,0.572842,0.178087,-0.602159,0.526822
04544,NaN,3.196690,-4.968241,-0.176250,3.285678,-0.435730,-4.919246,2.648514,0.677104,0.360460,-0.927246,0.110840,-0.396484,0.032049,-0.049595,-0.002528,0.999905,0.013242,0.003385,0.001802,0.571466,0.182947,-0.593665,0.536207
04545,NaN,3.605281,-5.266159,-0.161602,3.471645,-0.243113,-4.460804,2.812732,0.667847,0.337565,-0.924805,0.100342,-0.408447,0.036134,-0.052570,-0.002476,0.999894,0.014063,0.003339,0.001688,0.569913,0.188182,-0.584465,0.546065
04546,NaN,4.011587,-5.291190,0.051237,3.345104,-0.113191,-4.077967,2.839706,0.633908,0.283378,-0.919922,0.087646,-0.422607,0.040191,-0.052854,-0.000366,0.999893,0.014198,0.003169,0.001417,0.568155,0.193867,-0.575282,0.555577
04547,NaN,4.584606,-5.207593,0.525537,2.974158,-0.107201,-3.523460,2.688354,0.578058,0.225149,-0.913330,0.079102,-0.422363,0.045918,-0.052087,0.004423,0.999905,0.013441,0.002890,0.001126,0.566536,0.199243,-0.566338,0.564447
04548,NaN,5.245611,-5.072931,1.101514,2.503242,-0.158445,-2.872138,2.371385,0.515931,0.169084,-0.908936,0.070557,-0.428467,0.052526,-0.050810,0.010278,0.999926,0.011857,0.002580,0.000845,0.565000,0.204161,-0.558486,0.572001
04549,NaN,5.851006,-5.027467,1.763691,2.103168,-0.349875,-2.192115,2.024285,0.445815,0.113615,-0.913086,0.066406,-0.436523,0.058577,-0.050416,0.016997,0.999946,0.010121,0.002229,0.000568,0.563827,0.208287,-0.551526,0.578390
04550,NaN,6.367246,-4.960952,2.429473,1.718018,-0.601504,-1.582213,1.690594,0.369005,0.027958,-0.910400,0.051514,-0.444336,0.063724,-0.049803,0.023757,0.999963,0.008453,0.001845,0.000140,0.562848,0.212030,-0.545797,0.583397
04551,NaN,6.691628,-4.902981,2.819833,1.504034,-0.714649,-1.210655,1.351180,0.278243,-0.084887,-0.910156,0.042969,-0.442139,0.066934,-0.049247,0.027773,0.999976,0.006756,0.001391,-0.000424,0.562413,0.215258,-0.540972,0.587116
04552,NaN,6.877855,-4.765063,3.054133,1.311333,-0.760405,-1.035436,1.025234,0.186387,-0.211679,-0.907715,0.038818,-0.442139,0.068756,-0.047879,0.030232,0.999986,0.005126,0.000932,-0.001058,0.562260,0.218321,-0.537374,0.589431
04553,NaN,7.010124,-4.716037,3.234194,1.229640,-0.820840,-0.887624,0.665618,0.110205,-0.337014,-0.907471,0.030273,-0.446045,0.070039,-0.047386,0.032146,0.999993,0.003328,0.000551,-0.001685,0.562822,0.220782,-0.534733,0.590378
04554,NaN,7.285942,-4.928496,3.377321,1.349072,-0.868157,-0.527892,0.265306,0.041141,-0.442703,-0.909668,0.030273,-0.447998,0.072757,-0.049491,0.033693,0.999997,0.001327,0.000206,-0.002214,0.563767,0.222735,-0.533519,0.589842
04555,NaN,7.722473,-5.577692,3.574866,1.795826,-1.004230,0.151912,-0.097071,-0.037170,-0.519915,-0.911621,0.026123,-0.446045,0.077073,-0.055960,0.035790,0.999996,-0.000485,-0.000186,-0.002600,0.565311,0.223968,-0.533332,0.588064
04556,NaN,8.388561,-6.631294,3.894747,2.495691,-1.266440,1.218107,-0.377058,-0.107938,-0.538496,-0.913574,0.019775,-0.439697,0.083686,-0.066465,0.039118,0.999994,-0.001885,-0.000540,-0.002692,0.566852,0.224764,-0.534321,0.585373
04557,NaN,8.863852,-7.753220,4.080872,3.339551,-1.534831,2.096342,-0.599598,-0.194947,-0.463459,-0.911377,0.019775,-0.445801,0.088419,-0.077614,0.041128,0.999992,-0.002998,-0.000975,-0.002317,0.568361,0.224882,-0.536106,0.582224
04558,NaN,8.907770,-8.490417,3.927675,4.041011,-1.634987,2.347019,-0.671383,-0.305884,-0.386473,-0.915527,0.017578,-0.435547,0.088853,-0.084943,0.039698,0.999991,-0.003357,-0.001529,-0.001932,0.569205,0.225021,-0.538664,0.578975
04559,NaN,8.536492,-8.655760,3.771975,4.326764,-1.784983,2.024283,-0.553211,-0.419545,-0.329160,-0.913574,0.021729,-0.435791,0.085143,-0.086593,0.038138,0.999993,-0.002766,-0.002098,-0.001646,0.569649,0.225557,-0.541089,0.576061
04560,NaN,7.909257,-8.316366,3.846854,4.134623,-2.121594,1.364061,-0.404060,-0.521926,-0.242515,-0.924072,0.017578,-0.427490,0.078891,-0.083181,0.038843,0.999994,-0.002020,-0.002610,-0.001213,0.569163,0.226653,-0.543645,0.573701
04561,NaN,7.244980,-7.647490,3.905146,3.661462,-2.360216,0.543308,-0.287451,-0.607267,-0.101016,-0.919922,0.019775,-0.421387,0.072292,-0.076455,0.039381,0.999994,-0.001437,-0.003036,-0.000505,0.568128,0.227861,-0.546083,0.571930
04562,NaN,6.788955,-7.068856,3.899144,3.230373,-2.463776,-0.078413,-0.201522,-0.674776,0.093987,-0.928223,0.019775,-0.413330,0.067791,-0.070617,0.039291,0.999994,-0.001008,-0.003374,0.000470,0.565970,0.229053,-0.548857,0.570937
04563,NaN,6.406354,-6.701206,3.669380,3.045670,-2.371532,-0.619683,-0.095956,-0.708528,0.336125,-0.926270,0.023926,-0.409180,0.064045,-0.066887,0.036953,0.999992,-0.000480,-0.003543,0.001681,0.563175,0.229891,-0.551520,0.570798
04564,NaN,5.911487,-6.579875,3.272917,3.161018,-2.216019,-1.207491,0.055537,-0.750135,0.580751,-0.932861,0.030273,-0.396973,0.059182,-0.065636,0.032933,0.999989,0.000278,-0.003751,0.002904,0.559097,0.230654,-0.554305,0.571800
04565,NaN,5.436664,-6.654330,2.796634,3.477110,-2.004579,-1.716408,0.277058,-0.803270,0.783105,-0.939453,0.036621,-0.395264,0.054514,-0.066369,0.028093,0.999983,0.001385,-0.004016,0.003916,0.554305,0.231562,-0.556656,0.573811
04566,NaN,5.206045,-6.866325,2.589357,3.754000,-1.948748,-1.871422,0.563380,-0.861545,0.937612,-0.937500,0.042969,-0.380859,0.052270,-0.068492,0.025925,0.999976,0.002817,-0.004308,0.004688,0.548242,0.233035,-0.558667,0.577076
04567,NaN,5.234142,-7.099637,2.500030,3.941397,-1.883050,-1.752265,0.841974,-0.926678,1.064024,-0.944336,0.053711,-0.379150,0.052603,-0.070822,0.024945,0.999966,0.004210,-0.004633,0.005320,0.541586,0.235048,-0.560003,0.581235
04568,NaN,5.577214,-7.410550,2.499621,4.068127,-1.777738,-1.294520,1.104062,-0.978682,1.161026,-0.944336,0.055664,-0.368896,0.056080,-0.073918,0.024862,0.999956,0.005520,-0.004893,0.005805,0.533842,0.237630,-0.560953,0.586410
04569,NaN,6.391074,-7.762137,2.676449,4.021547,-1.655665,-0.360425,1.331809,-1.021895,1.228910,-0.946777,0.066406,-0.356934,0.064251,-0.077405,0.026576,0.999946,0.006659,-0.005109,0.006144,0.525763,0.240733,-0.561210,0.592169
04570,NaN,7.518806,-8.195522,2.804320,3.937015,-1.381783,0.871551,1.533121,-1.035648,1.264996,-0.953125,0.068359,-0.352783,0.075561,-0.081692,0.027807,0.999937,0.007665,-0.005178,0.006325,0.516907,0.244255,-0.561040,0.598649
04571,NaN,8.781520,-8.847683,2.917742,3.990712,-1.068628,2.305104,1.792669,-1.017586,1.246711,-0.955566,0.072754,-0.344727,0.088218,-0.088187,0.028834,0.999927,0.008963,-0.005088,0.006233,0.508097,0.248431,-0.559790,0.605603
04572,NaN,10.459410,-9.692707,3.129276,4.017652,-0.704669,4.205172,2.074640,-0.944115,1.176128,-0.951416,0.076904,-0.332520,0.105017,-0.096631,0.030784,0.999918,0.010373,-0.004720,0.005880,0.498919,0.253236,-0.557465,0.613339
04573,NaN,12.563837,-10.435741,3.264582,3.805501,-0.077565,6.402173,2.332703,-0.824370,1.106124,-0.957764,0.081055,-0.330566,0.126082,-0.104036,0.031950,0.999908,0.011663,-0.004122,0.005530,0.490232,0.258488,-0.553722,0.621489
04574,NaN,14.607172,-10.781787,2.910413,3.331695,1.070651,8.238252,2.556773,-0.628517,1.024432,-0.961914,0.072754,-0.324219,0.146533,-0.107432,0.028189,0.999900,0.012783,-0.003142,0.005122,0.481580,0.263810,-0.548733,0.630379
04575,NaN,16.167146,-10.799005,2.536159,2.735080,2.151213,9.482726,2.759764,-0.387949,0.943203,-0.959717,0.074707,-0.326416,0.162132,-0.107565,0.024190,0.999892,0.013798,-0.001940,0.004716,0.473853,0.269073,-0.542158,0.639631
04576,NaN,17.014729,-10.432143,2.207722,2.027954,3.015467,9.935507,2.848855,-0.121301,0.922660,-0.957520,0.072754,-0.328369,0.170614,-0.103836,0.020699,0.999888,0.014244,-0.000606,0.004613,0.466256,0.273690,-0.534642,0.649505
04577,NaN,17.090061,-9.783024,1.955929,1.360811,3.585665,9.600848,2.793219,0.153157,0.953238,-0.959717,0.074707,-0.334473,0.171379,-0.097273,0.018067,0.999891,0.013966,0.000766,0.004766,0.459700,0.277138,-0.526464,0.659323
04578,NaN,16.748139,-8.835478,1.986914,0.529606,3.736695,8.849058,2.609790,0.428149,1.009981,-0.947021,0.074707,-0.340576,0.167966,-0.087754,0.018362,0.999900,0.013049,0.002141,0.005050,0.453448,0.278990,-0.518378,0.669204
04579,NaN,16.455132,-7.645350,2.047285,-0.539213,3.827757,8.032835,2.292867,0.672431,1.071965,-0.955566,0.074707,-0.348877,0.165024,-0.075794,0.019047,0.999914,0.011464,0.003362,0.005360,0.448369,0.279148,-0.510637,0.678448
04580,NaN,16.210140,-6.259075,1.939502,-1.816854,4.012753,7.107578,1.813060,0.866706,1.127444,-0.942871,0.076904,-0.354980,0.162532,-0.061843,0.018128,0.999934,0.009065,0.004333,0.005637,0.443830,0.277318,-0.504256,0.686903
04581,NaN,15.390236,-4.909098,1.675920,-2.787477,4.090996,5.655163,1.242779,1.019185,1.190445,-0.941162,0.085449,-0.369385,0.154273,-0.048273,0.015672,0.999950,0.006214,0.005096,0.005952,0.440568,0.273572,-0.499356,0.694047
04582,NaN,13.952610,-3.756246,1.434462,-3.303515,3.883966,3.782853,0.624162,1.114838,1.245405,-0.939209,0.091797,-0.373535,0.139833,-0.036735,0.013450,0.999960,0.003121,0.005574,0.006227,0.437776,0.267944,-0.496600,0.699962
04583,NaN,12.284182,-3.036213,1.268684,-3.297422,3.519037,1.954584,0.000481,1.139322,1.300458,-0.927002,0.108887,-0.390137,0.123105,-0.029562,0.011986,0.999963,0.000002,0.005697,0.006502,0.436040,0.260730,-0.495833,0.704300
04584,NaN,10.719359,-2.667661,1.331995,-3.027132,2.961485,0.476062,-0.578302,1.094074,1.345946,-0.923340,0.123535,-0.394531,0.107441,-0.025917,0.012808,0.999958,-0.002891,0.005470,0.006730,0.434349,0.252298,-0.497412,0.707296
04585,NaN,9.487537,-2.609299,1.515658,-2.629792,2.415568,-0.519368,-1.047175,1.028731,1.394145,-0.913330,0.138428,-0.403076,0.095131,-0.025352,0.014802,0.999949,-0.005236,0.005144,0.006971,0.433278,0.242918,-0.500620,0.708971
04586,NaN,8.524712,-2.716978,1.775289,-2.227506,1.881387,-1.169729,-1.413672,0.946161,1.435272,-0.905273,0.155518,-0.407227,0.085522,-0.026432,0.017537,0.999938,-0.007068,0.004731,0.007176,0.431893,0.232920,-0.505506,0.709705
04587,NaN,7.774146,-2.885985,1.893282,-1.857659,1.541128,-1.656540,-1.696594,0.857685,1.448310,-0.895508,0.176758,-0.417969,0.078028,-0.028135,0.018839,0.999929,-0.008483,0.004288,0.007241,0.430869,0.222548,-0.511330,0.709483
04588,NaN,7.194067,-2.922179,1.915076,-1.674908,1.314968,-2.103932,-1.881491,0.796737,1.428951,-0.896484,0.202148,-0.416260,0.072222,-0.028526,0.019134,0.999922,-0.009407,0.003984,0.007145,0.429629,0.212000,-0.518051,0.708588
04589,NaN,6.722507,-2.865641,1.917366,-1.609257,1.130626,-2.518129,-1.986376,0.744394,1.389917,-0.890869,0.223389,-0.420654,0.067493,-0.027997,0.019203,0.999920,-0.009932,0.003722,0.006949,0.428706,0.201491,-0.524928,0.707152
04590,NaN,6.288445,-2.739589,1.848031,-1.598805,1.010902,-2.965383,-2.019089,0.713027,1.332554,-0.883057,0.248779,-0.421143,0.063130,-0.026789,0.018528,0.999920,-0.010095,0.003565,0.006663,0.427545,0.191161,-0.532069,0.705383
04591,NaN,5.854196,-2.526403,1.621134,-1.603900,1.031408,-3.516258,-1.984438,0.689320,1.246461,-0.879395,0.261475,-0.427490,0.058753,-0.024737,0.016256,0.999925,-0.009922,0.003447,0.006232,0.426849,0.181171,-0.538753,0.703366
04592,NaN,5.584206,-2.354482,1.336476,-1.632546,1.172844,-3.941437,-1.870979,0.688208,1.137868,-0.871582,0.282715,-0.423584,0.056020,-0.023101,0.013390,0.999934,-0.009355,0.003441,0.005689,0.426112,0.171678,-0.545089,0.701308
04593,NaN,5.428334,-2.337427,1.193668,-1.608440,1.245737,-4.136798,-1.685323,0.717667,1.013339,-0.861572,0.297607,-0.429932,0.054443,-0.022998,0.011936,0.999945,-0.008426,0.003588,0.005067,0.425939,0.162812,-0.550317,0.699443
04594,NaN,5.513458,-2.306202,1.047779,-1.720725,1.423924,-4.171255,-1.487208,0.763745,0.886801,-0.853271,0.306152,-0.430176,0.055276,-0.022739,0.010437,0.999955,-0.007436,0.003819,0.004434,0.425930,0.154508,-0.554813,0.697777
04595,NaN,5.549059,-2.297197,0.864026,-1.759029,1.625203,-4.237749,-1.310295,0.810442,0.755337,-0.851807,0.321045,-0.432373,0.055611,-0.022706,0.008564,0.999963,-0.006551,0.004052,0.003777,0.426540,0.146802,-0.558230,0.696342
04596,NaN,5.588666,-2.151212,0.680878,-1.889700,1.828915,-4.389739,-1.137121,0.848101,0.630951,-0.849854,0.331543,-0.434570,0.055983,-0.021297,0.006693,0.999970,-0.005686,0.004240,0.003155,0.427358,0.139682,-0.561029,0.695055
04597,NaN,5.438534,-2.061707,0.637043,-1.887684,1.832205,-4.586446,-0.970504,0.869453,0.529870,-0.839600,0.337891,-0.440918,0.054467,-0.020442,0.006233,0.999975,-0.004852,0.004347,0.002649,0.428622,0.133110,-0.562908,0.694045
04598,NaN,5.228993,-2.128637,0.672812,-1.750622,1.735776,-4.689370,-0.783762,0.861369,0.455714,-0.831299,0.346436,-0.443115,0.052367,-0.021141,0.006586,0.999980,-0.003919,0.004307,0.002279,0.429742,0.127258,-0.564282,0.693335
04599,NaN,5.154906,-2.322258,0.831253,-1.631230,1.592733,-4.572546,-0.562167,0.837880,0.349732,-0.827148,0.344238,-0.451172,0.051624,-0.023109,0.008161,0.999986,-0.002811,0.004189,0.001749,0.431245,0.122170,-0.564654,0.693014
04600,NaN,5.562613,-2.464642,0.843190,-1.785162,1.801624,-4.218467,-0.322643,0.818528,0.158070,-0.827393,0.354980,-0.453369,0.055680,-0.024589,0.008244,0.999990,-0.001613,0.004093,0.000790,0.433062,0.118262,-0.564285,0.692859
04601,NaN,6.540786,-2.585787,0.702732,-2.227386,2.422543,-3.557142,-0.107408,0.799002,-0.075423,-0.814697,0.354736,-0.463623,0.065426,-0.025879,0.006780,0.999992,-0.000537,0.003995,-0.000377,0.435637,0.115487,-0.562886,0.692850
04602,NaN,7.586096,-2.650240,0.547413,-2.721644,3.099130,-2.894598,0.051687,0.799209,-0.332881,-0.816650,0.344238,-0.467529,0.075838,-0.026630,0.005164,0.999991,0.000258,0.003996,-0.001664,0.438906,0.113785,-0.560978,0.692617
04603,NaN,8.445108,-2.614470,0.297299,-3.113600,3.785391,-2.449310,0.132717,0.817085,-0.611536,-0.814453,0.342041,-0.471436,0.084382,-0.026405,0.002611,0.999987,0.000664,0.004085,-0.003058,0.443234,0.112973,-0.558379,0.692094
04604,NaN,9.228450,-2.639883,0.172902,-3.420802,4.327045,-1.955418,0.186080,0.832660,-0.966086,-0.816162,0.335693,-0.481689,0.092162,-0.026846,0.001320,0.999979,0.000930,0.004163,-0.004830,0.448633,0.113366,-0.555528,0.690844
04605,NaN,10.463852,-2.842943,0.031904,-3.785571,5.112710,-1.031902,0.222886,0.836639,-1.517563,-0.817627,0.316650,-0.491455,0.104419,-0.029222,-0.000150,0.999962,0.001114,0.004183,-0.007588,0.456054,0.115200,-0.552009,0.688498
04606,NaN,12.457790,-3.462394,0.385648,-4.322648,5.836531,0.891300,0.265411,0.827805,-2.184128,-0.819092,0.295410,-0.503418,0.124204,-0.035986,0.003295,0.999931,0.001327,0.004139,-0.010920,0.465523,0.119177,-0.548107,0.684590
04607,NaN,14.408911,-4.303441,1.031653,-4.602106,6.273584,3.096521,0.100413,0.695127,-2.810804,-0.820312,0.267822,-0.505127,0.143500,-0.045059,0.009795,0.999895,0.000502,0.003476,-0.014054,0.476940,0.124735,-0.544423,0.678655
04608,NaN,15.808270,-5.001248,1.277255,-4.388803,6.712619,4.754317,-0.131330,0.432261,-3.418360,-0.836426,0.246826,-0.504639,0.157224,-0.052696,0.012466,0.999851,-0.000657,0.002161,-0.017091,0.489646,0.132529,-0.541744,0.670222
04609,NaN,16.656432,-5.974519,1.823535,-3.628234,6.501318,6.342355,-0.181373,0.105114,-3.949378,-0.848145,0.210693,-0.510254,0.165351,-0.063002,0.018204,0.999804,-0.000907,0.000526,-0.019746,0.503189,0.142417,-0.539381,0.659990
04610,NaN,16.338263,-7.361907,2.733241,-1.997532,5.206976,7.434172,-0.059451,-0.183256,-4.324648,-0.851074,0.174561,-0.503418,0.161715,-0.077120,0.027504,0.999766,-0.000297,-0.000916,-0.021622,0.516552,0.155041,-0.537005,0.648662
04611,NaN,15.306740,-8.075031,4.151450,-0.749073,3.099185,7.694939,0.120441,-0.413624,-4.564914,-0.860107,0.132080,-0.502930,0.151085,-0.084239,0.041778,0.999737,0.000602,-0.002068,-0.022823,0.530016,0.168922,-0.534013,0.636694
04612,NaN,14.374514,-8.090788,5.642599,-0.171534,1.002277,7.589561,0.338627,-0.603213,-4.672690,-0.871582,0.091797,-0.498047,0.141631,-0.084329,0.056714,0.999721,0.001693,-0.003016,-0.023361,0.542578,0.184704,-0.530564,0.624496
04613,NaN,13.599594,-7.767264,6.690108,0.171773,-0.572581,7.205744,0.740093,-0.747656,-4.627692,-0.874268,0.049316,-0.493164,0.133896,-0.081035,0.067109,0.999718,0.003700,-0.003738,-0.023136,0.554208,0.201283,-0.525868,0.613026
04614,NaN,12.901211,-7.262932,7.275425,0.460469,-1.657224,6.592011,1.365311,-0.829917,-4.482886,-0.885254,-0.005859,-0.480225,0.127032,-0.075988,0.072773,0.999717,0.006826,-0.004149,-0.022412,0.563987,0.219824,-0.519424,0.603154
04615,NaN,12.053847,-6.698521,7.116033,0.943867,-2.071279,5.535733,2.158324,-0.844544,-4.323099,-0.883789,-0.048340,-0.479248,0.118742,-0.070331,0.070917,0.999699,0.010791,-0.004222,-0.021613,0.572289,0.239630,-0.510399,0.595446
04616,NaN,11.267286,-6.241616,6.849093,1.513015,-2.316173,4.509255,3.023170,-0.876660,-4.188227,-0.886230,-0.101318,-0.464111,0.111020,-0.065783,0.068003,0.999657,0.015114,-0.004383,-0.020939,0.578298,0.262161,-0.498719,0.590019
04617,NaN,10.766826,-5.849546,6.551786,2.055556,-2.345168,3.725916,3.882175,-0.949884,-4.066676,-0.886230,-0.160889,-0.448730,0.106123,-0.061927,0.064844,0.999594,0.019408,-0.004749,-0.020331,0.582603,0.286233,-0.484491,0.586441
04618,NaN,10.536182,-5.228268,6.303389,2.306320,-2.234872,3.137802,4.653490,-1.055207,-3.955001,-0.886475,-0.216064,-0.427490,0.103951,-0.055803,0.062314,0.999520,0.023264,-0.005275,-0.019772,0.584259,0.312962,-0.468010,0.584519
04619,NaN,10.556259,-4.218080,6.056800,2.110774,-1.958707,2.740071,5.210921,-1.145528,-3.798373,-0.884521,-0.275635,-0.409912,0.104372,-0.045739,0.060007,0.999464,0.026050,-0.005727,-0.018988,0.584214,0.340263,-0.449944,0.583494
04620,NaN,10.643485,-3.257572,6.019362,1.899911,-1.886139,2.553209,5.490093,-1.172478,-3.605406,-0.876221,-0.326660,-0.380371,0.105453,-0.036129,0.059854,0.999444,0.027445,-0.005861,-0.018024,0.581857,0.368310,-0.430889,0.583202
04621,NaN,10.515919,-2.123804,6.222354,1.474367,-2.139971,2.312403,5.344772,-1.155664,-3.425209,-0.872314,-0.379883,-0.354980,0.104396,-0.024693,0.062199,0.999480,0.026719,-0.005777,-0.017123,0.579213,0.394428,-0.412145,0.582303
04622,NaN,10.191761,-0.838308,6.574350,0.864975,-2.665540,2.015551,4.796543,-1.101169,-3.270069,-0.860352,-0.424805,-0.321533,0.101382,-0.011626,0.066050,0.999564,0.023979,-0.005505,-0.016348,0.576329,0.418526,-0.394724,0.580408
04623,NaN,9.719256,0.488252,6.877998,0.156360,-3.245963,1.651140,3.933786,-1.023950,-3.149586,-0.852783,-0.460938,-0.302246,0.096885,0.001995,0.069335,0.999669,0.019667,-0.005119,-0.015746,0.575030,0.438924,-0.379546,0.576742
04624,NaN,9.075009,1.497261,6.980426,-0.336976,-3.714708,1.113922,2.889918,-0.905884,-3.064968,-0.840820,-0.499268,-0.281250,0.090637,0.012568,0.070408,0.999768,0.014448,-0.004529,-0.015324,0.575390,0.455822,-0.367071,0.571324
04625,NaN,8.449679,1.945427,6.764271,-0.417882,-3.824313,0.488998,1.787293,-0.784152,-2.975990,-0.825195,-0.522705,-0.268555,0.084501,0.017589,0.068137,0.999842,0.008936,-0.003921,-0.014879,0.578292,0.468608,-0.357388,0.564145
04626,NaN,7.972561,1.738565,6.403131,0.026788,-3.674835,-0.113599,0.805286,-0.625310,-2.893589,-0.811523,-0.550293,-0.261719,0.079763,0.015973,0.064347,0.999882,0.004026,-0.003126,-0.014467,0.583202,0.477976,-0.350211,0.555668
04627,NaN,7.607582,0.959097,5.886580,0.934148,-3.269441,-0.763880,0.119777,-0.455517,-2.821404,-0.800293,-0.571533,-0.261475,0.076066,0.008483,0.059044,0.999898,0.000599,-0.002278,-0.014107,0.589901,0.484496,-0.344434,0.546484
04628,NaN,7.330082,-0.154363,5.507140,2.132920,-2.940547,-1.393463,-0.258040,-0.262103,-2.762253,-0.782715,-0.590820,-0.256836,0.073199,-0.002484,0.055170,0.999903,-0.001290,-0.001310,-0.013811,0.597429,0.489275,-0.339309,0.537176
04629,NaN,6.909477,-1.156844,5.248269,3.164613,-2.782929,-2.140549,-0.456213,-0.091082,-2.698638,-0.767090,-0.612061,-0.262451,0.068907,-0.012379,0.052542,0.999906,-0.002281,-0.000455,-0.013493,0.605587,0.492703,-0.334179,0.528046
04630,NaN,6.321507,-1.870191,4.927890,3.829530,-2.646581,-3.025082,-0.462419,0.055913,-2.626686,-0.753906,-0.629150,-0.266357,0.062977,-0.019416,0.049306,0.999911,-0.002312,0.000280,-0.013133,0.613551,0.495610,-0.328841,0.519413
04631,NaN,5.849846,-2.444006,4.731225,4.368158,-2.601695,-3.752414,-0.275537,0.167273,-2.567006,-0.734375,-0.642090,-0.265869,0.058218,-0.025123,0.047298,0.999916,-0.001378,0.000836,-0.012835,0.621128,0.498522,-0.322662,0.511434
04632,NaN,5.774177,-2.992544,4.684766,4.986372,-2.578004,-4.091562,0.045422,0.260648,-2.526010,-0.714600,-0.659180,-0.265625,0.057419,-0.030663,0.046766,0.999919,0.000227,0.001303,-0.012630,0.627689,0.502114,-0.315535,0.504307
04633,NaN,6.228724,-3.435203,4.736474,5.675955,-2.472046,-3.921904,0.381462,0.361227,-2.495548,-0.701172,-0.684570,-0.267090,0.061937,-0.035216,0.047186,0.999919,0.001907,0.001806,-0.012477,0.633548,0.506308,-0.307156,0.497920
04634,NaN,7.131062,-3.674701,4.839986,6.348504,-2.256870,-3.302709,0.633257,0.457294,-2.448245,-0.685547,-0.703857,-0.264648,0.070963,-0.037770,0.048119,0.999917,0.003166,0.002286,-0.012241,0.638506,0.510976,-0.298010,0.492345
04635,NaN,8.262685,-3.838271,4.960610,7.072033,-1.961381,-2.481522,0.784340,0.537703,-2.339619,-0.655518,-0.718750,-0.266357,0.082302,-0.039540,0.049231,0.999920,0.003922,0.002688,-0.011698,0.643016,0.515613,-0.288369,0.487356
04636,NaN,9.414671,-3.981628,5.099627,7.823817,-1.649352,-1.654441,0.841934,0.659594,-2.177114,-0.648682,-0.735840,-0.261963,0.093871,-0.041052,0.050515,0.999926,0.004210,0.003298,-0.010885,0.646860,0.519881,-0.278653,0.483372
04637,NaN,10.197148,-4.327842,5.075939,8.623606,-1.276766,-1.299504,0.821847,0.795438,-1.969353,-0.627197,-0.744385,-0.261719,0.101738,-0.044488,0.050173,0.999935,0.004109,0.003977,-0.009847,0.650555,0.523338,-0.268965,0.480160
04638,NaN,10.653317,-4.797493,5.012341,9.391292,-0.950443,-1.296396,0.772203,0.899743,-1.728414,-0.611816,-0.759277,-0.263428,0.106336,-0.049086,0.049457,0.999945,0.003861,0.004499,-0.008642,0.653643,0.526009,-0.259779,0.478100
04639,NaN,10.945070,-5.386174,4.925315,10.176347,-0.639591,-1.500529,0.729435,0.982906,-1.458077,-0.596436,-0.772217,-0.260986,0.109293,-0.054837,0.048517,0.999955,0.003647,0.004914,-0.007290,0.656462,0.527924,-0.250985,0.476822
04640,NaN,10.878734,-5.794608,4.852769,10.618271,-0.453691,-1.905981,0.714587,1.054273,-1.151584,-0.592041,-0.782715,-0.262939,0.108704,-0.058744,0.047746,0.999963,0.003573,0.005271,-0.005758,0.658396,0.529183,-0.242911,0.476943
04641,NaN,10.797883,-6.019753,4.816802,10.869829,-0.299427,-2.210913,0.716293,1.109029,-0.817379,-0.579346,-0.780762,-0.262939,0.107995,-0.060809,0.047352,0.999970,0.003581,0.005545,-0.004087,0.659783,0.529883,-0.235391,0.478019
04642,NaN,10.976509,-6.098074,4.599229,11.032234,0.140040,-2.256889,0.793898,1.172871,-0.437670,-0.576904,-0.789307,-0.262695,0.109897,-0.061401,0.045105,0.999973,0.003969,0.005864,-0.002188,0.659802,0.530167,-0.228636,0.480947
04643,NaN,12.083140,-6.250406,4.607556,11.683724,0.765278,-1.494021,1.017805,1.216216,-0.046026,-0.570557,-0.791504,-0.252441,0.121093,-0.062763,0.045021,0.999969,0.005089,0.006081,-0.000230,0.658590,0.530646,-0.222057,0.485144
04644,NaN,13.659948,-6.337060,4.992941,12.521817,1.303228,-0.159629,1.236825,1.301988,0.343188,-0.574707,-0.793457,-0.252441,0.137028,-0.063439,0.048646,0.999958,0.006184,0.006510,0.001716,0.655468,0.531159,-0.215796,0.491594
04645,NaN,14.085715,-5.912516,5.131913,12.335513,1.619200,0.429733,1.378870,1.427786,0.730618,-0.568604,-0.784912,-0.254639,0.141432,-0.058956,0.049904,0.999944,0.006894,0.007139,0.003653,0.651520,0.531360,-0.209667,0.499217
04646,NaN,13.779781,-5.329707,4.738996,11.515578,2.121272,0.367139,1.516335,1.537712,1.073390,-0.581055,-0.791260,-0.244385,0.138439,-0.052907,0.045925,0.999927,0.007581,0.007688,0.005367,0.645941,0.531235,-0.203903,0.508895
04647,NaN,13.921345,-4.888572,4.389436,10.972137,2.778353,0.620492,1.639615,1.631305,1.423865,-0.583496,-0.784912,-0.244385,0.139908,-0.048243,0.042358,0.999908,0.008198,0.008156,0.007119,0.639573,0.530889,-0.198237,0.519428
04648,NaN,14.447933,-4.606828,3.857036,10.570732,3.799472,1.080067,1.723840,1.713143,1.801440,-0.592041,-0.778564,-0.242432,0.145209,-0.045086,0.036937,0.999886,0.008619,0.008565,0.009007,0.631327,0.530085,-0.193140,0.532102
04649,NaN,15.033110,-4.352628,3.223028,10.099259,4.927582,1.546619,1.780236,1.771598,2.165198,-0.607422,-0.761475,-0.242920,0.151068,-0.042170,0.030515,0.999863,0.008901,0.008858,0.010825,0.622479,0.528839,-0.188536,0.545255
04650,NaN,15.610053,-3.947488,2.540316,9.341478,6.060057,2.091076,1.815280,1.828555,2.526835,-0.624512,-0.755127,-0.230713,0.156806,-0.037716,0.023624,0.999837,0.009076,0.009142,0.012633,0.611977,0.526855,-0.184866,0.560119
04651,NaN,16.173913,-3.282096,1.992452,8.295473,6.985947,2.784571,1.813519,1.896383,2.895760,-0.637939,-0.738037,-0.237305,0.162371,-0.030643,0.018102,0.999809,0.009067,0.009481,0.014478,0.600733,0.524327,-0.181591,0.575522
04652,NaN,16.763479,-2.600693,1.331568,7.038587,7.960763,3.476398,1.717672,1.948188,3.280161,-0.657471,-0.725342,-0.233643,0.168150,-0.023356,0.011471,0.999781,0.008588,0.009740,0.016400,0.587768,0.520644,-0.179612,0.592620
04653,NaN,17.611468,-1.824247,0.766229,5.679489,8.883008,4.430508,1.521650,1.970400,3.666253,-0.675049,-0.701904,-0.236084,0.176473,-0.015058,0.005802,0.999755,0.007608,0.009851,0.018330,0.574576,0.515870,-0.178827,0.609723
04654,NaN,18.642601,-0.983144,0.163653,4.083477,9.814703,5.532578,1.239596,1.984356,4.050302,-0.703369,-0.678223,-0.238525,0.186578,-0.006056,-0.000260,0.999727,0.006197,0.009921,0.020250,0.559983,0.509480,-0.180005,0.628050
04655,NaN,19.743195,-0.157125,-0.473644,2.343998,10.706422,6.614241,0.899031,1.973647,4.425839,-0.727783,-0.646240,-0.243408,0.197342,0.002824,-0.006678,0.999696,0.004495,0.009867,0.022127,0.545409,0.501676,-0.182890,0.646066
04656,NaN,20.815239,0.557817,-1.075639,0.481479,11.458059,7.597823,0.472981,1.923609,4.802686,-0.752441,-0.607910,-0.256348,0.207822,0.010600,-0.012735,0.999663,0.002365,0.009617,0.024011,0.529269,0.492146,-0.188281,0.664994
04657,NaN,21.616195,1.081162,-1.556253,-1.294131,11.930546,8.262704,-0.066249,1.829091,5.187723,-0.772705,-0.573975,-0.275391,0.215630,0.016404,-0.017541,0.999622,-0.000331,0.009144,0.025935,0.513712,0.480836,-0.196370,0.682887
04658,NaN,21.733110,1.445416,-1.699965,-2.930967,11.725450,8.383405,-0.657082,1.709455,5.562790,-0.797852,-0.520508,-0.290771,0.216662,0.020427,-0.018914,0.999571,-0.003285,0.008546,0.027810,0.497011,0.467499,-0.207912,0.700855
04659,NaN,21.003984,1.425229,-1.600504,-4.051164,11.004218,7.740655,-1.182927,1.562888,5.915060,-0.820557,-0.471680,-0.308105,0.209364,0.020350,-0.017751,0.999515,-0.005914,0.007813,0.029571,0.480438,0.452726,-0.221913,0.717616
04660,NaN,19.805663,0.912369,-1.146590,-4.479985,9.940312,6.782525,-1.540227,1.351398,6.228431,-0.843994,-0.407715,-0.323730,0.197563,0.015186,-0.012904,0.999463,-0.007700,0.006756,0.031137,0.462302,0.436807,-0.238740,0.733812
04661,NaN,18.681954,-0.047943,-0.846542,-4.452415,9.235093,5.823812,-1.772585,1.074176,6.503138,-0.869141,-0.350342,-0.334961,0.186656,0.005511,-0.009500,0.999418,-0.008861,0.005370,0.032509,0.443333,0.420773,-0.256839,0.748625
04662,NaN,17.912419,-0.954524,-0.671888,-4.546894,8.729663,5.194500,-1.916617,0.798485,6.737773,-0.886230,-0.282227,-0.348633,0.179283,-0.003575,-0.007381,0.999379,-0.009581,0.003992,0.033682,0.421951,0.404575,-0.276765,0.762677
04663,NaN,17.373885,-1.854036,-0.698600,-4.705212,8.491252,4.727519,-1.866233,0.583406,6.916926,-0.901123,-0.218506,-0.353760,0.174222,-0.012587,-0.007358,0.999354,-0.009329,0.002916,0.034577,0.399890,0.388604,-0.296478,0.775355
04664,NaN,16.732030,-2.908694,-0.821074,-4.718073,8.341492,4.227964,-1.518698,0.400815,6.988334,-0.909912,-0.146240,-0.359131,0.168185,-0.023283,-0.008356,0.999359,-0.007592,0.002004,0.034934,0.374807,0.373613,-0.315354,0.787709
04665,NaN,16.106932,-3.984203,-0.809883,-4.593567,8.167581,3.900213,-1.039839,0.182989,6.949872,-0.914307,-0.082520,-0.358154,0.162317,-0.034257,-0.008059,0.999382,-0.005198,0.000915,0.034742,0.349438,0.359780,-0.331909,0.798929
04666,NaN,15.645996,-4.642695,-0.871321,-4.898554,7.879719,3.637999,-0.651478,-0.025993,6.883515,-0.922852,-0.016602,-0.355225,0.157935,-0.041035,-0.008553,0.999402,-0.003257,-0.000130,0.034411,0.321533,0.347455,-0.347150,0.809554
04667,NaN,15.199796,-4.696018,-1.224604,-5.693727,7.535628,3.043609,-0.394022,-0.236973,6.812788,-0.924805,0.042725,-0.348145,0.153494,-0.041772,-0.011979,0.999417,-0.001970,-0.001185,0.034057,0.294044,0.335780,-0.360774,0.818921
04668,NaN,14.630913,-4.357644,-1.762755,-6.705480,7.036583,2.086657,-0.221488,-0.435561,6.749176,-0.920654,0.106445,-0.339111,0.147706,-0.038626,-0.017262,0.999428,-0.001107,-0.002177,0.033739,0.263829,0.325693,-0.373662,0.827463
04669,NaN,14.176126,-3.790855,-2.277037,-7.780631,6.453817,1.061487,-0.125518,-0.641810,6.654017,-0.912109,0.170166,-0.338135,0.142990,-0.033178,-0.022291,0.999441,-0.000627,-0.003208,0.033264,0.235157,0.315599,-0.385669,0.834481
04670,NaN,14.100394,-3.206507,-2.815577,-9.032836,5.883492,0.224550,-0.027874,-0.856162,6.539529,-0.905518,0.223145,-0.322510,0.142070,-0.027435,-0.027545,0.999456,-0.000139,-0.004280,0.032692,0.204695,0.306850,-0.397250,0.840319
04671,NaN,14.246591,-2.742603,-3.164377,-10.187115,5.257633,-0.378435,0.001646,-1.076256,6.421905,-0.896729,0.276123,-0.315186,0.143416,-0.022830,-0.030874,0.999470,0.000008,-0.005380,0.032104,0.175462,0.298488,-0.408000,0.844781
04672,NaN,14.527022,-2.569154,-3.581608,-11.205712,4.884453,-0.814822,-0.069035,-1.292526,6.272721,-0.877441,0.333496,-0.297852,0.146208,-0.021127,-0.034865,0.999487,-0.000345,-0.006462,0.031358,0.148810,0.289616,-0.419794,0.847202
04673,NaN,14.665656,-2.345685,-4.076500,-12.137935,4.439795,-1.440895,-0.155970,-1.507258,6.099200,-0.855957,0.384277,-0.282227,0.147583,-0.018996,-0.039639,0.999506,-0.000780,-0.007535,0.030491,0.119959,0.282972,-0.430212,0.848796
04674,NaN,14.691092,-2.265577,-4.442349,-12.780676,4.020684,-1.995209,-0.190416,-1.715620,5.919171,-0.842773,0.437256,-0.264648,0.147870,-0.018330,-0.043139,0.999525,-0.000952,-0.008577,0.029591,0.093535,0.276036,-0.441294,0.848714
04675,NaN,14.547019,-2.296665,-4.764445,-13.187697,3.575244,-2.544583,-0.123329,-1.912487,5.706261,-0.818848,0.477295,-0.246826,0.146493,-0.018825,-0.046234,0.999547,-0.000617,-0.009561,0.028527,0.065223,0.271412,-0.450398,0.848070
04676,NaN,14.296209,-2.488501,-4.793800,-13.268535,3.071456,-2.884254,0.079731,-2.093937,5.480124,-0.805664,0.528320,-0.227295,0.144063,-0.020929,-0.046442,0.999570,0.000399,-0.010468,0.027397,0.039135,0.266726,-0.458960,0.846570
04677,NaN,14.177511,-2.735121,-4.652865,-13.353693,2.389719,-3.027521,0.344570,-2.252725,5.259631,-0.781494,0.562012,-0.211426,0.142940,-0.023524,-0.044966,0.999589,0.001723,-0.011262,0.026295,0.011221,0.264183,-0.464778,0.845022
04678,NaN,14.089471,-2.896031,-4.414614,-13.400700,1.637783,-3.174279,0.672436,-2.386491,5.052353,-0.755127,0.600098,-0.199707,0.142078,-0.025236,-0.042544,0.999604,0.003362,-0.011931,0.025258,-0.014690,0.261426,-0.469461,0.843236
04679,NaN,14.192522,-3.140155,-3.797651,-13.387839,0.534131,-3.020564,1.079627,-2.482667,4.856444,-0.730957,0.636230,-0.183838,0.143087,-0.027737,-0.036361,0.999614,0.005397,-0.012412,0.024279,-0.042405,0.260347,-0.470903,0.841826
04680,NaN,14.696299,-3.133932,-3.152004,-13.691489,-0.797079,-2.914273,1.446439,-2.537897,4.653641,-0.708740,0.665771,-0.171875,0.148021,-0.027683,-0.029855,0.999623,0.007231,-0.012688,0.023265,-0.067984,0.258700,-0.471011,0.840596
04681,NaN,15.203589,-2.955230,-2.625709,-13.997314,-2.197792,-3.032878,1.785051,-2.526853,4.445510,-0.683838,0.680420,-0.163818,0.152957,-0.025935,-0.024571,0.999633,0.008924,-0.012633,0.022225,-0.094909,0.258184,-0.468235,0.839696
04682,NaN,15.431093,-2.677034,-2.075356,-13.980106,-3.489388,-3.337998,2.120063,-2.459934,4.233495,-0.655273,0.714355,-0.166504,0.155070,-0.023285,-0.019108,0.999644,0.010599,-0.012298,0.021165,-0.119331,0.256627,-0.464274,0.839257
04683,NaN,15.142033,-2.483635,-1.496834,-13.415559,-4.533278,-3.720163,2.441978,-2.343479,4.019156,-0.632324,0.727051,-0.170654,0.152040,-0.021614,-0.013466,0.999655,0.012208,-0.011716,0.020093,-0.144734,0.255621,-0.457632,0.839216
04684,NaN,14.522657,-2.316319,-0.907210,-12.532882,-5.261996,-4.129335,2.819162,-2.186274,3.774508,-0.612061,0.750244,-0.181152,0.145717,-0.020300,-0.007781,0.999663,0.014094,-0.010930,0.018870,-0.167263,0.253219,-0.449660,0.840065
04685,NaN,13.629044,-2.122331,-0.240356,-11.326127,-5.845323,-4.536262,3.272350,-2.008805,3.473104,-0.588867,0.754395,-0.191406,0.136648,-0.018824,-0.001353,0.999665,0.016360,-0.010043,0.017364,-0.190461,0.251063,-0.438488,0.841677
04686,NaN,12.288600,-1.787475,0.525571,-9.696749,-6.127807,-5.028247,3.792450,-1.797867,3.122753,-0.568359,0.771484,-0.211914,0.123094,-0.016063,0.006046,0.999658,0.018960,-0.008988,0.015612,-0.210143,0.247273,-0.425351,0.844850
04687,NaN,10.749249,-1.281625,1.337291,-7.826098,-6.299403,-5.565196,4.371007,-1.562066,2.762421,-0.551514,0.771484,-0.236328,0.107551,-0.011632,0.013950,0.999635,0.021852,-0.007809,0.013810,-0.230466,0.243352,-0.408511,0.848990
04688,NaN,9.166308,-0.822008,2.189641,-5.934527,-6.248556,-5.910541,4.957248,-1.328811,2.408613,-0.538574,0.769287,-0.275146,0.091610,-0.007666,0.022311,0.999598,0.024783,-0.006643,0.012041,-0.247356,0.237620,-0.389383,0.854829
04689,NaN,7.650610,-0.460223,2.837303,-4.233246,-5.952885,-6.147125,5.434238,-1.129571,2.072548,-0.527588,0.756592,-0.305664,0.076392,-0.004587,0.028680,0.999561,0.027167,-0.005647,0.010361,-0.264764,0.231626,-0.367057,0.861115
04690,NaN,6.311775,-0.202301,3.140938,-2.954617,-5.400985,-6.371198,5.635141,-0.990189,1.723625,-0.516846,0.746094,-0.344238,0.062981,-0.002370,0.031658,0.999554,0.028172,-0.004950,0.008617,-0.278118,0.224546,-0.343980,0.868279
04691,NaN,5.356017,0.079621,3.113688,-2.141127,-4.906276,-6.693200,5.521612,-0.938244,1.373496,-0.511963,0.729248,-0.380859,0.053410,0.000299,0.031401,0.999584,0.027604,-0.004691,0.006867,-0.291779,0.218524,-0.320108,0.874439
04692,NaN,4.727968,0.487506,2.996722,-1.595254,-4.636187,-7.068396,5.215627,-0.981986,1.042273,-0.509277,0.712158,-0.415283,0.047108,0.004333,0.030317,0.999634,0.026075,-0.004909,0.005211,-0.301217,0.212977,-0.297488,0.880574
04693,NaN,4.272616,0.980956,3.249908,-0.895150,-4.687402,-7.166132,4.744813,-1.129222,0.772558,-0.510986,0.701660,-0.433350,0.042505,0.009196,0.032963,0.999695,0.023722,-0.005646,0.003862,-0.311259,0.209628,-0.275632,0.884986
04694,NaN,3.812039,1.626834,3.494290,-0.130617,-4.815050,-7.325939,4.065504,-1.335939,0.584079,-0.512695,0.684814,-0.449463,0.037838,0.015661,0.035519,0.999767,0.020326,-0.006679,0.002920,-0.317702,0.208006,-0.256643,0.888782
04695,NaN,3.366809,2.260203,3.699459,0.643794,-4.926507,-7.479829,3.334223,-1.585810,0.446631,-0.524658,0.665771,-0.467529,0.033322,0.022053,0.037630,0.999827,0.016670,-0.007929,0.002233,-0.325133,0.209186,-0.239729,0.890539
04696,NaN,3.151541,2.860104,4.038078,1.312462,-5.206687,-7.449727,2.555480,-1.859499,0.289195,-0.522461,0.661621,-0.477783,0.031095,0.028125,0.041033,0.999874,0.012777,-0.009297,0.001446,-0.329199,0.212670,-0.226100,0.891784
04697,NaN,2.972232,3.420673,4.292279,1.933769,-5.449121,-7.462365,1.753446,-2.119985,0.053241,-0.536865,0.648926,-0.469482,0.029254,0.033835,0.043532,0.999905,0.008767,-0.010600,0.000266,-0.333664,0.219194,-0.214829,0.891331
04698,NaN,2.866897,3.741053,4.593893,2.401403,-5.594457,-7.312328,0.949713,-2.373984,-0.253762,-0.549316,0.644531,-0.461182,0.028167,0.037155,0.046452,0.999917,0.004748,-0.011870,-0.001269,-0.334305,0.228262,-0.206789,0.890716
04699,NaN,2.963754,3.731367,4.980453,2.643655,-5.660514,-6.900655,0.157125,-2.595331,-0.587230,-0.570312,0.636230,-0.446777,0.029097,0.037188,0.050214,0.999911,0.000786,-0.012976,-0.002936,-0.334519,0.240182,-0.201064,0.888810
04700,NaN,3.432918,3.341971,5.245041,2.380221,-5.703547,-6.310320,-0.560140,-2.820893,-0.902683,-0.593994,0.648926,-0.424805,0.033737,0.033414,0.052835,0.999886,-0.002801,-0.014104,-0.004513,-0.330837,0.254357,-0.198203,0.886885
04701,NaN,4.445808,2.404389,5.426934,1.508688,-5.706778,-5.323593,-1.122080,-3.021746,-1.199519,-0.606201,0.634033,-0.399902,0.043777,0.024086,0.054799,0.999852,-0.005610,-0.015108,-0.005997,-0.327032,0.270800,-0.196627,0.883773
04702,NaN,5.705937,1.111609,5.588654,0.352928,-5.606128,-4.027457,-1.558644,-3.154856,-1.496505,-0.629639,0.638428,-0.373535,0.056253,0.011133,0.056691,0.999817,-0.007793,-0.015773,-0.007482,-0.319776,0.288560,-0.196756,0.880774
04703,NaN,6.785861,-0.026813,5.722994,-0.525064,-5.451013,-2.826621,-1.875090,-3.236689,-1.788439,-0.654785,0.632080,-0.334717,0.066918,-0.000326,0.058321,0.999785,-0.009375,-0.016182,-0.008942,-0.312305,0.307545,-0.197217,0.876919
04704,NaN,7.538475,-0.898647,5.826158,-1.031429,-5.218241,-1.858020,-2.008222,-3.283313,-2.065109,-0.679932,0.625732,-0.306152,0.074320,-0.009164,0.059579,0.999762,-0.010040,-0.016415,-0.010325,-0.302122,0.326942,-0.198070,0.873269
04705,NaN,8.056285,-1.668895,5.891007,-1.298251,-4.854709,-1.030497,-1.994881,-3.294433,-2.337736,-0.707031,0.612793,-0.271240,0.079378,-0.017024,0.060393,0.999746,-0.009974,-0.016471,-0.011688,-0.291834,0.346607,-0.197934,0.869206
04706,NaN,8.474650,-2.585976,5.921058,-1.533975,-4.250720,-0.162365,-1.838269,-3.266490,-2.603702,-0.729736,0.600098,-0.240479,0.083421,-0.026397,0.060821,0.999740,-0.009191,-0.016331,-0.013017,-0.279441,0.365898,-0.196970,0.865583
04707,NaN,8.945415,-3.589988,6.019936,-1.708871,-3.556417,0.843783,-1.604090,-3.208202,-2.881694,-0.750244,0.581055,-0.209473,0.087945,-0.036682,0.061910,0.999735,-0.008020,-0.016040,-0.014407,-0.267114,0.384799,-0.194108,0.861918
04708,NaN,9.247128,-4.413489,5.819440,-1.909785,-2.775071,1.478169,-1.343690,-3.117343,-3.151626,-0.779297,0.559814,-0.176514,0.090840,-0.045176,0.059920,0.999732,-0.006718,-0.015585,-0.015757,-0.253041,0.402945,-0.189952,0.858792
04709,NaN,9.258890,-4.839839,5.329502,-2.045635,-2.041970,1.552914,-1.004202,-3.012788,-3.412834,-0.801514,0.530029,-0.145508,0.090929,-0.049687,0.054921,0.999728,-0.005021,-0.015063,-0.017063,-0.239149,0.420317,-0.183528,0.855838
04710,NaN,9.166867,-4.964634,4.781433,-2.119270,-1.441985,1.365283,-0.600577,-2.908648,-3.624756,-0.826172,0.506836,-0.120605,0.090041,-0.051142,0.049284,0.999726,-0.003003,-0.014542,-0.018122,-0.224154,0.436670,-0.175295,0.853432
04711,NaN,9.354822,-5.012331,4.477937,-2.152172,-1.060237,1.452653,-0.213886,-2.808955,-3.761372,-0.848389,0.475098,-0.095703,0.091943,-0.051814,0.046133,0.999724,-0.001069,-0.014043,-0.018805,-0.210029,0.452103,-0.164803,0.851076
04712,NaN,9.769117,-5.111072,4.285431,-2.234615,-0.719648,1.779839,0.113910,-2.724355,-3.807562,-0.866211,0.443115,-0.076660,0.096099,-0.052975,0.044141,0.999726,0.000569,-0.013621,-0.019036,-0.195531,0.466594,-0.153131,0.848886
04713,NaN,10.009226,-5.139795,4.053109,-2.261431,-0.325684,1.925452,0.364045,-2.654418,-3.800934,-0.886230,0.405029,-0.053711,0.098542,-0.053356,0.041750,0.999730,0.001820,-0.013271,-0.019003,-0.182218,0.480319,-0.140088,0.846443
04714,NaN,10.045292,-5.063777,3.842558,-2.167248,0.083650,1.874308,0.621301,-2.602109,-3.791343,-0.902100,0.377441,-0.034912,0.098958,-0.052645,0.039558,0.999731,0.003106,-0.013009,-0.018955,-0.168713,0.493316,-0.126282,0.843936
04715,NaN,10.176089,-5.087061,4.024994,-1.807971,0.528253,2.106121,0.904993,-2.561728,-3.766696,-0.915527,0.339111,-0.017822,0.100252,-0.052954,0.041304,0.999730,0.004525,-0.012807,-0.018832,-0.156612,0.505637,-0.110983,0.841122
04716,NaN,10.528160,-5.192554,4.457084,-1.339334,0.990517,2.631911,1.159788,-2.521723,-3.694096,-0.927246,0.309326,0.002930,0.103725,-0.054113,0.045576,0.999733,0.005798,-0.012607,-0.018469,-0.144696,0.517297,-0.095091,0.838108
04717,NaN,10.928294,-5.254745,4.849289,-0.920486,1.432426,3.134434,1.349266,-2.468325,-3.570483,-0.934814,0.277588,0.020020,0.107711,-0.054811,0.049464,0.999742,0.006746,-0.012341,-0.017851,-0.134348,0.528257,-0.078399,0.834715
04718,NaN,10.971361,-5.054517,5.166608,-0.384726,1.762234,3.200067,1.480325,-2.396616,-3.438061,-0.946533,0.250000,0.036621,0.108192,-0.052801,0.052583,0.999753,0.007401,-0.011982,-0.017189,-0.124233,0.538551,-0.061813,0.831088
04719,NaN,10.963682,-4.714067,5.392316,0.089177,1.961367,3.134169,1.568900,-2.313664,-3.297379,-0.959961,0.209717,0.053711,0.108205,-0.049360,0.054799,0.999766,0.007844,-0.011567,-0.016486,-0.115428,0.548112,-0.044970,0.827180
04720,NaN,11.031446,-4.405564,5.673989,0.573639,2.162988,3.158986,1.574364,-2.221248,-3.124081,-0.961182,0.184082,0.070557,0.108967,-0.046216,0.057597,0.999785,0.007871,-0.011105,-0.015619,-0.106725,0.557058,-0.028919,0.823080
04721,NaN,11.118151,-4.046500,5.823222,0.923171,2.284227,3.141299,1.529157,-2.113317,-2.925320,-0.964355,0.156494,0.085205,0.109948,-0.042529,0.059078,0.999808,0.007645,-0.010566,-0.014626,-0.099215,0.565282,-0.013351,0.818801
04722,NaN,11.109426,-3.740161,6.024157,1.339740,2.454541,3.065974,1.487461,-1.977539,-2.711625,-0.961426,0.133057,0.108154,0.109969,-0.039350,0.061045,0.999832,0.007437,-0.009887,-0.013557,-0.091876,0.572819,0.001065,0.814516
04723,NaN,11.045357,-3.578328,6.231654,1.741029,2.743710,2.956911,1.358457,-1.838499,-2.471018,-0.962891,0.107422,0.120850,0.109419,-0.037566,0.063074,0.999858,0.006792,-0.009192,-0.012355,-0.085664,0.579614,0.014512,0.810246
04724,NaN,10.768322,-3.457837,6.410466,2.167101,3.052935,2.636326,1.185619,-1.686442,-2.224883,-0.968750,0.094727,0.141602,0.106742,-0.036152,0.064796,0.999885,0.005928,-0.008432,-0.011124,-0.079422,0.585810,0.026161,0.806123
04725,NaN,10.456349,-3.620679,6.690434,2.630382,3.608210,2.322316,1.022583,-1.528025,-1.973256,-0.963623,0.073486,0.147949,0.103683,-0.037577,0.067509,0.999909,0.005113,-0.007640,-0.009866,-0.074239,0.591277,0.036660,0.802207
04726,NaN,10.191169,-3.901731,6.769733,2.859950,4.193428,1.983118,0.825714,-1.386885,-1.703244,-0.965332,0.058594,0.160645,0.101101,-0.040162,0.068236,0.999931,0.004128,-0.006934,-0.008516,-0.069122,0.596278,0.045220,0.798517
04727,NaN,9.956947,-4.025124,6.695101,2.942804,4.547910,1.624868,0.645258,-1.271141,-1.458827,-0.960693,0.043701,0.175293,0.098844,-0.041191,0.067449,0.999948,0.003226,-0.006356,-0.007294,-0.064911,0.600795,0.052577,0.795027
04728,NaN,9.628195,-4.121784,6.659783,3.088790,4.838190,1.191455,0.526711,-1.175215,-1.241355,-0.958252,0.039307,0.177246,0.095630,-0.041989,0.067051,0.999960,0.002634,-0.005876,-0.006207,-0.060755,0.605044,0.058451,0.791716
04729,NaN,9.491778,-4.449292,6.544854,3.053413,5.303357,0.923842,0.466176,-1.106951,-1.042947,-0.959961,0.024414,0.196045,0.094320,-0.045139,0.065867,0.999968,0.002331,-0.005535,-0.005215,-0.057691,0.608985,0.063779,0.788505
04730,NaN,9.516964,-4.836312,6.417177,2.953517,5.794002,0.810233,0.466136,-1.051409,-0.856648,-0.959717,0.020264,0.196045,0.094622,-0.048919,0.064557,0.999974,0.002331,-0.005257,-0.004283,-0.054942,0.612802,0.068208,0.785368
04731,NaN,9.756530,-5.219150,6.381232,2.874793,6.281675,0.930849,0.526531,-1.003588,-0.684865,-0.951172,0.015869,0.216553,0.097064,-0.052693,0.064162,0.999978,0.002633,-0.005018,-0.003424,-0.053503,0.616375,0.072642,0.782267
04732,NaN,9.989695,-5.619802,6.265620,2.716145,6.758395,1.030710,0.647730,-0.938002,-0.494923,-0.955322,0.015869,0.222656,0.099462,-0.056648,0.062940,0.999981,0.003239,-0.004690,-0.002475,-0.052735,0.619777,0.076594,0.779249
04733,NaN,10.110089,-5.840954,6.220124,2.656884,7.060393,1.055216,0.795478,-0.863781,-0.297659,-0.947021,0.015869,0.222656,0.100744,-0.058808,0.062403,0.999982,0.003977,-0.004319,-0.001488,-0.053688,0.622832,0.080836,0.776314
04734,NaN,10.139560,-5.965325,6.177896,2.626231,7.250827,1.008121,0.987623,-0.781896,-0.099883,-0.948975,0.015869,0.232910,0.101124,-0.060009,0.061879,0.999980,0.004938,-0.003909,-0.000499,-0.055587,0.625646,0.084825,0.773486
04735,NaN,10.130590,-6.070667,6.110205,2.549757,7.407705,0.931643,1.185813,-0.698012,0.079598,-0.945068,0.024170,0.243164,0.101117,-0.061029,0.061094,0.999976,0.005929,-0.003490,0.000398,-0.059286,0.628059,0.089348,0.770742
04736,NaN,10.129035,-5.966893,5.950748,2.412729,7.325700,0.870248,1.361018,-0.617761,0.249145,-0.949463,0.030762,0.238770,0.101181,-0.059947,0.059413,0.999971,0.006805,-0.003089,0.001246,-0.063787,0.630228,0.093622,0.768101
04737,NaN,10.081868,-5.819992,5.727413,2.208365,7.175434,0.768221,1.511118,-0.545066,0.396345,-0.941162,0.032715,0.247070,0.100779,-0.058432,0.057108,0.999966,0.007556,-0.002725,0.001982,-0.069793,0.632027,0.098341,0.765507
04738,NaN,10.029070,-5.653781,5.504367,2.005692,6.989588,0.673881,1.652445,-0.483251,0.523687,-0.939209,0.041260,0.244873,0.100306,-0.056729,0.054818,0.999960,0.008262,-0.002416,0.002618,-0.076396,0.633616,0.102845,0.762966
04739,NaN,10.225641,-5.561909,5.345383,1.782946,6.885011,0.840437,1.798489,-0.421575,0.616262,-0.939697,0.051758,0.250732,0.102316,-0.055783,0.053168,0.999953,0.008992,-0.002108,0.003081,-0.084202,0.634848,0.107904,0.760418
04740,NaN,10.494536,-5.504970,5.230917,1.579184,6.813224,1.090896,1.938771,-0.364488,0.679676,-0.937988,0.062500,0.250732,0.105038,-0.055198,0.051966,0.999946,0.009694,-0.001822,0.003398,-0.092330,0.635842,0.112908,0.757913
04741,NaN,10.886713,-5.452584,5.341716,1.546898,6.804590,1.504957,2.087755,-0.281022,0.729484,-0.931641,0.068848,0.256592,0.108992,-0.054683,0.053000,0.999938,0.010439,-0.001405,0.003647,-0.101545,0.636339,0.118619,0.755441
04742,NaN,11.302596,-5.445996,5.516375,1.550385,6.851212,1.955664,2.198717,-0.161663,0.786262,-0.932373,0.085693,0.258301,0.113196,-0.054618,0.054655,0.999932,0.010993,-0.000808,0.003931,-0.110944,0.636368,0.124093,0.753212
04743,NaN,11.700303,-5.366365,5.697713,1.559841,6.824581,2.399987,2.274746,-0.006566,0.851875,-0.934814,0.098389,0.254150,0.117230,-0.053808,0.056370,0.999926,0.011373,-0.000033,0.004259,-0.121355,0.635636,0.129939,0.751236
04744,NaN,11.953670,-5.287630,5.946766,1.645068,6.810397,2.722202,2.303390,0.184476,0.922497,-0.933105,0.109131,0.251953,0.119835,-0.053003,0.058747,0.999923,0.011517,0.000922,0.004612,-0.131792,0.634217,0.135126,0.749761
04745,NaN,12.211750,-5.079775,5.961137,1.535884,6.575316,3.027472,2.231331,0.410416,0.995473,-0.925293,0.128174,0.245361,0.122492,-0.050848,0.058793,0.999923,0.011156,0.002052,0.004977,-0.142844,0.631856,0.140050,0.748826
04746,NaN,12.319905,-4.612363,5.758824,1.360796,5.990266,3.167287,2.052607,0.656046,1.068875,-0.929932,0.143066,0.232910,0.123632,-0.046049,0.056710,0.999928,0.010263,0.003280,0.005344,-0.153296,0.628763,0.143451,0.748718
04747,NaN,12.331501,-4.125134,5.189505,0.885957,5.207533,3.152904,1.779170,0.889681,1.151651,-0.919678,0.151611,0.220459,0.123780,-0.040996,0.050980,0.999934,0.008896,0.004448,0.005758,-0.163806,0.624877,0.145797,0.749293
04748,NaN,12.295616,-3.770604,4.394185,0.191303,4.404584,3.042938,1.448882,1.098503,1.243174,-0.931152,0.175049,0.211914,0.123427,-0.037254,0.042994,0.999939,0.007244,0.005492,0.006216,-0.173347,0.620551,0.146044,0.750692
04749,NaN,12.401193,-3.624031,3.443619,-0.736847,3.663465,3.025243,1.074774,1.274122,1.332305,-0.925049,0.181396,0.199463,0.124466,-0.035594,0.033452,0.999943,0.005374,0.006370,0.006661,-0.182580,0.615800,0.144829,0.752649
04750,NaN,12.484158,-3.509207,2.563233,-1.588225,2.939637,2.976718,0.689760,1.412885,1.423164,-0.931885,0.194336,0.182861,0.125264,-0.034288,0.024629,0.999944,0.003449,0.007064,0.007116,-0.190636,0.610965,0.141356,0.755247
04751,NaN,12.498460,-3.555099,1.703300,-2.468914,2.344514,2.842452,0.303712,1.517405,1.500212,-0.923828,0.211182,0.174561,0.125371,-0.034636,0.016030,0.999942,0.001519,0.007587,0.007501,-0.198267,0.605995,0.136463,0.758181
04752,NaN,12.554044,-3.845720,0.862948,-3.436324,1.954890,2.737265,-0.035010,1.597976,1.574446,-0.926514,0.224121,0.153809,0.125902,-0.037466,0.007631,0.999937,-0.000175,0.007990,0.007872,-0.204696,0.601132,0.129545,0.761550
04753,NaN,12.494902,-4.457800,-0.232741,-4.743899,1.742981,2.455123,-0.256001,1.629490,1.651634,-0.918457,0.239014,0.139160,0.125287,-0.043548,-0.003291,0.999932,-0.001280,0.008147,0.008258,-0.211234,0.596244,0.121928,0.764858
04754,NaN,12.431375,-5.450556,-1.540260,-6.393333,1.785065,2.126829,-0.362066,1.586613,1.760740,-0.923340,0.255859,0.128662,0.124660,-0.053438,-0.016293,0.999928,-0.001810,0.007933,0.008803,-0.217380,0.591692,0.113230,0.768001
04755,NaN,12.395044,-6.491702,-2.840713,-8.049341,1.866169,1.830656,-0.323204,1.484503,1.901210,-0.913086,0.268799,0.114258,0.124345,-0.063783,-0.029225,0.999926,-0.001616,0.007422,0.009506,-0.224526,0.587401,0.104741,0.770439
04756,NaN,12.345639,-7.391754,-3.602703,-9.157251,2.055376,1.674008,-0.090779,1.359706,2.059000,-0.905273,0.287842,0.103760,0.123960,-0.072660,-0.036835,0.999924,-0.000454,0.006798,0.010295,-0.232402,0.583407,0.096420,0.772223
04757,NaN,11.826661,-8.014848,-4.201918,-9.893950,2.148449,1.107369,0.321147,1.193899,2.227706,-0.903809,0.306885,0.099365,0.118895,-0.078758,-0.042855,0.999919,0.001606,0.005969,0.011138,-0.242474,0.579478,0.089765,0.772886
04758,NaN,11.239529,-8.342785,-4.588603,-10.287331,2.082518,0.522020,0.779629,0.950890,2.377904,-0.896240,0.332275,0.086670,0.113154,-0.081904,-0.046744,0.999910,0.003898,0.004754,0.011889,-0.253806,0.575989,0.084318,0.772470
04759,NaN,10.837678,-8.051586,-4.544963,-10.046812,1.581793,0.161575,1.146217,0.680541,2.521943,-0.890625,0.351562,0.076172,0.109222,-0.078878,-0.046276,0.999898,0.005731,0.003403,0.012609,-0.267087,0.572939,0.080608,0.770654
04760,NaN,10.507661,-7.057345,-4.548103,-9.471492,0.459641,-0.274955,1.288740,0.389567,2.678649,-0.883057,0.379150,0.069580,0.105917,-0.068863,-0.046134,0.999888,0.006443,0.001948,0.013393,-0.280706,0.570850,0.076962,0.767731
04761,NaN,10.106950,-5.929511,-5.271769,-9.354981,-1.051464,-1.068184,1.379196,0.063820,2.815385,-0.871094,0.398193,0.061035,0.101870,-0.057499,-0.053151,0.999877,0.006896,0.000319,0.014076,-0.295418,0.569711,0.074121,0.763324
04762,NaN,9.688535,-5.291070,-6.734712,-10.042737,-2.465439,-2.049402,1.790115,-0.225981,2.861001,-0.861328,0.423584,0.058594,0.097700,-0.050912,-0.067699,0.999857,0.008950,-0.001130,0.014304,-0.310769,0.569035,0.072707,0.757849
04763,NaN,9.267235,-5.692756,-7.410903,-10.616898,-2.740296,-2.535154,2.489335,-0.412696,2.804521,-0.847412,0.451172,0.052002,0.093603,-0.054693,-0.074607,0.999822,0.012446,-0.002063,0.014022,-0.328251,0.567677,0.074789,0.751266
04764,NaN,9.126421,-6.747362,-7.019267,-10.762091,-2.160842,-2.225048,3.003879,-0.537311,2.809355,-0.835449,0.472412,0.039551,0.092380,-0.065119,-0.070935,0.999785,0.015018,-0.002686,0.014046,-0.346490,0.565840,0.078531,0.744045
04765,NaN,9.293291,-7.920949,-6.564204,-11.012250,-1.676735,-1.561331,3.233981,-0.613591,2.968986,-0.823486,0.495850,0.032959,0.094288,-0.076745,-0.066608,0.999754,0.016169,-0.003068,0.014844,-0.366335,0.563576,0.083208,0.735702
04766,NaN,9.816924,-8.615605,-6.103449,-11.016862,-1.747041,-0.680582,3.183691,-0.688310,3.236367,-0.812012,0.529785,0.024170,0.099748,-0.083568,-0.062037,0.999736,0.015917,-0.003441,0.016180,-0.386247,0.561638,0.086599,0.726551
04767,NaN,10.440419,-8.928561,-5.473735,-10.620976,-2.091682,0.260359,2.955093,-0.795348,3.523830,-0.791504,0.546631,0.015869,0.106166,-0.086608,-0.055610,0.999728,0.014774,-0.003976,0.017618,-0.406874,0.560223,0.088954,0.716025
04768,NaN,10.404148,-9.083389,-5.633922,-10.608932,-2.672410,0.324603,2.611568,-0.988159,3.803863,-0.777832,0.580566,0.007080,0.106015,-0.088089,-0.056981,0.999722,0.013057,-0.004940,0.019018,-0.426625,0.560172,0.089156,0.704450
04769,NaN,9.918388,-9.488719,-5.551918,-10.544375,-2.745452,0.210872,2.367502,-1.169023,4.013775,-0.751221,0.608154,0.008789,0.101379,-0.092206,-0.056033,0.999711,0.011836,-0.005845,0.020067,-0.446725,0.560896,0.088726,0.691346
04770,NaN,10.195756,-9.862742,-5.031376,-10.108225,-2.927852,0.946016,1.969746,-1.369253,4.244840,-0.729004,0.644043,0.006348,0.104358,-0.095932,-0.050558,0.999703,0.009848,-0.006846,0.021222,-0.465503,0.563154,0.086145,0.677306
04771,NaN,10.012967,-9.941926,-5.444215,-10.053880,-3.635556,0.882878,1.638765,-1.635026,4.485525,-0.700439,0.673584,0.008057,0.102764,-0.096688,-0.054409,0.999682,0.008193,-0.008174,0.022425,-0.484432,0.566658,0.082849,0.661333
04772,NaN,9.867690,-9.666542,-5.428816,-9.392389,-4.229912,0.870311,1.524562,-1.897758,4.637359,-0.671875,0.703125,0.015625,0.101390,-0.093923,-0.054058,0.999657,0.007622,-0.009488,0.023184,-0.502456,0.571180,0.078777,0.644272
04773,NaN,9.645898,-8.816870,-5.022551,-8.017567,-4.761384,0.627985,1.489680,-2.099675,4.735056,-0.639160,0.737061,0.015381,0.099029,-0.085472,-0.049838,0.999637,0.007448,-0.010497,0.023672,-0.520930,0.575887,0.075308,0.625551
04774,NaN,9.439422,-7.697740,-4.527716,-6.381246,-5.241584,0.218361,1.590586,-2.286872,4.751549,-0.604004,0.764404,0.019043,0.096695,-0.074341,-0.044778,0.999621,0.007952,-0.011433,0.023755,-0.538610,0.580693,0.071942,0.606233
04775,NaN,9.388110,-6.765525,-3.829572,-4.715337,-5.485248,-0.003742,1.804596,-2.458510,4.697682,-0.562744,0.793945,0.022949,0.095896,-0.065076,-0.037720,0.999608,0.009022,-0.012291,0.023485,-0.556970,0.584775,0.070376,0.585551
04776,NaN,9.446943,-6.035189,-3.325892,-3.303670,-5.733827,-0.173959,1.996295,-2.573828,4.646204,-0.531494,0.815186,0.018555,0.096255,-0.057802,-0.032613,0.999598,0.009980,-0.012867,0.023228,-0.574629,0.588375,0.069194,0.564650
04777,NaN,9.444642,-5.620524,-3.121601,-2.315385,-5.986012,-0.362268,2.198172,-2.688729,4.590946,-0.489990,0.840576,0.016113,0.096112,-0.053673,-0.030531,0.999586,0.010989,-0.013442,0.022952,-0.592865,0.591022,0.069603,0.542549
04778,NaN,9.753551,-5.340933,-2.272679,-0.954546,-5.790474,-0.099203,2.207770,-2.760225,4.534894,-0.459229,0.867920,0.007812,0.099016,-0.050930,-0.021938,0.999587,0.011037,-0.013799,0.022671,-0.609869,0.593531,0.069767,0.520493
04779,NaN,9.571033,-4.625646,-1.883407,0.240975,-5.699371,-0.648550,2.018722,-2.799954,4.465340,-0.415283,0.880615,0.003662,0.096964,-0.043917,-0.017934,0.999602,0.010092,-0.013998,0.022324,-0.626238,0.596010,0.070293,0.497651
04780,NaN,9.323266,-4.179689,-1.761030,1.020348,-5.629638,-1.167641,1.740165,-2.910699,4.336674,-0.382080,0.899414,0.001465,0.094354,-0.039612,-0.016593,0.999621,0.008700,-0.014552,0.021681,-0.640394,0.599335,0.070229,0.475143
04781,NaN,9.604364,-4.482153,-1.487003,1.618842,-5.515507,-0.786098,1.384471,-2.981763,4.224525,-0.340332,0.916260,-0.000732,0.097171,-0.042679,-0.013727,0.999642,0.006922,-0.014907,0.021120,-0.653280,0.603280,0.070398,0.452020
04782,NaN,9.960189,-5.686093,-1.422544,1.572738,-5.469063,0.244674,1.177001,-2.981558,4.119004,-0.306885,0.928955,-0.000977,0.100944,-0.054712,-0.013053,0.999660,0.005884,-0.014906,0.020593,-0.664340,0.607656,0.069786,0.429577
04783,NaN,10.281489,-7.248661,-1.455687,1.290521,-5.496575,1.521617,1.565927,-2.919351,3.917868,-0.270996,0.937256,-0.015137,0.104410,-0.070343,-0.013597,0.999671,0.007829,-0.014595,0.019587,-0.676254,0.609917,0.070938,0.407000
04784,NaN,10.460884,-8.295915,-0.706260,1.568915,-4.885552,2.532295,2.212677,-2.839300,3.604456,-0.237793,0.952148,-0.031738,0.106175,-0.080981,-0.006466,0.999676,0.011062,-0.014195,0.018020,-0.688653,0.609530,0.073512,0.385781
04785,NaN,10.531782,-8.106566,-0.096569,2.428135,-4.438888,2.476660,2.701128,-2.772188,3.278539,-0.212402,0.954102,-0.053955,0.106637,-0.079315,-0.000573,0.999678,0.013504,-0.013859,0.016391,-0.701947,0.606610,0.078271,0.364923
04786,NaN,10.486767,-7.210753,0.195322,3.420173,-4.205646,1.702913,3.323132,-2.681735,2.940013,-0.191406,0.958496,-0.080566,0.105885,-0.070591,0.002187,0.999664,0.016614,-0.013407,0.014698,-0.715745,0.601009,0.084386,0.345508
04787,NaN,10.341333,-6.255456,0.662576,4.324216,-3.715773,0.864392,3.976406,-2.536833,2.666215,-0.163818,0.956299,-0.115234,0.104151,-0.061302,0.006717,0.999633,0.019880,-0.012683,0.013329,-0.730945,0.592091,0.092311,0.326536
04788,NaN,10.019209,-5.480699,1.191779,4.890136,-3.069101,0.112337,4.448616,-2.366192,2.450869,-0.146484,0.947754,-0.162109,0.100715,-0.053840,0.011903,0.999608,0.022240,-0.011829,0.012253,-0.746417,0.580830,0.100559,0.308847
04789,NaN,9.734469,-4.887946,1.630413,5.265031,-2.502850,-0.468001,4.684017,-2.182176,2.248513,-0.127686,0.949951,-0.200928,0.097711,-0.048163,0.016235,0.999603,0.023417,-0.010909,0.011241,-0.762077,0.567644,0.109387,0.291638
04790,NaN,9.661706,-4.203885,2.008492,5.771382,-2.009916,-0.997607,4.667895,-2.010506,2.010874,-0.118652,0.935059,-0.245605,0.096834,-0.041535,0.020084,0.999627,0.023337,-0.010051,0.010053,-0.776634,0.553889,0.117832,0.275975
04791,NaN,9.730346,-3.566874,2.377540,6.301700,-1.521643,-1.384894,4.472655,-1.837076,1.750943,-0.112061,0.924561,-0.284180,0.097395,-0.035350,0.023877,0.999669,0.022361,-0.009184,0.008754,-0.790077,0.539929,0.126272,0.261361
04792,NaN,9.689825,-3.166952,3.006747,6.572087,-0.788529,-1.497123,4.180616,-1.641859,1.505057,-0.101074,0.916260,-0.322754,0.096889,-0.031571,0.030202,0.999720,0.020901,-0.008209,0.007525,-0.802050,0.526403,0.134144,0.248236
04793,NaN,9.584847,-2.944220,3.639159,6.628763,-0.085035,-1.456052,3.798996,-1.462204,1.294044,-0.092285,0.901367,-0.357422,0.095773,-0.029515,0.036532,0.999772,0.018994,-0.007310,0.006470,-0.812472,0.513754,0.141311,0.236594
04794,NaN,9.352128,-2.680355,3.899811,6.548221,0.324952,-1.635271,3.367303,-1.292962,1.089178,-0.087646,0.888672,-0.389893,0.093415,-0.026953,0.039149,0.999823,0.016836,-0.006464,0.005446,-0.821334,0.502323,0.147744,0.226391
04795,NaN,8.951187,-2.341564,4.026935,6.342403,0.681839,-1.994015,2.912970,-1.127947,0.888757,-0.076660,0.878174,-0.406006,0.089389,-0.023606,0.040431,0.999868,0.014564,-0.005639,0.004444,-0.828696,0.492251,0.153447,0.217728
04796,NaN,8.431646,-2.111320,4.120486,5.967779,0.988152,-2.333541,2.438052,-0.977612,0.702607,-0.076416,0.871826,-0.430420,0.084189,-0.021321,0.041358,0.999908,0.012190,-0.004888,0.003513,-0.834618,0.483743,0.158430,0.210486
04797,NaN,8.023590,-2.078904,4.024780,5.595636,1.011628,-2.562588,1.972090,-0.820436,0.502527,-0.080078,0.856934,-0.446533,0.080123,-0.020985,0.040370,0.999940,0.009860,-0.004102,0.002513,-0.839199,0.476768,0.162730,0.204831
04798,NaN,7.875123,-2.245869,3.836253,5.360744,0.804992,-2.574415,1.549930,-0.658781,0.302494,-0.079834,0.848633,-0.456543,0.078659,-0.022637,0.038447,0.999963,0.007750,-0.003294,0.001512,-0.842618,0.471203,0.166382,0.200698
04799,NaN,7.761717,-2.547438,3.548918,5.107742,0.434060,-2.529077,1.127899,-0.490532,0.125469,-0.079834,0.844238,-0.462646,0.077546,-0.025626,0.035535,0.999981,0.005639,-0.002453,0.000627,-0.844959,0.467061,0.169308,0.198074
04800,NaN,7.483230,-2.743040,3.129212,4.787335,0.023717,-2.713690,0.761902,-0.322624,-0.033971,-0.083984,0.848633,-0.466797,0.074777,-0.027562,0.031308,0.999991,0.003809,-0.001613,-0.000170,-0.846402,0.464165,0.171537,0.196800
04801,NaN,7.010782,-2.878249,2.695463,4.337033,-0.340943,-3.046984,0.485117,-0.166295,-0.188936,-0.083740,0.840088,-0.476807,0.070058,-0.028914,0.026943,0.999996,0.002426,-0.000831,-0.000945,-0.847178,0.462133,0.173182,0.196800
04802,NaN,6.494991,-2.955815,2.274655,3.877780,-0.662985,-3.439384,0.293076,-0.039735,-0.362208,-0.083984,0.842285,-0.483154,0.064892,-0.029709,0.022716,0.999997,0.001465,-0.000199,-0.001811,-0.847439,0.460653,0.174509,0.197973
