// Start Time: Unknown
// Update Rate: 100.0Hz
// Filter Profile: human (46.1)
// Firmware Version: 4.4.0
PacketCounter,SampleTimeFine,Acc_X,Acc_Y,Acc_Z,FreeAcc_X,FreeAcc_Y,FreeAcc_Z,Gyr_X,Gyr_Y,Gyr_Z,Mag_X,Mag_Y,Mag_Z,VelInc_X,VelInc_Y,VelInc_Z,OriInc_q0,OriInc_q1,OriInc_q2,OriInc_q3,Quat_q0,Quat_q1,Quat_q2,Quat_q3
14614,NaN,10.032047,-15.094083,-2.984885,-0.000000,-0.000000,8.554900,-0.960311,-0.874490,1.876802,-0.572021,0.753174,-0.510254,0.101859,-0.150129,-0.028684,0.999935,-0.004801,-0.004372,0.009384,0.564933,-0.336529,-0.681785,0.320576
14615,NaN,6.728627,-14.144959,-2.910121,0.359969,-3.182664,5.793712,0.602360,-0.697941,1.292565,-0.555176,0.757324,-0.498047,0.068300,-0.140922,-0.029289,0.999968,0.003012,-0.003490,0.006463,0.582135,-0.347233,-0.677427,0.285729
14616,NaN,3.486766,-10.291530,-3.624585,1.979303,-3.315140,0.971446,2.199484,-0.706748,0.836155,-0.544434,0.746582,-0.499756,0.035427,-0.102362,-0.037249,0.999925,0.010997,-0.003534,0.004181,0.582321,-0.342628,-0.674839,0.296818
14617,NaN,2.974627,-7.801451,-4.531982,3.387386,-2.048980,-1.177265,3.171075,-0.840698,0.480337,-0.546143,0.736084,-0.513916,0.030126,-0.077212,-0.046422,0.999863,0.015855,-0.004203,0.002402,0.582040,-0.337995,-0.670896,0.311268
14618,NaN,2.598414,-6.308055,-5.028994,4.272091,-1.316538,-2.612470,3.645605,-0.977817,0.296339,-0.543457,0.718994,-0.517822,0.026326,-0.062113,-0.051300,0.999821,0.018227,-0.004889,0.001482,0.584355,-0.326798,-0.667447,0.325955
14619,NaN,1.738435,-5.256960,-4.868635,4.429120,-1.205921,-4.043466,3.870803,-1.134536,0.086681,-0.549316,0.702148,-0.527588,0.017686,-0.051608,-0.049592,0.999797,0.019353,-0.005672,0.000433,0.583464,-0.315756,-0.665060,0.342874
14620,NaN,0.900391,-3.922049,-3.849066,3.698340,-1.076008,-5.791540,3.694655,-1.324637,-0.072459,-0.550781,0.687256,-0.541748,0.009248,-0.038505,-0.039146,0.999807,0.018472,-0.006623,-0.000362,0.584904,-0.302405,-0.662577,0.356973
14621,NaN,-0.543537,-0.816492,-3.878574,3.939974,-0.346655,-9.212952,3.729465,-1.468536,-0.684206,-0.558594,0.666260,-0.553711,-0.005176,-0.007421,-0.038967,0.999793,0.018646,-0.007342,-0.003421,0.581412,-0.288805,-0.662907,0.372969
14622,NaN,-1.227423,4.284580,-1.732317,1.609178,1.695015,-13.984021,3.544443,-1.570879,-1.331522,-0.578857,0.642822,-0.555420,-0.011855,0.043225,-0.016654,0.999790,0.017721,-0.007854,-0.006657,0.583685,-0.271099,-0.662647,0.383035
14623,NaN,0.212997,10.012688,1.472685,-2.421605,5.472361,-17.976637,2.426768,-1.589367,-1.752415,-0.599609,0.625977,-0.563477,0.002883,0.099915,0.015961,0.999856,0.012133,-0.007946,-0.008762,0.580691,-0.258016,-0.667022,0.388982
14624,NaN,1.848553,7.829710,1.095356,-2.323720,5.673230,-15.135651,0.908450,-1.492418,-1.731901,-0.618164,0.611084,-0.559082,0.019078,0.078082,0.011449,0.999924,0.004542,-0.007462,-0.008659,0.580210,-0.246681,-0.671772,0.388879
14625,NaN,2.301687,-0.427690,-1.278707,0.853149,1.787965,-8.026372,0.585095,-1.314872,-1.810047,-0.636719,0.598633,-0.554932,0.023061,-0.004448,-0.012648,0.999933,0.002925,-0.006574,-0.009050,0.586396,-0.240656,-0.678359,0.371554
14626,NaN,1.854280,-5.386880,-3.411554,3.579466,-1.122862,-4.333497,1.349966,-1.195205,-2.028909,-0.661377,0.577393,-0.556641,0.018202,-0.053823,-0.034369,0.999908,0.006750,-0.005976,-0.010144,0.587682,-0.227575,-0.681734,0.371588
14627,NaN,0.819815,-2.814385,-3.365042,3.454929,-0.443981,-7.023056,2.385354,-1.071792,-2.333465,-0.686035,0.554199,-0.570801,0.008054,-0.027835,-0.033940,0.999846,0.011926,-0.005359,-0.011667,0.595279,-0.214936,-0.685202,0.360477
14628,NaN,0.505396,1.343005,-1.130188,0.789648,1.521616,-10.442936,2.746762,-1.002455,-2.475840,-0.712158,0.513916,-0.580322,0.005277,0.013519,-0.011091,0.999817,0.013733,-0.005012,-0.012378,0.599150,-0.196433,-0.685770,0.363530
14629,NaN,3.631358,3.606562,-0.412627,-0.915809,5.051805,-9.848951,3.066219,-1.114485,-2.859024,-0.745361,0.488770,-0.596436,0.036845,0.035597,-0.003374,0.999765,0.015330,-0.005572,-0.014294,0.606208,-0.179183,-0.689018,0.354485
14630,NaN,9.036158,1.121421,2.215802,-4.196843,6.165148,-4.139170,2.354616,-1.353375,-2.467963,-0.771729,0.457031,-0.602051,0.090335,0.009833,0.022891,0.999832,0.011772,-0.006766,-0.012339,0.607927,-0.161116,-0.691041,0.356269
14631,NaN,8.955484,-3.180787,0.233518,-1.298662,3.250693,-0.974426,1.637866,-1.163206,-2.262046,-0.800537,0.433838,-0.605957,0.089173,-0.032838,0.002588,0.999886,0.008189,-0.005816,-0.011310,0.618095,-0.150909,-0.696871,0.330993
14632,NaN,6.662085,-8.248497,-1.359665,1.755441,-1.651496,0.601537,1.904880,-0.901674,-2.280701,-0.827148,0.404053,-0.613770,0.065738,-0.083105,-0.014089,0.999879,0.009524,-0.004508,-0.011403,0.620090,-0.135565,-0.698142,0.331222
14633,NaN,5.764137,-7.008462,-1.031573,1.425886,-1.791952,-0.971876,2.238070,-0.674549,-2.165378,-0.857910,0.378906,-0.629883,0.056915,-0.070584,-0.010911,0.999873,0.011190,-0.003373,-0.010826,0.628740,-0.123497,-0.700890,0.313350
14634,NaN,9.506979,-3.076449,0.174935,-1.154420,2.870342,-0.309920,2.116077,-0.560396,-2.053805,-0.880127,0.347168,-0.643555,0.094742,-0.031757,0.001683,0.999887,0.010580,-0.002802,-0.010269,0.631229,-0.108756,-0.700525,0.314620
14635,NaN,16.459592,-3.027448,2.931850,-4.863042,5.470944,5.519927,1.710946,-0.386832,-1.751530,-0.905029,0.325928,-0.655762,0.164264,-0.031965,0.029368,0.999923,0.008555,-0.001934,-0.008757,0.637393,-0.099239,-0.702448,0.300746
14636,NaN,23.069198,-7.162445,7.779166,-9.450754,3.875223,13.417821,1.248552,0.054195,-1.213568,-0.921143,0.307129,-0.665527,0.230271,-0.073506,0.077274,0.999962,0.006243,0.000271,-0.006068,0.640003,-0.091075,-0.700974,0.301226
14637,NaN,26.316487,-9.024407,9.920264,-11.012524,2.699509,17.460465,1.486148,0.359552,-1.126156,-0.929199,0.292236,-0.675537,0.262825,-0.092456,0.098048,0.999955,0.007431,0.001798,-0.005631,0.651669,-0.084787,-0.698821,0.282468
14638,NaN,17.533690,-3.641145,7.631078,-8.691311,3.203739,7.307625,1.646448,0.293702,-1.494682,-0.932617,0.268799,-0.681396,0.175167,-0.038346,0.075743,0.999937,0.008232,0.001468,-0.007473,0.655463,-0.074610,-0.696128,0.283209
14639,NaN,10.481708,3.663944,1.351711,-3.271833,7.441222,-2.129130,1.088345,-0.108015,-1.818504,-0.934082,0.245605,-0.685059,0.105137,0.035610,0.013769,0.999944,0.005442,-0.000540,-0.009092,0.668677,-0.064478,-0.693074,0.261463
14640,NaN,8.160115,0.588710,-2.553836,1.505361,4.731226,-2.826718,0.150258,-0.418222,-1.756822,-0.942139,0.237061,-0.676758,0.081702,0.005189,-0.025364,0.999959,0.000751,-0.002091,-0.008784,0.669545,-0.057338,-0.694813,0.256234
14641,NaN,8.104024,-3.652485,-3.491518,3.688328,0.740744,-1.034750,-0.250216,-0.538325,-1.571974,-0.950195,0.222168,-0.674561,0.080843,-0.037204,-0.034651,0.999965,-0.001251,-0.002692,-0.007860,0.680258,-0.052990,-0.695408,0.225498
14642,NaN,8.442116,-6.523548,-0.661503,1.579853,-2.528341,0.452451,0.013069,-0.459927,-1.455778,-0.956055,0.207275,-0.664062,0.083958,-0.065847,-0.006426,0.999971,0.000065,-0.002300,-0.007279,0.680284,-0.047363,-0.697323,0.220707
14643,NaN,9.349681,-5.507327,2.330314,-1.554697,-2.362938,0.919238,0.560854,-0.275847,-1.543584,-0.966064,0.192627,-0.669922,0.093036,-0.055858,0.023276,0.999965,0.002804,-0.001379,-0.007718,0.687582,-0.040429,-0.696425,0.201467
14644,NaN,10.087489,-3.305796,3.193513,-2.868961,-0.477988,0.884112,0.831104,-0.162028,-1.622047,-0.965332,0.169189,-0.669678,0.100576,-0.034007,0.031877,0.999958,0.004155,-0.000810,-0.008110,0.688791,-0.031759,-0.696443,0.198809
14645,NaN,9.709661,-1.556649,1.516121,-1.460800,1.117964,-0.034498,0.780616,-0.234909,-1.648649,-0.975342,0.152344,-0.665283,0.096946,-0.016425,0.015212,0.999958,0.003903,-0.001175,-0.008243,0.694810,-0.022840,-0.694225,0.186463
14646,NaN,9.582279,-0.904205,0.621777,-0.719242,1.723845,-0.350497,0.596143,-0.443250,-1.633342,-0.979004,0.137451,-0.665039,0.095731,-0.009843,0.006401,0.999960,0.002981,-0.002216,-0.008167,0.694835,-0.014685,-0.695368,0.182901
14647,NaN,9.891965,-1.755153,0.744117,-0.550012,0.712845,0.220867,0.476553,-0.646426,-1.546530,-0.989014,0.120361,-0.666748,0.098755,-0.018334,0.007717,0.999962,0.002383,-0.003232,-0.007733,0.698590,-0.006909,-0.694885,0.170468
14648,NaN,9.809534,-3.113022,1.898171,-1.378682,-1.022444,0.510685,0.603346,-0.782638,-1.519398,-0.994629,0.097168,-0.656250,0.097780,-0.031932,0.019269,0.999959,0.003017,-0.003913,-0.007597,0.697158,0.001145,-0.697129,0.167277
14649,NaN,9.456765,-3.001459,2.670025,-2.083268,-1.426842,0.146696,0.835067,-0.823464,-1.551684,-1.000244,0.077881,-0.645752,0.094220,-0.030859,0.026961,0.999953,0.004175,-0.004117,-0.007758,0.699389,0.010417,-0.696889,0.158408
14650,NaN,9.802011,-1.240771,2.197262,-2.067272,0.237554,0.092546,0.997235,-0.892926,-1.575158,-1.003906,0.061035,-0.639160,0.097819,-0.013289,0.022345,0.999947,0.004986,-0.004465,-0.007876,0.697436,0.020100,-0.699102,0.156320
14651,NaN,10.473403,-0.596023,1.228690,-1.238866,0.970105,0.631343,1.078529,-0.920899,-1.594945,-1.013916,0.039795,-0.632812,0.104624,-0.006863,0.012733,0.999943,0.005393,-0.004604,-0.007975,0.698907,0.030638,-0.698606,0.150134
14652,NaN,10.860694,-0.452087,0.822299,-0.935178,1.071517,0.995119,1.111106,-0.967663,-1.657361,-1.025635,0.016357,-0.618164,0.108523,-0.005468,0.008720,0.999939,0.005555,-0.004838,-0.008287,0.696558,0.041034,-0.700857,0.148066
14653,NaN,10.782282,-1.282702,1.242026,-1.071511,-0.112965,1.062985,1.053320,-1.069419,-1.760773,-1.024902,-0.004883,-0.609619,0.107636,-0.013842,0.012925,0.999933,0.005266,-0.005347,-0.008804,0.697154,0.051972,-0.700989,0.141029
14654,NaN,10.976365,-2.702654,1.244494,-0.736760,-1.681459,1.410425,1.072884,-1.218288,-1.883488,-1.032471,-0.030273,-0.596924,0.109424,-0.028127,0.012963,0.999923,0.005364,-0.006091,-0.009417,0.693879,0.063169,-0.703936,0.137897
14655,NaN,11.301240,-2.611983,0.764295,-0.268715,-1.720756,1.680143,1.207998,-1.326635,-2.035655,-1.035889,-0.055908,-0.580078,0.112685,-0.027316,0.008229,0.999908,0.006040,-0.006633,-0.010178,0.693023,0.075804,-0.704679,0.131912
14656,NaN,11.826426,-2.578801,0.660534,-0.238564,-1.899629,2.157184,1.287549,-1.391301,-2.150540,-1.039307,-0.081299,-0.571533,0.117929,-0.027103,0.007255,0.999897,0.006438,-0.006956,-0.010752,0.688980,0.088753,-0.707763,0.128456
14657,NaN,12.485715,-1.802933,0.812155,-0.610201,-1.498127,2.724328,1.568306,-1.497991,-2.285048,-1.042480,-0.115234,-0.552490,0.124575,-0.019522,0.008906,0.999876,0.007841,-0.007490,-0.011425,0.686699,0.103662,-0.708645,0.124582
14658,NaN,13.204695,-1.468804,1.665744,-1.599389,-1.788982,3.360229,1.465340,-1.383725,-2.358449,-1.043701,-0.138672,-0.535645,0.131742,-0.016369,0.017454,0.999880,0.007326,-0.006918,-0.011792,0.682423,0.117899,-0.711176,0.120945
14659,NaN,14.145673,-0.868603,2.567538,-2.636575,-1.928612,4.214374,1.696222,-1.448836,-2.583874,-1.042480,-0.177002,-0.514648,0.141136,-0.010734,0.026613,0.999854,0.008481,-0.007244,-0.012919,0.679921,0.134291,-0.711237,0.117536
14660,NaN,15.702321,0.170055,2.358201,-2.908546,-1.421730,5.732340,1.819816,-1.497271,-2.789226,-1.039551,-0.200439,-0.491699,0.156842,-0.000709,0.024758,0.999833,0.009099,-0.007486,-0.013945,0.674901,0.151254,-0.713266,0.113501
14661,NaN,17.632041,0.280691,2.416344,-3.010007,-2.005233,7.614141,1.765977,-1.542361,-2.832084,-1.027832,-0.234619,-0.476807,0.176141,0.000090,0.025531,0.999831,0.008829,-0.007711,-0.014160,0.672048,0.168828,-0.712577,0.109921
14662,NaN,18.947799,-0.437379,2.936806,-3.319479,-3.596158,8.730519,1.621728,-1.676487,-2.643294,-1.026611,-0.264404,-0.441406,0.189141,-0.007122,0.030904,0.999845,0.008108,-0.008382,-0.013216,0.666055,0.184590,-0.714977,0.105385
14663,NaN,18.052430,-1.545595,2.530017,-2.365353,-4.851193,7.666634,1.337038,-1.632356,-2.362515,-1.015625,-0.281494,-0.422852,0.180110,-0.017760,0.026658,0.999875,0.006685,-0.008161,-0.011812,0.663006,0.199155,-0.714304,0.102613
14664,NaN,18.591320,-0.295400,3.218270,-3.586255,-4.594581,8.134131,0.886622,-1.399451,-2.223052,-0.998047,-0.296387,-0.406006,0.185633,-0.005165,0.033463,0.999904,0.004433,-0.006997,-0.011115,0.658202,0.210733,-0.716206,0.097007
14665,NaN,19.111327,-1.117323,3.345836,-3.220238,-5.859943,8.434468,0.635665,-1.258834,-1.988440,-0.982910,-0.305176,-0.389404,0.190773,-0.013180,0.034620,0.999926,0.003178,-0.006294,-0.009942,0.657128,0.221610,-0.714189,0.094897
14666,NaN,18.228260,-2.160080,2.497876,-1.990369,-6.646878,7.363472,0.497344,-1.057618,-1.704837,-0.971924,-0.315674,-0.366699,0.181954,-0.023216,0.025885,0.999947,0.002487,-0.005288,-0.008524,0.653574,0.229822,-0.715501,0.089895
14667,NaN,16.010190,-1.801712,1.174487,-0.709413,-5.473337,5.369061,0.265156,-0.789351,-1.397195,-0.952637,-0.324463,-0.354248,0.159923,-0.019151,0.012351,0.999967,0.001326,-0.003947,-0.006986,0.654490,0.237347,-0.712088,0.090770
14668,NaN,13.564532,-1.962368,0.399072,0.119352,-4.935289,2.979226,0.062049,-0.658652,-1.023405,-0.944580,-0.311768,-0.348389,0.135528,-0.020319,0.004431,0.999981,0.000310,-0.003293,-0.005117,0.652524,0.241488,-0.712988,0.086859
14669,NaN,12.156239,-2.738744,0.686537,0.387438,-5.422844,1.420647,-0.066882,-0.586359,-0.680138,-0.927734,-0.311768,-0.333984,0.121447,-0.027798,0.007231,0.999990,-0.000334,-0.002932,-0.003401,0.653971,0.245299,-0.709937,0.090223
14670,NaN,14.557734,-3.343538,1.700329,-0.309885,-7.031906,3.470905,-0.459400,-0.244210,-0.369987,-0.919434,-0.307617,-0.333984,0.145494,-0.033665,0.017258,0.999995,-0.002297,-0.001221,-0.001850,0.653831,0.245220,-0.710485,0.087083
14671,NaN,10.669556,-4.270791,1.096813,0.882209,-6.581275,-0.368617,-0.178919,-0.130928,-0.311596,-0.904785,-0.297119,-0.327881,0.106622,-0.042864,0.011076,0.999998,-0.000895,-0.000655,-0.001558,0.656591,0.247185,-0.706491,0.093048
14672,NaN,11.031625,-4.127137,0.780472,1.103532,-6.422963,0.029402,0.342988,0.047997,-0.325076,-0.896240,-0.299316,-0.323730,0.110251,-0.041464,0.007707,0.999997,0.001715,0.000240,-0.001625,0.656486,0.249436,-0.705770,0.093252
14673,NaN,11.202549,-1.698506,-0.625535,1.342963,-3.598193,0.865436,1.170157,0.285558,-0.528695,-0.889648,-0.305664,-0.309326,0.111971,-0.017243,-0.006516,0.999978,0.005851,0.001428,-0.002643,0.658715,0.256368,-0.699563,0.104795
14674,NaN,11.484466,0.482940,-1.483531,1.064475,-1.415825,1.641096,1.952875,0.376218,-0.623986,-0.874512,-0.314209,-0.307129,0.114831,0.004617,-0.015006,0.999946,0.009764,0.001881,-0.003120,0.657819,0.264771,-0.696462,0.110047
14675,NaN,11.094527,2.305349,-2.961790,1.434819,1.082598,1.760756,2.360007,0.332964,-0.514982,-0.863525,-0.327148,-0.296631,0.110956,0.023117,-0.029530,0.999926,0.011800,0.001665,-0.002575,0.658041,0.275242,-0.689616,0.125118
14676,NaN,11.010296,4.397427,-4.735453,1.723854,3.755276,2.266797,2.665337,0.318852,-0.700227,-0.860840,-0.346191,-0.285889,0.110182,0.044216,-0.046942,0.999904,0.013326,0.001594,-0.003501,0.655847,0.286199,-0.685869,0.132432
14677,NaN,11.813302,5.941943,-5.588776,1.437871,5.406149,3.408503,2.744148,0.398730,-0.843900,-0.852051,-0.356934,-0.277588,0.118274,0.059682,-0.055306,0.999895,0.013720,0.001994,-0.004219,0.655174,0.298539,-0.678530,0.145667
14678,NaN,12.483814,7.035747,-5.028370,0.245649,5.743988,4.243517,2.548284,0.532097,-0.790200,-0.843018,-0.369629,-0.262939,0.124984,0.070500,-0.049718,0.999907,0.012741,0.002660,-0.003951,0.653691,0.309152,-0.673688,0.152505
14679,NaN,12.583079,6.414560,-3.914324,-0.328272,4.601395,4.098510,2.218064,0.621828,-0.577311,-0.832031,-0.382568,-0.256592,0.125895,0.064214,-0.038823,0.999930,0.011090,0.003109,-0.002886,0.653720,0.318240,-0.667052,0.162528
14680,NaN,12.217116,5.024321,-3.247697,-0.015367,3.216589,3.404820,1.749058,0.696560,-0.232648,-0.834229,-0.382568,-0.254639,0.122117,0.050385,-0.032462,0.999955,0.008745,0.003483,-0.001163,0.653420,0.324152,-0.662953,0.168702
14681,NaN,11.262428,4.663272,-3.515505,0.351301,3.404948,2.403276,1.289100,0.753831,0.034480,-0.825439,-0.386719,-0.254395,0.112483,0.046879,-0.035278,0.999972,0.006445,0.003769,0.000172,0.654547,0.327819,-0.658072,0.176193
14682,NaN,10.413334,5.405876,-3.992648,0.144124,4.492549,1.737118,0.738042,0.783351,0.195092,-0.821289,-0.388916,-0.244141,0.103924,0.054308,-0.040134,0.999985,0.003690,0.003917,0.000975,0.655733,0.328897,-0.655168,0.180542
14683,NaN,9.981727,5.924044,-3.934549,-0.260085,5.003701,1.372320,0.112067,0.789702,0.341080,-0.823486,-0.386719,-0.252441,0.099560,0.059433,-0.039706,0.999991,0.000560,0.003948,0.001705,0.658369,0.327539,-0.652238,0.183993
14684,NaN,10.090101,5.207628,-3.851556,0.202198,4.507752,1.295963,-0.385729,0.796865,0.488128,-0.819336,-0.384766,-0.254395,0.100619,0.052247,-0.039017,0.999987,-0.001929,0.003984,0.002441,0.661143,0.323940,-0.650760,0.185645
14685,NaN,10.312378,3.666154,-4.041162,1.451492,3.583709,1.194844,-0.485661,0.832842,0.563336,-0.825928,-0.376221,-0.262695,0.102850,0.036853,-0.040930,0.999984,-0.002428,0.004164,0.002817,0.664495,0.319780,-0.649074,0.186788
14686,NaN,10.407231,3.100353,-3.600898,1.557386,2.974948,1.124033,-0.604833,0.923556,0.625280,-0.824219,-0.365479,-0.271240,0.103807,0.031218,-0.036583,0.999980,-0.003024,0.004618,0.003126,0.667863,0.314872,-0.647557,0.188376
14687,NaN,10.056656,3.813777,-3.077953,0.734160,3.312490,0.847589,-0.750592,1.038007,0.695687,-0.820068,-0.359131,-0.277344,0.100271,0.038370,-0.031444,0.999973,-0.003753,0.005190,0.003478,0.671867,0.309158,-0.646014,0.188897
14688,NaN,9.723496,4.197754,-2.669303,0.214120,3.511160,0.527344,-0.933588,1.122936,0.750398,-0.820557,-0.350586,-0.283691,0.096924,0.042215,-0.027434,0.999966,-0.004668,0.005615,0.003752,0.676207,0.302527,-0.644261,0.190132
14689,NaN,9.513044,4.145337,-2.372353,0.094462,3.429273,0.263939,-1.181509,1.173940,0.802932,-0.816650,-0.335693,-0.296143,0.094821,0.041691,-0.024527,0.999957,-0.005907,0.005870,0.004015,0.681013,0.294870,-0.642987,0.189313
14690,NaN,9.472497,3.671175,-1.907721,0.123890,2.924287,0.100723,-1.338513,1.188857,0.786348,-0.819092,-0.329346,-0.304443,0.094463,0.036952,-0.019886,0.999952,-0.006692,0.005944,0.003932,0.686032,0.286645,-0.641334,0.189432
14691,NaN,9.521778,2.574643,-1.540607,0.627772,1.960580,-0.044046,-1.394672,1.197426,0.733604,-0.817627,-0.312256,-0.319092,0.095028,0.025984,-0.016156,0.999951,-0.006973,0.005987,0.003668,0.691129,0.278462,-0.640087,0.187321
14692,NaN,9.567944,1.274297,-1.595665,1.553668,1.113083,-0.217850,-1.466211,1.216680,0.757104,-0.809082,-0.308105,-0.335449,0.095531,0.012985,-0.016633,0.999947,-0.007331,0.006083,0.003785,0.696319,0.269819,-0.638275,0.186930
14693,NaN,9.570292,0.234715,-1.789016,2.402219,0.504212,-0.388261,-1.488310,1.203729,0.847637,-0.805420,-0.297363,-0.337646,0.095582,0.002616,-0.018484,0.999945,-0.007441,0.006019,0.004238,0.701228,0.260921,-0.637186,0.184916
14694,NaN,9.336607,-0.335912,-1.952684,2.895947,0.280999,-0.722512,-1.460576,1.200009,0.948747,-0.805908,-0.280518,-0.346191,0.093262,-0.003062,-0.020064,0.999944,-0.007303,0.006000,0.004744,0.706040,0.251654,-0.635531,0.185144
14695,NaN,8.722467,-0.129860,-1.787466,2.610229,0.470101,-1.312230,-1.359212,1.219070,0.987023,-0.802002,-0.271973,-0.362549,0.087119,-0.000992,-0.018398,0.999946,-0.006796,0.006095,0.004935,0.710375,0.242691,-0.634437,0.184277
14696,NaN,8.020531,0.487759,-1.501598,1.984392,0.950772,-1.940038,-1.171893,1.226730,0.961376,-0.800049,-0.265625,-0.368896,0.080087,0.005173,-0.015537,0.999952,-0.005859,0.006134,0.004807,0.714769,0.234337,-0.632296,0.185454
14697,NaN,7.464523,1.058972,-1.256646,1.433490,1.383554,-2.433704,-0.975718,1.219408,0.912073,-0.800537,-0.252686,-0.379395,0.074517,0.010867,-0.013074,0.999959,-0.004879,0.006097,0.004560,0.718464,0.226934,-0.630747,0.185659
14698,NaN,6.946600,1.609376,-0.882456,0.799554,1.741186,-2.887951,-0.803288,1.218518,0.869505,-0.790283,-0.244385,-0.383545,0.069340,0.016359,-0.009313,0.999964,-0.004016,0.006093,0.004347,0.722385,0.220167,-0.628079,0.187625
14699,NaN,6.581435,2.062385,-0.700249,0.393146,2.099221,-3.217482,-0.730190,1.211905,0.859868,-0.794678,-0.235840,-0.397949,0.065681,0.020880,-0.007477,0.999966,-0.003651,0.006059,0.004299,0.725708,0.213824,-0.626218,0.188358
14700,NaN,6.151062,2.766935,-0.662629,-0.033929,2.759436,-3.622864,-0.733964,1.213344,0.848556,-0.788574,-0.227295,-0.400146,0.061350,0.027904,-0.007101,0.999966,-0.003670,0.006067,0.004243,0.729468,0.207353,-0.623392,0.190430
14701,NaN,5.780310,2.878898,-0.774553,-0.008890,2.978866,-4.031225,-0.741914,1.199241,0.855041,-0.786621,-0.223145,-0.412598,0.057631,0.029006,-0.008199,0.999966,-0.003710,0.005996,0.004275,0.732721,0.201039,-0.621493,0.190920
14702,NaN,5.529787,2.530204,-0.912012,0.296619,2.831622,-4.362428,-0.773921,1.173664,0.903497,-0.789551,-0.201660,-0.429199,0.055128,0.025515,-0.009542,0.999965,-0.003870,0.005868,0.004517,0.736258,0.194269,-0.618818,0.192998
14703,NaN,5.509420,2.214299,-1.160428,0.709169,2.753238,-4.472334,-0.838298,1.136697,0.959379,-0.787598,-0.197510,-0.435547,0.054920,0.022357,-0.012010,0.999964,-0.004191,0.005683,0.004797,0.739263,0.187395,-0.617256,0.193308
14704,NaN,5.672724,2.054241,-1.362560,1.028324,2.806879,-4.397945,-0.915505,1.099734,1.001967,-0.783691,-0.188965,-0.441650,0.056547,0.020762,-0.014032,0.999962,-0.004577,0.005499,0.005010,0.742518,0.179848,-0.614991,0.195209
14705,NaN,5.925094,1.751230,-1.336719,1.241993,2.608069,-4.189967,-0.950778,1.059080,1.048595,-0.784180,-0.174072,-0.448242,0.059086,0.017758,-0.013764,0.999961,-0.004754,0.005295,0.005243,0.745202,0.172400,-0.613851,0.195293
14706,NaN,6.233398,1.276924,-1.275035,1.515402,2.273867,-3.926792,-0.950368,1.040402,1.086903,-0.778076,-0.165527,-0.460449,0.062196,0.013046,-0.013136,0.999960,-0.004752,0.005202,0.005434,0.748124,0.164500,-0.611815,0.197315
14707,NaN,6.420959,0.835384,-1.043044,1.597995,1.856883,-3.728931,-0.925995,1.047185,1.129699,-0.782959,-0.150635,-0.467041,0.064105,0.008667,-0.010806,0.999960,-0.004630,0.005236,0.005648,0.750544,0.156930,-0.610714,0.197699
14708,NaN,6.340165,0.643920,-0.898439,1.582737,1.702036,-3.811297,-0.877278,1.080339,1.160222,-0.772949,-0.133789,-0.481445,0.063313,0.006766,-0.009356,0.999959,-0.004386,0.005402,0.005801,0.753354,0.149021,-0.608412,0.200214
14709,NaN,5.999947,0.817010,-0.704887,1.297123,1.789782,-4.131398,-0.834726,1.117833,1.185887,-0.773193,-0.120850,-0.489990,0.059909,0.008495,-0.007419,0.999958,-0.004174,0.005589,0.005929,0.755732,0.141555,-0.606932,0.201158
14710,NaN,5.692379,1.228134,-0.563833,0.954411,2.133610,-4.449352,-0.805056,1.152152,1.174913,-0.769531,-0.104004,-0.498291,0.056816,0.012592,-0.006016,0.999958,-0.004025,0.005761,0.005874,0.758585,0.133783,-0.604194,0.203961
14711,NaN,5.602346,1.480662,-0.391986,0.700411,2.331694,-4.539729,-0.779654,1.155608,1.148496,-0.759277,-0.093262,-0.504639,0.055913,0.015112,-0.004302,0.999959,-0.003898,0.005778,0.005742,0.760976,0.126617,-0.602396,0.204946
14712,NaN,5.701956,1.412938,-0.244682,0.657103,2.308255,-4.445389,-0.774754,1.160118,1.133317,-0.760010,-0.078369,-0.513184,0.056923,0.014442,-0.002833,0.999960,-0.003874,0.005801,0.005667,0.763769,0.119062,-0.599468,0.207651
14713,NaN,5.723994,1.174864,-0.099486,0.676127,2.105243,-4.403042,-0.791212,1.174327,1.137861,-0.757812,-0.074219,-0.523438,0.057165,0.012069,-0.001378,0.999959,-0.003956,0.005872,0.005689,0.766161,0.111901,-0.597489,0.208526
14714,NaN,5.608758,0.930372,0.025607,0.689449,1.900571,-4.498923,-0.818236,1.195402,1.136789,-0.743896,-0.050781,-0.527832,0.056034,0.009622,-0.000118,0.999958,-0.004091,0.005977,0.005684,0.768972,0.104120,-0.594373,0.211096
14715,NaN,5.364797,0.966830,0.183463,0.517324,1.885294,-4.720859,-0.875016,1.222614,1.123737,-0.741943,-0.046631,-0.538086,0.053602,0.009977,0.001464,0.999956,-0.004375,0.006113,0.005619,0.771487,0.096656,-0.592162,0.211684
14716,NaN,5.100671,1.091998,0.306482,0.335627,1.972663,-4.985840,-0.939389,1.231884,1.075285,-0.736084,-0.029541,-0.554688,0.050964,0.011207,0.002699,0.999956,-0.004697,0.006159,0.005376,0.774416,0.088541,-0.588898,0.213636
14717,NaN,4.944384,0.984314,0.467372,0.242310,1.839237,-5.101842,-1.002282,1.221585,1.031125,-0.726074,-0.012695,-0.554932,0.049419,0.010120,0.004322,0.999955,-0.005011,0.006108,0.005156,0.777009,0.080889,-0.586634,0.213484
14718,NaN,4.921393,0.622418,0.579010,0.329359,1.542234,-5.073996,-1.073023,1.197424,0.987347,-0.724609,0.002197,-0.561279,0.049216,0.006497,0.005461,0.999955,-0.005365,0.005987,0.004937,0.779866,0.072543,-0.583501,0.214647
14719,NaN,5.016655,0.280163,0.652975,0.459740,1.288132,-4.934114,-1.138681,1.177116,0.942863,-0.716309,0.010742,-0.569580,0.050190,0.003074,0.006217,0.999955,-0.005693,0.005885,0.004714,0.782399,0.064691,-0.581360,0.213746
14720,NaN,5.085078,0.053859,0.705687,0.554714,1.155730,-4.841275,-1.194703,1.157209,0.902542,-0.702148,0.027588,-0.580078,0.050887,0.000809,0.006758,0.999955,-0.005973,0.005786,0.004513,0.785150,0.056155,-0.578376,0.214168
14721,NaN,5.114072,-0.062036,0.791767,0.559932,1.084172,-4.783275,-1.254250,1.144359,0.868477,-0.700439,0.042480,-0.584473,0.051187,-0.000350,0.007628,0.999955,-0.006271,0.005722,0.004342,0.787606,0.048110,-0.576308,0.212678
14722,NaN,5.170497,-0.085421,0.851824,0.561603,1.129749,-4.725971,-1.315143,1.117181,0.832026,-0.688232,0.057373,-0.588623,0.051754,-0.000584,0.008234,0.999954,-0.006576,0.005586,0.004160,0.790220,0.039344,-0.573481,0.212423
14723,NaN,5.184976,-0.115388,0.907489,0.554224,1.142028,-4.702996,-1.381914,1.071003,0.789979,-0.684326,0.067871,-0.599121,0.051901,-0.000887,0.008804,0.999954,-0.006909,0.005355,0.003950,0.792471,0.031104,-0.571666,0.210288
14724,NaN,5.426838,-0.290694,1.032107,0.599614,1.086828,-4.422038,-1.444485,1.013589,0.753845,-0.680908,0.089111,-0.609619,0.054330,-0.002629,0.010065,0.999954,-0.007222,0.005068,0.003769,0.794763,0.022159,-0.569260,0.209294
14725,NaN,5.901763,-0.477349,1.218791,0.647101,1.063869,-3.897195,-1.465220,0.948106,0.708778,-0.674805,0.097656,-0.611816,0.059091,-0.004476,0.011941,0.999956,-0.007326,0.004740,0.003544,0.796650,0.013956,-0.567857,0.206621
14726,NaN,6.519179,-0.661488,1.478043,0.671183,1.096520,-3.219625,-1.460681,0.899283,0.647890,-0.658447,0.110352,-0.609863,0.065278,-0.006297,0.014534,0.999958,-0.007303,0.004496,0.003239,0.798602,0.005370,-0.565806,0.205108
14727,NaN,7.175497,-0.765250,1.657535,0.746332,1.225258,-2.548948,-1.459259,0.860358,0.588116,-0.656982,0.129395,-0.618408,0.071847,-0.007322,0.016321,0.999960,-0.007296,0.004302,0.002941,0.800256,-0.002371,-0.564605,0.202006
14728,NaN,7.771286,-0.833875,1.817010,0.821852,1.400082,-1.954352,-1.448092,0.830494,0.534028,-0.646484,0.137939,-0.624756,0.077809,-0.008001,0.017906,0.999962,-0.007240,0.004152,0.002670,0.802012,-0.010510,-0.562717,0.200037
14729,NaN,8.270699,-0.797811,1.968115,0.842679,1.624217,-1.472089,-1.447623,0.805903,0.478681,-0.649170,0.152832,-0.620850,0.082804,-0.007639,0.019404,0.999963,-0.007238,0.004029,0.002393,0.803519,-0.017826,-0.561609,0.196555
14730,NaN,8.598072,-0.702994,1.748671,1.146238,1.940606,-1.303958,-1.502059,0.773026,0.419644,-0.638916,0.163330,-0.625000,0.086062,-0.006719,0.017205,0.999962,-0.007510,0.003865,0.002098,0.805113,-0.025797,-0.559922,0.193946
14731,NaN,8.799965,-0.730078,1.366710,1.590948,2.094738,-1.273321,-1.564219,0.705874,0.377300,-0.633057,0.176270,-0.631348,0.088061,-0.007029,0.013412,0.999961,-0.007821,0.003529,0.001886,0.806318,-0.033171,-0.559241,0.189738
14732,NaN,8.882352,-0.875046,1.022510,2.001357,2.101189,-1.310532,-1.632650,0.626146,0.334354,-0.629150,0.188965,-0.623535,0.088869,-0.008520,0.010017,0.999960,-0.008163,0.003131,0.001672,0.807449,-0.041279,-0.558189,0.186409
14733,NaN,8.912400,-1.022324,0.971973,2.109736,2.004837,-1.271599,-1.685493,0.525074,0.269710,-0.629639,0.201660,-0.627686,0.089163,-0.010022,0.009571,0.999960,-0.008427,0.002625,0.001349,0.808089,-0.048634,-0.558304,0.181448
14734,NaN,9.113382,-1.229290,1.094527,2.123549,1.908364,-1.002952,-1.699423,0.419064,0.196187,-0.623779,0.214355,-0.627930,0.091169,-0.012111,0.010858,0.999961,-0.008497,0.002095,0.000981,0.808636,-0.056425,-0.558084,0.177387
14735,NaN,9.352605,-1.475063,1.525329,1.849654,1.727626,-0.562410,-1.660767,0.326230,0.113109,-0.619873,0.220703,-0.621826,0.093559,-0.014571,0.015222,0.999964,-0.008304,0.001631,0.000566,0.808723,-0.063030,-0.558964,0.171912
14736,NaN,9.611771,-1.588034,1.873364,1.629477,1.715270,-0.178371,-1.614678,0.248270,0.023355,-0.622314,0.235596,-0.615967,0.096143,-0.015718,0.018742,0.999967,-0.008073,0.001241,0.000117,0.808860,-0.069834,-0.559323,0.167409
14737,NaN,9.804083,-1.667792,2.114999,1.459033,1.691005,0.106307,-1.542712,0.174139,-0.050584,-0.620361,0.241943,-0.618164,0.098055,-0.016539,0.021193,0.999970,-0.007713,0.000871,-0.000253,0.808580,-0.075345,-0.560701,0.161665
14738,NaN,9.948833,-1.785757,2.387629,1.257117,1.638698,0.365880,-1.462095,0.111104,-0.105365,-0.620850,0.250488,-0.616211,0.099492,-0.017735,0.023951,0.999973,-0.007310,0.000556,-0.000527,0.808404,-0.081047,-0.561459,0.157093
14739,NaN,10.095365,-1.778191,2.690525,0.986069,1.674741,0.605571,-1.375329,0.057600,-0.155966,-0.621094,0.258789,-0.612305,0.100948,-0.017675,0.026998,0.999976,-0.006877,0.000288,-0.000780,0.807856,-0.085467,-0.563139,0.151455
14740,NaN,10.203127,-1.805008,2.851518,0.851192,1.697777,0.764929,-1.280610,0.009734,-0.187424,-0.621582,0.273682,-0.606445,0.102016,-0.017963,0.028625,0.999979,-0.006403,0.000049,-0.000937,0.807460,-0.090116,-0.564140,0.147083
14741,NaN,10.334684,-1.938669,3.066204,0.669514,1.596348,1.002538,-1.152256,-0.027839,-0.207872,-0.617432,0.275879,-0.604492,0.103322,-0.019317,0.030788,0.999983,-0.005761,-0.000139,-0.001039,0.806750,-0.093400,-0.565942,0.141918
14742,NaN,10.563505,-2.025439,3.360408,0.450267,1.596793,1.333157,-0.972703,-0.044731,-0.225993,-0.623779,0.275879,-0.600342,0.105605,-0.020210,0.033726,0.999988,-0.004863,-0.000224,-0.001130,0.806318,-0.096650,-0.566913,0.138272
14743,NaN,10.584242,-1.962286,3.588546,0.196770,1.636536,1.413951,-0.765532,-0.040389,-0.249251,-0.621826,0.284180,-0.596436,0.105811,-0.019617,0.035982,0.999992,-0.003828,-0.000202,-0.001246,0.805759,-0.098233,-0.568445,0.134064
14744,NaN,10.548427,-1.706398,3.506709,0.217569,1.860937,1.276391,-0.594303,-0.052712,-0.269699,-0.632568,0.284424,-0.596436,0.105452,-0.017102,0.035146,0.999995,-0.002972,-0.000264,-0.001348,0.805493,-0.099823,-0.569187,0.131312
14745,NaN,10.456793,-1.418809,3.277957,0.346733,2.060504,1.037962,-0.449247,-0.088067,-0.272897,-0.628174,0.284424,-0.598633,0.104534,-0.014257,0.032858,0.999996,-0.002246,-0.000440,-0.001364,0.804972,-0.100022,-0.570652,0.127951
14746,NaN,10.259510,-1.118237,3.066210,0.440799,2.261724,0.703960,-0.338482,-0.125120,-0.278415,-0.626221,0.288574,-0.592529,0.102560,-0.011273,0.030745,0.999997,-0.001692,-0.000626,-0.001392,0.804621,-0.100507,-0.571512,0.125926
14747,NaN,9.952308,-0.814588,2.958955,0.390766,2.402918,0.313547,-0.228479,-0.149727,-0.292351,-0.626221,0.288574,-0.592529,0.099489,-0.008257,0.029673,0.999998,-0.001142,-0.000749,-0.001462,0.804051,-0.099704,-0.573056,0.123154
14748,NaN,9.642612,-0.671990,2.904970,0.316501,2.415599,-0.018046,-0.105316,-0.176181,-0.304389,-0.636719,0.286377,-0.592529,0.096390,-0.006851,0.029138,0.999998,-0.000527,-0.000881,-0.001522,0.803679,-0.099145,-0.573982,0.121715
14749,NaN,9.452106,-0.724683,3.027892,0.117354,2.255261,-0.120653,0.018765,-0.191909,-0.307158,-0.632568,0.286377,-0.590332,0.094481,-0.007395,0.030369,0.999998,0.000094,-0.000960,-0.001536,0.803126,-0.097259,-0.575520,0.119611
14750,NaN,9.214564,-0.793616,3.318896,-0.242108,2.090570,-0.214569,0.142419,-0.177903,-0.310208,-0.636475,0.278076,-0.586182,0.092104,-0.008103,0.033265,0.999998,0.000712,-0.000890,-0.001551,0.802866,-0.095686,-0.576301,0.118860
14751,NaN,8.910971,-0.719979,3.541921,-0.575653,2.014378,-0.427605,0.212541,-0.162033,-0.306238,-0.640625,0.273682,-0.580078,0.089070,-0.007374,0.035484,0.999998,0.001063,-0.000810,-0.001531,0.802502,-0.093035,-0.577559,0.117307
14752,NaN,8.657915,-0.653447,3.523045,-0.652164,1.968733,-0.675018,0.202432,-0.159959,-0.287706,-0.636475,0.273682,-0.588135,0.086541,-0.006695,0.035293,0.999998,0.001012,-0.000800,-0.001439,0.802300,-0.091296,-0.578217,0.116810
14753,NaN,8.350702,-0.667190,3.442010,-0.687062,1.812248,-0.965630,0.126580,-0.155228,-0.265908,-0.642578,0.269531,-0.588135,0.083471,-0.006805,0.034481,0.999999,0.000633,-0.000776,-0.001330,0.801915,-0.089115,-0.579419,0.115168
14754,NaN,8.024066,-0.702464,3.318877,-0.677888,1.659405,-1.287381,-0.020388,-0.154101,-0.247168,-0.638428,0.271484,-0.582031,0.080206,-0.007120,0.033251,0.999999,-0.000102,-0.000771,-0.001236,0.801600,-0.088389,-0.580161,0.114185
14755,NaN,7.792143,-0.724402,3.145400,-0.601166,1.533128,-1.540815,-0.212305,-0.165328,-0.239686,-0.640625,0.273682,-0.577881,0.077887,-0.007304,0.031526,0.999998,-0.001062,-0.000827,-0.001198,0.801045,-0.087650,-0.581526,0.111676
14756,NaN,7.746658,-0.880222,2.956411,-0.439784,1.357194,-1.597430,-0.388721,-0.185762,-0.254166,-0.642578,0.269531,-0.579834,0.077428,-0.008843,0.029653,0.999997,-0.001944,-0.000929,-0.001271,0.800473,-0.088361,-0.582600,0.109607
14757,NaN,7.881411,-1.269609,2.759150,-0.210817,0.986351,-1.426743,-0.483044,-0.205803,-0.300602,-0.649170,0.273682,-0.577881,0.078767,-0.012748,0.027703,0.999995,-0.002415,-0.001029,-0.001503,0.799729,-0.088524,-0.584244,0.106097
14758,NaN,8.185838,-1.486017,2.732702,-0.106933,0.846246,-1.097402,-0.526139,-0.223599,-0.358001,-0.645020,0.280029,-0.572021,0.081801,-0.014935,0.027458,0.999994,-0.002631,-0.001118,-0.001790,0.799026,-0.089460,-0.585575,0.103225
14759,NaN,8.530565,-1.504691,2.790792,-0.094372,0.880903,-0.755196,-0.526074,-0.227277,-0.421395,-0.646973,0.278076,-0.569824,0.085242,-0.015153,0.028045,0.999994,-0.002630,-0.001136,-0.002107,0.798257,-0.089455,-0.587327,0.099152
14760,NaN,8.827065,-1.558898,2.827603,-0.069656,0.880514,-0.455216,-0.495876,-0.231159,-0.489011,-0.653320,0.275879,-0.565674,0.088200,-0.015734,0.028417,0.999993,-0.002479,-0.001156,-0.002445,0.797591,-0.089880,-0.588713,0.095844
14761,NaN,9.037278,-1.577183,2.782610,-0.001067,0.858948,-0.264660,-0.466218,-0.236233,-0.556144,-0.655518,0.278076,-0.565918,0.090296,-0.015958,0.027970,0.999993,-0.002331,-0.001181,-0.002781,0.796872,-0.089258,-0.590479,0.091446
14762,NaN,9.284125,-1.601079,2.864104,-0.038801,0.857467,-0.003278,-0.425399,-0.252078,-0.620558,-0.659668,0.278076,-0.563721,0.092755,-0.016238,0.028792,0.999992,-0.002127,-0.001260,-0.003103,0.796214,-0.089001,-0.591953,0.087827
14763,NaN,9.485993,-1.584107,2.871258,-0.028315,0.849536,0.188048,-0.400501,-0.274253,-0.704831,-0.663818,0.273682,-0.561768,0.094764,-0.016117,0.028875,0.999991,-0.002002,-0.001371,-0.003524,0.795454,-0.087681,-0.593854,0.083080
14764,NaN,9.758881,-1.733841,2.927673,-0.038339,0.707808,0.497999,-0.351037,-0.301010,-0.794882,-0.670410,0.275879,-0.555664,0.097475,-0.017674,0.029454,0.999989,-0.001755,-0.001505,-0.003974,0.794726,-0.086588,-0.595543,0.079005
14765,NaN,10.085848,-1.899383,3.051511,-0.108596,0.527826,0.880889,-0.263209,-0.315466,-0.889961,-0.665771,0.267334,-0.553467,0.100724,-0.019402,0.030699,0.999988,-0.001316,-0.001577,-0.004450,0.793943,-0.084174,-0.597576,0.073979
14766,NaN,10.431537,-2.009487,3.239666,-0.234297,0.411670,1.283486,-0.146772,-0.322830,-0.994156,-0.671875,0.263184,-0.551270,0.104161,-0.020589,0.032580,0.999986,-0.000734,-0.001614,-0.004971,0.793271,-0.081662,-0.599325,0.069727
14767,NaN,10.700198,-2.099069,3.325924,-0.290733,0.251166,1.580871,-0.015771,-0.318194,-1.089402,-0.678223,0.256836,-0.551270,0.106832,-0.021570,0.033431,0.999984,-0.000079,-0.001591,-0.005447,0.792605,-0.077695,-0.601295,0.064686
14768,NaN,10.899988,-2.163534,3.334448,-0.283932,0.101155,1.785446,0.115103,-0.298827,-1.167307,-0.681885,0.246094,-0.551025,0.108821,-0.022290,0.033494,0.999982,0.000576,-0.001494,-0.005837,0.792112,-0.073628,-0.602888,0.060518
14769,NaN,10.828684,-2.107540,3.325396,-0.335180,-0.017108,1.704516,0.220455,-0.273958,-1.215158,-0.687988,0.235596,-0.552979,0.108110,-0.021769,0.033378,0.999980,0.001102,-0.001370,-0.006076,0.791646,-0.068389,-0.604579,0.055712
14770,NaN,10.526900,-1.970041,3.316980,-0.436515,-0.076421,1.390030,0.305711,-0.238226,-1.243700,-0.685791,0.231445,-0.546631,0.105104,-0.020405,0.033264,0.999979,0.001529,-0.001191,-0.006218,0.791357,-0.063348,-0.605853,0.051791
14771,NaN,10.074714,-1.946233,3.194828,-0.465401,-0.290209,0.920072,0.349675,-0.216217,-1.254157,-0.695801,0.218750,-0.550537,0.100588,-0.020149,0.032022,0.999978,0.001748,-0.001081,-0.006271,0.791047,-0.057528,-0.607210,0.047241
14772,NaN,9.678580,-1.856839,2.995939,-0.397139,-0.403394,0.472079,0.364564,-0.212014,-1.257602,-0.701904,0.208008,-0.550537,0.096634,-0.019231,0.030027,0.999978,0.001823,-0.001060,-0.006288,0.790785,-0.052213,-0.608315,0.043431
14773,NaN,9.332092,-1.898275,2.735409,-0.257676,-0.646382,0.071048,0.371404,-0.211933,-1.248813,-0.703613,0.197510,-0.548340,0.093171,-0.019616,0.027417,0.999978,0.001857,-0.001060,-0.006244,0.790417,-0.046363,-0.609565,0.039011
14774,NaN,9.115683,-1.924003,2.550217,-0.152694,-0.828922,-0.190353,0.385664,-0.223582,-1.229949,-0.707520,0.184814,-0.543945,0.091007,-0.019849,0.025566,0.999979,0.001928,-0.001118,-0.006150,0.790046,-0.041042,-0.610649,0.035374
14775,NaN,9.028957,-1.960601,2.394408,-0.046767,-1.014745,-0.322374,0.409718,-0.238561,-1.205082,-0.709229,0.174072,-0.545898,0.090140,-0.020199,0.024011,0.999979,0.002049,-0.001193,-0.006025,0.789520,-0.035206,-0.611914,0.031307
14776,NaN,9.087970,-1.963025,2.386718,-0.044639,-1.132174,-0.280844,0.442520,-0.251653,-1.182024,-0.713135,0.167725,-0.541748,0.090731,-0.020220,0.023937,0.999979,0.002213,-0.001258,-0.005910,0.788994,-0.029799,-0.613037,0.028035
14777,NaN,9.287257,-1.883928,2.483016,-0.112966,-1.169019,-0.087098,0.478608,-0.252539,-1.140948,-0.723145,0.150879,-0.545410,0.092731,-0.019428,0.024901,0.999980,0.002393,-0.001263,-0.005705,0.788352,-0.023924,-0.614271,0.024503
14778,NaN,9.545302,-1.674869,2.527157,-0.113896,-1.061804,0.145369,0.502081,-0.235508,-1.099549,-0.720947,0.144531,-0.545410,0.095329,-0.017337,0.025341,0.999981,0.002510,-0.001178,-0.005498,0.787805,-0.018535,-0.615262,0.021735
14779,NaN,9.728966,-1.584561,2.482018,-0.047588,-1.091477,0.293216,0.505614,-0.217086,-1.059266,-0.720703,0.135986,-0.545166,0.097177,-0.016423,0.024885,0.999982,0.002528,-0.001085,-0.005296,0.787199,-0.012847,-0.616283,0.018666
14780,NaN,9.872538,-1.499272,2.399062,0.050778,-1.114483,0.396356,0.502024,-0.190292,-1.015509,-0.726562,0.125244,-0.538818,0.098624,-0.015554,0.024046,0.999984,0.002510,-0.000951,-0.005078,0.786723,-0.007720,-0.617044,0.016224
14781,NaN,9.925334,-1.410499,2.296572,0.145591,-1.145229,0.407012,0.484811,-0.161818,-0.975620,-0.726318,0.114746,-0.546875,0.099164,-0.014645,0.023011,0.999985,0.002424,-0.000809,-0.004878,0.786220,-0.002411,-0.617794,0.013478
14782,NaN,9.967003,-1.459263,2.146233,0.292441,-1.297210,0.400428,0.460214,-0.134499,-0.936394,-0.729980,0.099854,-0.546631,0.099586,-0.015108,0.021495,0.999986,0.002301,-0.000672,-0.004682,0.785859,0.002304,-0.618299,0.011216
14783,NaN,9.967763,-1.534657,2.027374,0.399349,-1.481553,0.359157,0.422730,-0.109083,-0.900188,-0.727783,0.095703,-0.544678,0.099596,-0.015838,0.020295,0.999987,0.002114,-0.000545,-0.004501,0.785464,0.007105,-0.618807,0.008642
14784,NaN,10.007460,-1.609491,1.950315,0.480470,-1.650588,0.365103,0.379805,-0.080789,-0.859400,-0.731689,0.089355,-0.542480,0.099996,-0.016562,0.019512,0.999989,0.001899,-0.000404,-0.004297,0.785225,0.011264,-0.619074,0.006435
14785,NaN,10.007084,-1.711457,1.904607,0.521693,-1.850506,0.336261,0.339941,-0.060339,-0.813838,-0.729492,0.083008,-0.548340,0.099994,-0.017554,0.019047,0.999990,0.001700,-0.000302,-0.004069,0.784937,0.015446,-0.619371,0.004026
14786,NaN,10.023874,-1.709477,1.886834,0.542185,-1.932580,0.332810,0.277232,-0.031627,-0.756309,-0.731445,0.078613,-0.542236,0.100170,-0.017500,0.018860,0.999992,0.001386,-0.000158,-0.003782,0.784823,0.018881,-0.619430,0.001910
14787,NaN,9.989127,-1.755160,1.913022,0.508015,-2.061949,0.287448,0.217266,-0.008902,-0.687870,-0.730957,0.063721,-0.540039,0.099829,-0.017916,0.019115,0.999993,0.001086,-0.000045,-0.003439,0.784669,0.022168,-0.619519,-0.000293
14788,NaN,9.974902,-1.767008,1.880380,0.539367,-2.139907,0.251424,0.151317,0.016337,-0.604827,-0.735352,0.068115,-0.544189,0.099696,-0.017986,0.018782,0.999995,0.000757,0.000082,-0.003024,0.784694,0.024640,-0.619389,-0.002200
14789,NaN,9.886282,-1.775866,1.902455,0.498773,-2.209038,0.156403,0.084537,0.040188,-0.510039,-0.735107,0.061768,-0.550049,0.098821,-0.018019,0.018997,0.999997,0.000423,0.000201,-0.002550,0.784690,0.026833,-0.619295,-0.004024
14790,NaN,9.754547,-1.770878,1.929588,0.446693,-2.245662,0.024377,0.018558,0.059994,-0.411179,-0.734863,0.059570,-0.543945,0.097515,-0.017911,0.019265,0.999998,0.000093,0.000300,-0.002056,0.784859,0.028185,-0.619008,-0.005576
14791,NaN,9.672837,-1.651200,1.986699,0.372212,-2.162951,-0.044359,-0.048367,0.075813,-0.309635,-0.728516,0.059570,-0.541992,0.096710,-0.016657,0.019834,0.999999,-0.000242,0.000379,-0.001548,0.784980,0.029214,-0.618793,-0.006936
14792,NaN,9.550844,-1.551377,2.005630,0.329212,-2.081647,-0.158348,-0.111379,0.091700,-0.215380,-0.734619,0.053223,-0.543945,0.095501,-0.015605,0.020021,0.999999,-0.000557,0.000459,-0.001077,0.785268,0.029451,-0.618402,-0.008117
14793,NaN,9.486213,-1.593131,1.980496,0.343955,-2.134984,-0.232907,-0.158032,0.101358,-0.121496,-0.730469,0.051025,-0.545898,0.094862,-0.015973,0.019769,0.999999,-0.000790,0.000507,-0.000607,0.785490,0.029446,-0.618108,-0.009003
14794,NaN,9.456154,-1.587371,1.969331,0.354724,-2.130939,-0.265430,-0.194022,0.109013,-0.030084,-0.732666,0.053223,-0.545898,0.094570,-0.015869,0.019657,0.999999,-0.000970,0.000545,-0.000150,0.785850,0.028787,-0.617671,-0.009709
14795,NaN,9.502217,-1.559067,1.968163,0.371137,-2.100703,-0.218638,-0.223432,0.109058,0.064300,-0.732910,0.059570,-0.554199,0.095038,-0.015538,0.019647,0.999999,-0.001117,0.000545,0.000322,0.786113,0.027931,-0.617370,-0.009999
14796,NaN,9.591205,-1.606488,1.953666,0.414421,-2.137137,-0.135410,-0.241136,0.111388,0.154935,-0.729004,0.068115,-0.550293,0.095935,-0.015967,0.019503,0.999999,-0.001206,0.000557,0.000775,0.786494,0.026515,-0.616945,-0.010123
14797,NaN,9.689685,-1.693587,1.950184,0.447908,-2.205490,-0.040453,-0.245324,0.110483,0.241541,-0.724365,0.061768,-0.552246,0.096928,-0.016795,0.019469,0.999998,-0.001227,0.000552,0.001208,0.786771,0.025009,-0.616661,-0.009720
14798,NaN,9.812926,-1.750294,1.974482,0.462226,-2.236708,0.088777,-0.233713,0.110938,0.319260,-0.724854,0.072266,-0.552246,0.098168,-0.017323,0.019711,0.999998,-0.001169,0.000555,0.001596,0.787153,0.023115,-0.616257,-0.009175
14799,NaN,9.952779,-1.786564,2.006693,0.471225,-2.239833,0.239047,-0.212769,0.111928,0.390784,-0.726807,0.070068,-0.556396,0.099574,-0.017650,0.020030,0.999997,-0.001064,0.000560,0.001954,0.787430,0.021262,-0.615985,-0.008020
14800,NaN,10.090449,-1.781259,2.016089,0.504682,-2.194094,0.384650,-0.184185,0.120039,0.454505,-0.722656,0.074463,-0.560547,0.100957,-0.017565,0.020117,0.999997,-0.000921,0.000600,0.002273,0.787832,0.019146,-0.615556,-0.006789
14801,NaN,10.187626,-1.749034,1.997664,0.554550,-2.110782,0.486550,-0.158231,0.125959,0.514304,-0.722900,0.078613,-0.552490,0.101933,-0.017212,0.019926,0.999996,-0.000791,0.000630,0.002572,0.788139,0.017114,-0.615240,-0.004917
14802,NaN,10.202213,-1.720161,2.013287,0.555460,-2.024581,0.516380,-0.135577,0.143850,0.572981,-0.720947,0.087158,-0.552490,0.102085,-0.016896,0.020071,0.999995,-0.000678,0.000719,0.002865,0.788600,0.014825,-0.614720,-0.003068
14803,NaN,10.177207,-1.662333,2.001297,0.572674,-1.899877,0.502651,-0.121416,0.151951,0.623991,-0.723389,0.091309,-0.554688,0.101838,-0.016294,0.019946,0.999995,-0.000607,0.000760,0.003120,0.788967,0.012591,-0.614306,-0.000591
14804,NaN,10.101135,-1.600228,2.007706,0.562975,-1.768817,0.442967,-0.117204,0.167787,0.669320,-0.725586,0.093506,-0.552734,0.101081,-0.015652,0.020002,0.999994,-0.000586,0.000839,0.003347,0.789483,0.010078,-0.613687,0.001696
