// Start Time: Unknown
// Update Rate: 100.0Hz
// Filter Profile: human (46.1)
// Firmware Version: 4.4.0
PacketCounter,SampleTimeFine,Acc_X,Acc_Y,Acc_Z,FreeAcc_X,FreeAcc_Y,FreeAcc_Z,Gyr_X,Gyr_Y,Gyr_Z,Mag_X,Mag_Y,Mag_Z,VelInc_X,VelInc_Y,VelInc_Z,OriInc_q0,OriInc_q1,OriInc_q2,OriInc_q3,Quat_q0,Quat_q1,Quat_q2,Quat_q3
31774,NaN,9.588270,-1.493046,-1.934702,-0.000000,-0.000000,0.082119,0.042531,-0.010717,-0.000895,-0.939941,-0.227295,-0.027100,0.095884,-0.014927,-0.019345,1.000000,0.000213,-0.000054,-0.000004,0.522325,0.335388,-0.696612,0.359754
31775,NaN,9.548306,-1.534447,-1.916872,0.040168,-0.011480,0.046184,0.051941,-0.011658,-0.004906,-0.937744,-0.229492,-0.025146,0.095484,-0.015342,-0.019167,1.000000,0.000260,-0.000058,-0.000025,0.520821,0.338743,-0.694265,0.363311
31776,NaN,9.537364,-1.466681,-1.952241,0.001400,0.053792,0.032150,0.062842,-0.019335,-0.011470,-0.935547,-0.233887,-0.027100,0.095375,-0.014666,-0.019518,1.000000,0.000314,-0.000097,-0.000057,0.520668,0.338981,-0.694182,0.363466
31777,NaN,9.545088,-1.520617,-1.957942,0.047653,0.029954,0.048922,0.068162,-0.017808,-0.012351,-0.937988,-0.227295,-0.025146,0.095452,-0.015205,-0.019576,1.000000,0.000341,-0.000089,-0.000062,0.520512,0.339239,-0.694084,0.363637
31778,NaN,9.565873,-1.483676,-1.962012,0.013396,0.049431,0.064260,0.076365,-0.019355,-0.024051,-0.937744,-0.229492,-0.022949,0.095659,-0.014841,-0.019617,1.000000,0.000382,-0.000097,-0.000120,0.520359,0.339556,-0.693954,0.363807
31779,NaN,9.530091,-1.458673,-1.921152,-0.018696,0.029596,0.017875,0.073559,-0.013006,-0.022175,-0.935791,-0.227295,-0.027100,0.095301,-0.014590,-0.019211,1.000000,0.000368,-0.000065,-0.000111,0.520230,0.339845,-0.693817,0.363984
31780,NaN,9.523141,-1.450746,-1.888429,-0.038819,0.005442,0.003600,0.069971,-0.015869,-0.023915,-0.933838,-0.225342,-0.022949,0.095231,-0.014512,-0.018882,1.000000,0.000350,-0.000079,-0.000120,0.520100,0.340139,-0.693690,0.364137
31781,NaN,9.545011,-1.459690,-1.864077,-0.046970,-0.022370,0.021437,0.063302,-0.014319,-0.025612,-0.939941,-0.227295,-0.020752,0.095450,-0.014603,-0.018639,1.000000,0.000317,-0.000072,-0.000128,0.520006,0.340392,-0.693562,0.364279
31782,NaN,9.567937,-1.389260,-1.856465,-0.114757,0.003463,0.031536,0.058221,-0.010449,-0.024809,-0.935547,-0.231689,-0.016602,0.095679,-0.013899,-0.018564,1.000000,0.000291,-0.000052,-0.000124,0.519916,0.340649,-0.693441,0.364398
31783,NaN,9.580068,-1.376481,-1.838168,-0.135528,-0.008397,0.037837,0.052112,-0.001722,-0.028247,-0.937988,-0.225342,-0.020752,0.095799,-0.013774,-0.018384,1.000000,0.000261,-0.000009,-0.000141,0.519854,0.340922,-0.693309,0.364482
31784,NaN,9.558722,-1.364681,-1.861958,-0.127360,0.020016,0.020002,0.055630,0.008096,-0.030355,-0.939941,-0.233887,-0.020752,0.095584,-0.013656,-0.018627,1.000000,0.000278,0.000040,-0.000152,0.519842,0.341157,-0.693134,0.364610
31785,NaN,9.576297,-1.391311,-1.886392,-0.094286,0.026535,0.045816,0.054820,0.014995,-0.029254,-0.937744,-0.229492,-0.018799,0.095760,-0.013922,-0.018875,1.000000,0.000274,0.000075,-0.000146,0.519857,0.341389,-0.692941,0.364739
31786,NaN,9.566122,-1.447494,-1.873898,-0.047348,-0.010324,0.042011,0.068901,0.011992,-0.030822,-0.937744,-0.231689,-0.016602,0.095658,-0.014483,-0.018750,1.000000,0.000345,0.000060,-0.000154,0.519837,0.341653,-0.692732,0.364918
31787,NaN,9.610437,-1.465815,-1.821756,-0.063325,-0.068048,0.077675,0.073445,0.016963,-0.028695,-0.935547,-0.233887,-0.020752,0.096101,-0.014665,-0.018231,1.000000,0.000367,0.000085,-0.000143,0.519812,0.341957,-0.692505,0.365100
31788,NaN,9.560453,-1.437649,-1.835910,-0.067116,-0.035370,0.027735,0.087150,0.012286,-0.025080,-0.937744,-0.229492,-0.022949,0.095602,-0.014380,-0.018371,1.000000,0.000436,0.000061,-0.000125,0.519752,0.342248,-0.692271,0.365358
31789,NaN,9.561057,-1.436834,-1.833405,-0.066637,-0.035407,0.027738,0.086790,0.013963,-0.025340,-0.935547,-0.233887,-0.018799,0.095607,-0.014372,-0.018347,1.000000,0.000434,0.000070,-0.000127,0.519713,0.342547,-0.692019,0.365608
31790,NaN,9.573550,-1.424506,-1.812659,-0.087485,-0.046439,0.034038,0.083437,0.016471,-0.027158,-0.933350,-0.233887,-0.016602,0.095732,-0.014250,-0.018140,1.000000,0.000417,0.000082,-0.000136,0.519676,0.342828,-0.691778,0.365854
31791,NaN,9.587891,-1.379515,-1.780751,-0.141287,-0.052011,0.035111,0.081114,0.014127,-0.024721,-0.933350,-0.233887,-0.020752,0.095876,-0.013800,-0.017820,1.000000,0.000406,0.000071,-0.000124,0.519627,0.343151,-0.691542,0.366067
31792,NaN,9.588499,-1.378423,-1.778320,-0.141287,-0.052011,0.035111,0.071126,0.014678,-0.026305,-0.939941,-0.231689,-0.020752,0.095882,-0.013791,-0.017795,1.000000,0.000356,0.000073,-0.000132,0.519603,0.343399,-0.691329,0.366270
31793,NaN,9.493380,-1.421812,-1.949760,0.000282,0.084169,-0.017775,0.047737,0.002354,-0.028905,-0.937744,-0.229492,-0.018799,0.094932,-0.014227,-0.019502,1.000000,0.000239,0.000012,-0.000145,0.519612,0.343640,-0.691159,0.366353
31794,NaN,9.479670,-1.522904,-2.077775,0.149290,0.141842,0.008622,-0.080546,-0.073498,-0.001009,-0.935303,-0.240234,-0.020752,0.094804,-0.015238,-0.020737,1.000000,-0.000403,-0.000367,-0.000005,0.519498,0.343569,-0.691496,0.365946
31795,NaN,9.851744,-1.687520,-2.461098,0.383011,0.341877,0.468265,-0.313173,-0.127115,0.020565,-0.933594,-0.227295,-0.018799,0.098535,-0.016904,-0.024522,0.999999,-0.001566,-0.000636,0.000103,0.519570,0.342951,-0.692419,0.364674
31796,NaN,10.352056,-1.744819,-2.896669,0.523763,0.622772,1.047237,-0.562794,-0.025736,0.041628,-0.939941,-0.231689,-0.027100,0.103528,-0.017508,-0.028904,0.999996,-0.002814,-0.000129,0.000208,0.520368,0.341391,-0.693580,0.362788
31797,NaN,10.795562,-1.435403,-1.903142,-0.307055,-0.131556,1.237873,-0.775669,0.035529,0.048907,-0.935547,-0.233887,-0.025146,0.107956,-0.014401,-0.018995,0.999992,-0.003878,0.000178,0.000245,0.521697,0.339125,-0.695008,0.360263
31798,NaN,10.777793,-1.127301,-0.808412,-1.088614,-0.920303,0.960107,-0.797058,-0.027106,0.005328,-0.937744,-0.231689,-0.025146,0.107779,-0.011302,-0.008025,0.999992,-0.003985,-0.000136,0.000027,0.522941,0.337073,-0.696518,0.357459
31799,NaN,10.763241,-0.936952,-0.464879,-1.411071,-1.127426,0.849354,-0.682594,-0.065339,-0.065065,-0.939697,-0.235840,-0.029297,0.107631,-0.009420,-0.004582,0.999994,-0.003413,-0.000327,-0.000325,0.524033,0.335657,-0.697751,0.354779
31800,NaN,10.598850,-0.859521,-0.667138,-1.333121,-0.917456,0.718243,-0.532328,-0.058328,-0.140955,-0.937744,-0.235840,-0.031250,0.105984,-0.008688,-0.006617,0.999996,-0.002662,-0.000292,-0.000705,0.524970,0.334856,-0.698609,0.352453
31801,NaN,10.525345,-0.924810,-1.162780,-0.996626,-0.545469,0.756104,-0.374206,-0.100522,-0.211542,-0.937744,-0.235840,-0.027100,0.105249,-0.009381,-0.011557,0.999998,-0.001871,-0.000503,-0.001058,0.525855,0.334815,-0.698974,0.350443
31802,NaN,10.540367,-1.334259,-2.176105,-0.123200,0.069233,1.031431,-0.515660,0.138315,-0.272752,-0.937744,-0.233887,-0.029297,0.105370,-0.013542,-0.021799,0.999996,-0.002578,0.000692,-0.001364,0.527677,0.334169,-0.699054,0.348154
31803,NaN,9.483015,-1.717360,-3.699203,1.258032,1.248211,0.356871,-0.774892,0.551270,-0.260770,-0.933594,-0.235840,-0.041992,0.094705,-0.017441,-0.037186,0.999988,-0.003874,0.002756,-0.001304,0.531588,0.332096,-0.698291,0.345711
31804,NaN,7.742245,-1.734239,-3.349801,1.526896,1.129143,-1.412422,-0.522455,0.680215,-0.155121,-0.939941,-0.238037,-0.048340,0.077295,-0.017490,-0.033715,0.999991,-0.002612,0.003401,-0.000776,0.535094,0.330070,-0.697122,0.344601
31805,NaN,7.036931,-1.422073,-0.826873,0.138776,-0.723218,-2.623661,0.339868,0.091721,-0.060604,-0.937500,-0.244385,-0.043945,0.070361,-0.014228,-0.008325,0.999998,0.001699,0.000459,-0.000303,0.535044,0.331028,-0.696124,0.345773
31806,NaN,8.838343,-0.745484,1.046247,-1.764128,-2.103605,-1.313910,1.102642,-0.574301,-0.074126,-0.939697,-0.240234,-0.033447,0.088350,-0.007546,0.010675,0.999981,0.005513,-0.002871,-0.000371,0.531338,0.335222,-0.695618,0.348456
31807,NaN,10.628456,0.171971,1.033141,-2.899825,-1.829242,0.301932,1.250612,-0.534146,-0.213405,-0.935303,-0.246582,-0.022949,0.106258,0.001540,0.010625,0.999976,0.006253,-0.002671,-0.001067,0.527930,0.340213,-0.694308,0.351400
31808,NaN,10.664780,0.295396,-0.846724,-2.066495,-0.209766,0.686229,0.930648,0.184144,-0.326929,-0.930908,-0.248779,-0.027100,0.106645,0.002819,-0.008552,0.999987,0.004653,0.000921,-0.001635,0.527554,0.343476,-0.691622,0.354077
31809,NaN,9.937048,-0.362833,-2.515673,-0.488636,0.983383,0.385292,0.674237,0.778519,-0.394787,-0.930908,-0.250977,-0.027100,0.099264,-0.003739,-0.025556,0.999985,0.003371,0.003893,-0.001974,0.530178,0.345315,-0.687316,0.356744
31810,NaN,9.361573,-1.036790,-2.457978,0.226155,0.700425,-0.106321,0.965608,0.537003,-0.402662,-0.937256,-0.255127,-0.035400,0.093528,-0.010437,-0.024881,0.999983,0.004828,0.002685,-0.002013,0.531066,0.348294,-0.683463,0.359916
31811,NaN,9.383167,-1.354648,-1.277665,-0.009878,-0.434081,-0.256407,1.132591,0.407520,-0.436876,-0.930664,-0.257324,-0.033447,0.093775,-0.013678,-0.013045,0.999980,0.005663,0.002038,-0.002184,0.531618,0.352172,-0.679249,0.363287
31812,NaN,9.189525,-1.707782,-0.380269,-0.027175,-1.330342,-0.553237,1.017390,0.548764,-0.492420,-0.930420,-0.265869,-0.033203,0.091842,-0.017283,-0.004142,0.999980,0.005087,0.002744,-0.002462,0.532574,0.355545,-0.675062,0.366393
31813,NaN,9.022967,-1.571248,-0.601420,0.060101,-1.015820,-0.690817,1.018496,0.480188,-0.523750,-0.924072,-0.268066,-0.031250,0.090173,-0.015917,-0.006311,0.999981,0.005092,0.002401,-0.002619,0.533676,0.359207,-0.670642,0.369324
31814,NaN,9.065748,-1.237071,-1.193775,0.089173,-0.309979,-0.591038,0.997153,0.461535,-0.552824,-0.926025,-0.272461,-0.039551,0.090595,-0.012561,-0.012209,0.999981,0.004986,0.002308,-0.002764,0.534443,0.362862,-0.666564,0.372015
31815,NaN,9.114726,-1.108878,-1.185211,0.034110,-0.224190,-0.557383,0.779380,0.580539,-0.582962,-0.925781,-0.276611,-0.037354,0.091080,-0.011307,-0.012160,0.999984,0.003897,0.002903,-0.002915,0.536319,0.365826,-0.662187,0.374221
31816,NaN,9.113518,-0.969386,-0.946879,-0.121816,-0.336764,-0.605969,0.625335,0.647188,-0.620252,-0.919434,-0.282959,-0.041748,0.091073,-0.009946,-0.009794,0.999985,0.003127,0.003236,-0.003101,0.538470,0.368341,-0.658137,0.375807
31817,NaN,9.290189,-0.780298,-0.907737,-0.250462,-0.259449,-0.452678,0.612279,0.676659,-0.654610,-0.919189,-0.291504,-0.043701,0.092844,-0.008078,-0.009416,0.999984,0.003061,0.003383,-0.003273,0.541044,0.370876,-0.653649,0.377446
31818,NaN,9.640603,-0.448655,-0.495681,-0.685642,-0.470822,-0.184833,0.695909,0.753073,-0.719951,-0.916992,-0.293701,-0.047852,0.096369,-0.004815,-0.005336,0.999980,0.003480,0.003765,-0.003600,0.543561,0.373684,-0.648951,0.379162
31819,NaN,9.960213,-0.226608,0.075287,-1.056014,-0.857684,0.056994,0.590176,1.011986,-0.840949,-0.906006,-0.304443,-0.060547,0.099594,-0.002686,0.000241,0.999974,0.002951,0.005060,-0.004205,0.547576,0.376109,-0.643185,0.380808
31820,NaN,9.838884,-0.446306,0.382408,-0.846457,-1.160405,-0.061575,0.493409,1.149067,-0.936840,-0.907959,-0.308594,-0.066895,0.098386,-0.004932,0.003247,0.999969,0.002467,0.005745,-0.004684,0.552109,0.378274,-0.637320,0.381979
31821,NaN,9.979991,-0.384381,0.258758,-0.721070,-0.954635,0.106056,0.507261,1.255517,-0.990869,-0.903320,-0.323730,-0.077393,0.099793,-0.004344,0.001951,0.999965,0.002536,0.006278,-0.004954,0.557306,0.380436,-0.630592,0.383449
31822,NaN,8.479893,-0.925762,1.416427,-0.434701,-2.075178,-1.429697,0.479030,1.471462,-0.946408,-0.896973,-0.327881,-0.087891,0.084855,-0.009692,0.013517,0.999959,0.002395,0.007357,-0.004732,0.562823,0.381918,-0.623749,0.385105
31823,NaN,8.189567,-0.271823,1.885887,-1.066555,-2.134711,-1.750235,0.458820,1.451218,-0.886429,-0.898926,-0.334229,-0.102539,0.082016,-0.003124,0.018257,0.999961,0.002294,0.007256,-0.004432,0.568512,0.383137,-0.616567,0.387099
31824,NaN,9.008176,0.721973,0.957697,-1.519037,-0.828642,-0.891403,0.369762,1.529075,-0.956956,-0.894531,-0.340820,-0.108887,0.090185,0.006772,0.008901,0.999958,0.001849,0.007645,-0.004785,0.574343,0.384163,-0.609647,0.388432
31825,NaN,9.122914,1.244315,0.403123,-1.631349,-0.014299,-0.742157,0.350977,1.543886,-1.046282,-0.885742,-0.357910,-0.125732,0.091320,0.011959,0.003348,0.999955,0.001755,0.007719,-0.005231,0.580849,0.385267,-0.601807,0.389887
31826,NaN,9.444000,1.483243,0.992932,-1.941499,-0.365708,-0.406916,0.041997,1.762494,-1.132427,-0.875000,-0.362061,-0.140625,0.094605,0.014295,0.009099,0.999945,0.000210,0.008812,-0.005662,0.588243,0.385340,-0.594395,0.390099
31827,NaN,8.958112,1.517896,0.355943,-1.535561,0.360559,-0.857986,-0.293082,2.015523,-1.197574,-0.872559,-0.370605,-0.153320,0.089700,0.014646,0.002634,0.999930,-0.001465,0.010077,-0.005988,0.597584,0.384113,-0.585960,0.389873
31828,NaN,8.795530,1.616435,0.410919,-1.474292,0.486389,-0.996320,-0.608796,2.274078,-1.195808,-0.864014,-0.381104,-0.180664,0.088089,0.015648,0.003060,0.999913,-0.003044,0.011370,-0.005979,0.607691,0.381331,-0.578008,0.388851
31829,NaN,8.453022,1.279272,0.267945,-0.927074,0.634450,-1.333598,-0.893794,2.487476,-1.204165,-0.857666,-0.385498,-0.206055,0.084629,0.012292,0.001572,0.999895,-0.004469,0.012437,-0.006021,0.619321,0.377298,-0.569096,0.387579
31830,NaN,7.936035,1.131457,0.424964,-0.706732,0.565593,-1.836634,-1.004859,2.592821,-1.179705,-0.844482,-0.398193,-0.222900,0.079471,0.010864,0.003164,0.999886,-0.005024,0.012964,-0.005898,0.630804,0.372477,-0.560729,0.385916
31831,NaN,7.727627,0.967672,0.988164,-0.630038,0.139004,-1.989109,-1.029751,2.608042,-1.211164,-0.831787,-0.400391,-0.250488,0.077453,0.009255,0.008824,0.999883,-0.005149,0.013040,-0.006056,0.642703,0.367659,-0.551477,0.384229
31832,NaN,8.132936,1.011335,1.640352,-0.734124,-0.227585,-1.490288,-0.986973,2.654378,-1.263189,-0.822998,-0.413086,-0.280029,0.081599,0.009676,0.015273,0.999880,-0.004935,0.013271,-0.006316,0.654180,0.362828,-0.542461,0.382284
31833,NaN,9.478875,0.148833,3.132433,-0.239254,-1.603989,0.038517,-0.961267,2.736772,-1.347962,-0.810303,-0.417236,-0.301025,0.095213,0.000994,0.030018,0.999872,-0.004806,0.013683,-0.006740,0.666172,0.358182,-0.532196,0.380379
31834,NaN,10.417296,0.584305,4.309679,-0.775259,-2.132159,1.245308,-0.708805,2.522204,-1.507935,-0.795166,-0.430176,-0.326416,0.104746,0.005204,0.041759,0.999886,-0.003544,0.012611,-0.007539,0.676938,0.354996,-0.522388,0.377946
31835,NaN,10.236306,1.022848,4.483313,-1.001751,-1.919151,1.197923,-0.192060,2.367729,-1.550767,-0.780029,-0.438477,-0.341309,0.102960,0.009474,0.043607,0.999899,-0.000960,0.011838,-0.007754,0.686669,0.353885,-0.511262,0.376647
31836,NaN,7.801239,0.033111,4.131571,-0.220843,-2.315050,-1.296955,0.285591,2.239161,-1.340871,-0.760742,-0.449219,-0.358154,0.078468,-0.000252,0.040439,0.999914,0.001428,0.011195,-0.006704,0.694345,0.354046,-0.500628,0.376706
31837,NaN,4.352430,-1.810926,1.408249,1.966691,-1.300121,-5.494440,0.168749,1.878137,-1.102099,-0.754150,-0.459961,-0.368652,0.043553,-0.018361,0.013658,0.999940,0.000844,0.009390,-0.005510,0.701024,0.353762,-0.491175,0.377049
31838,NaN,2.804056,-0.892779,-0.969101,1.862268,0.938335,-7.521352,-0.245421,1.313912,-0.943663,-0.745605,-0.462158,-0.377197,0.027934,-0.009072,-0.009864,0.999967,-0.001227,0.006569,-0.004718,0.706431,0.352732,-0.485356,0.375454
31839,NaN,2.781512,0.537066,-0.299085,0.361855,1.041557,-7.186131,-0.652659,0.849937,-0.932294,-0.732666,-0.468506,-0.389893,0.027827,0.005231,-0.003126,0.999975,-0.003263,0.004250,-0.004661,0.711459,0.350931,-0.481533,0.372558
31840,NaN,4.089514,1.919804,2.775428,-1.764413,-0.666467,-4.857367,-0.523078,0.689639,-0.790141,-0.730469,-0.470459,-0.396240,0.041066,0.019108,0.027563,0.999983,-0.002615,0.003448,-0.003951,0.715486,0.349684,-0.478671,0.369697
31841,NaN,8.287591,3.289318,3.669978,-2.138770,0.077203,-0.411005,0.045321,0.569758,-0.663310,-0.723877,-0.481201,-0.395996,0.083088,0.032610,0.036471,0.999990,0.000227,0.002849,-0.003317,0.718058,0.350317,-0.474956,0.368900
31842,NaN,11.393892,4.688448,3.197177,-2.196280,1.761716,2.600854,0.686673,0.355168,-0.666881,-0.723633,-0.489746,-0.398193,0.114151,0.046394,0.031929,0.999987,0.003433,0.001776,-0.003334,0.718907,0.353709,-0.471253,0.368759
31843,NaN,12.886842,4.291097,4.686644,-1.937225,0.536285,4.414287,1.006964,0.034230,-0.636212,-0.717041,-0.494141,-0.383301,0.129012,0.042264,0.047058,0.999982,0.005035,0.000171,-0.003181,0.718534,0.358855,-0.467670,0.369074
31844,NaN,14.499032,3.753376,3.327087,-0.359210,1.663702,5.434628,1.008174,-0.259604,-0.605649,-0.714844,-0.500732,-0.381104,0.145059,0.036926,0.033646,0.999982,0.005041,-0.001298,-0.003028,0.717209,0.364370,-0.465662,0.368789
31845,NaN,15.714157,1.753268,1.197886,2.641058,2.693512,5.589001,0.762993,-0.608167,-0.392857,-0.714600,-0.502686,-0.370605,0.157138,0.017177,0.012523,0.999986,0.003815,-0.003041,-0.001964,0.715155,0.369352,-0.465372,0.368186
31846,NaN,15.995285,-1.785185,2.654815,5.206095,-0.266222,5.643961,0.006804,-0.903822,0.016346,-0.716797,-0.502930,-0.362061,0.159832,-0.017840,0.027270,0.999990,0.000034,-0.004519,0.000082,0.712986,0.371004,-0.468633,0.366592
31847,NaN,14.845504,-1.726207,1.832291,5.031276,0.140879,4.378443,-0.228368,-1.397495,0.527835,-0.727295,-0.500732,-0.353516,0.148367,-0.016849,0.019379,0.999971,-0.001142,-0.006987,0.002639,0.709041,0.371637,-0.474892,0.365546
31848,NaN,15.119261,-0.581383,1.162170,4.161079,1.115921,4.737576,0.074143,-2.105523,1.085218,-0.740234,-0.492188,-0.341064,0.151088,-0.004999,0.013211,0.999930,0.000371,-0.010527,0.005426,0.701854,0.373150,-0.484221,0.365637
31849,NaN,17.736648,-0.106494,2.412354,3.550898,0.379593,7.726978,-0.052079,-2.713342,1.624612,-0.755615,-0.475098,-0.319824,0.177018,0.000381,0.026527,0.999875,-0.000260,-0.013566,0.008123,0.692191,0.373981,-0.496822,0.366304
31850,NaN,23.496202,1.727157,2.558141,2.630802,1.457382,13.692247,0.010591,-3.365443,1.995169,-0.781250,-0.464355,-0.288086,0.234299,0.019610,0.029529,0.999809,0.000053,-0.016826,0.009975,0.680006,0.375159,-0.512102,0.366877
31851,NaN,33.442061,4.991000,0.843912,1.514532,4.912121,23.614676,0.204450,-3.820673,2.141640,-0.798584,-0.445312,-0.260742,0.333618,0.053472,0.014871,0.999760,0.001022,-0.019102,0.010707,0.665527,0.377290,-0.528744,0.367635
31852,NaN,36.070119,7.178745,-1.276973,-0.374573,7.194629,26.271943,-0.316087,-3.739286,2.496877,-0.820557,-0.423828,-0.237549,0.359924,0.076271,-0.006153,0.999746,-0.001580,-0.018695,0.012483,0.651460,0.376419,-0.546361,0.367966
31853,NaN,33.377198,3.242218,-3.821721,2.482887,6.781626,23.154001,0.060381,-3.575796,2.890315,-0.842285,-0.400391,-0.201660,0.333869,0.037257,-0.032237,0.999736,0.000302,-0.017877,0.014450,0.635773,0.375439,-0.563499,0.370549
31854,NaN,30.427911,-1.526126,-2.300673,4.449427,2.578273,20.301352,0.775090,-3.597666,3.171784,-0.861816,-0.376953,-0.174316,0.304818,-0.010355,-0.017573,0.999705,0.003875,-0.017987,0.015857,0.618098,0.375525,-0.579303,0.375957
31855,NaN,28.746617,-5.880211,-1.944533,6.761304,-0.198265,18.801954,0.709347,-3.424193,3.631738,-0.881836,-0.344971,-0.142822,0.288749,-0.053508,-0.014705,0.999682,0.003546,-0.017119,0.018157,0.599232,0.373891,-0.595770,0.382342
31856,NaN,29.069502,-6.655914,1.453846,4.746090,-4.024415,19.386587,0.206910,-3.194825,2.936656,-0.897217,-0.323486,-0.117432,0.291350,-0.062302,0.019123,0.999764,0.001034,-0.015973,0.014682,0.583552,0.371785,-0.610311,0.385698
31857,NaN,23.595687,-2.046529,-1.078622,0.861278,-0.230020,13.877870,-1.544315,-2.970056,2.422582,-0.902100,-0.302246,-0.090088,0.236306,-0.017669,-0.007135,0.999787,-0.007721,-0.014849,0.012112,0.571681,0.365867,-0.626971,0.382400
31858,NaN,18.188213,-0.460544,-4.022057,0.454441,2.889012,8.588789,-3.258771,-2.550309,2.864115,-0.917969,-0.267822,-0.092529,0.182422,-0.002625,-0.037843,0.999683,-0.016292,-0.012750,0.014319,0.563969,0.352338,-0.645546,0.375590
31859,NaN,16.056706,-0.668369,-2.314608,-0.468044,1.166419,6.374386,-4.353297,-1.649142,3.134600,-0.927246,-0.237793,-0.090576,0.160833,-0.004647,-0.021705,0.999606,-0.021764,-0.008245,0.015671,0.559325,0.333344,-0.664241,0.367180
31860,NaN,10.793418,-0.492395,-1.846795,-0.403367,0.996166,1.095677,-5.558758,-0.677456,2.591443,-0.942871,-0.216553,-0.099121,0.108052,-0.004029,-0.017982,0.999524,-0.027789,-0.003387,0.012955,0.561293,0.310282,-0.680357,0.354669
31861,NaN,6.760737,-1.675221,0.580224,-0.226621,-1.570316,-3.005989,-4.208879,0.086647,1.798352,-0.945312,-0.201416,-0.103516,0.067756,-0.016017,0.006115,0.999738,-0.021043,0.000433,0.008991,0.564228,0.292340,-0.690690,0.345154
31862,NaN,2.603581,-3.104440,5.335329,-1.155497,-6.188408,-7.521631,-0.603574,-2.207175,0.948919,-0.951904,-0.192871,-0.078125,0.025591,-0.030761,0.053730,0.999923,-0.003018,-0.011036,0.004744,0.555784,0.291148,-0.699307,0.342500
31863,NaN,7.977795,-0.708183,7.328825,-5.398887,-6.621921,-3.115443,0.928431,-2.815335,0.407393,-0.947754,-0.190918,-0.052734,0.078751,-0.007264,0.074368,0.999888,0.004642,-0.014076,0.002037,0.543274,0.297550,-0.706291,0.342741
31864,NaN,9.825791,3.073962,6.656434,-8.490123,-4.097232,-1.974833,0.071465,-1.322444,-0.226673,-0.951904,-0.190918,-0.048584,0.097850,0.030605,0.067223,0.999977,0.000357,-0.006612,-0.001133,0.538850,0.300805,-0.709421,0.340408
31865,NaN,7.062423,1.549263,2.378147,-4.196001,-1.388128,-3.616058,-0.832195,1.878637,-0.671797,-0.947510,-0.199463,-0.073975,0.070895,0.015352,0.023052,0.999942,-0.004161,0.009393,-0.003359,0.547754,0.298089,-0.704570,0.338658
31866,NaN,2.847273,0.223441,-1.956343,0.340382,1.587754,-6.755451,-0.177992,2.478193,-0.716520,-0.947266,-0.208008,-0.084473,0.028235,0.002115,-0.019916,0.999916,-0.000890,0.012391,-0.003582,0.557895,0.295906,-0.696972,0.339740
31867,NaN,0.766709,0.186271,-2.706564,1.242677,2.279969,-8.714881,2.011093,1.469981,-0.459690,-0.945068,-0.209961,-0.092773,0.007473,0.002118,-0.027101,0.999920,0.010055,0.007350,-0.002298,0.560791,0.300894,-0.688501,0.347769
31868,NaN,0.641161,-0.300487,1.510766,-0.708636,-1.427766,-9.319884,2.881478,1.658392,-0.427849,-0.936523,-0.212158,-0.103516,0.006530,-0.003235,0.015008,0.999860,0.014407,0.008292,-0.002139,0.562808,0.307522,-0.678115,0.358940
31869,NaN,-0.098150,0.012898,4.972451,-2.649465,-4.166520,-10.407656,2.274348,1.497232,-0.446308,-0.938477,-0.220703,-0.107666,-0.000610,-0.000435,0.049727,0.999905,0.011371,0.007486,-0.002231,0.565040,0.312885,-0.669004,0.367787
31870,NaN,-0.176241,2.628074,6.776988,-5.720792,-4.348465,-10.920814,0.676962,1.087100,-0.566907,-0.936279,-0.227051,-0.118164,-0.001320,0.026055,0.067866,0.999975,0.003385,0.005435,-0.002835,0.568624,0.314690,-0.663799,0.370147
31871,NaN,-0.339353,3.747169,3.138489,-4.740464,-0.668561,-10.855184,-1.031718,1.615611,-0.868075,-0.936035,-0.235596,-0.128662,-0.002978,0.037647,0.031216,0.999945,-0.005158,0.008078,-0.004340,0.577205,0.311829,-0.659437,0.367070
31872,NaN,-2.330738,1.557226,-2.489385,0.346211,2.893970,-12.170495,-1.091908,1.890513,-0.958579,-0.927734,-0.229248,-0.151855,-0.023467,0.015549,-0.024757,0.999929,-0.005459,0.009452,-0.004793,0.586837,0.308350,-0.654459,0.363630
31873,NaN,-3.828788,-0.092913,-4.416273,2.905743,3.548346,-13.437139,0.528053,1.631452,-0.724202,-0.929443,-0.244141,-0.162354,-0.038649,-0.000674,-0.043850,0.999957,0.002640,0.008157,-0.003621,0.592685,0.309448,-0.647355,0.365920
31874,NaN,-5.061918,-1.906331,-3.257380,3.844244,1.542903,-14.577958,1.581130,1.468035,-0.666928,-0.925049,-0.248291,-0.162354,-0.050920,-0.018638,-0.032349,0.999936,0.007905,0.007340,-0.003335,0.596151,0.313590,-0.639054,0.371315
31875,NaN,-3.681472,-2.208602,-2.866036,3.685941,1.138277,-13.242356,2.118493,1.125556,-0.755363,-0.924805,-0.261230,-0.164307,-0.037058,-0.021643,-0.028683,0.999921,0.010592,0.005628,-0.003777,0.597640,0.320338,-0.630537,0.377669
31876,NaN,-2.575879,-1.926426,-1.780643,2.745708,0.446968,-12.216403,2.132260,0.996212,-0.843949,-0.916016,-0.267578,-0.170654,-0.025928,-0.018965,-0.017881,0.999922,0.010661,0.004981,-0.004220,0.598890,0.327468,-0.622149,0.383441
31877,NaN,-0.348247,-2.027200,-1.522960,2.529046,0.331369,-10.022633,1.797796,1.021370,-0.954778,-0.907227,-0.278320,-0.175049,-0.003657,-0.020117,-0.015393,0.999935,0.008989,0.005107,-0.004774,0.600656,0.333924,-0.614178,0.387934
31878,NaN,0.107989,-2.524836,-1.947301,3.136217,0.537004,-9.580614,1.574822,0.845701,-0.965930,-0.913330,-0.291260,-0.177002,0.000876,-0.025099,-0.019675,0.999948,0.007874,0.004228,-0.004830,0.602443,0.339967,-0.606956,0.391266
31879,NaN,1.088779,-2.358190,-2.051167,2.992745,0.808520,-8.653671,1.424236,0.507358,-0.895645,-0.902344,-0.299805,-0.168457,0.010730,-0.023483,-0.020706,0.999961,0.007121,0.002537,-0.004478,0.603047,0.345947,-0.601280,0.393849
31880,NaN,1.470568,-1.982727,-2.667134,2.921088,1.589278,-8.346864,1.413900,0.281745,-0.798384,-0.902344,-0.302002,-0.170654,0.014589,-0.019696,-0.026832,0.999966,0.007069,0.001409,-0.003992,0.602976,0.352049,-0.596263,0.396172
31881,NaN,1.466039,-1.303332,-2.653999,2.292191,1.908466,-8.400181,1.371821,0.064802,-0.632221,-0.900146,-0.308350,-0.166260,0.014611,-0.012897,-0.026634,0.999971,0.006859,0.000324,-0.003161,0.601708,0.357890,-0.592464,0.398559
31882,NaN,0.557751,-0.742716,-1.544785,1.316096,1.116120,-9.291900,1.145528,-0.030331,-0.556826,-0.891113,-0.323486,-0.166260,0.005559,-0.007354,-0.015489,0.999980,0.005728,-0.000152,-0.002784,0.600641,0.363044,-0.589282,0.400220
31883,NaN,0.302562,0.091337,-0.132420,-0.031728,0.174151,-9.519283,0.352159,0.298435,-0.570555,-0.890869,-0.329834,-0.159912,0.003026,0.000907,-0.001327,0.999993,0.001761,0.001492,-0.002853,0.601758,0.365128,-0.586913,0.400129
31884,NaN,-0.525119,0.353553,-0.183765,-0.242410,0.284955,-10.355418,-0.163582,0.487968,-0.523620,-0.888916,-0.327637,-0.168213,-0.005246,0.003548,-0.001828,0.999993,-0.000818,0.002440,-0.002618,0.604508,0.365199,-0.584830,0.398966
31885,NaN,-0.311493,1.033476,-0.061217,-0.914224,0.467570,-10.150948,-0.074679,0.301479,-0.436078,-0.886475,-0.338379,-0.172363,-0.003093,0.010341,-0.000611,0.999996,-0.000373,0.001507,-0.002180,0.606134,0.365633,-0.583515,0.398025
31886,NaN,-0.698660,1.499657,-0.346919,-1.222571,0.898518,-10.557961,0.089927,0.314572,-0.344451,-0.886475,-0.338379,-0.174561,-0.006966,0.015010,-0.003451,0.999997,0.000450,0.001573,-0.001722,0.607547,0.366289,-0.581770,0.397822
31887,NaN,-0.610504,1.265328,-0.522811,-0.941062,0.962706,-10.472001,0.552496,0.122825,-0.254913,-0.886475,-0.338379,-0.172363,-0.006092,0.012675,-0.005189,0.999995,0.002762,0.000614,-0.001275,0.607166,0.368486,-0.580048,0.398889
31888,NaN,-0.318482,1.190865,-1.160780,-0.619019,1.524761,-10.211313,0.829114,-0.074668,-0.228335,-0.879883,-0.346924,-0.170166,-0.003167,0.011960,-0.011559,0.999991,0.004146,-0.000373,-0.001142,0.605847,0.371817,-0.578213,0.400463
31889,NaN,-0.610764,0.933430,-1.150418,-0.404033,1.392617,-10.494702,0.923386,-0.195670,-0.197077,-0.886230,-0.344727,-0.159668,-0.006087,0.009393,-0.011467,0.999988,0.004617,-0.000978,-0.000985,0.603724,0.375642,-0.576799,0.402136
31890,NaN,-0.539985,0.980099,-0.813107,-0.591125,1.102708,-10.402531,0.886579,-0.279662,-0.167348,-0.884033,-0.349121,-0.159668,-0.005380,0.009841,-0.008095,0.999989,0.004433,-0.001398,-0.000837,0.601557,0.379365,-0.575559,0.403662
31891,NaN,-0.324212,1.202639,-0.493206,-0.926282,0.899894,-10.168903,0.806766,-0.246303,-0.165002,-0.883789,-0.353516,-0.155518,-0.003226,0.012049,-0.004887,0.999991,0.004034,-0.001232,-0.000825,0.599395,0.382894,-0.574564,0.404961
31892,NaN,-0.074813,1.466754,-0.150952,-1.303605,0.687264,-9.902269,0.709771,-0.192647,-0.150193,-0.877441,-0.355469,-0.155518,-0.000736,0.014673,-0.001458,0.999993,0.003549,-0.000963,-0.000751,0.597758,0.385846,-0.573431,0.406182
31893,NaN,0.237265,1.664957,0.323695,-1.663716,0.324299,-9.567690,0.608750,-0.133608,-0.153761,-0.877441,-0.355469,-0.153320,0.002383,0.016638,0.003289,0.999995,0.003044,-0.000668,-0.000769,0.596272,0.388558,-0.572473,0.407133
31894,NaN,0.964518,1.388190,1.127325,-1.689822,-0.504441,-8.803600,0.489100,-0.031814,-0.187262,-0.875000,-0.362061,-0.144775,0.009656,0.013845,0.011309,0.999997,0.002445,-0.000159,-0.000936,0.595586,0.390622,-0.571225,0.407915
31895,NaN,1.834069,0.936173,2.273014,-1.661494,-1.710755,-7.884072,0.437426,0.081864,-0.237557,-0.874756,-0.366211,-0.146973,0.018361,0.009290,0.022743,0.999997,0.002187,0.000409,-0.001188,0.595201,0.392701,-0.569731,0.408569
31896,NaN,2.817638,0.885546,3.361511,-1.970197,-2.711663,-6.848198,0.340999,0.236516,-0.304294,-0.866211,-0.370605,-0.153320,0.028229,0.008755,0.033597,0.999997,0.001705,0.001183,-0.001521,0.595800,0.394104,-0.567750,0.409101
31897,NaN,3.718085,0.954344,4.491398,-2.388730,-3.708161,-5.881915,0.199843,0.489376,-0.423387,-0.872559,-0.372803,-0.153076,0.037311,0.009420,0.044832,0.999994,0.000999,0.002447,-0.002117,0.597421,0.395236,-0.565020,0.409425
31898,NaN,4.459323,1.811842,6.397595,-3.808654,-5.137981,-4.996843,-0.048231,0.830219,-0.589438,-0.861816,-0.381348,-0.165771,0.044911,0.018002,0.063786,0.999987,-0.000241,0.004151,-0.002947,0.601037,0.395059,-0.561485,0.409167
31899,NaN,5.117943,3.067171,7.875409,-5.437489,-5.993759,-4.144386,-0.525099,1.275368,-0.826243,-0.853271,-0.385498,-0.180664,0.051807,0.030665,0.078345,0.999968,-0.002625,0.006377,-0.004131,0.607153,0.393529,-0.556875,0.407910
31900,NaN,4.804732,3.156085,9.384336,-6.036704,-7.296412,-4.206488,-0.618628,1.492319,-1.043317,-0.844482,-0.396240,-0.195312,0.048910,0.031597,0.093383,0.999954,-0.003093,0.007461,-0.005217,0.614601,0.391501,-0.551547,0.405941
31901,NaN,7.616801,0.705806,6.168523,-2.316301,-4.913760,-1.624255,0.079382,1.807605,-1.366601,-0.831543,-0.404785,-0.214355,0.076767,0.006511,0.060996,0.999936,0.000397,0.009038,-0.006833,0.622162,0.392117,-0.542663,0.405801
31902,NaN,4.661073,-2.264749,-4.730306,4.210399,3.981613,-5.857086,0.254704,2.460652,-1.103425,-0.831055,-0.421875,-0.224854,0.045898,-0.022841,-0.047900,0.999908,0.001273,0.012303,-0.005517,0.630498,0.390883,-0.532298,0.407850
31903,NaN,6.008342,0.650658,-1.313353,0.477895,2.056511,-3.999712,1.337865,0.681472,-0.641837,-0.820557,-0.419678,-0.220703,0.060059,0.006402,-0.013295,0.999967,0.006689,0.003407,-0.003209,0.630942,0.395695,-0.525705,0.411062
31904,NaN,24.922153,0.364850,12.069770,-1.688805,-8.493074,16.492070,-1.188034,0.458659,-0.442887,-0.820557,-0.423828,-0.239746,0.249506,0.003811,0.120103,0.999977,-0.005940,0.002293,-0.002214,0.635371,0.392168,-0.525831,0.407443
31905,NaN,27.828022,3.879763,0.345259,-0.427540,4.182407,17.970105,-1.985814,1.045609,-0.260784,-0.810059,-0.421631,-0.258789,0.278342,0.038457,0.001615,0.999936,-0.009929,0.005228,-0.001304,0.642427,0.384644,-0.525546,0.403904
31906,NaN,46.830104,2.383593,-9.627507,6.957791,15.348246,34.991657,2.282086,1.031180,0.006759,-0.811523,-0.434570,-0.237549,0.467796,0.024967,-0.098407,0.999922,0.011410,0.005156,0.000034,0.640660,0.389852,-0.517617,0.411877
31907,NaN,45.350226,-2.621295,8.136151,5.752662,-2.651368,35.898562,4.545377,1.125939,-0.642199,-0.804932,-0.449707,-0.239502,0.453857,-0.029471,0.078162,0.999721,0.022725,0.005629,-0.003211,0.635802,0.403847,-0.503083,0.423759
31908,NaN,25.080551,-5.571341,9.716173,6.034585,-7.343429,15.957324,0.321303,2.229360,-1.447245,-0.791992,-0.458252,-0.254395,0.251454,-0.057684,0.094270,0.999910,0.001606,0.011146,-0.007236,0.643747,0.403758,-0.492367,0.424433
31909,NaN,16.994948,-3.255592,-6.341230,7.638081,7.546797,5.165177,1.565432,1.109145,-1.399784,-0.776611,-0.473145,-0.243652,0.169362,-0.033240,-0.064611,0.999929,0.007827,0.005546,-0.006999,0.646176,0.409884,-0.482457,0.426248
31910,NaN,22.489141,-0.959469,2.634523,4.208198,0.675967,12.445919,2.463569,-0.060622,-1.347526,-0.771729,-0.490479,-0.232910,0.224811,-0.011434,0.026280,0.999901,0.012317,-0.000303,-0.006737,0.643767,0.421192,-0.474613,0.427673
31911,NaN,27.980439,2.969275,0.140110,2.445981,4.835439,17.798256,0.979614,-0.140174,-1.360042,-0.762939,-0.500977,-0.230957,0.279997,0.027781,0.001736,0.999965,0.004898,-0.000701,-0.006800,0.644035,0.427910,-0.470130,0.425546
31912,NaN,27.337621,6.050092,-3.447188,0.548908,8.832562,16.973695,0.183310,-0.313113,-0.948745,-0.760742,-0.503174,-0.230957,0.273713,0.059234,-0.033989,0.999987,0.000917,-0.001566,-0.004744,0.644894,0.431402,-0.468732,0.422249
31913,NaN,22.960591,3.703134,2.087080,0.673377,2.147683,13.429291,-0.000613,-0.654447,-0.309819,-0.764893,-0.503174,-0.218262,0.229593,0.036676,0.021622,0.999993,-0.000003,-0.003272,-0.001549,0.643857,0.433474,-0.470429,0.419815
31914,NaN,23.191518,2.997832,1.222113,1.517684,2.546242,13.415011,0.602737,-1.663156,0.427193,-0.771484,-0.496826,-0.201172,0.231738,0.030433,0.014240,0.999959,0.003014,-0.008316,0.002136,0.637693,0.437892,-0.475444,0.418988
31915,NaN,27.041701,2.823775,2.435393,1.823959,1.340386,17.390202,0.534915,-2.181226,1.097453,-0.781982,-0.492676,-0.180176,0.269969,0.029649,0.027378,0.999922,0.002675,-0.010906,0.005487,0.628785,0.441498,-0.483975,0.418901
31916,NaN,30.623629,3.802374,2.497953,0.987379,1.280982,21.103550,0.513524,-2.656851,1.465399,-0.792725,-0.484131,-0.158936,0.305578,0.040193,0.029143,0.999882,0.002568,-0.013284,0.007327,0.618055,0.445088,-0.494449,0.418837
31917,NaN,30.392195,3.053594,0.363447,1.479993,2.403445,20.602558,0.381722,-2.860706,1.731159,-0.805908,-0.471436,-0.135742,0.303549,0.033152,0.008040,0.999858,0.001909,-0.014303,0.008655,0.606207,0.447900,-0.506602,0.418633
31918,NaN,29.202748,2.278667,0.859350,1.143930,0.910747,19.452951,0.241429,-3.323414,2.250059,-0.814941,-0.445801,-0.097900,0.291550,0.026054,0.013471,0.999798,0.001207,-0.016616,0.011250,0.592392,0.449807,-0.521125,0.418538
31919,NaN,28.474709,1.088196,-0.301414,1.529158,0.854310,18.627741,-0.309482,-4.021400,2.705281,-0.836670,-0.426514,-0.078857,0.284549,0.014733,0.002688,0.999705,-0.001547,-0.020105,0.013525,0.576515,0.450129,-0.539951,0.416495
31920,NaN,26.643439,0.318071,-2.864286,1.788611,2.284244,16.826129,-1.330124,-3.922931,2.855642,-0.854492,-0.398682,-0.055908,0.266848,0.006822,-0.023448,0.999684,-0.006650,-0.019613,0.014277,0.562765,0.446620,-0.560301,0.412175
31921,NaN,24.353460,1.767290,-5.736152,0.208024,4.766168,14.810001,-2.607527,-3.535976,2.818847,-0.869873,-0.377441,-0.036865,0.244226,0.020399,-0.053302,0.999659,-0.013036,-0.017678,0.014093,0.552394,0.438513,-0.582081,0.404659
31922,NaN,20.918554,0.913920,-4.598603,-0.005076,3.101297,11.397971,-2.137138,-3.135058,3.000724,-0.881104,-0.353760,-0.020020,0.209709,0.011814,-0.042818,0.999708,-0.010685,-0.015674,0.015002,0.541697,0.430099,-0.601490,0.399737
31923,NaN,19.552366,-0.239622,-2.115685,-0.351537,0.034466,9.850452,-2.518008,-3.403064,3.165598,-0.894531,-0.323975,-0.001221,0.195854,0.000464,-0.017820,0.999651,-0.012589,-0.017013,0.015826,0.530053,0.420438,-0.622710,0.393075
31924,NaN,19.399704,0.710018,-2.885309,-1.672194,0.717113,9.727699,-4.296499,-2.703733,3.154973,-0.903809,-0.302490,-0.003418,0.194227,0.009578,-0.026416,0.999553,-0.021479,-0.013517,0.015773,0.524203,0.404362,-0.644689,0.382203
31925,NaN,16.918954,1.289767,-1.642305,-2.887606,-0.042924,6.987818,-5.830886,-1.327372,2.875128,-0.917480,-0.272461,-0.007812,0.169091,0.014864,-0.015715,0.999450,-0.029149,-0.006636,0.014373,0.525760,0.382026,-0.665127,0.367749
31926,NaN,12.161165,2.809117,2.870088,-5.736806,-2.617397,1.333740,-6.297424,0.237370,1.907550,-0.919922,-0.261719,-0.031250,0.121364,0.030131,0.027629,0.999458,-0.031481,0.001187,0.009536,0.534757,0.358492,-0.679380,0.352081
31927,NaN,11.539670,-0.561439,6.040165,-4.525211,-6.692494,0.418877,-3.724966,-0.301414,1.142066,-0.924316,-0.257324,-0.031250,0.115331,-0.003827,0.060658,0.999809,-0.018624,-0.001507,0.005710,0.538304,0.344918,-0.688932,0.341515
31928,NaN,12.157558,-5.144870,5.061207,-0.554074,-8.333667,1.594747,-1.588808,-0.979393,0.535141,-0.922363,-0.250977,-0.031250,0.121461,-0.050716,0.051612,0.999953,-0.007944,-0.004897,0.002676,0.536705,0.340458,-0.695189,0.335782
31929,NaN,7.301386,-2.706504,2.494573,-0.457545,-4.348902,-2.903589,-2.475906,1.185614,-0.082633,-0.926758,-0.252930,-0.054443,0.073150,-0.026787,0.024845,0.999906,-0.012379,0.005928,-0.000413,0.545138,0.332085,-0.696008,0.328811
31930,NaN,8.381778,-1.676228,1.044372,-0.718384,-2.619733,-1.641123,-2.193088,1.780369,-0.052818,-0.922607,-0.250732,-0.067139,0.083903,-0.016674,0.009880,0.999900,-0.010965,0.008902,-0.000264,0.554981,0.323334,-0.694621,0.323963
31931,NaN,4.801777,-0.633934,0.339682,-0.490596,-1.038250,-5.095168,-0.058309,1.887185,-0.102396,-0.928955,-0.252930,-0.086182,0.048044,-0.006363,0.002945,0.999955,-0.000292,0.009436,-0.000512,0.561818,0.320423,-0.689283,0.326465
31932,NaN,0.215192,-1.542676,-0.534741,1.520674,-0.466116,-9.385723,1.376789,2.960677,-0.086497,-0.927002,-0.250732,-0.111572,0.002065,-0.015390,-0.005484,0.999867,0.006884,0.014803,-0.000432,0.569856,0.319716,-0.678506,0.335671
31933,NaN,-3.654883,-4.902076,-0.843929,5.007430,-1.893009,-12.885576,2.954581,2.994816,-0.108149,-0.922607,-0.257080,-0.122070,-0.036703,-0.048875,-0.008613,0.999779,0.014772,0.014973,-0.000541,0.575349,0.323370,-0.664713,0.350089
31934,NaN,-5.147135,-6.550302,2.357257,4.903223,-5.386634,-14.492132,3.235586,2.129189,-0.067130,-0.920410,-0.257080,-0.128418,-0.051246,-0.065862,0.023055,0.999812,0.016177,0.010645,-0.000336,0.577179,0.329118,-0.652708,0.364030
31935,NaN,-5.436444,-6.049243,7.801460,1.834901,-9.767233,-15.127145,1.903165,1.269777,-0.455637,-0.920166,-0.265625,-0.130615,-0.054009,-0.061110,0.077779,0.999932,0.009516,0.006349,-0.002278,0.578777,0.333816,-0.644835,0.371177
31936,NaN,-3.311652,-1.954620,3.842944,0.128666,-4.317308,-13.114181,1.427151,1.318942,-0.640790,-0.917969,-0.270020,-0.132568,-0.032926,-0.019715,0.038507,0.999948,0.007136,0.006595,-0.003204,0.581781,0.337553,-0.637284,0.376110
31937,NaN,-5.038053,0.257124,0.875310,-0.178777,-0.692085,-14.882518,2.898236,0.627954,-0.590585,-0.919678,-0.280762,-0.126221,-0.050345,0.002591,0.008949,0.999886,0.014491,0.003140,-0.002953,0.579603,0.346783,-0.628908,0.385067
31938,NaN,-4.691619,1.883752,-2.217393,-0.290616,2.778346,-14.574157,3.543282,0.231622,-0.520301,-0.915283,-0.287109,-0.122070,-0.046892,0.019348,-0.021780,0.999839,0.017715,0.001158,-0.002601,0.575070,0.358192,-0.620430,0.395044
31939,NaN,-2.961121,3.800138,-5.947691,-0.711531,6.962086,-12.911771,2.373565,0.447096,-0.711994,-0.913086,-0.293457,-0.113525,-0.029606,0.038809,-0.058953,0.999921,0.011868,0.002235,-0.003560,0.573198,0.366454,-0.613134,0.401525
31940,NaN,-2.449892,4.785130,-6.534046,-1.584131,7.868534,-12.489859,1.831474,0.972867,-0.648180,-0.912842,-0.297852,-0.119873,-0.024658,0.048526,-0.064778,0.999941,0.009157,0.004864,-0.003241,0.574066,0.371723,-0.605463,0.407044
31941,NaN,-1.674441,3.321754,-4.484085,-1.216945,5.384861,-11.674558,1.018730,1.132808,-0.779786,-0.904297,-0.302002,-0.124023,-0.016867,0.033511,-0.044575,0.999963,0.005094,0.005664,-0.003899,0.576832,0.374740,-0.598828,0.410171
31942,NaN,-2.454131,1.164733,-1.129832,-0.523628,1.421494,-12.334781,0.435010,0.838709,-0.665299,-0.899902,-0.308594,-0.130371,-0.024549,0.011753,-0.011170,0.999983,0.002175,0.004194,-0.003326,0.579855,0.376269,-0.594280,0.411122
31943,NaN,-1.928551,0.762951,0.016632,-0.630247,0.214815,-11.776945,0.146907,0.377147,-0.453280,-0.901611,-0.317139,-0.128174,-0.019268,0.007673,0.000208,0.999995,0.000735,0.001886,-0.002266,0.581355,0.377254,-0.592249,0.411031
31944,NaN,-0.629134,0.984413,0.683208,-1.145218,-0.280045,-10.477294,-0.021155,0.105003,-0.292958,-0.899658,-0.317139,-0.130371,-0.006273,0.009854,0.006834,0.999999,-0.000106,0.000525,-0.001465,0.582279,0.377852,-0.591454,0.410318
31945,NaN,-0.098304,1.252206,0.477224,-1.335246,0.028217,-9.960155,-0.003392,-0.024752,-0.161314,-0.899414,-0.321289,-0.132324,-0.000974,0.012523,0.004772,1.000000,-0.000017,-0.000124,-0.000807,0.582316,0.378419,-0.591374,0.409858
31946,NaN,0.260132,1.946872,0.037693,-1.823472,0.709620,-9.637218,-0.177175,-0.022532,-0.086965,-0.895264,-0.319336,-0.130371,0.002610,0.019468,0.000360,1.000000,-0.000886,-0.000113,-0.000435,0.582733,0.378215,-0.591659,0.409041
31947,NaN,0.349991,2.103140,-1.135346,-1.522606,1.859273,-9.568811,-0.215685,-0.073856,-0.039642,-0.897461,-0.317139,-0.128174,0.003508,0.021018,-0.011375,0.999999,-0.001078,-0.000369,-0.000198,0.582875,0.377879,-0.592340,0.408163
31948,NaN,0.215909,2.078958,-0.393338,-1.776418,1.163172,-9.691173,-0.133358,-0.100783,-0.007217,-0.897461,-0.319336,-0.125977,0.002162,0.020787,-0.003946,1.000000,-0.000667,-0.000504,-0.000036,0.582814,0.377726,-0.592913,0.407560
31949,NaN,-0.003206,2.206550,0.101803,-2.074682,0.751986,-9.909881,-0.212886,-0.031270,0.009975,-0.899658,-0.317139,-0.130371,-0.000033,0.022067,0.000995,0.999999,-0.001064,-0.000156,0.000050,0.583005,0.377175,-0.593549,0.406870
31950,NaN,0.295823,2.237538,0.200652,-2.150254,0.685869,-9.611853,-0.277658,0.049257,0.018355,-0.897461,-0.317139,-0.134521,0.002957,0.022378,0.001975,0.999999,-0.001388,0.000246,0.000092,0.583607,0.376219,-0.594026,0.406195
31951,NaN,0.493290,2.129773,0.155812,-2.038388,0.697895,-9.410870,-0.354080,0.166087,0.031230,-0.895264,-0.321289,-0.136475,0.004931,0.021301,0.001516,0.999998,-0.001770,0.000830,0.000156,0.584652,0.374791,-0.594387,0.405485
31952,NaN,0.467905,1.854181,0.252195,-1.819596,0.508101,-9.423553,-0.305641,0.214449,0.048293,-0.901855,-0.312744,-0.140869,0.004677,0.018547,0.002489,0.999998,-0.001528,0.001072,0.000241,0.585733,0.373327,-0.594491,0.405122
31953,NaN,0.714381,1.497831,0.658651,-1.660297,0.007963,-9.156175,-0.247599,0.169523,0.099297,-0.895508,-0.310547,-0.145020,0.007142,0.014990,0.006562,0.999999,-0.001238,0.000848,0.000496,0.586464,0.372021,-0.594729,0.404917
31954,NaN,0.988715,1.033194,1.068373,-1.407540,-0.537400,-8.855350,-0.294917,0.119933,0.161186,-0.897705,-0.312744,-0.145020,0.009885,0.010356,0.010663,0.999998,-0.001475,0.000600,0.000806,0.587012,0.370442,-0.595295,0.404738
31955,NaN,0.866146,0.350281,1.643833,-1.011787,-1.335541,-8.936500,-0.395175,0.084570,0.227557,-0.895508,-0.316895,-0.151367,0.008664,0.003545,0.016428,0.999997,-0.001976,0.000423,0.001138,0.587511,0.368501,-0.596295,0.404314
31956,NaN,0.488908,-0.231058,2.378390,-0.772046,-2.249385,-9.271067,-0.572070,0.083287,0.252125,-0.902100,-0.310547,-0.153564,0.004902,-0.002236,0.023788,0.999995,-0.002860,0.000416,0.001261,0.588271,0.365907,-0.597690,0.403504
31957,NaN,-0.006236,-0.477271,2.835799,-0.730908,-2.780375,-9.743129,-0.716619,0.054539,0.243786,-0.900146,-0.304199,-0.153564,-0.000049,-0.004671,0.028375,0.999993,-0.003583,0.000273,0.001219,0.589230,0.363058,-0.599393,0.402150
31958,NaN,-0.153008,-0.186000,2.757462,-0.974756,-2.588944,-9.906515,-0.608446,-0.005464,0.199413,-0.902344,-0.304199,-0.162109,-0.001529,-0.001778,0.027580,0.999995,-0.003042,-0.000027,0.000997,0.589884,0.360685,-0.601013,0.400906
31959,NaN,-0.075873,-0.082563,2.959636,-1.166716,-2.722200,-9.833032,-0.220564,-0.048560,0.139624,-0.900146,-0.304199,-0.162109,-0.000765,-0.000794,0.029597,0.999999,-0.001103,-0.000243,0.000698,0.589824,0.359826,-0.601785,0.400609
31960,NaN,0.437032,0.141160,2.532732,-1.215102,-2.220169,-9.343613,0.042536,-0.114907,0.063720,-0.897949,-0.308350,-0.157715,0.004355,0.001408,0.025330,1.000000,0.000213,-0.000575,0.000319,0.589244,0.359999,-0.602175,0.400722
31961,NaN,1.010527,0.488401,1.629092,-1.173558,-1.235264,-8.807438,0.166446,-0.097649,-0.027381,-0.895752,-0.308350,-0.157715,0.010098,0.004869,0.016300,1.000000,0.000832,-0.000488,-0.000137,0.588663,0.360941,-0.601944,0.401074
31962,NaN,1.811894,0.417460,1.554992,-1.112607,-1.171808,-8.005977,0.253119,-0.141637,-0.084401,-0.895752,-0.310547,-0.162109,0.018110,0.004147,0.015568,0.999999,0.001266,-0.000708,-0.000422,0.587919,0.362232,-0.601722,0.401335
31963,NaN,2.518430,0.301357,2.292550,-1.338467,-1.874112,-7.285776,0.462956,-0.172358,-0.141127,-0.895752,-0.310547,-0.155762,0.025167,0.002943,0.022954,0.999997,0.002315,-0.000862,-0.000706,0.586795,0.364582,-0.600858,0.402146
31964,NaN,3.544112,0.044432,3.277715,-1.538891,-2.859867,-6.240715,0.758516,-0.283689,-0.222745,-0.886963,-0.317139,-0.147217,0.035395,0.000280,0.032829,0.999991,0.003793,-0.001418,-0.001114,0.584974,0.368053,-0.599774,0.403254
31965,NaN,4.531626,0.124574,3.673760,-1.778247,-3.192150,-5.263470,1.082882,-0.393821,-0.343105,-0.888916,-0.321289,-0.140869,0.045246,0.000969,0.036832,0.999982,0.005414,-0.001969,-0.001716,0.582429,0.373278,-0.597873,0.404954
31966,NaN,4.978851,-0.895153,3.291844,-0.662855,-3.265085,-4.780190,1.100862,-0.301105,-0.447971,-0.886475,-0.332031,-0.136475,0.049718,-0.009244,0.032943,0.999981,0.005504,-0.001506,-0.002240,0.580341,0.378435,-0.595694,0.406373
31967,NaN,5.812122,-2.753566,-0.612847,2.571618,-0.351543,-3.896493,0.367797,0.602003,-0.667884,-0.871582,-0.332031,-0.149170,0.058010,-0.027718,-0.006354,0.999988,0.001839,0.003010,-0.003339,0.582739,0.380545,-0.591632,0.406906
31968,NaN,5.490473,-1.869921,-5.963425,3.872774,4.973261,-4.384071,-0.379917,2.036507,-0.706933,-0.873535,-0.342773,-0.174561,0.054227,-0.019006,-0.060153,0.999940,-0.001900,0.010182,-0.003535,0.590861,0.377373,-0.585111,0.407576
31969,NaN,11.334320,0.238932,-4.445552,1.342400,4.715179,1.334038,0.929392,1.382719,-0.685123,-0.869141,-0.349121,-0.168213,0.113040,0.002211,-0.045227,0.999959,0.004647,0.006913,-0.003426,0.594575,0.379409,-0.577581,0.411010
31970,NaN,25.132022,-3.860079,4.016394,2.029122,-3.827578,15.562076,2.240581,0.399006,-0.065212,-0.864746,-0.351318,-0.176758,0.251386,-0.039126,0.039226,0.999935,0.011203,0.001995,-0.000326,0.591544,0.385424,-0.571650,0.418020
31971,NaN,16.012212,-1.748868,11.899590,-2.676272,-10.750934,6.869569,-1.432545,1.188026,0.126498,-0.858643,-0.349121,-0.202148,0.160836,-0.016539,0.118163,0.999957,-0.007163,0.005940,0.000632,0.597394,0.378476,-0.571150,0.416730
31972,NaN,29.025608,-5.572024,-3.653240,6.554137,3.321061,19.047174,-3.223210,1.112019,0.435028,-0.867432,-0.340332,-0.212646,0.290171,-0.055685,-0.037248,0.999852,-0.016115,0.005560,0.002175,0.605647,0.365245,-0.575303,0.410870
31973,NaN,41.511242,-11.364866,-21.364580,18.796730,18.309987,30.439126,-1.191535,0.103312,1.242024,-0.863525,-0.331787,-0.217041,0.415703,-0.112339,-0.213189,0.999963,-0.005958,0.000517,0.006210,0.605660,0.357830,-0.579458,0.411535
31974,NaN,23.241160,-8.154166,-26.577253,18.117405,23.081288,11.446380,0.019825,2.405540,0.300940,-0.861572,-0.329590,-0.244385,0.229315,-0.081169,-0.268551,0.999927,0.000099,0.012027,0.001505,0.611905,0.352053,-0.572648,0.416780
31975,NaN,14.823893,-9.692484,-6.356752,11.449357,3.688743,4.657208,0.259432,3.501311,0.704550,-0.857666,-0.318848,-0.271973,0.147434,-0.096320,-0.066279,0.999840,0.001297,0.017506,0.003523,0.619935,0.343407,-0.562693,0.425593
31976,NaN,29.391977,-4.663929,8.303242,0.671551,-5.194953,20.635670,-0.641096,-0.652636,2.150926,-0.873047,-0.297363,-0.236328,0.294123,-0.043208,0.084134,0.999932,-0.003205,-0.003263,0.010754,0.614555,0.336744,-0.569753,0.429310
31977,NaN,70.982896,30.381376,46.781224,-49.342274,-23.232283,62.091065,3.953243,-7.991852,2.048643,-0.881348,-0.299805,-0.185547,0.687137,0.301238,0.501551,0.998954,0.019759,-0.039945,0.010240,0.579913,0.359802,-0.588947,0.432880
31978,NaN,61.049656,22.400033,31.039892,-34.924016,-15.431906,51.288191,3.548908,4.027410,-2.704282,-0.865234,-0.340332,-0.199951,0.619537,0.210257,0.301795,0.999548,0.017742,0.020134,-0.013519,0.590952,0.369185,-0.564478,0.442540
31979,NaN,19.958965,-20.182279,-42.259865,32.017990,35.880418,6.873030,6.070368,1.061393,-2.285955,-0.862549,-0.359863,-0.174561,0.195097,-0.191101,-0.429552,0.999460,0.030346,0.005306,-0.011428,0.587685,0.391321,-0.542950,0.454643
31980,NaN,12.994228,-12.905486,-14.861072,16.427856,12.179925,1.935039,3.203871,-0.554351,-1.168590,-0.864258,-0.366211,-0.159668,0.129610,-0.127414,-0.150301,0.999851,0.016019,-0.002772,-0.005843,0.582456,0.405121,-0.534945,0.458755
31981,NaN,16.291795,-3.899170,6.379653,2.271023,-5.669248,7.040082,-0.948387,-1.887238,-0.845069,-0.859863,-0.370605,-0.161621,0.162139,-0.039370,0.065515,0.999935,-0.004742,-0.009436,-0.004225,0.581080,0.409088,-0.541072,0.449704
31982,NaN,16.029400,-4.949468,3.748992,3.948657,-3.639765,6.516851,-3.441137,0.746212,-0.743753,-0.851562,-0.370605,-0.180664,0.160251,-0.049443,0.037743,0.999838,-0.017205,0.003731,-0.003719,0.591691,0.399372,-0.545050,0.439687
31983,NaN,5.650975,-6.548517,-4.298211,7.652945,2.592519,-4.521045,-1.067403,-0.125817,-0.485380,-0.853516,-0.374756,-0.176514,0.056377,-0.065850,-0.042596,0.999983,-0.005337,-0.000629,-0.002427,0.594529,0.397729,-0.546927,0.434991
31984,NaN,5.221831,-9.409820,-7.627352,11.418767,4.707890,-5.183119,-1.176686,-0.975041,0.145999,-0.855957,-0.366211,-0.178711,0.052656,-0.094505,-0.075462,0.999971,-0.005883,-0.004875,0.000730,0.593844,0.395953,-0.552676,0.430255
31985,NaN,8.466551,-10.129412,-4.271204,11.085151,1.284886,-1.567208,-3.053724,-0.434455,0.894709,-0.862549,-0.355469,-0.182861,0.085210,-0.101548,-0.040978,0.999871,-0.015268,-0.002172,0.004473,0.596576,0.385208,-0.562469,0.423486
31986,NaN,8.252666,-7.277929,-2.538757,7.704064,0.387513,-1.565759,-1.389652,-1.210414,1.423033,-0.869385,-0.338379,-0.176758,0.083192,-0.072361,-0.024382,0.999932,-0.006948,-0.006052,0.007115,0.592770,0.379610,-0.571742,0.421463
31987,NaN,10.637690,-1.475932,-1.281056,1.591288,1.254159,0.811043,0.060723,-2.911994,1.747213,-0.880127,-0.329834,-0.147217,0.106672,-0.013825,-0.011263,0.999856,0.000304,-0.014559,0.008736,0.580382,0.380732,-0.583759,0.421218
31988,NaN,16.666333,3.472808,1.986220,-4.750584,-0.015878,6.654986,0.468811,-2.230807,1.685697,-0.888916,-0.317139,-0.124023,0.166127,0.036080,0.021801,0.999900,0.002344,-0.011154,0.008428,0.569345,0.381843,-0.592413,0.423190
31989,NaN,16.201726,5.371585,2.530654,-7.053549,-0.142853,5.934209,0.809142,-1.920788,1.547772,-0.897949,-0.300049,-0.107178,0.161341,0.054859,0.027079,0.999916,0.004046,-0.009604,0.007739,0.558580,0.383576,-0.599292,0.426271
31990,NaN,16.252390,4.654734,-2.359381,-5.017708,4.019962,5.999583,-0.602955,-1.441103,1.498438,-0.904541,-0.287109,-0.107178,0.162334,0.047695,-0.022566,0.999941,-0.003015,-0.007205,0.007492,0.552166,0.380463,-0.607457,0.425861
31991,NaN,13.561139,2.856601,-2.494467,-3.239224,3.463580,3.446122,-1.337364,-0.342758,1.376904,-0.909180,-0.274170,-0.107178,0.135454,0.029332,-0.024907,0.999952,-0.006687,-0.001714,0.006884,0.550617,0.373201,-0.614020,0.424878
31992,NaN,10.715699,2.764691,0.147975,-3.899005,0.971809,0.499629,-1.505494,-0.568380,0.993164,-0.922363,-0.263672,-0.107422,0.107014,0.028190,0.001573,0.999955,-0.007527,-0.002842,0.004966,0.549520,0.367209,-0.620625,0.421912
31993,NaN,7.865485,1.874362,-0.438718,-2.589841,1.157617,-2.228248,-0.778831,-0.845954,0.757240,-0.914062,-0.255127,-0.098877,0.078601,0.019025,-0.004128,0.999976,-0.003894,-0.004230,0.003786,0.546702,0.364368,-0.626106,0.419934
31994,NaN,5.979362,0.407671,-0.045296,-1.198039,0.200812,-3.943691,-0.306596,-0.772650,0.594881,-0.922607,-0.252930,-0.090576,0.059782,0.004254,-0.000228,0.999987,-0.001533,-0.003863,0.002974,0.543559,0.363295,-0.629953,0.419188
31995,NaN,4.263309,-1.259601,1.822961,-0.179632,-2.181155,-5.535332,-0.480775,-0.388510,0.463435,-0.920654,-0.246582,-0.090576,0.042627,-0.012453,0.018342,0.999993,-0.002404,-0.001943,0.002317,0.542207,0.361275,-0.632974,0.418133
31996,NaN,2.332546,-0.488964,0.208397,0.004255,-0.399036,-7.453876,-0.737473,-0.742165,0.382971,-0.922852,-0.242188,-0.088379,0.023327,-0.004837,0.002188,0.999984,-0.003687,-0.003711,0.001915,0.540355,0.359620,-0.637226,0.415492
31997,NaN,1.311691,-0.043488,-1.436764,0.390304,1.283104,-8.402726,-0.474698,-1.003814,0.397498,-0.924805,-0.244385,-0.075684,0.013190,-0.000443,-0.014301,0.999983,-0.002373,-0.005019,0.001987,0.537180,0.359061,-0.641716,0.413175
31998,NaN,0.618605,-0.581305,-0.865610,0.762216,0.544784,-9.043215,-0.620198,-0.883123,0.477002,-0.925049,-0.235840,-0.075928,0.006238,-0.005825,-0.008611,0.999983,-0.003101,-0.004416,0.002385,0.534439,0.357693,-0.646230,0.410875
31999,NaN,-0.270691,-0.744939,-0.995926,1.116456,0.608390,-9.871361,-0.922965,-0.795316,0.516566,-0.929688,-0.229492,-0.073730,-0.002648,-0.007502,-0.009935,0.999978,-0.004615,-0.003977,0.002583,0.532473,0.355143,-0.651216,0.407755
32000,NaN,-0.139659,-1.349776,-1.245778,1.740545,0.567209,-9.607580,-1.059975,-1.105344,0.573511,-0.929688,-0.225098,-0.067383,-0.001289,-0.013567,-0.012393,0.999967,-0.005300,-0.005527,0.002868,0.529544,0.352705,-0.657331,0.403855
32001,NaN,1.245194,-1.944371,-0.882743,1.848596,-0.095974,-8.174532,-1.458360,-1.536173,0.708865,-0.934082,-0.218750,-0.050537,0.012587,-0.019462,-0.008589,0.999938,-0.007292,-0.007681,0.003544,0.525696,0.349452,-0.665583,0.398152
32002,NaN,2.443217,-1.018986,0.344064,0.237304,-0.888184,-7.306584,-1.913616,-1.384782,0.708268,-0.936523,-0.210205,-0.046387,0.024443,-0.010069,0.003707,0.999924,-0.009568,-0.006924,0.003541,0.522957,0.344804,-0.674234,0.391197
32003,NaN,2.940263,-1.017907,1.882626,-0.597548,-2.308797,-7.067242,-2.006978,-1.007146,0.630221,-0.932129,-0.208008,-0.046387,0.029338,-0.009896,0.019074,0.999932,-0.010035,-0.005036,0.003151,0.521811,0.339278,-0.681866,0.384269
32004,NaN,3.735779,-1.330946,2.470613,-0.844966,-3.036952,-6.363955,-1.879698,-0.681095,0.553261,-0.936768,-0.199463,-0.042236,0.037309,-0.012972,0.024956,0.999946,-0.009398,-0.003405,0.002766,0.521563,0.333785,-0.688170,0.378130
32005,NaN,4.120154,-2.289025,3.115542,-0.497780,-4.103235,-5.960812,-1.580673,-0.427745,0.472240,-0.936768,-0.197266,-0.044434,0.041188,-0.022545,0.031423,0.999964,-0.007903,-0.002139,0.002361,0.521987,0.328720,-0.692975,0.373173
32006,NaN,4.809107,-2.696006,2.593228,-0.154245,-3.927166,-5.157200,-1.722750,-0.599844,0.373602,-0.941162,-0.197266,-0.046387,0.048063,-0.026645,0.026307,0.999957,-0.008614,-0.002999,0.001868,0.521998,0.324041,-0.698352,0.367179
32007,NaN,6.281751,-2.195039,0.579185,-0.016683,-2.094399,-3.470236,-1.264801,-0.806501,0.285387,-0.939209,-0.188721,-0.044434,0.062824,-0.021822,0.006183,0.999971,-0.006324,-0.004032,0.001427,0.520928,0.321111,-0.703087,0.362202
32008,NaN,7.184260,-2.095617,-1.138981,0.481382,-0.710696,-2.291697,-0.547915,-0.739791,0.210572,-0.945312,-0.190918,-0.035889,0.071906,-0.020911,-0.011067,0.999989,-0.002740,-0.003699,0.001053,0.518799,0.320286,-0.706348,0.359635
32009,NaN,7.803755,-2.276624,-1.065216,0.400212,-0.952430,-1.679492,0.176969,-0.514673,0.144021,-0.943115,-0.193115,-0.025391,0.078081,-0.022701,-0.010471,0.999996,0.000885,-0.002573,0.000720,0.516673,0.321018,-0.707457,0.359864
32010,NaN,8.533189,-2.860080,-0.132274,0.201551,-2.123570,-1.068394,0.622091,-0.355941,0.131250,-0.941162,-0.186768,-0.023193,0.085353,-0.028541,-0.001260,0.999993,0.003110,-0.001780,0.000656,0.514157,0.322805,-0.707473,0.361831
32011,NaN,9.300538,-3.176235,0.079058,0.140977,-2.537071,-0.318579,0.557008,-0.334108,0.147819,-0.947510,-0.186768,-0.016846,0.093027,-0.031696,0.000858,0.999994,0.002785,-0.001671,0.000739,0.511918,0.324269,-0.707488,0.363661
32012,NaN,10.318239,-2.525170,-0.775001,-0.272011,-1.562287,0.719568,0.331683,-0.161416,0.127057,-0.941162,-0.186768,-0.023193,0.103205,-0.025173,-0.007709,0.999998,0.001658,-0.000807,0.000635,0.510560,0.324968,-0.707512,0.364899
32013,NaN,11.529265,-2.061156,-1.906343,-0.441646,-0.455166,2.036541,0.238410,0.069041,0.028301,-0.943359,-0.188721,-0.019043,0.115289,-0.020572,-0.019128,0.999999,0.001192,0.000345,0.000142,0.510430,0.325283,-0.706898,0.365988
32014,NaN,12.622577,-2.237154,-2.903431,-0.092430,0.229264,3.328962,0.281684,0.265154,-0.104091,-0.943359,-0.188721,-0.021240,0.126175,-0.022396,-0.029233,0.999998,0.001408,0.001326,-0.000520,0.511082,0.325890,-0.705544,0.367150
32015,NaN,13.581061,-2.510833,-3.852927,0.372047,0.849927,4.495824,0.466359,0.269531,-0.240646,-0.941162,-0.193115,-0.023193,0.135728,-0.025181,-0.038771,0.999996,0.002332,0.001348,-0.001203,0.511724,0.327394,-0.703590,0.368663
32016,NaN,14.018384,-3.026254,-4.087209,0.838657,0.782354,5.055498,0.780318,0.146721,-0.313052,-0.943359,-0.190918,-0.023193,0.140106,-0.030322,-0.041093,0.999991,0.003902,0.000734,-0.001565,0.511518,0.330225,-0.701266,0.370845
32017,NaN,13.683250,-2.882746,-3.868436,0.728442,0.713385,4.660280,0.700763,-0.063866,-0.340879,-0.940918,-0.197510,-0.020996,0.136796,-0.028925,-0.038742,0.999992,0.003504,-0.000319,-0.001704,0.510731,0.333281,-0.699584,0.372371
32018,NaN,12.421432,-1.977441,-3.620932,0.194806,1.051644,3.232211,0.123556,-0.056512,-0.305170,-0.940918,-0.199463,-0.019043,0.124194,-0.019942,-0.036187,0.999999,0.000618,-0.000283,-0.001526,0.510878,0.334775,-0.698997,0.371931
32019,NaN,10.637287,-1.080028,-3.931437,0.068507,1.898802,1.419591,-0.733775,0.058152,-0.296094,-0.936523,-0.206055,-0.023193,0.106345,-0.011102,-0.039305,0.999992,-0.003669,0.000291,-0.001480,0.512799,0.333781,-0.699754,0.368745
32020,NaN,9.230901,-0.651835,-5.008845,0.635763,3.126659,0.214376,-1.350764,0.134136,-0.305723,-0.938477,-0.208008,-0.029541,0.092265,-0.006998,-0.050104,0.999976,-0.006754,0.000671,-0.001529,0.516057,0.331138,-0.701381,0.363451
32021,NaN,8.197724,-0.334355,-4.994024,0.706613,3.317703,-0.826741,-1.754383,0.053362,-0.308726,-0.940674,-0.203857,-0.033691,0.081958,-0.003908,-0.049929,0.999960,-0.008772,0.000267,-0.001544,0.519639,0.327540,-0.703943,0.356590
32022,NaN,8.231914,0.097660,-4.321980,0.100501,2.920253,-0.985775,-2.052385,0.066863,-0.305782,-0.942627,-0.216553,-0.041992,0.082306,0.000407,-0.043253,0.999946,-0.010262,0.000334,-0.001529,0.523737,0.323153,-0.706899,0.348664
32023,NaN,9.110250,0.519076,-3.673916,-0.698115,2.479137,-0.319043,-1.977708,0.017674,-0.383532,-0.932129,-0.214355,-0.044189,0.091109,0.004652,-0.036795,0.999949,-0.009888,0.000088,-0.001918,0.527583,0.319220,-0.709717,0.340672
32024,NaN,11.885438,0.093602,-3.601549,-0.971143,1.854477,2.429057,-1.491069,-0.188110,-0.468520,-0.940430,-0.218750,-0.046387,0.118890,0.000390,-0.035908,0.999969,-0.007455,-0.000941,-0.002343,0.530061,0.317265,-0.711992,0.333836
32025,NaN,15.967496,-0.503307,-2.993702,-1.721748,0.532790,6.340555,-0.435401,-0.216772,-0.545826,-0.933838,-0.223145,-0.046387,0.159693,-0.005534,-0.029752,0.999993,-0.002177,-0.001084,-0.002729,0.530836,0.318358,-0.712501,0.330459
32026,NaN,19.559755,-1.210811,-1.581123,-2.670433,-1.441909,9.612511,0.434367,0.273568,-0.622467,-0.931641,-0.227295,-0.048340,0.195537,-0.012682,-0.016106,0.999992,0.002172,0.001368,-0.003112,0.532127,0.321279,-0.710070,0.330789
32027,NaN,18.392796,-2.537697,-1.688262,-1.123457,-1.955812,8.693910,0.527164,0.926189,-0.547386,-0.931396,-0.235840,-0.056641,0.183777,-0.025834,-0.017802,0.999982,0.002636,0.004631,-0.002737,0.535425,0.323036,-0.705912,0.332650
32028,NaN,14.205068,-4.823950,-0.175215,1.007028,-3.934783,4.629717,1.103116,1.398264,-0.352871,-0.931641,-0.233643,-0.067383,0.141947,-0.048476,-0.003012,0.999959,0.005516,0.006991,-0.001764,0.539127,0.324901,-0.699744,0.337845
32029,NaN,10.677631,-5.857807,-0.214433,2.755340,-3.997364,1.358600,1.894504,0.785961,-0.221948,-0.929199,-0.238037,-0.061035,0.106700,-0.058670,-0.003119,0.999947,0.009472,0.003930,-0.001110,0.539105,0.329388,-0.694088,0.345124
32030,NaN,8.552319,-7.711734,1.085250,4.176438,-5.754210,-0.689462,2.224298,0.508931,-0.148713,-0.931152,-0.242188,-0.056641,0.085492,-0.077294,0.009776,0.999935,0.011121,0.002545,-0.000744,0.537414,0.335006,-0.688597,0.353259
32031,NaN,7.319615,-7.908368,3.715396,3.358218,-7.874833,-2.287263,0.739413,0.292363,0.082570,-0.927002,-0.242188,-0.065186,0.073283,-0.079190,0.036754,0.999992,0.003697,0.001462,0.000413,0.536948,0.336155,-0.686693,0.356565
