// Start Time: Unknown
// Update Rate: 100.0Hz
// Filter Profile: human (46.1)
// Firmware Version: 4.4.0
PacketCounter,SampleTimeFine,Acc_X,Acc_Y,Acc_Z,FreeAcc_X,FreeAcc_Y,FreeAcc_Z,Gyr_X,Gyr_Y,Gyr_Z,Mag_X,Mag_Y,Mag_Z,VelInc_X,VelInc_Y,VelInc_Z,OriInc_q0,OriInc_q1,OriInc_q2,OriInc_q3,Quat_q0,Quat_q1,Quat_q2,Quat_q3
62047,NaN,14.226871,7.013859,-2.519760,0.000000,0.000000,6.246162,5.038750,-3.432273,-0.701301,-0.994141,0.225098,-0.102295,0.142899,0.070202,-0.020980,0.999529,0.025190,-0.017159,-0.003506,0.425814,-0.301092,-0.688961,-0.503348
62048,NaN,17.527279,7.686915,1.190374,-3.406434,6.117424,8.037280,3.990952,-3.145769,-0.564491,-0.991699,0.216309,-0.079102,0.175256,0.076080,0.016184,0.999673,0.019953,-0.015727,-0.002822,0.424218,-0.262281,-0.771475,-0.395062
62049,NaN,15.121567,1.656551,1.152027,-6.985883,3.083110,3.393768,3.299738,-2.386760,0.052128,-0.998047,0.218506,-0.060059,0.151057,0.016392,0.013595,0.999793,0.016498,-0.011933,0.000261,0.419354,-0.260144,-0.782826,-0.379012
62050,NaN,11.350887,1.340030,-0.763805,-4.455847,1.236439,0.667564,0.635568,-1.357862,0.621992,-0.998291,0.227051,-0.051514,0.113515,0.013776,-0.006824,0.999967,0.003178,-0.006789,0.003110,0.418031,-0.264836,-0.784300,-0.374147
62051,NaN,8.743574,1.027588,-4.706163,-1.562831,-2.257923,-0.215169,-0.151036,-0.931636,0.831344,-0.989990,0.235596,-0.041016,0.087610,0.010604,-0.046662,0.999980,-0.000755,-0.004658,0.004157,0.415724,-0.270149,-0.784848,-0.371761
62052,NaN,7.111953,-0.105149,-4.265865,-1.731140,-2.628149,-2.139141,0.111067,-1.191385,0.890721,-0.988037,0.244141,-0.030518,0.071376,-0.000710,-0.042234,0.999972,0.000555,-0.005957,0.004454,0.414877,-0.276978,-0.785188,-0.366933
62053,NaN,7.572033,-1.723361,-2.657415,-3.892813,-2.091901,-2.896307,0.308749,-1.207857,0.766273,-0.992432,0.250488,-0.022217,0.075944,-0.016902,-0.026142,0.999973,0.001544,-0.006039,0.003831,0.411958,-0.281554,-0.787178,-0.362449
62054,NaN,8.460813,0.546569,-2.485051,-2.670208,-0.353488,-1.398184,-0.063250,-0.929829,0.581456,-0.986328,0.256836,-0.009521,0.084706,0.005704,-0.024459,0.999985,-0.000316,-0.004649,0.002907,0.412718,-0.285572,-0.789371,-0.353563
62055,NaN,8.031439,2.120967,-3.735611,-0.725862,-0.423501,-0.743458,-0.280660,-0.413031,0.525948,-0.986328,0.259033,-0.009521,0.080335,0.021369,-0.037220,0.999993,-0.001403,-0.002065,0.002630,0.411614,-0.288955,-0.788971,-0.352993
62056,NaN,7.740134,1.741293,-3.496202,-0.886805,-0.389940,-1.197204,-0.324024,-0.479057,0.560247,-0.984375,0.269775,0.000977,0.077436,0.017573,-0.034805,0.999992,-0.001620,-0.002395,0.002801,0.413942,-0.292220,-0.789845,-0.345550
62057,NaN,9.251305,2.806846,-2.589089,-1.226157,1.276140,0.037998,-0.286391,-0.651947,0.594335,-0.980225,0.271729,0.009277,0.092513,0.028307,-0.025630,0.999989,-0.001432,-0.003260,0.002972,0.411971,-0.296283,-0.789822,-0.344495
62058,NaN,10.294013,3.078039,-1.349811,-1.993261,2.712894,0.479529,-0.143020,-0.449604,0.565742,-0.982666,0.278320,0.002930,0.102883,0.031062,-0.013289,0.999993,-0.000715,-0.002248,0.002829,0.414157,-0.299995,-0.789651,-0.339012
62059,NaN,10.688155,3.138331,0.105946,-2.759428,4.007067,0.208582,-0.093183,-0.004735,0.362732,-0.976318,0.278320,0.002930,0.106824,0.031578,0.001047,0.999998,-0.000466,-0.000024,0.001814,0.414612,-0.301627,-0.788957,-0.338622
62060,NaN,12.222170,2.479873,0.419433,-3.943616,4.048982,1.312089,-0.066673,0.295699,0.052325,-0.982666,0.280518,0.005127,0.122221,0.024832,0.004005,0.999999,-0.000333,0.001478,0.000262,0.419540,-0.304833,-0.781848,-0.346088
62061,NaN,11.563959,2.367651,0.756351,-3.862073,4.073079,0.598684,0.242636,0.805572,-0.301630,-0.982422,0.273926,-0.003418,0.115704,0.023493,0.007126,0.999990,0.001213,0.004028,-0.001508,0.422532,-0.301748,-0.781030,-0.346997
62062,NaN,10.964068,0.435771,-1.035940,-4.067307,1.131623,0.368095,0.757836,1.387355,-0.422567,-0.982422,0.265625,-0.020264,0.109574,0.004167,-0.011104,0.999967,0.003789,0.006937,-0.002113,0.432525,-0.303139,-0.767874,-0.362489
62063,NaN,9.623726,-1.496590,-0.258586,-5.304932,0.381348,-1.649694,2.049005,0.400208,-0.513853,-0.988770,0.267578,-0.028564,0.096193,-0.015184,-0.002933,0.999942,0.010245,0.002001,-0.002569,0.436211,-0.295992,-0.771457,-0.356319
62064,NaN,10.418651,-1.800972,0.740846,-6.205751,0.994755,-1.278112,2.300585,0.174842,-0.567085,-0.984375,0.259033,-0.030762,0.104141,-0.018388,0.007107,0.999929,0.011503,0.000874,-0.002835,0.444828,-0.294943,-0.765244,-0.359913
62065,NaN,9.677314,-0.787383,-1.137613,-4.237123,-0.137011,-1.004047,1.486774,0.482863,-0.568107,-0.986572,0.259033,-0.041260,0.096722,-0.008063,-0.011669,0.999965,0.007434,0.002414,-0.002841,0.447831,-0.288584,-0.767657,-0.356188
62066,NaN,7.576666,-1.272021,-2.437691,-2.956639,-1.838261,-2.543219,1.030766,0.325032,-0.560633,-0.988525,0.252686,-0.045410,0.075691,-0.012806,-0.024566,0.999981,0.005154,0.001625,-0.002803,0.455985,-0.289573,-0.760583,-0.360192
62067,NaN,7.351393,-0.666936,-2.190436,-2.515894,-1.344603,-2.660899,1.058189,-0.011729,-0.534249,-0.990479,0.248535,-0.047607,0.073497,-0.006750,-0.021936,0.999982,0.005291,-0.000059,-0.002671,0.456503,-0.285144,-0.763276,-0.357363
62068,NaN,7.610343,-0.749847,-2.681275,-2.313875,-1.790892,-2.255736,1.435130,-0.045372,-0.481997,-0.986084,0.248535,-0.043213,0.076091,-0.007489,-0.026849,0.999971,0.007176,-0.000227,-0.002410,0.464522,-0.283487,-0.761403,-0.352307
62069,NaN,7.522849,-0.736427,-3.267615,-1.966062,-2.248285,-2.138535,1.358021,-0.398748,-0.286293,-0.992432,0.244141,-0.041260,0.075283,-0.007251,-0.032576,0.999974,0.006790,-0.001994,-0.001431,0.464412,-0.279938,-0.765108,-0.347227
62070,NaN,8.033258,-0.135771,-4.102376,-1.123633,-2.374585,-1.182543,0.948408,-0.842786,-0.090979,-0.994629,0.244141,-0.039062,0.080504,-0.001201,-0.040691,0.999980,0.004742,-0.004214,-0.000455,0.470030,-0.278278,-0.768570,-0.333066
62071,NaN,8.332341,0.744063,-4.217539,-0.561176,-1.800436,-0.635981,0.742338,-0.898398,0.002061,-0.988037,0.239746,-0.030518,0.083512,0.007597,-0.041773,0.999983,0.003712,-0.004492,0.000010,0.467606,-0.278032,-0.771902,-0.328953
62072,NaN,8.389367,1.304433,-3.522710,-0.422899,-0.777398,-0.663437,0.673030,-0.752605,0.030209,-0.988037,0.244141,-0.022217,0.084023,0.013175,-0.034867,0.999987,0.003365,-0.003763,0.000151,0.472423,-0.278909,-0.772859,-0.318929
62073,NaN,8.575319,0.724573,-3.758567,-0.817839,-1.230378,-0.538812,0.827627,-0.669421,0.003665,-0.988037,0.246094,-0.017822,0.085878,0.007402,-0.037268,0.999986,0.004138,-0.003347,0.000018,0.470989,-0.278032,-0.775744,-0.314785
62074,NaN,8.777863,-0.325377,-3.160480,-1.875637,-1.296431,-0.760272,1.019681,-0.682423,0.029157,-0.986084,0.246094,-0.015869,0.087886,-0.003081,-0.031321,0.999981,0.005098,-0.003412,0.000146,0.475827,-0.274967,-0.779806,-0.299806
62075,NaN,9.285646,-1.230387,-2.723377,-2.991769,-1.443116,-0.640982,1.121035,-0.753060,0.036525,-0.990234,0.248291,-0.003174,0.092961,-0.012135,-0.026952,0.999977,0.005605,-0.003765,0.000183,0.474476,-0.273565,-0.783210,-0.294306
62076,NaN,9.391283,-1.796768,-2.328520,-3.524105,-1.422246,-0.735016,1.071676,-0.775718,0.065295,-0.992188,0.244141,-0.003174,0.094008,-0.017813,-0.023016,0.999978,0.005358,-0.003879,0.000326,0.479672,-0.270578,-0.786825,-0.278582
62077,NaN,9.689713,-1.755392,-2.320091,-3.638415,-1.273504,-0.458842,1.058507,-0.840106,0.100073,-0.992188,0.246094,0.003174,0.097002,-0.017384,-0.022886,0.999977,0.005292,-0.004200,0.000500,0.477927,-0.269597,-0.790161,-0.273035
62078,NaN,10.405875,-1.574464,-2.505811,-3.546719,-1.038037,0.355053,1.129301,-0.842836,0.113281,-0.988037,0.250488,0.013672,0.104172,-0.015545,-0.024707,0.999975,0.005646,-0.004214,0.000566,0.482146,-0.271045,-0.790604,-0.262708
62079,NaN,10.802852,-1.601349,-2.356816,-3.836155,-0.805043,0.649420,1.169441,-0.845033,0.141458,-0.986084,0.252441,0.018066,0.108138,-0.015801,-0.023204,0.999974,0.005847,-0.004225,0.000707,0.480564,-0.269888,-0.793965,-0.256592
62080,NaN,10.990960,-1.674811,-1.821986,-4.168001,-0.334280,0.648724,1.117383,-0.902798,0.197149,-0.979736,0.256836,0.024170,0.110007,-0.016539,-0.017816,0.999974,0.005587,-0.004514,0.000986,0.484952,-0.266506,-0.797782,-0.239457
62081,NaN,11.637762,-1.373348,-0.657860,-5.012680,0.853280,0.765603,1.168246,-1.059058,0.266383,-0.979736,0.260986,0.034668,0.116429,-0.013542,-0.006042,0.999968,0.005841,-0.005295,0.001332,0.482587,-0.265996,-0.801369,-0.232732
62082,NaN,11.968670,-0.414713,0.874139,-5.510541,2.697928,0.509074,1.073978,-1.129215,0.366098,-0.979980,0.265381,0.039062,0.119642,-0.003977,0.009395,0.999968,0.005370,-0.005646,0.001830,0.485329,-0.261401,-0.806119,-0.215167
62083,NaN,12.624237,1.176313,1.905218,-5.519950,4.787943,0.722435,0.798615,-1.068623,0.382530,-0.975830,0.269531,0.051514,0.126115,0.011926,0.019774,0.999976,0.003993,-0.005343,0.001913,0.482465,-0.262149,-0.809052,-0.209618
62084,NaN,13.818421,3.171176,1.984292,-4.745075,6.728857,1.898324,0.517643,-0.815944,0.251765,-0.973633,0.267334,0.055908,0.138061,0.031833,0.020489,0.999988,0.002588,-0.004080,0.001259,0.486589,-0.261471,-0.808969,-0.201081
62085,NaN,14.433146,5.301776,1.647044,-3.489774,8.407260,2.688364,0.066844,-0.494787,0.047584,-0.978027,0.271729,0.057861,0.144277,0.053046,0.016845,0.999997,0.000334,-0.002474,0.000238,0.484721,-0.261998,-0.810175,-0.200047
62086,NaN,14.414953,6.977485,0.357662,-1.343123,8.871519,3.457434,-0.356183,-0.013072,-0.197975,-0.975586,0.265381,0.055908,0.144218,0.069638,0.003462,0.999998,-0.001781,-0.000065,-0.000990,0.488865,-0.265361,-0.804913,-0.206663
62087,NaN,13.601861,6.233615,-0.657121,-0.829036,7.469845,3.141623,0.117126,0.259695,-0.398404,-0.979980,0.267334,0.060059,0.136134,0.062069,-0.006712,0.999997,0.000586,0.001298,-0.001992,0.489652,-0.263203,-0.804925,-0.207510
62088,NaN,12.825305,3.119598,-0.542591,-2.406132,4.787633,2.262210,0.596015,-0.380818,-0.485828,-0.979736,0.263184,0.062256,0.128338,0.030900,-0.005089,0.999991,0.002980,-0.001904,-0.002429,0.493480,-0.263764,-0.800785,-0.213658
62089,NaN,13.401708,1.579629,-0.050551,-4.060447,4.043748,2.404571,0.326359,-1.259810,-0.583098,-0.979492,0.256592,0.074951,0.134062,0.015405,0.000364,0.999975,0.001632,-0.006299,-0.002915,0.488230,-0.261964,-0.804991,-0.212123
62090,NaN,14.642746,0.629996,1.223789,-5.995354,4.304276,2.908509,-0.910906,-1.628184,-0.355462,-0.977295,0.254395,0.091797,0.146332,0.006099,0.013401,0.999955,-0.004554,-0.008141,-0.001777,0.485549,-0.265549,-0.803511,-0.219307
62091,NaN,16.407127,1.102793,3.109938,-7.775324,6.338665,3.582884,-2.439335,-1.742680,-0.172150,-0.970703,0.254395,0.115234,0.163802,0.011277,0.032391,0.999887,-0.012196,-0.008713,-0.000861,0.475066,-0.272661,-0.805205,-0.227186
62092,NaN,16.147527,2.063702,4.210156,-7.607014,7.769507,3.012710,-4.046277,-1.104879,0.167145,-0.974854,0.254395,0.129883,0.161223,0.021630,0.042562,0.999780,-0.020230,-0.005524,0.000836,0.470203,-0.284281,-0.798739,-0.245174
62093,NaN,15.373416,4.773720,3.072985,-4.560250,8.891078,3.176495,-4.678439,-0.067441,0.437666,-0.974609,0.239258,0.134277,0.153618,0.048775,0.029649,0.999724,-0.023390,-0.000337,0.002188,0.463690,-0.297032,-0.792320,-0.262664
62094,NaN,13.536278,4.043546,1.075532,-2.733644,6.371401,2.543217,-1.127544,0.699788,-0.468834,-0.974609,0.239258,0.123779,0.135493,0.040176,0.010054,0.999975,-0.005638,0.003499,-0.002344,0.470125,-0.302436,-0.781123,-0.278140
62095,NaN,19.698002,2.667537,9.803204,-11.030828,12.674774,4.639106,3.137802,3.160764,-0.486076,-0.979004,0.239502,0.083496,0.198562,0.024685,0.095300,0.999749,0.015688,0.015803,-0.002430,0.486420,-0.288692,-0.778596,-0.271737
62096,NaN,15.604254,3.023453,13.529580,-10.892261,14.465927,0.566497,0.326703,3.802377,-0.256893,-0.985596,0.241699,0.051758,0.158616,0.029814,0.132345,0.999817,0.001633,0.019011,-0.001284,0.506093,-0.291632,-0.758331,-0.289406
62097,NaN,16.965505,2.594643,-1.075621,-2.684176,3.272907,6.854032,-0.866797,2.836062,0.010915,-0.987793,0.239746,0.024414,0.169477,0.025902,-0.013273,0.999890,-0.004334,0.014180,0.000055,0.515543,-0.289733,-0.749800,-0.296767
62098,NaN,14.440291,3.068941,-8.411425,3.517202,-2.961316,6.543036,1.963975,4.460277,0.046778,-0.992432,0.250488,-0.024170,0.142477,0.031568,-0.086999,0.999703,0.009819,0.022299,0.000234,0.540828,-0.284329,-0.729919,-0.306400
62099,NaN,14.984155,3.339437,-8.643518,4.341413,-3.194147,6.959160,3.867045,4.264297,-0.041358,-0.988281,0.244141,-0.070801,0.147970,0.035067,-0.088936,0.999586,0.019333,0.021319,-0.000207,0.561599,-0.267074,-0.724068,-0.298334
62100,NaN,13.976091,-4.499814,-16.454284,4.986629,-14.551366,5.986049,5.847439,2.524214,-0.488243,-0.992432,0.237793,-0.104492,0.137556,-0.040467,-0.167516,0.999490,0.029232,0.012619,-0.002441,0.582508,-0.246798,-0.719085,-0.287562
62101,NaN,14.826098,-9.656646,-16.547487,2.776815,-18.215845,5.906253,7.376675,3.633123,-0.765241,-0.992188,0.220947,-0.155273,0.144826,-0.090871,-0.171549,0.999148,0.036873,0.018160,-0.003825,0.603072,-0.217138,-0.719439,-0.267510
62102,NaN,10.742028,-13.005253,-7.803147,-3.639319,-15.338183,0.026744,5.452887,2.538529,-1.145669,-0.989746,0.208252,-0.178223,0.105650,-0.128445,-0.082897,0.999531,0.027260,0.012691,-0.005727,0.620672,-0.190543,-0.717134,-0.253334
62103,NaN,10.881921,-9.315646,-1.127327,-6.244135,-8.699865,-0.232380,0.869030,1.188593,-1.776789,-0.991455,0.195312,-0.182373,0.107915,-0.094066,-0.012324,0.999933,0.004345,0.005943,-0.008884,0.623472,-0.179960,-0.716190,-0.256845
62104,NaN,7.958769,-5.217606,-6.941065,1.181833,-8.826886,-2.104459,-2.464578,-2.246682,-1.786220,-0.995361,0.184570,-0.146484,0.079881,-0.053731,-0.067859,0.999821,-0.012322,-0.011233,-0.008931,0.614736,-0.183539,-0.719239,-0.266662
62105,NaN,12.889347,3.399748,-14.913418,11.018912,-7.518027,5.089013,-4.729604,-3.382931,-1.781851,-1.005615,0.173584,-0.127197,0.131675,0.029329,-0.147653,0.999538,-0.023644,-0.016912,-0.008908,0.595574,-0.196095,-0.724632,-0.285914
62106,NaN,17.856431,10.518963,-9.350875,9.990503,0.309272,10.604985,-4.985037,2.492531,-2.662875,-1.002686,0.145996,-0.171387,0.178717,0.100400,-0.098278,0.999523,-0.024921,0.012461,-0.013312,0.598014,-0.199780,-0.710518,-0.312462
62107,NaN,21.984119,10.996674,18.375787,-9.745559,17.756206,13.227592,-5.154161,8.497886,-2.312336,-0.990234,0.141846,-0.239014,0.228585,0.111880,0.171299,0.998699,-0.025760,0.042471,-0.011557,0.618656,-0.193445,-0.678454,-0.345751
62108,NaN,9.453332,1.100024,-2.014423,0.805944,-2.570673,-0.467322,-7.534615,5.285098,-2.209648,-0.983887,0.139893,-0.270752,0.094058,0.009128,-0.023002,0.998880,-0.037659,0.026416,-0.011044,0.626436,-0.201972,-0.647813,-0.383566
62109,NaN,6.469663,-2.971485,-12.124721,4.696248,-12.563914,-5.603284,-5.080713,4.164446,-1.564324,-0.971191,0.131348,-0.308838,0.061914,-0.033295,-0.121740,0.999430,-0.025399,0.020818,-0.007820,0.631438,-0.204719,-0.626239,-0.408902
62110,NaN,6.714297,-2.233362,-5.978952,1.148864,-7.756469,-4.881099,-3.620943,3.078599,-1.644743,-0.969238,0.133545,-0.336426,0.066024,-0.023969,-0.060388,0.999684,-0.018103,0.015391,-0.008223,0.635051,-0.206524,-0.609309,-0.427552
62111,NaN,8.781113,3.949530,-4.837217,5.084257,-4.422787,-1.406182,-3.965946,3.210472,-1.460430,-0.958740,0.133789,-0.361816,0.087292,0.037869,-0.050538,0.999648,-0.019827,0.016050,-0.007301,0.637393,-0.207734,-0.591931,-0.447431
62112,NaN,6.468948,2.887084,-5.150019,4.638096,-4.875733,-4.209042,-4.164726,3.603944,-1.311295,-0.948242,0.135986,-0.385254,0.063923,0.027353,-0.053237,0.999599,-0.020821,0.018017,-0.006556,0.641389,-0.210810,-0.572003,-0.465823
62113,NaN,6.305696,0.993826,-6.131592,3.510369,-6.830054,-5.412811,-3.939764,3.018835,-1.003273,-0.935791,0.142334,-0.406494,0.062165,0.008402,-0.062434,0.999679,-0.019697,0.015093,-0.005016,0.643330,-0.213479,-0.554021,-0.483336
62114,NaN,7.532574,0.156004,-5.735978,2.401049,-7.563245,-4.646836,-3.533946,2.794961,-0.789238,-0.925537,0.153320,-0.431885,0.074517,0.000239,-0.058417,0.999738,-0.017668,0.013974,-0.003946,0.645755,-0.217474,-0.537971,-0.496278
62115,NaN,7.404574,-0.529123,-5.759901,1.707847,-8.014839,-5.217027,-3.360495,2.672358,-0.664546,-0.917236,0.157471,-0.448730,0.073248,-0.006513,-0.058479,0.999764,-0.016801,0.013361,-0.003322,0.647490,-0.219856,-0.521600,-0.510248
62116,NaN,6.347895,-1.348903,-6.148044,1.107264,-8.309938,-6.710383,-3.571393,2.480059,-0.498580,-0.909424,0.174805,-0.463867,0.062676,-0.014750,-0.062005,0.999761,-0.017856,0.012399,-0.002493,0.648991,-0.225536,-0.506542,-0.520922
62117,NaN,5.648462,-0.530847,-5.847231,1.590110,-7.569945,-7.255882,-3.735067,2.226526,-0.409979,-0.899170,0.187744,-0.476562,0.055817,-0.006522,-0.058982,0.999762,-0.018674,0.011132,-0.002050,0.649198,-0.230766,-0.489930,-0.534095
62118,NaN,5.101666,-1.647666,-5.642022,0.351156,-7.572926,-8.053669,-4.103476,2.455448,-0.490638,-0.885010,0.204834,-0.493652,0.050279,-0.017762,-0.056685,0.999711,-0.020515,0.012276,-0.002453,0.649260,-0.238298,-0.473823,-0.545131
62119,NaN,3.451598,-2.303464,-6.042318,-0.277069,-7.322341,-9.982427,-4.076272,1.792814,-0.368332,-0.881104,0.217773,-0.500244,0.033931,-0.024327,-0.060242,0.999750,-0.020380,0.008963,-0.001842,0.647487,-0.245714,-0.457214,-0.557980
62120,NaN,3.404888,-2.708212,-5.626444,-0.996469,-7.040407,-9.952793,-3.676729,1.281308,-0.251503,-0.871094,0.237061,-0.506836,0.033655,-0.028155,-0.055970,0.999810,-0.018382,0.006406,-0.001257,0.645246,-0.255752,-0.445906,-0.565170
62121,NaN,2.993895,-2.996584,-5.280940,-1.564664,-6.571136,-10.259485,-3.440502,1.015334,-0.163527,-0.871582,0.254150,-0.509033,0.029647,-0.030894,-0.052434,0.999839,-0.017202,0.005076,-0.000818,0.642546,-0.263578,-0.433045,-0.574572
62122,NaN,2.464126,-2.961339,-4.376162,-1.892574,-5.497564,-10.242918,-3.073680,0.730273,-0.083494,-0.867676,0.262695,-0.500488,0.024470,-0.030292,-0.043389,0.999875,-0.015368,0.003651,-0.000417,0.639808,-0.273801,-0.425018,-0.578825
62123,NaN,1.928371,-2.988270,-3.748572,-2.178699,-4.647457,-10.406925,-2.847039,0.575804,-0.017970,-0.861572,0.277832,-0.502930,0.019174,-0.030414,-0.037111,0.999895,-0.014235,0.002879,-0.000090,0.637017,-0.281177,-0.414915,-0.585657
62124,NaN,1.137497,-3.096360,-3.676087,-2.372906,-4.163127,-11.009135,-2.498984,0.371902,0.010542,-0.865967,0.284180,-0.498535,0.011309,-0.031419,-0.036391,0.999920,-0.012495,0.001859,0.000053,0.634191,-0.290928,-0.409413,-0.587829
62125,NaN,0.747381,-2.655504,-2.874227,-2.156148,-3.174760,-10.881731,-2.044219,0.061421,0.018446,-0.866455,0.296875,-0.492432,0.007468,-0.026846,-0.028471,0.999948,-0.010221,0.000307,0.000092,0.631367,-0.297254,-0.403161,-0.592011
62126,NaN,0.379061,-2.332186,-1.979198,-2.015017,-2.167230,-10.674434,-1.625595,-0.337182,-0.018710,-0.866455,0.299072,-0.490234,0.003822,-0.023482,-0.019595,0.999966,-0.008128,-0.001686,-0.000094,0.628003,-0.306335,-0.402258,-0.591574
62127,NaN,0.344611,-2.163188,-1.455503,-1.951854,-1.657595,-10.411994,-1.224703,-0.799967,-0.123239,-0.872803,0.303467,-0.475586,0.003491,-0.021723,-0.014408,0.999973,-0.006123,-0.004000,-0.000616,0.624139,-0.312292,-0.401324,-0.593180
62128,NaN,1.108128,-2.311289,-1.050234,-2.184419,-1.678563,-9.523468,-0.663995,-1.331018,-0.270178,-0.881348,0.305420,-0.460693,0.011119,-0.023162,-0.010352,0.999971,-0.003320,-0.006655,-0.001351,0.619330,-0.320689,-0.406418,-0.590265
62129,NaN,2.087429,-2.753382,-0.458562,-2.736745,-1.635469,-8.404111,0.056301,-1.933336,-0.403593,-0.887695,0.303223,-0.441650,0.020862,-0.027575,-0.004392,0.999951,0.000281,-0.009667,-0.002018,0.614273,-0.325386,-0.413197,-0.588269
62130,NaN,3.198654,-3.998992,0.054743,-4.081011,-1.746999,-7.259379,0.887879,-2.738278,-0.478561,-0.904053,0.288086,-0.424561,0.031881,-0.040069,0.000807,0.999894,0.004439,-0.013691,-0.002393,0.608257,-0.332547,-0.427066,-0.580561
62131,NaN,7.036639,-4.255400,1.052105,-4.663501,-2.379912,-3.385066,1.673493,-3.540586,-0.449604,-0.918701,0.281738,-0.394775,0.070074,-0.042805,0.011406,0.999806,0.008367,-0.017702,-0.002248,0.602059,-0.336712,-0.443354,-0.572353
62132,NaN,13.189458,-2.281170,5.259283,-3.730606,-0.263077,4.073085,1.988497,-3.946308,-0.279612,-0.930908,0.268799,-0.371338,0.130793,-0.023534,0.054949,0.999755,0.009942,-0.019730,-0.001398,0.595398,-0.344229,-0.462922,-0.559206
62133,NaN,20.374809,-0.951058,13.158314,-4.363794,5.398738,13.445127,1.374240,-3.562912,-0.027477,-0.947754,0.268555,-0.335449,0.201361,-0.010459,0.135115,0.999818,0.006871,-0.017813,-0.000137,0.589334,-0.349975,-0.477332,-0.549870
62134,NaN,26.692971,-0.348557,16.626621,-4.848054,7.671112,20.298685,0.179441,-2.104213,0.140314,-0.949951,0.272949,-0.326904,0.265163,-0.003450,0.169059,0.999944,0.000897,-0.010521,0.000702,0.584745,-0.358306,-0.484706,-0.542909
62135,NaN,29.328033,2.260658,17.963193,-2.558945,8.855959,23.397784,-1.321196,0.289767,0.212665,-0.943848,0.283691,-0.333496,0.293515,0.024103,0.179051,0.999977,-0.006606,0.001449,0.001063,0.583647,-0.361891,-0.479879,-0.545992
62136,NaN,26.680335,5.162291,16.126192,1.255172,8.114747,20.700812,-2.427299,1.647123,0.008987,-0.941895,0.287842,-0.346191,0.268113,0.053569,0.158415,0.999892,-0.012136,0.008235,0.000045,0.583046,-0.366925,-0.468455,-0.553148
62137,NaN,19.748254,5.958168,6.245303,4.069130,0.469573,11.346344,-2.011584,1.385247,-0.282648,-0.937744,0.290039,-0.348389,0.197991,0.059917,0.060481,0.999924,-0.010058,0.006926,-0.001413,0.581778,-0.368270,-0.459335,-0.561180
62138,NaN,14.757422,4.239886,2.609270,3.161603,-1.814759,5.329103,-0.913637,1.088718,-0.343309,-0.935791,0.288086,-0.363037,0.147785,0.042261,0.025095,0.999973,-0.004568,0.005444,-0.001717,0.581542,-0.368926,-0.454244,-0.565124
62139,NaN,10.469602,0.386091,3.620358,-0.557245,0.009237,1.257842,-0.554742,1.146238,-0.282374,-0.929443,0.290039,-0.363037,0.104907,0.003812,0.035592,0.999979,-0.002774,0.005731,-0.001412,0.582315,-0.366653,-0.449854,-0.569304
62140,NaN,4.492828,-3.260693,3.710764,-3.853179,1.717917,-4.636875,-0.470952,0.931527,-0.202582,-0.931641,0.292236,-0.371582,0.045068,-0.032565,0.036975,0.999986,-0.002355,0.004658,-0.001013,0.582875,-0.366523,-0.446330,-0.571582
62141,NaN,1.375162,-5.608147,2.378943,-5.881224,1.339003,-8.194054,-0.423226,0.115752,-0.193251,-0.929443,0.290283,-0.375732,0.013711,-0.056044,0.023900,0.999997,-0.002116,0.000579,-0.000966,0.581807,-0.366995,-0.445135,-0.573297
62142,NaN,4.041453,-5.676525,-0.760211,-5.782230,-2.465353,-6.710794,-0.313279,-1.048667,-0.055484,-0.929443,0.294434,-0.358887,0.040438,-0.056788,-0.007301,0.999985,-0.001566,-0.005243,-0.000277,0.578723,-0.372506,-0.447158,-0.571288
62143,NaN,8.657587,-4.592480,-4.485654,-4.603598,-7.328028,-3.388531,0.197297,-1.893169,0.269998,-0.944092,0.292236,-0.343994,0.087057,-0.045764,-0.044079,0.999954,0.000986,-0.009466,0.001350,0.575605,-0.377931,-0.452674,-0.566510
62144,NaN,12.326577,-6.595924,-7.447247,-6.391102,-11.243544,-0.667495,1.970947,-2.997899,0.546160,-0.952637,0.294189,-0.318604,0.124548,-0.064894,-0.073255,0.999835,0.009854,-0.014989,0.002731,0.574038,-0.383908,-0.465546,-0.553499
62145,NaN,16.617270,-6.916424,-7.762724,-6.628057,-12.559556,3.697731,3.373390,-3.187026,0.624364,-0.956787,0.290039,-0.301758,0.167606,-0.067350,-0.076110,0.999726,0.016865,-0.015934,0.003122,0.574668,-0.384397,-0.482701,-0.537583
62146,NaN,18.026402,-3.705610,-10.604807,-2.682390,-14.823989,5.158807,4.045044,-3.323397,0.630276,-0.962891,0.289795,-0.274170,0.182112,-0.034370,-0.103745,0.999652,0.020223,-0.016615,0.003151,0.575845,-0.385714,-0.501625,-0.517687
62147,NaN,17.388486,-3.022920,-4.128001,-2.805625,-7.903966,6.254938,5.882038,-3.424620,0.447580,-0.968994,0.277100,-0.265625,0.174633,-0.028666,-0.039152,0.999418,0.029404,-0.017120,0.002237,0.579425,-0.378545,-0.525549,-0.494740
62148,NaN,15.921457,1.699451,7.894732,-1.159239,5.365686,7.173586,6.101723,-1.675110,-0.560616,-0.972412,0.253418,-0.271729,0.158586,0.014104,0.080737,0.999496,0.030503,-0.008374,-0.002803,0.586782,-0.363957,-0.547894,-0.472266
62149,NaN,8.834738,-0.789532,1.124084,-1.549242,-0.577189,-1.026057,5.664708,-0.028628,-0.639996,-0.976318,0.236328,-0.284424,0.088319,-0.008492,0.011019,0.999594,0.028320,-0.000143,-0.003200,0.595264,-0.345509,-0.562292,-0.458379
62150,NaN,0.823273,-2.584869,-14.140552,3.010142,-14.026375,-11.030129,4.322525,0.295313,-0.178282,-0.978271,0.232178,-0.290527,0.008002,-0.022792,-0.141932,0.999765,0.021611,0.001476,-0.000891,0.606138,-0.330103,-0.573587,-0.441165
62151,NaN,-2.865634,-1.750856,-16.828912,5.610119,-15.446200,-14.751996,3.414084,-1.629858,0.197688,-0.978027,0.227783,-0.280029,-0.027267,-0.014657,-0.168782,0.999821,0.017069,-0.008149,0.000988,0.607429,-0.323863,-0.585626,-0.428002
62152,NaN,-1.576220,0.620093,-15.038210,7.454163,-12.871673,-12.595387,3.011619,-2.571660,0.500158,-0.986328,0.223389,-0.256592,-0.013847,0.008430,-0.150453,0.999801,0.015057,-0.012857,0.002501,0.607115,-0.321975,-0.600670,-0.408581
62153,NaN,1.098234,0.320524,-14.871603,7.348643,-12.973106,-9.459134,3.335621,-3.559256,0.534952,-0.988281,0.221191,-0.235596,0.013612,0.005716,-0.148408,0.999699,0.016676,-0.017794,0.002674,0.602709,-0.320634,-0.617244,-0.391084
62154,NaN,6.994699,1.010053,-9.467349,5.233246,-7.956426,-2.822894,4.072235,-3.513039,-0.135097,-1.000488,0.203857,-0.207764,0.071600,0.011960,-0.093194,0.999638,0.020359,-0.017563,-0.000675,0.598929,-0.314467,-0.638145,-0.367648
62155,NaN,10.758900,4.362593,-3.035439,4.267386,-0.401748,1.394429,4.976379,-3.218414,-0.333132,-1.002197,0.197510,-0.186768,0.108120,0.044154,-0.027523,0.999560,0.024878,-0.016090,-0.001665,0.595611,-0.304285,-0.657170,-0.347544
62156,NaN,15.669178,6.400709,-1.290214,4.093862,2.845604,6.412705,3.478898,-2.782333,-0.112421,-1.004150,0.193115,-0.159180,0.156877,0.064105,-0.009606,0.999752,0.017393,-0.013911,-0.000562,0.592726,-0.296386,-0.674426,-0.325546
62157,NaN,14.041943,2.651992,-3.419071,2.413375,-0.763820,4.660950,1.749710,-1.311210,0.248718,-1.012695,0.197266,-0.159180,0.140605,0.026987,-0.033035,0.999939,0.008748,-0.006556,0.001244,0.591268,-0.294160,-0.680750,-0.316942
62158,NaN,11.677370,2.412087,-4.879840,3.406691,-1.809795,2.479981,0.251003,-0.899304,0.370832,-1.006592,0.201660,-0.148682,0.116946,0.024398,-0.048242,0.999987,0.001255,-0.004497,0.001854,0.589946,-0.294512,-0.685813,-0.308037
62159,NaN,9.730569,3.103078,-2.885972,2.916028,0.217577,0.389749,0.246074,-1.119559,0.721670,-1.010742,0.205811,-0.137939,0.097352,0.031417,-0.028276,0.999977,0.001230,-0.005598,0.003608,0.587569,-0.297983,-0.688415,-0.303403
62160,NaN,10.555642,3.583417,-3.341112,3.449969,0.466486,1.291557,-0.690937,-1.143475,1.012778,-1.009033,0.220947,-0.123291,0.105563,0.036254,-0.032932,0.999965,-0.003455,-0.005717,0.005064,0.584928,-0.302886,-0.692041,-0.295295
62161,NaN,10.780371,2.350669,-2.344526,1.864367,0.562462,1.297930,-1.380318,-0.818258,1.045821,-1.011719,0.235840,-0.119141,0.107775,0.023910,-0.023168,0.999954,-0.006901,-0.004091,0.005229,0.581525,-0.311741,-0.690779,-0.295754
62162,NaN,9.257831,-0.947506,-1.267851,-1.126001,-0.686881,-0.513644,-0.965478,-0.416383,1.008542,-1.003174,0.238037,-0.114990,0.092651,-0.009068,-0.012441,0.999973,-0.004827,-0.002082,0.005043,0.580734,-0.316117,-0.691882,-0.290031
62163,NaN,8.272931,-1.104259,-1.785086,-0.769997,-1.213187,-1.399466,-1.008304,-0.043419,0.916678,-0.999268,0.252930,-0.111084,0.082783,-0.010753,-0.017778,0.999977,-0.005041,-0.000217,0.004583,0.580307,-0.322276,-0.689080,-0.290777
62164,NaN,6.833029,-0.594495,-2.768044,0.449633,-1.731642,-2.635990,-1.401777,0.057389,0.862765,-1.008057,0.259277,-0.111084,0.068348,-0.005844,-0.027659,0.999966,-0.007009,0.000287,0.004314,0.580706,-0.325387,-0.688944,-0.286810
62165,NaN,6.635222,0.192616,-1.350380,0.237071,-0.141001,-3.044338,-1.136938,-0.214623,0.884271,-1.000000,0.272217,-0.106934,0.066358,0.002143,-0.013444,0.999973,-0.005685,-0.001073,0.004421,0.579370,-0.332038,-0.686479,-0.287797
62166,NaN,8.331232,-0.019817,-3.435680,1.184470,-1.605957,-1.024534,-1.506498,0.019361,0.687244,-1.000244,0.280762,-0.106934,0.083310,-0.000171,-0.034364,0.999966,-0.007532,0.000097,0.003436,0.579217,-0.334532,-0.686749,-0.284556
62167,NaN,8.307257,-1.010895,-3.659360,0.535960,-2.377456,-1.010204,-0.977428,-0.214090,0.492095,-1.002197,0.280762,-0.096436,0.083136,-0.010083,-0.036455,0.999984,-0.004887,-0.001070,0.002460,0.577538,-0.339357,-0.685144,-0.286119
62168,NaN,9.467581,-1.469651,-1.724564,-1.107249,-0.925011,-0.185260,0.131340,-0.336410,0.058100,-0.995850,0.282959,-0.096436,0.094709,-0.014658,-0.017096,0.999998,0.000657,-0.001682,0.000291,0.577965,-0.335289,-0.689901,-0.278522
62169,NaN,9.080743,-0.777894,-2.079232,-0.324216,-0.801850,-0.504622,0.856196,-0.359304,-0.284008,-1.002197,0.276367,-0.096436,0.090834,-0.007819,-0.020663,0.999988,0.004281,-0.001797,-0.001420,0.577759,-0.332337,-0.692599,-0.275778
62170,NaN,9.202575,0.022785,-2.991974,0.850007,-0.884460,-0.214005,2.813261,-0.440776,-0.444194,-1.001953,0.270020,-0.100586,0.092092,0.000442,-0.029712,0.999896,0.014066,-0.002204,-0.002221,0.581450,-0.318709,-0.701886,-0.260188
62171,NaN,8.015301,-0.879877,-1.344095,-0.737431,-0.408084,-1.681549,3.567442,-0.168025,-0.273027,-0.999756,0.265869,-0.111084,0.080152,-0.008667,-0.013529,0.999840,0.017836,-0.000840,-0.001365,0.586096,-0.307553,-0.707337,-0.248147
62172,NaN,8.331541,-0.054109,-4.354240,1.945286,-1.809531,-0.795112,3.865818,-0.154772,-0.311573,-1.001709,0.261475,-0.113037,0.083349,0.000170,-0.043479,0.999812,0.019328,-0.000774,-0.001558,0.591973,-0.290742,-0.715997,-0.228879
62173,NaN,8.832905,-1.271056,-2.202126,-0.430579,-1.093430,-0.696557,3.134810,-0.516440,-0.079777,-1.005859,0.252930,-0.115234,0.088381,-0.012401,-0.021989,0.999874,0.015673,-0.002582,-0.000399,0.594515,-0.281738,-0.721138,-0.217107
62174,NaN,9.323988,-0.971573,-1.797760,-0.591583,-0.445478,-0.296184,1.677805,-0.813804,-0.009641,-1.005859,0.257324,-0.113037,0.093312,-0.009571,-0.017679,0.999957,0.008389,-0.004069,-0.000048,0.594360,-0.274155,-0.727774,-0.204744
62175,NaN,8.135205,-0.179048,-1.553687,-0.130924,0.195161,-1.531880,1.548434,-0.968500,0.041927,-1.003662,0.257324,-0.104736,0.081426,-0.001655,-0.015156,0.999958,0.007742,-0.004842,0.000210,0.592976,-0.270692,-0.732149,-0.197642
62176,NaN,7.654534,0.479494,-0.916065,-0.200232,1.119939,-2.172941,1.781953,-1.218874,0.055014,-1.005615,0.252930,-0.098145,0.076598,0.004895,-0.008651,0.999942,0.008910,-0.006094,0.000275,0.591102,-0.264134,-0.739341,-0.184949
62177,NaN,7.924688,0.647193,-1.423163,0.184581,1.087493,-1.810992,1.522150,-1.240310,0.144926,-1.005859,0.257080,-0.087646,0.079328,0.006635,-0.013690,0.999952,0.007611,-0.006201,0.000725,0.588632,-0.261311,-0.744188,-0.177240
62178,NaN,8.599843,0.770702,-2.290005,0.750822,0.943117,-0.961624,1.008602,-0.941862,0.280888,-1.010010,0.261475,-0.085693,0.086094,0.007942,-0.022455,0.999975,0.005043,-0.004709,0.001404,0.586769,-0.257555,-0.749240,-0.167353
62179,NaN,8.930637,0.912142,-1.814331,0.351760,1.474064,-0.780377,0.630208,-0.914778,0.404420,-1.005859,0.263428,-0.075195,0.089369,0.009358,-0.017705,0.999983,0.003151,-0.004574,0.002022,0.584480,-0.257988,-0.751918,-0.162618
62180,NaN,9.611647,1.706410,-1.572556,0.409687,2.520665,-0.260435,0.601846,-1.125597,0.451600,-1.005859,0.267822,-0.068848,0.096164,0.017327,-0.015133,0.999977,0.003009,-0.005628,0.002258,0.581349,-0.256439,-0.756680,-0.153974
62181,NaN,10.289166,2.484750,-1.142390,0.303604,3.642852,0.186395,0.636152,-1.167047,0.458199,-1.006104,0.270020,-0.058105,0.102898,0.025118,-0.010744,0.999975,0.003181,-0.005835,0.002291,0.578085,-0.257222,-0.759957,-0.148728
62182,NaN,10.542323,2.567817,-0.956749,0.026281,4.006997,0.316039,0.599599,-1.164256,0.431297,-1.006104,0.274170,-0.049805,0.105421,0.025933,-0.008876,0.999976,0.002998,-0.005821,0.002156,0.574743,-0.255220,-0.764781,-0.140152
62183,NaN,11.027879,2.423371,-0.544129,-0.575091,4.319287,0.617752,0.594343,-1.173319,0.379216,-0.997559,0.271973,-0.039307,0.110262,0.024458,-0.004722,0.999977,0.002972,-0.005867,0.001896,0.571265,-0.255785,-0.768068,-0.135282
62184,NaN,11.578024,1.843051,-0.030625,-1.570578,4.338330,0.965007,0.517079,-1.170492,0.336694,-1.008301,0.280518,-0.024414,0.115748,0.018625,0.000419,0.999978,0.002585,-0.005852,0.001683,0.567728,-0.253127,-0.772925,-0.127277
62185,NaN,12.523739,1.358835,0.094802,-2.245799,4.330114,1.802125,0.370963,-1.184217,0.319488,-1.000000,0.284912,-0.018066,0.125207,0.013786,0.001715,0.999979,0.001855,-0.005921,0.001597,0.563810,-0.254063,-0.776103,-0.123427
62186,NaN,13.548468,1.116757,-0.164314,-2.550014,4.375619,2.804135,0.320130,-1.159078,0.323926,-1.000000,0.286865,-0.011963,0.135473,0.011389,-0.000840,0.999981,0.001601,-0.005795,0.001620,0.559930,-0.252593,-0.780364,-0.117079
62187,NaN,13.741653,1.273535,-0.081881,-2.684669,4.708993,2.878941,0.236363,-1.087211,0.351045,-1.001953,0.289062,-0.003418,0.137396,0.012977,-0.000057,0.999983,0.001182,-0.005436,0.001755,0.556179,-0.253940,-0.783090,-0.113791
62188,NaN,13.512032,2.146871,0.326669,-2.645224,5.667660,2.359804,0.073708,-0.977218,0.318504,-0.995850,0.297607,0.002930,0.135068,0.021682,0.003935,0.999987,0.000369,-0.004886,0.001593,0.552815,-0.252427,-0.786700,-0.108530
62189,NaN,13.521548,3.357641,0.641857,-2.354942,6.926881,2.061206,-0.163725,-0.880930,0.274795,-0.997803,0.295410,0.017578,0.135139,0.033768,0.006986,0.999989,-0.000819,-0.004405,0.001374,0.549284,-0.254442,-0.788692,-0.107294
62190,NaN,14.132401,4.494317,1.266801,-2.560969,8.412121,2.195846,-0.320468,-0.896450,0.233096,-0.993652,0.299561,0.023926,0.141213,0.045129,0.013229,0.999988,-0.001602,-0.004482,0.001165,0.545682,-0.254219,-0.791610,-0.104681
62191,NaN,14.268036,5.659076,1.854926,-2.543837,9.772150,1.895234,-0.417454,-0.998464,0.132677,-0.993652,0.293213,0.032471,0.142548,0.056725,0.019143,0.999985,-0.002087,-0.004992,0.000663,0.541257,-0.256409,-0.793936,-0.104693
62192,NaN,13.940618,5.685837,1.521388,-2.325738,9.585573,1.662978,-0.282517,-0.913578,-0.105914,-0.995850,0.297363,0.041016,0.139365,0.056807,0.015770,0.999988,-0.001413,-0.004568,-0.000530,0.537642,-0.254144,-0.797354,-0.102850
62193,NaN,13.803759,3.848054,0.339767,-2.385384,7.493381,2.171666,0.246905,-0.729236,-0.300127,-0.991211,0.291016,0.041016,0.138081,0.038269,0.003948,0.999991,0.001235,-0.003646,-0.001501,0.534886,-0.252664,-0.799817,-0.101738
62194,NaN,13.696248,0.192834,1.059696,-4.967470,4.630717,2.129924,0.670987,-1.075438,-0.343844,-0.991211,0.291016,0.049316,0.136906,0.001656,0.011339,0.999978,0.003355,-0.005377,-0.001719,0.531790,-0.246882,-0.804282,-0.096843
62195,NaN,14.381562,-0.502394,2.953266,-7.195128,5.076185,1.945836,-0.419263,-1.291817,0.055230,-0.995361,0.284424,0.068604,0.143622,-0.004921,0.030471,0.999977,-0.002096,-0.006459,0.000276,0.526089,-0.248846,-0.807428,-0.096779
62196,NaN,14.716854,0.973185,2.192810,-6.076160,6.151584,2.335503,-1.645498,-0.802627,0.072798,-0.991211,0.293213,0.066406,0.147076,0.009969,0.022437,0.999958,-0.008227,-0.004013,0.000364,0.521554,-0.250803,-0.809285,-0.100682
62197,NaN,13.182150,0.770964,1.143028,-4.857961,5.091249,1.418928,-1.307611,0.216921,-0.320129,-0.988770,0.280273,0.060059,0.131846,0.007573,0.011237,0.999977,-0.006538,0.001085,-0.001601,0.520616,-0.252809,-0.808444,-0.107071
62198,NaN,19.287359,0.840179,7.246718,-11.627744,9.195080,4.519576,4.731978,3.238402,-0.884898,-0.995117,0.273926,0.000977,0.194045,0.005877,0.069490,0.999579,0.023657,0.016190,-0.004424,0.539891,-0.231783,-0.803872,-0.092651
62199,NaN,16.990586,7.625532,18.598349,-16.998807,18.483791,-1.940258,2.477384,5.014883,-0.580904,-0.995361,0.271973,-0.034912,0.174729,0.073477,0.182564,0.999605,0.012385,0.025071,-0.002904,0.562430,-0.220354,-0.791840,-0.090030
62200,NaN,14.941363,3.671198,8.768321,-9.785135,10.307212,0.751869,-1.846701,1.236248,-0.100996,-0.993164,0.269775,-0.049805,0.149969,0.037438,0.086414,0.999938,-0.009233,0.006181,-0.000505,0.566590,-0.220892,-0.787858,-0.097277
62201,NaN,16.228908,-0.919178,-2.407029,-2.457488,2.018161,6.308591,-0.044522,1.921833,0.151405,-0.993164,0.267822,-0.072998,0.162055,-0.009075,-0.025626,0.999954,-0.000223,0.009609,0.000757,0.574156,-0.220676,-0.782189,-0.099135
62202,NaN,14.200708,0.461896,-3.014167,-0.382564,2.313454,4.520201,1.782813,4.078671,-0.111022,-0.989502,0.278809,-0.123779,0.141356,0.004826,-0.032987,0.999752,0.008913,0.020392,-0.000555,0.593290,-0.209947,-0.771217,-0.095674
62203,NaN,14.236568,0.837668,-6.459768,3.384759,1.044512,5.435915,0.809558,4.604900,0.007237,-0.981201,0.272461,-0.174561,0.140829,0.008652,-0.067818,0.999727,0.004047,0.023022,0.000036,0.611734,-0.205320,-0.757728,-0.097332
62204,NaN,13.163015,-1.231075,-14.124571,10.187750,-4.365780,6.041788,0.994764,4.641341,-0.394936,-0.979004,0.268311,-0.214844,0.128281,-0.011854,-0.144309,0.999716,0.004973,0.023205,-0.001974,0.631057,-0.197000,-0.743688,-0.099434
62205,NaN,14.961060,-5.172246,-17.352455,11.907285,-9.051879,8.295738,2.495006,2.858016,-0.781725,-0.970215,0.255371,-0.239990,0.146907,-0.050113,-0.176269,0.999812,0.012474,0.014289,-0.003908,0.643632,-0.184769,-0.736542,-0.095412
62206,NaN,15.578114,-7.671939,-17.176582,11.262166,-11.090464,8.807622,3.429862,0.025203,-1.160270,-0.976074,0.238281,-0.244141,0.155322,-0.074661,-0.173078,0.999836,0.017148,0.000126,-0.005801,0.646797,-0.169185,-0.738518,-0.087296
62207,NaN,14.501306,-4.906666,-9.535805,5.551190,-5.865051,6.314296,3.044874,-0.595900,-1.583435,-0.975586,0.216797,-0.239746,0.144911,-0.048759,-0.095670,0.999848,0.015224,-0.002979,-0.007917,0.646382,-0.153732,-0.743003,-0.080649
62208,NaN,14.436707,0.019497,-11.558506,9.025203,-2.137753,6.186558,-1.504477,-0.388384,-1.960817,-0.977051,0.201904,-0.241699,0.144578,-0.002090,-0.115294,0.999922,-0.007522,-0.001942,-0.009804,0.643027,-0.152993,-0.744462,-0.094259
62209,NaN,11.502577,-1.998287,-15.884042,12.534972,-6.378275,3.998302,-3.135335,1.495783,-2.151451,-0.976807,0.187012,-0.254395,0.113594,-0.023705,-0.159341,0.999791,-0.015676,0.007478,-0.010757,0.645047,-0.154334,-0.739667,-0.113963
62210,NaN,15.945282,6.191203,-8.553050,8.271574,3.517910,7.066510,-2.335903,0.592932,-2.515351,-0.972168,0.171875,-0.266846,0.159950,0.058894,-0.086704,0.999848,-0.011679,0.002965,-0.012576,0.643666,-0.153556,-0.737876,-0.132864
62211,NaN,25.311172,7.610303,16.980521,-14.510099,14.672468,13.859782,-4.866617,8.114133,-2.702791,-0.951172,0.167969,-0.351562,0.260702,0.076546,0.157469,0.998790,-0.024323,0.040554,-0.013509,0.667280,-0.153676,-0.709724,-0.165567
62212,NaN,4.860826,-6.117769,7.458781,-9.648021,-2.015370,-5.394347,-6.545782,6.059105,-2.367738,-0.936523,0.170166,-0.379150,0.050168,-0.059314,0.075045,0.998936,-0.032717,0.030285,-0.011834,0.680943,-0.162500,-0.684748,-0.202561
62213,NaN,11.310878,-0.442858,-10.497985,8.610307,-6.596330,1.170570,-4.522536,2.967265,-2.079904,-0.925781,0.161621,-0.404541,0.111465,-0.007990,-0.106488,0.999580,-0.022610,0.014834,-0.010398,0.685035,-0.167708,-0.671470,-0.227442
62214,NaN,6.025002,0.292571,-6.200848,5.330051,-3.820427,-4.172278,-4.028759,3.292656,-1.731802,-0.917480,0.168213,-0.429932,0.059233,0.001147,-0.063024,0.999624,-0.020141,0.016461,-0.008658,0.690002,-0.173193,-0.656207,-0.251581
62215,NaN,8.103049,1.544852,-4.425249,4.631539,-2.425164,-2.048534,-3.653918,2.664145,-1.645999,-0.906982,0.168213,-0.451172,0.080548,0.013959,-0.045592,0.999711,-0.018268,0.013319,-0.008229,0.693309,-0.177002,-0.643657,-0.271474
62216,NaN,6.771803,0.941233,-3.452655,3.488767,-2.488581,-3.465246,-3.895308,2.858588,-1.442748,-0.892578,0.178955,-0.461670,0.067276,0.008239,-0.035658,0.999682,-0.019474,0.014291,-0.007213,0.696341,-0.182878,-0.629110,-0.293060
62217,NaN,5.833579,2.663180,-4.790963,5.617792,-2.170900,-4.540944,-4.079180,2.881896,-1.024482,-0.877930,0.185547,-0.480957,0.057764,0.025339,-0.049270,0.999675,-0.020394,0.014408,-0.005122,0.699950,-0.189580,-0.613834,-0.311990
62218,NaN,5.574875,2.333923,-5.177367,5.670129,-2.975047,-5.088374,-3.862468,2.737928,-0.799626,-0.863525,0.198486,-0.500000,0.055119,0.022103,-0.052966,0.999712,-0.019310,0.013688,-0.003998,0.702190,-0.197869,-0.598243,-0.331486
62219,NaN,5.614293,1.460984,-5.940523,5.572288,-4.416704,-5.526137,-4.125282,2.816952,-0.537066,-0.857666,0.213379,-0.512939,0.055333,0.013220,-0.060471,0.999684,-0.020624,0.014083,-0.002685,0.705424,-0.206019,-0.581860,-0.348385
62220,NaN,5.043931,0.402521,-7.038704,5.361718,-6.058575,-6.701564,-4.205636,2.659669,-0.430002,-0.845703,0.239258,-0.528076,0.049503,0.002428,-0.071112,0.999688,-0.021026,0.013297,-0.002150,0.706891,-0.215941,-0.565091,-0.366535
62221,NaN,5.128971,-0.937853,-6.732602,3.970581,-6.952718,-6.914880,-4.327260,2.343982,-0.384297,-0.831299,0.252197,-0.538574,0.050478,-0.010938,-0.067695,0.999695,-0.021634,0.011719,-0.001921,0.707923,-0.225791,-0.549121,-0.382530
62222,NaN,4.765065,-2.051751,-6.624305,2.717680,-7.627137,-7.526061,-4.319210,2.045621,-0.326103,-0.814941,0.271484,-0.547363,0.046938,-0.022025,-0.066261,0.999713,-0.021594,0.010227,-0.001630,0.706625,-0.237352,-0.533546,-0.399591
62223,NaN,4.162101,-2.849809,-6.417194,1.624537,-7.842824,-8.241470,-3.982920,1.622756,-0.267496,-0.807129,0.292725,-0.545410,0.041062,-0.029828,-0.063921,0.999768,-0.019913,0.008113,-0.001337,0.705531,-0.247417,-0.520051,-0.412987
62224,NaN,4.148691,-3.182456,-6.175283,0.946808,-7.889936,-8.289395,-3.768247,1.274173,-0.203413,-0.801270,0.307861,-0.545654,0.041062,-0.033026,-0.061401,0.999802,-0.018840,0.006370,-0.001017,0.702998,-0.257839,-0.508123,-0.425587
62225,NaN,3.841070,-3.097476,-5.547395,0.437773,-7.277056,-8.408970,-3.583539,1.003560,-0.108159,-0.797607,0.331299,-0.539307,0.038116,-0.031985,-0.055099,0.999827,-0.017917,0.005018,-0.000541,0.700578,-0.267984,-0.497023,-0.436284
62226,NaN,3.373165,-2.834580,-5.247139,0.248800,-6.763700,-8.748403,-3.435394,0.813364,-0.037964,-0.793701,0.344238,-0.537354,0.033514,-0.029249,-0.052111,0.999844,-0.017176,0.004067,-0.000190,0.697043,-0.278621,-0.486863,-0.446615
62227,NaN,2.459420,-3.205488,-4.476907,-0.712927,-5.969251,-9.339429,-3.211925,0.649470,0.036263,-0.787598,0.354980,-0.529053,0.024456,-0.032765,-0.044326,0.999866,-0.016059,0.003247,0.000181,0.694139,-0.288420,-0.477313,-0.455145
62228,NaN,1.632024,-3.107422,-3.752453,-1.172030,-5.002523,-9.815846,-2.933834,0.467439,0.093062,-0.783936,0.372070,-0.527100,0.016248,-0.031613,-0.037101,0.999890,-0.014669,0.002337,0.000465,0.690820,-0.297845,-0.469363,-0.462337
62229,NaN,0.809360,-2.818108,-3.611121,-1.189128,-4.444531,-10.496802,-2.546246,0.187792,0.108865,-0.775635,0.385010,-0.522949,0.008075,-0.028633,-0.035756,0.999918,-0.012731,0.000939,0.000544,0.687666,-0.306441,-0.462628,-0.468171
62230,NaN,0.518182,-2.289290,-2.775765,-1.105204,-3.410727,-10.412036,-2.087554,-0.218876,0.052798,-0.788574,0.393555,-0.506104,0.005218,-0.023180,-0.027511,0.999945,-0.010438,-0.001094,0.000264,0.684609,-0.313535,-0.459539,-0.470988
62231,NaN,0.598044,-1.915906,-1.960265,-1.072574,-2.585540,-10.000729,-1.590288,-0.733663,-0.045346,-0.788818,0.399902,-0.497803,0.006048,-0.019315,-0.019427,0.999962,-0.007951,-0.003668,-0.000227,0.680300,-0.320595,-0.458359,-0.473622
62232,NaN,1.469596,-2.158163,-1.126385,-1.480163,-2.230652,-8.853899,-1.004322,-1.239554,-0.225929,-0.797363,0.406250,-0.489258,0.014741,-0.021654,-0.011064,0.999968,-0.005022,-0.006198,-0.001130,0.675464,-0.326133,-0.461437,-0.473774
62233,NaN,2.885643,-2.735764,-0.421803,-2.097356,-2.250149,-7.257913,-0.307619,-1.735236,-0.496298,-0.809814,0.399658,-0.472168,0.028823,-0.027435,-0.003926,0.999958,-0.001538,-0.008676,-0.002481,0.669757,-0.330129,-0.467360,-0.473303
62234,NaN,4.611927,-3.896421,0.060007,-3.182528,-2.721406,-5.462945,0.598788,-2.341081,-0.740430,-0.824463,0.391113,-0.453125,0.045964,-0.039137,0.001022,0.999920,0.002994,-0.011705,-0.003702,0.664162,-0.331108,-0.479031,-0.468813
62235,NaN,6.348363,-4.992629,0.243416,-4.177371,-3.373830,-3.775104,1.456762,-3.093079,-0.837945,-0.838867,0.374023,-0.437988,0.063230,-0.050212,0.003048,0.999845,0.007283,-0.015465,-0.004190,0.657101,-0.331467,-0.494030,-0.462906
62236,NaN,11.313648,-5.121663,1.729038,-4.542505,-3.306694,1.396285,1.864106,-3.617954,-0.683052,-0.851074,0.365234,-0.412598,0.112629,-0.051773,0.018850,0.999787,0.009320,-0.018088,-0.003415,0.650228,-0.331129,-0.512438,-0.452731
62237,NaN,19.280220,-3.549265,9.553305,-5.783790,2.702168,11.038869,1.843125,-3.609444,-0.324007,-0.863525,0.358887,-0.393555,0.190982,-0.036703,0.098656,0.999793,0.009215,-0.018046,-0.001620,0.643165,-0.332414,-0.528775,-0.442985
62238,NaN,26.307829,-2.266364,15.375041,-7.006047,7.449381,18.979725,1.194911,-2.538680,0.060494,-0.869873,0.354492,-0.387207,0.261107,-0.023516,0.156934,0.999902,0.005974,-0.012693,0.000302,0.639492,-0.333130,-0.540720,-0.433240
62239,NaN,29.332101,0.000771,18.824926,-6.388503,11.211164,22.563932,0.010279,-0.250650,0.324392,-0.867676,0.358887,-0.382812,0.293084,0.000474,0.188617,0.999998,0.000051,-0.001253,0.001622,0.639534,-0.334522,-0.541003,-0.431749
62240,NaN,26.119317,2.038928,18.360225,-4.286809,12.119441,19.482019,-1.709614,1.564824,0.339854,-0.859619,0.367432,-0.393555,0.262581,0.022391,0.181366,0.999931,-0.008548,0.007824,0.001699,0.643708,-0.335076,-0.533554,-0.434377
62241,NaN,19.853518,4.243601,12.422649,0.290073,8.620464,12.369760,-2.641005,1.945277,0.052216,-0.855713,0.378174,-0.395752,0.199716,0.044106,0.121713,0.999865,-0.013204,0.009726,0.000261,0.644501,-0.339451,-0.521400,-0.444447
62242,NaN,14.472973,4.675178,3.898551,3.821838,2.032245,5.279754,-1.521967,1.090619,-0.141817,-0.849365,0.380371,-0.400146,0.144971,0.046940,0.037839,0.999956,-0.007610,0.005453,-0.000709,0.646387,-0.339430,-0.516238,-0.447738
62243,NaN,10.931730,2.846370,3.324773,2.182313,1.500155,1.660967,-0.575671,0.796681,-0.101518,-0.847412,0.382324,-0.406494,0.109463,0.028503,0.032730,0.999988,-0.002878,0.003983,-0.000508,0.647233,-0.339247,-0.512541,-0.450890
62244,NaN,6.310142,-0.780359,4.691213,-1.978502,2.422184,-2.556474,-0.288350,0.719601,-0.026745,-0.845459,0.386719,-0.408691,0.063269,-0.007745,0.046696,0.999992,-0.001442,0.003598,-0.000134,0.650181,-0.336679,-0.510908,-0.450426
62245,NaN,2.117309,-2.824232,5.873848,-4.584007,3.727502,-6.340813,-0.354712,0.369312,-0.022792,-0.841064,0.384521,-0.406494,0.021278,-0.028141,0.058749,0.999997,-0.001774,0.001847,-0.000114,0.650476,-0.336947,-0.508947,-0.452019
62246,NaN,1.635189,-5.290481,2.728066,-5.780986,0.115676,-7.651189,-0.555611,-0.325004,-0.032343,-0.847412,0.384521,-0.404297,0.016299,-0.052831,0.027454,0.999995,-0.002778,-0.001625,-0.000162,0.649726,-0.338294,-0.509566,-0.451393
62247,NaN,6.222480,-7.259336,-1.204469,-5.889166,-5.183595,-4.216699,-0.050941,-1.583591,0.142543,-0.854004,0.390869,-0.387451,0.062369,-0.072552,-0.011533,0.999968,-0.000255,-0.007918,0.000713,0.645908,-0.342392,-0.514339,-0.448359
62248,NaN,13.498836,-4.806056,-9.682693,0.007862,-13.348355,1.180660,2.213673,-3.985846,0.778713,-0.864258,0.388672,-0.353516,0.137072,-0.046474,-0.094629,0.999733,0.011067,-0.019927,0.003893,0.641194,-0.346125,-0.530697,-0.432931
62249,NaN,24.800948,-7.863608,-13.247422,-0.360505,-19.210521,12.166623,5.033076,-4.419258,1.128054,-0.868164,0.375732,-0.351318,0.251310,-0.073951,-0.128845,0.999423,0.025161,-0.022092,0.005639,0.640251,-0.342356,-0.553497,-0.408058
62250,NaN,22.185383,-5.693093,-12.364105,1.699106,-16.384195,10.338748,5.425659,-2.387842,0.522204,-0.878418,0.367188,-0.346924,0.223463,-0.053016,-0.122453,0.999557,0.027124,-0.011937,0.002611,0.643700,-0.331472,-0.571113,-0.386790
62251,NaN,12.327097,0.085818,-1.530769,1.366448,-2.611883,2.254235,5.539008,-2.404945,-0.036736,-0.884277,0.350098,-0.342529,0.123443,0.001232,-0.013793,0.999544,0.027691,-0.012023,-0.000184,0.645648,-0.318049,-0.589364,-0.366924
62252,NaN,12.123032,3.189584,4.074524,0.754085,3.979733,2.729864,6.193494,-1.179291,-0.900504,-0.891846,0.315918,-0.354980,0.121122,0.030054,0.042410,0.999493,0.030962,-0.005895,-0.004502,0.649920,-0.297904,-0.605726,-0.349219
62253,NaN,6.022240,-3.355197,-3.720877,-0.335676,-5.557668,-4.302296,4.811664,0.650028,-0.920337,-0.889404,0.298828,-0.374023,0.059947,-0.032917,-0.038201,0.999695,0.024056,0.003250,-0.004601,0.657250,-0.278263,-0.613201,-0.338491
62254,NaN,-0.037343,-3.340286,-11.109013,4.408751,-10.659642,-11.034093,3.295738,-0.084336,-0.271742,-0.895264,0.288086,-0.375977,-0.000370,-0.031566,-0.111621,0.999863,0.016478,-0.000422,-0.001359,0.660918,-0.267204,-0.619405,-0.328826
62255,NaN,-1.303560,-0.289436,-11.456879,7.240586,-8.688563,-12.074851,2.482731,-1.277150,0.068621,-0.895020,0.279541,-0.373779,-0.012303,-0.001476,-0.114673,0.999903,0.012413,-0.006386,0.000343,0.660329,-0.261292,-0.627556,-0.319164
62256,NaN,-2.451165,-0.652932,-10.114192,6.309146,-7.694350,-12.929051,2.897810,-2.180047,0.332634,-0.903320,0.270752,-0.350342,-0.023397,-0.005100,-0.101482,0.999834,0.014488,-0.010900,0.001663,0.657398,-0.256943,-0.638937,-0.305888
62257,NaN,1.513735,3.141068,-11.084548,9.943932,-5.867271,-8.511957,3.535230,-3.374485,0.328073,-0.917725,0.262207,-0.326904,0.016944,0.033387,-0.109991,0.999700,0.017674,-0.016871,0.001640,0.651464,-0.251463,-0.654823,-0.289082
62258,NaN,6.627621,5.922888,-13.529655,13.595090,-5.321875,-2.824267,4.298678,-3.754861,-0.096547,-0.921387,0.247070,-0.303711,0.068814,0.062067,-0.132707,0.999593,0.021490,-0.018772,-0.000483,0.643689,-0.243436,-0.673251,-0.270438
62259,NaN,12.194054,6.526893,-6.928992,8.677669,0.224130,2.989365,5.536878,-3.224249,-0.514649,-0.933838,0.234131,-0.288574,0.123187,0.066801,-0.065475,0.999484,0.027680,-0.016118,-0.002573,0.638547,-0.228127,-0.691392,-0.249386
62260,NaN,15.073876,5.370708,0.863001,1.244550,4.847474,5.409872,5.416658,-2.507298,-0.192660,-0.943848,0.214844,-0.277832,0.150654,0.053268,0.011966,0.999554,0.027079,-0.012535,-0.000963,0.634880,-0.214381,-0.706240,-0.228459
62261,NaN,16.973500,4.529607,-3.260965,3.425772,2.050227,7.602810,2.140885,-1.616636,-0.060497,-0.941650,0.214844,-0.271484,0.170002,0.045580,-0.030749,0.999910,0.010704,-0.008083,-0.000302,0.631338,-0.209207,-0.713820,-0.219329
62262,NaN,11.288719,1.873888,-3.242502,2.354005,-0.020453,1.845647,1.138769,-1.019597,0.213097,-0.945557,0.210449,-0.258789,0.113030,0.019041,-0.031741,0.999970,0.005694,-0.005098,0.001065,0.628468,-0.208619,-0.718214,-0.213717
62263,NaN,10.609072,2.841636,-3.421551,3.055610,0.780764,1.250138,0.400978,-1.149648,0.467747,-0.943848,0.225586,-0.252686,0.106218,0.028732,-0.033548,0.999979,0.002005,-0.005748,0.002339,0.625242,-0.210271,-0.721754,-0.209594
62264,NaN,10.303253,2.254004,-2.444516,1.911788,0.955848,0.800698,-0.409661,-0.753122,0.678043,-0.950439,0.229736,-0.246338,0.103047,0.022840,-0.024104,0.999985,-0.002048,-0.003766,0.003390,0.622130,-0.215924,-0.723118,-0.208405
62265,NaN,8.260338,-0.804480,-1.369344,-0.455642,-0.961534,-1.468664,-0.418454,-0.685422,0.766464,-0.941895,0.234131,-0.239990,0.082680,-0.007756,-0.013394,0.999985,-0.002092,-0.003427,0.003832,0.619986,-0.220716,-0.723978,-0.206781
62266,NaN,8.419420,-0.936554,-2.532804,0.355528,-1.626645,-1.129043,-0.754776,-0.732501,1.001675,-0.944580,0.246826,-0.231689,0.084332,-0.009038,-0.024985,0.999974,-0.003774,-0.003662,0.005008,0.616859,-0.228547,-0.724484,-0.205850
62267,NaN,8.060913,-0.479445,-2.149778,0.341588,-0.958166,-1.518481,-0.533219,-0.998579,1.074658,-0.940430,0.257568,-0.217041,0.080739,-0.004417,-0.021083,0.999970,-0.002666,-0.004993,0.005373,0.613717,-0.235114,-0.725768,-0.203309
62268,NaN,8.821738,1.922134,-1.345706,1.004383,1.628768,-0.887094,-1.095838,-0.807871,1.021942,-0.947266,0.268311,-0.210693,0.088172,0.019599,-0.013208,0.999964,-0.005479,-0.004039,0.005110,0.609852,-0.244102,-0.726020,-0.203442
62269,NaN,9.375703,1.765274,-0.600410,0.275872,2.083368,-0.487273,-1.707892,-0.377474,1.003495,-0.943359,0.283203,-0.202393,0.093678,0.018072,-0.005980,0.999949,-0.008539,-0.001887,0.005017,0.607384,-0.253333,-0.724175,-0.206100
62270,NaN,8.684135,1.359012,0.296645,-0.518523,2.302928,-1.340615,-1.604001,-0.056068,1.016929,-0.937500,0.298096,-0.200439,0.086770,0.014055,0.002879,0.999955,-0.008020,-0.000280,0.005085,0.605517,-0.262971,-0.721464,-0.209010
62271,NaN,8.848020,0.307025,-1.978545,0.594512,0.135992,-0.761489,-1.638092,0.265064,0.855939,-0.935303,0.300293,-0.204590,0.088440,0.003286,-0.019929,0.999956,-0.008190,0.001325,0.004280,0.605183,-0.270738,-0.717796,-0.212657
62272,NaN,7.920973,-0.999528,-3.074004,0.711095,-1.653639,-1.449067,-0.874886,0.141851,0.588628,-0.937744,0.306885,-0.200439,0.079217,-0.009897,-0.030753,0.999986,-0.004374,0.000709,0.002943,0.604492,-0.276320,-0.715706,-0.214482
62273,NaN,8.100931,-0.493787,-4.466298,2.050208,-2.108412,-1.028177,-0.177020,-0.661728,0.250383,-0.939697,0.302490,-0.189697,0.081163,-0.004876,-0.044390,0.999993,-0.000885,-0.003309,0.001252,0.602140,-0.278468,-0.717168,-0.213432
62274,NaN,8.029878,-1.783647,-5.093150,1.638480,-3.412885,-0.909477,1.127168,-1.089166,0.042780,-0.935303,0.302490,-0.185547,0.080579,-0.017533,-0.050593,0.999969,0.005636,-0.005446,0.000214,0.599185,-0.277387,-0.721638,-0.208022
62275,NaN,9.272835,-2.556403,0.527982,-3.273101,-0.196240,-0.754687,2.272880,-1.290040,-0.091045,-0.939453,0.295898,-0.183350,0.092681,-0.025669,0.005586,0.999915,0.011364,-0.006450,-0.000455,0.597532,-0.271577,-0.727934,-0.198276
62276,NaN,9.626013,-1.919168,1.021116,-3.359260,0.690696,-0.559366,1.927088,-1.003423,-0.058495,-0.945801,0.298096,-0.177002,0.096202,-0.019320,0.010508,0.999941,0.009635,-0.005017,-0.000292,0.595801,-0.267591,-0.732941,-0.190300
62277,NaN,8.396952,-1.102235,-0.086839,-1.855261,0.484600,-1.563179,2.087663,-0.576161,0.092590,-0.951904,0.293945,-0.172852,0.083977,-0.010975,-0.000741,0.999941,0.010438,-0.002881,0.000463,0.596531,-0.262253,-0.736480,-0.181580
62278,NaN,7.931342,-0.671876,-1.784402,-0.208173,-0.188143,-1.660222,2.054330,-0.576049,0.092163,-0.943359,0.291748,-0.177002,0.079368,-0.006500,-0.017683,0.999943,0.010271,-0.002880,0.000461,0.596637,-0.257902,-0.739952,-0.173150
62279,NaN,7.878534,0.262263,-3.657815,1.835629,-0.429898,-1.329484,1.697268,-0.537438,0.072730,-0.945557,0.291748,-0.177002,0.078882,0.002960,-0.036342,0.999960,0.008486,-0.002687,0.000364,0.596872,-0.253573,-0.742905,-0.165942
62280,NaN,7.653580,0.656586,-3.638127,2.076775,-0.048909,-1.570817,1.503561,-0.445643,0.158311,-0.945312,0.287354,-0.172852,0.076611,0.006899,-0.036160,0.999969,0.007518,-0.002228,0.000792,0.596735,-0.250963,-0.745309,-0.159496
62281,NaN,7.405841,0.362116,-2.500028,1.018022,0.358796,-2.062721,1.579785,-0.796077,0.257795,-0.945557,0.289551,-0.166504,0.074152,0.003912,-0.024675,0.999960,0.007899,-0.003980,0.001289,0.595927,-0.247845,-0.748594,-0.151823
62282,NaN,8.271958,0.226330,-2.664505,0.898339,0.426556,-1.176360,1.325842,-0.970427,0.363420,-0.947754,0.291748,-0.164307,0.082843,0.002589,-0.026227,0.999965,0.006629,-0.004852,0.001817,0.593698,-0.246916,-0.752062,-0.144770
62283,NaN,8.424961,0.081050,-2.763345,0.834520,0.390195,-0.993797,0.894927,-1.052065,0.500740,-0.943359,0.289551,-0.149414,0.084391,0.001144,-0.027185,0.999973,0.004475,-0.005260,0.002504,0.591186,-0.246907,-0.755198,-0.138604
62284,NaN,8.974286,0.748673,-2.630255,0.933709,1.251516,-0.561899,0.693355,-1.095483,0.579005,-0.945557,0.295898,-0.141113,0.089863,0.007837,-0.025784,0.999975,0.003467,-0.005477,0.002895,0.587809,-0.248717,-0.758220,-0.133125
62285,NaN,9.477601,1.729496,-2.093979,0.860806,2.572490,-0.334270,0.766624,-1.180636,0.571256,-0.943604,0.300049,-0.136963,0.094847,0.017644,-0.020313,0.999971,0.003833,-0.005903,0.002856,0.584643,-0.249418,-0.761472,-0.127056
62286,NaN,10.493034,2.589443,-1.376057,0.446855,4.015312,0.305507,0.829900,-1.229496,0.508801,-0.943848,0.310791,-0.122070,0.104945,0.026216,-0.013007,0.999969,0.004149,-0.006147,0.002544,0.580838,-0.250587,-0.764964,-0.121092
62287,NaN,11.409097,2.755452,-0.681902,-0.320842,4.834317,0.899409,0.797470,-1.216084,0.448083,-0.941406,0.304443,-0.117920,0.114067,0.027835,-0.006015,0.999971,0.003987,-0.006080,0.002240,0.577433,-0.250724,-0.768399,-0.115201
62288,NaN,11.562928,2.125235,0.568076,-1.819360,5.044821,0.664821,0.845313,-1.187168,0.376824,-0.941406,0.308594,-0.107422,0.115552,0.021444,0.006457,0.999972,0.004227,-0.005936,0.001884,0.573711,-0.251204,-0.771842,-0.109602
62289,NaN,12.653613,1.304858,1.539285,-3.396242,5.177437,1.405292,0.852940,-1.271679,0.348366,-0.939453,0.314941,-0.098877,0.126412,0.013201,0.016253,0.999969,0.004265,-0.006358,0.001742,0.570040,-0.250801,-0.775500,-0.103698
62290,NaN,13.903139,0.709615,2.418657,-4.833249,5.518751,2.263348,0.660344,-1.314304,0.429627,-0.943848,0.319336,-0.084229,0.138853,0.007313,0.025123,0.999971,0.003302,-0.006571,0.002148,0.565638,-0.251905,-0.779041,-0.098454
62291,NaN,13.972094,1.924208,3.025113,-4.859695,6.960587,1.849357,0.030131,-1.350830,0.508027,-0.946045,0.323486,-0.071533,0.139463,0.019592,0.031197,0.999974,0.000151,-0.006754,0.002540,0.560640,-0.254467,-0.782220,-0.095183
62292,NaN,13.856586,3.198401,2.649623,-3.951238,7.975800,1.590284,-0.639373,-0.980051,0.468145,-0.935303,0.323486,-0.065186,0.138359,0.032394,0.027071,0.999980,-0.003197,-0.004900,0.002341,0.555974,-0.258988,-0.784057,-0.095246
62293,NaN,14.225425,5.050651,0.949053,-1.696960,8.987056,2.234109,-1.199719,-0.376472,0.325853,-0.935547,0.325684,-0.058838,0.142154,0.050795,0.009454,0.999979,-0.005999,-0.001882,0.001629,0.553079,-0.263785,-0.784098,-0.098541
62294,NaN,14.449478,6.762039,-0.269095,0.191580,9.963801,2.648071,-1.554962,-0.247314,0.153298,-0.937500,0.323486,-0.048340,0.144447,0.067708,-0.003039,0.999969,-0.007775,-0.001237,0.000766,0.549969,-0.269040,-0.783796,-0.103996
62295,NaN,14.591015,6.699115,-0.370325,0.245779,9.886002,2.841143,-1.508085,-0.471842,-0.071309,-0.939453,0.323486,-0.046143,0.145943,0.066910,-0.003864,0.999969,-0.007540,-0.002359,-0.000357,0.546029,-0.273155,-0.784385,-0.109451
62296,NaN,14.168268,4.379024,0.686622,-1.809700,8.337561,2.336216,-0.867892,-1.132715,-0.246579,-0.941406,0.319092,-0.027100,0.141695,0.043647,0.007479,0.999974,-0.004339,-0.005664,-0.001233,0.540151,-0.275265,-0.787331,-0.112141
62297,NaN,14.305337,0.734956,3.035796,-5.895989,6.541257,1.885227,0.253580,-1.914776,-0.396780,-0.935059,0.321289,-0.010254,0.142768,0.007026,0.031735,0.999951,0.001268,-0.009574,-0.001984,0.532705,-0.274089,-0.793156,-0.109561
62298,NaN,15.525709,0.001398,5.702415,-8.951893,7.640187,1.808373,-0.388112,-1.786850,-0.137161,-0.934814,0.316895,0.006592,0.154739,0.000020,0.058408,0.999958,-0.001941,-0.008934,-0.000686,0.524984,-0.275460,-0.797873,-0.109143
62299,NaN,15.525176,-0.598222,4.470427,-8.455685,6.668293,2.245795,-1.693994,-0.844552,-0.204136,-0.938965,0.314697,0.015137,0.155055,-0.005758,0.045409,0.999955,-0.008470,-0.004223,-0.001021,0.519137,-0.279551,-0.799415,-0.115256
62300,NaN,14.102751,1.571444,3.672503,-6.156232,7.641600,1.075348,-2.811905,0.520515,-0.151128,-0.936768,0.306152,0.017334,0.141134,0.016119,0.036133,0.999897,-0.014059,0.002602,-0.000756,0.517308,-0.285566,-0.796592,-0.127618
62301,NaN,17.231247,2.871429,1.698286,-4.769173,8.644736,4.698195,0.146053,0.898150,-0.619213,-0.936523,0.301758,-0.001709,0.172474,0.028168,0.016229,0.999985,0.000730,0.004491,-0.003096,0.520682,-0.282155,-0.795238,-0.129906
62302,NaN,19.304593,6.525369,12.710992,-11.589975,17.491449,1.871159,2.216045,2.355132,-0.327198,-0.940674,0.295410,-0.024902,0.194635,0.063539,0.125535,0.999868,0.011080,0.011775,-0.001636,0.533161,-0.272957,-0.790921,-0.125208
62303,NaN,16.259815,2.435357,7.536064,-8.899532,10.442084,1.970424,-0.148668,2.989675,-0.107579,-0.943115,0.295654,-0.050293,0.163713,0.024321,0.072901,0.999888,-0.000743,0.014948,-0.000538,0.544646,-0.271037,-0.782921,-0.130137
62304,NaN,15.298930,3.098779,1.415967,-3.121460,7.439654,3.624184,-0.133042,3.401193,0.244599,-0.939209,0.304199,-0.086182,0.153162,0.031183,0.011535,0.999854,-0.000665,0.017005,0.001223,0.558335,-0.269178,-0.773137,-0.134403
62305,NaN,15.347012,3.150545,-2.423541,0.429032,5.283746,5.126976,0.579724,4.234873,0.341710,-0.935059,0.306641,-0.124268,0.152858,0.031843,-0.027385,0.999770,0.002898,0.021173,0.001708,0.575578,-0.265984,-0.761072,-0.136865
62306,NaN,16.389428,3.866988,-7.034876,4.994638,3.383315,7.409375,0.425945,4.939414,0.316134,-0.928955,0.306641,-0.172852,0.162030,0.039082,-0.074283,0.999692,0.002130,0.024695,0.001581,0.595482,-0.261497,-0.746485,-0.140645
62307,NaN,17.446255,4.239071,-12.828444,10.561500,0.506951,9.552773,1.126497,4.753112,0.376322,-0.916504,0.304688,-0.215332,0.171271,0.043452,-0.132138,0.999700,0.005632,0.023763,0.001881,0.614773,-0.256136,-0.732415,-0.141480
62308,NaN,16.307253,-3.486496,-21.479632,14.623357,-10.684745,10.467842,4.467249,3.231696,-0.240084,-0.909668,0.287598,-0.253174,0.159528,-0.030211,-0.218103,0.999619,0.022333,0.016156,-0.001200,0.632287,-0.238278,-0.725655,-0.129855
62309,NaN,14.885278,-11.285303,-18.168648,9.381335,-15.630336,8.799587,7.434266,2.914692,-0.676647,-0.905029,0.266357,-0.291260,0.145777,-0.106442,-0.187863,0.999197,0.037161,0.014570,-0.003382,0.650761,-0.210252,-0.721496,-0.108383
62310,NaN,10.392227,-12.295798,-7.914175,1.516347,-12.673691,2.788296,7.031985,1.683837,-0.967022,-0.906250,0.238525,-0.312012,0.102640,-0.120553,-0.084277,0.999335,0.035152,0.008417,-0.004834,0.663373,-0.182374,-0.720375,-0.087953
62311,NaN,10.620587,-9.921417,-1.713922,-2.663262,-8.293291,1.946999,3.091664,-0.805386,-1.614918,-0.914062,0.219238,-0.288574,0.105474,-0.099791,-0.018253,0.999840,0.015457,-0.004027,-0.008074,0.662468,-0.166637,-0.725768,-0.081414
62312,NaN,14.000021,-3.801809,-3.973268,1.109929,-3.136090,4.854652,-2.514498,-3.261912,-2.594372,-0.920166,0.208496,-0.263184,0.140105,-0.040311,-0.036951,0.999704,-0.012571,-0.016308,-0.012971,0.647358,-0.166517,-0.737495,-0.096439
62313,NaN,16.559200,2.832658,-10.985985,9.338226,0.217346,7.952302,-5.096112,0.406681,-2.333110,-0.924072,0.201904,-0.267334,0.165661,0.023578,-0.110838,0.999605,-0.025477,0.002033,-0.011664,0.643228,-0.174154,-0.735379,-0.123069
62314,NaN,20.816214,9.914568,-1.026516,2.969904,10.210786,10.668928,-3.420355,2.534116,-2.399150,-0.915527,0.187012,-0.303223,0.209163,0.096416,-0.014576,0.999702,-0.017100,0.012669,-0.011995,0.647908,-0.174531,-0.727005,-0.145666
62315,NaN,14.201694,1.648615,10.350419,-9.374332,6.865699,3.467550,-6.540457,6.898519,-2.188466,-0.898682,0.185059,-0.349854,0.145653,0.018170,0.097945,0.998811,-0.032689,0.034479,-0.010938,0.664899,-0.182537,-0.700954,-0.182352
62316,NaN,3.450743,-2.829457,-4.695601,2.392952,-4.895828,-6.312655,-5.889825,4.332769,-2.286167,-0.888184,0.189453,-0.368896,0.033155,-0.030059,-0.046816,0.999266,-0.029442,0.021659,-0.011428,0.672235,-0.189668,-0.682730,-0.214492
62317,NaN,7.610124,1.188237,-6.199456,5.650588,-2.874014,-2.226712,-4.254832,2.954335,-2.037474,-0.881836,0.187256,-0.389893,0.075279,0.009775,-0.063334,0.999613,-0.021271,0.014770,-0.010186,0.675834,-0.193780,-0.669912,-0.238570
62318,NaN,5.571149,-0.190202,-5.530314,4.291914,-3.897867,-4.518311,-4.072055,3.123971,-1.869883,-0.873291,0.178955,-0.415283,0.054811,-0.003554,-0.056103,0.999627,-0.020358,0.015618,-0.009348,0.679900,-0.197246,-0.656044,-0.261605
62319,NaN,5.361801,-0.837198,-4.541194,3.048048,-4.075230,-4.896712,-3.376113,2.590415,-1.650625,-0.866943,0.183105,-0.423828,0.052949,-0.009583,-0.045946,0.999740,-0.016879,0.012951,-0.008252,0.682727,-0.199877,-0.644285,-0.280765
62320,NaN,5.780207,0.359136,-5.136164,4.218980,-3.850918,-4.589447,-3.113679,2.495339,-1.499263,-0.860840,0.185303,-0.442871,0.057176,0.002354,-0.052121,0.999773,-0.015567,0.012476,-0.007496,0.685353,-0.201997,-0.632744,-0.298537
62321,NaN,7.697098,4.305405,-5.000766,6.794975,-1.493552,-2.439226,-3.422052,2.900621,-1.605691,-0.848145,0.189697,-0.462158,0.076566,0.041562,-0.051840,0.999716,-0.017109,0.014502,-0.008028,0.688479,-0.204265,-0.619145,-0.317698
62322,NaN,4.824225,2.989022,-7.696793,7.739554,-4.161376,-6.043412,-4.235544,3.289969,-1.121872,-0.837891,0.196289,-0.474854,0.047121,0.027974,-0.078355,0.999625,-0.021175,0.016448,-0.005609,0.692158,-0.210029,-0.602019,-0.338198
62323,NaN,5.036091,1.757744,-7.253752,6.459944,-5.096751,-6.159112,-3.650628,2.258267,-0.882174,-0.825684,0.208984,-0.493896,0.049608,0.016023,-0.073402,0.999760,-0.018252,0.011290,-0.004411,0.693461,-0.216146,-0.588819,-0.354519
62324,NaN,4.811644,0.228028,-7.023257,5.005963,-6.155922,-6.720092,-3.827083,2.212497,-0.772081,-0.815186,0.217773,-0.496094,0.047340,0.000745,-0.070783,0.999748,-0.019134,0.011062,-0.003860,0.694021,-0.223241,-0.575090,-0.371174
62325,NaN,4.533907,-0.420842,-6.230270,3.807609,-6.124377,-7.067694,-4.161952,2.029099,-0.657973,-0.807129,0.232666,-0.509033,0.044688,-0.005658,-0.062651,0.999727,-0.020808,0.010145,-0.003290,0.693797,-0.231972,-0.560909,-0.387577
62326,NaN,3.873304,-2.267761,-6.822683,2.399523,-7.644267,-8.234092,-4.225607,1.886145,-0.569733,-0.799316,0.250000,-0.515625,0.038023,-0.024226,-0.068087,0.999728,-0.021126,0.009430,-0.002848,0.692514,-0.241478,-0.546742,-0.403964
62327,NaN,3.404337,-3.404771,-6.017464,0.698540,-7.595398,-8.714471,-4.127383,1.733592,-0.547001,-0.793457,0.267090,-0.513672,0.033429,-0.035376,-0.059745,0.999746,-0.020635,0.008667,-0.002735,0.690987,-0.250718,-0.532931,-0.419120
62328,NaN,2.562528,-3.434325,-5.916037,0.267282,-7.295774,-9.580006,-4.017272,1.267741,-0.415012,-0.789551,0.277832,-0.511475,0.025180,-0.035577,-0.058615,0.999776,-0.020085,0.006338,-0.002075,0.687857,-0.261013,-0.520601,-0.433244
62329,NaN,2.423952,-3.636057,-5.673609,-0.301978,-7.153815,-9.700445,-3.759498,0.652115,-0.274990,-0.785645,0.292725,-0.511719,0.024005,-0.037452,-0.056117,0.999817,-0.018796,0.003260,-0.001375,0.683925,-0.271774,-0.510484,-0.444737
62330,NaN,1.902707,-3.597242,-5.218527,-0.767311,-6.568661,-10.043079,-3.570921,0.247462,-0.184819,-0.788330,0.312012,-0.497070,0.018929,-0.036914,-0.051555,0.999839,-0.017854,0.001237,-0.000924,0.678696,-0.283204,-0.501941,-0.455217
62331,NaN,1.218625,-3.536564,-4.504106,-1.276637,-5.680993,-10.423227,-3.318052,-0.046487,-0.117921,-0.790771,0.320557,-0.488525,0.012175,-0.036113,-0.044443,0.999862,-0.016589,-0.000232,-0.000590,0.673518,-0.294243,-0.494650,-0.463806
62332,NaN,0.414553,-3.183124,-3.781078,-1.470564,-4.614535,-10.881495,-2.990597,-0.252722,-0.093171,-0.789062,0.335449,-0.480225,0.004178,-0.032394,-0.037324,0.999887,-0.014952,-0.001264,-0.000466,0.667694,-0.304958,-0.488722,-0.471525
62333,NaN,0.127913,-2.718655,-2.895175,-1.499997,-3.545506,-10.796595,-2.446118,-0.545664,-0.119268,-0.791260,0.341797,-0.465576,0.001341,-0.027539,-0.028613,0.999921,-0.012230,-0.002728,-0.000596,0.662296,-0.314104,-0.484926,-0.477021
62334,NaN,0.442374,-2.135333,-2.372484,-1.182229,-2.962732,-10.269065,-1.664953,-0.930128,-0.178113,-0.795654,0.350342,-0.455078,0.004514,-0.021554,-0.023525,0.999954,-0.008325,-0.004651,-0.000891,0.656472,-0.321725,-0.484366,-0.480548
62335,NaN,1.403672,-1.488040,-1.482575,-0.833967,-2.248714,-9.018804,-0.844240,-1.290709,-0.317361,-0.799561,0.343994,-0.446533,0.014108,-0.014965,-0.014672,0.999969,-0.004221,-0.006453,-0.001587,0.651205,-0.326828,-0.487075,-0.481533
62336,NaN,2.760094,-1.646069,-0.501788,-1.243469,-1.809522,-7.412970,-0.023113,-1.801818,-0.501059,-0.807861,0.337402,-0.431641,0.027603,-0.016530,-0.004767,0.999956,-0.000116,-0.009009,-0.002505,0.645056,-0.330356,-0.493755,-0.480597
62337,NaN,3.936732,-3.268662,0.429014,-3.057113,-1.784986,-6.093359,1.077725,-2.618317,-0.637123,-0.826660,0.324463,-0.414551,0.039204,-0.032836,0.004627,0.999895,0.005388,-0.013091,-0.003186,0.638772,-0.331573,-0.505795,-0.475605
62338,NaN,7.784362,-3.364292,3.161855,-4.038203,-0.253619,-1.717397,1.938055,-3.678281,-0.755875,-0.843018,0.311768,-0.391113,0.077120,-0.034249,0.032711,0.999777,0.009690,-0.018390,-0.003779,0.630296,-0.332501,-0.523361,-0.467186
62339,NaN,16.863891,-2.010068,10.362814,-5.520924,4.968238,8.642329,2.041036,-4.338950,-0.771911,-0.857422,0.302979,-0.359375,0.166259,-0.021826,0.107036,0.999705,0.010204,-0.021693,-0.003859,0.620345,-0.334096,-0.542936,-0.456916
62340,NaN,30.385974,0.740117,17.175424,-6.243430,10.206701,22.982879,1.523595,-3.557102,-0.481150,-0.869873,0.296387,-0.338135,0.300755,0.005339,0.177168,0.999810,0.007617,-0.017784,-0.002406,0.611672,-0.336440,-0.558200,-0.448418
62341,NaN,38.688358,1.527355,24.039936,-8.750114,15.848061,32.012113,0.011195,-0.226369,-0.010051,-0.865723,0.296387,-0.344482,0.386612,0.015241,0.240838,0.999999,0.000056,-0.001132,-0.000050,0.611034,-0.336894,-0.558939,-0.448025
62342,NaN,31.797135,2.553199,21.843790,-6.355252,15.108555,25.200817,-2.732156,2.587826,0.065049,-0.851318,0.305176,-0.361328,0.320750,0.028579,0.213923,0.999823,-0.013660,0.012938,0.000325,0.613570,-0.339685,-0.544723,-0.459808
62343,NaN,20.377050,4.130436,10.927817,-0.077645,7.224662,12.535556,-3.742414,2.555598,-0.208539,-0.844971,0.311523,-0.365723,0.205182,0.043093,0.105867,0.999743,-0.018710,0.012777,-0.001043,0.613535,-0.344645,-0.528500,-0.474850
62344,NaN,14.363346,5.194580,1.620947,4.312969,-0.167879,4.927691,-2.366960,1.316389,-0.208648,-0.843262,0.322266,-0.376465,0.143788,0.051975,0.014648,0.999908,-0.011834,0.006582,-0.001043,0.612383,-0.348176,-0.519145,-0.483993
62345,NaN,10.447948,2.178933,1.362343,1.621355,-0.583870,0.807673,-1.105816,1.077654,0.006953,-0.839111,0.324463,-0.376465,0.104550,0.021866,0.012939,0.999970,-0.005529,0.005388,0.000035,0.613252,-0.348972,-0.513147,-0.488692
62346,NaN,4.675230,-2.548814,4.151464,-3.637893,2.010256,-4.491671,-0.794904,0.918145,0.034479,-0.839111,0.326660,-0.380615,0.046947,-0.025315,0.041400,0.999982,-0.003974,0.004591,0.000172,0.614242,-0.349250,-0.508310,-0.492293
62347,NaN,2.350990,-4.762297,4.119152,-5.716538,1.972773,-6.879580,-1.003685,0.290008,-0.045409,-0.841309,0.328857,-0.378662,0.023559,-0.047421,0.041396,0.999986,-0.005018,0.001450,-0.000227,0.613104,-0.351509,-0.505027,-0.495471
62348,NaN,4.075905,-3.405904,-0.414186,-3.182680,-2.276286,-6.196972,-1.012311,-0.858961,-0.041926,-0.843506,0.330811,-0.372314,0.040769,-0.034087,-0.003794,0.999978,-0.005062,-0.004295,-0.000210,0.609078,-0.356582,-0.505204,-0.496630
62349,NaN,8.749904,-1.931926,-1.124444,-1.620482,-3.606147,-1.693267,-0.356084,-1.789251,0.156353,-0.852051,0.330811,-0.351074,0.087610,-0.019270,-0.010427,0.999958,-0.001780,-0.008946,0.000782,0.604285,-0.362500,-0.509474,-0.493831
62350,NaN,13.690106,-2.195992,-4.143937,-1.137674,-7.415880,2.561239,1.515863,-2.514785,0.293591,-0.851807,0.328613,-0.338379,0.137441,-0.021452,-0.039877,0.999891,0.007579,-0.012573,0.001468,0.601344,-0.364806,-0.520229,-0.484422
62351,NaN,18.374758,-2.186019,-6.198761,-0.530702,-9.914498,6.986956,3.428702,-2.894552,0.497740,-0.862305,0.324219,-0.325684,0.184674,-0.020365,-0.059677,0.999745,0.017142,-0.014472,0.002488,0.601119,-0.362719,-0.536200,-0.468593
62352,NaN,14.235852,-1.417790,-9.079171,1.420020,-11.204901,2.816425,4.836227,-2.826241,0.760291,-0.864014,0.315674,-0.314941,0.143672,-0.011466,-0.089067,0.999601,0.024178,-0.014129,0.003801,0.603868,-0.356739,-0.554453,-0.447953
62353,NaN,10.801857,-6.190214,-10.786913,-1.830405,-13.701417,-0.855577,5.968216,-1.221185,0.489155,-0.872070,0.298584,-0.331787,0.108828,-0.058395,-0.108984,0.999533,0.029836,-0.006105,0.002445,0.611938,-0.342655,-0.570379,-0.427535
62354,NaN,7.691641,-8.649344,-6.367654,-5.192448,-10.384017,-3.511776,5.710348,-0.365919,-0.090707,-0.871582,0.277100,-0.337891,0.076997,-0.084666,-0.065971,0.999591,0.028548,-0.001829,-0.000453,0.620182,-0.325719,-0.583674,-0.410617
62355,NaN,3.494924,-4.522311,-5.407093,-1.470532,-7.286944,-7.237296,4.757194,-1.211009,-0.300346,-0.877441,0.262207,-0.331299,0.035213,-0.043976,-0.054914,0.999698,0.023784,-0.006054,-0.001502,0.623588,-0.312490,-0.597513,-0.395558
62356,NaN,2.067119,-3.267708,-12.028407,3.314744,-12.164460,-9.005673,3.762101,-1.655467,-0.173663,-0.883545,0.255615,-0.327148,0.021642,-0.030428,-0.120694,0.999788,0.018809,-0.008277,-0.000868,0.624004,-0.303648,-0.610321,-0.382001
62357,NaN,2.596173,-3.085711,-13.674914,4.706234,-13.371787,-8.299359,2.958909,-2.234595,0.000588,-0.889648,0.247070,-0.310059,0.027491,-0.028832,-0.136884,0.999828,0.014794,-0.011172,0.000003,0.621567,-0.298644,-0.622844,-0.369501
62358,NaN,2.830184,-2.435676,-11.512956,4.337084,-11.069635,-7.549027,2.981682,-2.914543,0.048347,-0.895752,0.240723,-0.293213,0.029984,-0.022634,-0.115047,0.999783,0.014907,-0.014572,0.000242,0.616744,-0.295199,-0.637282,-0.355467
62359,NaN,5.984066,-0.526526,-10.479384,5.318817,-9.082598,-3.888048,3.594279,-2.615138,-0.165631,-0.901611,0.227783,-0.280273,0.061201,-0.003441,-0.104072,0.999753,0.017970,-0.013075,-0.000828,0.613265,-0.288173,-0.651826,-0.340567
62360,NaN,8.157833,-0.957012,-8.543749,3.808442,-7.536161,-1.497454,4.697190,-2.850032,-0.101922,-0.911865,0.214844,-0.256836,0.082782,-0.007621,-0.084458,0.999623,0.023483,-0.014248,-0.000510,0.610093,-0.278670,-0.668550,-0.321202
62361,NaN,12.289756,1.947420,-7.241455,4.831397,-4.207413,3.078201,5.324340,-3.832449,0.420946,-0.915771,0.208252,-0.229248,0.124204,0.021611,-0.069486,0.999460,0.026617,-0.019159,0.002104,0.605042,-0.269852,-0.687847,-0.296599
62362,NaN,14.770486,4.537141,-6.327788,5.632754,-1.006518,5.871704,3.956668,-3.476734,0.597338,-0.921875,0.206055,-0.214600,0.148626,0.047020,-0.059780,0.999649,0.019781,-0.017382,0.002986,0.598796,-0.265580,-0.703266,-0.276274
62363,NaN,10.647686,5.450203,-4.096671,5.099366,1.598587,1.645390,2.915299,-2.013059,0.396725,-0.926025,0.199707,-0.199707,0.106767,0.055293,-0.039091,0.999841,0.014576,-0.010065,0.001984,0.596035,-0.260996,-0.712688,-0.262107
62364,NaN,9.967382,5.554855,-5.649892,6.259165,0.883781,1.240043,1.362102,-1.407918,0.430436,-0.932617,0.208252,-0.187012,0.099946,0.056143,-0.055415,0.999950,0.006810,-0.007039,0.002152,0.592979,-0.260939,-0.718145,-0.254076
62365,NaN,8.545652,4.222709,-2.478586,3.218891,2.181613,-0.764133,1.924230,-1.807104,0.824565,-0.928223,0.210205,-0.172119,0.085498,0.042810,-0.023603,0.999904,0.009621,-0.009035,0.004123,0.589984,-0.260476,-0.724809,-0.242328
62366,NaN,11.261433,6.054078,-2.985607,4.233509,3.741623,2.038654,1.057407,-2.096567,0.884546,-0.928467,0.216553,-0.166016,0.112647,0.061192,-0.028353,0.999921,0.005287,-0.010483,0.004423,0.584402,-0.263751,-0.731129,-0.233152
62367,NaN,10.554345,2.850094,-4.200419,3.053588,0.688722,1.472697,-0.263218,-1.278328,0.979657,-0.928711,0.225098,-0.146973,0.105668,0.028964,-0.041367,0.999967,-0.001316,-0.006392,0.004898,0.580496,-0.269594,-0.733248,-0.229545
62368,NaN,9.803726,3.596070,-2.949858,2.751555,2.101332,0.471220,-1.101056,-1.198975,1.127753,-0.928955,0.240234,-0.136475,0.098008,0.036352,-0.029110,0.999951,-0.005505,-0.005995,0.005639,0.575466,-0.278959,-0.733958,-0.228749
62369,NaN,8.645472,3.349705,-2.939172,2.807213,1.813112,-0.678385,-2.206055,-0.591627,1.088809,-0.931396,0.250732,-0.125977,0.086359,0.033642,-0.029507,0.999920,-0.011030,-0.002958,0.005444,0.571409,-0.289968,-0.731566,-0.232855
62370,NaN,7.479667,0.705338,-1.732062,0.362507,0.570899,-2.132506,-1.984203,-0.824784,1.176288,-0.927246,0.259277,-0.117676,0.074825,0.007323,-0.017084,0.999925,-0.009921,-0.004124,0.005881,0.566397,-0.301543,-0.729888,-0.235649
62371,NaN,7.829577,0.102785,0.476925,-1.623217,1.820295,-2.356783,-1.914111,-1.014721,1.268366,-0.923340,0.270020,-0.100830,0.078261,0.001572,0.005153,0.999921,-0.009570,-0.005073,0.006342,0.561248,-0.312776,-0.728543,-0.237480
62372,NaN,8.181755,-0.489269,0.273138,-1.947061,1.453966,-1.980112,-2.211422,-0.399937,0.995966,-0.919434,0.280762,-0.092529,0.081835,-0.004453,0.002946,0.999924,-0.011057,-0.002000,0.004980,0.557043,-0.323674,-0.725452,-0.242193
62373,NaN,9.263619,-1.753738,0.067803,-2.910419,0.756015,-0.876678,-1.437268,-0.257036,0.598538,-0.921631,0.282959,-0.088135,0.092687,-0.017254,0.000922,0.999969,-0.007186,-0.001285,0.002993,0.554483,-0.330161,-0.723443,-0.245301
62374,NaN,9.743861,-1.964514,-1.945913,-1.845255,-0.708135,0.121200,-0.122861,0.491792,-0.014323,-0.921875,0.287109,-0.103027,0.097389,-0.019664,-0.019687,0.999997,-0.000614,0.002459,-0.000072,0.555649,-0.330403,-0.721974,-0.246661
62375,NaN,9.447845,-2.263896,-3.228323,-1.115682,-1.978847,0.169559,1.813299,1.546991,-0.423411,-0.925781,0.274414,-0.117676,0.094176,-0.022540,-0.033217,0.999927,0.009066,0.007735,-0.002117,0.563657,-0.321918,-0.720565,-0.243814
62376,NaN,8.196232,-1.824028,-1.913579,-1.336335,-1.061317,-1.371486,4.011371,0.347863,-0.421275,-0.921387,0.270020,-0.132568,0.081890,-0.018022,-0.019641,0.999795,0.020055,0.001739,-0.002106,0.570381,-0.309158,-0.725037,-0.231102
62377,NaN,8.390197,-0.910834,-3.418261,0.411984,-1.385169,-0.822734,4.941464,-0.590108,-0.251449,-0.923340,0.265869,-0.134521,0.083992,-0.008370,-0.034148,0.999690,0.024705,-0.002950,-0.001257,0.575402,-0.294753,-0.732600,-0.212908
62378,NaN,8.863120,-2.718123,-2.988169,-1.083947,-2.257905,-0.400076,4.403521,-0.442106,-0.044459,-0.918945,0.257324,-0.143066,0.088692,-0.026537,-0.030275,0.999755,0.022016,-0.002210,-0.000222,0.579762,-0.282876,-0.738481,-0.196224
62379,NaN,8.589260,-2.176499,-2.509934,-0.926152,-1.564351,-0.784592,3.220716,-0.105988,-0.004399,-0.923096,0.252930,-0.145020,0.085906,-0.021359,-0.025400,0.999870,0.016103,-0.000530,-0.000022,0.583835,-0.273603,-0.741866,-0.184154
62380,NaN,8.350355,-0.210135,-3.379670,1.057014,-0.522378,-0.879385,2.352132,-0.481415,0.053012,-0.925049,0.248779,-0.142822,0.083585,-0.001683,-0.033617,0.999928,0.011760,-0.002407,0.000265,0.584978,-0.267906,-0.745348,-0.174595
62381,NaN,6.820991,0.356239,-3.203408,1.519240,-0.167311,-2.425035,1.823922,-1.174018,0.174967,-0.927246,0.252930,-0.143066,0.068393,0.003912,-0.031598,0.999941,0.009119,-0.005870,0.000875,0.583152,-0.264245,-0.750104,-0.165688
62382,NaN,7.365246,0.692630,-2.157831,0.741289,0.918928,-2.197755,1.625567,-1.580694,0.271771,-0.925049,0.248779,-0.124023,0.073810,0.007198,-0.020938,0.999935,0.008128,-0.007903,0.001359,0.579263,-0.262377,-0.755684,-0.156698
62383,NaN,8.399202,1.019119,-1.473460,0.105201,1.900613,-1.438274,1.058990,-1.646631,0.415890,-0.925049,0.255127,-0.106934,0.084088,0.010441,-0.013988,0.999950,0.005295,-0.008233,0.002079,0.574714,-0.262171,-0.760708,-0.149309
62384,NaN,9.370210,1.504119,-1.500895,0.119258,2.636604,-0.574290,0.482001,-1.444410,0.561977,-0.927246,0.261475,-0.102783,0.093764,0.015340,-0.014295,0.999967,0.002410,-0.007222,0.002810,0.569968,-0.264527,-0.764486,-0.143957
62385,NaN,10.088642,3.402915,-0.136334,-0.105889,5.193743,-0.517991,0.089599,-1.148450,0.625342,-0.923096,0.259277,-0.098633,0.100785,0.034345,-0.000769,0.999979,0.000448,-0.005742,0.003127,0.566121,-0.267495,-0.766988,-0.140295
62386,NaN,10.116251,4.905363,-0.049773,0.631454,6.580949,-0.719022,0.055903,-0.959535,0.605833,-0.927490,0.270020,-0.083984,0.101014,0.049360,0.000001,0.999984,0.000280,-0.004798,0.003029,0.562664,-0.270830,-0.768937,-0.137097
62387,NaN,10.571270,4.630509,-0.493403,0.674533,6.348851,-0.186046,0.429533,-1.022523,0.531790,-0.923340,0.274170,-0.079590,0.105612,0.046596,-0.004294,0.999981,0.002148,-0.005113,0.002659,0.559654,-0.272374,-0.771382,-0.132546
62388,NaN,11.113145,3.157501,-0.020518,-0.732168,5.647942,0.238929,0.532389,-1.144817,0.411879,-0.919189,0.274170,-0.067139,0.111065,0.031803,0.000515,0.999978,0.002662,-0.005724,0.002059,0.555977,-0.273668,-0.774375,-0.127822
62389,NaN,11.841366,2.021129,0.118889,-1.747975,5.103535,0.921058,0.380298,-1.288303,0.350703,-0.921143,0.276367,-0.058594,0.118367,0.020416,0.001990,0.999976,0.001901,-0.006441,0.001753,0.551705,-0.274798,-0.777709,-0.123592
62390,NaN,13.147610,1.422201,0.057664,-2.456397,5.085392,2.145068,0.194108,-1.285708,0.337840,-0.929688,0.276367,-0.045898,0.131444,0.014443,0.001436,0.999977,0.000971,-0.006428,0.001689,0.546956,-0.276732,-0.780907,-0.120179
62391,NaN,14.425728,1.021942,-0.423753,-2.725262,5.026594,3.477515,0.131649,-1.115646,0.339710,-0.919189,0.282715,-0.039551,0.144260,0.010467,-0.003426,0.999983,0.000658,-0.005578,0.001699,0.542962,-0.278377,-0.783562,-0.117174
62392,NaN,14.154901,1.092489,-0.363392,-2.748851,5.143320,3.136270,0.140020,-0.841466,0.309393,-0.919189,0.280518,-0.031250,0.141545,0.011146,-0.003031,0.999990,0.000700,-0.004207,0.001547,0.539865,-0.279991,-0.785498,-0.114647
62393,NaN,13.568146,1.861936,0.622749,-2.998081,6.144543,2.070261,0.185923,-0.680498,0.239824,-0.923340,0.280518,-0.026855,0.135637,0.018776,0.006706,0.999993,0.000930,-0.003402,0.001199,0.537571,-0.280832,-0.787109,-0.112299
62394,NaN,13.534119,2.758909,0.957579,-2.791450,7.090619,1.747217,-0.052603,-0.516802,0.190674,-0.915039,0.284668,-0.022705,0.135289,0.027721,0.009918,0.999996,-0.000263,-0.002584,0.000953,0.535444,-0.282216,-0.788206,-0.111291
62395,NaN,13.121555,2.805221,0.952058,-2.674808,7.032599,1.338040,-0.321724,-0.316011,0.135866,-0.916992,0.284668,-0.018555,0.131181,0.028157,0.009683,0.999997,-0.001609,-0.001580,0.000679,0.533803,-0.283800,-0.788687,-0.111732
62396,NaN,13.590132,3.413648,1.718432,-3.063852,8.072166,1.356494,-0.106177,-0.171135,0.019996,-0.919189,0.284668,-0.022705,0.135883,0.034159,0.017282,0.999999,-0.000531,-0.000856,0.000100,0.532912,-0.284372,-0.789063,-0.111879
62397,NaN,13.120899,3.634590,1.537527,-2.716552,8.035626,0.947445,0.147254,-0.712553,-0.047847,-0.921143,0.278320,-0.016357,0.131162,0.036303,0.015869,0.999993,0.000736,-0.003563,-0.000239,0.530264,-0.284200,-0.791115,-0.110395
62398,NaN,13.487560,2.069287,-1.489810,-1.448285,5.487443,2.685508,0.021293,-0.910903,-0.091153,-0.916992,0.280518,-0.005859,0.134951,0.020633,-0.014281,0.999990,0.000106,-0.004555,-0.000456,0.526609,-0.284298,-0.793671,-0.109287
62399,NaN,13.964702,0.643045,0.704067,-4.188207,5.572460,2.325174,-0.317458,-0.816796,-0.094261,-0.916504,0.271973,0.002686,0.139620,0.006376,0.007601,0.999990,-0.001587,-0.004084,-0.000471,0.522844,-0.285217,-0.795783,-0.109616
62400,NaN,15.205712,1.160832,3.116832,-6.168705,7.613306,2.281098,-1.180559,-0.614368,0.135837,-0.914307,0.271729,0.011230,0.151953,0.011897,0.031566,0.999978,-0.005903,-0.003072,0.000679,0.518793,-0.289115,-0.796539,-0.113104
62401,NaN,15.532327,0.880251,2.755534,-6.158818,7.391727,2.719352,-2.289957,-0.332637,-0.074028,-0.916504,0.269775,0.015381,0.155281,0.009062,0.027711,0.999933,-0.011450,-0.001663,-0.000370,0.514066,-0.294942,-0.796168,-0.121911
62402,NaN,17.648907,1.936950,0.476836,-4.516155,7.778559,5.502610,0.288495,0.008353,-1.076352,-0.918213,0.256836,0.000732,0.176590,0.018412,0.004788,0.999984,0.001442,0.000042,-0.005382,0.513954,-0.289721,-0.797905,-0.123534
62403,NaN,21.747872,6.641582,12.205748,-11.972754,18.343191,3.831748,4.399975,2.965982,-0.924487,-0.918213,0.250488,-0.035156,0.219567,0.062746,0.120219,0.999637,0.021997,0.014828,-0.004622,0.531386,-0.272804,-0.794059,-0.112593
62404,NaN,16.506239,5.983630,16.080244,-13.892479,17.572619,-1.751283,-0.041207,3.262902,-0.413190,-0.920410,0.248535,-0.056152,0.167779,0.059524,0.158068,0.999865,-0.000206,0.016314,-0.002066,0.544175,-0.269025,-0.785822,-0.118250
62405,NaN,16.911581,2.828724,2.635052,-4.787381,8.515710,4.522388,-2.486763,2.102515,0.139890,-0.914307,0.252930,-0.075439,0.169358,0.028716,0.024216,0.999867,-0.012433,0.010512,0.000699,0.549086,-0.275074,-0.778348,-0.130436
62406,NaN,15.636097,1.560030,-7.596187,3.291152,1.686906,7.243261,0.105828,4.017195,0.073409,-0.912109,0.248779,-0.124023,0.154788,0.015699,-0.079073,0.999798,0.000529,0.020085,0.000367,0.565116,-0.271833,-0.767115,-0.135224
62407,NaN,16.033126,3.364796,-10.466990,7.300033,1.339574,8.152294,1.592847,6.287377,0.124171,-0.901611,0.242432,-0.183105,0.156921,0.034605,-0.109366,0.999474,0.007963,0.031431,0.000621,0.591166,-0.263428,-0.749866,-0.137222
62408,NaN,11.357262,-2.006580,-15.717125,10.265099,-7.262906,5.080875,2.123971,5.297614,-0.039301,-0.901855,0.240479,-0.221191,0.109350,-0.018396,-0.160307,0.999593,0.010618,0.026484,-0.000196,0.613809,-0.252761,-0.735383,-0.136243
62409,NaN,15.355735,-11.891900,-22.718586,11.376149,-18.312672,10.885213,4.289108,2.702057,-0.500719,-0.892822,0.221191,-0.246338,0.150157,-0.114361,-0.231715,0.999676,0.021443,0.013509,-0.002503,0.628610,-0.235848,-0.730417,-0.125365
62410,NaN,12.393423,-13.885000,-11.662207,2.460670,-15.230234,5.815673,5.573359,2.492043,-0.695154,-0.887939,0.197754,-0.282227,0.121961,-0.135927,-0.121965,0.999528,0.027862,0.012458,-0.003475,0.643656,-0.213837,-0.726540,-0.110096
62411,NaN,10.611362,-9.235042,-1.130633,-3.844770,-7.005460,1.818707,3.994836,0.575091,-1.248661,-0.895752,0.176270,-0.280029,0.105499,-0.092756,-0.013460,0.999777,0.019973,0.002875,-0.006243,0.649172,-0.196092,-0.728071,-0.100178
62412,NaN,12.042273,-4.945149,-2.375842,-0.991385,-3.638969,2.871247,0.714645,-1.667422,-2.294752,-0.899414,0.156982,-0.258545,0.120039,-0.050747,-0.022936,0.999893,0.003573,-0.008337,-0.011473,0.642665,-0.186028,-0.735998,-0.103350
62413,NaN,15.832474,4.236089,-8.516247,7.545832,2.554982,6.849552,-1.586458,-1.971943,-2.840280,-0.896729,0.137695,-0.258545,0.159730,0.039430,-0.083913,0.999819,-0.007932,-0.009859,-0.014201,0.632337,-0.181670,-0.744034,-0.116447
62414,NaN,15.692421,5.341209,-13.551263,12.315354,0.898316,7.676892,-2.723006,1.425675,-2.345741,-0.894043,0.120605,-0.269043,0.156547,0.049713,-0.137323,0.999813,-0.013614,0.007128,-0.011728,0.633738,-0.180531,-0.739922,-0.135275
62415,NaN,17.715474,5.759468,0.967754,-0.488979,6.960141,7.485051,-1.791222,3.006135,-2.523966,-0.885498,0.105713,-0.309082,0.177977,0.055420,0.006504,0.999767,-0.008955,0.015030,-0.012619,0.641376,-0.174805,-0.731303,-0.152566
62416,NaN,14.061494,0.604321,10.379385,-10.085786,5.947589,3.171936,-6.150835,6.568385,-2.353639,-0.864258,0.101562,-0.349365,0.143999,0.007454,0.098886,0.998919,-0.030743,0.032830,-0.011764,0.657537,-0.180600,-0.706816,-0.188255
62417,NaN,4.507244,-4.312167,-3.805293,0.703884,-5.723932,-5.327344,-5.460926,4.215293,-2.120863,-0.853760,0.101562,-0.372559,0.043806,-0.044625,-0.037780,0.999349,-0.027299,0.021072,-0.010602,0.665066,-0.186984,-0.689287,-0.218190
62418,NaN,8.187828,1.298886,-7.357779,6.469138,-3.482109,-1.514194,-3.919921,2.509961,-2.022031,-0.841064,0.103760,-0.395752,0.081060,0.010708,-0.074823,0.999678,-0.019598,0.012548,-0.010109,0.667696,-0.190090,-0.678307,-0.240724
62419,NaN,6.293550,0.834689,-5.702330,4.897732,-3.252763,-3.629366,-4.608375,3.559390,-1.762732,-0.830566,0.105957,-0.412842,0.061968,0.006464,-0.058295,0.999537,-0.023038,0.017794,-0.008812,0.672947,-0.195136,-0.662253,-0.265492
62420,NaN,5.408798,-0.727613,-3.856090,2.468932,-3.592245,-4.748341,-3.510297,2.692163,-1.635166,-0.817871,0.104004,-0.440430,0.053498,-0.008399,-0.039143,0.999722,-0.017550,0.013460,-0.008175,0.676082,-0.197818,-0.649935,-0.285245
62421,NaN,6.608582,-0.304239,-3.789648,2.645252,-3.625171,-3.649793,-3.505884,2.525062,-1.304319,-0.803223,0.104004,-0.457275,0.065576,-0.004144,-0.038660,0.999745,-0.017528,0.012624,-0.006521,0.678780,-0.201791,-0.637537,-0.303456
62422,NaN,7.299441,1.153069,-4.485795,4.127128,-3.401910,-3.021680,-3.322022,2.563328,-1.219494,-0.792969,0.112549,-0.474365,0.072475,0.010330,-0.045967,0.999761,-0.016609,0.012816,-0.006097,0.681558,-0.205198,-0.624874,-0.320788
62423,NaN,6.092519,1.975761,-5.787880,5.608590,-3.820215,-4.478263,-3.930812,3.142351,-1.167613,-0.771973,0.121094,-0.487061,0.060111,0.018250,-0.059196,0.999666,-0.019652,0.015710,-0.005837,0.685235,-0.209849,-0.608864,-0.340149
62424,NaN,5.067844,1.458587,-6.399954,5.572421,-4.710811,-5.873765,-3.853427,2.488779,-0.674396,-0.768066,0.132080,-0.501953,0.049921,0.013172,-0.064887,0.999731,-0.019265,0.012443,-0.003372,0.687351,-0.216719,-0.594344,-0.356843
62425,NaN,5.205554,0.781456,-6.907716,5.297812,-5.817443,-6.137729,-3.714769,2.172686,-0.547824,-0.747314,0.142822,-0.512695,0.051319,0.006382,-0.069765,0.999765,-0.018572,0.010863,-0.002739,0.688637,-0.223943,-0.580715,-0.372020
62426,NaN,4.282907,-0.679257,-6.025572,3.421660,-6.044549,-7.193155,-3.495095,1.940798,-0.459621,-0.741455,0.162109,-0.525635,0.042225,-0.007946,-0.060535,0.999798,-0.017474,0.009703,-0.002298,0.689209,-0.231056,-0.567967,-0.386029
62427,NaN,3.651963,-1.913195,-4.398450,1.268614,-5.489496,-7.668765,-3.728876,1.595338,-0.379536,-0.727051,0.177002,-0.525879,0.036132,-0.020020,-0.043906,0.999793,-0.018643,0.007976,-0.001898,0.688550,-0.239714,-0.555605,-0.399674
62428,NaN,3.475580,-2.395097,-4.905304,0.974307,-6.168098,-8.115824,-3.921138,1.448585,-0.303011,-0.718994,0.194092,-0.525879,0.034364,-0.024962,-0.048820,0.999780,-0.019604,0.007242,-0.001515,0.686922,-0.249532,-0.543077,-0.413447
62429,NaN,3.462377,-2.196395,-5.143151,1.064826,-6.300361,-8.253376,-3.985757,1.198610,-0.239986,-0.713135,0.211426,-0.530273,0.034289,-0.023027,-0.051186,0.999783,-0.019927,0.005993,-0.001200,0.684554,-0.260051,-0.530914,-0.426485
62430,NaN,3.022391,-3.657149,-5.374698,-0.339667,-7.107007,-8.937019,-3.922335,0.983338,-0.165894,-0.709473,0.226318,-0.530518,0.029931,-0.037643,-0.053163,0.999795,-0.019610,0.004916,-0.000829,0.681346,-0.271026,-0.519358,-0.438838
62431,NaN,2.600655,-3.723439,-4.939225,-0.873989,-6.626856,-9.229834,-3.886790,0.704253,-0.045674,-0.707764,0.243408,-0.528564,0.025825,-0.038192,-0.048747,0.999805,-0.019433,0.003521,-0.000228,0.677671,-0.282564,-0.508404,-0.449940
62432,NaN,2.130569,-3.493066,-4.350167,-1.177084,-5.844117,-9.463078,-3.684880,0.433308,0.047517,-0.701904,0.260498,-0.522217,0.021221,-0.035720,-0.042894,0.999828,-0.018423,0.002166,0.000238,0.673317,-0.294317,-0.498570,-0.459837
62433,NaN,1.526885,-2.392462,-3.960942,-0.550998,-4.841346,-9.822003,-3.403087,0.191755,0.094815,-0.695801,0.269043,-0.516113,0.015243,-0.024587,-0.039209,0.999855,-0.017015,0.000959,0.000474,0.668904,-0.305540,-0.489900,-0.468200
62434,NaN,1.127141,-1.835834,-3.204830,-0.478803,-3.830633,-9.900417,-2.892157,-0.180679,0.014118,-0.696289,0.290527,-0.507812,0.011302,-0.018818,-0.031768,0.999895,-0.014460,-0.000903,0.000071,0.663758,-0.315828,-0.483748,-0.475042
62435,NaN,1.076012,-1.817494,-2.709123,-0.722966,-3.357724,-9.758460,-2.160852,-0.673899,-0.089453,-0.702881,0.292725,-0.497314,0.010843,-0.018471,-0.026856,0.999936,-0.010804,-0.003369,-0.000447,0.658458,-0.324378,-0.480974,-0.479455
62436,NaN,1.848225,-2.244150,-1.797075,-1.417762,-2.910017,-8.715842,-1.337548,-1.132431,-0.282266,-0.707031,0.292725,-0.488770,0.018551,-0.022587,-0.017715,0.999961,-0.006688,-0.005662,-0.001411,0.652611,-0.331008,-0.482027,-0.481854
62437,NaN,3.554120,-1.705008,-0.837534,-1.126341,-2.366904,-6.751804,-0.548613,-1.565679,-0.575462,-0.717285,0.286133,-0.484375,0.035556,-0.017175,-0.008050,0.999961,-0.002743,-0.007828,-0.002877,0.646514,-0.335185,-0.486759,-0.482428
62438,NaN,5.134290,-3.065087,-0.589248,-2.457724,-2.965782,-5.201216,0.294658,-2.101067,-0.825227,-0.721191,0.275391,-0.467285,0.051274,-0.030854,-0.005399,0.999935,0.001473,-0.010505,-0.004126,0.639618,-0.337482,-0.495709,-0.480903
62439,NaN,6.009120,-5.799886,0.241095,-5.351846,-3.214573,-4.260296,1.151301,-2.920137,-0.897166,-0.744141,0.258301,-0.450195,0.059790,-0.058283,0.002950,0.999867,0.005756,-0.014600,-0.004486,0.632077,-0.338568,-0.509274,-0.475911
62440,NaN,11.636386,-5.668137,3.903232,-6.423196,-1.070167,2.034324,1.655572,-3.643506,-0.798705,-0.760498,0.247559,-0.428955,0.115404,-0.057476,0.040667,0.999792,0.008277,-0.018216,-0.003993,0.623361,-0.340118,-0.526070,-0.467965
62441,NaN,20.870719,-1.421535,11.644324,-5.355433,5.834284,12.779544,1.609816,-3.692374,-0.489745,-0.772949,0.236572,-0.405518,0.206475,-0.015680,0.120147,0.999794,0.008049,-0.018461,-0.002449,0.615108,-0.342397,-0.542079,-0.458865
62442,NaN,29.304108,0.271085,17.986154,-6.549720,11.251281,22.011338,0.988078,-2.102358,-0.086657,-0.772705,0.234375,-0.395020,0.291130,0.001686,0.182939,0.999932,0.004940,-0.010512,-0.000433,0.610727,-0.344101,-0.551006,-0.452769
62443,NaN,29.985090,0.382100,20.215452,-7.401734,13.436565,22.937664,-0.114223,0.533758,0.185058,-0.766602,0.234619,-0.405518,0.300385,0.004214,0.201351,0.999996,-0.000571,0.002669,0.000925,0.612412,-0.343766,-0.548807,-0.453418
62444,NaN,22.990660,0.442746,17.177734,-5.895097,11.683281,15.732626,-1.409105,1.726442,0.104873,-0.758301,0.243164,-0.414062,0.231375,0.005749,0.169747,0.999938,-0.007045,0.008632,0.000524,0.614911,-0.344510,-0.540158,-0.459811
62445,NaN,16.570791,2.145312,9.704412,-1.330300,6.341464,8.390984,-2.127714,1.466214,-0.124704,-0.754150,0.247559,-0.422607,0.166426,0.022372,0.095591,0.999916,-0.010638,0.007331,-0.000624,0.614863,-0.347331,-0.530939,-0.468411
62446,NaN,12.899546,3.135501,2.413916,2.160903,0.501393,3.496495,-1.211164,0.701225,-0.218139,-0.751953,0.243164,-0.422607,0.129113,0.031358,0.023497,0.999975,-0.006056,0.003506,-0.001091,0.614150,-0.348837,-0.526331,-0.473401
62447,NaN,10.292343,2.205163,2.013300,1.440063,0.306203,0.802419,-0.504196,0.562404,-0.156632,-0.747803,0.249512,-0.424805,0.102997,0.022021,0.019788,0.999993,-0.002521,0.002812,-0.000783,0.614371,-0.348655,-0.523690,-0.476169
62448,NaN,6.966099,-1.053717,3.493464,-2.095914,1.369405,-2.357965,-0.325682,0.556367,-0.124321,-0.743652,0.247559,-0.428955,0.069751,-0.010524,0.034758,0.999995,-0.001628,0.002782,-0.000622,0.614997,-0.348022,-0.521438,-0.478291
62449,NaN,4.111107,-4.500081,3.742799,-5.437238,1.197858,-5.322472,-0.382227,0.157995,-0.094168,-0.741455,0.247314,-0.416260,0.041119,-0.044949,0.037481,0.999998,-0.001911,0.000790,-0.000471,0.614513,-0.348589,-0.520211,-0.479834
62450,NaN,5.760548,-5.429965,1.765000,-5.725724,-1.247840,-4.205349,-0.279711,-0.904668,0.020661,-0.743652,0.249512,-0.416260,0.057530,-0.054269,0.017986,0.999989,-0.001399,-0.004523,0.000103,0.611794,-0.351667,-0.522291,-0.478801
62451,NaN,9.815284,-3.832161,-2.652109,-2.904299,-5.658718,-1.003607,0.065434,-1.839779,0.278663,-0.756104,0.245117,-0.397217,0.098445,-0.038176,-0.025629,0.999957,0.000327,-0.009199,0.001393,0.607740,-0.356600,-0.527573,-0.474505
62452,NaN,14.244104,-3.683347,-5.981950,-1.764756,-9.370731,2.887958,1.483577,-2.678811,0.541123,-0.758057,0.240967,-0.386719,0.143326,-0.036011,-0.058173,0.999879,0.007418,-0.013394,0.002706,0.604638,-0.359832,-0.538227,-0.463947
62453,NaN,19.027136,-3.910609,-6.697219,-1.694164,-10.542569,7.741040,3.056752,-2.907440,0.608967,-0.768311,0.232178,-0.367432,0.191340,-0.037523,-0.064777,0.999773,0.015283,-0.014536,0.003045,0.603583,-0.358908,-0.552898,-0.448526
62454,NaN,17.878832,-0.667431,-5.931462,1.260356,-8.049709,7.183275,4.387927,-2.813265,0.500526,-0.767822,0.219482,-0.354736,0.179614,-0.004959,-0.056913,0.999657,0.021937,-0.014065,0.002502,0.604683,-0.353277,-0.570184,-0.429470
62455,NaN,13.587352,-0.879401,-2.610121,-0.037248,-4.182204,3.404860,5.466720,-2.001031,0.095864,-0.780029,0.195801,-0.352295,0.136131,-0.008036,-0.024967,0.999576,0.027330,-0.010004,0.000479,0.608578,-0.341186,-0.587569,-0.409864
62456,NaN,8.236565,-3.018796,-2.038615,-1.990150,-3.965489,-1.975404,5.205530,-0.658064,-0.462921,-0.777344,0.180908,-0.360840,0.082365,-0.029839,-0.020895,0.999653,0.026025,-0.003290,-0.002314,0.614425,-0.325288,-0.600874,-0.394488
62457,NaN,4.113414,-2.545644,-4.498653,-0.079482,-5.535774,-6.209568,5.027656,-0.040580,-0.560451,-0.776855,0.159424,-0.362793,0.041074,-0.024430,-0.045601,0.999680,0.025136,-0.000203,-0.002802,0.621170,-0.308152,-0.611644,-0.380896
62458,NaN,-0.727758,-1.356234,-12.672151,5.779538,-11.268746,-11.406178,4.319627,-0.077594,-0.348514,-0.780518,0.146484,-0.354248,-0.007249,-0.010809,-0.126978,0.999765,0.021596,-0.000388,-0.001742,0.626837,-0.293834,-0.620554,-0.368307
62459,NaN,-1.530569,-2.180793,-14.120300,6.436355,-12.622198,-12.201301,3.791364,-1.629675,-0.191154,-0.788574,0.133545,-0.343506,-0.014171,-0.019111,-0.141701,0.999787,0.018955,-0.008148,-0.000956,0.626857,-0.284313,-0.632802,-0.354653
62460,NaN,1.149464,0.067633,-11.446097,6.875321,-9.179755,-8.926368,2.755560,-2.560414,-0.093335,-0.794678,0.122803,-0.326416,0.012959,0.002246,-0.114278,0.999823,0.013777,-0.012801,-0.000467,0.622368,-0.280049,-0.645810,-0.342285
62461,NaN,5.586138,3.592039,-11.460357,9.494268,-7.034021,-3.829105,3.025060,-2.966852,-0.266237,-0.802734,0.107666,-0.307129,0.057597,0.037564,-0.113198,0.999775,0.015124,-0.014833,-0.001331,0.616420,-0.274807,-0.660457,-0.329098
62462,NaN,8.207520,2.832813,-8.775212,7.004806,-5.123075,-1.034435,3.934369,-2.614113,-0.460050,-0.810547,0.094971,-0.290283,0.083275,0.029842,-0.086092,0.999718,0.019670,-0.013069,-0.002300,0.612147,-0.265649,-0.675528,-0.313638
62463,NaN,10.960771,1.667676,-5.456384,3.594256,-3.007000,1.620031,5.460132,-3.036227,-0.133460,-0.814209,0.075439,-0.264648,0.110426,0.018054,-0.052411,0.999512,0.027296,-0.015179,-0.000667,0.608626,-0.253136,-0.693239,-0.291404
62464,NaN,16.921539,5.846397,-1.187699,2.483447,3.512196,7.604947,5.068300,-2.910863,0.127964,-0.824707,0.073242,-0.245605,0.169312,0.058807,-0.007926,0.999573,0.025338,-0.014552,0.000640,0.604719,-0.242604,-0.709119,-0.269460
62465,NaN,14.390291,1.281939,-4.430840,1.872206,-1.665783,5.089352,2.519154,-1.232306,0.168117,-0.824463,0.064697,-0.243408,0.144160,0.013490,-0.043254,0.999901,0.012595,-0.006161,0.000841,0.603560,-0.237235,-0.715976,-0.258481
62466,NaN,8.517464,-0.513934,-1.654919,-0.475091,-1.160649,-1.211788,2.529542,-1.439038,0.599193,-0.826904,0.077637,-0.224365,0.085306,-0.004679,-0.015997,0.999890,0.012647,-0.007195,0.002996,0.601949,-0.233899,-0.722891,-0.245719
62467,NaN,8.573967,2.916338,-2.663644,2.411765,0.999338,-0.741037,0.917966,-1.462438,0.892673,-0.835205,0.075439,-0.218018,0.085799,0.029666,-0.025874,0.999953,0.004590,-0.007312,0.004463,0.598792,-0.236164,-0.727353,-0.237975
62468,NaN,9.108113,4.571205,-6.041673,5.872061,0.341432,0.471104,-0.344386,-1.337144,0.941293,-0.826904,0.083984,-0.201172,0.091267,0.046038,-0.059886,0.999965,-0.001722,-0.006686,0.004706,0.594446,-0.242518,-0.729898,-0.234665
62469,NaN,10.453285,2.679799,-3.383157,2.378695,0.814557,1.213336,0.117465,-1.583328,0.975400,-0.831543,0.094482,-0.188721,0.104664,0.027328,-0.032987,0.999957,0.000587,-0.007917,0.004877,0.589916,-0.247592,-0.733538,-0.229389
62470,NaN,10.450706,1.487928,-3.249234,1.474228,0.140045,1.132380,-0.939255,-1.051127,0.994521,-0.833740,0.098877,-0.182373,0.104601,0.015248,-0.032014,0.999963,-0.004696,-0.005256,0.004973,0.585808,-0.255540,-0.734391,-0.228469
62471,NaN,7.842662,-0.647664,-2.451710,-0.041043,-1.157383,-1.652077,-1.145200,-0.917846,1.145599,-0.833984,0.111572,-0.176025,0.078574,-0.006166,-0.024121,0.999957,-0.005726,-0.004589,0.005728,0.582244,-0.264154,-0.734287,-0.228117
62472,NaN,8.344785,2.151079,-2.287872,1.570021,1.216960,-1.120706,-1.779077,-0.903862,1.219249,-0.834473,0.124512,-0.171875,0.083418,0.021817,-0.022695,0.999932,-0.008895,-0.004519,0.006096,0.577708,-0.275153,-0.733313,-0.229772
62473,NaN,8.306536,1.681156,-2.017861,1.082310,1.098013,-1.238345,-2.155213,-0.708213,1.058446,-0.832520,0.135254,-0.161377,0.083047,0.017034,-0.020067,0.999922,-0.010776,-0.003541,0.005292,0.573304,-0.286068,-0.731380,-0.233605
62474,NaN,7.372470,1.497476,-1.433909,0.725116,1.270923,-2.295339,-1.387243,-0.685359,0.942149,-0.832520,0.137207,-0.157227,0.073702,0.015223,-0.014192,0.999959,-0.006936,-0.003427,0.004711,0.569661,-0.294602,-0.730428,-0.234886
62475,NaN,8.718083,0.635912,-2.804172,0.840401,-0.011435,-0.671231,-1.516944,-0.424621,0.737073,-0.834961,0.143799,-0.146729,0.087216,0.006469,-0.027905,0.999962,-0.007585,-0.002123,0.003685,0.566706,-0.302119,-0.728753,-0.237672
62476,NaN,9.141995,-1.177347,-2.742964,-0.584163,-1.114109,-0.278378,-0.695140,-0.682191,0.499031,-0.832764,0.147949,-0.136230,0.091542,-0.011640,-0.027077,0.999985,-0.003476,-0.003411,0.002495,0.563521,-0.307028,-0.729173,-0.237665
62477,NaN,9.674844,-3.133476,-0.783334,-3.431028,-0.961264,-0.255566,0.635382,-0.801048,0.200622,-0.828613,0.152344,-0.136230,0.096810,-0.031213,-0.007545,0.999986,0.003177,-0.004005,0.001003,0.561792,-0.306935,-0.731877,-0.233529
62478,NaN,10.247330,-2.516429,-0.117896,-3.573346,0.083796,0.115967,0.827648,-0.529172,-0.044409,-0.830566,0.147949,-0.134033,0.102471,-0.025183,-0.001012,0.999988,0.004138,-0.002646,-0.000222,0.560853,-0.305363,-0.734465,-0.229694
62479,NaN,9.009770,-1.032332,-0.413203,-2.111600,0.697026,-1.011116,1.426357,-0.051321,-0.299169,-0.834717,0.139404,-0.144531,0.090083,-0.010428,-0.004183,0.999973,0.007132,-0.000257,-0.001496,0.562469,-0.300333,-0.736694,-0.225189
62480,NaN,7.062224,0.722362,-2.094284,0.638719,0.481271,-2.454492,2.756101,-0.112572,-0.228268,-0.836670,0.139404,-0.135986,0.070642,0.007430,-0.020802,0.999904,0.013780,-0.000563,-0.001141,0.565700,-0.292118,-0.740456,-0.215349
62481,NaN,7.729729,0.371398,-3.332114,1.186897,-0.378948,-1.479848,3.758254,-0.172691,-0.178448,-0.834473,0.130859,-0.135986,0.077330,0.004269,-0.033178,0.999823,0.018790,-0.000863,-0.000892,0.570242,-0.280979,-0.745131,-0.201629
62482,NaN,8.663076,-0.720548,-3.984562,0.851959,-1.347358,-0.383878,3.214845,0.068939,-0.166300,-0.832031,0.124512,-0.140137,0.086611,-0.006635,-0.039985,0.999870,0.016074,0.000345,-0.000831,0.574596,-0.271371,-0.748381,-0.190063
62483,NaN,8.514192,-0.965627,-4.471674,1.179083,-1.787712,-0.387572,2.296557,-0.077999,-0.061790,-0.836182,0.115967,-0.142334,0.085156,-0.009169,-0.044791,0.999934,0.011483,-0.000390,-0.000309,0.577307,-0.264615,-0.750833,-0.181507
62484,NaN,7.984080,-0.935833,-3.025506,0.220756,-0.947590,-1.278767,1.833612,-0.719013,0.136633,-0.836182,0.122314,-0.135986,0.079955,-0.009028,-0.030052,0.999951,0.009168,-0.003595,0.000683,0.576949,-0.260769,-0.754423,-0.173134
62485,NaN,8.212464,-0.370495,-1.011443,-1.088617,0.772493,-1.638220,1.540092,-1.350052,0.341259,-0.838135,0.115723,-0.121094,0.082197,-0.003490,-0.009587,0.999946,0.007700,-0.006750,0.001706,0.574111,-0.258785,-0.759177,-0.164549
62486,NaN,9.281769,0.565433,-0.952408,-0.883130,1.896215,-0.702216,1.162841,-1.408370,0.429086,-0.836182,0.122070,-0.108398,0.092869,0.005906,-0.008836,0.999956,0.005814,-0.007042,0.002145,0.570424,-0.258508,-0.763650,-0.156932
62487,NaN,8.980282,1.149181,-1.673698,0.019112,2.034403,-0.833434,0.904610,-1.053861,0.460327,-0.836182,0.126465,-0.106445,0.089862,0.011773,-0.016211,0.999973,0.004523,-0.005269,0.002302,0.567897,-0.258523,-0.766762,-0.150777
62488,NaN,9.206970,1.567252,-2.637832,0.916648,2.039465,-0.369084,0.953065,-1.028396,0.473645,-0.831787,0.122070,-0.089355,0.092166,0.016015,-0.025829,0.999973,0.004765,-0.005142,0.002368,0.565365,-0.258668,-0.769824,-0.144307
62489,NaN,10.070325,2.218710,-2.018895,0.528958,3.222091,0.174625,0.950636,-1.169085,0.466113,-0.836426,0.130615,-0.085205,0.100766,0.022516,-0.019494,0.999969,0.004753,-0.005845,0.002331,0.562394,-0.258627,-0.773200,-0.137792
62490,NaN,10.829759,2.901545,-1.155513,-0.046532,4.543853,0.501701,0.852737,-1.265863,0.450740,-0.832031,0.132812,-0.072510,0.108301,0.029306,-0.010745,0.999968,0.004264,-0.006329,0.002254,0.558736,-0.259089,-0.776790,-0.131465
62491,NaN,11.129358,2.857620,-0.299867,-0.926741,5.131779,0.430461,0.775669,-1.265435,0.433324,-0.836182,0.130615,-0.068359,0.111247,0.028827,-0.002183,0.999970,0.003878,-0.006327,0.002167,0.555074,-0.259447,-0.780263,-0.125577
62492,NaN,11.702038,2.176379,0.404137,-2.107152,5.177967,0.703195,0.745954,-1.266942,0.404559,-0.834229,0.136963,-0.053711,0.116947,0.021983,0.004864,0.999971,0.003730,-0.006335,0.002023,0.551193,-0.259965,-0.783744,-0.119794
62493,NaN,12.839661,1.712657,0.859909,-3.124501,5.433440,1.555777,0.715829,-1.275341,0.383685,-0.830078,0.139160,-0.045166,0.128305,0.017340,0.009479,0.999971,0.003579,-0.006377,0.001918,0.547319,-0.260270,-0.787178,-0.114248
62494,NaN,13.713175,1.896337,0.873446,-3.382981,5.961856,2.246296,0.730348,-1.191513,0.373151,-0.827881,0.139160,-0.036621,0.137041,0.019185,0.009621,0.999974,0.003652,-0.005958,0.001866,0.543664,-0.260588,-0.790384,-0.108703
62495,NaN,13.458842,2.481562,0.755631,-3.016782,6.433646,1.908000,0.754767,-1.041267,0.342961,-0.830078,0.139160,-0.034668,0.134504,0.025016,0.008351,0.999978,0.003774,-0.005206,0.001715,0.540686,-0.260469,-0.793172,-0.103407
62496,NaN,13.187062,3.142661,0.277864,-2.304437,6.792714,1.693795,0.689418,-0.855906,0.273764,-0.827881,0.143311,-0.024170,0.131814,0.031596,0.003452,0.999984,0.003447,-0.004280,0.001369,0.538243,-0.260251,-0.795498,-0.098730
62497,NaN,13.151601,3.753392,0.075903,-1.891784,7.288263,1.604827,0.549543,-0.665094,0.246642,-0.823730,0.143311,-0.017822,0.131466,0.037693,0.001300,0.999990,0.002748,-0.003325,0.001233,0.536407,-0.260096,-0.797242,-0.094992
62498,NaN,13.389671,4.191075,0.413829,-2.078234,7.953698,1.564395,0.522763,-0.720713,0.260003,-0.823730,0.145508,-0.007324,0.133826,0.042073,0.004730,0.999989,0.002614,-0.003604,0.001300,0.534280,-0.260142,-0.799095,-0.091207
62499,NaN,13.156055,4.113922,0.870195,-2.510613,8.087305,1.098472,0.778782,-0.988483,0.254989,-0.823486,0.141113,0.003418,0.131462,0.041271,0.009512,0.999979,0.003894,-0.004942,0.001275,0.531426,-0.259543,-0.801754,-0.086105
62500,NaN,13.498777,4.364746,1.087025,-2.793114,8.579970,1.188640,0.929013,-1.110851,0.047902,-0.823486,0.143311,0.007568,0.134913,0.043626,0.011822,0.999974,0.004645,-0.005554,0.000240,0.528164,-0.257759,-0.805033,-0.080772
62501,NaN,14.806185,4.382568,1.389618,-3.570140,9.203574,2.141710,0.853056,-0.715886,-0.033004,-0.819336,0.143311,0.007568,0.148018,0.043740,0.014613,0.999984,0.004265,-0.003579,-0.000165,0.526338,-0.255675,-0.807310,-0.076479
62502,NaN,13.710710,3.791706,2.559982,-4.589079,8.815786,0.681824,0.422160,-0.841200,-0.251430,-0.823242,0.136719,0.020264,0.137045,0.037690,0.026256,0.999988,0.002111,-0.004206,-0.001257,0.523395,-0.253829,-0.810001,-0.074349
62503,NaN,16.938971,3.579946,2.218085,-5.615061,9.624747,3.622153,-0.814493,-1.613921,-0.102393,-0.812500,0.134521,0.032959,0.169222,0.035806,0.023401,0.999959,-0.004072,-0.008069,-0.000512,0.515742,-0.256152,-0.814029,-0.075843
62504,NaN,17.529922,2.596298,0.073910,-4.719083,8.179261,5.183102,-0.461968,-0.449181,-0.326205,-0.812500,0.132324,0.035156,0.175339,0.025679,0.001073,0.999993,-0.002310,-0.002246,-0.001631,0.513260,-0.256073,-0.815419,-0.077994
62505,NaN,16.776551,2.321084,2.015337,-6.179370,8.331802,3.725878,1.305077,1.135855,-0.983852,-0.810059,0.121826,0.016113,0.167988,0.022257,0.019347,0.999950,0.006525,0.005679,-0.004919,0.519130,-0.248274,-0.814243,-0.076627
62506,NaN,20.358662,5.401690,13.117299,-14.919938,15.977442,1.924309,3.677880,3.142900,-1.110583,-0.816406,0.113281,-0.017578,0.205911,0.050493,0.128899,0.999692,0.018388,0.015713,-0.005552,0.536012,-0.232743,-0.808603,-0.068428
62507,NaN,18.072057,6.222741,15.104088,-15.326228,16.349420,-0.264242,-0.536803,4.089422,-0.615509,-0.814209,0.111328,-0.040771,0.183947,0.062063,0.147135,0.999783,-0.002684,0.020446,-0.003077,0.551571,-0.230261,-0.798013,-0.076970
62508,NaN,16.533890,2.789573,2.118574,-5.013054,7.866478,4.279996,-2.712316,2.704174,0.199316,-0.810303,0.115479,-0.055664,0.165574,0.028324,0.018566,0.999816,-0.013561,0.013520,0.000997,0.559444,-0.237106,-0.789078,-0.090331
62509,NaN,15.224097,-0.815259,-7.611067,2.167074,0.241560,7.087050,-1.369756,2.135767,0.451161,-0.810547,0.117920,-0.085205,0.151436,-0.008339,-0.077674,0.999917,-0.006849,0.010679,0.002256,0.566383,-0.241750,-0.781897,-0.096976
62510,NaN,13.272587,-0.487560,-16.071463,10.563385,-3.934982,7.722241,1.489898,6.308983,-0.400386,-0.803955,0.107178,-0.138184,0.127561,-0.003917,-0.164825,0.999473,0.007448,0.031539,-0.002002,0.592592,-0.232415,-0.764754,-0.099845
62511,NaN,11.210831,-2.712701,-13.863500,8.957886,-5.794682,4.723673,2.445249,5.970097,-0.964516,-0.788818,0.096680,-0.165527,0.107771,-0.025929,-0.142218,0.999468,0.012224,0.029845,-0.004822,0.617442,-0.218397,-0.749016,-0.100216
62512,NaN,16.119194,-7.918588,-16.290483,9.077936,-10.488821,10.070984,5.341988,2.772531,-1.066675,-0.786377,0.077393,-0.192871,0.158484,-0.075609,-0.167166,0.999533,0.026706,0.013860,-0.005333,0.632987,-0.196139,-0.743891,-0.086508
62513,NaN,11.853411,-9.985998,-9.944103,4.189426,-10.643063,4.614686,6.897086,3.139385,-1.334222,-0.785889,0.062500,-0.211914,0.116264,-0.097091,-0.104659,0.999260,0.034477,0.015693,-0.006669,0.650360,-0.167866,-0.737712,-0.068075
62514,NaN,9.700246,-12.728308,-5.300734,0.012294,-12.085432,1.939727,4.414014,-0.426148,-1.338826,-0.787598,0.045410,-0.198975,0.096270,-0.126721,-0.055603,0.999732,0.022068,-0.002131,-0.006694,0.651946,-0.148481,-0.741490,-0.055792
62515,NaN,12.880219,-9.786617,-4.486798,-0.230858,-8.657253,4.567313,-0.223254,-3.667100,-1.428563,-0.785156,0.038818,-0.167236,0.128891,-0.098835,-0.042395,0.999806,-0.001116,-0.018334,-0.007142,0.637641,-0.144921,-0.754313,-0.058524
62516,NaN,13.630694,-2.130606,-7.010497,3.751705,-2.230693,5.032654,-5.559241,-1.791433,-1.921124,-0.786865,0.028076,-0.165039,0.136698,-0.024532,-0.068230,0.999527,-0.027792,-0.008956,-0.009604,0.626070,-0.155716,-0.759400,-0.084261
62517,NaN,16.677244,6.943581,-8.004677,7.064678,5.484835,7.802204,-8.619783,0.348267,-2.542342,-0.776367,0.025879,-0.177734,0.167464,0.063769,-0.083168,0.998989,-0.043084,0.001741,-0.012707,0.618961,-0.172751,-0.755906,-0.125102
62518,NaN,24.478929,15.851599,2.520983,1.105358,17.267244,13.784657,-7.154282,6.190702,-2.696751,-0.765625,0.019775,-0.243164,0.247410,0.155777,0.011970,0.998790,-0.035757,0.030941,-0.013478,0.633792,-0.180513,-0.733671,-0.165681
62519,NaN,8.251702,-1.797423,5.354067,-6.332522,1.375853,-2.200037,-7.275745,8.015945,-1.874213,-0.740479,0.019775,-0.283447,0.084429,-0.016878,0.050809,0.998492,-0.036360,0.040060,-0.009366,0.654096,-0.189793,-0.702857,-0.205255
62520,NaN,7.607713,-1.683115,-7.044427,4.408014,-5.480617,-2.013020,-5.273035,3.247184,-2.119094,-0.731934,0.020020,-0.304688,0.074728,-0.019498,-0.071174,0.999465,-0.026360,0.016233,-0.010594,0.658069,-0.196007,-0.688408,-0.233711
62521,NaN,11.715057,4.161850,-9.482447,9.485517,-2.967634,2.255283,-4.440941,2.973967,-1.980269,-0.723633,0.017822,-0.334229,0.116105,0.038321,-0.097432,0.999594,-0.022202,0.014868,-0.009900,0.661358,-0.200265,-0.675112,-0.258309
62522,NaN,4.289509,-2.100045,-5.205741,2.575148,-5.283728,-5.895077,-4.354319,4.014229,-1.686893,-0.707031,0.028564,-0.357666,0.041660,-0.022494,-0.052423,0.999526,-0.021768,0.020068,-0.008433,0.668096,-0.203593,-0.657552,-0.282530
62523,NaN,4.406787,-2.826587,-4.023339,1.094865,-5.289802,-6.016567,-3.094498,2.901668,-1.539126,-0.702881,0.026611,-0.374756,0.043260,-0.029225,-0.040418,0.999745,-0.015471,0.014507,-0.007695,0.672130,-0.204737,-0.644903,-0.300705
62524,NaN,5.750246,0.821195,-4.557342,3.857515,-3.362028,-4.491311,-3.243841,2.772371,-1.414016,-0.677490,0.032959,-0.395996,0.056915,0.007059,-0.046486,0.999747,-0.016218,0.013861,-0.007069,0.675475,-0.206797,-0.631972,-0.318715
62525,NaN,5.864617,2.324945,-5.549160,5.597900,-3.289408,-4.481313,-3.502746,2.759160,-1.183365,-0.669189,0.037354,-0.406494,0.058002,0.021919,-0.056686,0.999734,-0.017512,0.013795,-0.005916,0.678496,-0.210454,-0.618144,-0.336526
62526,NaN,5.677828,0.623043,-4.896912,3.893241,-4.245484,-4.973604,-3.550486,2.605623,-0.698192,-0.663574,0.052490,-0.427734,0.056152,0.005154,-0.049801,0.999751,-0.017751,0.013027,-0.003491,0.681455,-0.215871,-0.603909,-0.352579
62527,NaN,6.103485,0.290454,-5.895109,4.260291,-5.523785,-4.973573,-3.887672,2.578699,-0.508248,-0.651367,0.069580,-0.440674,0.060273,0.001594,-0.059771,0.999725,-0.019437,0.012892,-0.002541,0.683954,-0.222995,-0.588668,-0.368714
62528,NaN,4.777081,0.061349,-6.281399,4.166991,-5.870755,-6.581405,-4.066532,2.467402,-0.397745,-0.636719,0.080322,-0.451416,0.046990,-0.000766,-0.063391,0.999715,-0.020331,0.012336,-0.001989,0.685705,-0.231116,-0.573028,-0.384749
62529,NaN,3.953293,-1.534485,-6.089798,2.577779,-6.634512,-7.714957,-3.871558,2.103848,-0.305188,-0.624512,0.097412,-0.458008,0.038867,-0.016585,-0.060996,0.999756,-0.019356,0.010518,-0.001526,0.686498,-0.239430,-0.558597,-0.399204
62530,NaN,3.449343,-2.205578,-5.536630,1.490899,-6.541976,-8.265986,-3.589023,1.597420,-0.202494,-0.618652,0.112549,-0.466553,0.034029,-0.023082,-0.055231,0.999807,-0.017944,0.007987,-0.001012,0.686046,-0.247978,-0.546126,-0.411818
62531,NaN,3.354255,-3.388289,-5.564445,0.313400,-7.215666,-8.577122,-3.382475,1.138876,-0.088351,-0.610596,0.125488,-0.475098,0.033212,-0.034834,-0.055250,0.999841,-0.016911,0.005694,-0.000442,0.684665,-0.256974,-0.535293,-0.422682
62532,NaN,3.475922,-3.861217,-5.245709,-0.445470,-7.243846,-8.458540,-3.099530,0.806987,0.019258,-0.608887,0.136230,-0.473145,0.034553,-0.039417,-0.051990,0.999872,-0.015497,0.004035,0.000096,0.682698,-0.265957,-0.525948,-0.431937
62533,NaN,3.448947,-2.855477,-4.396705,-0.150706,-6.049906,-8.153068,-2.841941,0.575684,0.081722,-0.602783,0.148926,-0.473145,0.034375,-0.029163,-0.043655,0.999895,-0.014209,0.002878,0.000409,0.680532,-0.274620,-0.517696,-0.439830
62534,NaN,2.945550,-3.071408,-3.745513,-0.807145,-5.442204,-8.445733,-2.523758,0.368954,0.158317,-0.605469,0.164062,-0.471191,0.029411,-0.031161,-0.037118,0.999918,-0.012618,0.001845,0.000792,0.678208,-0.282870,-0.510709,-0.446313
62535,NaN,2.329190,-3.278696,-3.066676,-1.439468,-4.744475,-8.814376,-2.236875,0.172931,0.205889,-0.609863,0.172607,-0.471191,0.023300,-0.033103,-0.030318,0.999937,-0.011184,0.000865,0.001029,0.675898,-0.290596,-0.504822,-0.451521
62536,NaN,1.645796,-2.866268,-2.679897,-1.363649,-3.996342,-9.288073,-1.973119,-0.034951,0.207974,-0.601562,0.178955,-0.465088,0.016493,-0.028908,-0.026512,0.999951,-0.009865,-0.000175,0.001040,0.673270,-0.297959,-0.500247,-0.455719
62537,NaN,1.380159,-2.114662,-1.944277,-1.051635,-2.953395,-9.239838,-1.667073,-0.326321,0.146051,-0.603760,0.185303,-0.460693,0.013849,-0.021297,-0.019243,0.999964,-0.008335,-0.001632,0.000730,0.670275,-0.304689,-0.497326,-0.458872
62538,NaN,1.533268,-1.412069,-1.213777,-0.710055,-2.074921,-8.808429,-1.266155,-0.717012,0.029768,-0.605957,0.187500,-0.452393,0.015378,-0.014195,-0.011993,0.999974,-0.006331,-0.003585,0.000149,0.666507,-0.310760,-0.496860,-0.460790
62539,NaN,2.330728,-1.162617,-0.408215,-0.739402,-1.498335,-7.773380,-0.827212,-1.127106,-0.162925,-0.610352,0.191650,-0.448242,0.023320,-0.011662,-0.003903,0.999975,-0.004136,-0.005635,-0.000815,0.662025,-0.315721,-0.498965,-0.461602
62540,NaN,3.415923,-1.159552,0.259665,-0.927964,-1.193574,-6.527188,-0.274947,-1.518294,-0.426202,-0.616455,0.185303,-0.439697,0.034113,-0.011664,0.002872,0.999968,-0.001375,-0.007591,-0.002131,0.656693,-0.319183,-0.504109,-0.461248
62541,NaN,4.318194,-1.661323,0.828825,-1.589534,-1.075099,-5.521930,0.276660,-1.991982,-0.645289,-0.624512,0.174561,-0.428955,0.043043,-0.016764,0.008694,0.999944,0.001383,-0.009960,-0.003226,0.650585,-0.321245,-0.512303,-0.459441
62542,NaN,5.392478,-3.364477,1.071744,-3.276715,-1.694371,-4.527058,0.760222,-2.622141,-0.719600,-0.641113,0.163818,-0.409668,0.053658,-0.033880,0.011294,0.999900,0.003801,-0.013110,-0.003598,0.643273,-0.323043,-0.523778,-0.455522
62543,NaN,8.895982,-4.514386,2.832226,-5.013997,-1.264440,-0.824152,1.123742,-3.345874,-0.605025,-0.655762,0.155273,-0.392822,0.088335,-0.045575,0.029548,0.999840,0.005618,-0.016728,-0.003025,0.634839,-0.325434,-0.538005,-0.449024
62544,NaN,15.285342,-1.900962,8.812378,-5.101151,4.065269,6.689685,1.051712,-3.751876,-0.376135,-0.670166,0.146484,-0.371338,0.151129,-0.019768,0.090867,0.999808,0.005258,-0.018758,-0.001881,0.625418,-0.329567,-0.552869,-0.441105
62545,NaN,23.823280,1.141910,14.515162,-4.979355,9.417965,15.993958,0.531794,-3.194049,-0.073463,-0.672363,0.146484,-0.356689,0.235878,0.010939,0.148961,0.999869,0.002659,-0.015970,-0.000367,0.617215,-0.334723,-0.564091,-0.434520
62546,NaN,29.899474,1.592020,17.355772,-6.030263,11.761608,22.172035,-0.103160,-1.157538,0.217296,-0.678711,0.146484,-0.352295,0.297966,0.016334,0.175276,0.999983,-0.000516,-0.005788,0.001086,0.614213,-0.338249,-0.567121,-0.432092
62547,NaN,27.981602,1.279914,18.153166,-6.467876,12.768563,20.341317,-1.161265,0.778852,0.203202,-0.672852,0.159424,-0.363037,0.280506,0.014133,0.180361,0.999975,-0.005806,0.003894,0.001016,0.614875,-0.340722,-0.561875,-0.436044
62548,NaN,21.708353,2.311836,12.738327,-2.970560,9.025114,13.608855,-2.080936,1.331402,-0.134696,-0.674805,0.159424,-0.365234,0.217940,0.024285,0.125686,0.999923,-0.010404,0.006657,-0.000673,0.614774,-0.343842,-0.553441,-0.444442
62549,NaN,16.232088,3.186179,3.225020,1.648950,1.357042,6.904682,-1.321263,0.705178,-0.270747,-0.666504,0.163574,-0.365234,0.162476,0.031852,0.031467,0.999971,-0.006606,0.003526,-0.001354,0.613828,-0.345599,-0.548800,-0.450106
62550,NaN,12.767842,2.121688,2.623839,0.943799,0.908616,3.328350,-0.476000,0.621901,-0.149932,-0.668701,0.165771,-0.369385,0.127775,0.021183,0.025791,0.999992,-0.002380,0.003109,-0.000750,0.614430,-0.345255,-0.546068,-0.452863
62551,NaN,9.138169,-1.438368,3.026113,-2.474706,0.605938,-0.419034,-0.165941,0.694580,-0.020977,-0.664307,0.161621,-0.373779,0.091485,-0.014368,0.029955,0.999994,-0.000830,0.003473,-0.000105,0.615983,-0.344154,-0.543603,-0.454552
62552,NaN,6.550325,-5.165815,3.523446,-6.104717,0.203382,-3.127022,-0.021030,0.218857,0.082242,-0.664307,0.163574,-0.373779,0.065563,-0.051628,0.035168,0.999999,-0.000105,0.001094,0.000411,0.616794,-0.343951,-0.542729,-0.454651
62553,NaN,6.666541,-5.721686,2.689101,-6.322967,-0.759043,-3.190343,0.070334,-0.784842,0.252792,-0.664551,0.167969,-0.371582,0.066632,-0.057142,0.027132,0.999991,0.000352,-0.003924,0.001264,0.615350,-0.346223,-0.544882,-0.452303
62554,NaN,9.635048,-5.246191,-1.296189,-4.467368,-4.699659,-0.868920,-0.045257,-1.314566,0.399695,-0.668945,0.172119,-0.361084,0.096537,-0.052272,-0.012316,0.999976,-0.000226,-0.006573,0.001998,0.612684,-0.350418,-0.548100,-0.448790
62555,NaN,11.113319,-4.541763,-5.910880,-2.152412,-8.794960,0.040356,0.905213,-1.969695,0.521665,-0.679443,0.174316,-0.344238,0.111827,-0.044862,-0.058214,0.999938,0.004526,-0.009848,0.002608,0.609999,-0.353494,-0.555229,-0.441208
62556,NaN,15.515962,-3.051193,-5.718676,-0.788651,-8.417214,4.722290,2.893669,-3.054548,0.603160,-0.687744,0.167725,-0.331299,0.156103,-0.029233,-0.055236,0.999774,0.014467,-0.015272,0.003016,0.607933,-0.353023,-0.569730,-0.425675
62557,NaN,16.219017,-1.211901,-11.600739,3.440898,-12.624738,5.280815,4.747169,-3.250109,0.549343,-0.697998,0.159180,-0.318604,0.164077,-0.008955,-0.113589,0.999583,0.023733,-0.016248,0.002746,0.607963,-0.346950,-0.588514,-0.404546
62558,NaN,13.744239,-0.828633,-8.358843,2.804216,-8.759588,3.409613,6.290636,-2.494628,0.315280,-0.708008,0.139893,-0.310059,0.138483,-0.005471,-0.082067,0.999426,0.031447,-0.012471,0.001576,0.611895,-0.333661,-0.607951,-0.380329
62559,NaN,8.774524,2.100600,-2.711420,2.887065,-1.720539,-1.011885,5.833452,-1.621610,-0.580420,-0.707520,0.120605,-0.303467,0.088020,0.021516,-0.025779,0.999538,0.029163,-0.008107,-0.002902,0.615302,-0.317002,-0.624702,-0.361470
62560,NaN,3.061181,-0.418287,-4.682855,2.147849,-4.241729,-6.835449,5.858484,-1.181230,-0.783991,-0.713379,0.103516,-0.303223,0.030875,-0.002933,-0.046745,0.999546,0.029288,-0.005905,-0.003919,0.619245,-0.298598,-0.639908,-0.343355
62561,NaN,0.036230,-3.291279,-13.070753,5.349001,-12.369288,-9.963436,5.372010,-0.900350,-0.363023,-0.717041,0.090576,-0.296875,0.000898,-0.029388,-0.131525,0.999628,0.026857,-0.004501,-0.001815,0.623521,-0.282261,-0.652232,-0.325797
62562,NaN,-0.409559,-1.883751,-13.165450,7.067429,-11.269122,-10.091211,3.848432,-1.704676,-0.054761,-0.720947,0.082031,-0.286133,-0.002976,-0.016299,-0.132013,0.999779,0.019241,-0.008523,-0.000274,0.623172,-0.272911,-0.663793,-0.310733
62563,NaN,2.572329,1.370532,-10.664208,7.914210,-7.070130,-6.716089,2.538483,-1.927192,-0.043826,-0.731445,0.077637,-0.273438,0.026751,0.015049,-0.106202,0.999873,0.012692,-0.009636,-0.000219,0.620081,-0.267836,-0.673730,-0.299752
62564,NaN,6.156532,-1.550559,-6.782783,2.940407,-6.011209,-3.368504,2.920764,-2.023108,-0.091014,-0.735352,0.064697,-0.258545,0.062242,-0.014547,-0.067418,0.999842,0.014603,-0.010115,-0.000455,0.616888,-0.261625,-0.684471,-0.287232
62565,NaN,8.247747,-3.432135,-2.557384,-1.502186,-4.143723,-1.632414,3.578895,-2.170925,-0.008273,-0.741455,0.062500,-0.245850,0.082752,-0.033871,-0.025285,0.999781,0.017893,-0.010854,-0.000041,0.613980,-0.253639,-0.696179,-0.272084
62566,NaN,11.041122,0.895860,-1.967726,0.654152,-0.365766,1.412808,3.340208,-2.295708,0.173424,-0.745361,0.051758,-0.230957,0.110618,0.009367,-0.018254,0.999794,0.016700,-0.011478,0.000867,0.610271,-0.247237,-0.707485,-0.256728
