// Start Time: Unknown
// Update Rate: 100.0Hz
// Filter Profile: human (46.1)
// Firmware Version: 4.4.0
PacketCounter,SampleTimeFine,Acc_X,Acc_Y,Acc_Z,FreeAcc_X,FreeAcc_Y,FreeAcc_Z,Gyr_X,Gyr_Y,Gyr_Z,Mag_X,Mag_Y,Mag_Z,VelInc_X,VelInc_Y,VelInc_Z,OriInc_q0,OriInc_q1,OriInc_q2,OriInc_q3,Quat_q0,Quat_q1,Quat_q2,Quat_q3
05615,NaN,9.785937,-0.378110,-0.973774,-0.040617,-0.243947,0.025737,0.017280,0.048065,-0.127365,-0.561523,-0.165771,0.290527,0.097855,-0.003843,-0.009762,1.000000,0.000086,0.000240,-0.000637,-0.229419,-0.683938,0.297689,-0.625282
05616,NaN,9.709957,-0.291459,-1.045661,-0.150300,-0.235255,-0.046231,-0.004288,0.049708,-0.131371,-0.561279,-0.172363,0.284180,0.097095,-0.002979,-0.010481,1.000000,-0.000021,0.000249,-0.000657,-0.229918,-0.683973,0.297196,-0.625295
05617,NaN,9.700724,-0.313924,-1.080664,-0.154438,-0.180987,-0.049808,-0.017919,0.051841,-0.141859,-0.565430,-0.172363,0.279785,0.097002,-0.003209,-0.010831,1.000000,-0.000090,0.000259,-0.000709,-0.230499,-0.684004,0.296707,-0.625279
05618,NaN,9.797880,-0.339818,-0.899883,0.003567,-0.284302,0.028190,-0.022684,0.053012,-0.140963,-0.559082,-0.172363,0.286377,0.097974,-0.003468,-0.009024,1.000000,-0.000113,0.000265,-0.000705,-0.231095,-0.684021,0.296234,-0.625264
05619,NaN,9.778194,-0.350015,-0.882749,0.028851,-0.272596,0.007683,-0.032843,0.044334,-0.150850,-0.565430,-0.174316,0.286377,0.097777,-0.003575,-0.008849,1.000000,-0.000164,0.000222,-0.000754,-0.231750,-0.684068,0.295765,-0.625193
05620,NaN,9.800126,-0.341854,-0.952600,-0.018845,-0.219487,0.037096,-0.023294,0.042375,-0.144344,-0.565430,-0.176514,0.279785,0.097997,-0.003490,-0.009546,1.000000,-0.000116,0.000212,-0.000722,-0.232343,-0.684121,0.295295,-0.625136
05621,NaN,9.801412,-0.258659,-0.905940,-0.036244,-0.297854,0.029328,-0.026264,0.045928,-0.141081,-0.559082,-0.174316,0.281982,0.098010,-0.002657,-0.009082,1.000000,-0.000131,0.000230,-0.000705,-0.232954,-0.684153,0.294831,-0.625094
05622,NaN,9.693898,-0.200689,-0.944347,-0.102450,-0.287964,-0.075630,-0.032063,0.045290,-0.137429,-0.561035,-0.174316,0.288574,0.096935,-0.002075,-0.009465,1.000000,-0.000160,0.000226,-0.000687,-0.233559,-0.684176,0.294408,-0.625041
05623,NaN,9.745856,-0.201887,-1.028522,-0.153623,-0.221402,-0.014336,-0.029625,0.052016,-0.132578,-0.561279,-0.170166,0.277588,0.097455,-0.002085,-0.010310,1.000000,-0.000148,0.000260,-0.000663,-0.234176,-0.684170,0.293964,-0.625027
05624,NaN,9.824962,-0.155528,-0.923282,-0.101259,-0.322774,0.050987,-0.040175,0.052494,-0.128072,-0.556885,-0.172363,0.284180,0.098246,-0.001620,-0.009258,1.000000,-0.000201,0.000262,-0.000640,-0.234791,-0.684147,0.293590,-0.624997
05625,NaN,9.865763,-0.130620,-0.923634,-0.111554,-0.330880,0.090923,-0.056615,0.056003,-0.122627,-0.554443,-0.180908,0.280029,0.098654,-0.001369,-0.009264,1.000000,-0.000283,0.000280,-0.000613,-0.235491,-0.684082,0.293244,-0.624966
05626,NaN,9.768160,-0.123318,-0.994531,-0.167337,-0.264280,0.001761,-0.053267,0.054278,-0.117331,-0.565430,-0.176514,0.277832,0.097678,-0.001293,-0.009971,1.000000,-0.000266,0.000271,-0.000587,-0.236120,-0.684022,0.292946,-0.624936
05627,NaN,9.728967,-0.070738,-0.971847,-0.184857,-0.299915,-0.041395,-0.049616,0.056703,-0.108050,-0.563477,-0.170166,0.279785,0.097287,-0.000762,-0.009746,1.000000,-0.000248,0.000284,-0.000540,-0.236772,-0.683943,0.292608,-0.624933
05628,NaN,9.788544,-0.151683,-0.957928,-0.112262,-0.246306,0.020062,-0.046629,0.056148,-0.099389,-0.562988,-0.182861,0.277832,0.097882,-0.001568,-0.009606,1.000000,-0.000233,0.000281,-0.000497,-0.237324,-0.683857,0.292347,-0.624939
05629,NaN,9.927291,-0.177739,-0.893600,-0.037561,-0.273594,0.152499,-0.048268,0.051653,-0.089048,-0.561035,-0.178711,0.275635,0.099270,-0.001824,-0.008961,1.000000,-0.000241,0.000258,-0.000445,-0.237928,-0.683770,0.292056,-0.624942
05630,NaN,9.938943,-0.126179,-0.929542,-0.095680,-0.277202,0.166118,-0.074959,0.042763,-0.081193,-0.562988,-0.182861,0.273682,0.099387,-0.001306,-0.009316,1.000000,-0.000375,0.000214,-0.000406,-0.238500,-0.683666,0.291962,-0.624882
05631,NaN,9.821053,-0.201454,-1.001720,-0.096606,-0.150057,0.059762,-0.070484,0.040445,-0.074154,-0.560791,-0.182861,0.275635,0.098208,-0.002054,-0.010036,1.000000,-0.000352,0.000202,-0.000371,-0.239138,-0.683562,0.291784,-0.624834
05632,NaN,9.901728,-0.169212,-1.008410,-0.117785,-0.168328,0.139575,-0.043238,0.046350,-0.064457,-0.554443,-0.183105,0.275879,0.099014,-0.001726,-0.010107,1.000000,-0.000216,0.000232,-0.000322,-0.239555,-0.683460,0.291643,-0.624852
05633,NaN,9.842458,-0.109908,-0.992952,-0.149298,-0.204995,0.077090,-0.012322,0.053325,-0.047340,-0.558838,-0.176514,0.277832,0.098422,-0.001123,-0.009956,1.000000,-0.000062,0.000267,-0.000237,-0.239943,-0.683349,0.291348,-0.624962
05634,NaN,9.792942,-0.032001,-0.967953,-0.189031,-0.266611,0.022599,0.010790,0.050399,-0.036673,-0.558838,-0.180908,0.273682,0.097927,-0.000337,-0.009704,1.000000,0.000054,0.000252,-0.000183,-0.240094,-0.683258,0.291128,-0.625106
05635,NaN,9.802720,-0.047097,-0.934276,-0.154541,-0.271077,0.029622,0.025265,0.059467,-0.015997,-0.562988,-0.185059,0.280029,0.098024,-0.000478,-0.009372,1.000000,0.000126,0.000297,-0.000080,-0.240289,-0.683134,0.290792,-0.625322
05636,NaN,9.852094,-0.142537,-0.898674,-0.063690,-0.227798,0.078508,0.042607,0.054513,-0.003561,-0.561035,-0.178711,0.277832,0.098518,-0.001425,-0.009014,1.000000,0.000213,0.000273,-0.000018,-0.240234,-0.683020,0.290581,-0.625566
05637,NaN,9.800705,-0.183103,-0.816396,0.018115,-0.243349,0.020638,0.066289,0.058566,0.013275,-0.558594,-0.185059,0.275879,0.098005,-0.001822,-0.008193,1.000000,0.000331,0.000293,0.000066,-0.240223,-0.682907,0.290197,-0.625873
05638,NaN,9.782747,-0.150961,-0.867379,-0.047650,-0.227441,0.006848,0.089450,0.054598,0.030325,-0.560791,-0.182861,0.273682,0.097825,-0.001491,-0.008701,1.000000,0.000447,0.000273,0.000152,-0.239902,-0.682799,0.289955,-0.626225
05639,NaN,9.822208,-0.021140,-0.812941,-0.102492,-0.357032,0.036126,0.114045,0.051551,0.049460,-0.558594,-0.182861,0.269287,0.098220,-0.000182,-0.008155,1.000000,0.000570,0.000258,0.000247,-0.239616,-0.682706,0.289537,-0.626630
05640,NaN,9.842193,0.012441,-0.789580,-0.116494,-0.400922,0.052303,0.124922,0.044556,0.074945,-0.558838,-0.180908,0.280029,0.098420,0.000166,-0.007918,1.000000,0.000625,0.000223,0.000375,-0.239019,-0.682608,0.289348,-0.627052
05641,NaN,9.849347,0.032310,-0.665075,-0.047895,-0.500493,0.046329,0.119542,0.031959,0.101106,-0.565186,-0.182861,0.275635,0.098492,0.000377,-0.006666,1.000000,0.000598,0.000160,0.000506,-0.238558,-0.682504,0.289080,-0.627465
05642,NaN,9.940314,-0.056907,-0.718110,-0.029896,-0.415471,0.144985,0.103697,0.014463,0.124349,-0.558838,-0.180908,0.275635,0.099403,-0.000504,-0.007189,1.000000,0.000518,0.000072,0.000622,-0.237835,-0.682402,0.289162,-0.627812
05643,NaN,9.912056,-0.216517,-0.818195,-0.000493,-0.231722,0.132737,0.122380,-0.002456,0.138476,-0.565186,-0.178711,0.277832,0.099122,-0.002092,-0.008182,1.000000,0.000612,-0.000012,0.000692,-0.237248,-0.682341,0.289012,-0.628169
05644,NaN,9.670031,-0.342275,-0.767235,0.102668,-0.163580,-0.108154,0.162593,-0.009829,0.139050,-0.561035,-0.178711,0.275635,0.096703,-0.003349,-0.007670,0.999999,0.000813,-0.000049,0.000695,-0.236242,-0.682364,0.288987,-0.628535
05645,NaN,9.638760,-0.455691,-0.776176,0.165371,-0.076824,-0.133713,0.187880,-0.018173,0.139700,-0.567627,-0.174316,0.275635,0.096391,-0.004482,-0.007757,0.999999,0.000939,-0.000091,0.000699,-0.235411,-0.682414,0.288650,-0.628947
05646,NaN,9.755185,-0.191596,-0.938073,-0.138440,-0.179825,-0.013259,0.156112,-0.016047,0.138476,-0.567383,-0.178711,0.273438,0.097554,-0.001841,-0.009374,0.999999,0.000781,-0.000080,0.000692,-0.234420,-0.682448,0.288650,-0.629280
05647,NaN,9.662623,-0.161967,-1.196630,-0.357098,-0.018663,-0.081471,0.085842,-0.003341,0.124487,-0.567383,-0.178711,0.281982,0.096627,-0.001554,-0.011965,1.000000,0.000429,-0.000017,0.000622,-0.234019,-0.682347,0.288547,-0.629586
05648,NaN,9.647717,-0.328648,-1.096484,-0.179347,0.026859,-0.098994,0.064946,0.016108,0.108642,-0.565430,-0.176514,0.284180,0.096478,-0.003231,-0.010974,1.000000,0.000325,0.000081,0.000543,-0.233479,-0.682215,0.288695,-0.629862
05649,NaN,9.749322,-0.484885,-0.880040,0.082944,-0.016851,-0.012091,0.063521,0.027472,0.090625,-0.569824,-0.170166,0.279785,0.097494,-0.004802,-0.008815,1.000000,0.000318,0.000137,0.000453,-0.233318,-0.682067,0.288548,-0.630149
05650,NaN,9.701685,-0.328350,-0.865738,-0.025438,-0.139060,-0.067944,-0.037142,0.055394,0.093823,-0.569824,-0.170166,0.279785,0.097016,-0.003240,-0.008684,1.000000,-0.000186,0.000277,0.000469,-0.233229,-0.681713,0.288920,-0.630394
05651,NaN,9.591159,-0.141775,-0.709733,-0.051097,-0.363532,-0.201268,-0.156837,0.061555,0.050593,-0.569580,-0.178711,0.273438,0.095910,-0.001399,-0.007126,1.000000,-0.000784,0.000308,0.000253,-0.233977,-0.681246,0.289276,-0.630458
05652,NaN,9.682446,-0.312032,-0.500723,0.215516,-0.392026,-0.122604,-0.140261,0.030976,0.041081,-0.569824,-0.170166,0.273438,0.096824,-0.003104,-0.005020,1.000000,-0.000701,0.000155,0.000205,-0.234370,-0.680925,0.289821,-0.630409
05653,NaN,9.873591,-0.415254,-0.619236,0.206825,-0.249412,0.083711,-0.115284,0.002017,0.048185,-0.572021,-0.172363,0.277588,0.098737,-0.004132,-0.006191,1.000000,-0.000576,0.000010,0.000241,-0.234907,-0.680684,0.290074,-0.630353
05654,NaN,9.881567,-0.421281,-0.561268,0.250928,-0.289707,0.086351,-0.076629,-0.019093,0.054450,-0.569824,-0.172363,0.277588,0.098817,-0.004188,-0.005602,1.000000,-0.000383,-0.000095,0.000272,-0.234969,-0.680575,0.290523,-0.630241
05655,NaN,9.697630,-0.450562,-0.439258,0.352727,-0.331870,-0.106739,-0.047322,-0.048667,0.047644,-0.574219,-0.170166,0.277588,0.096978,-0.004484,-0.004368,1.000000,-0.000237,-0.000243,0.000238,-0.235220,-0.680531,0.290633,-0.630144
05656,NaN,9.562562,-0.273265,-0.501835,0.181314,-0.410196,-0.243572,-0.092145,-0.066938,0.043652,-0.569824,-0.174316,0.277588,0.095628,-0.002714,-0.004985,1.000000,-0.000461,-0.000335,0.000218,-0.235299,-0.680570,0.291151,-0.629833
05657,NaN,9.592850,-0.075561,-0.396554,0.125426,-0.624616,-0.232507,-0.303513,-0.069573,-0.001791,-0.567383,-0.178711,0.280029,0.095930,-0.000762,-0.003931,0.999999,-0.001518,-0.000348,-0.000009,-0.236564,-0.680320,0.291911,-0.629278
05658,NaN,9.722047,-0.476053,-0.315084,0.473852,-0.411502,-0.094136,-0.326871,-0.088993,0.006726,-0.569824,-0.174316,0.275635,0.097222,-0.004762,-0.003100,0.999999,-0.001634,-0.000445,0.000034,-0.237525,-0.680202,0.293067,-0.628505
05659,NaN,9.765679,-0.588528,-0.578851,0.372842,-0.152002,-0.020456,-0.281119,-0.121178,0.019108,-0.565430,-0.174316,0.281982,0.097661,-0.005884,-0.005721,0.999999,-0.001406,-0.000606,0.000096,-0.238572,-0.680072,0.293895,-0.627863
05660,NaN,9.961891,-0.948857,-0.797361,0.487465,0.225906,0.211618,-0.218957,-0.155913,0.019624,-0.567383,-0.180908,0.288574,0.099626,-0.009487,-0.007886,0.999999,-0.001095,-0.000780,0.000098,-0.239025,-0.680270,0.294835,-0.627034
05661,NaN,10.006011,-0.817842,-0.957446,0.292783,0.234089,0.265272,-0.093314,-0.167956,0.034950,-0.567627,-0.176514,0.279785,0.100070,-0.008165,-0.009487,1.000000,-0.000467,-0.000840,0.000175,-0.239281,-0.680442,0.295281,-0.626541
05662,NaN,9.756063,-0.095533,-0.797825,-0.100342,-0.379180,-0.031453,-0.026963,-0.170951,0.033177,-0.569824,-0.174316,0.279785,0.097568,-0.000940,-0.007895,1.000000,-0.000135,-0.000855,0.000166,-0.239016,-0.680896,0.295683,-0.625958
05663,NaN,9.407394,-0.031264,-0.829941,-0.174662,-0.370374,-0.377586,-0.145936,-0.156553,0.003632,-0.567627,-0.174316,0.284180,0.094080,-0.000317,-0.008226,0.999999,-0.000730,-0.000783,0.000018,-0.239530,-0.681021,0.296118,-0.625420
05664,NaN,9.737484,-0.938556,-0.913475,0.429705,0.287649,-0.001138,-0.269467,-0.139925,0.007942,-0.563232,-0.174316,0.281982,0.097382,-0.009394,-0.009054,0.999999,-0.001347,-0.000700,0.000040,-0.240215,-0.681123,0.297154,-0.624554
05665,NaN,9.774928,-0.529489,-0.956420,0.120329,0.020026,0.022424,-0.196747,-0.134510,0.042925,-0.567627,-0.176514,0.284180,0.097757,-0.005283,-0.009493,0.999999,-0.000984,-0.000673,0.000215,-0.240749,-0.681067,0.297895,-0.624056
05666,NaN,9.522206,-0.072053,-0.850394,-0.129218,-0.361856,-0.260038,-0.185409,-0.155522,0.014007,-0.563477,-0.170166,0.290527,0.095229,-0.000722,-0.008429,0.999999,-0.000927,-0.000778,0.000070,-0.241105,-0.681308,0.298709,-0.623267
05667,NaN,9.971360,-0.449280,-0.874438,0.149478,-0.131909,0.205034,-0.176192,-0.178062,0.026779,-0.559082,-0.170166,0.288330,0.099722,-0.004487,-0.008652,0.999999,-0.000881,-0.000890,0.000134,-0.241565,-0.681430,0.299390,-0.622628
05668,NaN,9.937661,-0.534921,-0.871776,0.221601,-0.084806,0.174650,-0.149724,-0.173806,0.055571,-0.567627,-0.174316,0.284180,0.099386,-0.005328,-0.008627,0.999999,-0.000749,-0.000869,0.000278,-0.241641,-0.681707,0.300256,-0.621878
05669,NaN,9.771496,-0.776610,-0.968208,0.324304,0.159832,0.030683,-0.160878,-0.191112,0.079905,-0.565674,-0.170166,0.281982,0.097727,-0.007735,-0.009582,0.999999,-0.000804,-0.000956,0.000400,-0.241792,-0.681824,0.301077,-0.621293
05670,NaN,10.058846,-1.156879,-0.965253,0.619132,0.371412,0.332713,-0.065473,-0.220467,0.117892,-0.554688,-0.172363,0.290527,0.100606,-0.011513,-0.009538,0.999999,-0.000327,-0.001102,0.000589,-0.241316,-0.682252,0.301949,-0.620585
05671,NaN,10.066590,-1.053503,-0.680560,0.748674,0.076137,0.303779,0.092014,-0.244353,0.137661,-0.554932,-0.170166,0.290527,0.100681,-0.010463,-0.006687,0.999999,0.000460,-0.001222,0.000688,-0.240230,-0.682761,0.302291,-0.620280
05672,NaN,9.943919,-0.676549,-0.643408,0.506892,-0.228809,0.159466,0.212139,-0.262637,0.156047,-0.559326,-0.165771,0.292725,0.099453,-0.006681,-0.006311,0.999998,0.001061,-0.001313,0.000780,-0.238623,-0.683594,0.302481,-0.619890
05673,NaN,9.847726,-0.101097,-0.937148,-0.111912,-0.445120,0.069387,0.229686,-0.297944,0.183034,-0.555176,-0.161621,0.296875,0.098492,-0.000910,-0.009226,0.999998,0.001148,-0.001490,0.000915,-0.236788,-0.684336,0.302645,-0.619695
05674,NaN,9.641487,0.104432,-1.093414,-0.371028,-0.492158,-0.128436,0.205750,-0.322295,0.204065,-0.555420,-0.157227,0.298828,0.096431,0.001154,-0.010778,0.999998,0.001029,-0.001611,0.001020,-0.234961,-0.685268,0.303087,-0.619144
05675,NaN,9.682713,0.274720,-1.336310,-0.658992,-0.483828,-0.068580,0.193072,-0.331203,0.231452,-0.555420,-0.155273,0.301025,0.096846,0.002872,-0.013200,0.999997,0.000965,-0.001656,0.001157,-0.233039,-0.686029,0.303492,-0.618829
05676,NaN,9.444956,1.260632,-1.340148,-1.362995,-1.188685,-0.361682,0.165708,-0.321926,0.242784,-0.551025,-0.155273,0.303223,0.094456,0.012732,-0.013239,0.999998,0.000829,-0.001610,0.001214,-0.231227,-0.686849,0.304187,-0.618258
05677,NaN,9.326289,1.437182,-1.737558,-1.769850,-1.057634,-0.441818,0.014755,-0.342736,0.242661,-0.549072,-0.150879,0.305420,0.093275,0.014486,-0.017215,0.999998,0.000074,-0.001714,0.001213,-0.229950,-0.687501,0.305098,-0.617560
05678,NaN,9.560368,0.466446,-2.080846,-1.311421,-0.203544,-0.107703,-0.054723,-0.342969,0.256164,-0.551025,-0.155273,0.307617,0.095633,0.004781,-0.020646,0.999998,-0.000274,-0.001715,0.001281,-0.228819,-0.688106,0.306542,-0.616591
05679,NaN,9.879494,-0.645676,-2.032800,-0.469806,0.470131,0.272533,-0.056306,-0.317885,0.276423,-0.551270,-0.148682,0.307373,0.098836,-0.006326,-0.020169,0.999998,-0.000282,-0.001589,0.001382,-0.227798,-0.688665,0.307697,-0.615768
05680,NaN,10.163040,-1.153244,-1.897631,-0.000684,0.652139,0.569649,0.043771,-0.279381,0.305790,-0.551270,-0.153076,0.311768,0.101674,-0.011373,-0.018837,0.999998,0.000219,-0.001397,0.001529,-0.226270,-0.689105,0.308934,-0.615220
05681,NaN,9.619848,-0.136287,-1.779252,-0.662807,-0.106271,-0.051793,0.113674,-0.252920,0.321170,-0.555664,-0.146729,0.313721,0.096223,-0.001198,-0.017672,0.999998,0.000568,-0.001265,0.001606,-0.224601,-0.689588,0.309715,-0.614898
05682,NaN,9.290614,0.545005,-1.502304,-0.967032,-0.768998,-0.466949,0.061493,-0.260311,0.299507,-0.553711,-0.142334,0.315918,0.092917,0.005594,-0.014900,0.999998,0.000307,-0.001302,0.001498,-0.223058,-0.689994,0.310852,-0.614430
05683,NaN,9.689047,-0.409810,-1.459944,-0.242916,-0.218424,-0.011149,0.013785,-0.296388,0.297042,-0.555908,-0.142334,0.320068,0.096918,-0.003953,-0.014456,0.999998,0.000069,-0.001482,0.001485,-0.221818,-0.690533,0.311872,-0.613756
05684,NaN,9.917984,-1.602819,-1.430200,0.627493,0.524792,0.302231,0.079568,-0.306258,0.331884,-0.556152,-0.138184,0.322266,0.099228,-0.015858,-0.014156,0.999997,0.000398,-0.001531,0.001659,-0.220038,-0.691044,0.313114,-0.613189
05685,NaN,9.964885,-1.494797,-0.972471,0.875067,0.085508,0.272242,0.239254,-0.280196,0.365950,-0.556396,-0.131592,0.322021,0.099689,-0.014754,-0.009603,0.999997,0.001196,-0.001401,0.001830,-0.217822,-0.691628,0.313723,-0.613010
05686,NaN,9.624607,-0.630146,-1.018277,0.209489,-0.484486,-0.128254,0.248929,-0.278163,0.378147,-0.556396,-0.127441,0.326416,0.096272,-0.006107,-0.010057,0.999996,0.001245,-0.001391,0.001891,-0.215355,-0.692159,0.314572,-0.612848
05687,NaN,9.489540,-0.248731,-1.478897,-0.398967,-0.459278,-0.224671,0.088323,-0.321721,0.381527,-0.554199,-0.127441,0.330566,0.094924,-0.002300,-0.014637,0.999997,0.000442,-0.001609,0.001908,-0.213474,-0.692626,0.315731,-0.612382
05688,NaN,9.735410,-0.956259,-1.716942,-0.065214,0.112428,0.118246,-0.039754,-0.331136,0.387703,-0.556396,-0.127441,0.330566,0.097401,-0.009377,-0.017006,0.999997,-0.000199,-0.001656,0.001939,-0.211889,-0.692986,0.317551,-0.611584
05689,NaN,9.746272,-1.033687,-1.478458,0.155902,-0.042936,0.097802,-0.001308,-0.301015,0.415492,-0.552490,-0.121094,0.330566,0.097506,-0.010134,-0.014638,0.999997,-0.000007,-0.001505,0.002077,-0.210282,-0.693242,0.319118,-0.611032
05690,NaN,9.447579,-0.836351,-1.289979,0.131317,-0.304971,-0.246610,-0.091772,-0.300103,0.410391,-0.552490,-0.121094,0.343506,0.094512,-0.008175,-0.012754,0.999997,-0.000459,-0.001501,0.002052,-0.208853,-0.693408,0.321139,-0.610274
05691,NaN,9.574775,-1.080756,-1.462888,0.181213,-0.084571,-0.068757,-0.128822,-0.319015,0.429532,-0.554443,-0.123047,0.339111,0.095794,-0.010611,-0.014469,0.999996,-0.000644,-0.001595,0.002148,-0.207561,-0.693555,0.323183,-0.609469
05692,NaN,9.621476,-0.806626,-1.869612,-0.302678,-0.061361,0.017027,-0.108153,-0.322665,0.434574,-0.554688,-0.114502,0.343262,0.096262,-0.007867,-0.018537,0.999996,-0.000541,-0.001613,0.002173,-0.206074,-0.693725,0.325358,-0.608623
05693,NaN,9.339150,0.044298,-1.985159,-1.000540,-0.571867,-0.334596,-0.034029,-0.333289,0.439301,-0.556885,-0.118896,0.343262,0.093423,0.000645,-0.019696,0.999996,-0.000170,-0.001666,0.002197,-0.204454,-0.693967,0.327190,-0.607911
05694,NaN,9.306475,-0.029102,-1.900798,-0.894711,-0.622260,-0.376776,-0.048931,-0.362159,0.413471,-0.552490,-0.116699,0.349854,0.093099,-0.000103,-0.018839,0.999996,-0.000245,-0.001811,0.002067,-0.202756,-0.694342,0.329147,-0.606994
05695,NaN,9.727616,-1.880360,-2.058833,0.316190,0.645675,0.281069,-0.036097,-0.381174,0.416573,-0.557129,-0.112549,0.349609,0.097354,-0.018605,-0.020399,0.999996,-0.000180,-0.001906,0.002083,-0.201245,-0.694788,0.330950,-0.606005
05696,NaN,9.801225,-2.892075,-1.934286,1.114923,1.197042,0.458308,0.120638,-0.332442,0.423366,-0.555176,-0.101807,0.353760,0.098105,-0.028702,-0.019197,0.999996,0.000603,-0.001662,0.002117,-0.198972,-0.695218,0.332394,-0.605472
05697,NaN,9.614614,-2.210650,-1.928777,0.620977,0.709401,0.195254,0.171633,-0.282897,0.398220,-0.557373,-0.103760,0.355957,0.096217,-0.021898,-0.019171,0.999997,0.000858,-0.001414,0.001991,-0.196842,-0.695547,0.333475,-0.605197
05698,NaN,9.601829,-1.722254,-1.942589,0.257349,0.333146,0.124996,0.082641,-0.260394,0.364612,-0.561523,-0.105957,0.358154,0.096075,-0.017039,-0.019308,0.999997,0.000413,-0.001302,0.001823,-0.194994,-0.695811,0.334754,-0.604785
05699,NaN,9.694478,-2.505052,-1.704603,0.971690,0.658639,0.276204,0.043392,-0.228474,0.346781,-0.559570,-0.104004,0.360352,0.097007,-0.024879,-0.016941,0.999998,0.000217,-0.001142,0.001734,-0.193602,-0.695883,0.336071,-0.604418
05700,NaN,9.879240,-2.733858,-1.733465,1.110247,0.754128,0.496375,0.048253,-0.202543,0.338346,-0.551025,-0.097412,0.360107,0.098856,-0.027167,-0.017241,0.999998,0.000241,-0.001013,0.001692,-0.192047,-0.695977,0.337305,-0.604119
05701,NaN,9.513901,-2.416840,-2.147694,0.566992,0.860288,0.182627,0.021321,-0.204813,0.337315,-0.557617,-0.095215,0.360107,0.095202,-0.024006,-0.021382,0.999998,0.000107,-0.001024,0.001687,-0.190669,-0.695963,0.338684,-0.603799
05702,NaN,9.561188,-2.038878,-1.971468,0.418791,0.426873,0.142325,0.089333,-0.206148,0.349742,-0.555420,-0.099609,0.362305,0.095668,-0.020213,-0.019625,0.999998,0.000447,-0.001031,0.001749,-0.188927,-0.696082,0.339835,-0.603564
05703,NaN,9.678198,-1.444065,-1.603104,0.253982,-0.304990,0.095143,0.183271,-0.208171,0.362863,-0.555664,-0.093262,0.360107,0.096825,-0.014250,-0.015943,0.999997,0.000916,-0.001041,0.001814,-0.186861,-0.696172,0.340843,-0.603534
05704,NaN,9.257427,-0.289634,-1.725450,-0.670315,-0.965418,-0.464987,0.160400,-0.239907,0.376674,-0.555664,-0.088867,0.368652,0.092600,-0.002708,-0.017146,0.999997,0.000802,-0.001200,0.001883,-0.184730,-0.696407,0.341901,-0.603321
05705,NaN,9.432726,-0.512608,-2.447740,-1.032595,-0.414100,-0.117709,0.013812,-0.298410,0.377567,-0.551514,-0.084717,0.362061,0.094373,-0.004946,-0.024337,0.999997,0.000069,-0.001492,0.001888,-0.183060,-0.696599,0.343505,-0.602696
05706,NaN,9.709259,-1.264873,-2.633532,-0.635687,0.114823,0.305989,0.042689,-0.282330,0.405941,-0.553711,-0.086670,0.372803,0.097155,-0.012446,-0.026201,0.999997,0.000213,-0.001412,0.002030,-0.181174,-0.696795,0.345055,-0.602154
05707,NaN,9.355100,-0.143872,-2.849853,-1.596585,-0.475070,-0.174985,0.012873,-0.245140,0.414932,-0.553711,-0.084717,0.375000,0.093589,-0.001243,-0.028384,0.999997,0.000064,-0.001226,0.002075,-0.179472,-0.696817,0.346705,-0.601691
05708,NaN,9.510011,-0.590426,-2.951052,-1.361913,-0.183484,0.067038,-0.071746,-0.232037,0.427174,-0.549561,-0.080322,0.375000,0.095147,-0.005712,-0.029398,0.999997,-0.000359,-0.001160,0.002136,-0.178004,-0.696714,0.348624,-0.601137
05709,NaN,9.652158,-1.893928,-2.915810,-0.430684,0.612930,0.419208,0.001156,-0.198628,0.456227,-0.554199,-0.073975,0.381348,0.096593,-0.018719,-0.029062,0.999997,0.000006,-0.000993,0.002281,-0.176363,-0.696571,0.350390,-0.600759
05710,NaN,9.393767,-1.590982,-2.708610,-0.524101,0.289603,0.074268,0.140433,-0.159320,0.474659,-0.553955,-0.076172,0.376953,0.093997,-0.015668,-0.027022,0.999997,0.000702,-0.000797,0.002373,-0.174138,-0.696345,0.351769,-0.600864
05711,NaN,9.278971,-0.563863,-2.241218,-0.934653,-0.744890,-0.325241,0.166022,-0.140335,0.501260,-0.552246,-0.067627,0.383301,0.092819,-0.005387,-0.022352,0.999996,0.000830,-0.000702,0.002506,-0.171872,-0.696098,0.353158,-0.600989
05712,NaN,9.351948,0.044840,-2.109133,-1.289199,-1.318873,-0.404834,0.093591,-0.135309,0.511272,-0.554443,-0.067627,0.383301,0.093532,0.000697,-0.021028,0.999996,0.000468,-0.000677,0.002556,-0.169739,-0.695685,0.354780,-0.601118
05713,NaN,9.682610,-0.771845,-2.470477,-0.990317,-0.654722,0.139313,-0.029348,-0.140664,0.513991,-0.556885,-0.061035,0.385254,0.096863,-0.007473,-0.024636,0.999996,-0.000147,-0.000703,0.002570,-0.168161,-0.695280,0.356736,-0.600872
05714,NaN,9.289151,-1.314397,-2.844427,-0.912261,0.037966,-0.051905,-0.096106,-0.114430,0.525961,-0.558838,-0.065430,0.385498,0.092942,-0.012913,-0.028385,0.999996,-0.000481,-0.000572,0.002630,-0.166677,-0.694608,0.358956,-0.600740
05715,NaN,9.085618,-1.735412,-2.765183,-0.583565,0.295639,-0.180542,-0.158669,-0.080387,0.518125,-0.565186,-0.063232,0.385254,0.090912,-0.017141,-0.027602,0.999996,-0.000793,-0.000402,0.002591,-0.165683,-0.693917,0.361236,-0.600448
05716,NaN,9.005568,-3.448425,-2.678861,0.654418,1.393168,0.076641,-0.163819,-0.064416,0.513321,-0.565674,-0.054688,0.391602,0.090152,-0.034275,-0.026731,0.999996,-0.000819,-0.000322,0.002567,-0.164560,-0.693050,0.363569,-0.600349
05717,NaN,10.452041,-3.151637,-2.008929,0.921551,0.261230,1.246066,-0.058392,0.010646,0.514430,-0.561279,-0.058838,0.389648,0.104600,-0.031253,-0.020086,0.999997,-0.000292,0.000053,0.002572,-0.163347,-0.692161,0.365486,-0.600542
05718,NaN,9.267334,-2.084784,-1.971621,0.150537,-0.158485,-0.113762,-0.054159,0.040195,0.492815,-0.572266,-0.050293,0.387207,0.092720,-0.020625,-0.019729,0.999997,-0.000271,0.000201,0.002464,-0.162094,-0.691099,0.367329,-0.600980
05719,NaN,9.002077,-1.812740,-2.363126,-0.347950,-0.030409,-0.337158,-0.183020,0.020876,0.494606,-0.569824,-0.056885,0.393799,0.090063,-0.017926,-0.023624,0.999997,-0.000915,0.000104,0.002473,-0.161340,-0.690089,0.369535,-0.600991
05720,NaN,9.391749,-2.322798,-2.751533,-0.290036,0.418049,0.232822,-0.219919,0.034560,0.486344,-0.570068,-0.052490,0.391602,0.093969,-0.023030,-0.027506,0.999996,-0.001100,0.000173,0.002432,-0.160668,-0.688913,0.371852,-0.601091
05721,NaN,9.408734,-2.946130,-2.475961,0.320148,0.616820,0.328872,-0.128949,0.072543,0.463988,-0.574463,-0.046143,0.389404,0.094146,-0.029259,-0.024775,0.999997,-0.000645,0.000363,0.002320,-0.159899,-0.687848,0.373745,-0.601342
05722,NaN,9.079391,-2.789436,-2.222003,0.358626,0.420049,-0.073673,-0.069907,0.085398,0.446780,-0.576660,-0.048096,0.387207,0.090846,-0.027699,-0.022249,0.999997,-0.000350,0.000427,0.002234,-0.158922,-0.686704,0.375431,-0.601858
05723,NaN,9.307419,-2.619269,-2.076538,0.311723,0.108814,0.071213,-0.079126,0.073975,0.422611,-0.578613,-0.050293,0.393555,0.093122,-0.026004,-0.020790,0.999998,-0.000396,0.000370,0.002113,-0.158072,-0.685727,0.377050,-0.602183
05724,NaN,9.152567,-2.708641,-1.975474,0.419193,0.126282,-0.075288,-0.083836,0.063229,0.392479,-0.581055,-0.046143,0.389404,0.091572,-0.026915,-0.019772,0.999998,-0.000419,0.000316,0.001962,-0.157263,-0.684735,0.378606,-0.602548
05725,NaN,9.223117,-2.420482,-1.849509,0.279257,-0.196318,-0.105541,-0.068462,0.057637,0.364370,-0.583008,-0.046143,0.389404,0.092270,-0.024043,-0.018513,0.999998,-0.000342,0.000288,0.001822,-0.156505,-0.683903,0.380011,-0.602806
05726,NaN,9.409451,-2.600850,-1.820214,0.401021,-0.180027,0.108102,-0.120905,0.047740,0.331845,-0.585449,-0.043945,0.389160,0.094133,-0.025863,-0.018209,0.999998,-0.000605,0.000239,0.001659,-0.155976,-0.683038,0.381480,-0.602996
05727,NaN,9.215637,-3.474468,-2.101067,0.809349,0.629197,0.205466,-0.183995,0.048898,0.299078,-0.589600,-0.048096,0.391357,0.092203,-0.034626,-0.021001,0.999998,-0.000920,0.000244,0.001495,-0.155790,-0.682243,0.383014,-0.602971
05728,NaN,9.025738,-3.459675,-2.506340,0.502629,0.937454,0.116237,-0.185872,0.061016,0.277219,-0.589600,-0.043945,0.389160,0.090298,-0.034495,-0.025059,0.999999,-0.000929,0.000305,0.001386,-0.155672,-0.681387,0.384480,-0.603036
05729,NaN,9.196482,-2.293222,-2.628496,-0.431456,0.182252,0.011962,-0.161197,0.083181,0.250748,-0.585449,-0.043945,0.387207,0.091983,-0.022838,-0.026305,0.999999,-0.000806,0.000416,0.001254,-0.155580,-0.680576,0.385782,-0.603144
05730,NaN,9.364853,-1.509801,-2.429746,-0.871903,-0.531121,-0.074037,-0.155212,0.098645,0.230494,-0.587646,-0.039551,0.389160,0.093654,-0.015009,-0.024332,0.999999,-0.000776,0.000493,0.001152,-0.155570,-0.679718,0.386965,-0.603357
05731,NaN,9.580433,-1.624113,-2.116362,-0.593330,-0.749665,0.086169,-0.106333,0.111782,0.198146,-0.591797,-0.041748,0.382812,0.095809,-0.016157,-0.021209,0.999999,-0.000532,0.000559,0.000991,-0.155522,-0.678978,0.387887,-0.603611
05732,NaN,9.646847,-1.489384,-2.035592,-0.653313,-0.919188,0.094472,-0.101577,0.123065,0.175390,-0.596191,-0.039551,0.384766,0.096469,-0.014820,-0.020408,0.999999,-0.000508,0.000615,0.000877,-0.155543,-0.678192,0.388701,-0.603965
05733,NaN,9.263229,-2.927837,-2.279578,0.204863,0.308093,0.159235,-0.180481,0.119287,0.144133,-0.596191,-0.041748,0.389160,0.092640,-0.029232,-0.022825,0.999999,-0.000902,0.000596,0.000721,-0.155960,-0.677482,0.389626,-0.604058
05734,NaN,9.022858,-4.935322,-2.206125,1.691450,1.636708,0.438973,-0.126591,0.133380,0.126150,-0.596191,-0.039551,0.389160,0.090245,-0.049310,-0.022090,0.999999,-0.000633,0.000667,0.000631,-0.156235,-0.676740,0.390339,-0.604359
05735,NaN,9.024945,-4.157406,-1.933560,1.312072,0.945738,0.180128,-0.042762,0.152587,0.091771,-0.598389,-0.041748,0.386963,0.090254,-0.041537,-0.019396,1.000000,-0.000214,0.000763,0.000459,-0.156361,-0.676112,0.390681,-0.604807
05736,NaN,9.187146,-2.907719,-1.903879,0.417745,0.067395,0.000782,-0.057641,0.145840,0.051556,-0.595947,-0.050293,0.385010,0.091865,-0.029059,-0.019097,1.000000,-0.000288,0.000729,0.000258,-0.156651,-0.675531,0.390923,-0.605225
05737,NaN,9.339496,-2.476693,-2.120176,-0.056131,-0.108488,0.078744,-0.087785,0.132639,0.006286,-0.598145,-0.043945,0.386963,0.093382,-0.024773,-0.021253,1.000000,-0.000439,0.000663,0.000031,-0.157121,-0.675071,0.391147,-0.605471
05738,NaN,9.337553,-2.325302,-2.329485,-0.315379,-0.052462,0.082827,-0.087378,0.133596,-0.025404,-0.598389,-0.041748,0.382812,0.093357,-0.023275,-0.023347,1.000000,-0.000437,0.000668,-0.000127,-0.157721,-0.674653,0.391229,-0.605729
05739,NaN,9.261678,-2.692101,-2.559305,-0.210357,0.378158,0.156709,-0.101615,0.139147,-0.058791,-0.602783,-0.039551,0.386963,0.092591,-0.026961,-0.025644,1.000000,-0.000508,0.000696,-0.000294,-0.158454,-0.674293,0.391264,-0.605916
05740,NaN,9.272499,-3.304600,-2.446095,0.307461,0.705841,0.301176,-0.046870,0.146052,-0.099362,-0.606689,-0.045898,0.382812,0.092691,-0.033098,-0.024521,1.000000,-0.000234,0.000730,-0.000497,-0.159166,-0.674013,0.390962,-0.606236
05741,NaN,9.245575,-3.468867,-2.018594,0.720082,0.543690,0.225951,0.065113,0.177235,-0.120424,-0.604736,-0.045898,0.384766,0.092417,-0.034738,-0.020279,0.999999,0.000326,0.000886,-0.000602,-0.159585,-0.673789,0.390266,-0.606822
05742,NaN,9.114592,-3.552737,-1.696723,1.003296,0.441651,0.055184,0.088643,0.182141,-0.139319,-0.606689,-0.048096,0.376221,0.091106,-0.035583,-0.017066,0.999999,0.000443,0.000911,-0.000697,-0.160031,-0.673584,0.389389,-0.607495
05743,NaN,9.171226,-3.095717,-1.597994,0.736862,0.081332,-0.030111,0.051528,0.172208,-0.163499,-0.608887,-0.048096,0.378418,0.091673,-0.031028,-0.016067,0.999999,0.000258,0.000861,-0.000817,-0.160593,-0.673427,0.388608,-0.608021
05744,NaN,9.269286,-2.793820,-1.612342,0.506235,-0.111986,-0.011878,0.008953,0.168089,-0.201206,-0.606689,-0.048096,0.376221,0.092651,-0.028031,-0.016203,0.999999,0.000045,0.000840,-0.001006,-0.161468,-0.673319,0.387776,-0.608440
05745,NaN,9.249603,-3.212242,-1.722672,0.734690,0.265131,0.098474,-0.022675,0.154399,-0.226728,-0.608643,-0.052490,0.387207,0.092446,-0.032229,-0.017294,0.999999,-0.000113,0.000772,-0.001134,-0.162433,-0.673262,0.387021,-0.608726
05746,NaN,9.314707,-3.077813,-1.750799,0.622720,0.203358,0.130793,-0.017241,0.157612,-0.252070,-0.606201,-0.058838,0.376465,0.093094,-0.030897,-0.017579,0.999999,-0.000086,0.000788,-0.001260,-0.163530,-0.673261,0.386104,-0.609016
05747,NaN,9.120649,-2.661991,-1.871006,0.255885,0.106120,-0.133004,-0.062313,0.161981,-0.283903,-0.606445,-0.054443,0.370117,0.091153,-0.026755,-0.018776,0.999999,-0.000312,0.000810,-0.001420,-0.164806,-0.673243,0.385277,-0.609216
05748,NaN,9.124078,-3.053941,-1.842654,0.570046,0.369254,-0.039800,-0.109753,0.148718,-0.303565,-0.608398,-0.058838,0.370117,0.091181,-0.030688,-0.018478,0.999998,-0.000549,0.000744,-0.001518,-0.166354,-0.673289,0.384474,-0.609253
05749,NaN,9.205955,-3.590703,-1.727163,1.047237,0.640259,0.143171,-0.100256,0.146777,-0.315430,-0.608398,-0.061035,0.367920,0.091990,-0.036061,-0.017321,0.999998,-0.000501,0.000734,-0.001577,-0.167818,-0.673336,0.383671,-0.609305
05750,NaN,9.195074,-3.661446,-1.609111,1.196079,0.638964,0.122392,-0.063199,0.139864,-0.333477,-0.608398,-0.061035,0.367920,0.091878,-0.036773,-0.016144,0.999998,-0.000316,0.000699,-0.001667,-0.169281,-0.673501,0.382631,-0.609372
05751,NaN,9.225346,-3.215830,-1.690232,0.831697,0.426192,0.058077,-0.051300,0.125760,-0.348397,-0.610352,-0.062988,0.370117,0.092187,-0.032323,-0.016952,0.999998,-0.000257,0.000629,-0.001742,-0.170616,-0.673693,0.381602,-0.609433
05752,NaN,9.242080,-2.399431,-1.800490,0.183806,-0.001737,-0.097691,-0.063680,0.108284,-0.366194,-0.610107,-0.069580,0.370117,0.092367,-0.024169,-0.018047,0.999998,-0.000318,0.000541,-0.001831,-0.172119,-0.674012,0.380477,-0.609361
05753,NaN,9.289554,-2.069678,-1.892243,-0.101094,-0.137912,-0.110595,-0.054590,0.086984,-0.380964,-0.603760,-0.067383,0.365967,0.092848,-0.020879,-0.018957,0.999998,-0.000273,0.000435,-0.001905,-0.173485,-0.674370,0.379382,-0.609260
05754,NaN,9.365461,-1.844055,-1.828281,-0.200832,-0.321538,-0.101294,-0.026310,0.081503,-0.383448,-0.599365,-0.073730,0.370361,0.093612,-0.018622,-0.018319,0.999998,-0.000132,0.000408,-0.001917,-0.174863,-0.674831,0.378106,-0.609149
05755,NaN,9.398652,-2.395721,-1.851448,0.201026,0.073330,0.059297,-0.036824,0.067496,-0.373661,-0.599121,-0.078125,0.361816,0.093935,-0.024136,-0.018542,0.999998,-0.000184,0.000337,-0.001868,-0.176123,-0.675251,0.376984,-0.609015
05756,NaN,9.408471,-2.525163,-1.925540,0.264779,0.235947,0.110900,-0.011576,0.065760,-0.359410,-0.594971,-0.075928,0.361816,0.094033,-0.025422,-0.019285,0.999998,-0.000058,0.000329,-0.001797,-0.177347,-0.675723,0.375756,-0.608896
05757,NaN,9.331071,-2.244817,-1.995157,0.033131,0.150316,-0.011414,0.014262,0.072729,-0.348773,-0.596924,-0.080322,0.361816,0.093264,-0.022609,-0.019987,0.999998,0.000071,0.000364,-0.001744,-0.178368,-0.676121,0.374556,-0.608895
05758,NaN,9.541248,-1.991871,-1.948943,-0.104968,-0.080923,0.126311,0.059391,0.066687,-0.333574,-0.594727,-0.078125,0.359619,0.095373,-0.020072,-0.019527,0.999999,0.000297,0.000333,-0.001668,-0.179274,-0.676601,0.373196,-0.608932
05759,NaN,9.628639,-1.600102,-1.848695,-0.307067,-0.408383,0.108378,0.124822,0.068617,-0.322109,-0.594727,-0.080322,0.366211,0.096254,-0.016145,-0.018530,0.999998,0.000624,0.000343,-0.001611,-0.179836,-0.677060,0.371747,-0.609141
05760,NaN,9.649583,-1.105074,-1.651007,-0.513744,-0.852807,-0.011148,0.173408,0.061738,-0.319776,-0.598877,-0.084473,0.361816,0.096473,-0.011191,-0.016550,0.999998,0.000867,0.000309,-0.001599,-0.180304,-0.677628,0.370088,-0.609382
05761,NaN,9.629651,-0.757229,-1.708410,-0.790733,-1.014746,-0.088121,0.173100,0.050928,-0.312889,-0.592529,-0.082275,0.364014,0.096280,-0.007708,-0.017115,0.999998,0.000865,0.000255,-0.001564,-0.180664,-0.678171,0.368518,-0.609622
05762,NaN,9.638486,-0.563123,-1.780060,-0.964944,-1.074385,-0.101835,0.157540,0.040439,-0.303538,-0.590332,-0.082275,0.353271,0.096373,-0.005763,-0.017825,0.999999,0.000788,0.000202,-0.001518,-0.181096,-0.678755,0.366980,-0.609772
05763,NaN,9.538807,-0.319264,-1.782252,-1.125913,-1.187542,-0.242463,0.124690,0.037760,-0.292625,-0.585693,-0.091064,0.359863,0.095380,-0.003321,-0.017843,0.999999,0.000623,0.000189,-0.001463,-0.181567,-0.679267,0.365608,-0.609886
05764,NaN,9.182630,-1.061651,-1.810838,-0.593154,-0.555880,-0.428336,0.002301,0.026774,-0.261505,-0.587891,-0.088867,0.355713,0.091810,-0.010736,-0.018121,0.999999,0.000012,0.000134,-0.001308,-0.182373,-0.679671,0.364697,-0.609741
05765,NaN,9.415053,-3.518937,-2.069346,1.005768,1.215392,0.327310,-0.074159,-0.013966,-0.212240,-0.594482,-0.091064,0.355713,0.094115,-0.035297,-0.020674,0.999999,-0.000371,-0.000070,-0.001061,-0.183208,-0.680025,0.364226,-0.609377
05766,NaN,9.446406,-3.962485,-1.843035,1.495647,1.358794,0.397570,0.044876,-0.005602,-0.171018,-0.590088,-0.093018,0.357910,0.094431,-0.039701,-0.018437,1.000000,0.000224,-0.000028,-0.000855,-0.183533,-0.680401,0.363521,-0.609281
05767,NaN,9.547782,-2.774091,-1.472487,0.905689,0.293773,0.193178,0.169238,0.025384,-0.181966,-0.590088,-0.088867,0.357666,0.095451,-0.027815,-0.014761,0.999999,0.000846,0.000127,-0.000910,-0.183484,-0.680784,0.362406,-0.609532
05768,NaN,9.629913,-1.480531,-1.705427,-0.178279,-0.419426,0.067999,0.201490,0.014851,-0.189626,-0.587891,-0.095215,0.355713,0.096284,-0.014879,-0.017076,0.999999,0.001007,0.000074,-0.000948,-0.183370,-0.681273,0.361141,-0.609771
05769,NaN,9.477845,-1.034333,-1.802375,-0.557524,-0.599921,-0.144328,0.187315,-0.002693,-0.192826,-0.585693,-0.095215,0.355713,0.094769,-0.010418,-0.018032,0.999999,0.000937,-0.000013,-0.000964,-0.183240,-0.681771,0.359958,-0.609952
05770,NaN,9.477622,-1.140815,-1.821045,-0.485911,-0.504859,-0.119805,0.192613,-0.005917,-0.172390,-0.583740,-0.088867,0.353516,0.094767,-0.011472,-0.018219,0.999999,0.000963,-0.000030,-0.000862,-0.183065,-0.682282,0.358797,-0.610118
05771,NaN,9.435794,-1.002421,-1.737955,-0.518630,-0.635636,-0.200896,0.163390,-0.019493,-0.165934,-0.585693,-0.091064,0.359863,0.094351,-0.010088,-0.017379,0.999999,0.000817,-0.000097,-0.000830,-0.182921,-0.682768,0.357779,-0.610215
05772,NaN,9.524468,-0.891136,-1.741008,-0.589937,-0.724553,-0.134479,0.120012,-0.033787,-0.165294,-0.585938,-0.088867,0.355713,0.095240,-0.008980,-0.017399,0.999999,0.000600,-0.000169,-0.000826,-0.182922,-0.683282,0.356887,-0.610161
05773,NaN,9.461182,-0.930066,-1.805362,-0.595824,-0.629896,-0.174922,0.073578,-0.048563,-0.176833,-0.583496,-0.093018,0.353516,0.094608,-0.009378,-0.018034,1.000000,0.000368,-0.000243,-0.000884,-0.183079,-0.683801,0.356117,-0.609983
05774,NaN,9.179519,-1.480164,-1.748723,-0.151317,-0.213438,-0.355203,0.001735,-0.060642,-0.178986,-0.583496,-0.095215,0.355713,0.091787,-0.014884,-0.017460,1.000000,0.000009,-0.000303,-0.000895,-0.183478,-0.684312,0.355563,-0.609613
05775,NaN,9.466401,-2.567685,-1.735733,0.647360,0.448851,0.116962,-0.018365,-0.073758,-0.175917,-0.579102,-0.095215,0.353516,0.094648,-0.025762,-0.017320,1.000000,-0.000092,-0.000369,-0.000880,-0.183921,-0.684823,0.355089,-0.609181
05776,NaN,9.444067,-3.003599,-1.638588,1.041024,0.691785,0.153990,0.034702,-0.065442,-0.169110,-0.583496,-0.097412,0.357910,0.094421,-0.030113,-0.016360,1.000000,0.000174,-0.000327,-0.000846,-0.184168,-0.685361,0.354473,-0.608861
05777,NaN,9.319214,-2.482561,-1.614416,0.700742,0.360606,-0.066093,0.056137,-0.068712,-0.175879,-0.576904,-0.099609,0.360107,0.093176,-0.024903,-0.016119,1.000000,0.000281,-0.000344,-0.000879,-0.184346,-0.685916,0.353780,-0.608585
05778,NaN,9.432916,-1.867019,-1.691879,0.225305,-0.028806,-0.051719,0.035661,-0.074782,-0.175126,-0.579102,-0.097412,0.360107,0.094319,-0.018750,-0.016887,1.000000,0.000178,-0.000374,-0.000876,-0.184591,-0.686492,0.353148,-0.608228
05779,NaN,9.489477,-1.538606,-1.760396,-0.038779,-0.214855,-0.041875,-0.008467,-0.093638,-0.188379,-0.574951,-0.093018,0.357910,0.094888,-0.015476,-0.017559,0.999999,-0.000042,-0.000468,-0.000942,-0.184971,-0.687089,0.352630,-0.607739
05780,NaN,9.390663,-1.543017,-1.840382,-0.073406,-0.125612,-0.120874,-0.036159,-0.102151,-0.199038,-0.572510,-0.101807,0.357910,0.093901,-0.015527,-0.018353,0.999999,-0.000181,-0.000511,-0.000995,-0.185487,-0.687723,0.352159,-0.607137
05781,NaN,9.450556,-1.678670,-1.959220,-0.039413,0.038618,-0.016443,-0.053518,-0.106850,-0.204118,-0.570557,-0.097412,0.357910,0.094499,-0.016888,-0.019537,0.999999,-0.000268,-0.000534,-0.001021,-0.186047,-0.688341,0.351736,-0.606510
05782,NaN,9.460822,-1.653943,-1.992934,-0.057817,0.048521,-0.004083,-0.064593,-0.111065,-0.216330,-0.576904,-0.095215,0.360107,0.094601,-0.016648,-0.019871,0.999999,-0.000323,-0.000555,-0.001082,-0.186697,-0.689005,0.351299,-0.605810
05783,NaN,9.512321,-1.644221,-1.986871,-0.036562,0.031196,0.042920,-0.065197,-0.112632,-0.226437,-0.572754,-0.097412,0.362305,0.095116,-0.016556,-0.019810,0.999999,-0.000326,-0.000563,-0.001132,-0.187346,-0.689663,0.350845,-0.605123
05784,NaN,9.533048,-1.708379,-1.978576,0.039364,0.072016,0.071924,-0.048951,-0.102311,-0.233740,-0.570557,-0.099609,0.366455,0.095321,-0.017200,-0.019733,0.999999,-0.000245,-0.000512,-0.001169,-0.188009,-0.690343,0.350291,-0.604462
05785,NaN,9.567431,-1.656685,-1.891248,0.087070,-0.023515,0.079177,-0.022740,-0.091910,-0.231208,-0.570312,-0.103760,0.360107,0.095664,-0.016680,-0.018867,0.999999,-0.000114,-0.000460,-0.001156,-0.188545,-0.691001,0.349665,-0.603906
05786,NaN,9.412003,-1.394316,-1.895055,-0.083694,-0.151998,-0.112636,-0.043185,-0.098125,-0.230325,-0.568115,-0.103760,0.360107,0.094113,-0.014056,-0.018901,0.999999,-0.000216,-0.000491,-0.001152,-0.189184,-0.691665,0.349101,-0.603272
05787,NaN,9.383881,-1.265121,-1.951346,-0.193569,-0.186371,-0.148669,-0.063977,-0.098458,-0.235205,-0.559570,-0.099609,0.364502,0.093833,-0.012768,-0.019463,0.999999,-0.000320,-0.000492,-0.001176,-0.189892,-0.692296,0.348594,-0.602619
05788,NaN,9.597456,-1.224651,-1.982356,-0.213528,-0.238164,0.058397,-0.056235,-0.103232,-0.242788,-0.561768,-0.104004,0.362305,0.095970,-0.012369,-0.019771,0.999999,-0.000281,-0.000516,-0.001214,-0.190604,-0.692983,0.348030,-0.601930
05789,NaN,9.672556,-1.079663,-2.022771,-0.318247,-0.320123,0.117660,-0.046404,-0.102057,-0.250816,-0.565674,-0.110352,0.364502,0.096722,-0.010923,-0.020176,0.999999,-0.000232,-0.000510,-0.001254,-0.191256,-0.693692,0.347406,-0.601267
05790,NaN,9.567660,-0.971202,-1.979919,-0.343755,-0.387633,-0.007845,-0.047536,-0.108719,-0.258414,-0.557373,-0.101807,0.364502,0.095675,-0.009840,-0.019745,0.999999,-0.000238,-0.000544,-0.001292,-0.191974,-0.694428,0.346766,-0.600557
05791,NaN,9.559704,-1.156419,-2.004624,-0.204265,-0.232340,0.018284,-0.035096,-0.106164,-0.259258,-0.561523,-0.105957,0.366699,0.095593,-0.011692,-0.019993,0.999999,-0.000175,-0.000531,-0.001296,-0.192621,-0.695171,0.346077,-0.599888
05792,NaN,9.495895,-1.406725,-2.009314,-0.007122,-0.031973,-0.005184,-0.049760,-0.102195,-0.241101,-0.557129,-0.110352,0.360352,0.094952,-0.014187,-0.020041,0.999999,-0.000249,-0.000511,-0.001206,-0.193306,-0.695853,0.345496,-0.599212
05793,NaN,9.487318,-1.948600,-2.019789,0.394980,0.357188,0.066692,-0.067686,-0.113414,-0.224046,-0.557129,-0.110352,0.373291,0.094863,-0.019599,-0.020137,0.999999,-0.000338,-0.000567,-0.001120,-0.193954,-0.696515,0.345037,-0.598497
05794,NaN,9.581364,-2.064249,-1.942413,0.559039,0.366015,0.156771,-0.057491,-0.119177,-0.185492,-0.561279,-0.114502,0.368896,0.095806,-0.020737,-0.019361,0.999999,-0.000287,-0.000596,-0.000927,-0.194469,-0.697142,0.344688,-0.597799
05795,NaN,9.717523,-1.502210,-1.751591,0.318856,-0.181373,0.168313,-0.036233,-0.113343,-0.161640,-0.554932,-0.112549,0.368896,0.097173,-0.015104,-0.017458,0.999999,-0.000181,-0.000567,-0.000808,-0.194787,-0.697752,0.344339,-0.597185
05796,NaN,9.579878,-0.834235,-1.801706,-0.179491,-0.569172,-0.047446,-0.071985,-0.117666,-0.162686,-0.552734,-0.112549,0.368896,0.095803,-0.008427,-0.017958,0.999999,-0.000360,-0.000588,-0.000813,-0.195286,-0.698321,0.344111,-0.596489
05797,NaN,9.662889,-0.775605,-2.040372,-0.362615,-0.465845,0.076072,-0.109351,-0.143734,-0.157309,-0.550537,-0.114746,0.366943,0.096637,-0.007843,-0.020330,0.999999,-0.000547,-0.000719,-0.000787,-0.195799,-0.698932,0.344028,-0.595652
05798,NaN,9.588342,-0.906185,-2.109784,-0.299673,-0.310547,0.037306,-0.090711,-0.152765,-0.137751,-0.548340,-0.114746,0.369141,0.095893,-0.009137,-0.021020,0.999999,-0.000454,-0.000764,-0.000689,-0.196228,-0.699543,0.343976,-0.594824
05799,NaN,9.552094,-0.872764,-2.187012,-0.358830,-0.274240,0.014990,-0.047976,-0.155846,-0.123614,-0.550537,-0.118896,0.373291,0.095533,-0.008792,-0.021794,0.999999,-0.000240,-0.000779,-0.000618,-0.196420,-0.700193,0.343834,-0.594077
05800,NaN,9.499155,-0.653840,-2.234838,-0.532559,-0.382419,-0.054304,0.003893,-0.162937,-0.113698,-0.546143,-0.114746,0.369141,0.095006,-0.006592,-0.022271,1.000000,0.000019,-0.000815,-0.000568,-0.196428,-0.700883,0.343594,-0.593398
05801,NaN,9.678343,-0.452970,-2.254054,-0.660063,-0.557993,0.097368,0.031401,-0.178599,-0.102108,-0.548340,-0.114746,0.377686,0.096801,-0.004576,-0.022455,0.999999,0.000157,-0.000893,-0.000511,-0.196237,-0.701654,0.343302,-0.592719
05802,NaN,9.471152,-0.266412,-2.285395,-0.809829,-0.620786,-0.119623,0.029468,-0.183253,-0.088272,-0.546143,-0.116699,0.373291,0.094731,-0.002703,-0.022768,0.999999,0.000147,-0.000916,-0.000441,-0.196045,-0.702385,0.343095,-0.592036
05803,NaN,9.440299,-0.775988,-2.304448,-0.443283,-0.259178,-0.077792,-0.014008,-0.190460,-0.064438,-0.546387,-0.112549,0.371094,0.094422,-0.007792,-0.022954,0.999999,-0.000070,-0.000952,-0.000322,-0.195864,-0.703096,0.343070,-0.591267
05804,NaN,9.391377,-1.456212,-2.415479,-0.021511,0.285448,-0.011102,-0.020018,-0.203418,-0.029504,-0.548584,-0.110352,0.379639,0.093936,-0.014578,-0.024058,0.999999,-0.000100,-0.001017,-0.000148,-0.195636,-0.703737,0.343235,-0.590484
05805,NaN,9.578070,-1.726507,-2.258774,0.306113,0.302957,0.169136,0.028217,-0.187756,0.012430,-0.546143,-0.116699,0.379883,0.095803,-0.017256,-0.022500,1.000000,0.000141,-0.000939,0.000062,-0.195072,-0.704312,0.343386,-0.589896
05806,NaN,9.652546,-1.481541,-2.174143,0.204377,0.042767,0.189807,0.069281,-0.167050,0.036037,-0.539795,-0.114746,0.375488,0.096546,-0.014791,-0.021666,1.000000,0.000346,-0.000835,0.000180,-0.194398,-0.704818,0.343482,-0.589458
05807,NaN,9.564594,-1.100613,-2.146678,-0.047003,-0.231830,0.048603,0.060647,-0.165252,0.043320,-0.546143,-0.116699,0.379883,0.095666,-0.010979,-0.021391,1.000000,0.000303,-0.000826,0.000217,-0.193688,-0.705332,0.343599,-0.589009
05808,NaN,9.583054,-0.836496,-2.313890,-0.344147,-0.321350,0.069974,0.029670,-0.162476,0.060709,-0.539795,-0.112549,0.379883,0.095852,-0.008332,-0.023062,1.000000,0.000148,-0.000812,0.000304,-0.193087,-0.705743,0.343894,-0.588541
05809,NaN,9.739082,-0.845063,-2.510318,-0.456925,-0.239775,0.266958,-0.005103,-0.165213,0.057167,-0.541992,-0.114746,0.379883,0.097414,-0.008423,-0.025023,1.000000,-0.000026,-0.000826,0.000286,-0.192573,-0.706164,0.344253,-0.587995
05810,NaN,9.717579,-1.029547,-2.670101,-0.431120,-0.015441,0.308311,-0.018118,-0.158234,0.061332,-0.540039,-0.110352,0.388428,0.097200,-0.010268,-0.026623,1.000000,-0.000091,-0.000791,0.000307,-0.192146,-0.706515,0.344685,-0.587460
05811,NaN,9.471887,-1.268090,-2.706398,-0.297231,0.220613,0.112646,0.009311,-0.149307,0.061528,-0.544189,-0.114746,0.386230,0.094743,-0.012651,-0.026994,1.000000,0.000047,-0.000747,0.000308,-0.191563,-0.706919,0.344990,-0.586985
05812,NaN,9.417609,-1.373850,-2.702470,-0.218604,0.289382,0.074204,0.056134,-0.139261,0.066147,-0.544434,-0.108154,0.388184,0.094199,-0.013700,-0.026963,1.000000,0.000281,-0.000696,0.000331,-0.190891,-0.707276,0.345203,-0.586648
05813,NaN,9.465084,-1.357144,-2.560628,-0.125422,0.153357,0.084141,0.098194,-0.126671,0.063913,-0.548584,-0.110352,0.388184,0.094671,-0.013529,-0.025553,1.000000,0.000491,-0.000633,0.000320,-0.190026,-0.707681,0.345245,-0.586416
05814,NaN,9.340328,-1.489457,-2.451236,0.036894,0.189310,-0.043780,0.122583,-0.121757,0.064706,-0.544189,-0.112549,0.384033,0.093423,-0.014849,-0.024465,1.000000,0.000613,-0.000609,0.000324,-0.189152,-0.708052,0.345242,-0.586253
05815,NaN,9.358858,-1.536810,-2.407348,0.102376,0.172968,-0.029798,0.148237,-0.118657,0.063773,-0.546387,-0.114746,0.388428,0.093608,-0.015320,-0.024029,0.999999,0.000741,-0.000593,0.000319,-0.188175,-0.708440,0.345151,-0.586152
05816,NaN,9.535513,-1.590092,-2.388408,0.165699,0.135740,0.142864,0.154187,-0.105806,0.063181,-0.546631,-0.104004,0.394531,0.095373,-0.015852,-0.023846,1.000000,0.000771,-0.000529,0.000316,-0.187221,-0.708795,0.345033,-0.586098
05817,NaN,9.421458,-1.631751,-2.281484,0.259860,0.110319,0.013398,0.148974,-0.087513,0.061825,-0.546387,-0.110352,0.386230,0.094230,-0.016271,-0.022786,1.000000,0.000745,-0.000438,0.000309,-0.186261,-0.709122,0.344887,-0.586094
05818,NaN,9.376412,-1.735296,-2.291616,0.320162,0.189551,-0.012615,0.125657,-0.078314,0.063282,-0.548584,-0.112549,0.392578,0.093779,-0.017309,-0.022890,1.000000,0.000628,-0.000392,0.000316,-0.185454,-0.709368,0.344828,-0.586086
05819,NaN,9.396646,-1.731512,-2.365302,0.265165,0.220447,0.024529,0.118093,-0.077135,0.049391,-0.544189,-0.112549,0.394775,0.093980,-0.017278,-0.023627,1.000000,0.000590,-0.000386,0.000247,-0.184736,-0.709623,0.344728,-0.586063
05820,NaN,9.409513,-1.730764,-2.415467,0.228425,0.240492,0.049307,0.119292,-0.061778,0.041887,-0.544189,-0.112549,0.390381,0.094106,-0.017274,-0.024136,1.000000,0.000596,-0.000309,0.000209,-0.184043,-0.709851,0.344596,-0.586083
05821,NaN,9.406193,-1.627612,-2.452689,0.128234,0.186965,0.040732,0.127684,-0.052626,0.026316,-0.544434,-0.110352,0.394775,0.094071,-0.016248,-0.024513,1.000000,0.000638,-0.000263,0.000132,-0.183389,-0.710129,0.344330,-0.586108
05822,NaN,9.353592,-1.572931,-2.436126,0.095619,0.145808,-0.021461,0.141919,-0.049144,0.014025,-0.548584,-0.110352,0.396973,0.093543,-0.015705,-0.024349,1.000000,0.000710,-0.000246,0.000070,-0.182719,-0.710388,0.344020,-0.586185
05823,NaN,9.360272,-1.475964,-2.392836,0.057831,0.041496,-0.039573,0.161780,-0.055114,0.009390,-0.546631,-0.104004,0.398926,0.093610,-0.014736,-0.023914,1.000000,0.000809,-0.000276,0.000047,-0.181964,-0.710733,0.343601,-0.586248
05824,NaN,9.579723,-1.419226,-2.311536,0.090517,-0.118542,0.142524,0.190963,-0.050279,0.010742,-0.542236,-0.108398,0.392578,0.095804,-0.014165,-0.023105,1.000000,0.000955,-0.000251,0.000054,-0.181127,-0.711044,0.343136,-0.586401
05825,NaN,9.440146,-1.335286,-2.214856,0.087578,-0.209771,-0.027328,0.201072,-0.056202,0.017915,-0.546631,-0.106201,0.396729,0.094409,-0.013322,-0.022135,0.999999,0.001005,-0.000281,0.000090,-0.180184,-0.711401,0.342648,-0.586545
05826,NaN,9.414012,-1.292778,-2.218500,0.051334,-0.237847,-0.057821,0.203041,-0.073551,0.020869,-0.542480,-0.104004,0.394531,0.094150,-0.012895,-0.022163,0.999999,0.001015,-0.000368,0.000104,-0.179233,-0.711773,0.342204,-0.586644
05827,NaN,9.232519,-1.413348,-2.249100,0.099061,-0.091982,-0.206589,0.182466,-0.091164,0.020780,-0.546875,-0.101807,0.403076,0.092337,-0.014103,-0.022462,0.999999,0.000912,-0.000456,0.000104,-0.178315,-0.712192,0.341816,-0.586641
05828,NaN,9.440624,-1.449097,-2.320545,0.089274,-0.087816,0.015563,0.176478,-0.096550,0.027514,-0.546875,-0.101807,0.398926,0.094419,-0.014458,-0.023173,0.999999,0.000882,-0.000483,0.000138,-0.177400,-0.712595,0.341493,-0.586617
05829,NaN,9.550277,-1.436197,-2.339060,0.075885,-0.126236,0.123104,0.173759,-0.091764,0.022933,-0.542480,-0.099609,0.396729,0.095515,-0.014331,-0.023359,1.000000,0.000869,-0.000459,0.000115,-0.176457,-0.713015,0.341135,-0.586600
05830,NaN,9.477670,-1.416175,-2.364116,0.038746,-0.113148,0.056786,0.154201,-0.084403,0.016417,-0.542480,-0.104004,0.394531,0.094788,-0.014136,-0.023612,1.000000,0.000771,-0.000422,0.000082,-0.175673,-0.713381,0.340827,-0.586570
05831,NaN,9.261940,-1.431566,-2.441018,-0.022754,-0.000567,-0.128114,0.130987,-0.083662,0.033047,-0.538330,-0.097656,0.403076,0.092632,-0.014284,-0.024381,1.000000,0.000655,-0.000418,0.000165,-0.174951,-0.713680,0.340640,-0.586530
05832,NaN,9.666767,-1.260191,-2.521588,-0.166605,-0.193641,0.253474,0.096589,-0.087296,0.049261,-0.533936,-0.097656,0.401123,0.096682,-0.012566,-0.025180,1.000000,0.000483,-0.000436,0.000246,-0.174272,-0.713946,0.340620,-0.586420
05833,NaN,9.446204,-1.399749,-2.592545,-0.137235,0.002378,0.081377,0.073754,-0.063357,0.023123,-0.542480,-0.101807,0.398926,0.094472,-0.013977,-0.025901,1.000000,0.000369,-0.000317,0.000116,-0.173690,-0.714252,0.340501,-0.586289
05834,NaN,9.378026,-1.400156,-2.566233,-0.123137,-0.002576,0.009644,0.076256,-0.058385,0.028988,-0.544678,-0.101807,0.398926,0.093790,-0.013978,-0.025640,1.000000,0.000381,-0.000292,0.000145,-0.173191,-0.714450,0.340442,-0.586229
