// Start Time: Unknown
// Update Rate: 100.0Hz
// Filter Profile: human (46.1)
// Firmware Version: 4.4.0
PacketCounter,SampleTimeFine,Acc_X,Acc_Y,Acc_Z,FreeAcc_X,FreeAcc_Y,FreeAcc_Z,Gyr_X,Gyr_Y,Gyr_Z,Mag_X,Mag_Y,Mag_Z,VelInc_X,VelInc_Y,VelInc_Z,OriInc_q0,OriInc_q1,OriInc_q2,OriInc_q3,Quat_q0,Quat_q1,Quat_q2,Quat_q3
54816,NaN,17.489301,6.881341,-2.660175,0.000000,-0.000000,9.167923,-3.123026,2.637521,-0.659997,-1.053223,0.135010,-0.124756,0.174737,0.067786,-0.029971,0.999786,-0.015614,0.013187,-0.003300,0.481309,-0.271641,-0.710748,-0.435190
54817,NaN,25.187321,8.361697,-8.081295,2.259353,-5.317339,17.320143,-2.942948,1.996076,-0.362005,-1.051270,0.137451,-0.147949,0.251191,0.081936,-0.084536,0.999840,-0.014714,0.009980,-0.001810,0.501047,-0.296811,-0.669102,-0.461691
54818,NaN,37.573272,7.190359,-10.779077,-1.321820,-9.874107,28.662049,-1.826967,2.255579,0.945473,-1.053711,0.145996,-0.173340,0.374138,0.072660,-0.112678,0.999884,-0.009134,0.011277,0.004727,0.508005,-0.299309,-0.657753,-0.468727
54819,NaN,42.744220,4.121710,-8.361809,-5.559407,-10.231390,32.354148,-1.005008,4.447207,1.253147,-1.039551,0.156982,-0.228516,0.425172,0.043433,-0.093304,0.999721,-0.005025,0.022234,0.006265,0.523333,-0.296389,-0.643504,-0.473475
54820,NaN,38.499067,1.461800,-6.129134,-6.626281,-10.327787,27.214667,-0.714801,4.707598,-0.287983,-1.035400,0.152832,-0.270752,0.383426,0.013824,-0.070380,0.999716,-0.003574,0.023536,-0.001440,0.536589,-0.286105,-0.629738,-0.483369
54821,NaN,39.926123,3.239185,-10.105590,-2.602828,-13.635195,29.094148,-0.538246,3.969184,-1.839792,-1.024170,0.131348,-0.314941,0.397424,0.028444,-0.109036,0.999757,-0.002691,0.019844,-0.009198,0.545758,-0.287073,-0.625353,-0.478195
54822,NaN,39.543080,3.747449,-18.046532,0.656120,-22.578501,27.503744,-3.846842,3.874023,-3.646717,-1.021729,0.116455,-0.346680,0.392381,0.026724,-0.188669,0.999461,-0.019231,0.019367,-0.018230,0.543337,-0.276753,-0.610484,-0.505472
54823,NaN,44.272173,11.817622,-11.388669,3.836397,-11.493821,35.800492,-9.559480,5.085225,-5.532300,-1.000244,0.095215,-0.401611,0.442482,0.099963,-0.130214,0.998152,-0.047768,0.025410,-0.027644,0.521456,-0.311233,-0.613375,-0.504965
54824,NaN,14.365353,15.534321,-10.552361,13.382005,-8.621638,7.653905,-8.605471,4.932511,-4.150313,-0.983398,0.093262,-0.441650,0.144002,0.147527,-0.115535,0.998555,-0.043007,0.024651,-0.020742,0.511964,-0.308039,-0.584373,-0.549102
54825,NaN,11.870224,18.648461,-7.680128,15.056521,-3.384230,7.772277,-6.050362,4.125280,-2.528787,-0.970947,0.097656,-0.477783,0.119332,0.182493,-0.084821,0.999250,-0.030244,0.020621,-0.012641,0.473403,-0.330289,-0.623695,-0.527071
54826,NaN,12.264202,14.158419,-3.560650,9.667346,-2.085134,6.482905,-6.625551,4.538381,-1.152590,-0.939941,0.123535,-0.516113,0.122530,0.139534,-0.043034,0.999177,-0.033119,0.022686,-0.005761,0.473187,-0.330145,-0.596889,-0.557514
54827,NaN,8.508017,21.269523,-7.503637,16.432836,-3.489181,7.464950,-7.468954,4.347437,-0.099013,-0.922363,0.172852,-0.544189,0.083413,0.209609,-0.084730,0.999066,-0.037333,0.021730,-0.000495,0.420700,-0.327032,-0.634378,-0.560023
54828,NaN,11.704071,18.335127,-7.228418,12.351418,-5.861979,8.575912,-8.863091,2.759916,0.574425,-0.900635,0.226318,-0.548828,0.115434,0.180196,-0.081919,0.998919,-0.044299,0.013795,0.002871,0.416117,-0.339411,-0.602142,-0.590823
54829,NaN,8.458717,8.614188,-10.347690,3.022697,-9.494531,2.572056,-9.685551,2.036998,0.749726,-0.885498,0.286377,-0.549316,0.083189,0.081286,-0.108345,0.998769,-0.048408,0.010181,0.003747,0.339543,-0.320279,-0.637474,-0.612991
54830,NaN,5.024339,1.467846,-11.712770,-1.566681,-11.805614,-5.054840,-10.284566,1.947792,0.743510,-0.865723,0.342041,-0.534912,0.049056,0.008802,-0.118163,0.998624,-0.051399,0.009734,0.003716,0.331097,-0.333692,-0.600594,-0.646769
54831,NaN,-0.301099,-1.666899,-12.709385,-1.797886,-12.665646,-10.599721,-9.419124,2.069672,0.733971,-0.852539,0.395752,-0.524902,-0.004244,-0.022638,-0.126081,0.998831,-0.047077,0.010344,0.003668,0.271157,-0.326832,-0.627979,-0.652148
54832,NaN,-8.943799,-14.118707,-12.260549,-6.373143,-11.162117,-26.067924,-7.729008,1.638109,0.217705,-0.838623,0.427734,-0.510498,-0.090251,-0.145861,-0.116291,0.999219,-0.038635,0.008188,0.001088,0.264170,-0.332396,-0.599717,-0.678282
54833,NaN,-10.710066,-13.951806,-12.156862,-4.636992,-12.747207,-26.337401,-5.463338,0.522164,-0.470311,-0.836914,0.444824,-0.489502,-0.107744,-0.142511,-0.117422,0.999621,-0.027313,0.002610,-0.002351,0.223312,-0.336826,-0.639456,-0.654046
54834,NaN,-7.230667,-10.790877,-10.213452,-4.587294,-9.996497,-22.143399,-3.803863,-0.527149,-0.873933,-0.845703,0.457520,-0.474609,-0.072517,-0.109511,-0.100253,0.999806,-0.019018,-0.002636,-0.004369,0.212320,-0.339937,-0.628954,-0.666168
54835,NaN,-8.322273,-9.486951,-7.161993,-2.257398,-8.873856,-21.069341,-2.593414,-0.940050,-1.104408,-0.850098,0.464111,-0.453613,-0.083414,-0.095331,-0.070778,0.999890,-0.012967,-0.004700,-0.005522,0.186796,-0.349011,-0.676117,-0.621422
54836,NaN,-9.804758,-7.889705,-5.885294,0.136324,-7.949778,-21.205648,-1.267827,-1.181039,-1.257705,-0.856201,0.457520,-0.445068,-0.098195,-0.078653,-0.058933,0.999943,-0.006339,-0.005905,-0.006288,0.176672,-0.349593,-0.675436,-0.624786
54837,NaN,-9.730294,-7.788655,-5.801767,0.414996,-9.306146,-19.923118,0.412315,-1.599588,-1.322766,-0.868408,0.444580,-0.430176,-0.097346,-0.077122,-0.058956,0.999944,0.002062,-0.007998,-0.006614,0.160734,-0.351183,-0.723767,-0.571837
54838,NaN,-8.351210,-6.741738,-3.938470,0.573070,-7.218604,-18.659034,2.086916,-1.948286,-1.321912,-0.878418,0.427490,-0.423584,-0.083560,-0.066444,-0.040895,0.999876,0.010434,-0.009741,-0.006609,0.153548,-0.350249,-0.733531,-0.561855
54839,NaN,-6.735852,-5.439074,-3.346315,0.687866,-6.912304,-15.968020,3.166124,-2.231144,-1.315036,-0.886230,0.401855,-0.416992,-0.067327,-0.053401,-0.035065,0.999791,0.015830,-0.011155,-0.006575,0.141252,-0.345540,-0.780533,-0.501416
54840,NaN,-3.436709,-6.059336,-2.825249,-1.970990,-5.533273,-14.502818,3.573259,-2.466900,-1.264852,-0.900391,0.378174,-0.406250,-0.034386,-0.059853,-0.029750,0.999744,0.017865,-0.012333,-0.006324,0.134591,-0.344176,-0.793219,-0.483975
54841,NaN,-0.386117,-7.505822,-2.152985,-4.906527,-4.856625,-13.480686,3.477246,-2.275046,-1.265782,-0.910400,0.356689,-0.401855,-0.004079,-0.074643,-0.022876,0.999764,0.017385,-0.011374,-0.006328,0.125264,-0.336079,-0.830284,-0.426601
54842,NaN,1.740865,-7.334176,-0.673912,-6.202011,-2.852114,-13.079434,3.158504,-1.871808,-1.215260,-0.918213,0.335205,-0.401611,0.017032,-0.073329,-0.007737,0.999813,0.015792,-0.009358,-0.006076,0.120186,-0.332986,-0.840080,-0.411025
54843,NaN,3.758309,-6.145232,1.603330,-6.821423,-0.311108,-12.610650,2.706326,-1.607150,-1.087963,-0.921875,0.320312,-0.393066,0.037121,-0.061867,0.015498,0.999861,0.013531,-0.008035,-0.005440,0.123960,-0.321719,-0.866992,-0.359800
54844,NaN,7.768988,-4.252651,5.021797,-8.606467,4.841614,-12.291667,1.871244,-1.129038,-0.834091,-0.923584,0.307373,-0.390869,0.077227,-0.043319,0.050252,0.999932,0.009356,-0.005645,-0.004170,0.120567,-0.318952,-0.872340,-0.350365
54845,NaN,12.408806,-2.168723,6.975271,-11.320274,8.861918,-10.620492,0.842334,-0.194818,-0.571627,-0.925781,0.305176,-0.392822,0.123957,-0.022335,0.069780,0.999987,0.004212,-0.000974,-0.002858,0.140082,-0.305799,-0.886848,-0.316805
54846,NaN,14.906762,0.329131,7.989509,-11.813714,12.086278,-9.099932,0.077933,0.778523,-0.577213,-0.917236,0.301025,-0.403320,0.149386,0.002829,0.079315,0.999988,0.000390,0.003893,-0.002886,0.142738,-0.301948,-0.887298,-0.318050
54847,NaN,15.822634,2.221648,8.354408,-12.097596,13.143974,-7.370138,-0.210891,1.288878,-0.714210,-0.919189,0.296631,-0.418213,0.158838,0.021737,0.082499,0.999972,-0.001054,0.006444,-0.003571,0.182063,-0.283032,-0.891997,-0.301807
54848,NaN,15.514796,4.153774,8.543849,-10.826537,14.266825,-6.619540,-0.421787,1.492413,-0.717397,-0.908447,0.292480,-0.426758,0.155927,0.041158,0.084190,0.999964,-0.002109,0.007462,-0.003587,0.187033,-0.277954,-0.890984,-0.306442
54849,NaN,13.810861,6.591281,12.539254,-9.829283,17.082189,-8.086329,-0.893525,2.338216,-0.608868,-0.898193,0.299072,-0.452148,0.139761,0.066043,0.123470,0.999917,-0.004468,0.011691,-0.003044,0.239977,-0.254466,-0.886327,-0.303453
54850,NaN,15.896442,7.835076,19.594978,-12.744383,23.128923,-10.588332,-1.476292,3.394826,-0.390031,-0.885742,0.305420,-0.477539,0.162407,0.079466,0.192629,0.999827,-0.007381,0.016973,-0.001950,0.252509,-0.249314,-0.880356,-0.314729
54851,NaN,22.270166,14.715091,1.506271,-7.720887,15.501679,10.552703,-1.036340,4.176191,-0.474011,-0.864502,0.301270,-0.509277,0.223289,0.146681,0.009643,0.999766,-0.005181,0.020879,-0.002370,0.319466,-0.219528,-0.863196,-0.323483
54852,NaN,1.188705,14.186170,-23.134148,17.188341,-6.144680,10.302450,0.233852,2.867281,-0.166230,-0.851807,0.299316,-0.526367,0.008689,0.142124,-0.231315,0.999896,0.001169,0.014336,-0.000831,0.331795,-0.213777,-0.859087,-0.325853
54853,NaN,-3.881489,-2.683348,-19.847339,10.786576,-16.120934,-3.493224,1.863372,0.509013,-0.167779,-0.851562,0.288574,-0.538818,-0.039342,-0.024951,-0.198612,0.999953,0.009317,0.002545,-0.000839,0.366263,-0.192558,-0.850943,-0.323526
54854,NaN,-3.734264,-7.319800,-28.208202,12.910015,-24.733529,-0.611831,4.585623,0.728728,-0.399975,-0.842041,0.254395,-0.551270,-0.038512,-0.066632,-0.283521,0.999729,0.022926,0.003643,-0.002000,0.373031,-0.181228,-0.857180,-0.305363
54855,NaN,-6.035302,-8.311216,-32.231890,17.808264,-26.996347,0.076843,8.282623,-0.123430,-0.809885,-0.848877,0.198486,-0.563477,-0.060452,-0.069431,-0.325421,0.999134,0.041401,-0.000617,-0.004048,0.384188,-0.158085,-0.868470,-0.270497
54856,NaN,1.314623,-17.329290,-16.872113,1.368389,-23.613954,-4.637462,9.409640,-1.836933,-0.599992,-0.864746,0.155762,-0.556885,0.014240,-0.165151,-0.176493,0.998847,0.047030,-0.009181,-0.002999,0.382395,-0.139714,-0.884191,-0.229041
54857,NaN,1.221186,-18.859411,-3.801945,-6.432315,-18.095859,-11.459133,5.085691,-4.895877,0.568526,-0.891602,0.142578,-0.499512,0.013750,-0.187514,-0.042473,0.999373,0.025423,-0.024474,0.002842,0.355782,-0.146675,-0.902407,-0.193824
54858,NaN,12.774230,-5.111251,-18.731318,-0.747145,-10.869774,10.710383,1.891789,-7.438505,1.327917,-0.923340,0.144775,-0.444580,0.134927,-0.048488,-0.182850,0.999242,0.009457,-0.037183,0.006638,0.324632,-0.156396,-0.915811,-0.177328
54859,NaN,17.567615,8.249161,-25.507772,2.996664,0.663918,22.087773,-1.815246,-5.726280,0.019580,-0.940186,0.148926,-0.404297,0.182888,0.080221,-0.250645,0.999549,-0.009075,-0.028627,0.000098,0.290790,-0.170547,-0.926697,-0.166096
54860,NaN,24.782151,16.164674,-23.034888,-2.055956,10.280254,26.187109,-2.425908,-3.809457,-0.871953,-0.957031,0.150879,-0.370361,0.252867,0.157780,-0.227494,0.999736,-0.012128,-0.019046,-0.004359,0.270271,-0.173152,-0.930719,-0.175310
54861,NaN,14.180766,14.086960,-9.015591,-1.814326,12.721046,7.950049,4.288272,-5.334486,0.048224,-0.979492,0.129395,-0.315186,0.144056,0.142739,-0.083286,0.999414,0.021437,-0.026667,0.000241,0.244273,-0.177370,-0.942778,-0.141563
54862,NaN,17.780085,7.156951,3.123388,-13.263678,12.435012,-3.015299,10.286720,-7.227357,0.729796,-0.987305,0.114014,-0.253662,0.176172,0.070263,0.041260,0.998018,0.051400,-0.036113,0.003647,0.219376,-0.173013,-0.956361,-0.085528
54863,NaN,20.523010,3.332844,3.291275,-17.643709,9.813137,-3.867183,11.458981,-5.352569,1.727075,-1.001953,0.111816,-0.224121,0.203932,0.032926,0.040280,0.997964,0.057256,-0.026745,0.008630,0.207321,-0.165399,-0.963994,-0.019418
54864,NaN,15.150700,4.774776,-5.477995,-9.370696,9.098932,0.751998,8.564458,-3.465310,2.714238,-1.002441,0.126709,-0.194580,0.151714,0.052016,-0.049985,0.998841,0.042806,-0.017320,0.013566,0.197728,-0.169747,-0.965055,0.027546
54865,NaN,18.957301,5.706854,-13.421802,-9.526629,11.904009,8.607999,5.401704,-4.489859,4.032961,-0.996826,0.160889,-0.156738,0.191247,0.064433,-0.128262,0.999180,0.027001,-0.022443,0.020159,0.190438,-0.162551,-0.965943,0.065297
54866,NaN,26.535076,18.065819,-13.756626,-12.735647,27.434948,7.634397,2.774020,-4.981025,4.069512,-0.995361,0.192871,-0.114746,0.264851,0.187875,-0.128392,0.999387,0.013867,-0.024900,0.020343,0.167195,-0.177835,-0.965881,0.086574
54867,NaN,36.711610,22.470118,-13.884615,-21.430070,34.299934,10.425743,-5.233414,-0.564178,2.593720,-0.996338,0.218750,-0.121338,0.364594,0.225722,-0.143713,0.999570,-0.026163,-0.002820,0.012967,0.174551,-0.162104,-0.969169,0.062983
54868,NaN,35.082157,22.508240,-3.498110,-22.587507,33.108876,2.115286,-9.858502,3.244857,0.534774,-0.998535,0.227295,-0.110840,0.349473,0.223743,-0.051714,0.998650,-0.049270,0.016217,0.002673,0.181877,-0.174097,-0.967700,0.012985
54869,NaN,18.872661,14.712899,-14.098250,-8.326439,17.967339,9.656197,-2.079369,-5.608624,-2.637419,-1.001709,0.197021,-0.049316,0.194513,0.143150,-0.137083,0.999466,-0.010395,-0.028038,-0.013185,0.181746,-0.107510,-0.977449,-0.001843
54870,NaN,23.545836,8.112909,4.512035,-21.663681,12.697484,-6.685357,5.228008,-5.036058,-2.174278,-1.007324,0.179688,-0.015137,0.235042,0.077253,0.053097,0.999282,0.026134,-0.025174,-0.010869,0.159799,-0.092106,-0.982539,0.024434
54871,NaN,35.010157,-4.952222,25.086756,-41.751024,-4.235164,-20.678872,4.407490,-3.899488,-1.488208,-1.004883,0.168945,0.001709,0.344729,-0.057711,0.256413,0.999539,0.022034,-0.019494,-0.007440,0.169792,-0.015199,-0.984715,0.035728
54872,NaN,29.085825,-3.417782,15.208769,-32.538960,-3.634511,-13.922614,4.237145,0.783403,-1.065477,-1.000488,0.162598,-0.015137,0.291250,-0.038924,0.150156,0.999754,0.021184,0.003917,-0.005327,0.174120,-0.006493,-0.983131,0.055616
54873,NaN,14.906982,1.333564,6.396230,-16.181296,-1.728526,-9.540645,3.455142,1.408631,-0.726515,-0.998291,0.156250,-0.027832,0.149561,0.011698,0.063122,0.999819,0.017275,0.007043,-0.003632,0.210660,0.087334,-0.971248,0.068361
54874,NaN,7.730839,-5.550302,2.985932,-6.957159,-7.059338,-8.695010,2.690558,-1.096586,-0.574895,-0.998291,0.164795,-0.010986,0.076985,-0.056123,0.029530,0.999890,0.013452,-0.005483,-0.002874,0.204334,0.093324,-0.971125,0.080335
54875,NaN,8.694692,-0.877561,8.164790,-10.197037,-5.314644,-13.098465,1.621507,-2.769132,-0.107288,-0.995850,0.156006,0.008057,0.085801,-0.009490,0.082766,0.999871,0.008107,-0.013845,-0.000536,0.213094,0.177265,-0.957188,0.083419
54876,NaN,6.905102,2.831403,4.368097,-8.544206,-0.549491,-11.024801,1.919055,-1.518353,0.260335,-0.995850,0.158203,0.018799,0.068679,0.027979,0.044473,0.999924,0.009595,-0.007592,0.001302,0.204003,0.178683,-0.958164,0.091529
54877,NaN,4.488719,4.092246,2.068189,-6.342463,0.971107,-9.850525,2.149839,-0.530953,0.276635,-0.989990,0.173340,0.022705,0.044775,0.040758,0.021240,0.999938,0.010749,-0.002655,0.001383,0.216840,0.252713,-0.937786,0.098354
54878,NaN,-3.772389,7.495829,-0.088304,-0.894142,8.034041,-12.066566,1.466173,-0.612645,0.692664,-0.992188,0.175293,0.027100,-0.037981,0.074831,-0.000450,0.999962,0.007331,-0.003063,0.003463,0.211767,0.251346,-0.938569,0.105202
54879,NaN,-0.130965,8.739806,3.474894,-6.548140,5.731576,-13.382626,1.607453,-0.964806,0.747178,-0.983887,0.181641,0.039551,-0.001805,0.087109,0.035442,0.999949,0.008037,-0.004824,0.003736,0.217274,0.315060,-0.917610,0.107340
54880,NaN,3.535818,10.230549,6.540610,-11.013237,3.887862,-14.663858,1.365179,-1.117054,0.804627,-0.981934,0.192383,0.048096,0.034579,0.101995,0.066298,0.999953,0.006826,-0.005585,0.004023,0.209557,0.313436,-0.919315,0.112713
54881,NaN,5.097692,11.820919,9.350056,-14.518693,1.755792,-16.078634,0.622973,-1.531663,0.830533,-0.977783,0.198730,0.058594,0.049766,0.118125,0.094253,0.999957,0.003115,-0.007658,0.004153,0.210703,0.373183,-0.897095,0.107511
54882,NaN,4.942170,12.057035,7.805262,-14.027161,2.676496,-14.988574,-0.016609,-1.334263,0.963046,-0.975830,0.205322,0.066895,0.048318,0.120811,0.078367,0.999966,-0.000083,-0.006671,0.004815,0.204226,0.369550,-0.900276,0.105959
54883,NaN,2.992473,8.974529,6.438798,-10.544498,1.113697,-14.116990,-0.192770,-0.692797,0.879750,-0.976074,0.209473,0.075439,0.029306,0.089937,0.064404,0.999984,-0.000964,-0.003464,0.004399,0.209534,0.426850,-0.874257,0.097819
54884,NaN,3.891046,4.418177,8.948456,-8.147716,-3.150521,-16.011422,0.153573,0.458204,0.667062,-0.969971,0.218018,0.064697,0.038968,0.044243,0.089429,0.999992,0.000768,0.002291,0.003335,0.210882,0.423867,-0.875118,0.100167
54885,NaN,3.455171,3.300478,9.325915,-6.960499,-4.384907,-16.303229,-0.100566,1.107451,0.131211,-0.972168,0.220215,0.058350,0.035046,0.033074,0.093049,0.999984,-0.000503,0.005537,0.000656,0.222449,0.477831,-0.844312,0.096594
54886,NaN,7.924565,2.111815,9.002972,-7.900781,-8.347981,-13.837181,-0.645768,1.760330,-0.137387,-0.976318,0.211670,0.041504,0.080048,0.021352,0.089259,0.999956,-0.003229,0.008802,-0.000687,0.231481,0.476821,-0.842301,0.097917
54887,NaN,7.418405,-1.257584,9.485464,-4.175724,-10.385362,-14.426312,-0.846347,2.938827,-0.174793,-0.972168,0.211914,0.013916,0.075557,-0.012243,0.093803,0.999883,-0.004232,0.014694,-0.000874,0.251216,0.520775,-0.809919,0.098568
54888,NaN,7.068607,-0.448738,6.171560,-3.834327,-8.432472,-11.374035,-0.891850,3.367356,-0.223753,-0.974121,0.201172,-0.015625,0.071707,-0.004296,0.060533,0.999848,-0.004459,0.016836,-0.001119,0.267247,0.518822,-0.805422,0.103429
54889,NaN,7.105552,3.155798,3.403326,-5.646330,-6.131627,-8.217449,-0.904832,3.523481,-0.296610,-0.971924,0.199219,-0.049316,0.071685,0.031602,0.032631,0.999833,-0.004524,0.017616,-0.001483,0.288448,0.550760,-0.775599,0.109125
54890,NaN,11.596745,5.532920,-4.938267,-5.933320,-4.569948,1.735984,-0.733470,3.920067,-0.793269,-0.971924,0.188477,-0.085205,0.115185,0.054684,-0.051847,0.999793,-0.003667,0.019599,-0.003966,0.306043,0.550525,-0.768001,0.115909
54891,NaN,14.676412,9.084878,-8.456936,-7.542923,-4.055247,7.393870,-0.403197,4.203501,-1.660702,-0.973389,0.167236,-0.116699,0.145688,0.089461,-0.087820,0.999743,-0.002016,0.021016,-0.008303,0.328080,0.580008,-0.734956,0.125678
54892,NaN,24.793958,8.526510,-5.603494,-8.413237,-13.144710,11.985190,-1.514346,3.944792,-1.867189,-0.966797,0.150146,-0.156738,0.247541,0.082501,-0.061552,0.999733,-0.007571,0.019722,-0.009335,0.348054,0.581750,-0.723826,0.128457
54893,NaN,24.233124,-2.614929,-1.114059,2.423751,-18.006051,6.471214,-3.995616,3.715792,-1.388456,-0.964600,0.145996,-0.182129,0.241885,-0.028105,-0.015089,0.999604,-0.019975,0.018577,-0.006941,0.378821,0.595427,-0.697146,0.126289
54894,NaN,18.744001,-3.806708,4.013565,2.043745,-17.149981,-0.668529,-3.212311,3.391551,-0.795947,-0.958252,0.144043,-0.203369,0.187940,-0.038197,0.037564,0.999719,-0.016060,0.016956,-0.003979,0.400602,0.589808,-0.690185,0.123647
54895,NaN,16.848654,0.298537,-1.733267,1.209033,-10.424631,3.483894,-1.515854,3.852139,-0.404323,-0.945801,0.146240,-0.243652,0.168116,0.002497,-0.020593,0.999784,-0.007579,0.019259,-0.002021,0.426116,0.588281,-0.674276,0.133052
54896,NaN,23.506826,4.070865,-2.470787,-1.142841,-12.854424,10.402014,-1.142769,3.708273,-0.113139,-0.939453,0.144043,-0.273193,0.234576,0.040417,-0.029292,0.999812,-0.005713,0.018540,-0.000566,0.441975,0.583649,-0.666675,0.139841
54897,NaN,29.874271,8.231675,-1.494943,-4.245273,-15.233655,16.875863,-0.632947,3.515306,-0.295893,-0.926514,0.135742,-0.302734,0.298537,0.081816,-0.020458,0.999839,-0.003165,0.017576,-0.001479,0.464963,0.574210,-0.656913,0.150192
54898,NaN,31.114115,9.033642,-2.825940,-3.685781,-13.908454,19.350972,-0.383922,3.911657,-0.151018,-0.914062,0.135742,-0.332520,0.310575,0.090040,-0.034511,0.999807,-0.001919,0.019557,-0.000755,0.478938,0.570764,-0.647547,0.159782
54899,NaN,36.606791,7.538003,-4.086562,-0.614588,-14.628730,24.813936,-1.526603,3.735450,-0.968661,-0.907471,0.127197,-0.362061,0.365571,0.073259,-0.048262,0.999785,-0.007632,0.018676,-0.004843,0.507754,0.552020,-0.640738,0.164056
54900,NaN,44.229066,-3.240798,-8.790452,13.257680,-17.875950,29.537391,-1.382545,2.822643,-2.338497,-0.900635,0.108154,-0.380859,0.440570,-0.038201,-0.093880,0.999808,-0.006912,0.014112,-0.011692,0.522435,0.553580,-0.628128,0.161451
54901,NaN,35.874947,-7.178342,-6.333856,14.761651,-15.998935,20.263647,0.648961,1.333865,-4.041074,-0.895264,0.071533,-0.389160,0.356770,-0.078795,-0.065971,0.999768,0.003245,0.006669,-0.020204,0.541905,0.540804,-0.624655,0.153869
54902,NaN,30.034239,3.516886,-12.739902,9.722810,-4.292125,21.225723,-4.654012,1.047370,-5.057515,-0.896729,0.048096,-0.401611,0.300378,0.024573,-0.129626,0.999396,-0.023265,0.005236,-0.025282,0.561323,0.542856,-0.611346,0.128376
54903,NaN,27.081877,18.598627,-17.730391,3.402505,8.820741,26.270058,-12.546937,6.865201,-3.719663,-0.855713,0.082520,-0.467529,0.267517,0.169012,-0.197495,0.997271,-0.062678,0.034295,-0.018581,0.628623,0.479923,-0.605418,0.089307
54904,NaN,4.589628,22.208640,-3.664580,-11.043411,12.645049,5.858234,-7.050878,5.681223,-0.932310,-0.843506,0.097656,-0.501465,0.045713,0.220367,-0.045737,0.998964,-0.035242,0.028396,-0.004660,0.662495,0.457556,-0.587850,0.078579
54905,NaN,19.055168,12.305711,-5.384847,2.284205,3.416005,13.132192,-5.525877,3.648221,-0.544645,-0.825439,0.129883,-0.525146,0.189818,0.120926,-0.060677,0.999448,-0.027624,0.018238,-0.002723,0.692905,0.416612,-0.585273,0.061416
54906,NaN,15.183239,16.577430,-9.208401,2.993369,10.998812,11.632085,-7.329554,3.973909,0.062555,-0.805420,0.168457,-0.544434,0.149832,0.162227,-0.101065,0.999131,-0.036637,0.019864,0.000313,0.719175,0.389460,-0.573379,0.048414
54907,NaN,10.342512,12.037552,-9.837522,5.948057,10.796693,4.206207,-7.225769,3.281120,0.655363,-0.783447,0.213623,-0.557617,0.101359,0.117012,-0.104318,0.999208,-0.036119,0.016401,0.003276,0.746227,0.344091,-0.569072,0.030062
54908,NaN,5.201071,5.897703,-7.074233,5.410110,6.569879,-3.536219,-7.521195,2.607926,0.966352,-0.774414,0.262939,-0.555908,0.050787,0.056493,-0.073566,0.999196,-0.037596,0.013036,0.004830,0.765839,0.312617,-0.561676,0.016735
54909,NaN,1.045971,-0.988635,-8.532248,8.126550,2.664543,-11.111789,-8.201691,2.147938,0.956899,-0.756836,0.320801,-0.550049,0.009604,-0.013328,-0.084929,0.999090,-0.040996,0.010736,0.004783,0.786088,0.267470,-0.557236,-0.003713
54910,NaN,-7.092775,-8.672335,-10.912470,9.170352,-1.276902,-22.412092,-7.944165,1.776949,0.834979,-0.747559,0.359375,-0.546143,-0.071498,-0.091245,-0.104926,0.999163,-0.039710,0.008882,0.004174,0.801019,0.233737,-0.550753,-0.020179
54911,NaN,-10.264794,-14.378338,-10.226507,7.793968,-7.045682,-27.310561,-6.485087,0.675756,0.023182,-0.750244,0.385010,-0.525146,-0.102965,-0.147002,-0.097185,0.999469,-0.032420,0.003378,0.000116,0.810724,0.197135,-0.549599,-0.042480
54912,NaN,-7.189291,-9.102553,-10.244897,7.667293,-3.767692,-22.715676,-4.775951,-0.385212,-0.625394,-0.752686,0.395508,-0.506348,-0.071987,-0.093214,-0.100379,0.999708,-0.023877,-0.001926,-0.003127,0.814006,0.179355,-0.549366,-0.058503
54913,NaN,-5.623692,-6.368504,-8.230963,5.888054,-2.824492,-19.675737,-3.258480,-1.046652,-0.906194,-0.754883,0.406250,-0.491455,-0.056101,-0.064763,-0.081554,0.999843,-0.016292,-0.005233,-0.004531,0.812937,0.154788,-0.555699,-0.079831
54914,NaN,-6.273393,-2.695470,-5.556214,2.975969,0.235492,-18.094001,-2.227103,-1.426510,-1.089820,-0.769775,0.408447,-0.480957,-0.062485,-0.027234,-0.055706,0.999898,-0.011135,-0.007132,-0.005449,0.810181,0.148177,-0.559705,-0.091543
54915,NaN,-8.057567,-3.367042,-4.659766,1.613496,-0.142850,-19.577428,-1.399878,-1.659322,-1.284594,-0.778076,0.404053,-0.449219,-0.080402,-0.033482,-0.047030,0.999920,-0.006999,-0.008296,-0.006423,0.804379,0.132173,-0.568760,-0.109623
54916,NaN,-8.917574,-4.228975,-5.346814,2.083725,-0.550752,-20.828479,-0.432587,-1.904470,-1.361181,-0.796875,0.393311,-0.440430,-0.088947,-0.041801,-0.054225,0.999929,-0.002163,-0.009522,-0.006806,0.798449,0.133250,-0.575239,-0.117576
54917,NaN,-8.327443,-4.190083,-5.904200,2.790180,-1.332182,-20.405023,0.543058,-2.075151,-1.348640,-0.802734,0.380371,-0.431885,-0.082934,-0.041179,-0.060016,0.999920,0.002715,-0.010375,-0.006743,0.772841,0.067807,-0.596066,-0.206943
54918,NaN,-6.946272,-4.351257,-5.303500,2.712382,-1.857098,-19.004990,1.519621,-2.262364,-1.345690,-0.816895,0.358887,-0.414795,-0.069143,-0.042638,-0.054145,0.999885,0.007598,-0.011311,-0.006728,0.764105,0.075340,-0.605851,-0.208355
54919,NaN,-6.779769,-5.334138,-3.457016,0.556660,-2.693882,-18.689135,2.623079,-2.585415,-1.345264,-0.822754,0.339600,-0.408203,-0.067692,-0.052419,-0.036137,0.999808,0.013115,-0.012926,-0.006726,0.730527,0.022761,-0.624381,-0.275611
54920,NaN,-5.871064,-4.550015,-1.252170,-0.759204,-1.708945,-17.108662,3.651300,-3.215649,-1.348207,-0.845215,0.313721,-0.391113,-0.058794,-0.044854,-0.014289,0.999681,0.018255,-0.016077,-0.006740,0.717986,0.035867,-0.640801,-0.269414
54921,NaN,-0.944293,-2.873079,1.307722,-2.419218,-1.319841,-11.617905,4.513562,-3.657163,-1.205488,-0.859375,0.288086,-0.371826,-0.009846,-0.028955,0.012248,0.999560,0.022564,-0.018283,-0.006027,0.680501,-0.006122,-0.662110,-0.313833
54922,NaN,5.979972,-4.113173,4.414571,-6.246699,-4.003071,-5.676076,4.724830,-3.458589,-1.043084,-0.873291,0.260010,-0.358887,0.058817,-0.042484,0.044176,0.999558,0.023621,-0.017290,-0.005215,0.667264,0.007981,-0.681025,-0.301497
54923,NaN,9.534120,-9.196658,5.523810,-10.838178,-7.935606,-4.759447,4.480362,-2.636127,-0.843803,-0.876709,0.238770,-0.356689,0.094228,-0.093591,0.054400,0.999653,0.022399,-0.013179,-0.004219,0.636222,-0.028406,-0.696401,-0.330817
54924,NaN,14.121536,-9.418515,6.561890,-12.708693,-9.599165,-1.008422,3.454324,-1.508508,-0.931301,-0.882568,0.219482,-0.350098,0.140279,-0.095966,0.065032,0.999812,0.017271,-0.007542,-0.004656,0.629804,-0.016665,-0.706911,-0.321475
54925,NaN,18.983892,-5.264011,6.824973,-13.007819,-6.738635,5.021560,1.844960,-0.135642,-1.153881,-0.880127,0.206543,-0.354248,0.189482,-0.054361,0.067882,0.999941,0.009225,-0.000678,-0.005769,0.609777,-0.050944,-0.708778,-0.351014
54926,NaN,21.303949,-2.318585,5.812691,-11.304587,-6.260691,8.243264,0.865960,1.109457,-1.268259,-0.875244,0.187256,-0.366699,0.213203,-0.024785,0.056839,0.999955,0.004330,0.005547,-0.006341,0.611680,-0.041860,-0.707203,-0.352078
54927,NaN,20.128789,-0.139824,3.370302,-8.242882,-5.026154,8.168498,0.726585,1.628099,-1.320332,-0.873047,0.174561,-0.387939,0.201538,-0.002847,0.032054,0.999938,0.003633,0.008140,-0.006602,0.599526,-0.069022,-0.701200,-0.379636
54928,NaN,18.107681,3.108059,6.619424,-8.350837,-0.458947,7.833820,0.068829,2.133777,-1.136136,-0.866455,0.170166,-0.408936,0.181942,0.030026,0.064267,0.999927,0.000344,0.010669,-0.005681,0.604834,-0.060777,-0.695272,-0.383508
54929,NaN,10.958215,2.618730,7.053722,-6.685063,2.385293,1.425605,-0.812323,3.215268,-0.372137,-0.849609,0.166016,-0.440674,0.110745,0.026263,0.068656,0.999861,-0.004061,0.016076,-0.001861,0.601816,-0.084469,-0.681117,-0.408365
54930,NaN,-10.653619,2.585564,-13.145809,14.161279,-2.676934,-19.045889,0.035545,4.009171,-1.084867,-0.832275,0.151123,-0.466064,-0.109000,0.026466,-0.129285,0.999784,0.000178,0.020044,-0.005424,0.613143,-0.072464,-0.669434,-0.413113
54931,NaN,-8.926553,-3.548629,-27.299348,20.081999,-16.919344,-21.973918,2.471666,2.264922,-0.915994,-0.825439,0.134033,-0.489258,-0.092503,-0.031699,-0.272365,0.999849,0.012358,0.011324,-0.004580,0.609638,-0.077493,-0.665779,-0.423172
54932,NaN,-0.401791,8.570411,-27.638855,26.178533,-12.301969,-8.905256,2.278373,1.097539,-0.501242,-0.824951,0.114746,-0.486816,-0.005311,0.088857,-0.275361,0.999917,0.011392,0.005488,-0.002506,0.613067,-0.066551,-0.667390,-0.417505
54933,NaN,10.136485,0.834298,-8.671301,4.246255,-9.274089,-1.177290,5.111832,-2.966944,-0.835267,-0.842529,0.076172,-0.446289,0.102674,0.010102,-0.084953,0.999555,0.025555,-0.014833,-0.004176,0.594532,-0.070871,-0.686176,-0.413123
54934,NaN,19.262009,14.095242,2.803408,-0.572666,4.196031,13.827081,9.697053,-8.639330,-1.202703,-0.866455,0.026611,-0.390869,0.191811,0.137950,0.043076,0.997874,0.048451,-0.043166,-0.006009,0.564604,-0.055624,-0.730820,-0.379512
54935,NaN,27.231671,20.346179,-11.393197,8.953040,-1.706490,24.857089,7.145382,-0.948708,-1.304851,-0.854736,-0.011963,-0.418213,0.274167,0.205543,-0.105314,0.999329,0.035719,-0.004742,-0.006523,0.554264,-0.047247,-0.746480,-0.365139
54936,NaN,-0.943963,1.399843,-35.699870,30.071843,-18.871632,-5.778772,6.296595,4.142280,-0.550697,-0.851807,-0.039795,-0.424316,-0.016762,0.025259,-0.356025,0.999286,0.031475,0.020706,-0.002753,0.569812,-0.020151,-0.746090,-0.343886
54937,NaN,1.462451,-11.081869,-27.456700,18.159683,-23.411559,-9.557964,10.405161,-3.316717,1.057781,-0.869873,-0.065674,-0.362793,0.019769,-0.096262,-0.279530,0.998496,0.052000,-0.016575,0.005286,0.556423,-0.008818,-0.772622,-0.305566
54938,NaN,1.461940,-15.038564,-6.894443,0.307991,-16.172152,-13.559516,6.817260,-7.955420,2.315525,-0.897461,-0.061523,-0.294922,0.019200,-0.147731,-0.073309,0.998561,0.034070,-0.039758,0.011572,0.528745,-0.010938,-0.803939,-0.272013
54939,NaN,19.910869,-11.160683,-13.912123,-1.307018,-20.534708,7.244393,6.292818,-6.237638,1.427499,-0.907227,-0.074463,-0.237793,0.204157,-0.105844,-0.136196,0.998993,0.031454,-0.031178,0.007135,0.502075,-0.021501,-0.828360,-0.247545
54940,NaN,13.651113,-5.559372,-8.234344,-1.707571,-11.029027,2.854211,6.832337,-4.775047,0.729452,-0.919434,-0.085449,-0.188965,0.138649,-0.052310,-0.080874,0.999125,0.034152,-0.023868,0.003646,0.483506,-0.013265,-0.847992,-0.216694
54941,NaN,13.120832,-3.360482,-5.499119,-3.576038,-7.032423,2.490536,10.038205,-5.216665,2.066544,-0.923828,-0.072754,-0.132080,0.132929,-0.029539,-0.053089,0.998347,0.050163,-0.026069,0.010327,0.462181,-0.014424,-0.870021,-0.171011
54942,NaN,18.678311,-2.263399,-9.076311,-4.152218,-6.647704,9.544365,10.529853,-4.946143,3.009749,-0.926270,-0.057861,-0.079346,0.189233,-0.015148,-0.087031,0.998196,0.052618,-0.024716,0.015040,0.443179,-0.007392,-0.888653,-0.117615
54943,NaN,17.236487,-5.825984,-15.062786,0.344876,-9.561896,11.776683,7.653070,-3.572599,2.987365,-0.931152,-0.032227,-0.043457,0.175830,-0.049913,-0.149524,0.998997,0.038253,-0.017857,0.014932,0.428923,-0.015722,-0.899808,-0.078254
54944,NaN,17.278592,3.151734,-13.907641,-0.279864,0.707734,12.575344,0.958193,-3.901120,3.509839,-0.934082,-0.000244,-0.001465,0.174856,0.035229,-0.135516,0.999644,0.004790,-0.019503,0.017547,0.412674,-0.030979,-0.907950,-0.066082
54945,NaN,32.272945,19.735336,-14.085551,-8.015542,17.934760,25.450699,-8.849742,-4.580555,4.679780,-0.936768,0.029541,0.023682,0.321339,0.198610,-0.142256,0.998485,-0.044226,-0.022891,0.023387,0.391333,-0.079461,-0.911765,-0.096063
54946,NaN,39.294125,37.823810,-21.672608,-1.565204,32.943217,38.713345,-12.607093,-0.876578,3.554570,-0.933350,0.053223,0.021484,0.387321,0.370573,-0.238551,0.997846,-0.062990,-0.004380,0.017760,0.383202,-0.120556,-0.904052,-0.145990
54947,NaN,42.705836,30.157770,-3.651972,-15.940329,31.467925,28.944359,-4.656980,-1.162600,2.553363,-0.929443,0.068115,0.042480,0.423400,0.306077,-0.041144,0.999631,-0.023282,-0.005812,0.012765,0.377212,-0.140945,-0.901256,-0.159951
54948,NaN,35.653335,2.527261,-7.679148,-18.505653,4.240222,21.428855,0.883825,-1.887650,0.254776,-0.927246,0.065918,0.052979,0.357203,0.026056,-0.073308,0.999945,0.004419,-0.009438,0.001274,0.369515,-0.141929,-0.905291,-0.154149
54949,NaN,26.873085,1.325093,2.164325,-19.405142,5.841964,8.017147,3.540411,-0.610367,-0.873897,-0.922607,0.055176,0.059326,0.268716,0.011681,0.022679,0.999829,0.017701,-0.003052,-0.004369,0.368696,-0.133250,-0.909318,-0.139462
54950,NaN,31.206989,7.164261,10.605942,-26.581308,14.292217,5.233411,7.351874,-4.140685,-2.321724,-0.913574,0.044434,0.101807,0.310523,0.063914,0.114945,0.999043,0.036748,-0.020697,-0.011605,0.352805,-0.111909,-0.922747,-0.107434
54951,NaN,25.476558,-0.739441,23.149040,-33.375630,8.438864,-10.024177,4.874955,-2.602558,-1.998301,-0.911377,0.037842,0.097656,0.251599,-0.015610,0.234465,0.999568,0.024371,-0.013011,-0.009990,0.342950,-0.097499,-0.930188,-0.087350
54952,NaN,21.813748,3.762784,19.243877,-27.465468,10.284656,-9.454786,3.319182,1.416665,-0.962138,-0.911133,0.033691,0.086914,0.219663,0.033390,0.191464,0.999826,0.016595,0.007083,-0.004810,0.350680,-0.086699,-0.929513,-0.074239
54953,NaN,7.711776,-1.376452,2.112716,-7.289961,-0.058156,-6.251893,2.846131,2.033767,0.319762,-0.911621,0.042236,0.074219,0.077348,-0.013932,0.020144,0.999846,0.014230,0.010168,0.001599,0.362639,-0.085939,-0.925880,-0.062079
54954,NaN,1.324407,1.843434,-0.659701,-0.152405,1.848859,-8.347821,1.781269,-0.517902,0.617588,-0.905273,0.046631,0.089111,0.013204,0.018533,-0.006398,0.999952,0.008906,-0.002589,0.003088,0.361186,-0.085727,-0.927060,-0.052488
54955,NaN,8.521276,10.153369,7.903001,-9.338574,12.281620,-9.476909,0.929289,0.318324,0.298806,-0.909668,0.046631,0.067871,0.085187,0.101293,0.079365,0.999987,0.004646,0.001592,0.001494,0.364301,-0.088620,-0.925787,-0.048486
54956,NaN,-5.592352,6.471541,-2.247529,6.750885,5.305488,-11.929109,1.938772,1.875810,0.089483,-0.905518,0.055176,0.063477,-0.056156,0.064901,-0.021321,0.999909,0.009694,0.009379,0.000447,0.373835,-0.085042,-0.922714,-0.040175
54957,NaN,-3.500558,10.388223,2.623355,2.617780,10.097157,-14.084026,0.982363,0.356097,0.496649,-0.905762,0.057373,0.059326,-0.035216,0.103664,0.026806,0.999983,0.004912,0.001780,0.002483,0.376985,-0.086983,-0.921444,-0.035459
54958,NaN,-1.836028,10.711041,5.731839,-0.704025,10.997574,-15.244728,1.147500,0.644960,0.520663,-0.899414,0.059570,0.052979,-0.018452,0.106731,0.057991,0.999975,0.005737,0.003225,0.002603,0.380543,-0.087105,-0.920180,-0.029471
54959,NaN,0.790046,12.570026,6.155399,-2.593142,13.181205,-13.818603,1.280725,0.089469,0.341649,-0.893066,0.063721,0.048584,0.007714,0.125316,0.062354,0.999978,0.006404,0.000447,0.001708,0.382300,-0.085807,-0.919749,-0.023366
54960,NaN,2.441484,12.686964,6.237654,-3.845856,13.485950,-12.840112,0.802718,-0.349229,0.298401,-0.895508,0.070312,0.057129,0.024116,0.126654,0.062927,0.999989,0.004014,-0.001746,0.001492,0.381074,-0.085687,-0.920370,-0.018953
54961,NaN,2.996254,10.214720,6.884686,-5.174268,11.158611,-12.883373,0.274391,0.027290,0.337561,-0.888916,0.063721,0.052979,0.029800,0.102103,0.068983,0.999998,0.001372,0.000136,0.001688,0.381923,-0.084569,-0.920154,-0.017320
54962,NaN,2.220323,6.610478,6.481177,-4.955659,7.467303,-13.024302,-0.245939,1.013175,0.524944,-0.891357,0.068115,0.038086,0.022357,0.066243,0.064617,0.999983,-0.001230,0.005066,0.002625,0.386524,-0.087367,-0.917958,-0.017877
54963,NaN,2.964704,2.676888,5.724703,-5.636121,3.643149,-11.733056,-0.278311,2.009715,0.837208,-0.885010,0.070312,0.027344,0.030107,0.026974,0.056909,0.999940,-0.001392,0.010048,0.004186,0.396210,-0.088699,-0.913677,-0.018578
54964,NaN,3.318236,0.521720,5.216370,-5.906793,1.531017,-10.934232,0.872570,1.981599,0.191665,-0.885010,0.070312,0.010498,0.033692,0.005023,0.051854,0.999941,0.004363,0.009908,0.000958,0.405649,-0.087660,-0.909691,-0.015090
54965,NaN,3.468542,2.993874,7.177423,-7.097981,4.114803,-12.091662,0.956356,2.224409,-0.068109,-0.878662,0.063965,-0.008545,0.035492,0.029584,0.071525,0.999927,0.004782,0.011122,-0.000341,0.416718,-0.082835,-0.905174,-0.012016
54966,NaN,5.197767,2.230310,8.541089,-9.405540,3.707892,-11.463596,-0.007359,1.920970,-0.048562,-0.882812,0.063965,-0.016846,0.052800,0.022293,0.084906,0.999954,-0.000037,0.009605,-0.000243,0.425392,-0.082514,-0.901147,-0.012945
54967,NaN,7.594302,-1.556238,5.831370,-9.426153,0.053084,-7.523130,-1.107950,1.985861,-0.028932,-0.876465,0.062012,-0.035889,0.076515,-0.015253,0.057641,0.999935,-0.005540,0.009929,-0.000145,0.434518,-0.082691,-0.896658,-0.019022
54968,NaN,8.052068,0.958405,2.791535,-6.833309,2.304012,-5.171759,-0.934943,3.087924,-0.041673,-0.874268,0.057617,-0.057129,0.080940,0.009694,0.026623,0.999870,-0.004675,0.015439,-0.000208,0.447919,-0.084233,-0.889758,-0.024578
54969,NaN,7.638811,4.559160,2.514770,-5.580683,5.742240,-5.193656,-0.966853,3.455095,-0.147232,-0.870117,0.049316,-0.088867,0.076838,0.045652,0.023602,0.999839,-0.004834,0.017275,-0.000736,0.463545,-0.084241,-0.881517,-0.030949
54970,NaN,10.005403,8.686440,1.324449,-4.905461,9.892026,-2.371028,-2.168563,3.270445,-0.213667,-0.872070,0.044922,-0.109863,0.100335,0.086882,0.010663,0.999807,-0.010842,0.016351,-0.001068,0.476928,-0.087806,-0.873518,-0.042373
54971,NaN,12.935400,8.051426,-7.133715,0.938920,8.000749,4.955191,-3.114849,3.761762,-0.373472,-0.857178,0.040771,-0.143799,0.128115,0.079125,-0.074994,0.999700,-0.015573,0.018807,-0.001867,0.492482,-0.091250,-0.863537,-0.058636
54972,NaN,16.924126,6.104896,-4.475326,-2.883588,6.564242,7.281651,-2.831246,5.311724,-0.628621,-0.857422,0.036621,-0.187988,0.168148,0.059835,-0.050082,0.999542,-0.014154,0.026555,-0.003143,0.513717,-0.093910,-0.849518,-0.074803
54973,NaN,22.497547,5.759217,0.054708,-8.504979,7.106458,10.592324,-1.318250,4.549511,-1.459293,-0.840088,0.023926,-0.209229,0.225317,0.055928,-0.004948,0.999693,-0.006591,0.022745,-0.007296,0.532349,-0.087187,-0.837609,-0.086103
54974,NaN,24.615834,-1.422868,-1.518993,-9.091170,-0.627115,13.148054,-2.260068,2.295596,-1.195456,-0.837646,0.015381,-0.219727,0.245872,-0.015891,-0.017840,0.999852,-0.011300,0.011477,-0.005977,0.540390,-0.087197,-0.830920,-0.099738
54975,NaN,21.667705,-2.284376,-0.518581,-8.688862,-1.767592,10.095680,-1.227404,1.366604,-1.295250,-0.826660,0.002441,-0.230225,0.216481,-0.024283,-0.006519,0.999937,-0.006137,0.006833,-0.006476,0.545525,-0.082939,-0.826838,-0.108912
54976,NaN,26.114795,0.852385,1.920115,-11.590960,1.578975,13.629335,-0.374550,1.360770,-1.548601,-0.824219,-0.012451,-0.236572,0.261326,0.006535,0.017410,0.999945,-0.001873,0.006804,-0.007743,0.550128,-0.076815,-0.823515,-0.115243
54977,NaN,31.727099,2.599005,4.139589,-15.087159,3.259280,18.333665,0.252062,0.961360,-1.839602,-0.817627,-0.020996,-0.238525,0.317686,0.023018,0.039900,0.999945,0.001260,0.004807,-0.009198,0.553763,-0.067555,-0.821221,-0.119914
54978,NaN,40.651172,1.830191,1.143792,-16.256854,1.095138,27.492070,-0.897915,-1.630701,-0.931451,-0.814941,-0.031738,-0.213135,0.406480,0.016470,0.014676,0.999946,-0.004489,-0.008153,-0.004657,0.546182,-0.067192,-0.825463,-0.125622
54979,NaN,51.217761,-8.953316,-19.752628,-5.391490,-15.980480,43.186966,-1.494012,-1.311178,-1.817663,-0.812500,-0.044678,-0.221436,0.512604,-0.095646,-0.193467,0.999909,-0.007470,-0.006556,-0.009088,0.539799,-0.065206,-0.828022,-0.136912
54980,NaN,48.538963,-4.857064,-24.255209,0.406050,-15.331542,42.454157,-3.036703,2.457485,-4.645837,-0.794678,-0.076660,-0.250977,0.481008,-0.063513,-0.247592,0.999539,-0.015181,0.012286,-0.023226,0.545560,-0.052459,-0.820440,-0.162757
54981,NaN,34.698690,18.361367,-18.483046,8.896249,5.578768,32.253547,-11.313141,7.206776,-4.753556,-0.757080,-0.070068,-0.343994,0.343849,0.164117,-0.206922,0.997470,-0.056518,0.036003,-0.023748,0.567179,-0.060395,-0.790041,-0.224714
54982,NaN,19.380782,31.668312,-8.462605,14.403712,19.250225,19.645356,-14.216975,12.761360,-2.604086,-0.718018,-0.041992,-0.418457,0.190981,0.306532,-0.118938,0.995357,-0.070975,0.063708,-0.013000,0.607676,-0.075784,-0.735069,-0.290964
54983,NaN,15.250882,30.146093,-10.158134,20.430445,14.170813,15.181319,-10.455961,7.268879,-0.494850,-0.683838,0.016113,-0.476074,0.149042,0.295044,-0.122586,0.997971,-0.052244,0.036320,-0.002473,0.628853,-0.094939,-0.696062,-0.333209
54984,NaN,9.787654,22.406795,-14.712340,23.222026,4.476687,6.129544,-9.537525,6.020082,0.674985,-0.653564,0.061279,-0.506104,0.092439,0.216945,-0.160424,0.998405,-0.047662,0.030084,0.003373,0.645396,-0.117083,-0.659825,-0.366588
54985,NaN,19.828694,14.579074,-13.611337,17.366967,-5.666977,11.557225,-10.015435,4.255278,1.164041,-0.623535,0.123535,-0.521484,0.194405,0.139735,-0.147380,0.998503,-0.050052,0.021266,0.005817,0.655799,-0.142862,-0.626217,-0.396699
54986,NaN,1.314224,-0.680694,-16.327005,10.394490,-12.454427,-12.130076,-9.872438,3.299918,1.828734,-0.606201,0.185547,-0.524170,0.010563,-0.014751,-0.162861,0.998604,-0.049339,0.016492,0.009139,0.661794,-0.174199,-0.593643,-0.423405
54987,NaN,-5.514789,-2.997147,-14.195000,6.511147,-10.336620,-19.377036,-8.905001,2.451475,1.869602,-0.594971,0.234863,-0.520508,-0.056548,-0.036752,-0.139726,0.998890,-0.044509,0.012253,0.009345,0.665515,-0.201863,-0.564779,-0.444258
54988,NaN,-15.116129,-17.254533,-16.504990,-5.315733,-16.013475,-32.473279,-8.242605,1.578858,1.510635,-0.577148,0.281982,-0.503906,-0.151077,-0.180256,-0.156532,0.999091,-0.041201,0.007892,0.007551,0.664411,-0.229857,-0.539179,-0.463692
54989,NaN,-8.619850,-14.230328,-13.360356,-6.083694,-14.023839,-24.694817,-6.550659,0.205209,0.529594,-0.569580,0.312012,-0.487305,-0.085947,-0.146802,-0.128756,0.999460,-0.032747,0.001026,0.002647,0.658597,-0.251924,-0.522562,-0.479284
54990,NaN,-4.595697,-8.663828,-9.616885,-3.708811,-9.841754,-18.645760,-4.618816,-0.559090,-0.028248,-0.572266,0.333252,-0.472656,-0.045704,-0.088824,-0.094262,0.999729,-0.023092,-0.002795,-0.000141,0.651078,-0.268329,-0.513223,-0.490611
54991,NaN,-2.553028,-5.370089,-7.870811,-1.852802,-7.789457,-15.573824,-3.069289,-1.003087,-0.459837,-0.572266,0.341797,-0.453613,-0.025263,-0.054843,-0.077999,0.999867,-0.015346,-0.005015,-0.002299,0.642656,-0.280392,-0.509256,-0.499032
54992,NaN,-4.214813,-2.737104,-6.898534,0.079395,-5.463934,-16.368932,-1.713794,-1.237681,-0.806351,-0.583008,0.341797,-0.443115,-0.041833,-0.027793,-0.069008,0.999936,-0.008569,-0.006188,-0.004032,0.635054,-0.286914,-0.510047,-0.504221
54993,NaN,-7.547040,-3.676223,-6.308373,-0.928388,-4.168059,-19.406028,-0.493061,-1.470165,-1.169116,-0.586914,0.333252,-0.434570,-0.075218,-0.036478,-0.063547,0.999953,-0.002465,-0.007351,-0.005845,0.626769,-0.290511,-0.514731,-0.507756
54994,NaN,-10.867692,-7.048533,-5.707376,-3.969163,-3.675961,-22.892776,0.538683,-1.564666,-1.576514,-0.597168,0.322510,-0.427979,-0.108775,-0.069473,-0.058113,0.999935,0.002693,-0.007823,-0.007882,0.619487,-0.288717,-0.523251,-0.509005
54995,NaN,-12.000060,-7.484907,-7.006243,-3.508649,-4.749571,-24.449044,1.784134,-1.739722,-1.974049,-0.609131,0.298828,-0.423584,-0.120108,-0.073029,-0.071764,0.999874,0.008920,-0.008698,-0.009870,0.611389,-0.284068,-0.535486,-0.508688
54996,NaN,-11.041780,-4.925151,-6.665118,-0.834216,-4.125173,-22.960234,3.069847,-2.220631,-2.317393,-0.625244,0.270996,-0.414795,-0.110216,-0.046930,-0.068608,0.999753,0.015348,-0.011102,-0.011586,0.603765,-0.274056,-0.553234,-0.504275
54997,NaN,-9.420576,-6.243814,-3.835194,-2.789199,-2.826775,-21.065845,4.277565,-2.893459,-2.439092,-0.639160,0.240967,-0.410400,-0.094370,-0.060429,-0.041023,0.999592,0.021385,-0.014465,-0.012194,0.594092,-0.263605,-0.575346,-0.496531
54998,NaN,-6.730517,-5.993568,-0.619073,-3.828830,-1.013261,-17.929884,5.265374,-3.581276,-2.477977,-0.657227,0.204590,-0.395264,-0.067895,-0.058885,-0.008963,0.999416,0.026322,-0.017903,-0.012387,0.584239,-0.249574,-0.601975,-0.483739
54999,NaN,-0.625864,-3.596487,1.254746,-3.532169,-0.273511,-11.343757,5.282831,-3.877295,-2.466274,-0.673340,0.172363,-0.388672,-0.006933,-0.036195,0.011463,0.999387,0.026409,-0.019383,-0.012329,0.571763,-0.238205,-0.628263,-0.470778
55000,NaN,5.549024,-4.192913,3.213721,-6.477231,-0.460251,-5.747721,5.166563,-3.456899,-2.068239,-0.685059,0.142334,-0.367188,0.054493,-0.043324,0.031978,0.999464,0.025828,-0.017281,-0.010339,0.561890,-0.224948,-0.652423,-0.456095
55001,NaN,11.046799,-4.559225,5.760211,-9.815974,0.281916,-0.893780,4.493995,-2.554913,-1.414744,-0.692627,0.114258,-0.356445,0.109397,-0.047668,0.057949,0.999641,0.022467,-0.012773,-0.007073,0.554212,-0.215888,-0.670673,-0.443214
55002,NaN,16.976791,-4.623963,9.967568,-14.244270,2.407180,4.337615,3.369856,-1.001831,-0.795052,-0.692139,0.099365,-0.362549,0.169078,-0.048593,0.099718,0.999838,0.016848,-0.005009,-0.003975,0.552645,-0.206069,-0.681660,-0.432965
55003,NaN,23.400135,-1.435023,10.985651,-14.566530,3.523796,11.298789,2.111243,0.705306,-0.575487,-0.691895,0.088623,-0.366699,0.234342,-0.016177,0.108866,0.999934,0.010556,0.003526,-0.002877,0.554977,-0.199571,-0.684169,-0.429050
55004,NaN,25.928805,0.658856,9.069301,-12.744783,2.164053,14.432991,1.539371,1.630809,-0.626508,-0.689453,0.075928,-0.381348,0.260034,0.005087,0.088618,0.999932,0.007697,0.008154,-0.003132,0.560717,-0.189643,-0.683519,-0.427122
55005,NaN,21.888517,5.951265,10.356900,-8.324408,6.589032,12.749382,1.190456,2.518107,-0.602582,-0.674561,0.071533,-0.406738,0.220346,0.058243,0.101150,0.999898,0.005952,0.012590,-0.003013,0.568142,-0.181985,-0.678730,-0.428277
55006,NaN,15.183691,6.985928,13.744278,-7.627600,10.885517,7.261768,-0.197034,3.289434,-0.371731,-0.664062,0.071777,-0.430176,0.154199,0.069708,0.134851,0.999863,-0.000985,0.016446,-0.001859,0.578258,-0.174214,-0.669203,-0.432936
55007,NaN,3.924540,8.930878,11.529260,-1.528208,12.863255,-2.050305,-1.466450,4.324058,-0.374942,-0.649414,0.073975,-0.459717,0.041884,0.090070,0.113747,0.999738,-0.007332,0.021618,-0.001875,0.589774,-0.170263,-0.652955,-0.443653
55008,NaN,5.594257,10.162426,-23.766512,21.173869,-14.389738,-3.182896,2.178944,3.359271,-0.522302,-0.638428,0.056885,-0.472412,0.052223,0.104072,-0.237438,0.999796,0.010894,0.016795,-0.002611,0.601323,-0.154646,-0.648188,-0.440849
55009,NaN,8.948183,11.706062,-32.830835,27.748629,-21.077042,-0.829098,1.581043,0.911644,0.131410,-0.642334,0.050293,-0.468018,0.087909,0.119711,-0.327772,0.999958,0.007905,0.004558,0.000657,0.605287,-0.149995,-0.648337,-0.436793
55010,NaN,17.869646,1.105099,-8.957059,2.591866,-11.829699,6.127435,4.666059,-2.329103,-0.953418,-0.652100,0.020264,-0.453125,0.179778,0.012249,-0.087205,0.999649,0.023328,-0.011644,-0.004767,0.598949,-0.137817,-0.666055,-0.422654
55011,NaN,9.779282,-3.073199,0.896425,-5.158172,-4.424396,-2.086401,5.453414,-0.502758,-1.613246,-0.648682,-0.016113,-0.454834,0.097518,-0.031753,0.008353,0.999593,0.027263,-0.002513,-0.008065,0.596654,-0.119289,-0.679671,-0.409661
55012,NaN,-6.554672,-4.137386,-20.565546,14.094625,-14.532332,-18.361188,5.164550,1.230241,0.108155,-0.645996,-0.037598,-0.456787,-0.066794,-0.036089,-0.206225,0.999648,0.025820,0.006150,0.000541,0.603932,-0.101689,-0.686268,-0.392379
55013,NaN,-6.162168,-10.028580,-35.933950,23.300844,-27.912983,-20.154276,8.233637,-0.713714,0.661076,-0.649170,-0.069580,-0.439697,-0.060031,-0.085582,-0.363281,0.999141,0.041156,-0.003568,0.003304,0.605685,-0.083053,-0.703478,-0.362446
55014,NaN,-3.062433,-22.620676,-13.018966,-0.228839,-23.687730,-21.156617,10.591146,-3.499801,1.448250,-0.671631,-0.097656,-0.396973,-0.026599,-0.219081,-0.142410,0.998419,0.052928,-0.017490,0.007237,0.599450,-0.062294,-0.731535,-0.318803
55015,NaN,-3.401436,-15.965604,-8.954973,1.123263,-16.724655,-17.907075,5.058353,-6.995714,1.495500,-0.705078,-0.110596,-0.348145,-0.029579,-0.157537,-0.094639,0.999041,0.025284,-0.034967,0.007475,0.576260,-0.068023,-0.759263,-0.294647
55016,NaN,16.123455,-3.501526,-28.000317,15.923305,-21.134221,9.045619,1.667427,-6.694253,0.160483,-0.723389,-0.123779,-0.303711,0.170516,-0.032576,-0.274677,0.999405,0.008335,-0.033465,0.000802,0.551319,-0.073650,-0.780492,-0.285404
55017,NaN,24.332946,7.335123,-26.271013,14.533429,-12.227671,21.411950,2.067869,-5.212409,-0.217124,-0.735840,-0.132324,-0.254883,0.250132,0.075749,-0.255475,0.999606,0.010338,-0.026059,-0.001085,0.530020,-0.079927,-0.797424,-0.277136
55018,NaN,21.170979,10.614702,-8.861372,1.828077,1.393236,15.361972,4.446390,-6.819341,1.201850,-0.756836,-0.132568,-0.201904,0.213861,0.109255,-0.078938,0.999154,0.022226,-0.034087,0.006008,0.505839,-0.082318,-0.820491,-0.253270
55019,NaN,14.887811,10.987919,-6.971093,2.138804,5.015749,9.184036,7.764842,-7.071498,2.136854,-0.769287,-0.126465,-0.132080,0.149913,0.113935,-0.060049,0.998565,0.038806,-0.035341,0.010679,0.481136,-0.085398,-0.845951,-0.213503
55020,NaN,19.802982,12.066911,-9.723682,0.684980,6.475498,14.461184,10.416657,-5.892549,2.753039,-0.775635,-0.120117,-0.075195,0.198923,0.128040,-0.084839,0.998115,0.052051,-0.029444,0.013757,0.462710,-0.078119,-0.868457,-0.159935
55021,NaN,23.018175,14.405716,-17.073704,3.959655,8.571681,20.830849,6.383938,-5.034037,3.857511,-0.782715,-0.090332,-0.032959,0.231398,0.153738,-0.160116,0.998988,0.031909,-0.025162,0.019281,0.445569,-0.088134,-0.882570,-0.121533
55022,NaN,32.059704,17.228952,-21.542377,1.733914,12.452280,30.565159,0.126659,-4.363555,3.713207,-0.791992,-0.062500,-0.007812,0.321919,0.178392,-0.208297,0.999589,0.000633,-0.021815,0.018563,0.428453,-0.106853,-0.890365,-0.110730
55023,NaN,36.377759,21.502074,-13.882183,-5.934810,20.665977,29.121938,-0.679951,-3.518431,2.906508,-0.788086,-0.047607,0.017334,0.362982,0.219841,-0.133173,0.999734,-0.003399,-0.017591,0.014531,0.413548,-0.125641,-0.895559,-0.105674
55024,NaN,39.740231,21.719626,4.826710,-21.066940,27.824921,19.447405,-4.155642,-1.195921,2.141088,-0.794922,-0.034668,0.002441,0.394760,0.222404,0.046048,0.999709,-0.020776,-0.005979,0.010704,0.406600,-0.144417,-0.894227,-0.119071
55025,NaN,36.269622,3.908057,-0.004000,-20.848061,9.557410,18.553421,-11.709497,1.936840,1.486864,-0.788574,-0.034668,-0.020752,0.362355,0.041544,-0.005937,0.998212,-0.058513,0.009678,0.007430,0.406781,-0.174056,-0.880617,-0.169553
55026,NaN,26.460923,-2.814812,-4.462015,-14.550664,0.049971,12.909114,-1.153786,-1.039497,-0.120612,-0.790771,-0.032471,0.004639,0.264819,-0.028559,-0.043080,0.999970,-0.005769,-0.005197,-0.000603,0.401092,-0.176750,-0.881827,-0.173969
55027,NaN,32.468041,5.927662,8.574512,-23.508462,14.732164,10.005348,5.624822,-5.064468,-1.055256,-0.790283,-0.039062,0.038574,0.322641,0.054975,0.095520,0.999270,0.028117,-0.025316,-0.005275,0.382557,-0.166367,-0.896893,-0.146813
55028,NaN,25.650043,-0.317031,16.198348,-27.473086,10.241798,-2.029131,5.222073,-1.278244,-1.953569,-0.783691,-0.045410,0.038574,0.255384,-0.009924,0.163418,0.999591,0.026107,-0.006390,-0.009767,0.379586,-0.148493,-0.904425,-0.126011
55029,NaN,15.585841,-6.989235,12.692554,-21.175185,-0.047915,-7.736034,7.165793,1.428205,-1.921046,-0.779297,-0.051758,0.025879,0.156037,-0.075849,0.123165,0.999287,0.035820,0.007139,-0.009603,0.390324,-0.126781,-0.906564,-0.098565
55030,NaN,14.642738,-3.397967,12.132111,-19.065643,1.895034,-7.370871,6.555625,1.610960,-0.913985,-0.783691,-0.049561,0.013184,0.147223,-0.038576,0.118923,0.999420,0.032772,0.008053,-0.004569,0.401110,-0.108983,-0.906701,-0.071602
55031,NaN,1.879554,-2.524822,-0.838587,-1.237712,-2.352068,-7.929745,2.393869,2.555820,0.047409,-0.783936,-0.041016,0.006836,0.018690,-0.025139,-0.008927,0.999847,0.011969,0.012778,0.000237,0.414732,-0.106156,-0.901555,-0.062660
55032,NaN,-2.775290,4.359145,-6.920279,7.872918,2.508394,-7.299134,1.674137,-1.755096,0.439475,-0.783936,-0.041016,0.019531,-0.027243,0.044110,-0.069076,0.999924,0.008370,-0.008775,0.002197,0.407823,-0.105211,-0.905414,-0.053266
55033,NaN,1.156892,7.792108,3.330443,-1.330169,8.344537,-11.133665,1.294132,-0.812338,0.599410,-0.775879,-0.032471,0.017334,0.011199,0.077737,0.033854,0.999966,0.006471,-0.004062,0.002997,0.405698,-0.107768,-0.906451,-0.046270
55034,NaN,-6.952538,7.412605,-0.589040,6.609356,6.007946,-14.696357,1.605033,0.541770,0.500712,-0.784668,-0.017578,0.015137,-0.069725,0.073995,-0.005108,0.999961,0.008025,0.002709,0.002504,0.409126,-0.106656,-0.905415,-0.038271
55035,NaN,-2.463965,9.037366,3.664784,0.915902,8.945261,-14.320120,1.531673,-0.691303,0.634782,-0.780518,-0.013184,0.021240,-0.025054,0.090011,0.037252,0.999960,0.007658,-0.003456,0.003174,0.407557,-0.107680,-0.906311,-0.030063
55036,NaN,2.372490,10.618091,8.128536,-5.168808,11.866973,-13.923523,1.342550,-0.979841,0.729168,-0.774170,-0.009033,0.029785,0.022938,0.105716,0.082110,0.999959,0.006713,-0.004899,0.003646,0.403940,-0.108395,-0.908075,-0.021964
55037,NaN,5.604449,12.837988,9.485180,-7.771942,14.728823,-12.786649,0.541994,-1.330830,0.914661,-0.774658,0.001709,0.033936,0.054823,0.128374,0.095567,0.999964,0.002710,-0.006654,0.004573,0.398874,-0.111686,-0.910016,-0.017246
55038,NaN,5.800996,10.520726,11.060160,-9.456456,12.692472,-13.829634,0.089483,-1.025459,1.117750,-0.774658,0.005859,0.040283,0.056853,0.105478,0.110942,0.999971,0.000447,-0.005127,0.005589,0.394351,-0.116683,-0.911414,-0.014036
55039,NaN,3.868757,5.236712,10.357683,-8.787973,7.098848,-14.508358,-0.017511,-0.177773,1.032266,-0.777100,0.012451,0.040039,0.038324,0.052575,0.103606,0.999986,-0.000088,-0.000889,0.005161,0.394247,-0.120599,-0.910975,-0.012279
55040,NaN,2.650490,0.948733,5.897387,-5.753883,2.167564,-12.026019,0.630423,0.389911,1.106144,-0.773193,0.023193,0.033691,0.026568,0.009448,0.058952,0.999978,0.003152,0.001950,0.005531,0.396470,-0.124372,-0.909553,-0.007463
55041,NaN,2.579965,-0.301125,4.929696,-5.314178,0.822161,-11.272901,0.839665,0.630789,1.104689,-0.769043,0.031738,0.027344,0.025972,-0.003075,0.049202,0.999971,0.004198,0.003154,0.005523,0.400621,-0.126883,-0.907413,-0.002180
55042,NaN,5.803369,0.997913,7.170424,-8.719260,3.086064,-10.547595,-0.527083,0.282236,0.642916,-0.767090,0.036133,0.020996,0.058102,0.010355,0.071595,0.999990,-0.002635,0.001411,0.003215,0.401579,-0.130856,-0.906421,-0.003463
55043,NaN,11.339306,-3.830503,14.350555,-18.653339,0.727188,-10.642595,-1.652990,2.693436,0.575942,-0.775879,0.036133,-0.004395,0.115422,-0.036795,0.142268,0.999871,-0.008265,0.013467,0.002880,0.413495,-0.136193,-0.900184,-0.011933
55044,NaN,6.206023,1.209410,4.055903,-6.502044,3.185405,-7.813392,-1.073033,3.769707,-0.162063,-0.773682,0.036133,-0.029785,0.062819,0.012257,0.039314,0.999808,-0.005365,0.018847,-0.000810,0.429650,-0.137435,-0.892259,-0.019662
55045,NaN,7.197662,4.369290,3.656904,-5.855508,6.392658,-6.794008,0.141797,2.881407,-0.228631,-0.765381,0.034180,-0.051025,0.072544,0.043585,0.035558,0.999895,0.000709,0.014407,-0.001143,0.443550,-0.135915,-0.885611,-0.022001
55046,NaN,8.752064,7.643905,2.626595,-4.926269,9.690782,-4.940880,-0.748664,3.671998,-0.216768,-0.765381,0.031982,-0.078369,0.088062,0.076437,0.024366,0.999824,-0.003743,0.018359,-0.001084,0.459207,-0.136192,-0.877371,-0.028289
55047,NaN,5.801092,4.002672,1.615987,-3.257570,5.348392,-6.198772,-1.769460,3.973779,-0.164564,-0.763428,0.032227,-0.105957,0.058345,0.040113,0.014648,0.999763,-0.008847,0.019867,-0.000823,0.476326,-0.138503,-0.867389,-0.039572
55048,NaN,9.537774,5.125176,1.931076,-4.819498,7.201680,-3.041055,-2.419601,3.604943,-0.253603,-0.761230,0.027832,-0.129150,0.095763,0.051345,0.016966,0.999764,-0.012097,0.018023,-0.001268,0.490131,-0.142424,-0.858290,-0.053157
55049,NaN,13.667571,9.009654,-5.533461,1.028265,9.699949,4.448969,-2.232738,4.062556,-0.873684,-0.759033,0.023682,-0.158691,0.135891,0.088856,-0.059097,0.999722,-0.011163,0.020311,-0.004368,0.506647,-0.142200,-0.847613,-0.068118
55050,NaN,20.361599,11.930343,-6.693811,0.664650,12.718520,11.149289,-1.790312,4.560551,-1.718415,-0.748291,0.013184,-0.192627,0.203015,0.116924,-0.072626,0.999663,-0.008951,0.022800,-0.008591,0.523954,-0.137856,-0.836381,-0.083277
55051,NaN,24.556884,0.853930,-1.541520,-8.118810,3.488733,13.164641,-1.090508,4.250683,-1.299794,-0.737549,0.006836,-0.213623,0.245215,0.006842,-0.020670,0.999738,-0.005452,0.021252,-0.006498,0.541320,-0.131418,-0.825125,-0.094186
55052,NaN,28.703861,0.855049,-1.042053,-9.375962,3.516048,17.120281,-0.137810,3.053439,-1.095467,-0.731201,0.000488,-0.234863,0.286876,0.006970,-0.014806,0.999868,-0.000689,0.015267,-0.005477,0.553249,-0.125820,-0.817400,-0.099714
55053,NaN,31.357446,1.088414,-3.685400,-6.978301,2.459648,20.898190,1.124508,4.198558,-1.134908,-0.724609,-0.008057,-0.264404,0.312765,0.009339,-0.043370,0.999748,0.005622,0.020991,-0.005674,0.571492,-0.114177,-0.806328,-0.100974
55054,NaN,31.160979,-0.182586,-1.233682,-8.432655,1.252968,20.183085,3.122709,3.901411,-1.312495,-0.707275,-0.020996,-0.281250,0.311270,-0.003613,-0.018459,0.999666,0.015612,0.019505,-0.006562,0.588159,-0.097960,-0.797229,-0.094330
55055,NaN,33.557306,4.993463,0.414763,-8.673465,5.980290,22.438843,1.755077,1.003402,-2.026832,-0.707031,-0.033691,-0.283203,0.336072,0.046501,0.002880,0.999898,0.008775,0.005017,-0.010134,0.593099,-0.082823,-0.795321,-0.094018
55056,NaN,44.130047,-2.307450,-19.905720,4.673709,-6.978378,37.917032,-1.672473,-2.302558,-3.175452,-0.706055,-0.057373,-0.259766,0.443093,-0.031735,-0.193721,0.999773,-0.008362,-0.011512,-0.015876,0.581634,-0.076223,-0.802488,-0.109110
55057,NaN,54.527928,-8.016226,-19.226134,-2.318112,-14.440063,46.688098,-2.160313,-2.506300,-4.823680,-0.697510,-0.065918,-0.276611,0.545446,-0.095338,-0.184451,0.999572,-0.010800,-0.012530,-0.024115,0.568992,-0.063373,-0.809337,-0.131169
55058,NaN,43.921827,0.417383,-13.962131,-1.063512,-8.023897,35.532363,-10.578507,8.416753,-5.559290,-0.664062,-0.059326,-0.357178,0.432582,-0.015937,-0.157441,0.997331,-0.052845,0.042046,-0.027772,0.594522,-0.065284,-0.778072,-0.192055
55059,NaN,17.451966,16.100696,-11.185719,11.967674,6.421590,12.604356,-15.090654,10.019220,-3.856763,-0.627197,-0.022705,-0.425293,0.171180,0.148218,-0.132013,0.995716,-0.075345,0.050025,-0.019256,0.623164,-0.085576,-0.730747,-0.265241
55060,NaN,8.190983,27.066250,-5.604679,16.458406,17.540606,6.060562,-7.617710,6.252875,-1.106356,-0.603027,0.011719,-0.455322,0.081377,0.267751,-0.068835,0.998771,-0.038073,0.031252,-0.005530,0.640522,-0.096867,-0.700737,-0.298857
55061,NaN,18.587545,35.465814,-12.455538,27.629133,15.300669,17.731008,-10.993450,6.164075,0.261996,-0.572998,0.069824,-0.498047,0.181066,0.347137,-0.149415,0.998014,-0.054931,0.030800,0.001309,0.657142,-0.121864,-0.662360,-0.338516
55062,NaN,6.921420,19.086261,-12.232801,20.988146,3.738638,0.521749,-9.968714,4.193969,1.053855,-0.553467,0.127686,-0.509277,0.065514,0.184759,-0.133042,0.998524,-0.049819,0.020960,0.005267,0.665778,-0.150816,-0.630091,-0.370109
55063,NaN,6.347490,6.101653,-15.751418,15.065862,-8.818192,-5.270560,-9.651206,3.407554,1.465870,-0.536133,0.187744,-0.516113,0.060336,0.053742,-0.161271,0.998664,-0.048235,0.017030,0.007326,0.673090,-0.177166,-0.598975,-0.395968
55064,NaN,0.013455,-5.990710,-9.516413,1.399717,-10.560970,-13.401458,-8.534928,2.359085,1.404277,-0.514404,0.239014,-0.501709,-0.000528,-0.063895,-0.092490,0.998995,-0.042660,0.011791,0.007019,0.674709,-0.205236,-0.572288,-0.418488
55065,NaN,-7.162164,-13.856000,-13.376042,-3.793829,-15.369682,-22.900879,-8.708396,2.048448,1.111767,-0.505127,0.286133,-0.491455,-0.072152,-0.144584,-0.126814,0.998984,-0.043527,0.010239,0.005557,0.675193,-0.230201,-0.545648,-0.439763
55066,NaN,-8.339846,-18.312323,-15.646051,-8.107588,-18.521827,-25.325100,-7.154835,0.770689,0.318142,-0.506104,0.320557,-0.481201,-0.083686,-0.188687,-0.149454,0.999351,-0.035766,0.003853,0.001590,0.669333,-0.253372,-0.526584,-0.458809
55067,NaN,-4.286079,-10.463319,-11.690072,-4.123642,-12.755263,-19.019459,-4.667183,-0.170493,-0.151758,-0.504395,0.341797,-0.462402,-0.042843,-0.107291,-0.114454,0.999727,-0.023334,-0.000852,-0.000759,0.663401,-0.267899,-0.516265,-0.470744
55068,NaN,-2.824955,-5.648274,-7.369395,-2.090928,-7.536080,-15.559128,-2.907904,-0.631948,-0.387516,-0.508789,0.350342,-0.445557,-0.028129,-0.057492,-0.072952,0.999887,-0.014539,-0.003160,-0.001938,0.656898,-0.277997,-0.511964,-0.478639
55069,NaN,-3.720290,0.207764,-5.716375,2.405616,-3.568362,-15.107910,-2.066299,-0.859010,-0.583761,-0.513428,0.361084,-0.437012,-0.036952,0.001594,-0.057341,0.999933,-0.010331,-0.004295,-0.002919,0.650693,-0.285423,-0.510120,-0.484676
55070,NaN,-6.203598,0.459634,-6.027983,2.699039,-2.994031,-17.479661,-1.307262,-1.109353,-0.822403,-0.515381,0.354492,-0.424316,-0.061682,0.004455,-0.060652,0.999955,-0.006536,-0.005547,-0.004112,0.643985,-0.290250,-0.511697,-0.489085
55071,NaN,-9.754041,-3.321091,-6.671026,-0.506825,-3.798917,-21.473860,-0.403630,-1.332902,-1.145678,-0.530029,0.350342,-0.422119,-0.097282,-0.032789,-0.067293,0.999959,-0.002018,-0.006664,-0.005728,0.637334,-0.292089,-0.516196,-0.491966
55072,NaN,-12.700086,-8.032036,-8.171663,-4.056249,-5.901265,-25.346319,0.655336,-1.551184,-1.485168,-0.538330,0.341797,-0.417725,-0.126951,-0.079107,-0.082962,0.999937,0.003277,-0.007756,-0.007426,0.630604,-0.289961,-0.524874,-0.492716
55073,NaN,-11.547261,-8.310110,-9.024325,-3.645732,-7.291293,-24.555652,1.965632,-2.038352,-1.883413,-0.550537,0.326660,-0.415527,-0.115310,-0.081115,-0.092223,0.999855,0.009828,-0.010191,-0.009417,0.623252,-0.284511,-0.538251,-0.490811
55074,NaN,-7.913206,-6.385066,-6.841823,-2.436992,-6.018959,-20.205191,3.263797,-2.653110,-2.123171,-0.564453,0.296631,-0.406738,-0.078870,-0.061873,-0.070486,0.999723,0.016317,-0.013264,-0.010615,0.615383,-0.275055,-0.557384,-0.484738
55075,NaN,-6.592448,-7.773414,-4.647613,-4.215829,-5.283021,-18.743890,4.489591,-3.211004,-2.220213,-0.588867,0.262451,-0.400146,-0.065998,-0.075917,-0.049253,0.999558,0.022445,-0.016053,-0.011099,0.606530,-0.264056,-0.580308,-0.475014
55076,NaN,-2.559511,-6.088168,-2.351615,-3.803797,-3.990847,-14.140828,5.552505,-3.552220,-2.194582,-0.600586,0.223633,-0.395508,-0.025813,-0.059907,-0.025646,0.999397,0.027757,-0.017758,-0.010971,0.597989,-0.249126,-0.606797,-0.460590
55077,NaN,4.329569,-2.787380,0.876394,-3.558580,-1.593467,-6.337371,5.845541,-3.500035,-2.038714,-0.616455,0.191650,-0.380371,0.042854,-0.028567,0.008688,0.999368,0.029222,-0.017496,-0.010191,0.589050,-0.235175,-0.632200,-0.445013
55078,NaN,9.534849,-4.446456,2.251789,-6.839101,-2.504828,-1.894468,5.604304,-3.105404,-1.757269,-0.625977,0.157227,-0.369629,0.094597,-0.045933,0.022717,0.999448,0.028016,-0.015524,-0.008785,0.581602,-0.219894,-0.655516,-0.428583
55079,NaN,13.614988,-6.635739,4.519441,-11.034942,-2.760293,1.160884,5.046119,-2.414131,-1.386200,-0.640137,0.137939,-0.363037,0.135135,-0.068436,0.045120,0.999585,0.025227,-0.012069,-0.006930,0.575536,-0.207821,-0.673925,-0.413997
55080,NaN,19.879518,-4.790057,10.128124,-14.929403,1.289832,7.396012,3.720025,-0.966276,-0.964814,-0.639648,0.116455,-0.360840,0.198066,-0.050742,0.101313,0.999804,0.018599,-0.004831,-0.004824,0.574049,-0.195823,-0.685262,-0.403158
55081,NaN,20.855197,-0.184111,10.370167,-12.210166,3.821483,9.650337,1.785528,0.571232,-0.836121,-0.643799,0.112305,-0.364990,0.208834,-0.003636,0.103078,0.999947,0.008927,0.002856,-0.004181,0.575529,-0.189193,-0.687202,-0.400906
55082,NaN,24.572690,2.288218,11.106161,-12.051043,4.810476,13.936434,1.002542,0.784010,-0.762433,-0.638916,0.094971,-0.364746,0.246243,0.021390,0.110207,0.999972,0.005013,0.003920,-0.003812,0.577641,-0.182110,-0.687645,-0.400389
55083,NaN,21.120877,9.495383,14.220607,-7.875639,11.868896,13.328642,0.024129,3.178196,-0.720442,-0.626221,0.095215,-0.390381,0.213773,0.094170,0.138834,0.999867,0.000121,0.015890,-0.003602,0.586650,-0.175630,-0.678225,-0.406210
55084,NaN,5.938176,11.602325,3.873145,4.329021,8.401347,-0.038345,-0.116315,5.101159,-0.925162,-0.613525,0.086670,-0.421875,0.060878,0.115766,0.037124,0.999664,-0.000582,0.025503,-0.004625,0.601782,-0.162414,-0.663599,-0.413663
55085,NaN,-22.425745,7.558138,-22.131623,25.032644,-5.080224,-29.744703,1.540789,3.254852,-1.006244,-0.606689,0.071777,-0.428223,-0.227423,0.078403,-0.217035,0.999825,0.007703,0.016273,-0.005031,0.611532,-0.149172,-0.657003,-0.414878
55086,NaN,-15.785560,-3.083094,-31.161504,22.635862,-19.302468,-28.378292,2.659505,0.691887,-0.747762,-0.606201,0.056641,-0.423828,-0.159037,-0.026096,-0.311434,0.999899,0.013297,0.003459,-0.003739,0.614189,-0.137132,-0.660881,-0.408904
55087,NaN,5.360353,-4.491678,-30.528070,17.699675,-25.820880,-8.985126,4.956555,0.031688,-0.342590,-0.607666,0.031006,-0.423584,0.053487,-0.037426,-0.306279,0.999691,0.024780,0.000158,-0.001713,0.616598,-0.121775,-0.670650,-0.393962
55088,NaN,16.340976,-5.835499,-14.100581,3.329394,-18.484891,2.314836,6.102985,-1.846837,-0.552822,-0.619141,-0.003418,-0.397949,0.164559,-0.054502,-0.141192,0.999488,0.030510,-0.009233,-0.002764,0.612732,-0.104683,-0.688342,-0.373880
55089,NaN,27.157117,22.072243,7.041835,-0.264464,12.693396,23.520308,9.028469,-10.267376,-1.249928,-0.654053,-0.037842,-0.327881,0.268501,0.215145,0.094063,0.997645,0.045107,-0.051297,-0.006245,0.577870,-0.093742,-0.735507,-0.341040
55090,NaN,41.049513,19.387078,-16.462445,9.522282,-5.336991,37.223171,3.540711,-3.368977,-0.489127,-0.653809,-0.044434,-0.325684,0.413629,0.195654,-0.154221,0.999698,0.017702,-0.016843,-0.002445,0.566148,-0.087430,-0.751272,-0.327753
55091,NaN,10.620644,-0.540828,-6.659289,1.676012,-6.852873,0.561747,5.025419,4.228922,0.348621,-0.653320,-0.059326,-0.331787,0.104773,-0.003512,-0.068923,0.999459,0.025123,0.021141,0.001743,0.584194,-0.068938,-0.746912,-0.309981
55092,NaN,-7.355004,-12.923084,-25.123648,18.033981,-21.548771,-17.700078,8.903665,-0.731943,1.205460,-0.658936,-0.078613,-0.300049,-0.071881,-0.118311,-0.256932,0.998984,0.044503,-0.003658,0.006025,0.585819,-0.048504,-0.761658,-0.272655
55093,NaN,-5.703470,-20.459631,-11.567106,4.757183,-21.576966,-19.614733,10.505642,-4.317365,1.995775,-0.671387,-0.087402,-0.261719,-0.052365,-0.198646,-0.127378,0.998338,0.052499,-0.021575,0.009973,0.573376,-0.032955,-0.786888,-0.225748
55094,NaN,1.187998,-16.519119,-12.863303,6.088634,-20.059291,-10.180428,4.600816,-4.960048,2.828257,-0.688232,-0.081055,-0.213135,0.017432,-0.161960,-0.131998,0.999328,0.022999,-0.024795,0.014138,0.557445,-0.036470,-0.805290,-0.198576
55095,NaN,3.055538,-7.451956,-16.611075,11.414573,-12.874214,-3.151499,8.014762,-7.650323,3.793006,-0.696777,-0.066406,-0.141357,0.038269,-0.067145,-0.167535,0.998286,0.040051,-0.038230,0.018954,0.530643,-0.039730,-0.832449,-0.154491
55096,NaN,19.456515,-0.543461,-22.660724,10.502195,-7.652557,17.064088,9.192800,-7.419961,4.579031,-0.716309,-0.047119,-0.086426,0.202686,0.009333,-0.218982,0.997994,0.045933,-0.037075,0.022880,0.504092,-0.040054,-0.856630,-0.102331
55097,NaN,26.994559,4.322127,-17.052229,1.260894,0.792970,22.362877,4.213545,-6.461794,4.384024,-0.717041,-0.015137,-0.044434,0.274158,0.052656,-0.160665,0.999016,0.021061,-0.032298,0.021913,0.478831,-0.054242,-0.873262,-0.072062
55098,NaN,31.663081,17.077426,-20.824455,2.655878,14.052298,29.216230,-4.803185,-5.075379,3.518713,-0.719727,0.006104,-0.019287,0.318837,0.171433,-0.204283,0.999235,-0.024010,-0.025370,0.017589,0.456291,-0.082890,-0.882049,-0.083177
55099,NaN,36.236536,35.031124,-19.496568,3.783862,31.686708,33.792434,-8.574922,-1.322647,2.860416,-0.718262,0.027588,-0.023682,0.358733,0.346741,-0.207506,0.998957,-0.042860,-0.006611,0.014297,0.447297,-0.117446,-0.879298,-0.113873
55100,NaN,34.472063,28.950535,-0.754882,-8.892904,30.804993,21.784115,-7.017090,1.107254,3.077087,-0.722900,0.042725,-0.027832,0.340131,0.294213,-0.019710,0.999251,-0.035077,0.005535,0.015382,0.449477,-0.145946,-0.870353,-0.138403
55101,NaN,37.656400,0.859918,-0.515109,-20.044142,5.639590,21.578784,-5.180217,0.052378,1.072248,-0.722900,0.042480,-0.021484,0.376510,0.010478,-0.005505,0.999650,-0.025898,0.000262,0.005361,0.446338,-0.162065,-0.865689,-0.158429
55102,NaN,33.685429,5.673282,-9.828331,-9.527668,5.818264,23.932748,2.101684,-2.808354,-1.176343,-0.720703,0.040283,0.001709,0.338514,0.055740,-0.092948,0.999829,0.010508,-0.014041,-0.005881,0.434894,-0.154484,-0.874417,-0.149658
55103,NaN,38.427878,3.075317,6.261218,-26.048659,10.357335,17.375916,5.889069,-3.547668,-2.346033,-0.709717,0.029541,0.031250,0.383388,0.024259,0.070197,0.999340,0.029439,-0.017734,-0.011728,0.421874,-0.134091,-0.887762,-0.126175
55104,NaN,32.523012,-0.904493,27.015582,-39.729152,12.073667,-1.819600,2.920655,-3.703951,-1.505732,-0.715820,0.029541,0.046143,0.320055,-0.015469,0.275921,0.999694,0.014602,-0.018518,-0.007528,0.406329,-0.123547,-0.898146,-0.113869
55105,NaN,24.278741,-4.295525,16.925672,-28.789331,3.567370,-2.556512,6.135666,1.235618,-1.340177,-0.724365,0.029541,0.043945,0.243503,-0.049718,0.166297,0.999488,0.030673,0.006177,-0.006700,0.415016,-0.104917,-0.899257,-0.089948
55106,NaN,16.767414,2.061487,12.166866,-19.017839,6.738431,-4.681593,3.476930,-0.385291,0.079176,-0.726807,0.038086,0.039795,0.167431,0.018558,0.122326,0.999847,0.017384,-0.001926,0.000396,0.415096,-0.098221,-0.901433,-0.073938
55107,NaN,8.548666,-4.849294,5.557110,-10.644233,-2.545835,-7.039045,2.095769,0.612711,0.457467,-0.733643,0.051025,0.046143,0.085767,-0.048874,0.054798,0.999938,0.010479,0.003063,0.002287,0.419591,-0.096787,-0.900253,-0.064188
55108,NaN,3.983843,1.424960,3.026247,-4.444473,2.448076,-8.666870,2.001502,-0.549754,0.652343,-0.731934,0.065918,0.045898,0.039709,0.014075,0.030513,0.999941,0.010007,-0.002749,0.003262,0.418286,-0.095701,-0.901671,-0.053543
55109,NaN,0.015042,6.005300,0.236366,1.100367,5.907272,-9.919276,2.222714,-0.236540,0.814787,-0.742676,0.072266,0.043701,-0.000097,0.060022,0.003031,0.999929,0.011113,-0.001183,0.004074,0.419099,-0.096020,-0.901868,-0.042076
55110,NaN,-3.995772,8.372218,-1.611136,5.426237,7.389155,-11.959478,1.976587,0.541168,0.981862,-0.742920,0.083008,0.039551,-0.040411,0.083678,-0.015175,0.999935,0.009883,0.002706,0.004909,0.422684,-0.096191,-0.900612,-0.031366
55111,NaN,-1.667293,10.061076,-0.979558,3.772763,9.473655,-10.801685,1.453917,0.466221,0.857273,-0.743164,0.091797,0.037354,-0.017126,0.100605,-0.009025,0.999962,0.007269,0.002331,0.004286,0.426147,-0.097535,-0.899073,-0.023535
55112,NaN,-0.477997,10.625502,3.720200,-0.493638,10.784944,-13.039036,1.110294,0.321622,0.660179,-0.752197,0.102539,0.032959,-0.005070,0.106030,0.037799,0.999978,0.005551,0.001608,0.003301,0.428219,-0.098103,-0.898167,-0.017296
55113,NaN,3.025202,12.803197,8.043538,-5.602487,13.940235,-13.284382,0.858156,0.013741,0.458940,-0.754150,0.100342,0.037354,0.029964,0.127754,0.080982,0.999988,0.004291,0.000069,0.002295,0.429203,-0.098277,-0.897756,-0.012702
55114,NaN,4.591963,14.216616,11.598958,-9.060470,15.925746,-14.504366,0.372990,-0.113851,0.404996,-0.756592,0.111084,0.032959,0.045566,0.142042,0.116281,0.999996,0.001865,-0.000569,0.002025,0.428916,-0.099308,-0.897812,-0.010105
55115,NaN,5.292013,12.202814,11.724327,-10.030393,14.020182,-13.959722,1.022064,0.380863,0.393781,-0.758789,0.115234,0.028809,0.052904,0.121531,0.117764,0.999983,0.005110,0.001904,0.001969,0.431623,-0.098222,-0.896676,-0.005080
55116,NaN,2.467464,4.578870,9.510092,-8.099626,5.768401,-14.126976,1.525397,2.762215,1.160992,-0.763672,0.130371,0.009521,0.025725,0.045211,0.095097,0.999859,0.007627,0.013810,0.005805,0.444741,-0.100058,-0.890048,0.002906
55117,NaN,0.626574,-0.095791,4.125772,-3.682855,0.336240,-11.748134,1.909043,2.451069,1.075722,-0.765869,0.130371,-0.007324,0.006777,-0.001316,0.041165,0.999865,0.009545,0.012255,0.005378,0.457033,-0.099761,-0.883751,0.012357
55118,NaN,1.358568,-0.551389,3.443020,-3.652894,-0.065447,-10.622377,1.744993,1.678964,0.852790,-0.770508,0.141113,-0.022217,0.013898,-0.005755,0.034265,0.999918,0.008725,0.008395,0.004264,0.465249,-0.099645,-0.879298,0.021175
55119,NaN,0.027706,0.747634,5.162616,-4.152785,1.054616,-12.788266,-1.079608,0.908830,0.387697,-0.779053,0.141113,-0.022217,0.000497,0.007756,0.051583,0.999973,-0.005398,0.004544,0.001938,0.469162,-0.103267,-0.876895,0.016668
55120,NaN,6.674519,-1.583143,6.150613,-8.927875,0.212715,-7.547171,-0.905792,1.001602,0.011481,-0.779053,0.141113,-0.026367,0.067053,-0.015550,0.061242,0.999977,-0.004529,0.005008,0.000057,0.473091,-0.105531,-0.874585,0.012203
55121,NaN,6.482136,-3.363733,10.022849,-12.341738,-1.169623,-9.496428,-1.034740,1.636871,0.087678,-0.779053,0.136963,-0.036865,0.065654,-0.033091,0.099866,0.999953,-0.005174,0.008184,0.000438,0.480220,-0.107996,-0.870448,0.006787
55122,NaN,7.877077,0.953637,3.077502,-6.396425,2.764486,-4.927160,-1.213678,2.340129,0.062353,-0.779297,0.143311,-0.055908,0.079120,0.009744,0.029792,0.999913,-0.006068,0.011700,0.000312,0.489723,-0.111259,-0.864750,0.000388
55123,NaN,7.262899,5.197056,0.522863,-2.916146,6.507586,-4.411519,-1.036363,3.320697,-0.031407,-0.787598,0.139160,-0.077148,0.072708,0.051981,0.003752,0.999849,-0.005182,0.016603,-0.000157,0.504024,-0.113463,-0.856181,-0.006293
55124,NaN,7.975567,6.281602,2.739278,-4.692030,7.957234,-4.789886,-0.942374,3.529663,-0.099433,-0.789795,0.137207,-0.102295,0.080250,0.062900,0.025683,0.999833,-0.004712,0.017647,-0.000497,0.518529,-0.115289,-0.847159,-0.012582
55125,NaN,10.208654,6.242010,2.596009,-5.197425,8.272565,-2.434110,-1.606712,4.406826,-0.191805,-0.789795,0.135010,-0.127686,0.102678,0.062516,0.023200,0.999725,-0.008033,0.022032,-0.000959,0.536671,-0.117910,-0.835206,-0.022634
55126,NaN,12.318505,6.220078,-6.848403,2.973006,6.822111,3.674062,-2.640205,4.957577,-0.655201,-0.789795,0.128662,-0.167969,0.121625,0.060863,-0.072321,0.999600,-0.013199,0.024785,-0.003276,0.555544,-0.121656,-0.821646,-0.038332
55127,NaN,15.089263,6.770564,-7.398168,3.432609,7.161557,6.469240,-2.047358,5.173218,-1.247546,-0.785645,0.124512,-0.201660,0.149315,0.065982,-0.078539,0.999594,-0.010235,0.025863,-0.006237,0.575595,-0.120470,-0.807045,-0.053438
55128,NaN,25.481607,3.899797,1.699661,-7.856555,7.218063,13.712145,-0.694147,5.228944,-1.420201,-0.779053,0.109619,-0.246094,0.255410,0.037229,0.010192,0.999627,-0.003470,0.026141,-0.007100,0.595698,-0.115302,-0.792353,-0.063457
55129,NaN,31.831648,-0.617187,-0.210275,-7.628276,2.266744,21.011031,-0.089465,5.180921,-1.617856,-0.768066,0.092773,-0.279785,0.318056,-0.008749,-0.010341,0.999632,-0.000447,0.025901,-0.008088,0.615914,-0.106564,-0.777283,-0.071588
55130,NaN,27.869389,-0.730344,1.076910,-6.839799,1.363010,17.199159,0.510960,3.878262,-1.619306,-0.765869,0.086426,-0.296631,0.278761,-0.009579,0.005341,0.999776,0.002555,0.019390,-0.008096,0.630557,-0.097292,-0.766197,-0.076642
55131,NaN,24.699495,1.860568,0.336615,-4.064771,2.847677,14.455185,0.474051,3.613923,-1.626552,-0.756836,0.067139,-0.334473,0.247143,0.016595,-0.001058,0.999801,0.002370,0.018068,-0.008132,0.644355,-0.087447,-0.755300,-0.081737
55132,NaN,31.588353,12.393594,3.841377,-5.342113,13.342603,21.163211,0.105857,2.606506,-2.308187,-0.756592,0.054199,-0.336670,0.317751,0.120257,0.034345,0.999848,0.000529,0.013032,-0.011540,0.653221,-0.077317,-0.747825,-0.089902
55133,NaN,41.006079,17.048737,-0.134329,-2.017848,15.715490,31.670101,-2.994770,-3.129638,-3.936478,-0.774902,0.032715,-0.291992,0.413290,0.162393,0.002635,0.999572,-0.014972,-0.015646,-0.019680,0.638799,-0.072886,-0.757577,-0.112699
55134,NaN,56.888262,-2.764170,-15.223667,1.116044,-9.628714,48.314110,-2.892354,-8.226487,-5.327676,-0.786133,-0.010254,-0.264160,0.573443,-0.044851,-0.128139,0.998695,-0.014455,-0.041115,-0.026627,0.602782,-0.066492,-0.783148,-0.137517
55135,NaN,64.698938,5.842828,-38.693853,21.430406,-13.953317,61.301100,-9.921131,5.526052,-5.379979,-0.757324,0.007324,-0.355225,0.636844,0.021355,-0.406309,0.998027,-0.049573,0.027612,-0.026882,0.616738,-0.070533,-0.759599,-0.194087
55136,NaN,28.291419,29.280629,-16.328376,21.800525,13.768587,25.580924,-15.716123,13.260112,-2.006838,-0.718506,0.041748,-0.440186,0.273108,0.275062,-0.203735,0.994669,-0.078441,0.066183,-0.010016,0.656263,-0.098083,-0.700197,-0.263483
55137,NaN,7.333855,20.183356,2.813067,7.441515,16.298468,2.335245,-9.311949,6.574601,-0.813991,-0.696289,0.078369,-0.491455,0.074827,0.202473,0.016266,0.998368,-0.046534,0.032855,-0.004068,0.673101,-0.115729,-0.665481,-0.301126
55138,NaN,17.010015,19.989371,-12.042842,20.905139,3.281706,9.806463,-11.333973,6.964709,-1.701848,-0.675049,0.140625,-0.515137,0.167164,0.190997,-0.137284,0.997753,-0.056627,0.034797,-0.008503,0.685648,-0.137448,-0.624476,-0.347886
55139,NaN,8.360915,18.681996,-14.620211,23.435276,0.622869,-0.741787,-11.166118,5.037984,0.286466,-0.651611,0.204834,-0.539062,0.079461,0.178317,-0.158357,0.998124,-0.055796,0.025174,0.001431,0.693721,-0.165866,-0.586488,-0.383759
55140,NaN,8.891026,12.735172,-4.426756,12.847353,1.650694,-0.178343,-10.575393,2.867119,1.371857,-0.636230,0.267090,-0.533203,0.087335,0.125334,-0.052193,0.998476,-0.052850,0.014328,0.006856,0.694948,-0.200796,-0.554215,-0.411793
55141,NaN,-0.959080,6.056420,-15.601653,13.702831,-8.193316,-14.891992,-11.115236,2.653933,1.928937,-0.613037,0.342041,-0.525391,-0.012215,0.051674,-0.158904,0.998322,-0.055545,0.013262,0.009639,0.694968,-0.237060,-0.519608,-0.436840
55142,NaN,-15.422047,-8.835867,-18.711843,-0.422018,-13.594613,-31.732554,-10.825438,1.799053,1.828819,-0.608643,0.412598,-0.500488,-0.154988,-0.099668,-0.180534,0.998453,-0.054099,0.008991,0.009139,0.689746,-0.275108,-0.486736,-0.460059
55143,NaN,-10.864701,-22.248363,-17.705509,-14.868110,-19.661858,-27.653263,-8.999527,0.290534,0.793472,-0.601318,0.457520,-0.475586,-0.107990,-0.230569,-0.166642,0.998979,-0.044982,0.001452,0.003966,0.680098,-0.305718,-0.463873,-0.478357
55144,NaN,-1.911231,-13.206166,-12.921372,-8.700433,-14.893033,-16.697448,-6.439216,-0.550158,0.157161,-0.604492,0.493896,-0.446289,-0.018659,-0.136145,-0.124925,0.999478,-0.032190,-0.002750,0.000786,0.669014,-0.329125,-0.449841,-0.491670
55145,NaN,-0.423258,-8.098190,-8.795397,-5.519993,-9.965346,-13.462480,-4.020232,-0.988799,-0.187145,-0.611084,0.506836,-0.431396,-0.003880,-0.082724,-0.086322,0.999785,-0.020100,-0.004944,-0.000936,0.659954,-0.344020,-0.443594,-0.499334
55146,NaN,-1.513238,-2.795293,-5.526543,-1.587571,-5.163773,-13.197872,-2.498802,-1.175483,-0.565876,-0.617920,0.517334,-0.414551,-0.014889,-0.028599,-0.054999,0.999901,-0.012494,-0.005877,-0.002829,0.651583,-0.353905,-0.442143,-0.504679
55147,NaN,-3.570089,-2.438242,-4.688320,-1.714923,-3.620714,-14.774552,-1.742709,-1.232487,-1.000189,-0.624268,0.521729,-0.404053,-0.035535,-0.024613,-0.046889,0.999931,-0.008713,-0.006162,-0.005001,0.643359,-0.360301,-0.443495,-0.509495
55148,NaN,-5.120132,-4.024606,-6.163215,-3.105855,-4.823966,-16.703358,-0.988118,-1.251863,-1.559739,-0.643311,0.519531,-0.401855,-0.051128,-0.040152,-0.061754,0.999938,-0.004940,-0.006259,-0.007799,0.634801,-0.363181,-0.447766,-0.514424
55149,NaN,-7.970289,-7.177620,-7.527280,-6.029835,-5.824804,-19.883113,-0.084874,-1.176913,-2.043002,-0.657715,0.508789,-0.397461,-0.079986,-0.070992,-0.075713,0.999930,-0.000424,-0.005884,-0.010215,0.626736,-0.361906,-0.454887,-0.518945
55150,NaN,-9.747744,-7.976424,-8.751498,-6.379403,-6.624876,-22.085791,1.389878,-1.324331,-2.390661,-0.674316,0.491699,-0.395264,-0.097832,-0.077982,-0.088708,0.999882,0.006949,-0.006621,-0.011953,0.619975,-0.355500,-0.466895,-0.520826
55151,NaN,-8.686108,-8.156239,-8.175336,-6.186018,-6.646231,-21.052625,3.050600,-1.794580,-2.676288,-0.690430,0.461670,-0.409668,-0.087185,-0.079130,-0.083754,0.999754,0.015252,-0.008972,-0.013380,0.613916,-0.344721,-0.484845,-0.518845
55152,NaN,-9.088383,-8.283695,-7.772670,-5.759493,-6.479161,-21.492796,4.324860,-2.175060,-2.933620,-0.718994,0.418945,-0.409180,-0.091204,-0.079780,-0.080465,0.999600,0.021621,-0.010874,-0.014666,0.608255,-0.329834,-0.507581,-0.513417
55153,NaN,-8.217188,-5.564743,-7.421203,-2.559618,-6.030093,-20.329109,5.195496,-2.492350,-3.042670,-0.738770,0.375977,-0.413086,-0.082041,-0.052429,-0.076625,0.999469,0.025973,-0.012460,-0.015211,0.602039,-0.313198,-0.532955,-0.505386
55154,NaN,-4.401729,-3.991018,-5.345652,-1.416196,-4.952142,-15.922068,5.774807,-2.653356,-2.768311,-0.754883,0.337402,-0.425537,-0.043825,-0.037726,-0.055149,0.999399,0.028868,-0.013264,-0.013839,0.596670,-0.294952,-0.559525,-0.493882
55155,NaN,-0.385697,-3.596276,-1.871485,-2.459321,-2.884888,-11.298486,6.265768,-2.495024,-2.129529,-0.774902,0.301025,-0.423096,-0.003992,-0.035310,-0.019877,0.999375,0.031322,-0.012473,-0.010645,0.592918,-0.277150,-0.584929,-0.479056
55156,NaN,3.875505,-1.987369,1.100566,-2.843916,-0.776046,-6.423225,6.562620,-2.227759,-1.541053,-0.796875,0.256104,-0.424561,0.038478,-0.020527,0.010769,0.999370,0.032806,-0.011136,-0.007704,0.591448,-0.258348,-0.608996,-0.461053
55157,NaN,8.828676,-2.866661,3.949994,-5.978610,0.057470,-1.688255,6.964638,-1.972711,-1.040521,-0.802246,0.221680,-0.430664,0.087743,-0.030496,0.039326,0.999332,0.034815,-0.009861,-0.005201,0.591305,-0.239924,-0.631526,-0.440420
55158,NaN,18.628327,-1.663908,9.376445,-10.224620,2.893301,8.207416,6.738978,-1.792748,-0.999615,-0.813721,0.180908,-0.421875,0.185340,-0.020750,0.094776,0.999380,0.033688,-0.008962,-0.004997,0.591177,-0.220643,-0.652451,-0.419682
55159,NaN,28.412684,2.632921,11.913217,-11.078187,5.063203,18.607530,4.215381,-0.462672,-1.259661,-0.819580,0.159668,-0.438721,0.283997,0.022013,0.120284,0.999755,0.021075,-0.002313,-0.006298,0.591264,-0.206043,-0.663572,-0.409421
55160,NaN,31.117325,4.304406,13.730380,-12.029514,6.493331,21.626795,1.044140,0.956858,-1.019605,-0.815186,0.151123,-0.451416,0.312038,0.040742,0.136029,0.999962,0.005221,0.004784,-0.005098,0.593422,-0.197604,-0.663888,-0.409946
55161,NaN,30.498160,10.441936,18.777403,-10.090969,13.461068,23.482391,-2.202514,3.318723,-0.442056,-0.798584,0.161865,-0.487305,0.308261,0.105762,0.181517,0.999799,-0.011012,0.016593,-0.002210,0.601026,-0.196862,-0.649446,-0.422176
55162,NaN,6.472723,10.222251,13.303086,-1.344233,14.351986,0.933139,-3.436826,5.494740,0.021144,-0.780029,0.172852,-0.521484,0.068305,0.104474,0.129404,0.999475,-0.017181,0.027469,0.000106,0.615230,-0.195553,-0.625303,-0.438461
55163,NaN,-1.060742,15.486497,-26.654719,28.297635,-12.258576,-10.362634,-0.299491,4.298428,-0.356704,-0.765381,0.172852,-0.553223,-0.016060,0.154491,-0.266473,0.999766,-0.001497,0.021490,-0.001783,0.627425,-0.186484,-0.611253,-0.444895
55164,NaN,-1.373947,11.072695,-36.931918,31.441274,-21.850777,-14.537235,2.712530,1.861215,-0.457782,-0.762451,0.149414,-0.565674,-0.016905,0.115757,-0.367624,0.999862,0.013562,0.009306,-0.002289,0.634555,-0.172406,-0.611771,-0.439719
55165,NaN,6.176681,-5.618204,-15.329521,4.702490,-16.770736,-8.672535,4.470989,-0.981580,-0.637239,-0.770020,0.119385,-0.559082,0.062350,-0.052940,-0.154198,0.999733,0.022353,-0.004907,-0.003186,0.633677,-0.158873,-0.624996,-0.427309
55166,NaN,6.441270,-5.678659,-4.388615,-2.029289,-8.796009,-6.423073,8.608444,-1.899831,-0.903202,-0.781006,0.061523,-0.554443,0.064589,-0.055137,-0.045670,0.999019,0.043028,-0.009496,-0.004515,0.632045,-0.132684,-0.649485,-0.401353
55167,NaN,4.671954,-2.491463,-16.246012,9.640004,-13.995088,-8.076521,8.601421,-0.203016,-0.485270,-0.775635,0.016357,-0.566650,0.046836,-0.018016,-0.163286,0.999072,0.042994,-0.001015,-0.002426,0.635263,-0.105124,-0.667021,-0.374797
55168,NaN,-1.300645,-11.525860,-41.717669,26.350048,-33.236467,-18.483924,6.810800,0.381210,0.273438,-0.787354,-0.009277,-0.551758,-0.013662,-0.100987,-0.420753,0.999417,0.034047,0.001906,0.001367,0.640274,-0.083629,-0.678021,-0.351203
55169,NaN,2.027370,-17.277134,-23.534558,9.243777,-27.254705,-15.104044,3.478204,-4.337483,1.542238,-0.806152,-0.013672,-0.509277,0.026723,-0.168460,-0.237768,0.999584,0.017389,-0.021684,0.007710,0.629017,-0.086638,-0.697137,-0.332915
55170,NaN,8.233492,-13.902640,-20.517467,7.869729,-24.623313,-6.161660,5.381538,-8.230153,2.209978,-0.850098,-0.029053,-0.432861,0.092268,-0.132521,-0.205138,0.998731,0.026896,-0.041133,0.011045,0.605570,-0.091004,-0.730105,-0.303233
55171,NaN,10.252012,-6.403190,-17.828576,8.919685,-16.749948,0.348823,8.432731,-9.785159,2.637922,-0.885254,-0.044189,-0.350098,0.111920,-0.055156,-0.175412,0.997828,0.042133,-0.048890,0.013180,0.575836,-0.091855,-0.769727,-0.259801
55172,NaN,13.472314,-2.594375,-13.429824,5.568063,-10.106911,5.512819,12.108590,-9.660726,2.769163,-0.912109,-0.057373,-0.244141,0.141304,-0.016104,-0.128748,0.996906,0.060481,-0.048254,0.013832,0.546082,-0.079928,-0.809559,-0.200050
55173,NaN,24.271760,6.299846,-18.363129,7.220094,-2.255347,20.309249,9.678293,-9.460981,3.432896,-0.929199,-0.042725,-0.166016,0.249704,0.075648,-0.168464,0.997564,0.048352,-0.047266,0.017151,0.513400,-0.079113,-0.841667,-0.147506
55174,NaN,36.824046,11.647061,-18.166297,0.433060,5.459825,32.504800,0.270320,-7.634321,3.645847,-0.942627,-0.008545,-0.104980,0.372603,0.123470,-0.167329,0.999105,0.001351,-0.038160,0.018224,0.483638,-0.099321,-0.859249,-0.133864
55175,NaN,41.305226,22.356268,-21.561474,2.196078,16.488416,39.113844,-5.611039,-7.346364,4.436745,-0.945801,0.034180,-0.052490,0.415746,0.226884,-0.206708,0.998686,-0.028043,-0.036716,0.022174,0.451203,-0.138880,-0.869800,-0.143443
55176,NaN,59.156241,55.062712,-13.675303,0.609133,51.322951,54.069826,-10.522045,-0.434795,3.921082,-0.943115,0.079346,-0.103516,0.581058,0.553918,-0.164576,0.998422,-0.052583,-0.002173,0.019595,0.444130,-0.179746,-0.859131,-0.179815
55177,NaN,36.802812,26.629518,-15.592872,6.236581,19.149847,33.738488,-11.956993,9.945406,2.839007,-0.941162,0.079346,-0.147949,0.355424,0.260734,-0.189534,0.996877,-0.059723,0.049675,0.014180,0.476871,-0.209588,-0.821156,-0.233174
55178,NaN,18.861431,-3.764815,-9.977299,-4.307921,-5.950281,10.567197,10.426755,-7.898277,-2.373595,-0.950928,0.057861,-0.075928,0.191982,-0.034908,-0.094100,0.997792,0.052095,-0.039462,-0.011859,0.451587,-0.183748,-0.852781,-0.187271
55179,NaN,46.437775,-2.101797,19.983555,-40.702140,13.833344,16.845339,11.806173,-6.577077,-1.360030,-0.958984,0.051270,-0.008057,0.457298,-0.036471,0.213109,0.997695,0.058985,-0.032860,-0.006795,0.431824,-0.157389,-0.878032,-0.133476
55180,NaN,38.578382,-8.949207,32.805558,-49.682069,9.505001,-0.587450,3.271679,-5.281068,-1.895835,-0.956299,0.036133,0.004639,0.376066,-0.098547,0.336510,0.999473,0.016356,-0.026401,-0.009478,0.409746,-0.145450,-0.892634,-0.118987
55181,NaN,31.314202,0.025049,16.204684,-30.929096,10.058860,3.799450,4.157607,-0.250459,-1.186936,-0.949463,0.025391,0.006836,0.312920,-0.004980,0.162372,0.999766,0.020786,-0.001252,-0.005934,0.410972,-0.132698,-0.896067,-0.102748
55182,NaN,11.237430,8.677732,11.912346,-12.852332,13.271065,-8.341632,2.835208,-0.534708,-0.274365,-0.966797,0.031738,-0.003662,0.112170,0.084920,0.120636,0.999895,0.014176,-0.002673,-0.001372,0.410295,-0.125910,-0.898699,-0.090249
55183,NaN,12.729858,0.593031,8.456673,-13.875985,4.612299,-5.332335,3.205640,3.310397,-0.052395,-0.968994,0.029785,-0.020508,0.128677,0.004563,0.082525,0.999735,0.016027,0.016551,-0.000262,0.427389,-0.118518,-0.892846,-0.078218
55184,NaN,-2.141160,10.470109,1.260150,3.211820,10.041052,-11.969641,2.256220,-0.690782,0.667497,-0.975586,0.038330,-0.022705,-0.021807,0.104478,0.013706,0.999925,0.011281,-0.003454,0.003337,0.425893,-0.116944,-0.894730,-0.066309
55185,NaN,-5.989707,10.930128,3.819431,3.633700,10.419678,-16.751996,1.559235,0.766856,0.651541,-0.984131,0.040527,-0.029053,-0.060103,0.108802,0.039274,0.999957,0.007796,0.003834,0.003258,0.430824,-0.117004,-0.892897,-0.058609
55186,NaN,-5.908295,14.684733,4.928972,3.570277,14.236184,-17.521433,1.045615,0.537921,0.452979,-0.984375,0.044922,-0.033203,-0.059281,0.146452,0.050215,0.999980,0.005228,0.002690,0.002265,0.433983,-0.116621,-0.891751,-0.053283
55187,NaN,-1.734959,15.472468,7.596224,-0.914510,16.142701,-16.032133,1.410546,0.515714,0.314967,-0.984375,0.042725,-0.041748,-0.017395,0.154156,0.077096,0.999971,0.007053,0.002579,0.001575,0.437529,-0.114923,-0.890602,-0.046783
55188,NaN,-0.056789,15.432088,6.260925,-1.115559,16.067386,-14.048017,1.901130,0.322080,0.123192,-0.990723,0.042725,-0.033203,-0.000560,0.153716,0.064073,0.999953,0.009506,0.001610,0.000616,0.440086,-0.111239,-0.890218,-0.038235
55189,NaN,2.852768,13.805741,5.537372,-2.861437,14.787501,-11.405492,1.462551,-0.227920,0.194935,-0.988525,0.040527,-0.035400,0.028329,0.137675,0.056414,0.999972,0.007313,-0.001140,0.000975,0.440253,-0.108382,-0.890758,-0.031315
55190,NaN,5.734433,12.069347,5.615638,-5.085853,13.559655,-9.214577,0.466851,0.140229,0.432240,-0.984131,0.040527,-0.037598,0.057123,0.120686,0.056398,0.999995,0.002334,0.000701,0.002161,0.441218,-0.109264,-0.890272,-0.028364
55191,NaN,3.402367,5.906734,6.601993,-5.854859,7.299184,-11.392062,0.260329,0.814704,0.781260,-0.984619,0.051270,-0.052490,0.034062,0.059114,0.065958,0.999983,0.001302,0.004073,0.003906,0.445450,-0.111033,-0.888013,-0.026060
55192,NaN,2.048567,0.955535,6.494001,-6.076776,2.249631,-12.113413,-0.231146,0.902643,0.946495,-0.989014,0.055664,-0.054443,0.020733,0.009728,0.064836,0.999978,-0.001156,0.004513,0.004732,0.449465,-0.115638,-0.885415,-0.025483
55193,NaN,1.357208,-3.871244,8.401689,-8.298936,-2.256402,-13.480533,-0.178682,-0.022481,0.874905,-0.991211,0.062012,-0.046143,0.013732,-0.038578,0.084053,0.999990,-0.000893,-0.000112,0.004375,0.449778,-0.118877,-0.884856,-0.024442
55194,NaN,3.972002,-5.276721,10.985099,-12.159095,-2.668775,-12.866425,-0.818839,-0.752546,0.536517,-0.991455,0.066162,-0.039795,0.039446,-0.052210,0.110214,0.999981,-0.004094,-0.003763,0.002683,0.446041,-0.123190,-0.886101,-0.026415
55195,NaN,6.434881,-3.213867,9.455827,-11.873489,-0.285523,-10.102027,-1.794144,1.189488,0.325247,-0.989258,0.070557,-0.046143,0.064962,-0.031186,0.094456,0.999941,-0.008971,0.005947,0.001626,0.450733,-0.127815,-0.882784,-0.034573
55196,NaN,5.954267,-3.409907,2.738881,-6.352276,-1.609756,-6.401259,-2.190806,2.601662,0.354096,-0.989258,0.066406,-0.073730,0.059955,-0.033696,0.026981,0.999854,-0.010953,0.013008,0.001770,0.460834,-0.133854,-0.876174,-0.045107
55197,NaN,6.317659,-0.549155,4.855264,-7.384379,1.691839,-7.284181,-0.882566,2.420801,0.199217,-0.982910,0.062256,-0.092773,0.063764,-0.005216,0.047807,0.999917,-0.004413,0.012104,0.000996,0.471441,-0.135829,-0.869918,-0.050369
55198,NaN,8.644862,2.997243,3.844442,-6.654210,5.327970,-4.730863,-0.656302,2.661160,0.016594,-0.985107,0.062256,-0.107422,0.086947,0.030103,0.037191,0.999906,-0.003281,0.013305,0.000083,0.482552,-0.136772,-0.863373,-0.054992
55199,NaN,8.124074,4.014149,3.026095,-5.241052,6.000230,-4.540907,-1.128801,3.097344,0.083267,-0.981201,0.066650,-0.141357,0.081677,0.040341,0.028771,0.999864,-0.005644,0.015486,0.000416,0.495742,-0.138640,-0.855086,-0.062027
55200,NaN,8.520203,4.964309,1.463314,-3.592606,6.564553,-3.227210,-1.538912,3.286116,0.178648,-0.970703,0.064453,-0.164551,0.085378,0.049823,0.012848,0.999835,-0.007694,0.016430,0.000893,0.508720,-0.142183,-0.846184,-0.070436
55201,NaN,12.625481,7.133308,-1.246318,-2.046054,8.470371,1.844016,-2.124106,3.366963,0.016538,-0.975098,0.064697,-0.192139,0.126007,0.071191,-0.015343,0.999802,-0.010620,0.016834,0.000083,0.522024,-0.145953,-0.836342,-0.081987
55202,NaN,15.644881,8.489264,-7.993417,3.483333,7.980717,7.647140,-0.716478,4.286956,-0.565267,-0.962158,0.058350,-0.230225,0.154922,0.084158,-0.083568,0.999760,-0.003582,0.021433,-0.002826,0.539091,-0.143673,-0.825055,-0.089572
55203,NaN,23.769862,4.626742,-1.164971,-5.984550,7.120112,12.574315,2.724327,4.673960,-0.505934,-0.957764,0.047607,-0.272461,0.237466,0.045870,-0.016575,0.999631,0.013620,0.023367,-0.002529,0.560541,-0.131252,-0.813419,-0.083163
55204,NaN,42.554433,6.208318,-2.039350,-9.349818,9.955539,31.008417,2.264028,7.060414,-0.561301,-0.940918,0.037109,-0.340088,0.424660,0.061229,-0.034701,0.999309,0.011318,0.035294,-0.002806,0.590136,-0.119606,-0.794365,-0.080109
55205,NaN,37.315326,-1.573786,-7.026364,-2.896423,-0.355225,28.070303,0.003106,7.307991,-0.374741,-0.919678,0.035156,-0.390869,0.370225,-0.016432,-0.083830,0.999331,0.000016,0.036532,-0.001873,0.619279,-0.114091,-0.772107,-0.085594
55206,NaN,23.534208,-8.317686,-6.001037,-1.146699,-8.121465,14.512339,2.636757,2.959608,-0.871897,-0.919189,0.013916,-0.399170,0.234046,-0.083368,-0.064579,0.999794,0.013183,0.014797,-0.004359,0.631730,-0.101278,-0.764391,-0.079790
55207,NaN,31.368689,-2.867617,1.835280,-7.958354,-0.935198,20.705228,0.935804,1.369813,-1.323954,-0.912354,0.000977,-0.403320,0.313603,-0.030831,0.016064,0.999944,0.004679,0.006849,-0.006620,0.637509,-0.091942,-0.760613,-0.081224
55208,NaN,39.447555,0.516452,4.777025,-11.296835,2.616197,28.195912,-0.999843,-0.143886,-2.597200,-0.919922,-0.026855,-0.386230,0.394466,0.000282,0.048045,0.999903,-0.004999,-0.000719,-0.012986,0.635408,-0.085308,-0.761766,-0.093233
55209,NaN,42.519871,3.066428,-8.691360,-0.140635,0.365721,33.679191,-3.813533,-6.650075,-5.140522,-0.935547,-0.063477,-0.328613,0.428358,0.018196,-0.073128,0.998935,-0.019061,-0.033239,-0.025693,0.606108,-0.080338,-0.781945,-0.121415
55210,NaN,60.071581,3.869815,-30.260772,12.751046,-9.245347,55.668400,-9.211446,-1.354636,-5.986532,-0.922852,-0.072021,-0.381592,0.603274,0.006819,-0.299330,0.998469,-0.046034,-0.006770,-0.029917,0.592580,-0.085550,-0.781645,-0.174817
55211,NaN,30.894718,19.858808,-28.011177,25.383230,1.679117,28.649378,-15.902042,11.614698,-4.179512,-0.869141,-0.039551,-0.506836,0.295168,0.168341,-0.311742,0.994939,-0.079376,0.057975,-0.020862,0.625118,-0.105337,-0.730667,-0.253489
55212,NaN,3.636011,19.458634,-0.892464,10.212718,14.760064,-1.447005,-10.768344,10.273480,-1.349790,-0.825928,-0.002930,-0.566406,0.036788,0.193415,-0.021249,0.997210,-0.053792,0.051320,-0.006743,0.653519,-0.120735,-0.683599,-0.301710
55213,NaN,18.427511,31.998613,-14.645410,29.252925,10.546823,14.856259,-11.381348,7.516869,-1.303857,-0.783447,0.057373,-0.632568,0.180192,0.309528,-0.171103,0.997654,-0.056862,0.037555,-0.006514,0.669579,-0.140786,-0.640656,-0.348430
55214,NaN,-4.185378,25.453457,-9.682596,24.591289,12.393612,-9.261275,-9.331946,5.217970,1.032555,-0.757812,0.119629,-0.654297,-0.045862,0.249457,-0.107386,0.998558,-0.046637,0.026077,0.005160,0.680573,-0.166028,-0.605270,-0.378025
55215,NaN,3.606208,5.935802,-11.514769,12.115126,-5.486207,-7.854930,-8.465123,3.253224,1.233062,-0.738281,0.179688,-0.667480,0.033810,0.054613,-0.118089,0.998953,-0.042311,0.016260,0.006163,0.686082,-0.190252,-0.576505,-0.400921
55216,NaN,-1.555551,3.276089,-12.115211,9.878987,-6.627561,-14.090350,-8.879359,2.185338,1.312679,-0.721191,0.243896,-0.667969,-0.017079,0.027239,-0.122262,0.998933,-0.044381,0.010923,0.006561,0.685853,-0.219897,-0.549328,-0.423661
55217,NaN,-12.908876,-14.757866,-15.294702,-4.785966,-15.165357,-28.922413,-7.462202,1.789784,1.113138,-0.714111,0.288818,-0.657715,-0.129572,-0.153837,-0.146126,0.999249,-0.037302,0.008947,0.005564,0.685518,-0.242741,-0.525887,-0.441117
55218,NaN,-10.040078,-16.654954,-13.517117,-8.714124,-15.228958,-25.714762,-6.321829,0.637294,0.355611,-0.704590,0.329590,-0.647705,-0.100518,-0.170882,-0.129495,0.999494,-0.031604,0.003186,0.001778,0.679977,-0.263807,-0.509038,-0.457076
55219,NaN,-1.083799,-4.496738,-10.004559,0.193295,-9.862125,-14.728262,-4.965218,-0.036864,0.020232,-0.705322,0.355225,-0.628662,-0.010815,-0.047433,-0.098890,0.999692,-0.024824,-0.000184,0.000101,0.673958,-0.279702,-0.497623,-0.468954
55220,NaN,0.043109,1.884722,-7.308790,4.584993,-5.514037,-12.165981,-4.016516,-0.238092,-0.050751,-0.703613,0.374512,-0.609863,0.000523,0.017374,-0.073446,0.999798,-0.020081,-0.001190,-0.000254,0.667511,-0.293604,-0.488951,-0.478699
55221,NaN,-1.763048,2.093164,-7.999929,4.697895,-5.567524,-14.103832,-3.502560,-0.509971,-0.258529,-0.701904,0.389404,-0.595215,-0.017400,0.019549,-0.080394,0.999843,-0.017512,-0.002550,-0.001293,0.661025,-0.305077,-0.482566,-0.486934
55222,NaN,-4.382789,-2.062762,-9.436740,0.906280,-7.451472,-17.307028,-2.713440,-0.796766,-0.492547,-0.706299,0.400146,-0.580566,-0.043505,-0.021799,-0.094251,0.999897,-0.013567,-0.003984,-0.002463,0.653713,-0.314756,-0.479268,-0.493853
55223,NaN,-7.801203,-4.671912,-10.158253,-1.670966,-7.800696,-20.868506,-1.655781,-1.083810,-0.722109,-0.716797,0.400146,-0.563477,-0.077631,-0.047280,-0.101614,0.999945,-0.008279,-0.005419,-0.003610,0.647167,-0.320540,-0.479829,-0.498190
55224,NaN,-10.012063,-7.095246,-9.900626,-4.169929,-7.630131,-22.965550,-0.614670,-1.406154,-0.963949,-0.727295,0.391357,-0.552734,-0.099764,-0.070776,-0.099491,0.999959,-0.003073,-0.007031,-0.004820,0.640397,-0.323697,-0.484347,-0.500519
55225,NaN,-11.946388,-11.428832,-10.627278,-7.965418,-9.052154,-25.332776,0.685839,-1.702296,-1.265208,-0.741455,0.372070,-0.537842,-0.119270,-0.113166,-0.107678,0.999938,0.003429,-0.008511,-0.006326,0.634435,-0.322456,-0.493439,-0.500032
55226,NaN,-11.066216,-13.714599,-9.463309,-10.058000,-9.225376,-24.434454,2.340481,-2.017154,-1.679169,-0.751221,0.342041,-0.535400,-0.110829,-0.135087,-0.097339,0.999845,0.011702,-0.010085,-0.008395,0.628953,-0.315874,-0.508293,-0.496266
55227,NaN,-9.161413,-12.165105,-6.549131,-8.974751,-7.075425,-21.819032,3.671042,-2.221349,-2.146569,-0.769043,0.305664,-0.528809,-0.092153,-0.119422,-0.068719,0.999712,0.018353,-0.011106,-0.010732,0.623591,-0.304564,-0.527371,-0.490159
55228,NaN,-6.871336,-6.962596,-5.420867,-4.009235,-5.333346,-18.786318,4.421351,-2.582933,-2.572669,-0.791260,0.264893,-0.520020,-0.068870,-0.067507,-0.056606,0.999590,0.022104,-0.012913,-0.012862,0.616971,-0.290194,-0.549932,-0.482398
55229,NaN,-5.933283,-3.167914,-8.124157,1.080108,-6.807910,-17.792997,5.364195,-3.017818,-2.696494,-0.804443,0.211182,-0.504639,-0.058490,-0.028677,-0.082925,0.999436,0.026816,-0.015086,-0.013480,0.609470,-0.273948,-0.575440,-0.471560
55230,NaN,0.735013,-5.056568,-8.225911,-0.666081,-9.491318,-11.606568,6.081427,-3.263549,-2.370758,-0.828369,0.164062,-0.485107,0.008127,-0.048130,-0.083619,0.999334,0.030400,-0.016314,-0.011851,0.602436,-0.256104,-0.602557,-0.456516
55231,NaN,9.706158,-5.041936,-3.594397,-3.956139,-7.676622,-2.198987,5.586725,-3.330541,-1.744954,-0.844238,0.127686,-0.465820,0.097219,-0.050267,-0.035731,0.999433,0.027928,-0.016650,-0.008723,0.595010,-0.242317,-0.626908,-0.440717
55232,NaN,18.606857,0.660056,-0.839489,-2.501922,-4.269342,8.154849,4.055804,-3.263541,-1.152727,-0.856201,0.101807,-0.433838,0.186206,0.005655,-0.005236,0.999645,0.020277,-0.016316,-0.005763,0.586966,-0.233738,-0.646702,-0.427333
55233,NaN,22.497651,8.515401,8.954634,-3.048254,7.695708,14.482293,2.187464,-3.061199,-0.873215,-0.868164,0.084473,-0.414551,0.223927,0.083164,0.093896,0.999814,0.010937,-0.015305,-0.004366,0.577379,-0.232051,-0.660915,-0.419496
55234,NaN,26.296823,12.107362,21.734781,-8.922375,19.801324,19.149201,0.359702,-1.090655,-0.979702,-0.870117,0.080322,-0.408203,0.262365,0.119395,0.218995,0.999972,0.001798,-0.005453,-0.004898,0.572144,-0.230051,-0.665912,-0.419867
55235,NaN,25.510111,6.553036,19.655320,-12.092834,15.262051,16.661306,-0.828552,0.007821,-0.733432,-0.867920,0.069580,-0.420898,0.255349,0.065408,0.196272,0.999985,-0.004143,0.000039,-0.003667,0.569622,-0.230615,-0.664651,-0.424954
55236,NaN,33.145835,-6.612767,37.954572,-34.485006,21.211396,20.901933,-0.048770,4.380719,-0.522231,-0.851318,0.076172,-0.467529,0.339491,-0.066916,0.372184,0.999757,-0.000244,0.021902,-0.002611,0.582897,-0.219650,-0.652488,-0.431560
55237,NaN,35.739259,-3.094106,36.498215,-30.142156,19.103598,26.840167,-3.308014,9.537662,0.189728,-0.805420,0.093506,-0.548096,0.374283,-0.024742,0.347840,0.998726,-0.016533,0.047668,0.000948,0.610190,-0.209545,-0.616021,-0.451971
55238,NaN,55.355649,15.675241,-32.416240,23.237494,-35.850123,40.521198,-1.230656,7.245114,1.655246,-0.776611,0.119385,-0.590820,0.540001,0.159180,-0.344866,0.999291,-0.006152,0.036217,0.008274,0.634540,-0.201871,-0.588944,-0.457987
55239,NaN,5.643828,34.770482,-19.251009,38.890110,-0.584155,0.101409,-4.252786,2.377430,2.003726,-0.770996,0.140869,-0.597168,0.050627,0.344025,-0.200477,0.999653,-0.021261,0.011886,0.010017,0.641583,-0.216493,-0.568891,-0.466760
55240,NaN,3.614130,6.585400,-4.549385,7.724305,-1.748026,-6.018009,3.402292,4.074349,0.296177,-0.736572,0.125977,-0.639648,0.035122,0.066676,-0.045087,0.999647,0.017009,0.020369,0.001481,0.657338,-0.196831,-0.563213,-0.460386
55241,NaN,-28.640724,-9.586778,-48.301315,20.894942,-30.406433,-53.213610,2.226687,3.887203,0.422083,-0.729980,0.108887,-0.658447,-0.295540,-0.091142,-0.478360,0.999747,0.011132,0.019434,0.002110,0.671314,-0.181980,-0.554735,-0.456608
55242,NaN,-21.006205,-16.040183,-46.163348,16.521730,-33.640889,-47.537013,9.384936,0.163721,-0.364079,-0.740479,0.033936,-0.653564,-0.210709,-0.138143,-0.468293,0.998897,0.046907,0.000818,-0.001820,0.678754,-0.148900,-0.575295,-0.431460
55243,NaN,-2.232402,-26.668475,-11.827381,-11.260742,-23.543475,-23.017369,8.808530,-3.485916,0.973471,-0.771484,0.012207,-0.611084,-0.018843,-0.261221,-0.130211,0.998867,0.044026,-0.017423,0.004866,0.676312,-0.130020,-0.604658,-0.400106
55244,NaN,-7.837798,-8.487344,-24.342041,11.911075,-19.109220,-24.599645,-0.393910,-7.163092,1.232499,-0.815674,0.012207,-0.553955,-0.069074,-0.085801,-0.245837,0.999338,-0.001969,-0.035808,0.006161,0.656446,-0.149313,-0.626859,-0.392214
55245,NaN,7.468621,12.851861,-58.831774,49.152801,-35.277430,-5.604213,1.035168,-11.087485,-1.988394,-0.874268,-0.007324,-0.460449,0.108380,0.130578,-0.582258,0.998401,0.005173,-0.055408,-0.009937,0.617016,-0.162630,-0.665619,-0.387033
55246,NaN,34.969748,43.195515,-35.377043,45.936423,-4.559544,37.140642,4.961168,-10.693018,-1.767315,-0.912598,-0.059082,-0.381592,0.371388,0.437014,-0.323490,0.998225,0.024791,-0.053433,-0.008831,0.580993,-0.161843,-0.708414,-0.366611
55247,NaN,34.032265,29.825730,4.622212,4.498233,18.453638,31.483235,10.909242,-7.736065,-2.031649,-0.929688,-0.119385,-0.300781,0.340764,0.291210,0.075425,0.997714,0.054505,-0.038651,-0.010151,0.556752,-0.137891,-0.751113,-0.326868
55248,NaN,34.286336,8.067341,40.460322,-39.249039,25.476897,16.369411,12.675184,-2.900615,0.120352,-0.937744,-0.130127,-0.262695,0.336868,0.054845,0.413543,0.997887,0.063331,-0.014493,0.000601,0.553647,-0.107527,-0.778191,-0.276282
55249,NaN,13.682549,-7.692704,-4.828856,-4.459433,-10.674234,1.840970,10.289332,-2.564729,2.098464,-0.952148,-0.136719,-0.216064,0.138242,-0.072925,-0.050343,0.998540,0.051422,-0.012817,0.010487,0.551013,-0.091335,-0.797332,-0.228700
55250,NaN,15.435552,-4.537614,-6.420793,-2.206883,-8.126264,5.322055,9.986784,-4.296129,2.557699,-0.964844,-0.126221,-0.152588,0.156254,-0.040220,-0.062959,0.998441,0.049908,-0.021469,0.012782,0.540546,-0.078796,-0.818146,-0.179552
55251,NaN,28.007516,2.103342,3.954543,-14.405976,2.113649,14.525300,6.240776,-3.885682,2.569268,-0.969482,-0.109131,-0.121094,0.278938,0.023260,0.045676,0.999242,0.031196,-0.019424,0.012843,0.528797,-0.076926,-0.832644,-0.145465
55252,NaN,30.727273,12.012130,-4.931379,-5.828538,9.688502,21.567550,1.300379,-3.169363,3.442748,-0.985352,-0.068604,-0.087402,0.305863,0.125691,-0.043654,0.999705,0.006501,-0.015845,0.017212,0.518480,-0.090107,-0.840380,-0.129693
55253,NaN,37.780751,13.556353,-12.925798,-2.274121,10.149189,31.051713,-2.097793,-3.392321,3.251272,-0.988037,-0.047119,-0.066406,0.377688,0.140383,-0.124306,0.999669,-0.010488,-0.016960,0.016255,0.505097,-0.112357,-0.846005,-0.128565
55254,NaN,33.963526,14.245412,-7.014325,-5.240915,13.426749,24.797534,0.967167,0.528932,1.700707,-0.994873,-0.032227,-0.083496,0.338220,0.145674,-0.070340,0.999949,0.004836,0.002645,0.008503,0.508973,-0.116768,-0.844273,-0.120475
55255,NaN,23.256964,6.359157,8.291960,-15.290970,10.585303,7.628819,-0.384046,0.482503,1.464084,-0.993408,-0.015137,-0.079346,0.232294,0.065451,0.082234,0.999968,-0.001920,0.002412,0.007320,0.511596,-0.124255,-0.841867,-0.118697
55256,NaN,22.984291,4.873772,13.059448,-19.281172,11.335796,5.094643,-5.410790,-1.259021,1.288679,-0.997803,-0.006592,-0.077393,0.228685,0.053748,0.130628,0.999593,-0.027050,-0.006294,0.006443,0.503521,-0.144221,-0.840715,-0.137349
55257,NaN,19.043257,9.720379,8.739030,-11.600536,14.453282,3.970651,-4.989155,-0.448910,1.186074,-1.002686,0.010742,-0.085938,0.189650,0.100476,0.085337,0.999669,-0.024943,-0.002244,0.005930,0.498744,-0.162577,-0.837126,-0.155062
55258,NaN,11.322619,6.893295,1.343852,-3.021850,8.101434,0.323809,-4.778507,-0.070787,1.036950,-1.000732,0.019287,-0.079590,0.112861,0.069814,0.011817,0.999701,-0.023890,-0.000354,0.005184,0.495246,-0.178843,-0.832486,-0.172379
55259,NaN,7.834803,6.205955,-1.573592,0.597670,5.710499,-1.481604,-1.525944,-1.812213,0.095659,-1.005127,0.023438,-0.066895,0.078460,0.061978,-0.015498,0.999930,-0.007630,-0.009061,0.000478,0.486521,-0.184882,-0.835346,-0.176954
55260,NaN,0.170651,-4.681274,-7.605647,3.424361,-7.631186,-6.678021,1.572804,0.635224,-0.244481,-1.004883,0.014893,-0.085938,0.001407,-0.046215,-0.076426,0.999963,0.007864,0.003176,-0.001222,0.490422,-0.179470,-0.835369,-0.171569
55261,NaN,-3.720197,-1.382865,0.854580,0.392906,-1.313182,-13.634160,4.111982,1.373378,-0.631368,-1.004883,0.010742,-0.092285,-0.037187,-0.013887,0.008516,0.999760,0.020558,0.006866,-0.003157,0.499310,-0.165813,-0.835749,-0.157222
55262,NaN,1.139103,-0.072372,5.650506,-5.005265,2.405140,-11.358786,3.367444,0.476075,-0.340645,-1.004883,0.012939,-0.096436,0.011523,-0.001694,0.056455,0.999854,0.016836,0.002380,-0.001703,0.503778,-0.155589,-0.837349,-0.144381
55263,NaN,-5.001683,0.262678,2.400464,0.396333,0.593910,-15.320680,1.514298,-0.031029,0.411121,-1.011230,0.015137,-0.098633,-0.050026,0.002342,0.024015,0.999969,0.007571,-0.000155,0.002056,0.505245,-0.153801,-0.838024,-0.137073
55264,NaN,-2.246072,1.976460,1.260082,0.766231,2.001097,-12.251375,2.136315,-2.199202,0.832301,-1.015381,0.017090,-0.066895,-0.022681,0.019536,0.012562,0.999874,0.010681,-0.010996,0.004161,0.498208,-0.153385,-0.844279,-0.124318
55265,NaN,1.960258,3.014722,3.743613,-2.763895,4.393459,-9.782770,1.804194,-3.162469,1.242985,-1.015869,0.029785,-0.041504,0.018818,0.029925,0.038008,0.999815,0.009020,-0.015811,0.006215,0.487064,-0.156298,-0.852036,-0.111238
55266,NaN,2.315056,1.599156,5.669996,-4.997546,3.785320,-10.683638,0.477707,-2.690563,1.423425,-1.013916,0.042725,-0.022705,0.022271,0.016016,0.057042,0.999881,0.002388,-0.013452,0.007117,0.476738,-0.162683,-0.857623,-0.103628
55267,NaN,3.959650,5.661023,6.143029,-4.688133,7.963799,-9.568016,2.072004,0.015279,0.294135,-1.013916,0.040527,-0.033203,0.039519,0.056028,0.062010,0.999945,0.010360,0.000076,0.001471,0.478790,-0.159144,-0.858238,-0.094134
55268,NaN,6.293894,4.567790,6.743337,-6.924023,7.385176,-7.954458,5.161869,0.940402,-0.333564,-1.009521,0.036377,-0.043701,0.063333,0.043817,0.068283,0.999655,0.025806,0.004701,-0.001668,0.486637,-0.144866,-0.858367,-0.073508
55269,NaN,7.890308,3.135203,12.729234,-13.295627,7.567655,-9.574934,3.612968,1.388601,0.001106,-1.009521,0.027832,-0.064697,0.079787,0.029053,0.127279,0.999813,0.018064,0.006943,0.000006,0.495343,-0.135560,-0.856018,-0.059092
55270,NaN,7.336556,5.596278,12.729262,-12.453300,9.595499,-9.930323,0.566656,1.757323,0.004992,-1.009521,0.025635,-0.077393,0.074480,0.055605,0.126799,0.999957,0.002833,0.008786,0.000025,0.503257,-0.133661,-0.851775,-0.057849
55271,NaN,8.403271,4.333385,12.282637,-12.883607,8.514568,-8.484810,-1.358659,1.465950,0.111693,-1.011475,0.023682,-0.098633,0.084904,0.044211,0.121908,0.999950,-0.006793,0.007330,0.000558,0.508905,-0.137101,-0.847386,-0.064468
55272,NaN,10.211874,-0.054629,7.570142,-10.854779,3.671415,-4.310476,-3.378908,1.798450,0.577694,-1.007568,0.030029,-0.111328,0.102792,0.001018,0.074771,0.999813,-0.016893,0.008992,0.002888,0.514327,-0.147548,-0.841147,-0.078541
55273,NaN,10.276851,0.329642,1.958397,-5.803753,2.602200,-1.500326,-2.862580,2.532046,0.543482,-1.003418,0.032227,-0.143066,0.102995,0.003843,0.018229,0.999814,-0.014312,0.012659,0.002717,0.523352,-0.156168,-0.832704,-0.091197
55274,NaN,9.716844,2.308877,1.058169,-3.836510,4.064295,-1.468844,-1.819779,3.189379,0.418325,-0.999512,0.034668,-0.177002,0.097270,0.023378,0.008819,0.999829,-0.009098,0.015946,0.002092,0.535339,-0.161198,-0.823040,-0.100161
55275,NaN,12.985808,4.620258,2.926621,-5.341836,7.293145,0.993919,-3.305500,3.638485,0.451039,-0.991455,0.041016,-0.210938,0.130247,0.046945,0.026127,0.999695,-0.016526,0.018191,0.002255,0.548087,-0.170010,-0.810759,-0.115614
55276,NaN,19.259932,13.205072,-3.618749,2.545859,13.142764,9.653504,-6.892678,4.469252,0.183987,-0.979248,0.054199,-0.263916,0.191538,0.130777,-0.044999,0.999156,-0.034454,0.022340,0.000920,0.560013,-0.186920,-0.793669,-0.146751
55277,NaN,18.565707,15.351134,-21.784508,20.312151,5.292301,14.960434,-5.496991,6.181201,-0.979043,-0.960205,0.054199,-0.310547,0.179452,0.146456,-0.227547,0.999133,-0.027477,0.030897,-0.004894,0.578588,-0.193485,-0.772305,-0.177044
55278,NaN,20.521163,-0.930269,-6.649104,0.019633,-2.516467,11.630324,-2.151814,3.640221,-0.911462,-0.951660,0.043701,-0.333740,0.203910,-0.010975,-0.070098,0.999766,-0.010758,0.018200,-0.004557,0.589647,-0.192927,-0.760547,-0.191477
55279,NaN,25.712526,-4.667911,-2.847499,-5.817683,-4.017488,15.505496,-1.620838,2.497297,-1.000051,-0.945068,0.037354,-0.359131,0.256508,-0.048209,-0.031294,0.999877,-0.008104,0.012486,-0.005000,0.596886,-0.191094,-0.752332,-0.202996
55280,NaN,24.641224,-9.337093,-5.498581,-5.338720,-10.038825,14.584844,0.292174,3.796491,-0.750692,-0.925781,0.022217,-0.386475,0.244955,-0.094207,-0.059782,0.999812,0.001461,0.018981,-0.003753,0.610597,-0.183512,-0.741850,-0.207734
55281,NaN,28.355105,-1.149132,-2.109584,-3.834703,-1.932132,18.316880,2.106278,3.037637,-1.129565,-0.906250,0.007324,-0.411865,0.283116,-0.012838,-0.025529,0.999813,0.010531,0.015187,-0.005647,0.622797,-0.169579,-0.735423,-0.206202
55282,NaN,29.966257,-0.158279,-4.240636,-0.991443,-2.927209,20.292141,2.133423,4.114453,-0.880437,-0.890869,-0.013916,-0.441406,0.298696,-0.002403,-0.048581,0.999722,0.010666,0.020570,-0.004402,0.638679,-0.155413,-0.725328,-0.204536
55283,NaN,30.759351,-3.911463,-6.916519,0.578594,-8.291545,20.846607,5.311017,4.220120,-1.235982,-0.868896,-0.045898,-0.464355,0.305787,-0.039039,-0.076669,0.999406,0.026550,0.021096,-0.006179,0.656718,-0.129531,-0.717558,-0.192496
55284,NaN,29.304718,-6.177287,-6.353079,0.392938,-10.551896,18.922169,6.268820,2.284117,-1.552831,-0.863281,-0.088867,-0.466309,0.291801,-0.061940,-0.068808,0.999413,0.031338,0.011418,-0.007763,0.667117,-0.101111,-0.716650,-0.176478
55285,NaN,33.572381,-5.308311,-13.444215,7.444242,-13.669499,23.257547,2.571926,1.182412,-3.991126,-0.849365,-0.129639,-0.470215,0.333793,-0.058005,-0.137144,0.999701,0.012858,0.005911,-0.019954,0.669129,-0.077334,-0.716531,-0.181296
55286,NaN,22.126918,5.101637,-16.008285,14.487363,-4.749234,13.409491,-2.374816,0.441875,-4.873381,-0.829834,-0.144531,-0.484863,0.222038,0.043703,-0.161121,0.999630,-0.011873,0.002209,-0.024364,0.665156,-0.067396,-0.714494,-0.206213
55287,NaN,14.641642,7.042018,-11.758604,12.111858,-1.690863,6.072886,-8.419531,3.627140,-4.296387,-0.800781,-0.129395,-0.533691,0.145613,0.062183,-0.122967,0.998719,-0.042080,0.018128,-0.021473,0.670086,-0.076459,-0.694121,-0.251665
55288,NaN,13.574061,14.935660,-0.656334,7.044593,8.568931,7.041992,-11.359715,7.298996,-2.621091,-0.760010,-0.082031,-0.597656,0.137110,0.146685,-0.019940,0.997636,-0.056754,0.036466,-0.013095,0.686204,-0.096043,-0.654735,-0.302029
55289,NaN,5.638638,3.158303,-3.361364,4.412725,-1.140956,-4.132749,-7.871445,4.397330,-1.755786,-0.731201,-0.054199,-0.619141,0.055878,0.029704,-0.036040,0.998945,-0.039343,0.021979,-0.008776,0.693515,-0.110581,-0.627814,-0.335646
55290,NaN,11.694366,9.441668,-9.288208,13.073147,-2.661641,1.764852,-6.866241,2.974069,-1.775353,-0.715332,-0.024170,-0.642822,0.116326,0.090081,-0.097758,0.999261,-0.034323,0.014867,-0.008875,0.695586,-0.123740,-0.606472,-0.364747
55291,NaN,6.635740,-0.764879,-4.173586,2.599046,-5.576016,-4.895069,-4.270980,2.403549,-0.875214,-0.703125,-0.002686,-0.653564,0.065814,-0.008838,-0.042349,0.999690,-0.021353,0.012017,-0.004376,0.698471,-0.131473,-0.590633,-0.382107
55292,NaN,5.124802,-2.546535,-5.357019,2.099791,-7.111502,-7.271451,-3.798615,1.965202,-0.530291,-0.691162,0.020996,-0.662109,0.050652,-0.026618,-0.053572,0.999768,-0.018992,0.009825,-0.002651,0.700626,-0.139384,-0.576695,-0.396382
55293,NaN,3.702670,-6.019921,-3.992471,-1.533850,-7.947215,-9.199945,-2.599631,1.163191,-0.405175,-0.685303,0.038086,-0.662354,0.036674,-0.060788,-0.039351,0.999897,-0.012998,0.005816,-0.002026,0.701289,-0.145056,-0.567662,-0.406095
55294,NaN,2.993559,-4.741798,-5.245763,0.084885,-7.676467,-9.976245,-2.084527,0.938569,-0.343486,-0.677002,0.044678,-0.664551,0.029608,-0.048013,-0.052099,0.999933,-0.010422,0.004693,-0.001717,0.701719,-0.149470,-0.560320,-0.413873
55295,NaN,1.972648,-5.911185,-5.839230,-0.562069,-8.363625,-11.444412,-1.566223,0.578101,-0.069021,-0.677490,0.061768,-0.664795,0.019538,-0.059574,-0.057984,0.999965,-0.007831,0.002890,-0.000345,0.701926,-0.153777,-0.555047,-0.419016
55296,NaN,1.022663,-6.051370,-4.550089,-1.632887,-7.159163,-11.921696,-0.885072,0.040059,-0.036722,-0.675537,0.070312,-0.658447,0.010206,-0.060716,-0.045235,0.999990,-0.004425,0.000200,-0.000184,0.701295,-0.156691,-0.553045,-0.421632
55297,NaN,-1.773359,-7.149592,-3.767239,-3.106816,-6.102156,-14.456494,-0.117968,-0.456758,-0.097671,-0.682129,0.074463,-0.643555,-0.017682,-0.071510,-0.037671,0.999997,-0.000590,-0.002284,-0.000488,0.699591,-0.158147,-0.554430,-0.422101
55298,NaN,-3.520409,-6.118823,-3.294253,-2.632661,-4.463292,-15.629284,0.800167,-0.960124,-0.230505,-0.690430,0.070312,-0.637207,-0.035115,-0.061015,-0.033356,0.999980,0.004001,-0.004801,-0.001153,0.697085,-0.156727,-0.559618,-0.419925
55299,NaN,-5.646253,-5.021134,-3.776992,-1.404838,-3.329879,-17.447663,1.742063,-1.445612,-0.390254,-0.696289,0.057373,-0.628662,-0.056283,-0.049768,-0.038612,0.999934,0.008710,-0.007228,-0.001951,0.693365,-0.153053,-0.568522,-0.415453
55300,NaN,-8.406436,-3.855491,-3.399783,-0.582707,-1.347812,-19.555813,2.387225,-1.919248,-0.542495,-0.704346,0.040039,-0.611572,-0.083833,-0.037911,-0.035258,0.999879,0.011936,-0.009596,-0.002712,0.688549,-0.147199,-0.580451,-0.409034
55301,NaN,-8.639011,-2.035563,-3.281392,0.947349,-0.160106,-19.226114,2.814969,-2.366972,-0.626457,-0.714355,0.027100,-0.585938,-0.086054,-0.019612,-0.034113,0.999826,0.014074,-0.011834,-0.003132,0.682181,-0.141005,-0.594656,-0.401411
55302,NaN,-7.433013,-1.078814,-2.471180,1.294143,0.435171,-17.600522,3.042467,-2.573419,-0.642673,-0.728760,0.010010,-0.564697,-0.074036,-0.010163,-0.025824,0.999796,0.015211,-0.012866,-0.003213,0.675271,-0.133850,-0.609842,-0.392665
55303,NaN,-5.131165,0.004787,-1.558276,1.463770,0.832673,-14.903768,3.170014,-2.495993,-0.612503,-0.745117,-0.007080,-0.549805,-0.051111,0.000458,-0.016216,0.999792,0.015849,-0.012479,-0.003062,0.668297,-0.126617,-0.624729,-0.383485
55304,NaN,-1.494130,0.603221,-1.055615,1.313851,0.255102,-11.198005,3.308402,-2.456482,-0.414620,-0.752930,-0.024414,-0.530518,-0.014798,0.006239,-0.010636,0.999786,0.016541,-0.012282,-0.002073,0.661806,-0.118947,-0.639380,-0.372904
55305,NaN,3.411355,1.026293,0.408171,-0.022215,-0.163465,-6.230940,2.894740,-2.426706,-0.275333,-0.762939,-0.039551,-0.509277,0.034074,0.010152,0.004643,0.999821,0.014473,-0.012133,-0.001377,0.655024,-0.113410,-0.652822,-0.363187
55306,NaN,6.846529,1.966012,3.252960,-2.171839,1.222506,-2.389287,1.819613,-2.177335,-0.147480,-0.771240,-0.043701,-0.498535,0.068119,0.019308,0.033449,0.999899,0.009098,-0.010886,-0.000737,0.648641,-0.110909,-0.663248,-0.356464
55307,NaN,9.057391,3.705700,6.443862,-4.084031,3.845981,0.473999,1.004729,-1.841559,-0.261613,-0.779785,-0.045898,-0.488037,0.090022,0.036612,0.065454,0.999944,0.005024,-0.009208,-0.001308,0.642493,-0.110462,-0.671080,-0.353062
55308,NaN,15.541665,4.318738,12.205315,-9.361617,5.934361,7.107895,-0.026005,-0.768387,-0.373952,-0.775391,-0.045898,-0.483887,0.155027,0.042913,0.122644,0.999991,-0.000130,-0.003842,-0.001870,0.639261,-0.110644,-0.673676,-0.353927
55309,NaN,17.280022,2.521622,12.980677,-11.327615,4.500165,8.211804,-0.607442,1.168885,-0.936732,-0.762695,-0.048096,-0.500732,0.173671,0.024796,0.128718,0.999967,-0.003037,0.005844,-0.004684,0.641132,-0.107721,-0.669283,-0.359730
55310,NaN,11.320982,-1.538708,18.660503,-17.213468,6.588458,1.976855,0.206689,3.195232,-1.483130,-0.745605,-0.058594,-0.523926,0.116052,-0.016432,0.184749,0.999844,0.001033,0.015975,-0.007415,0.649194,-0.096330,-0.660080,-0.365461
55311,NaN,5.341943,-3.736027,13.134703,-13.288715,3.409161,-4.636092,-0.531344,2.007533,-0.811394,-0.739258,-0.058594,-0.534668,0.054584,-0.037232,0.130902,0.999938,-0.002657,0.010037,-0.004057,0.654037,-0.092104,-0.652787,-0.370974
55312,NaN,5.534347,-0.989630,-5.841863,3.295016,-6.240067,-5.820193,1.309000,-0.284093,-0.628477,-0.740967,-0.071533,-0.534424,0.055396,-0.009688,-0.058404,0.999973,0.006545,-0.001420,-0.003142,0.652555,-0.086293,-0.656388,-0.368619
55313,NaN,11.095887,3.673049,-11.230359,9.605699,-8.187913,0.356843,-0.269508,0.177199,-0.110850,-0.739258,-0.060791,-0.538818,0.110880,0.036518,-0.112451,0.999999,-0.001348,0.000886,-0.000554,0.652810,-0.086948,-0.655185,-0.370151
55314,NaN,4.831484,6.808259,-20.858179,19.844026,-9.644647,-5.577892,-2.227365,0.137284,-0.291056,-0.743652,-0.054443,-0.532471,0.048268,0.065684,-0.209355,0.999937,-0.011137,0.000686,-0.001455,0.651738,-0.093002,-0.650673,-0.378436
55315,NaN,10.456074,4.210406,-25.657079,21.031563,-16.743177,-1.896896,0.073894,-1.858951,-0.015068,-0.751953,-0.058594,-0.521729,0.106942,0.042191,-0.255569,0.999957,0.000369,-0.009295,-0.000075,0.645589,-0.096667,-0.656771,-0.377521
55316,NaN,22.733519,-2.933791,-26.633175,15.784523,-25.932178,7.865742,8.056082,-4.224383,0.641770,-0.773438,-0.112549,-0.464355,0.232975,-0.017973,-0.262326,0.998961,0.040266,-0.021115,0.003208,0.636181,-0.080646,-0.684585,-0.346574
55317,NaN,37.999519,7.925262,-34.965990,25.777713,-23.975174,28.734462,16.207484,-6.294483,0.028611,-0.792480,-0.179199,-0.400146,0.390573,0.106581,-0.329563,0.996224,0.080935,-0.031433,0.000143,0.618678,-0.040489,-0.730088,-0.287349
55318,NaN,20.069422,6.758555,-8.477577,5.239477,-3.744846,12.066166,11.133750,-1.983182,-0.659258,-0.797607,-0.213379,-0.372559,0.201727,0.071423,-0.078872,0.998396,0.055639,-0.009911,-0.003295,0.611785,-0.006445,-0.751146,-0.247905
55319,NaN,13.192787,-5.330568,-1.134846,-3.826580,-9.057077,0.534786,4.575304,0.444164,-1.171371,-0.797119,-0.232666,-0.370117,0.131586,-0.053794,-0.012868,0.999719,0.022874,0.002221,-0.005856,0.611781,0.011767,-0.755438,-0.234307
55320,NaN,4.597366,-9.642648,10.156736,-13.090716,-6.719690,-10.670981,3.413675,-0.945876,-0.091127,-0.790283,-0.241455,-0.349121,0.045453,-0.098164,0.100117,0.999843,0.017067,-0.004729,-0.000456,0.607834,0.021440,-0.762183,-0.221711
55321,NaN,-0.137486,-8.205432,-1.069179,-0.825719,-7.715299,-12.690060,2.577282,-1.432500,0.633514,-0.800537,-0.250000,-0.332031,-0.001034,-0.081911,-0.011756,0.999886,0.012886,-0.007162,0.003167,0.602576,0.024302,-0.769495,-0.210211
55322,NaN,5.650848,-4.397808,-7.989683,5.098974,-7.863914,-4.592142,3.940042,-0.404788,0.799329,-0.808838,-0.252197,-0.314941,0.056842,-0.042168,-0.080625,0.999796,0.019699,-0.002024,0.003996,0.601287,0.032662,-0.774773,-0.192650
55323,NaN,12.867608,-1.510047,-2.038870,-1.911494,-5.399193,1.985601,4.322261,-1.088017,1.604091,-0.815186,-0.254395,-0.295898,0.128899,-0.013632,-0.019993,0.999720,0.021609,-0.005440,0.008020,0.597611,0.037317,-0.782379,-0.171324
55324,NaN,16.679527,0.652712,-9.980359,4.692272,-5.730064,8.169280,2.700613,-1.892867,1.742102,-0.825928,-0.241699,-0.270752,0.167656,0.009317,-0.098106,0.999826,0.013502,-0.009464,0.008710,0.591120,0.036938,-0.790515,-0.155877
55325,NaN,18.235523,4.285061,-8.965098,3.331380,-1.856865,10.599831,3.029531,-2.253778,1.584043,-0.838623,-0.243896,-0.243164,0.182991,0.045629,-0.086914,0.999790,0.015147,-0.011268,0.007920,0.582652,0.036735,-0.799782,-0.139698
55326,NaN,21.532645,9.936532,-6.483286,-0.031554,3.846041,14.468401,2.228171,-2.305110,1.312513,-0.847168,-0.237549,-0.215576,0.215385,0.101474,-0.061228,0.999850,0.011140,-0.011525,0.006562,0.573885,0.036355,-0.808154,-0.127366
55327,NaN,20.570508,10.571166,-5.926488,-0.736096,5.284143,13.457722,2.268772,-1.701974,1.305504,-0.844971,-0.233398,-0.198730,0.205494,0.107703,-0.056301,0.999878,0.011343,-0.008510,0.006527,0.567264,0.035449,-0.814725,-0.114799
55328,NaN,19.307345,12.262275,-3.513877,-3.010805,7.991061,11.693125,3.308829,-1.988669,1.181172,-0.860107,-0.226807,-0.177490,0.192666,0.124299,-0.031174,0.999796,0.016543,-0.009943,0.005905,0.559169,0.038866,-0.822287,-0.098299
55329,NaN,18.860488,8.684536,-2.438194,-4.598215,5.135426,9.923845,3.402229,-1.561659,1.172789,-0.862061,-0.222656,-0.152344,0.188265,0.088331,-0.021417,0.999808,0.017010,-0.007808,0.005864,0.552509,0.041881,-0.828470,-0.081342
55330,NaN,15.558797,5.919180,-0.275757,-5.762477,3.427869,5.426101,2.611093,-1.060246,1.160220,-0.870605,-0.220703,-0.143799,0.155250,0.060115,-0.001153,0.999884,0.013055,-0.005301,0.005801,0.548008,0.043842,-0.832589,-0.067533
55331,NaN,14.093576,7.398253,2.101828,-7.597545,5.460444,3.234652,1.667577,-1.106856,1.071578,-0.875000,-0.214111,-0.131104,0.140416,0.074553,0.022416,0.999936,0.008338,-0.005534,0.005358,0.543363,0.042738,-0.836406,-0.057926
