// Start Time: Unknown
// Update Rate: 100.0Hz
// Filter Profile: human (46.1)
// Firmware Version: 4.4.0
PacketCounter,SampleTimeFine,Acc_X,Acc_Y,Acc_Z,FreeAcc_X,FreeAcc_Y,FreeAcc_Z,Gyr_X,Gyr_Y,Gyr_Z,Mag_X,Mag_Y,Mag_Z,VelInc_X,VelInc_Y,VelInc_Z,OriInc_q0,OriInc_q1,OriInc_q2,OriInc_q3,Quat_q0,Quat_q1,Quat_q2,Quat_q3
05615,NaN,9.307573,-1.035746,-2.162489,-0.205769,0.191332,-0.205341,0.179683,0.013382,-0.028385,-0.932373,-0.276611,-0.081787,0.093073,-0.010351,-0.021640,1.000000,0.000898,0.000067,-0.000142,0.531773,0.311676,-0.716476,0.326708
05616,NaN,9.483884,-0.877713,-2.205987,-0.349196,0.304513,-0.047128,0.162602,-0.008116,-0.024206,-0.932373,-0.282959,-0.077637,0.094839,-0.008771,-0.022063,1.000000,0.000813,-0.000041,-0.000121,0.531530,0.312208,-0.716194,0.327213
05617,NaN,9.543686,-0.717429,-2.222933,-0.482237,0.407231,-0.007603,0.146816,-0.022139,-0.032003,-0.936523,-0.280762,-0.077637,0.095438,-0.007173,-0.022224,1.000000,0.000734,-0.000111,-0.000160,0.531278,0.312744,-0.715961,0.327620
05618,NaN,9.544622,-0.598041,-2.185549,-0.598121,0.446099,-0.031208,0.105224,-0.018335,-0.047245,-0.932373,-0.276611,-0.079590,0.095447,-0.005991,-0.021850,1.000000,0.000526,-0.000092,-0.000236,0.531125,0.313223,-0.715763,0.327843
05619,NaN,9.646884,-0.578985,-2.065671,-0.701263,0.349166,0.038755,0.074103,0.006940,-0.064357,-0.926025,-0.278564,-0.079590,0.096466,-0.005813,-0.020662,1.000000,0.000371,0.000035,-0.000322,0.531157,0.313627,-0.715515,0.327945
05620,NaN,9.710596,-0.506703,-2.020975,-0.792568,0.348033,0.081122,0.013766,0.039797,-0.076807,-0.928223,-0.278564,-0.079590,0.097100,-0.005103,-0.020229,1.000000,0.000069,0.000199,-0.000384,0.531404,0.313873,-0.715266,0.327853
05621,NaN,9.702123,-0.602229,-2.008881,-0.711264,0.283044,0.083951,-0.013984,0.062612,-0.074203,-0.927979,-0.282959,-0.083984,0.097013,-0.006060,-0.020119,1.000000,-0.000070,0.000313,-0.000371,0.531812,0.313994,-0.714987,0.327686
05622,NaN,9.676616,-0.660362,-1.984875,-0.661831,0.233421,0.062543,-0.050158,0.084130,-0.069317,-0.930176,-0.278564,-0.083984,0.096755,-0.006642,-0.019888,1.000000,-0.000251,0.000421,-0.000347,0.532305,0.313970,-0.714736,0.327454
05623,NaN,9.714144,-0.689364,-1.956510,-0.650161,0.192934,0.097298,-0.064356,0.102771,-0.067538,-0.927979,-0.285156,-0.083984,0.097129,-0.006933,-0.019613,1.000000,-0.000322,0.000514,-0.000338,0.532960,0.313861,-0.714423,0.327177
05624,NaN,9.693188,-0.761191,-1.871579,-0.622924,0.088223,0.068825,-0.040592,0.108912,-0.071716,-0.929932,-0.287109,-0.081787,0.096919,-0.007650,-0.018767,1.000000,-0.000203,0.000545,-0.000359,0.533530,0.313831,-0.714087,0.327012
05625,NaN,9.801623,-0.864042,-1.801143,-0.590313,-0.035547,0.172940,0.001802,0.124923,-0.071787,-0.927979,-0.282959,-0.083984,0.098002,-0.008675,-0.018073,1.000000,0.000009,0.000625,-0.000359,0.534163,0.313949,-0.713589,0.326951
05626,NaN,9.924981,-0.909076,-1.797238,-0.570847,-0.070270,0.298243,0.019594,0.154993,-0.081782,-0.932129,-0.285156,-0.083984,0.099232,-0.009130,-0.018050,1.000000,0.000098,0.000775,-0.000409,0.534819,0.314040,-0.713014,0.327046
05627,NaN,9.986533,-0.982006,-1.793162,-0.508706,-0.114179,0.367624,0.061070,0.175754,-0.104688,-0.936523,-0.287109,-0.090088,0.099844,-0.009867,-0.018022,0.999999,0.000305,0.000879,-0.000523,0.535632,0.314349,-0.712204,0.327184
05628,NaN,9.839650,-1.053116,-1.803759,-0.392652,-0.122670,0.237788,0.085954,0.207162,-0.118634,-0.930176,-0.285156,-0.090332,0.098371,-0.010582,-0.018144,0.999999,0.000430,0.001036,-0.000593,0.536428,0.314662,-0.711321,0.327497
05629,NaN,9.734371,-1.205208,-1.854127,-0.192871,-0.148806,0.166736,0.114839,0.228882,-0.140064,-0.929932,-0.291504,-0.085938,0.097314,-0.012110,-0.018660,0.999999,0.000574,0.001144,-0.000700,0.537447,0.315129,-0.710194,0.327825
05630,NaN,9.621988,-1.415733,-1.937117,0.071334,-0.182087,0.102003,0.170119,0.226148,-0.166971,-0.925781,-0.291504,-0.088135,0.096186,-0.014221,-0.019492,0.999999,0.000851,0.001131,-0.000835,0.538255,0.315808,-0.709044,0.328336
05631,NaN,9.565926,-1.612250,-2.091924,0.356485,-0.155800,0.103512,0.241120,0.202892,-0.196532,-0.927734,-0.293701,-0.090088,0.095622,-0.016191,-0.021036,0.999998,0.001206,0.001014,-0.000983,0.539033,0.316918,-0.707694,0.328901
05632,NaN,9.708885,-1.567658,-2.369026,0.467453,0.089196,0.292052,0.395681,0.115645,-0.249300,-0.927490,-0.300049,-0.094238,0.097056,-0.015751,-0.023777,0.999997,0.001978,0.000578,-0.001246,0.539224,0.318675,-0.706334,0.329811
05633,NaN,9.580540,-1.539940,-2.406241,0.523598,0.158820,0.169731,0.385038,0.261478,-0.259819,-0.925537,-0.295654,-0.096436,0.095754,-0.015477,-0.024217,0.999996,0.001925,0.001307,-0.001299,0.540056,0.320258,-0.704503,0.330833
05634,NaN,9.610276,-1.329897,-2.334310,0.340539,0.234175,0.157474,0.429135,0.246529,-0.298570,-0.925293,-0.302246,-0.098633,0.096054,-0.013392,-0.023490,0.999996,0.002146,0.001233,-0.001493,0.540728,0.322059,-0.702646,0.331932
05635,NaN,9.569411,-1.142735,-2.164099,0.140678,0.219719,0.061248,0.429935,0.256917,-0.334531,-0.923096,-0.304199,-0.096436,0.095647,-0.011541,-0.021789,0.999995,0.002150,0.001285,-0.001673,0.541562,0.323971,-0.700656,0.332919
05636,NaN,9.693625,-1.045969,-1.705732,-0.171828,-0.100784,0.083276,0.355046,0.293954,-0.383864,-0.929443,-0.306396,-0.098633,0.096891,-0.010615,-0.017219,0.999996,0.001775,0.001470,-0.001919,0.542653,0.325786,-0.698644,0.333598
05637,NaN,9.802269,-1.103175,-1.264983,-0.333988,-0.493400,0.114367,0.242479,0.386007,-0.414264,-0.923096,-0.308594,-0.098633,0.097975,-0.011219,-0.012852,0.999995,0.001212,0.001930,-0.002071,0.544353,0.327261,-0.696482,0.333907
05638,NaN,10.019876,-0.223122,-2.015357,-0.632254,0.611200,0.372384,0.015548,0.464925,-0.467647,-0.920654,-0.319336,-0.100586,0.100146,-0.002464,-0.020387,0.999995,0.000078,0.002325,-0.002338,0.546724,0.328154,-0.694421,0.333447
05639,NaN,9.757300,-0.564481,-1.599768,-0.459824,0.113764,0.079635,-0.056481,0.482910,-0.471402,-0.922852,-0.319336,-0.113281,0.097520,-0.005879,-0.016232,0.999994,-0.000282,0.002415,-0.002357,0.549347,0.328894,-0.692367,0.332679
05640,NaN,10.171701,-0.778077,-1.243925,-0.485164,-0.323390,0.447717,-0.109763,0.476577,-0.468685,-0.918457,-0.323486,-0.113281,0.101668,-0.008026,-0.012677,0.999994,-0.000549,0.002383,-0.002343,0.551954,0.329420,-0.690466,0.331793
05641,NaN,10.437846,-1.141457,-0.675939,-0.462963,-1.005583,0.650694,-0.026242,0.533623,-0.577938,-0.914062,-0.330078,-0.119629,0.104326,-0.011717,-0.007036,0.999992,-0.000131,0.002668,-0.002890,0.554942,0.330497,-0.687973,0.330915
05642,NaN,10.487979,-0.071139,-0.708849,-1.250723,-0.369833,0.618206,0.004795,0.524182,-0.610604,-0.911865,-0.330078,-0.121582,0.104858,-0.001031,-0.007363,0.999992,0.000024,0.002621,-0.003053,0.557743,0.331741,-0.685496,0.330101
05643,NaN,11.013870,0.098262,-1.364975,-1.015682,0.240184,1.236651,-0.214459,0.732550,-0.613870,-0.909424,-0.342773,-0.138428,0.110090,0.000630,-0.014054,0.999988,-0.001072,0.003663,-0.003069,0.561828,0.332069,-0.682602,0.328836
05644,NaN,10.668623,0.069075,-1.136020,-0.961892,0.091538,0.872828,-0.381054,0.754637,-0.632873,-0.905273,-0.342773,-0.144775,0.106644,0.000331,-0.011763,0.999986,-0.001905,0.003773,-0.003164,0.566069,0.331914,-0.680049,0.327007
05645,NaN,10.201644,0.307862,-0.633555,-1.255017,-0.116363,0.335218,-0.533539,0.855428,-0.682025,-0.905029,-0.351318,-0.151123,0.101998,0.002713,-0.006779,0.999981,-0.002668,0.004277,-0.003410,0.571306,0.331382,-0.677078,0.324593
05646,NaN,9.617117,0.592511,0.173104,-1.755627,-0.530845,-0.351991,-0.602189,0.995715,-0.678040,-0.896484,-0.353516,-0.166016,0.096198,0.005603,0.001235,0.999977,-0.003011,0.004979,-0.003390,0.576762,0.330333,-0.674073,0.322260
05647,NaN,9.216170,0.429943,0.303920,-1.530605,-0.653087,-0.732792,-0.544330,1.100595,-0.704575,-0.896240,-0.361816,-0.176514,0.092191,0.003982,0.002521,0.999975,-0.002722,0.005503,-0.003523,0.582931,0.329463,-0.670211,0.320097
05648,NaN,9.159384,0.399539,-0.231332,-1.086069,-0.186365,-0.708180,-0.307769,1.052122,-0.681576,-0.894043,-0.366211,-0.189209,0.091593,0.003679,-0.002801,0.999979,-0.001539,0.005261,-0.003408,0.588043,0.329159,-0.666501,0.318805
05649,NaN,9.089180,-0.096976,-0.654232,-0.312955,-0.078279,-0.705247,-0.154244,1.081291,-0.629822,-0.891846,-0.370361,-0.195312,0.090851,-0.001261,-0.007033,0.999980,-0.000771,0.005406,-0.003149,0.593466,0.329206,-0.661994,0.318096
05650,NaN,9.229311,-0.348403,-0.952297,0.154988,0.057071,-0.529363,-0.083388,1.061262,-0.572743,-0.889648,-0.376953,-0.203857,0.092230,-0.003752,-0.010011,0.999982,-0.000417,0.005306,-0.002864,0.598017,0.329160,-0.658023,0.317862
05651,NaN,9.494635,-0.458516,-0.595808,0.134196,-0.257884,-0.292824,-0.128277,1.027412,-0.525820,-0.878906,-0.381104,-0.212402,0.094902,-0.004839,-0.006443,0.999983,-0.000641,0.005137,-0.002629,0.602980,0.329005,-0.653767,0.317425
05652,NaN,9.795503,-0.545238,-0.311998,0.120088,-0.503467,-0.010767,-0.261048,0.992516,-0.492539,-0.878906,-0.383301,-0.229248,0.097924,-0.005698,-0.003599,0.999984,-0.001305,0.004963,-0.002463,0.607426,0.328247,-0.650368,0.316715
05653,NaN,9.987311,-0.553508,-0.338435,0.244058,-0.437956,0.183053,-0.362402,1.054631,-0.471670,-0.872559,-0.385254,-0.233398,0.099840,-0.005777,-0.003901,0.999982,-0.001812,0.005273,-0.002358,0.612670,0.327092,-0.646474,0.315780
05654,NaN,10.018068,-0.825148,-0.369255,0.581965,-0.513628,0.216031,-0.374787,1.144857,-0.435082,-0.874756,-0.387451,-0.241943,0.100139,-0.008477,-0.004250,0.999979,-0.001874,0.005724,-0.002175,0.617658,0.325535,-0.642834,0.315102
05655,NaN,9.973904,-1.124062,0.080129,0.673345,-0.977203,0.154209,-0.295441,1.245995,-0.405921,-0.872559,-0.387451,-0.258789,0.099718,-0.011442,0.000197,0.999977,-0.001477,0.006230,-0.002030,0.623171,0.323986,-0.638359,0.314941
05656,NaN,10.121877,-1.133273,0.172842,0.729770,-0.985265,0.299771,-0.307853,1.274242,-0.413988,-0.861816,-0.395996,-0.273682,0.101203,-0.011540,0.001101,0.999976,-0.001539,0.006371,-0.002070,0.628374,0.322333,-0.634188,0.314725
05657,NaN,10.064166,-1.625424,0.705199,0.925473,-1.627078,0.233290,-0.243502,1.139469,-0.481041,-0.859375,-0.404541,-0.281982,0.100640,-0.016488,0.006499,0.999980,-0.001217,0.005697,-0.002405,0.633553,0.321231,-0.629715,0.314452
05658,NaN,9.730084,-2.142562,0.982755,1.272849,-2.104858,-0.108080,-0.158244,0.973930,-0.570108,-0.846924,-0.397949,-0.288330,0.097286,-0.021695,0.009371,0.999984,-0.000791,0.004870,-0.002851,0.637760,0.320987,-0.625953,0.313708
05659,NaN,9.981548,-1.031285,0.380445,0.850965,-0.902855,0.152214,-0.261326,1.014125,-0.541803,-0.844482,-0.406494,-0.298828,0.099805,-0.010579,0.003312,0.999983,-0.001307,0.005071,-0.002709,0.642497,0.320037,-0.621871,0.313129
05660,NaN,9.821743,-0.850071,0.767311,0.571214,-1.042578,0.003799,-0.206386,1.268897,-0.376845,-0.846680,-0.406494,-0.313721,0.098247,-0.008678,0.007059,0.999978,-0.001032,0.006344,-0.001884,0.647348,0.318551,-0.617502,0.313301
05661,NaN,9.884468,-0.374432,0.686738,0.349613,-0.600159,0.078252,-0.186612,1.273600,-0.391809,-0.838379,-0.408691,-0.322266,0.098878,-0.003932,0.006241,0.999977,-0.000933,0.006368,-0.001959,0.652460,0.316848,-0.612642,0.313965
05662,NaN,9.806478,0.315993,0.960074,-0.264222,-0.326077,0.036730,-0.167593,1.277433,-0.385997,-0.833984,-0.410645,-0.332764,0.098129,0.002978,0.008972,0.999977,-0.000838,0.006387,-0.001930,0.657229,0.315470,-0.608113,0.314210
05663,NaN,9.504115,0.755536,1.212894,-0.679051,-0.177587,-0.227487,-0.156425,1.303035,-0.365147,-0.829590,-0.415039,-0.343262,0.095131,0.007391,0.011504,0.999977,-0.000782,0.006515,-0.001826,0.662243,0.313674,-0.603111,0.315118
05664,NaN,9.345484,0.812932,1.422215,-0.760985,-0.237483,-0.358334,-0.152547,1.266772,-0.380254,-0.823486,-0.415039,-0.360352,0.093558,0.007962,0.013624,0.999978,-0.000763,0.006334,-0.001901,0.666886,0.312311,-0.598548,0.315380
05665,NaN,8.966773,1.176589,1.554583,-1.059365,-0.051719,-0.697976,-0.161867,1.255702,-0.366363,-0.814697,-0.419189,-0.366699,0.089784,0.011614,0.014973,0.999978,-0.000809,0.006278,-0.001832,0.671789,0.310552,-0.593570,0.316120
05666,NaN,8.708201,1.398980,1.673388,-1.240149,0.046570,-0.921741,-0.119234,1.214180,-0.334461,-0.810547,-0.423584,-0.379395,0.087205,0.013854,0.016196,0.999980,-0.000596,0.006071,-0.001672,0.676092,0.309216,-0.589150,0.316524
05667,NaN,8.807447,1.392825,1.808170,-1.212906,0.024442,-0.795604,-0.054070,1.191166,-0.279610,-0.803955,-0.427734,-0.385498,0.088199,0.013810,0.017553,0.999981,-0.000270,0.005956,-0.001398,0.680467,0.307714,-0.584281,0.317636
05668,NaN,9.102208,1.081534,2.010113,-0.967398,-0.228395,-0.481488,-0.037352,1.235828,-0.235656,-0.800049,-0.421387,-0.396240,0.091157,0.010712,0.019536,0.999980,-0.000187,0.006179,-0.001178,0.684495,0.306304,-0.579763,0.318623
05669,NaN,9.225687,0.634547,2.206898,-0.620742,-0.552492,-0.341969,-0.065992,1.280324,-0.202419,-0.797852,-0.425537,-0.406738,0.092402,0.006259,0.021476,0.999979,-0.000330,0.006402,-0.001012,0.688971,0.304413,-0.574652,0.320042
05670,NaN,9.358396,0.187434,2.476806,-0.322890,-0.938307,-0.181317,-0.106460,1.278892,-0.175448,-0.787109,-0.431885,-0.413086,0.093741,0.001805,0.024168,0.999979,-0.000532,0.006394,-0.000877,0.693072,0.302495,-0.570139,0.321074
05671,NaN,9.475786,0.037746,2.965824,-0.384150,-1.298166,0.023667,-0.162058,1.289823,-0.157961,-0.787109,-0.431885,-0.425781,0.094947,0.000326,0.029046,0.999979,-0.000810,0.006449,-0.000790,0.697610,0.300069,-0.565143,0.322353
05672,NaN,9.450180,0.229253,3.517833,-0.779045,-1.518098,0.128162,-0.227199,1.364888,-0.167221,-0.785156,-0.429688,-0.440674,0.094741,0.002253,0.034530,0.999976,-0.001136,0.006824,-0.000836,0.702058,0.297539,-0.560487,0.323170
05673,NaN,9.171437,0.735798,3.744875,-1.256538,-1.297301,-0.044515,-0.275670,1.411503,-0.168583,-0.772217,-0.434082,-0.451172,0.091982,0.007332,0.036790,0.999974,-0.001378,0.007057,-0.000843,0.707185,0.294389,-0.555027,0.324300
05674,NaN,8.865470,1.359844,3.793714,-1.738601,-0.885335,-0.271733,-0.270502,1.412190,-0.157405,-0.766113,-0.429688,-0.459717,0.088930,0.013579,0.037291,0.999974,-0.001352,0.007061,-0.000787,0.711735,0.291570,-0.550229,0.325066
05675,NaN,8.499821,1.779557,3.590465,-1.915951,-0.401703,-0.621852,-0.320841,1.406703,-0.144306,-0.759766,-0.429688,-0.474609,0.085261,0.017791,0.035277,0.999974,-0.001604,0.007033,-0.000722,0.716785,0.288224,-0.544801,0.326097
05676,NaN,7.876918,1.949515,3.133313,-1.817887,0.062382,-1.306564,-0.409729,1.411378,-0.103764,-0.753418,-0.429688,-0.485107,0.078998,0.019518,0.030736,0.999973,-0.002049,0.007057,-0.000519,0.721366,0.284726,-0.540251,0.326637
05677,NaN,7.441927,2.000864,2.772708,-1.648702,0.408738,-1.800994,-0.346860,1.377446,-0.043633,-0.749268,-0.429443,-0.497803,0.074612,0.020040,0.027179,0.999975,-0.001734,0.006887,-0.000218,0.726185,0.281076,-0.534946,0.327848
05678,NaN,7.401050,1.259748,2.882752,-1.080029,-0.051980,-1.843844,-0.231928,1.427089,0.035889,-0.744873,-0.431641,-0.508545,0.074211,0.012644,0.028284,0.999974,-0.001160,0.007135,0.000179,0.730246,0.277789,-0.530186,0.329359
05679,NaN,7.443995,0.641085,3.008710,-0.583503,-0.411435,-1.789899,-0.173559,1.650267,0.172064,-0.736816,-0.420898,-0.521240,0.074679,0.006501,0.029466,0.999965,-0.000868,0.008251,0.000860,0.735199,0.273717,-0.523791,0.331971
05680,NaN,8.211019,0.766893,2.487783,-0.124404,0.327171,-1.206065,-0.246123,1.572595,0.082077,-0.730469,-0.427246,-0.538086,0.082299,0.007733,0.024222,0.999968,-0.001231,0.007863,0.000410,0.739490,0.269977,-0.518520,0.333774
05681,NaN,8.489744,0.348033,2.862418,0.141276,-0.032885,-0.847882,-0.188207,1.503320,-0.022892,-0.724121,-0.420898,-0.542480,0.085110,0.003497,0.027982,0.999971,-0.000941,0.007517,-0.000114,0.744271,0.266576,-0.512331,0.335433
05682,NaN,8.822519,0.301128,3.303757,0.090291,-0.208547,-0.389892,-0.096662,1.470006,-0.091258,-0.719727,-0.427246,-0.548828,0.088466,0.002987,0.032386,0.999973,-0.000483,0.007350,-0.000456,0.748292,0.263976,-0.506894,0.336801
05683,NaN,8.899788,0.480868,3.760384,-0.186088,-0.299494,-0.145631,-0.006284,1.439189,-0.146546,-0.705078,-0.425049,-0.563721,0.089269,0.004745,0.036962,0.999974,-0.000031,0.007196,-0.000733,0.752640,0.261673,-0.500631,0.338274
05684,NaN,8.842104,0.647634,4.058697,-0.402692,-0.327393,-0.075941,-0.035421,1.442088,-0.181465,-0.696533,-0.429199,-0.574219,0.088716,0.006403,0.039947,0.999974,-0.000177,0.007210,-0.000907,0.756575,0.259548,-0.495022,0.339385
05685,NaN,8.407892,0.787028,4.111849,-0.551608,-0.283186,-0.440740,-0.126938,1.414512,-0.217231,-0.692383,-0.427002,-0.591064,0.084375,0.007805,0.040517,0.999974,-0.000635,0.007072,-0.001086,0.761010,0.257070,-0.488930,0.340186
05686,NaN,7.899138,0.690195,4.355989,-0.673107,-0.566122,-0.808658,-0.175443,1.345727,-0.221997,-0.687988,-0.429199,-0.597412,0.079290,0.006852,0.043021,0.999976,-0.000877,0.006729,-0.001110,0.764876,0.254650,-0.483820,0.340640
05687,NaN,7.927596,1.030286,4.432275,-0.868132,-0.297402,-0.718189,-0.149975,1.354100,-0.211234,-0.677490,-0.427002,-0.605957,0.079584,0.010252,0.043777,0.999976,-0.000750,0.006770,-0.001056,0.769158,0.252111,-0.477838,0.341330
05688,NaN,7.587971,1.143684,4.150816,-0.814637,-0.032961,-1.126571,-0.107212,1.385760,-0.201896,-0.668945,-0.429199,-0.616455,0.076176,0.011382,0.040975,0.999975,-0.000536,0.006929,-0.001009,0.772921,0.249810,-0.472436,0.342042
05689,NaN,7.306018,1.213699,4.128093,-0.849859,0.037274,-1.376616,-0.058660,1.389335,-0.165808,-0.662598,-0.429199,-0.623047,0.073355,0.012088,0.040768,0.999975,-0.000293,0.006947,-0.000829,0.776870,0.247564,-0.466271,0.343185
05690,NaN,7.671235,1.254244,4.631071,-0.953574,-0.091600,-0.815538,-0.062255,1.433015,-0.117174,-0.649902,-0.431396,-0.631348,0.077049,0.012512,0.045756,0.999974,-0.000311,0.007165,-0.000586,0.780460,0.245131,-0.460665,0.344356
05691,NaN,7.721523,0.884037,5.252643,-0.894216,-0.641212,-0.497046,-0.121804,1.538081,-0.064470,-0.637207,-0.429199,-0.642090,0.077619,0.008847,0.051925,0.999970,-0.000609,0.007690,-0.000322,0.784493,0.242227,-0.454153,0.345893
05692,NaN,7.390198,0.651301,5.075390,-0.644732,-0.663914,-0.871736,-0.148760,1.593794,-0.039427,-0.626709,-0.431152,-0.652588,0.074305,0.006536,0.050158,0.999968,-0.000744,0.007969,-0.000197,0.788326,0.238970,-0.448108,0.347326
05693,NaN,7.081619,0.468938,4.769434,-0.353165,-0.561005,-1.287678,-0.132370,1.566914,-0.040218,-0.624512,-0.433350,-0.665283,0.071188,0.004706,0.047134,0.999969,-0.000662,0.007834,-0.000201,0.792267,0.235912,-0.441451,0.348970
05694,NaN,7.102416,0.404823,5.158997,-0.421096,-0.758435,-1.068006,-0.079349,1.498792,-0.028780,-0.607666,-0.426758,-0.671875,0.071409,0.004058,0.051054,0.999972,-0.000397,0.007494,-0.000144,0.795687,0.233041,-0.435617,0.350446
05695,NaN,7.531397,0.414932,5.559452,-0.381052,-0.762868,-0.481404,-0.001259,1.474718,-0.033536,-0.601562,-0.426758,-0.680176,0.075722,0.004137,0.055037,0.999973,-0.000006,0.007374,-0.000168,0.799147,0.230603,-0.429047,0.352286
05696,NaN,8.172589,0.756154,5.347486,-0.192434,-0.061123,-0.019008,-0.035669,1.445328,-0.024973,-0.590820,-0.431152,-0.692871,0.082110,0.007561,0.052881,0.999974,-0.000178,0.007227,-0.000125,0.802302,0.227964,-0.423306,0.353773
05697,NaN,8.481945,1.085430,5.037765,-0.062009,0.587201,0.094401,-0.128461,1.377016,-0.038482,-0.584473,-0.431152,-0.697266,0.085166,0.010870,0.049785,0.999976,-0.000642,0.006885,-0.000192,0.805595,0.225161,-0.417319,0.355196
05698,NaN,8.867227,1.675446,4.375740,0.069330,1.655341,0.078495,-0.083249,1.322626,-0.094370,-0.575928,-0.428955,-0.707764,0.088967,0.016731,0.043163,0.999978,-0.000416,0.006613,-0.000472,0.808589,0.222671,-0.412035,0.356131
05699,NaN,8.758608,1.997954,4.498473,-0.182562,1.839747,0.062629,0.007493,1.313150,-0.143858,-0.569580,-0.431152,-0.712158,0.087893,0.019915,0.044409,0.999978,0.000037,0.006566,-0.000719,0.811665,0.220790,-0.405988,0.357247
05700,NaN,8.553896,2.176915,4.949153,-0.533883,1.669818,0.153629,0.085092,1.307958,-0.177610,-0.556885,-0.433105,-0.718506,0.085879,0.021672,0.048940,0.999978,0.000425,0.006540,-0.000888,0.814516,0.219157,-0.400335,0.358142
05701,NaN,8.355522,2.005634,5.007334,-0.406596,1.529195,0.005937,0.095480,1.383806,-0.210370,-0.541992,-0.433105,-0.729004,0.083920,0.019944,0.049503,0.999975,0.000477,0.006919,-0.001052,0.817648,0.217708,-0.393805,0.359128
05702,NaN,7.294518,1.444437,4.933540,-0.301677,0.858802,-0.935400,0.082848,1.457442,-0.222592,-0.535645,-0.433105,-0.735352,0.073318,0.014343,0.048808,0.999973,0.000414,0.007287,-0.001113,0.820796,0.215864,-0.387456,0.359965
05703,NaN,6.481735,0.994203,4.568810,-0.039391,0.534623,-1.838557,0.149616,1.497784,-0.234154,-0.522705,-0.439453,-0.741699,0.065169,0.009832,0.045208,0.999971,0.000748,0.007489,-0.001171,0.824035,0.214484,-0.380336,0.360980
05704,NaN,5.347755,0.277591,5.366568,-0.289112,-0.844654,-2.284251,0.201176,1.569061,-0.219396,-0.505615,-0.441650,-0.746094,0.053899,0.002663,0.053247,0.999968,0.001006,0.007845,-0.001097,0.827164,0.212894,-0.373273,0.362137
05705,NaN,5.530537,0.968797,6.020958,-0.928283,-0.642864,-1.657881,0.083710,1.619718,-0.182177,-0.495117,-0.441650,-0.758789,0.055799,0.009612,0.059763,0.999967,0.000419,0.008098,-0.000911,0.830478,0.210892,-0.365793,0.363356
05706,NaN,5.704342,1.619350,5.807518,-1.146831,0.082872,-1.592871,-0.076420,1.672630,-0.161896,-0.482422,-0.441650,-0.763184,0.057540,0.016169,0.057589,0.999965,-0.000382,0.008363,-0.000809,0.833873,0.207828,-0.358814,0.364302
05707,NaN,5.793287,2.508878,5.312141,-1.456122,1.104219,-1.766926,-0.149405,1.703250,-0.149568,-0.465576,-0.439453,-0.771729,0.058401,0.025085,0.052607,0.999963,-0.000747,0.008516,-0.000748,0.837409,0.204605,-0.351362,0.365278
05708,NaN,5.841493,2.868514,5.044377,-1.491230,1.621906,-1.879140,0.080436,1.790760,-0.147163,-0.457031,-0.441650,-0.780029,0.058885,0.028622,0.049929,0.999960,0.000402,0.008954,-0.000736,0.840699,0.201925,-0.343564,0.366627
05709,NaN,5.803180,2.558714,5.038788,-1.160815,1.497979,-1.937399,0.309965,1.868742,-0.160811,-0.442139,-0.443604,-0.782227,0.058520,0.025463,0.049882,0.999955,0.001550,0.009344,-0.000804,0.843936,0.200387,-0.334507,0.368405
05710,NaN,5.508061,1.792154,5.469982,-0.797611,0.697135,-1.916661,0.287415,1.902561,-0.180278,-0.425049,-0.447998,-0.790771,0.055614,0.017793,0.054198,0.999953,0.001437,0.009513,-0.000901,0.847114,0.198391,-0.325765,0.370022
05711,NaN,5.328670,1.699229,6.148163,-0.970054,0.252245,-1.561908,0.162281,1.889024,-0.188320,-0.407959,-0.452148,-0.794922,0.053880,0.016892,0.060988,0.999955,0.000811,0.009445,-0.000942,0.850407,0.196258,-0.316821,0.371369
05712,NaN,5.170235,1.488460,7.151946,-1.169427,-0.430526,-0.950294,0.130505,1.827873,-0.212854,-0.397217,-0.454346,-0.801270,0.052369,0.014783,0.071053,0.999957,0.000653,0.009139,-0.001064,0.853526,0.193752,-0.308596,0.372456
05713,NaN,5.507579,1.927140,7.608322,-1.359677,-0.117528,-0.322235,0.052460,1.844288,-0.250774,-0.382324,-0.454346,-0.805664,0.055798,0.019182,0.075576,0.999957,0.000262,0.009221,-0.001254,0.856805,0.191309,-0.299902,0.373288
05714,NaN,5.371525,2.110469,7.476873,-1.399736,0.125623,-0.472803,-0.148615,1.810349,-0.292094,-0.365479,-0.454346,-0.818359,0.054420,0.021081,0.074263,0.999958,-0.000743,0.009052,-0.001460,0.860163,0.187727,-0.292143,0.373537
05715,NaN,5.059168,2.589030,7.159829,-1.694289,0.564505,-0.847763,-0.252266,1.757353,-0.319276,-0.348633,-0.452148,-0.831055,0.051259,0.025899,0.071117,0.999959,-0.001261,0.008787,-0.001596,0.863581,0.184213,-0.284246,0.373493
05716,NaN,5.038755,1.842436,7.055903,-1.001376,0.240997,-1.008914,-0.167734,1.760318,-0.327526,-0.331543,-0.454346,-0.833252,0.051036,0.018400,0.070096,0.999960,-0.000839,0.008801,-0.001638,0.866806,0.180664,-0.276657,0.373454
05717,NaN,5.560481,1.853090,7.835498,-0.851646,0.244194,-0.067925,-0.039683,1.773521,-0.316659,-0.316650,-0.458496,-0.831299,0.056326,0.018458,0.077854,0.999959,-0.000198,0.008867,-0.001583,0.869912,0.178010,-0.268223,0.373661
05718,NaN,6.018834,1.735215,7.787637,-0.351445,0.565411,0.159207,0.017560,1.776435,-0.372840,-0.295410,-0.454346,-0.839844,0.060909,0.017232,0.077339,0.999959,0.000088,0.008882,-0.001864,0.872932,0.175265,-0.260132,0.373636
05719,NaN,5.632325,1.573740,7.104585,-0.094453,0.694050,-0.637615,-0.002265,1.754432,-0.432134,-0.278564,-0.456299,-0.850342,0.056977,0.015616,0.070548,0.999959,-0.000011,0.008772,-0.002161,0.876024,0.172947,-0.251587,0.373331
05720,NaN,5.649491,1.564654,7.096361,0.054083,0.807913,-0.643980,0.036533,1.774875,-0.463615,-0.261230,-0.464844,-0.854736,0.057158,0.015502,0.070461,0.999958,0.000183,0.008874,-0.002318,0.879046,0.170374,-0.243344,0.372873
05721,NaN,5.702734,0.995527,6.999934,0.679028,0.607089,-0.775028,0.129603,1.807300,-0.457153,-0.248779,-0.458496,-0.856934,0.057679,0.009779,0.069486,0.999956,0.000648,0.009036,-0.002286,0.881978,0.168527,-0.234292,0.372587
05722,NaN,5.084207,0.571815,7.694949,0.544490,-0.257757,-0.591889,0.049556,1.769522,-0.430795,-0.229492,-0.464844,-0.865234,0.051532,0.005589,0.076497,0.999959,0.000248,0.008847,-0.002154,0.884768,0.165952,-0.226035,0.372228
05723,NaN,5.249412,1.077440,7.769564,0.394174,0.246073,-0.385864,0.018364,1.755182,-0.411242,-0.206055,-0.469238,-0.861084,0.053195,0.010658,0.077232,0.999959,0.000092,0.008776,-0.002056,0.887475,0.163594,-0.217489,0.371920
05724,NaN,4.953704,1.180049,8.160364,0.161483,0.074031,-0.195559,0.045893,1.768220,-0.398970,-0.188965,-0.469238,-0.865479,0.050279,0.011682,0.081164,0.999959,0.000229,0.008841,-0.001995,0.890059,0.160942,-0.209233,0.371638
05725,NaN,5.000183,1.708194,8.898556,-0.234446,0.243386,0.530765,-0.004117,1.747794,-0.396938,-0.180420,-0.469238,-0.871826,0.050811,0.016983,0.088544,0.999960,-0.000021,0.008739,-0.001985,0.892584,0.158441,-0.200758,0.371331
05726,NaN,5.114200,1.576436,8.943531,0.063172,0.324486,0.604357,0.009251,1.727271,-0.385018,-0.165771,-0.469238,-0.874023,0.051942,0.015661,0.088990,0.999961,0.000046,0.008636,-0.001925,0.894984,0.155661,-0.192731,0.370983
05727,NaN,4.897789,1.563083,8.583875,0.155830,0.452185,0.181471,-0.070520,1.694720,-0.382796,-0.146484,-0.473389,-0.871826,0.049733,0.015566,0.085414,0.999962,-0.000353,0.008473,-0.001914,0.897325,0.152911,-0.184645,0.370584
05728,NaN,4.446031,1.362461,8.471948,0.151861,0.202406,-0.151886,-0.074215,1.669348,-0.391333,-0.127197,-0.473389,-0.876221,0.045192,0.013568,0.084339,0.999963,-0.000371,0.008347,-0.001957,0.899608,0.149847,-0.176998,0.370030
05729,NaN,4.161117,1.309959,8.241543,0.175344,0.188990,-0.491454,-0.019289,1.645131,-0.405173,-0.110352,-0.471436,-0.876221,0.042314,0.013022,0.082068,0.999964,-0.000096,0.008226,-0.002026,0.901758,0.147412,-0.169013,0.369508
05730,NaN,4.216757,1.413968,9.455695,0.027936,-0.073927,0.636318,0.058955,1.628572,-0.415011,-0.091064,-0.475586,-0.880615,0.042965,0.014023,0.094213,0.999965,0.000295,0.008143,-0.002075,0.903820,0.145021,-0.161261,0.368882
05731,NaN,4.170539,1.332207,10.494866,0.012460,-0.445679,1.549915,0.043034,1.585663,-0.432694,-0.072021,-0.477783,-0.886963,0.042564,0.013208,0.104616,0.999966,0.000215,0.007928,-0.002163,0.905796,0.142944,-0.153404,0.368195
05732,NaN,4.261387,0.883328,10.226251,0.577682,-0.482337,1.275458,-0.037827,1.542402,-0.416445,-0.061523,-0.475586,-0.885010,0.043419,0.008763,0.101928,0.999968,-0.000189,0.007712,-0.002082,0.907738,0.140255,-0.146197,0.367378
05733,NaN,4.184002,1.343423,9.570058,0.437747,0.135162,0.707985,-0.077223,1.510909,-0.388561,-0.046387,-0.479980,-0.886963,0.042587,0.013389,0.095376,0.999970,-0.000386,0.007554,-0.001943,0.909542,0.137674,-0.138926,0.366714
05734,NaN,3.937712,1.461163,9.790517,0.271746,0.092152,0.836738,-0.002936,1.482152,-0.359348,-0.033691,-0.479980,-0.887207,0.040127,0.014541,0.097609,0.999971,-0.000015,0.007411,-0.001797,0.911200,0.135195,-0.131951,0.366095
05735,NaN,3.826652,1.482093,9.628209,0.329947,0.192212,0.646491,0.024083,1.459799,-0.339243,-0.016846,-0.477783,-0.887207,0.038993,0.014744,0.096001,0.999972,0.000120,0.007299,-0.001696,0.912684,0.133114,-0.124787,0.365674
05736,NaN,3.974798,1.522599,9.735443,0.511125,0.377243,0.793472,0.036018,1.416859,-0.340591,-0.004150,-0.477783,-0.887207,0.040462,0.015140,0.097072,0.999973,0.000180,0.007084,-0.001703,0.914137,0.130904,-0.118037,0.365083
05737,NaN,4.144850,1.363695,10.018143,0.832583,0.377917,1.076050,0.011688,1.383884,-0.344915,0.017090,-0.477783,-0.883057,0.042164,0.013559,0.099892,0.999975,0.000058,0.006919,-0.001725,0.915497,0.128866,-0.111260,0.364527
05738,NaN,3.841998,1.388354,10.206557,0.696212,0.241526,1.156237,-0.028845,1.352606,-0.346894,0.027832,-0.481934,-0.889404,0.039133,0.013831,0.101801,0.999976,-0.000144,0.006763,-0.001734,0.916873,0.126465,-0.104906,0.363794
05739,NaN,3.545208,1.232876,10.238273,0.705611,0.029904,1.068953,-0.060645,1.326072,-0.346156,0.047119,-0.484131,-0.885254,0.036151,0.012298,0.102141,0.999976,-0.000303,0.006630,-0.001731,0.918159,0.124172,-0.098539,0.363118
05740,NaN,3.288877,1.487447,10.155795,0.461699,0.166210,0.954247,-0.017006,1.293031,-0.339170,0.059814,-0.484131,-0.887451,0.033570,0.014827,0.101341,0.999978,-0.000085,0.006465,-0.001696,0.919397,0.121918,-0.092433,0.362355
05741,NaN,3.219747,1.628289,10.475371,0.403982,0.215587,1.257097,0.068553,1.248490,-0.328796,0.066406,-0.486328,-0.885254,0.032877,0.016193,0.104555,0.999979,0.000343,0.006242,-0.001644,0.920447,0.120328,-0.086210,0.361753
05742,NaN,2.997437,1.492282,10.550912,0.442224,0.040367,1.247804,0.045678,1.222796,-0.313912,0.083252,-0.481934,-0.889648,0.030642,0.014851,0.105327,0.999980,0.000228,0.006114,-0.001570,0.921492,0.118467,-0.080321,0.361064
05743,NaN,2.866790,1.688166,10.188527,0.342292,0.278923,0.896098,-0.025156,1.183027,-0.299881,0.093750,-0.486328,-0.891846,0.029295,0.016851,0.101711,0.999981,-0.000126,0.005915,-0.001499,0.922443,0.116523,-0.074628,0.360489
05744,NaN,2.751031,2.094124,10.963567,0.036225,0.373988,1.676902,-0.063730,1.127646,-0.284645,0.102295,-0.486328,-0.885498,0.028158,0.020936,0.109471,0.999983,-0.000319,0.005638,-0.001423,0.923393,0.114308,-0.069386,0.359811
05745,NaN,2.816658,1.583019,10.927620,0.529155,0.147280,1.569290,-0.083115,1.065013,-0.254296,0.119385,-0.486328,-0.885498,0.028768,0.015839,0.109117,0.999985,-0.000416,0.005325,-0.001271,0.924188,0.112283,-0.064379,0.359338
05746,NaN,2.699360,1.955601,10.915592,0.272869,0.426799,1.589215,-0.128464,0.966642,-0.229470,0.129883,-0.484131,-0.883545,0.027543,0.019595,0.109011,0.999987,-0.000642,0.004833,-0.001147,0.924968,0.110033,-0.060025,0.358782
05747,NaN,2.449245,1.992154,11.400531,0.121447,0.254402,2.013518,-0.226268,0.879479,-0.200804,0.134033,-0.481934,-0.894043,0.025013,0.020025,0.113873,0.999989,-0.001131,0.004397,-0.001004,0.925646,0.107644,-0.056169,0.358382
05748,NaN,2.118202,0.826131,12.072052,0.706786,-0.875435,2.419930,-0.216646,0.787179,-0.159260,0.140381,-0.481934,-0.887695,0.021664,0.008375,0.120627,0.999991,-0.001083,0.003936,-0.000796,0.926257,0.105282,-0.052839,0.358012
05749,NaN,1.819627,0.467948,12.515813,0.777685,-1.361312,2.745856,-0.074745,0.671936,-0.123322,0.148926,-0.484131,-0.894043,0.018620,0.004715,0.125094,0.999994,-0.000374,0.003360,-0.000617,0.926625,0.103918,-0.049741,0.357901
05750,NaN,1.231286,0.822301,12.944260,0.156894,-1.539806,3.123698,0.137253,0.521707,-0.063209,0.153320,-0.481934,-0.892090,0.012653,0.008130,0.129415,0.999996,0.000686,0.002609,-0.000316,0.926789,0.103644,-0.047056,0.357919
05751,NaN,0.696420,0.804495,13.358442,-0.166589,-1.978634,3.440128,0.281272,0.377200,0.000884,0.155518,-0.488525,-0.891846,0.007216,0.007857,0.133582,0.999997,0.001406,0.001886,0.000004,0.926659,0.104371,-0.044743,0.358341
05752,NaN,0.399354,0.486855,12.804616,-0.109381,-2.278921,2.802740,0.337782,0.273664,0.069135,0.157715,-0.490723,-0.889893,0.004167,0.004654,0.128049,0.999998,0.001689,0.001368,0.000346,0.926413,0.105438,-0.042917,0.358886
05753,NaN,0.249238,0.483513,11.849374,-0.159328,-2.177084,1.846568,0.399343,0.213206,0.088225,0.155762,-0.499268,-0.883301,0.002617,0.004600,0.118500,0.999997,0.001997,0.001066,0.000441,0.926009,0.106927,-0.041169,0.359694
05754,NaN,0.467092,1.174393,11.063383,-0.416302,-1.382553,1.228634,0.492564,0.153344,0.071102,0.160156,-0.501465,-0.881348,0.004752,0.011473,0.110659,0.999997,0.002463,0.000767,0.000356,0.925642,0.108925,-0.039622,0.360212
05755,NaN,0.690549,1.535395,10.347628,-0.449225,-0.845525,0.627172,0.581714,0.092950,0.051484,0.160156,-0.503418,-0.879150,0.006950,0.015055,0.103517,0.999996,0.002909,0.000465,0.000257,0.925154,0.111439,-0.038054,0.360865
05756,NaN,0.448420,1.489082,9.857358,-0.556253,-0.963614,0.104353,0.592405,0.052032,0.015031,0.158447,-0.510010,-0.875000,0.004509,0.014599,0.098616,0.999996,0.002962,0.000260,0.000075,0.924798,0.114090,-0.036763,0.361082
05757,NaN,0.185575,1.520423,9.474489,-0.734026,-1.062267,-0.302450,0.559766,0.015159,-0.031849,0.160645,-0.514160,-0.870605,0.001865,0.014939,0.094787,0.999996,0.002799,0.000076,-0.000159,0.924447,0.116634,-0.035528,0.361292
05758,NaN,0.414677,1.574914,9.246694,-0.571453,-0.852868,-0.479974,0.483327,0.018498,-0.074902,0.162842,-0.516357,-0.874756,0.004161,0.015524,0.092504,0.999997,0.002417,0.000092,-0.000375,0.924297,0.118856,-0.034536,0.361048
05759,NaN,0.606140,1.605920,8.957734,-0.422347,-0.662016,-0.725852,0.463261,0.059956,-0.087854,0.158691,-0.520752,-0.870605,0.006095,0.015849,0.089612,0.999997,0.002316,0.000300,-0.000439,0.924101,0.120863,-0.033211,0.361007
05760,NaN,0.824265,1.500850,8.534983,-0.167909,-0.511946,-1.124334,0.422870,0.119007,-0.120888,0.158936,-0.527100,-0.872559,0.008302,0.014823,0.085376,0.999997,0.002114,0.000595,-0.000604,0.924077,0.122631,-0.031836,0.360597
05761,NaN,0.868913,1.576205,8.397988,-0.153285,-0.409427,-1.235136,0.370667,0.179946,-0.164146,0.161133,-0.529297,-0.868408,0.008778,0.015599,0.084001,0.999998,0.001853,0.000900,-0.000821,0.924079,0.124000,-0.030070,0.360274
05762,NaN,0.722473,1.720438,8.703180,-0.311879,-0.492442,-0.930834,0.373733,0.199033,-0.171385,0.165527,-0.531494,-0.862061,0.007326,0.017035,0.087056,0.999997,0.001869,0.000995,-0.000857,0.924180,0.125402,-0.028382,0.359668
05763,NaN,0.449847,1.720493,8.984260,-0.461039,-0.752377,-0.696734,0.383644,0.231165,-0.163996,0.174072,-0.535645,-0.864258,0.004616,0.017029,0.089870,0.999997,0.001918,0.001156,-0.000820,0.924170,0.126731,-0.026350,0.359380
05764,NaN,0.215775,1.860949,9.112464,-0.681872,-0.849856,-0.573676,0.375653,0.233665,-0.161619,0.174316,-0.542236,-0.857910,0.002279,0.018436,0.091157,0.999997,0.001878,0.001168,-0.000808,0.924247,0.128077,-0.024504,0.358837
05765,NaN,-0.082065,1.825251,9.279707,-0.826047,-1.122752,-0.458108,0.394816,0.232821,-0.141758,0.174316,-0.542236,-0.857910,-0.000700,0.018070,0.092834,0.999997,0.001974,0.001164,-0.000709,0.924181,0.129438,-0.022442,0.358652
05766,NaN,-0.140214,1.863976,9.492243,-0.841047,-1.199030,-0.249657,0.379916,0.246814,-0.145187,0.178711,-0.546387,-0.855713,-0.001272,0.018460,0.094959,0.999997,0.001900,0.001234,-0.000726,0.924217,0.130775,-0.020537,0.358190
05767,NaN,0.073454,1.997124,9.533797,-0.722505,-0.981841,-0.148268,0.353544,0.252432,-0.144034,0.185059,-0.544434,-0.855713,0.000869,0.019802,0.095372,0.999997,0.001768,0.001262,-0.000720,0.924169,0.131894,-0.018434,0.358017
05768,NaN,0.366888,2.128464,9.549604,-0.549878,-0.702023,-0.062582,0.233082,0.321668,-0.101268,0.185059,-0.546387,-0.855713,0.003833,0.021171,0.095515,0.999998,0.001165,0.001608,-0.000506,0.924220,0.132412,-0.016474,0.357788
05769,NaN,0.803848,2.215819,9.781565,-0.226795,-0.407421,0.238058,0.245357,0.256582,-0.109098,0.185303,-0.554932,-0.853516,0.008176,0.022034,0.097832,0.999998,0.001227,0.001283,-0.000545,0.924183,0.133003,-0.014554,0.357749
05770,NaN,0.942054,2.427144,9.637766,-0.238250,-0.130076,0.166854,0.229649,0.259979,-0.074028,0.185059,-0.546387,-0.851562,0.009555,0.024157,0.096393,0.999998,0.001148,0.001300,-0.000370,0.924176,0.133613,-0.012904,0.357602
05771,NaN,0.969148,2.531897,9.530442,-0.258139,-0.005602,0.092479,0.201749,0.278512,-0.046538,0.195801,-0.552979,-0.849365,0.009830,0.025221,0.095316,0.999998,0.001009,0.001393,-0.000233,0.924043,0.133964,-0.011004,0.357879
05772,NaN,1.020465,2.529190,9.522580,-0.186262,0.031102,0.090945,0.194137,0.249232,-0.053183,0.193848,-0.554932,-0.849365,0.010330,0.025197,0.095237,0.999999,0.000971,0.001246,-0.000266,0.924017,0.134427,-0.009481,0.357817
05773,NaN,1.069505,2.684500,9.349486,-0.234052,0.223399,-0.032170,0.163995,0.240001,-0.055593,0.197998,-0.555176,-0.840820,0.010815,0.026765,0.093504,0.999999,0.000820,0.001200,-0.000278,0.923924,0.134675,-0.007824,0.358003
05774,NaN,1.108212,2.721192,9.393778,-0.198705,0.269201,0.024186,0.123837,0.252687,-0.034570,0.198242,-0.557129,-0.847168,0.011206,0.027152,0.093941,0.999999,0.000619,0.001263,-0.000173,0.923907,0.134805,-0.006423,0.358025
05775,NaN,0.958742,2.843310,9.469402,-0.357455,0.250551,0.111150,0.057348,0.268105,-0.012872,0.202393,-0.554932,-0.849365,0.009716,0.028405,0.094689,0.999999,0.000287,0.001341,-0.000064,0.923805,0.134520,-0.004865,0.358419
05776,NaN,0.896163,2.983277,9.598362,-0.465353,0.289193,0.263590,0.022383,0.253262,0.049160,0.204346,-0.552979,-0.847168,0.009076,0.029824,0.095976,0.999999,0.000112,0.001266,0.000246,0.923704,0.134177,-0.003699,0.358823
05777,NaN,0.827900,3.050654,9.668783,-0.535492,0.291014,0.341415,-0.005364,0.245439,0.075384,0.206787,-0.561523,-0.843018,0.008386,0.030512,0.096677,0.999999,-0.000027,0.001227,0.000377,0.923491,0.133649,-0.002423,0.359578
05778,NaN,0.861136,3.051501,9.661634,-0.498097,0.330257,0.338331,-0.005664,0.236686,0.107733,0.204590,-0.557129,-0.847168,0.008709,0.030522,0.096605,0.999999,-0.000028,0.001183,0.000539,0.923299,0.133205,-0.001423,0.360240
05779,NaN,1.145423,3.075826,9.757304,-0.279300,0.528685,0.464478,0.007069,0.232254,0.139992,0.208740,-0.557129,-0.849365,0.011546,0.030763,0.097561,0.999999,0.000035,0.001161,0.000700,0.922949,0.132776,-0.000229,0.361296
05780,NaN,1.102575,2.921760,9.841845,-0.187298,0.383690,0.503898,0.019158,0.231857,0.161418,0.206787,-0.561523,-0.847168,0.011116,0.029217,0.098408,0.999999,0.000096,0.001159,0.000807,0.922640,0.132454,0.000758,0.362202
05781,NaN,1.058189,2.749960,9.847193,-0.088701,0.245811,0.462571,0.027930,0.229592,0.175742,0.206787,-0.561523,-0.849365,0.010671,0.027495,0.098464,0.999999,0.000140,0.001148,0.000879,0.922212,0.132138,0.001944,0.363402
05782,NaN,1.159750,2.561583,9.793654,0.120026,0.206257,0.373843,0.029130,0.225342,0.182310,0.206787,-0.563721,-0.849365,0.011684,0.025612,0.097927,0.999999,0.000146,0.001127,0.000912,0.921854,0.131873,0.002905,0.364398
05783,NaN,1.083920,2.394327,9.737780,0.186241,0.064032,0.271619,0.036275,0.208134,0.186015,0.206787,-0.559326,-0.845215,0.010918,0.023936,0.097371,0.999999,0.000181,0.001041,0.000930,0.921393,0.131643,0.003990,0.365635
05784,NaN,0.991408,2.326476,9.658142,0.167530,-0.017084,0.169632,0.027164,0.197973,0.188602,0.208984,-0.565674,-0.851318,0.009988,0.023261,0.096575,0.999999,0.000136,0.000990,0.000943,0.921022,0.131419,0.004817,0.366640
05785,NaN,0.952086,2.289392,9.494646,0.159479,-0.019300,-0.000946,0.017763,0.191778,0.185827,0.206787,-0.563721,-0.843018,0.009591,0.022894,0.094939,0.999999,0.000089,0.000959,0.000929,0.920572,0.131133,0.005781,0.367856
05786,NaN,0.839470,2.168654,9.480308,0.168790,-0.168222,-0.054245,0.060299,0.189382,0.179228,0.208984,-0.565674,-0.844971,0.008465,0.021666,0.094802,0.999999,0.000301,0.000947,0.000896,0.920193,0.131076,0.006636,0.368810
05787,NaN,0.648962,2.101663,9.468660,0.092152,-0.336601,-0.098171,0.136882,0.180736,0.164647,0.207031,-0.570068,-0.840820,0.006558,0.020957,0.094695,0.999999,0.000684,0.000904,0.000823,0.919697,0.131358,0.007773,0.369922
05788,NaN,0.575215,2.041455,9.492331,0.102533,-0.436950,-0.096656,0.217533,0.169688,0.165997,0.209229,-0.572266,-0.844971,0.005816,0.020316,0.094941,0.999999,0.001088,0.000848,0.000830,0.919235,0.132060,0.008837,0.370795
05789,NaN,0.647807,2.041006,9.463092,0.178289,-0.386534,-0.119689,0.254940,0.161232,0.157407,0.209229,-0.572266,-0.842773,0.006538,0.020295,0.094652,0.999999,0.001275,0.000806,0.000787,0.918666,0.132915,0.010104,0.371867
05790,NaN,0.526295,2.085326,9.476798,0.086793,-0.449812,-0.105713,0.228872,0.188408,0.156359,0.209229,-0.570068,-0.840820,0.005336,0.020749,0.094787,0.999999,0.001144,0.000942,0.000782,0.918208,0.133633,0.011281,0.372705
05791,NaN,0.395407,2.174033,9.516918,-0.037217,-0.490734,-0.055011,0.185734,0.192446,0.159431,0.211426,-0.578613,-0.838623,0.004028,0.021655,0.095185,0.999999,0.000929,0.000962,0.000797,0.917681,0.134102,0.012555,0.373792
05792,NaN,0.264083,2.356976,9.563046,-0.229679,-0.468471,0.026249,0.149562,0.190996,0.166686,0.207275,-0.576416,-0.840820,0.002713,0.023500,0.095645,0.999999,0.000748,0.000955,0.000833,0.917253,0.134451,0.013589,0.374681
05793,NaN,-0.066551,2.620138,9.443536,-0.641580,-0.488613,-0.045419,0.128693,0.169307,0.173586,0.207520,-0.584961,-0.842773,-0.000608,0.026140,0.094453,0.999999,0.000643,0.000847,0.000868,0.916729,0.134698,0.014643,0.375831
05794,NaN,-0.308859,2.856872,9.374902,-0.969370,-0.482508,-0.067259,0.151803,0.148711,0.178930,0.209473,-0.578613,-0.836426,-0.003044,0.028495,0.093773,0.999999,0.000759,0.000744,0.000895,0.916275,0.135137,0.015480,0.376747
05795,NaN,-0.432727,2.920951,9.410178,-1.076513,-0.540291,-0.023928,0.209324,0.132441,0.187878,0.211670,-0.578613,-0.836426,-0.004292,0.029107,0.094135,0.999999,0.001047,0.000662,0.000939,0.915665,0.135824,0.016520,0.377938
05796,NaN,-0.307148,3.042512,9.400567,-1.050396,-0.382370,0.009343,0.280966,0.105554,0.177039,0.211914,-0.591553,-0.832275,-0.003049,0.030290,0.094050,0.999998,0.001405,0.000528,0.000885,0.915125,0.136935,0.017404,0.378803
05797,NaN,-0.273935,3.072022,9.353041,-1.026725,-0.343840,-0.023956,0.296938,0.128002,0.173693,0.203369,-0.585205,-0.834229,-0.002706,0.030579,0.093578,0.999998,0.001485,0.000640,0.000868,0.914479,0.138029,0.018615,0.379908
05798,NaN,-0.327763,2.977383,9.322566,-0.979619,-0.453073,-0.080396,0.255772,0.136360,0.171460,0.203369,-0.587158,-0.825928,-0.003240,0.029652,0.093266,0.999999,0.001279,0.000682,0.000857,0.913958,0.138965,0.019596,0.380769
05799,NaN,-0.296247,3.024075,9.278500,-0.972457,-0.397202,-0.105995,0.178240,0.140250,0.183822,0.209961,-0.593750,-0.823730,-0.002925,0.030155,0.092814,0.999999,0.000891,0.000701,0.000919,0.913444,0.139466,0.020631,0.381765
05800,NaN,-0.302994,3.039177,9.273346,-0.972569,-0.397472,-0.106017,0.135246,0.127995,0.191696,0.209961,-0.593750,-0.827881,-0.003000,0.030326,0.092756,0.999999,0.000676,0.000640,0.000958,0.912965,0.139869,0.021330,0.382722
05801,NaN,-0.175607,3.102540,9.187799,-0.923335,-0.249279,-0.160872,0.118666,0.112576,0.191878,0.205811,-0.595947,-0.830078,-0.001734,0.030969,0.091897,0.999999,0.000593,0.000563,0.000959,0.912393,0.140185,0.022145,0.383922
05802,NaN,-0.318723,2.977639,8.975526,-0.956965,-0.388202,-0.407291,0.121566,0.123706,0.188216,0.207764,-0.595947,-0.830078,-0.003160,0.029719,0.089775,0.999999,0.000608,0.000619,0.000941,0.911928,0.140533,0.022801,0.384860
05803,NaN,-0.519152,2.799748,8.922025,-0.965533,-0.639335,-0.519162,0.154181,0.111273,0.162843,0.207764,-0.595947,-0.821533,-0.005165,0.027924,0.089245,0.999999,0.000771,0.000556,0.000814,0.911465,0.140983,0.023695,0.385738
05804,NaN,-0.988282,2.772286,8.908730,-1.263083,-0.994543,-0.569137,0.139077,0.110826,0.167938,0.205811,-0.597900,-0.819336,-0.009857,0.027653,0.089112,0.999999,0.000695,0.000554,0.000840,0.911025,0.141432,0.024341,0.386571
05805,NaN,-0.537530,2.878250,9.456077,-0.920310,-0.738304,0.015770,0.097937,0.135307,0.218300,0.205811,-0.600098,-0.821533,-0.005343,0.028730,0.094578,0.999999,0.000490,0.000677,0.001091,0.910401,0.141614,0.025226,0.387915
05806,NaN,0.378565,3.062360,9.499229,-0.393925,0.024690,0.167339,0.050929,0.119784,0.223144,0.203857,-0.602295,-0.821533,0.003808,0.030604,0.094998,0.999999,0.000255,0.000599,0.001116,0.909913,0.141651,0.025702,0.389016
05807,NaN,-0.551032,3.151393,9.639371,-1.074598,-0.613600,0.268043,-0.016132,0.074238,0.233884,0.201660,-0.602295,-0.827881,-0.005511,0.031515,0.096393,0.999999,-0.000081,0.000371,0.001169,0.909339,0.141436,0.026081,0.390408
05808,NaN,0.082968,2.962129,9.600030,-0.514985,-0.272869,0.217367,-0.106413,-0.008765,0.248754,0.201416,-0.595947,-0.823730,0.000789,0.029673,0.095985,0.999999,-0.000532,-0.000044,0.001244,0.908925,0.141012,0.025649,0.391553
05809,NaN,0.579213,2.895865,9.463362,-0.156476,0.076895,0.099242,-0.094609,-0.025095,0.223137,0.195557,-0.606689,-0.819336,0.005748,0.029010,0.094621,0.999999,-0.000473,-0.000125,0.001116,0.908525,0.140601,0.025423,0.392641
05810,NaN,0.609091,2.838210,9.471486,-0.105532,0.058341,0.092914,-0.046526,-0.020822,0.198623,0.199707,-0.604492,-0.829834,0.006053,0.028410,0.094709,0.999999,-0.000233,-0.000104,0.000993,0.908166,0.140466,0.025089,0.393541
05811,NaN,0.884971,2.778074,9.436688,0.117074,0.227657,0.060833,-0.023137,-0.005424,0.178814,0.197510,-0.604492,-0.823486,0.008822,0.027800,0.094364,1.000000,-0.000116,-0.000027,0.000894,0.907800,0.140342,0.025117,0.394428
05812,NaN,0.828182,2.732164,9.311031,0.085088,0.185798,-0.075946,-0.030851,0.014092,0.149354,0.197510,-0.602295,-0.823486,0.008268,0.027342,0.093106,1.000000,-0.000154,0.000070,0.000747,0.907521,0.140202,0.025007,0.395126
05813,NaN,0.709334,2.805403,9.297550,-0.052239,0.154671,-0.076609,-0.045250,0.031177,0.139510,0.195557,-0.606689,-0.821533,0.007088,0.028080,0.092968,1.000000,-0.000226,0.000156,0.000698,0.907243,0.139905,0.025173,0.395857
05814,NaN,0.854171,2.766411,9.401040,0.085970,0.213175,0.021404,-0.049717,0.027579,0.133206,0.197510,-0.602295,-0.825684,0.008536,0.027693,0.094002,1.000000,-0.000249,0.000138,0.000666,0.907006,0.139652,0.025098,0.396493
05815,NaN,0.870011,2.734363,9.432717,0.121842,0.200823,0.044018,-0.050387,0.010629,0.134988,0.193115,-0.602295,-0.821533,0.008687,0.027373,0.094320,1.000000,-0.000252,0.000053,0.000675,0.906649,0.139409,0.025169,0.397391
05816,NaN,0.942708,2.704972,9.380032,0.178570,0.247711,-0.009763,-0.021986,-0.000511,0.127637,0.195312,-0.602295,-0.821533,0.009410,0.027066,0.093797,1.000000,-0.000110,-0.000003,0.000638,0.906406,0.139337,0.025025,0.397978
05817,NaN,1.164324,2.525706,9.323298,0.447764,0.307325,-0.098585,0.003399,-0.003922,0.113330,0.193359,-0.608643,-0.825684,0.011627,0.025262,0.093234,1.000000,0.000017,-0.000020,0.000567,0.906058,0.139367,0.025139,0.398753
05818,NaN,1.505739,2.638712,9.188110,0.575517,0.659835,-0.175011,-0.007780,0.017389,0.092063,0.186768,-0.602295,-0.821533,0.015053,0.026398,0.091879,1.000000,-0.000039,0.000087,0.000460,0.905873,0.139319,0.025130,0.399189
05819,NaN,1.364349,2.468417,9.264084,0.615695,0.433845,-0.158130,-0.001037,0.064736,0.072141,0.191162,-0.606445,-0.825684,0.013665,0.024690,0.092636,1.000000,-0.000005,0.000324,0.000361,0.905696,0.139162,0.025544,0.399620
05820,NaN,1.160234,2.544613,9.326434,0.433541,0.324844,-0.091057,-0.042079,0.080818,0.045620,0.193359,-0.604492,-0.821533,0.011634,0.025468,0.093254,1.000000,-0.000210,0.000404,0.000228,0.905620,0.138826,0.025786,0.399894
05821,NaN,0.810268,2.545377,9.491787,0.223563,0.042732,0.045186,-0.088524,0.087200,0.030029,0.186768,-0.602295,-0.823486,0.008140,0.025497,0.094903,1.000000,-0.000443,0.000436,0.000150,0.905586,0.138226,0.026139,0.400155
05822,NaN,0.795831,2.603163,9.598747,0.185419,0.058111,0.162680,-0.145164,0.087277,0.034451,0.193115,-0.602295,-0.823486,0.007996,0.026103,0.095965,1.000000,-0.000726,0.000436,0.000172,0.905602,0.137409,0.026212,0.400396
05823,NaN,0.782279,2.608798,9.628217,0.169595,0.064143,0.191683,-0.223610,0.066509,0.047819,0.195312,-0.604492,-0.825684,0.007849,0.026197,0.096250,0.999999,-0.001118,0.000333,0.000239,0.905628,0.136242,0.026180,0.400738
05824,NaN,0.175431,2.571320,9.495026,-0.246912,-0.355797,0.016371,-0.200554,0.092208,0.051254,0.195312,-0.602295,-0.825684,0.001791,0.025809,0.094924,0.999999,-0.001003,0.000461,0.000256,0.905645,0.135166,0.026152,0.401065
05825,NaN,0.030051,2.298235,9.337126,-0.180140,-0.584457,-0.216300,-0.177605,0.076355,0.068091,0.193115,-0.597900,-0.825684,0.000328,0.023065,0.093351,0.999999,-0.000888,0.000382,0.000340,0.905499,0.134221,0.026254,0.401706
05826,NaN,1.574338,2.680997,8.798847,0.491593,0.928375,-0.540017,-0.204613,0.000965,0.085857,0.193115,-0.600098,-0.823486,0.015732,0.026907,0.087961,0.999999,-0.001023,0.000005,0.000429,0.905459,0.133314,0.025782,0.402128
05827,NaN,0.108123,2.773765,9.343713,-0.488961,-0.194165,-0.079568,-0.154965,0.159015,0.089341,0.188965,-0.602295,-0.823486,0.001143,0.027811,0.093415,0.999999,-0.000775,0.000795,0.000447,0.905241,0.132311,0.026278,0.402916
05828,NaN,-0.013753,2.426991,9.736298,-0.261867,-0.574796,0.201652,-0.105412,0.132270,0.096346,0.186523,-0.593750,-0.823730,-0.000085,0.024321,0.097350,1.000000,-0.000527,0.000661,0.000482,0.905095,0.131590,0.026593,0.403460
05829,NaN,0.345087,2.604112,9.620068,-0.164679,-0.158940,0.156956,-0.063090,0.101748,0.106389,0.195068,-0.597900,-0.832031,0.003486,0.026073,0.096191,1.000000,-0.000315,0.000509,0.000532,0.904776,0.131122,0.027006,0.404299
05830,NaN,0.307852,2.305073,9.650989,0.032258,-0.375872,0.107363,-0.034647,0.093590,0.117813,0.188721,-0.595947,-0.823486,0.003110,0.023069,0.096504,1.000000,-0.000173,0.000468,0.000589,0.904544,0.130802,0.027274,0.404904
05831,NaN,0.452874,2.322247,9.603427,0.112459,-0.240734,0.074331,-0.015412,0.050790,0.113625,0.188721,-0.593750,-0.827881,0.004540,0.023232,0.096031,1.000000,-0.000077,0.000254,0.000568,0.904295,0.130615,0.027534,0.405502
05832,NaN,0.650145,2.326656,9.339736,0.202329,-0.032241,-0.167755,0.013846,0.084885,0.096619,0.188965,-0.600098,-0.827881,0.006530,0.023263,0.093396,1.000000,0.000069,0.000424,0.000483,0.904074,0.130529,0.027876,0.405999
05833,NaN,0.445261,2.204238,9.573454,0.199120,-0.308289,0.014482,0.064879,0.078157,0.073755,0.193359,-0.604492,-0.827881,0.004482,0.022013,0.095740,1.000000,0.000324,0.000391,0.000369,0.903849,0.130644,0.028441,0.406424
05834,NaN,0.500063,2.341150,9.364787,0.110917,-0.136807,-0.148358,0.065270,0.051626,0.042493,0.182617,-0.600098,-0.823486,0.005020,0.023382,0.093654,1.000000,0.000326,0.000258,0.000212,0.903708,0.130851,0.028772,0.406647
