// Start Time: Unknown
// Update Rate: 100.0Hz
// Filter Profile: human (46.1)
// Firmware Version: 4.4.0
PacketCounter,SampleTimeFine,Acc_X,Acc_Y,Acc_Z,FreeAcc_X,FreeAcc_Y,FreeAcc_Z,Gyr_X,Gyr_Y,Gyr_Z,Mag_X,Mag_Y,Mag_Z,VelInc_X,VelInc_Y,VelInc_Z,OriInc_q0,OriInc_q1,OriInc_q2,OriInc_q3,Quat_q0,Quat_q1,Quat_q2,Quat_q3
57325,NaN,12.167374,-6.197651,-2.341292,0.000000,-0.000000,4.041212,3.344010,0.541301,-1.075219,-0.978760,0.188965,-0.195068,0.121274,-0.062223,-0.024781,0.999842,0.016719,0.002706,-0.005376,0.544760,0.061664,-0.765266,0.337345
57326,NaN,12.996452,-0.442288,1.352568,-8.699645,2.421226,-0.358414,-0.886588,-0.273997,-1.609938,-0.984619,0.176025,-0.182373,0.129905,-0.005408,0.013726,0.999957,-0.004433,-0.001370,-0.008050,0.446580,0.010452,-0.838055,0.313241
57327,NaN,12.386953,3.985437,-5.749976,-4.370896,9.350910,-0.023945,-4.366572,-1.875589,-1.527897,-0.988770,0.171631,-0.163330,0.124700,0.037653,-0.057171,0.999689,-0.021831,-0.009377,-0.007639,0.441203,0.010039,-0.848740,0.291339
57328,NaN,11.823006,4.792735,-12.848654,1.266143,13.024622,2.699667,-3.731568,0.762644,-1.239403,-0.992676,0.163086,-0.180176,0.118021,0.044782,-0.129792,0.999799,-0.018657,0.003813,-0.006197,0.447940,0.007162,-0.852104,0.270585
57329,NaN,14.297254,6.115282,-5.307562,-5.810706,10.943581,0.976800,-2.786738,2.691430,-1.756576,-0.986084,0.148193,-0.203369,0.142759,0.059133,-0.055831,0.999774,-0.013933,0.013456,-0.008782,0.461781,0.004762,-0.849591,0.254814
57330,NaN,14.580756,3.858839,2.609410,-10.830739,5.722105,-0.637668,-4.371342,4.876563,-1.842245,-0.977783,0.150391,-0.243408,0.146723,0.037746,0.021692,0.999422,-0.021852,0.024378,-0.009209,0.489716,-0.008246,-0.845336,0.213347
57331,NaN,10.567383,1.915963,-5.990120,-0.539297,6.022941,0.892325,-6.295439,4.325359,-1.720432,-0.969238,0.146240,-0.275146,0.104486,0.016312,-0.062713,0.999234,-0.031469,0.021621,-0.008600,0.509193,-0.020994,-0.840885,0.182192
57332,NaN,9.999682,0.993338,-9.384827,3.874959,4.748373,2.492359,-6.470085,3.977444,-1.710698,-0.958740,0.146484,-0.313232,0.098164,0.006004,-0.096050,0.999242,-0.032342,0.019882,-0.008551,0.535230,-0.041342,-0.835245,0.119100
57333,NaN,7.484241,0.228860,-6.708982,3.080487,2.486928,-0.573133,-5.463964,3.846786,-1.681246,-0.950439,0.148682,-0.336670,0.073539,-0.000193,-0.068530,0.999407,-0.027314,0.019230,-0.008405,0.550846,-0.051207,-0.828058,0.090921
57334,NaN,7.866133,-1.374780,-3.689038,0.505388,-0.172775,-1.033179,-3.837923,3.100507,-1.461198,-0.950684,0.148682,-0.357666,0.077973,-0.015039,-0.037822,0.999669,-0.019187,0.015501,-0.007305,0.567083,-0.065597,-0.820425,0.031893
57335,NaN,8.247951,-0.698345,-3.629429,0.577667,0.280260,-0.797867,-3.846948,2.870380,-1.325359,-0.931641,0.153076,-0.385254,0.081897,-0.008239,-0.037322,0.999690,-0.019233,0.014350,-0.006626,0.577630,-0.071504,-0.813081,0.011405
57336,NaN,8.590610,0.927082,-4.533553,1.787820,1.108356,-0.285242,-4.043254,2.726790,-1.241794,-0.934082,0.157471,-0.404297,0.085327,0.007805,-0.046669,0.999683,-0.020214,0.013633,-0.006208,0.588485,-0.084837,-0.803070,-0.039596
57337,NaN,8.335146,1.767816,-5.463254,3.127815,1.399765,-0.289693,-4.174692,2.554894,-1.202514,-0.915283,0.163818,-0.412842,0.082741,0.016019,-0.056038,0.999682,-0.020871,0.012773,-0.006012,0.596547,-0.091759,-0.794982,-0.060966
57338,NaN,7.268903,-0.331572,-6.185797,3.726080,-1.711308,-1.187965,-4.037342,2.448951,-0.990418,-0.911377,0.174561,-0.432129,0.071903,-0.004933,-0.062653,0.999709,-0.020185,0.012244,-0.004952,0.602642,-0.104507,-0.783783,-0.107638
57339,NaN,6.401774,-1.209748,-6.156771,3.730712,-2.916441,-2.202348,-4.148437,2.409963,-0.830204,-0.903320,0.185303,-0.447021,0.063217,-0.013645,-0.062060,0.999704,-0.020740,0.012049,-0.004151,0.609292,-0.112425,-0.774491,-0.127622
57340,NaN,5.328657,-0.901461,-6.000144,3.860637,-3.055602,-3.412757,-4.013785,2.165958,-0.735311,-0.892822,0.189697,-0.457764,0.052597,-0.010418,-0.060374,0.999733,-0.020067,0.010829,-0.003676,0.611477,-0.122868,-0.765657,-0.157380
57341,NaN,5.029040,-1.241886,-5.917481,3.702533,-3.610876,-3.888532,-3.964697,1.843440,-0.670693,-0.891113,0.206787,-0.464111,0.049699,-0.013762,-0.059371,0.999755,-0.019822,0.009216,-0.003353,0.615421,-0.130941,-0.757127,-0.175701
57342,NaN,4.142112,-1.957361,-5.345220,2.984784,-4.183844,-5.002155,-3.799483,1.565669,-0.561462,-0.878662,0.215576,-0.470459,0.040946,-0.020704,-0.053388,0.999785,-0.018996,0.007828,-0.002807,0.614284,-0.138850,-0.753193,-0.189938
57343,NaN,3.894146,-2.486636,-4.931969,2.346304,-4.632008,-5.487431,-3.515827,1.274649,-0.418700,-0.875000,0.228271,-0.474854,0.038575,-0.025812,-0.049118,0.999823,-0.017578,0.006373,-0.002093,0.616137,-0.146836,-0.746097,-0.205315
57344,NaN,3.856929,-2.256916,-4.786099,2.278095,-4.354168,-5.485433,-3.247932,1.020366,-0.309296,-0.877441,0.245361,-0.475098,0.038290,-0.023404,-0.047681,0.999854,-0.016239,0.005102,-0.001546,0.613455,-0.152569,-0.747144,-0.205356
57345,NaN,3.428122,-2.706046,-4.421998,1.737646,-4.665012,-6.091795,-2.973147,0.829872,-0.211185,-0.875488,0.249756,-0.479248,0.034069,-0.027751,-0.043953,0.999880,-0.014865,0.004149,-0.001056,0.613996,-0.160029,-0.741618,-0.217719
57346,NaN,2.959959,-3.135826,-3.788691,1.082138,-4.633649,-6.602402,-2.608748,0.617283,-0.137464,-0.871826,0.266846,-0.475342,0.029462,-0.031870,-0.037564,0.999910,-0.013043,0.003086,-0.000687,0.610465,-0.163874,-0.746303,-0.208590
57347,NaN,2.578167,-3.682620,-3.156698,0.256835,-4.817657,-7.186534,-2.247336,0.430347,-0.111184,-0.867676,0.273438,-0.473145,0.025694,-0.037193,-0.031206,0.999934,-0.011236,0.002152,-0.000556,0.610073,-0.169859,-0.742688,-0.217654
57348,NaN,2.568508,-3.345454,-2.640369,0.043714,-4.185337,-7.121700,-1.811761,0.182414,-0.105924,-0.865723,0.275391,-0.471191,0.025643,-0.033706,-0.026123,0.999958,-0.009059,0.000912,-0.000530,0.606182,-0.171419,-0.749910,-0.201978
57349,NaN,2.685157,-2.831649,-2.304451,-0.065669,-3.581908,-7.037044,-1.298522,-0.175786,-0.119691,-0.870117,0.281982,-0.460449,0.026855,-0.028481,-0.022836,0.999978,-0.006493,-0.000879,-0.000598,0.604276,-0.175079,-0.749217,-0.207055
57350,NaN,2.723463,-2.466018,-1.750082,-0.313388,-2.893930,-6.968728,-0.755918,-0.619924,-0.148712,-0.878662,0.288330,-0.456299,0.027270,-0.024746,-0.017323,0.999988,-0.003780,-0.003100,-0.000744,0.598109,-0.173746,-0.759870,-0.186211
57351,NaN,3.036752,-2.223020,-1.230071,-0.743995,-2.407541,-6.758700,-0.278619,-1.068703,-0.208062,-0.882812,0.283936,-0.445801,0.030409,-0.022279,-0.012107,0.999984,-0.001393,-0.005343,-0.001040,0.593604,-0.174781,-0.762976,-0.186961
57352,NaN,3.773021,-2.135819,-0.773800,-1.268749,-1.987162,-6.092820,0.208835,-1.479902,-0.293433,-0.891113,0.279541,-0.430908,0.037755,-0.021406,-0.007481,0.999971,0.001044,-0.007399,-0.001467,0.585384,-0.171938,-0.774506,-0.167041
57353,NaN,4.825500,-2.187919,0.006244,-2.283217,-1.583827,-5.301544,0.686174,-1.831183,-0.382984,-0.895020,0.268799,-0.420166,0.048210,-0.021973,0.000429,0.999950,0.003431,-0.009156,-0.001915,0.578534,-0.169968,-0.780730,-0.163922
57354,NaN,6.159817,-2.255407,0.879661,-3.501622,-1.077875,-4.300910,1.103576,-2.161520,-0.430997,-0.896729,0.262451,-0.401123,0.061450,-0.022737,0.009336,0.999924,0.005518,-0.010807,-0.002155,0.568434,-0.163802,-0.793692,-0.141791
57355,NaN,8.319637,-2.715472,2.347578,-5.723572,-0.675345,-2.821058,1.533059,-2.459708,-0.415804,-0.915527,0.249512,-0.384033,0.082844,-0.027511,0.024286,0.999893,0.007665,-0.012298,-0.002079,0.559573,-0.159521,-0.802025,-0.134859
57356,NaN,11.501237,-2.753819,5.527265,-9.675062,0.807829,-1.086617,1.847563,-2.630765,-0.330728,-0.925781,0.242920,-0.360596,0.114228,-0.028246,0.056520,0.999869,0.009237,-0.013153,-0.001654,0.550520,-0.151157,-0.813370,-0.111838
57357,NaN,15.520004,-1.698056,10.219436,-14.982325,3.836351,0.626822,1.739164,-2.498356,-0.182705,-0.932129,0.240723,-0.343750,0.153892,-0.018021,0.103969,0.999884,0.008695,-0.012491,-0.000913,0.541508,-0.147006,-0.821263,-0.103367
57358,NaN,20.316911,-0.219983,13.608161,-19.324137,6.863288,3.508798,0.996480,-1.842761,-0.009652,-0.936035,0.234375,-0.333008,0.201904,-0.002894,0.137933,0.999945,0.004982,-0.009214,-0.000048,0.539149,-0.145237,-0.824571,-0.091148
57359,NaN,23.666126,2.314608,15.030932,-21.124606,10.180471,5.726878,-0.304048,-0.620105,0.089856,-0.940430,0.240723,-0.322510,0.236183,0.023481,0.151007,0.999994,-0.001520,-0.003101,0.000449,0.536409,-0.146708,-0.826034,-0.091708
57360,NaN,24.864434,4.573967,13.351320,-18.902620,12.051215,7.931909,-1.574264,0.484504,0.037200,-0.934082,0.238525,-0.333008,0.248958,0.046832,0.132545,0.999966,-0.007871,0.002422,0.000186,0.546059,-0.151614,-0.817968,-0.098793
57361,NaN,22.812034,5.533674,9.305333,-14.043349,11.423948,7.790162,-2.053364,1.287975,-0.176392,-0.934326,0.249268,-0.345947,0.228760,0.056077,0.091008,0.999926,-0.010267,0.006440,-0.000882,0.549643,-0.155851,-0.813511,-0.108641
57362,NaN,16.845052,3.294120,5.840767,-9.099145,7.191992,4.122702,-1.662922,1.325827,-0.255750,-0.923828,0.249268,-0.350098,0.168874,0.033203,0.057014,0.999943,-0.008314,0.006629,-0.001279,0.563460,-0.160667,-0.800159,-0.128232
57363,NaN,12.009193,1.475023,4.885677,-7.315419,4.582924,-0.027715,-1.089936,1.035721,-0.125014,-0.921875,0.255859,-0.360840,0.120352,0.014939,0.048153,0.999972,-0.005450,0.005179,-0.000625,0.566633,-0.162569,-0.796620,-0.133773
57364,NaN,7.378589,-0.075996,4.570907,-6.005038,2.560311,-4.091990,-0.814064,0.771754,0.011422,-0.926270,0.258057,-0.362793,0.073962,-0.000570,0.045426,0.999984,-0.004070,0.003859,0.000057,0.577853,-0.168428,-0.784314,-0.150233
57365,NaN,3.485229,-1.679811,2.847356,-4.128696,0.045989,-7.357552,-0.973256,0.397839,0.016247,-0.922119,0.262207,-0.356689,0.034910,-0.016657,0.028485,0.999986,-0.004866,0.001989,0.000081,0.578598,-0.171002,-0.782408,-0.154336
57366,NaN,3.130905,-3.454087,-1.118511,-1.447417,-3.315495,-6.666797,-1.137473,-0.262204,0.015721,-0.924316,0.266602,-0.350342,0.031326,-0.034601,-0.010947,0.999983,-0.005687,-0.001311,0.000079,0.584798,-0.178417,-0.773592,-0.166536
57367,NaN,5.701638,-3.596188,-3.325787,-0.373328,-4.237006,-3.615153,-0.770379,-1.288644,0.155679,-0.930908,0.272949,-0.337646,0.057257,-0.036044,-0.032751,0.999972,-0.003852,-0.006443,0.000778,0.579241,-0.182340,-0.776557,-0.167906
57368,NaN,9.062538,-2.840933,-4.905617,0.416021,-3.946161,0.112758,0.127322,-2.515883,0.396783,-0.939209,0.270752,-0.316406,0.091289,-0.028198,-0.047929,0.999919,0.000637,-0.012579,0.001984,0.575721,-0.186939,-0.778946,-0.163833
57369,NaN,13.674357,-3.316467,-6.635772,0.162532,-4.452754,5.092002,1.621120,-3.016325,0.510990,-0.943359,0.272705,-0.288818,0.137809,-0.032285,-0.064549,0.999850,0.008105,-0.015081,0.002555,0.565823,-0.186705,-0.788362,-0.153205
57370,NaN,16.700679,-3.949820,-7.505121,-0.362576,-4.666816,8.323035,3.234344,-3.066897,0.419702,-0.955811,0.266357,-0.271973,0.168219,-0.037953,-0.073100,0.999749,0.016170,-0.015333,0.002098,0.561348,-0.182762,-0.795427,-0.137049
57371,NaN,16.311930,-4.958728,-6.481842,-1.778251,-4.710519,7.717507,4.533849,-3.334896,0.363422,-0.953369,0.255615,-0.248535,0.164270,-0.047845,-0.063183,0.999602,0.022666,-0.016672,0.001817,0.552256,-0.173696,-0.807243,-0.114898
57372,NaN,15.180555,-3.357142,-4.892458,-2.218623,-2.342071,6.163047,5.390258,-3.708727,0.401862,-0.968018,0.251221,-0.231689,0.152754,-0.031981,-0.046974,0.999463,0.026946,-0.018540,0.002009,0.544942,-0.162972,-0.817757,-0.088045
57373,NaN,14.920442,2.073334,-1.135956,-3.780765,4.242920,4.183117,5.317036,-3.208539,0.165291,-0.976318,0.253174,-0.208252,0.149338,0.021106,-0.008406,0.999518,0.026581,-0.016040,0.000826,0.535968,-0.150497,-0.828308,-0.063201
57374,NaN,10.576903,8.329415,1.641817,-3.103918,10.306549,-1.563427,4.668128,-2.473037,-0.180227,-0.975830,0.236084,-0.199707,0.105614,0.082765,0.019661,0.999651,0.023338,-0.012364,-0.000901,0.532752,-0.136515,-0.834377,-0.036783
57375,NaN,6.586774,7.293373,-0.490346,-0.414229,8.192679,-4.380162,3.982445,-2.114050,-0.075252,-0.979980,0.233887,-0.184814,0.065932,0.072978,-0.002754,0.999746,0.019911,-0.010569,-0.000376,0.526503,-0.125948,-0.840579,-0.018918
57376,NaN,4.278758,0.278115,-5.370880,3.012068,0.348166,-3.645616,3.294121,-2.132235,0.299223,-0.979980,0.238037,-0.170166,0.043351,0.003725,-0.053192,0.999806,0.016470,-0.010660,0.001496,0.522025,-0.117475,-0.844801,-0.000202
57377,NaN,2.197416,-4.538324,-10.441815,7.372287,-5.147655,-2.491401,1.836847,-1.471439,0.539752,-0.982178,0.238037,-0.157471,0.022864,-0.044362,-0.104663,0.999927,0.009184,-0.007357,0.002699,0.516853,-0.114955,-0.848264,0.009830
57378,NaN,1.100633,-3.448115,-13.257519,10.586248,-4.238380,-2.142798,0.594445,-1.141757,0.532276,-0.984375,0.242432,-0.148926,0.011854,-0.034056,-0.132611,0.999976,0.002972,-0.005709,0.002661,0.513252,-0.112666,-0.850548,0.021124
57379,NaN,1.193047,-3.116013,-12.047490,9.503220,-3.662982,-2.564003,1.057898,-0.989160,0.325050,-0.984375,0.244385,-0.144775,0.012577,-0.030502,-0.120576,0.999972,0.005289,-0.004946,0.001625,0.509593,-0.111228,-0.852768,0.027015
57380,NaN,5.270698,-3.971546,-7.781964,3.801250,-3.043606,-0.846438,2.641958,-1.794011,0.205779,-0.986328,0.240234,-0.134277,0.053445,-0.038632,-0.077858,0.999872,0.013209,-0.008970,0.001029,0.504091,-0.103049,-0.856330,0.044406
57381,NaN,8.791901,-4.350608,-2.750687,-2.327653,-2.310271,-0.167230,3.788427,-2.121293,0.097822,-0.988281,0.239990,-0.121582,0.088231,-0.042943,-0.027389,0.999764,0.018941,-0.010606,0.000489,0.496821,-0.093429,-0.860582,0.061956
57382,NaN,12.470008,-1.026873,2.896515,-8.782981,1.644725,-0.588085,4.310298,-2.207838,-0.042976,-0.988281,0.235840,-0.106689,0.124370,-0.010936,0.030108,0.999707,0.021549,-0.011038,-0.000215,0.489957,-0.080175,-0.863895,0.084848
57383,NaN,14.043669,1.974148,1.761918,-8.651648,4.884083,0.459253,2.053662,-1.924087,0.056534,-0.988037,0.235840,-0.089844,0.140252,0.019590,0.019171,0.999901,0.010268,-0.009620,0.000283,0.482396,-0.074568,-0.867629,0.094622
57384,NaN,12.151786,4.330079,-0.217870,-6.117577,6.925704,-0.808956,1.658765,-1.491456,0.454174,-0.992432,0.242188,-0.077148,0.121429,0.043588,-0.000912,0.999935,0.008294,-0.007457,0.002271,0.477074,-0.070745,-0.869581,0.105950
57385,NaN,10.984605,5.220287,-4.562305,-1.958438,8.078228,0.168926,0.056208,-1.055232,0.699783,-0.994873,0.248535,-0.074951,0.109901,0.052600,-0.045029,0.999980,0.000281,-0.005276,0.003499,0.472124,-0.073099,-0.871803,0.108237
57386,NaN,9.222191,3.945379,-5.306647,-0.424846,6.577719,-0.575352,-0.870823,-0.566238,0.793163,-0.992920,0.259277,-0.070801,0.092215,0.039589,-0.052978,0.999979,-0.004354,-0.002831,0.003966,0.471110,-0.077708,-0.872100,0.107043
57387,NaN,8.288054,2.353817,-3.719052,-1.319075,4.669013,-1.780014,-0.623596,-0.468600,0.718187,-0.980469,0.267822,-0.066650,0.082883,0.023720,-0.037070,0.999986,-0.003118,-0.002343,0.003591,0.468432,-0.082063,-0.873246,0.106199
57388,NaN,8.059649,3.301936,-4.342428,-0.579795,5.591470,-1.868102,-1.337377,0.070616,0.484735,-0.984619,0.265625,-0.058350,0.080501,0.032923,-0.043673,0.999975,-0.006687,0.000353,0.002424,0.470071,-0.086571,-0.872524,0.101195
57389,NaN,7.635935,3.283055,-5.558416,0.723821,5.553665,-1.529312,-1.202102,0.265168,0.280600,-0.984863,0.271973,-0.064697,0.076240,0.032602,-0.055882,0.999980,-0.006010,0.001326,0.001403,0.470555,-0.090761,-0.872370,0.096496
57390,NaN,7.740290,2.862437,-2.296834,-2.016555,4.859161,-3.052279,-0.415490,-0.238436,0.265198,-0.980713,0.274170,-0.054199,0.077392,0.028679,-0.022936,0.999996,-0.002077,-0.001192,0.001326,0.471412,-0.093495,-0.872100,0.092041
57391,NaN,7.751003,0.914488,-0.163281,-3.958834,2.835529,-3.711180,-0.147430,0.111945,0.106878,-0.982910,0.278564,-0.060547,0.077504,0.009185,-0.001683,0.999999,-0.000737,0.000560,0.000534,0.471781,-0.094370,-0.871852,0.091601
57392,NaN,8.697329,1.709183,-2.085427,-2.711991,3.939447,-2.064171,-0.204022,0.457292,-0.220193,-0.991455,0.278564,-0.066895,0.086944,0.016975,-0.021070,0.999996,-0.001020,0.002286,-0.001101,0.476085,-0.095088,-0.869990,0.086130
57393,NaN,10.604383,-1.130674,-3.238945,-2.925438,1.702411,0.806402,0.162128,0.709484,-0.426280,-0.987061,0.272217,-0.072998,0.105904,-0.011506,-0.032775,0.999991,0.000811,0.003547,-0.002131,0.479427,-0.093163,-0.868425,0.085486
57394,NaN,9.485686,-3.569531,1.646439,-6.582117,-1.280124,-2.036640,1.743921,-0.049639,-0.388042,-0.991211,0.267822,-0.072998,0.094783,-0.036021,0.016175,0.999960,0.008719,-0.000248,-0.001940,0.483153,-0.088268,-0.866621,0.087983
57395,NaN,10.400295,-3.787392,0.492239,-6.027196,-1.244611,-0.599868,1.276761,0.238531,-0.307122,-0.990967,0.263672,-0.079346,0.103950,-0.038063,0.004556,0.999978,0.006384,0.001193,-0.001536,0.484874,-0.083967,-0.865598,0.092670
57396,NaN,9.810658,-2.875004,-0.648356,-4.584780,-0.461088,-0.663820,1.403767,0.283314,-0.325229,-0.990967,0.257080,-0.081543,0.098050,-0.028862,-0.006825,0.999973,0.007019,0.001417,-0.001626,0.489794,-0.080333,-0.863037,0.093889
57397,NaN,9.629639,-0.895278,-0.960017,-4.097622,1.431843,-1.117147,1.843892,-0.099465,-0.212995,-0.990967,0.257080,-0.087891,0.096292,-0.008967,-0.009635,0.999957,0.009219,-0.000497,-0.001065,0.490184,-0.074860,-0.862462,0.101364
57398,NaN,9.537026,0.111701,-1.103833,-3.841984,2.380391,-1.341641,1.863087,-0.229585,-0.085336,-0.993164,0.261475,-0.089844,0.095383,0.001178,-0.010918,0.999956,0.009315,-0.001148,-0.000427,0.492871,-0.070799,-0.860777,0.105491
57399,NaN,8.303994,-0.067144,-2.352381,-2.158062,2.083528,-1.719718,1.468921,-0.054720,-0.169480,-0.990967,0.257080,-0.089844,0.083046,-0.000569,-0.023506,0.999973,0.007345,-0.000274,-0.000847,0.493231,-0.066431,-0.860173,0.111416
57400,NaN,6.890166,-0.085246,-3.893121,-0.073931,1.928156,-2.137098,1.132812,-0.301646,-0.192804,-0.992920,0.255127,-0.092041,0.068960,-0.000699,-0.038831,0.999982,0.005664,-0.001508,-0.000964,0.495308,-0.063341,-0.859073,0.112478
57401,NaN,6.446619,-0.113428,-5.024715,1.097533,1.990861,-1.960867,1.217750,-0.472493,-0.170475,-0.992920,0.250732,-0.089844,0.064584,-0.000884,-0.050101,0.999978,0.006089,-0.002362,-0.000852,0.493748,-0.059338,-0.859593,0.117438
57402,NaN,6.321330,-0.859383,-4.921932,1.083765,1.236033,-1.924706,1.333648,-0.844655,-0.069109,-0.996826,0.246338,-0.085449,0.063418,-0.008288,-0.049008,0.999969,0.006668,-0.004223,-0.000346,0.493310,-0.056105,-0.859754,0.119666
57403,NaN,7.050956,-1.051393,-4.358196,0.157123,1.180330,-1.542472,1.057388,-1.204272,0.131902,-0.996826,0.246338,-0.068604,0.070777,-0.010238,-0.043211,0.999968,0.005287,-0.006021,0.000660,0.488334,-0.053354,-0.862026,0.124875
57404,NaN,8.110909,-0.599501,-3.402425,-1.272087,1.696437,-1.255505,0.684167,-1.304818,0.341094,-0.990723,0.252686,-0.064453,0.081339,-0.005741,-0.033514,0.999971,0.003421,-0.006524,0.001705,0.485332,-0.053262,-0.863643,0.125444
57405,NaN,9.026188,0.241587,-2.528911,-2.629309,2.598779,-1.195398,0.457849,-1.158745,0.454488,-0.997070,0.257080,-0.053955,0.090400,0.002678,-0.024760,0.999978,0.002289,-0.005794,0.002272,0.480154,-0.053398,-0.866027,0.128834
57406,NaN,9.447644,0.542189,-2.114360,-3.251252,2.922432,-1.157613,0.508157,-0.893849,0.464162,-0.995117,0.263428,-0.047607,0.094557,0.005694,-0.020707,0.999984,0.002541,-0.004469,0.002321,0.478692,-0.054509,-0.866737,0.129033
57407,NaN,9.286995,-0.262942,-2.678439,-2.751623,2.256111,-0.822191,0.664446,-0.936056,0.462678,-0.992920,0.265625,-0.034912,0.093000,-0.002326,-0.026357,0.999981,0.003322,-0.004680,0.002313,0.474509,-0.054332,-0.868405,0.133277
57408,NaN,9.399448,-0.491961,-2.214669,-3.232075,1.999422,-0.921610,0.618897,-1.064243,0.509528,-0.997559,0.271973,-0.030762,0.094123,-0.004612,-0.021661,0.999978,0.003094,-0.005321,0.002548,0.472360,-0.055248,-0.869389,0.134113
57409,NaN,9.661839,-0.041766,-1.753757,-3.875826,2.450686,-1.129410,0.490865,-1.137263,0.532990,-0.990967,0.269775,-0.015869,0.096717,-0.000118,-0.016988,0.999977,0.002454,-0.005686,0.002665,0.467183,-0.055655,-0.871578,0.137821
57410,NaN,10.109448,0.380073,-1.394054,-4.483593,2.907742,-1.110406,0.500921,-1.181247,0.498708,-0.990967,0.274170,-0.011719,0.101164,0.004087,-0.013333,0.999976,0.002505,-0.005906,0.002494,0.464591,-0.056789,-0.872835,0.138164
57411,NaN,11.149544,0.500808,-1.293380,-5.266980,3.276472,-0.444766,0.570322,-1.122275,0.468917,-0.991211,0.284668,0.000732,0.111553,0.005305,-0.012293,0.999977,0.002852,-0.005611,0.002345,0.459520,-0.056747,-0.874894,0.142062
57412,NaN,11.831009,0.186701,-1.160128,-5.798895,3.127385,0.083984,0.726529,-1.076470,0.454490,-0.987061,0.289062,0.009277,0.118366,0.002177,-0.010957,0.999976,0.003633,-0.005382,0.002272,0.457585,-0.057291,-0.875679,0.143248
57413,NaN,12.271053,-0.160434,-0.936568,-6.338544,2.892137,0.333161,0.765705,-1.078344,0.474413,-0.987061,0.291016,0.019775,0.122762,-0.001279,-0.008709,0.999975,0.003828,-0.005392,0.002372,0.452732,-0.056856,-0.877439,0.147995
57414,NaN,12.376994,0.139629,-0.232178,-7.025467,3.081794,-0.096372,0.653521,-1.113964,0.515322,-0.985596,0.308105,0.025879,0.123776,0.001721,-0.001627,0.999976,0.003268,-0.005570,0.002577,0.450687,-0.057728,-0.878256,0.149046
57415,NaN,12.254529,1.228984,1.000836,-8.093276,3.856618,-1.309204,0.278777,-1.035254,0.489770,-0.987549,0.303955,0.036621,0.122461,0.012575,0.010660,0.999983,0.001394,-0.005176,0.002449,0.445849,-0.058492,-0.880223,0.151674
57416,NaN,12.449247,2.422246,1.290805,-8.481836,5.004503,-1.717649,-0.385645,-0.777363,0.431289,-0.981201,0.305908,0.042969,0.124389,0.024516,0.013345,0.999988,-0.001928,-0.003887,0.002156,0.445260,-0.061501,-0.880952,0.147937
57417,NaN,12.873082,3.271781,1.068817,-8.612307,5.996069,-1.600613,-1.087472,-0.485812,0.337938,-0.983398,0.312500,0.044922,0.128649,0.032994,0.010822,0.999981,-0.005437,-0.002429,0.001690,0.442527,-0.065065,-0.882715,0.144049
57418,NaN,12.774611,3.673264,1.490087,-8.783336,6.338776,-1.965632,-2.316146,-0.226476,0.195293,-0.979004,0.308105,0.062012,0.127693,0.037028,0.014618,0.999932,-0.011580,-0.001132,0.000976,0.444203,-0.072056,-0.883395,0.130782
57419,NaN,12.902587,5.475076,-0.177093,-7.412503,8.408602,-1.396468,-2.949842,-0.050667,-0.061172,-0.978760,0.301758,0.062012,0.129043,0.054678,-0.002545,0.999891,-0.014749,-0.000253,-0.000306,0.442909,-0.078311,-0.885360,0.117625
57420,NaN,12.333202,5.884576,-1.604051,-5.689659,8.836931,-0.933253,-1.140592,0.288496,-0.308788,-0.978516,0.295166,0.059814,0.123399,0.058562,-0.016553,0.999982,-0.005703,0.001442,-0.001544,0.447732,-0.081081,-0.883936,0.107794
57421,NaN,12.401437,3.239167,-0.009836,-7.123220,6.075340,-1.058393,0.813834,-0.029472,-0.358556,-0.980713,0.297363,0.057861,0.124072,0.032169,0.000051,0.999990,0.004069,-0.000147,-0.001793,0.448122,-0.077672,-0.883697,0.110603
57422,NaN,13.045911,1.498901,0.771640,-8.131625,4.414547,-0.462495,0.443286,-0.289733,-0.259415,-0.982910,0.295166,0.059814,0.130467,0.014802,0.007938,0.999996,0.002216,-0.001449,-0.001297,0.451113,-0.076989,-0.882585,0.107767
57423,NaN,14.765572,1.203126,1.308641,-9.631924,4.435054,0.615057,-0.673308,-0.651006,-0.116146,-0.984863,0.291016,0.072754,0.147619,0.011991,0.013527,0.999989,-0.003367,-0.003255,-0.000581,0.448040,-0.077658,-0.884448,0.104787
57424,NaN,16.333987,1.846259,3.038459,-11.844787,5.250646,0.750050,-1.717462,-0.432634,-0.014282,-0.982666,0.292969,0.074707,0.163275,0.018713,0.030578,0.999961,-0.008587,-0.002163,-0.000071,0.449578,-0.082723,-0.884520,0.093069
57425,NaN,16.512394,2.300194,3.375806,-12.180258,5.762669,0.568947,-2.094483,0.023446,0.048314,-0.982666,0.295166,0.076904,0.165122,0.023394,0.033495,0.999945,-0.010472,0.000117,0.000242,0.448771,-0.087666,-0.885370,0.083903
57426,NaN,15.959481,2.126247,4.163818,-12.184663,5.780776,-0.082426,-1.478798,0.722550,-0.186515,-0.986816,0.291016,0.072754,0.159763,0.021418,0.040903,0.999966,-0.007394,0.003613,-0.000933,0.456521,-0.101888,-0.881293,0.067306
57427,NaN,16.196626,1.276631,5.672207,-13.559957,4.960835,-0.450581,0.209888,0.966789,-0.509396,-0.986816,0.282471,0.053711,0.162270,0.012294,0.055951,0.999985,0.001049,0.004834,-0.002547,0.461055,-0.099503,-0.879258,0.066578
57428,NaN,15.674131,-0.479826,7.409602,-14.651279,3.334726,-1.150944,0.700693,1.159859,-0.433978,-0.990967,0.280273,0.041016,0.157156,-0.005396,0.073167,0.999975,0.003503,0.005799,-0.002170,0.471831,-0.106012,-0.873281,0.059311
57429,NaN,16.545714,0.702137,6.210367,-13.780197,4.618965,0.265741,1.183775,2.669123,-0.193637,-0.993164,0.273926,-0.003418,0.166273,0.006502,0.059928,0.999893,0.005919,0.013345,-0.000968,0.484123,-0.103169,-0.866638,0.062605
57430,NaN,14.873769,2.471968,4.940324,-11.044603,6.127315,-0.211697,1.160349,4.618656,0.292082,-0.993652,0.287109,-0.045654,0.149792,0.024664,0.046095,0.999715,0.005801,0.023091,0.001460,0.509762,-0.110639,-0.851218,0.057703
57431,NaN,15.418372,3.846225,-4.218658,-2.418167,7.491288,4.619777,0.730528,5.118989,0.475637,-0.987793,0.295898,-0.107178,0.152947,0.038990,-0.045970,0.999663,0.003652,0.025592,0.002378,0.531647,-0.112256,-0.837406,0.059177
57432,NaN,14.189657,4.703829,-12.853434,7.116796,7.637454,6.909854,2.415667,4.532795,0.047072,-0.985596,0.285156,-0.149414,0.138933,0.048645,-0.131125,0.999670,0.012077,0.022661,0.000235,0.556918,-0.114860,-0.820563,0.057681
57433,NaN,14.783567,-0.600283,-20.170139,13.862084,2.853821,10.809893,5.089819,3.772727,-0.363850,-0.979248,0.274658,-0.206299,0.143990,-0.001086,-0.204511,0.999497,0.025445,0.018860,-0.001819,0.575146,-0.100242,-0.808381,0.075356
57434,NaN,13.614451,-8.149096,-20.540337,15.244447,-4.186987,10.763821,7.768590,3.649822,-0.630147,-0.970215,0.251221,-0.256836,0.132089,-0.073791,-0.210806,0.999074,0.038831,0.018243,-0.003150,0.597953,-0.082031,-0.791722,0.094343
57435,NaN,13.456300,-12.621500,-14.301360,10.820364,-7.533136,9.438576,10.814060,3.180963,-0.916077,-0.969238,0.210693,-0.298828,0.131640,-0.118774,-0.151682,0.998402,0.054041,0.015896,-0.004578,0.614452,-0.047476,-0.776222,0.132942
57436,NaN,11.509660,-15.677134,7.572016,-8.010519,-13.659719,3.772410,8.732450,1.931605,-1.472110,-0.962158,0.185059,-0.319824,0.114603,-0.160688,0.067651,0.998973,0.043647,0.009655,-0.007358,0.628212,-0.020459,-0.762423,0.153761
57437,NaN,12.121281,-8.047798,5.891632,-6.966914,-6.309846,2.758773,0.268922,-1.655999,-1.535686,-0.974609,0.176270,-0.294434,0.120097,-0.081483,0.059805,0.999935,0.001345,-0.008280,-0.007678,0.623071,-0.012502,-0.767521,0.150128
57438,NaN,9.160978,-4.471227,-2.506291,0.941299,-2.032208,0.442227,-2.108228,-3.645014,-1.244921,-0.980713,0.171875,-0.264893,0.091759,-0.045532,-0.022914,0.999759,-0.010540,-0.018224,-0.006224,0.613671,-0.017601,-0.778561,0.130161
57439,NaN,16.848309,5.327183,-8.783360,3.633852,9.456245,7.119095,-7.071951,-1.817550,-1.941484,-0.980469,0.169678,-0.251953,0.169769,0.048516,-0.088066,0.999287,-0.035351,-0.009086,-0.009705,0.606805,-0.030560,-0.788347,0.096756
57440,NaN,16.932338,18.413264,-6.420667,2.045451,21.101459,4.920060,-8.087041,3.893253,-2.672006,-0.971924,0.156982,-0.304932,0.170350,0.178978,-0.074825,0.998904,-0.040420,0.019459,-0.013355,0.624488,-0.053053,-0.777777,0.047563
57441,NaN,13.667741,7.116247,9.702765,-11.740334,9.017435,0.783494,-4.624826,6.128645,-2.345716,-0.957031,0.152832,-0.343018,0.140369,0.071683,0.091109,0.999194,-0.023118,0.030635,-0.011725,0.647150,-0.059800,-0.759734,0.020602
57442,NaN,8.677520,-2.163906,-5.141799,3.719198,-1.730577,-0.348705,-5.323160,3.961356,-1.936882,-0.942383,0.153076,-0.370605,0.085518,-0.023859,-0.052505,0.999403,-0.026610,0.019803,-0.009682,0.662698,-0.074867,-0.744979,-0.015240
57443,NaN,9.575713,0.421430,-8.878657,7.883876,-0.075613,0.603846,-4.089123,3.256831,-1.494511,-0.931885,0.157471,-0.395996,0.094313,0.001669,-0.090382,0.999631,-0.020443,0.016282,-0.007472,0.672946,-0.082586,-0.734153,-0.036628
57444,NaN,8.842180,0.862918,-5.446562,4.954143,0.264856,-0.649536,-3.614195,2.947398,-1.239083,-0.925781,0.159668,-0.423340,0.087652,0.007083,-0.055899,0.999709,-0.018069,0.014736,-0.006195,0.683356,-0.094281,-0.721208,-0.063207
57445,NaN,7.513255,-0.300589,-4.179617,3.717324,-0.978879,-2.117074,-3.586158,2.921911,-1.077416,-0.908936,0.166016,-0.438477,0.074492,-0.004170,-0.042820,0.999718,-0.017929,0.014608,-0.005387,0.691676,-0.101712,-0.710387,-0.081171
57446,NaN,6.898694,-1.010125,-4.300546,3.781111,-2.085081,-2.851727,-3.756673,2.764295,-0.976519,-0.894531,0.178955,-0.463867,0.068333,-0.011253,-0.043749,0.999716,-0.018782,0.013820,-0.004882,0.699941,-0.114032,-0.696947,-0.106504
57447,NaN,5.898757,-1.018095,-4.703418,4.212920,-2.492482,-3.982998,-4.102272,2.743640,-0.791033,-0.888672,0.191895,-0.478760,0.058294,-0.011385,-0.047612,0.999688,-0.020509,0.013717,-0.003955,0.706532,-0.124147,-0.685385,-0.125090
57448,NaN,5.451845,-0.371149,-5.287982,4.976993,-2.459408,-4.616904,-3.989699,2.473095,-0.680747,-0.870117,0.204834,-0.491699,0.053844,-0.004958,-0.053458,0.999719,-0.019947,0.012364,-0.003403,0.712293,-0.138234,-0.671653,-0.149704
57449,NaN,5.129919,-0.077414,-5.488187,5.260723,-2.530539,-5.084471,-3.856332,2.218631,-0.705401,-0.859619,0.213379,-0.502441,0.050681,-0.002019,-0.055415,0.999746,-0.019280,0.011092,-0.003527,0.716379,-0.147914,-0.661172,-0.166655
57450,NaN,5.648060,-0.399179,-5.647102,5.250900,-3.267247,-4.743584,-3.637792,2.025741,-0.719328,-0.856201,0.232666,-0.515137,0.055888,-0.005227,-0.056952,0.999777,-0.018188,0.010128,-0.003596,0.719690,-0.159965,-0.648716,-0.188744
57451,NaN,5.365677,-1.154423,-4.462239,3.780892,-3.569931,-5.017753,-3.638948,1.663826,-0.560540,-0.845947,0.245605,-0.519531,0.053250,-0.012508,-0.044845,0.999796,-0.018194,0.008319,-0.002803,0.721511,-0.169649,-0.639599,-0.203849
57452,NaN,4.997203,-0.798097,-4.562880,3.913534,-3.532371,-5.496199,-3.611154,1.452058,-0.403984,-0.835693,0.262695,-0.519775,0.049622,-0.008908,-0.045835,0.999809,-0.018055,0.007260,-0.002020,0.722249,-0.182822,-0.628422,-0.223646
57453,NaN,4.364842,-1.703054,-4.729089,3.391562,-4.471849,-6.233086,-3.420192,1.256434,-0.269132,-0.829834,0.277832,-0.517822,0.043328,-0.017897,-0.047263,0.999833,-0.017100,0.006282,-0.001346,0.722660,-0.192901,-0.620189,-0.236469
57454,NaN,4.114705,-1.720140,-4.524476,3.029638,-4.515017,-6.527232,-3.285040,1.063647,-0.177547,-0.821777,0.290527,-0.526367,0.040891,-0.017980,-0.045172,0.999851,-0.016424,0.005318,-0.000888,0.721885,-0.205797,-0.610126,-0.253526
57455,NaN,3.987635,-1.772758,-4.378966,2.756693,-4.556854,-6.673733,-3.230459,0.941382,-0.098663,-0.817871,0.301270,-0.524414,0.039662,-0.018453,-0.043683,0.999858,-0.016152,0.004707,-0.000493,0.721216,-0.215943,-0.602635,-0.264664
57456,NaN,3.267151,-2.203120,-4.444877,2.282042,-4.949503,-7.450978,-3.179100,0.866138,-0.048548,-0.816162,0.318359,-0.520264,0.032474,-0.022743,-0.044232,0.999864,-0.015895,0.004330,-0.000243,0.720079,-0.227450,-0.593472,-0.278468
57457,NaN,2.692510,-2.537440,-4.064457,1.570738,-4.933005,-7.967508,-2.993715,0.710449,-0.008180,-0.806152,0.335693,-0.522461,0.026780,-0.025981,-0.040354,0.999882,-0.014968,0.003552,-0.000041,0.718697,-0.237197,-0.586670,-0.288151
57458,NaN,1.905141,-3.119621,-4.069126,0.900728,-5.291771,-8.762066,-2.621521,0.462698,-0.028607,-0.804443,0.348389,-0.516357,0.018953,-0.031729,-0.040322,0.999911,-0.013107,0.002313,-0.000143,0.716746,-0.246856,-0.579677,-0.298851
57459,NaN,1.437225,-3.545869,-3.593655,0.084507,-5.201840,-9.115578,-2.082587,0.094589,-0.058873,-0.808838,0.354980,-0.507812,0.014345,-0.035835,-0.035571,0.999946,-0.010413,0.000473,-0.000294,0.714334,-0.254001,-0.576252,-0.305194
57460,NaN,1.285442,-3.067776,-2.863117,-0.179946,-4.328466,-9.110800,-1.555623,-0.379317,-0.106568,-0.808838,0.361328,-0.499512,0.012892,-0.030906,-0.028367,0.999968,-0.007778,-0.001897,-0.000533,0.711095,-0.260572,-0.574073,-0.311267
57461,NaN,2.348085,-2.146234,-2.139981,0.130157,-3.327642,-7.912961,-1.045603,-0.915454,-0.181183,-0.811035,0.363281,-0.490967,0.023559,-0.021595,-0.021179,0.999975,-0.005228,-0.004577,-0.000906,0.706817,-0.265195,-0.575907,-0.313708
57462,NaN,3.177368,-1.939192,-0.976488,-0.400525,-2.429769,-6.855463,-0.581417,-1.426712,-0.288872,-0.821533,0.363281,-0.480469,0.031814,-0.019466,-0.009482,0.999969,-0.002907,-0.007133,-0.001444,0.701669,-0.269061,-0.579412,-0.315513
57463,NaN,3.958698,-2.008681,-0.316992,-0.831944,-2.049077,-5.950670,-0.092068,-1.927262,-0.483161,-0.829590,0.348389,-0.458984,0.039566,-0.020184,-0.002779,0.999951,-0.000460,-0.009636,-0.002416,0.695177,-0.271019,-0.586634,-0.314863
57464,NaN,5.248767,-2.196666,0.268529,-1.282384,-1.841737,-4.577299,0.467706,-2.346119,-0.683870,-0.846436,0.346191,-0.444092,0.052376,-0.022153,0.003248,0.999923,0.002338,-0.011730,-0.003419,0.688381,-0.270813,-0.595813,-0.312728
57465,NaN,6.556715,-3.314685,0.696599,-2.401841,-2.332516,-3.236116,0.935392,-2.633840,-0.808498,-0.854492,0.333252,-0.431396,0.065334,-0.033446,0.007671,0.999894,0.004677,-0.013169,-0.004042,0.680477,-0.269282,-0.607357,-0.309122
57466,NaN,8.682114,-3.500551,2.040513,-3.440804,-1.589838,-1.013538,1.484715,-2.932505,-0.808978,-0.864502,0.318115,-0.407959,0.086369,-0.035512,0.021411,0.999857,0.007423,-0.014662,-0.004045,0.672974,-0.265754,-0.620211,-0.303016
57467,NaN,12.549017,-2.723327,6.422458,-5.942542,1.940156,3.111993,2.138598,-3.047044,-0.716287,-0.881104,0.307373,-0.393066,0.124395,-0.028378,0.065826,0.999820,0.010692,-0.015234,-0.003581,0.665173,-0.260914,-0.634529,-0.294689
57468,NaN,20.571757,-2.655607,12.321576,-10.287422,5.802312,11.223713,2.524380,-2.674883,-0.441373,-0.889404,0.301025,-0.380371,0.203987,-0.028583,0.125600,0.999828,0.012621,-0.013374,-0.002207,0.660131,-0.254302,-0.647220,-0.284015
57469,NaN,26.608171,-1.505677,17.497662,-13.660185,10.013898,17.197214,1.645695,-1.103759,-0.028858,-0.889160,0.292236,-0.380127,0.265109,-0.016542,0.176309,0.999951,0.008228,-0.005519,-0.000144,0.658591,-0.250341,-0.653190,-0.277365
57470,NaN,27.934936,1.291839,17.933964,-12.043010,12.213621,18.637984,-0.768106,0.788952,0.208806,-0.878906,0.302979,-0.386719,0.280040,0.013896,0.178184,0.999984,-0.003841,0.003945,0.001044,0.661492,-0.252061,-0.648442,-0.280030
57471,NaN,24.833114,5.375302,13.624162,-5.601149,12.153363,15.722887,-2.654788,2.036523,0.015474,-0.875000,0.309570,-0.399414,0.249692,0.055552,0.132974,0.999860,-0.013273,0.010182,0.000077,0.664690,-0.258013,-0.637864,-0.291110
57472,NaN,19.377564,6.097243,7.620736,-0.338156,8.377698,10.197625,-2.572844,2.029521,-0.334150,-0.868896,0.318115,-0.410156,0.194633,0.061604,0.073445,0.999864,-0.012864,0.010147,-0.001671,0.668407,-0.262128,-0.626597,-0.303145
57473,NaN,12.571295,5.321234,4.216254,1.539167,5.631245,3.227355,-1.870250,1.429995,-0.374314,-0.860352,0.320312,-0.414307,0.126108,0.053362,0.040763,0.999929,-0.009351,0.007150,-0.001872,0.669834,-0.265028,-0.619413,-0.312106
57474,NaN,6.512860,2.595878,3.969403,-0.383858,4.038253,-2.851666,-1.567413,1.110715,-0.310685,-0.860596,0.328857,-0.418701,0.065387,0.026165,0.039127,0.999953,-0.007837,0.005553,-0.001553,0.671799,-0.267082,-0.612498,-0.319688
57475,NaN,1.595310,0.574474,4.367398,-2.314522,3.495212,-7.720966,-1.269770,0.899606,-0.358841,-0.856689,0.333252,-0.420898,0.016160,0.005993,0.043564,0.999968,-0.006349,0.004498,-0.001794,0.672276,-0.268808,-0.607890,-0.325971
57476,NaN,-0.688156,-1.903828,2.052619,-2.806016,0.431557,-10.313989,-1.028212,0.399832,-0.452654,-0.856445,0.326660,-0.418701,-0.006883,-0.018917,0.020637,0.999982,-0.005141,0.001999,-0.002263,0.672041,-0.270509,-0.603971,-0.332274
57477,NaN,0.338091,-3.084169,-2.349302,-0.899444,-3.785674,-9.884896,-0.786463,-0.468432,-0.395706,-0.860596,0.326660,-0.410156,0.003375,-0.030940,-0.023364,0.999988,-0.003932,-0.002342,-0.001979,0.668910,-0.272738,-0.604749,-0.335339
57478,NaN,4.578476,-3.368658,-4.170470,0.157420,-5.846680,-5.876511,0.060499,-2.014649,-0.161458,-0.866943,0.328857,-0.386963,0.046175,-0.033711,-0.041251,0.999949,0.000302,-0.010073,-0.000807,0.663284,-0.275725,-0.610346,-0.333927
57479,NaN,11.040206,-2.418660,-4.908875,1.464447,-6.319364,0.662971,1.391689,-3.605220,0.292083,-0.877441,0.328613,-0.365723,0.111300,-0.023691,-0.047254,0.999812,0.006958,-0.018025,0.001460,0.654578,-0.277975,-0.624091,-0.323678
57480,NaN,17.330677,-5.910904,-5.960001,-0.595316,-9.467980,6.944201,3.102048,-3.345070,0.375505,-0.887695,0.322266,-0.346680,0.174391,-0.057879,-0.057593,0.999738,0.015509,-0.016724,0.001877,0.649168,-0.275519,-0.637786,-0.309675
57481,NaN,15.605903,-5.383097,-9.422421,2.148777,-11.154248,5.426500,4.429010,-3.270232,0.541631,-0.889404,0.311523,-0.329590,0.157726,-0.051339,-0.092809,0.999617,0.022142,-0.016349,0.002708,0.645446,-0.267836,-0.654250,-0.289172
57482,NaN,14.930911,-3.220547,-8.375916,3.118931,-8.283291,5.189316,5.455537,-4.480076,0.669286,-0.901855,0.298584,-0.304199,0.151249,-0.029463,-0.081214,0.999372,0.027272,-0.022396,0.003346,0.639063,-0.259815,-0.674030,-0.264155
57483,NaN,19.324985,-1.978219,-2.164564,-0.882399,-2.377924,9.567234,5.671152,-3.878982,0.582848,-0.909912,0.290039,-0.295654,0.193684,-0.018665,-0.018431,0.999406,0.028350,-0.019391,0.002914,0.633763,-0.248638,-0.692737,-0.237988
57484,NaN,21.291256,2.323298,7.429837,-5.992883,7.461048,10.737053,5.666199,-1.920518,-0.214701,-0.917725,0.268555,-0.289062,0.212205,0.020850,0.076952,0.999552,0.028327,-0.009601,-0.001073,0.634145,-0.232900,-0.704556,-0.217298
57485,NaN,19.848007,6.176321,16.438160,-11.550231,15.601667,8.225244,5.225740,-1.214418,-0.858813,-0.919678,0.257812,-0.297363,0.197721,0.056570,0.167107,0.999631,0.026125,-0.006071,-0.004294,0.634800,-0.214550,-0.714807,-0.200119
57486,NaN,9.144856,-0.818126,-3.896100,1.885058,-2.381428,-0.312617,2.850202,0.735999,-0.305410,-0.917236,0.247070,-0.310059,0.091292,-0.007761,-0.039410,0.999891,0.014250,0.003680,-0.001527,0.640737,-0.204698,-0.714359,-0.192995
57487,NaN,2.789185,-3.073607,-15.838900,11.402084,-10.908210,-5.442702,1.358487,0.223803,-0.171076,-0.912842,0.242920,-0.310059,0.027689,-0.029683,-0.158624,0.999976,0.006792,0.001119,-0.000855,0.642761,-0.199523,-0.715094,-0.188914
57488,NaN,-2.118822,-6.357403,-15.685092,10.086403,-13.740218,-10.441339,1.243739,0.141094,-0.092049,-0.916992,0.236328,-0.314209,-0.021328,-0.062587,-0.157227,0.999980,0.006219,0.000705,-0.000460,0.644651,-0.196921,-0.714668,-0.186808
57489,NaN,0.543218,-4.056895,-12.385505,8.391899,-9.816969,-7.982393,1.506398,-1.792048,0.097309,-0.918701,0.229980,-0.299316,0.006563,-0.039632,-0.124100,0.999931,0.007532,-0.008960,0.000487,0.639793,-0.194083,-0.721690,-0.179333
57490,NaN,2.498044,-2.506802,-6.634364,4.141772,-5.339458,-6.515579,2.478679,-2.156344,0.074656,-0.927246,0.229980,-0.284424,0.025705,-0.024236,-0.066373,0.999865,0.012393,-0.010781,0.000373,0.634560,-0.189888,-0.729797,-0.169329
57491,NaN,3.112561,-2.907592,-2.452401,0.326759,-3.499120,-6.376881,3.456418,-2.592623,0.059415,-0.931152,0.219238,-0.267334,0.031453,-0.028642,-0.024615,0.999767,0.017281,-0.012962,0.000297,0.628300,-0.181300,-0.740706,-0.154027
57492,NaN,6.483733,0.487126,-0.748666,-0.139871,0.638604,-3.300766,3.939197,-3.081204,-0.054807,-0.941406,0.210449,-0.246094,0.064943,0.004987,-0.006389,0.999687,0.019694,-0.015404,-0.000274,0.620312,-0.173058,-0.752423,-0.138288
57493,NaN,10.498093,3.779094,-3.961286,3.189355,2.806045,1.238204,3.552964,-2.499116,-0.220230,-0.947266,0.199707,-0.227051,0.105501,0.038355,-0.037619,0.999764,0.017763,-0.012495,-0.001101,0.613703,-0.162908,-0.762627,-0.123409
57494,NaN,12.549093,4.134408,-8.150972,6.400595,2.010600,4.186591,3.104263,-2.182654,0.008711,-0.947266,0.201904,-0.220703,0.126364,0.042594,-0.079479,0.999820,0.015520,-0.010913,0.000044,0.607943,-0.156677,-0.770381,-0.111224
57495,NaN,13.356331,5.381032,-6.193904,4.653291,4.306030,4.522712,2.128954,-1.696530,0.308949,-0.947266,0.201660,-0.201660,0.133995,0.054664,-0.060225,0.999906,0.010644,-0.008482,0.001545,0.603207,-0.152336,-0.776393,-0.100743
57496,NaN,12.479810,5.606804,-5.952742,4.564693,4.683591,3.597807,0.655799,-1.032694,0.502359,-0.951660,0.203857,-0.197510,0.124961,0.056575,-0.058698,0.999978,0.003279,-0.005163,0.002512,0.599891,-0.155632,-0.778640,-0.098129
57497,NaN,10.782833,3.819223,-5.008286,3.377575,3.239855,1.764601,-0.282968,-0.739554,0.593455,-0.945312,0.212402,-0.197510,0.107899,0.038442,-0.049738,0.999988,-0.001415,-0.003698,0.002967,0.597091,-0.159164,-0.780234,-0.096872
57498,NaN,8.915179,0.054573,-2.728011,0.361102,0.327478,-0.502081,-0.636585,-0.568370,0.704371,-0.943359,0.218750,-0.184814,0.089226,0.000774,-0.027029,0.999985,-0.003183,-0.002842,0.003522,0.594653,-0.166251,-0.780396,-0.098648
57499,NaN,9.510231,-0.798438,-0.999543,-1.685679,0.307284,-0.371061,-0.778414,-0.700154,0.804587,-0.949951,0.223145,-0.176514,0.095168,-0.007640,-0.009632,0.999978,-0.003892,-0.003501,0.004023,0.591674,-0.172058,-0.781393,-0.098708
57500,NaN,7.922796,1.347339,-0.528473,-0.901766,2.296330,-2.145978,-1.422465,-0.655675,1.014727,-0.946045,0.236084,-0.172363,0.079175,0.013838,-0.005123,0.999956,-0.007112,-0.003278,0.005074,0.588390,-0.182124,-0.781159,-0.102074
57501,NaN,8.553854,2.729199,-3.489527,2.128432,2.597062,-0.783914,-2.106874,-0.528520,1.036900,-0.942139,0.250977,-0.168213,0.085489,0.027367,-0.034957,0.999928,-0.010534,-0.002643,0.005184,0.584910,-0.192641,-0.780623,-0.106763
57502,NaN,7.630344,1.530153,-2.864311,1.312183,1.613277,-1.785036,-1.152552,-0.487532,0.892253,-0.944580,0.259521,-0.157715,0.076304,0.015477,-0.028546,0.999970,-0.005763,-0.002438,0.004461,0.582467,-0.200518,-0.780156,-0.108998
57503,NaN,7.396601,0.228427,-1.546024,-0.346202,0.977646,-2.324279,-0.717351,-0.316679,0.674864,-0.940430,0.265869,-0.151367,0.073982,0.002479,-0.015352,0.999987,-0.003587,-0.001583,0.003374,0.580889,-0.205421,-0.779985,-0.109512
57504,NaN,8.739618,-1.275627,-2.080401,-0.893331,-0.286921,-0.787406,-0.607515,-0.332782,0.364680,-0.944824,0.268066,-0.149414,0.087454,-0.012660,-0.020620,0.999992,-0.003038,-0.001664,0.001823,0.579302,-0.209254,-0.779923,-0.111093
57505,NaN,7.070277,-2.868466,0.120248,-3.116603,-1.090787,-2.933129,-0.035120,-0.135594,0.167675,-0.942627,0.270264,-0.149414,0.070726,-0.028625,0.001255,0.999999,-0.000176,-0.000678,0.000838,0.578846,-0.210097,-0.780105,-0.110602
57506,NaN,9.332860,-1.364356,-2.543357,-0.690413,-0.410807,-0.076827,0.444228,0.011612,-0.132837,-0.942627,0.263672,-0.153564,0.093318,-0.013649,-0.025469,0.999997,0.002221,0.000058,-0.000664,0.579531,-0.208168,-0.780283,-0.109404
57507,NaN,10.128747,-1.028063,-2.505633,-0.737965,0.053254,0.645756,1.467334,0.279176,-0.280228,-0.944580,0.263672,-0.157715,0.101238,-0.010238,-0.025273,0.999971,0.007337,0.001396,-0.001401,0.581994,-0.202676,-0.780530,-0.104779
57508,NaN,10.960119,-0.564634,-0.290096,-2.626358,1.491521,0.742158,2.662800,-0.032963,-0.235836,-0.946533,0.255127,-0.164062,0.109595,-0.005736,-0.002959,0.999911,0.013314,-0.000165,-0.001179,0.584673,-0.193567,-0.782100,-0.094917
57509,NaN,10.444953,-0.529329,0.588811,-3.250259,1.726407,-0.005591,2.748058,0.127735,-0.103352,-0.942139,0.250977,-0.174561,0.104450,-0.005427,0.005747,0.999905,0.013740,0.000639,-0.000517,0.587745,-0.185063,-0.783041,-0.084587
57510,NaN,9.124722,-1.316477,-0.828866,-1.942674,0.231573,-0.765430,2.211888,0.193258,-0.084998,-0.939941,0.248779,-0.176758,0.091233,-0.013110,-0.008522,0.999938,0.011059,0.000966,-0.000425,0.590762,-0.178004,-0.783239,-0.076488
57511,NaN,7.517847,-0.654967,-1.900513,-0.323294,0.194527,-2.039879,1.857850,-0.124617,-0.148157,-0.944092,0.242432,-0.178711,0.075186,-0.006429,-0.019018,0.999956,0.009289,-0.000623,-0.000741,0.591862,-0.171988,-0.784400,-0.069535
57512,NaN,6.081653,0.285701,-4.006561,2.261641,0.180724,-2.886464,1.784603,-0.448863,-0.200024,-0.944092,0.242432,-0.178711,0.060909,0.003153,-0.039902,0.999957,0.008923,-0.002244,-0.001000,0.591779,-0.166626,-0.786140,-0.063389
57513,NaN,6.210014,-0.513215,-4.873975,2.738609,-0.718150,-2.425755,1.881548,-0.685880,-0.085735,-0.947998,0.233887,-0.170166,0.062265,-0.004701,-0.048572,0.999950,0.009408,-0.003429,-0.000429,0.590610,-0.160943,-0.788782,-0.055672
57514,NaN,7.939160,-1.076186,-3.273760,0.629747,-0.399032,-1.190080,1.133734,-1.103842,0.138488,-0.948242,0.238037,-0.161865,0.079578,-0.010523,-0.032359,0.999968,0.005669,-0.005519,0.000692,0.587364,-0.159330,-0.791857,-0.050789
57515,NaN,8.484903,-0.337711,-2.218969,-0.331128,0.756643,-1.074958,0.117384,-1.427014,0.349077,-0.950439,0.244385,-0.146973,0.085010,-0.003216,-0.021585,0.999973,0.000587,-0.007135,0.001745,0.581897,-0.160739,-0.795763,-0.048160
57516,NaN,8.990243,1.037940,-1.618549,-0.681954,2.382480,-0.959512,-0.240521,-1.461417,0.422041,-0.952393,0.242188,-0.136475,0.089995,0.010550,-0.015541,0.999970,-0.001203,-0.007307,0.002110,0.576105,-0.165018,-0.799102,-0.048055
57517,NaN,9.276795,1.811140,-0.974689,-1.200060,3.411576,-1.025826,0.110906,-1.220771,0.421839,-0.948242,0.246582,-0.125977,0.092787,0.018312,-0.009170,0.999979,0.000555,-0.006104,0.002109,0.571425,-0.166687,-0.802265,-0.045388
57518,NaN,9.369820,1.823604,-0.939893,-1.326942,3.516578,-0.988037,0.864762,-0.842213,0.356985,-0.950439,0.248779,-0.121582,0.093704,0.018443,-0.008925,0.999980,0.004324,-0.004211,0.001785,0.569049,-0.166351,-0.804265,-0.040837
57519,NaN,9.602828,1.117371,-2.109658,-0.631902,2.676409,-0.307421,1.261404,-0.774313,0.316534,-0.950439,0.248535,-0.115234,0.096091,0.011457,-0.020653,0.999971,0.006307,-0.003872,0.001583,0.567051,-0.164202,-0.806425,-0.034218
57520,NaN,10.169948,0.821456,-3.124723,-0.040144,2.363621,0.592928,1.337853,-0.895679,0.332080,-0.952637,0.255127,-0.113281,0.101824,0.008590,-0.030735,0.999966,0.006689,-0.004478,0.001660,0.564817,-0.162226,-0.808639,-0.027709
57521,NaN,10.637829,0.907153,-2.863777,-0.479868,2.712785,0.892287,1.170247,-0.989864,0.360668,-0.946289,0.257080,-0.100586,0.106501,0.009429,-0.028056,0.999969,0.005851,-0.004949,0.001803,0.561814,-0.160525,-0.811264,-0.021155
57522,NaN,11.107884,1.013421,-2.044780,-1.420973,3.189982,0.976034,0.839082,-1.026979,0.380033,-0.942139,0.261475,-0.100586,0.111162,0.010429,-0.019834,0.999976,0.004195,-0.005135,0.001900,0.558585,-0.160803,-0.813535,-0.016912
57523,NaN,11.711818,0.766564,-1.208497,-2.542379,3.357490,1.208963,0.466396,-1.051368,0.388125,-0.950439,0.257080,-0.087891,0.117164,0.007920,-0.011451,0.999982,0.002332,-0.005257,0.001941,0.554724,-0.161179,-0.816169,-0.013085
57524,NaN,12.459819,0.207043,-0.330987,-3.831752,3.265534,1.591330,0.187079,-1.110541,0.434344,-0.952881,0.263428,-0.075195,0.124609,0.002344,-0.002616,0.999982,0.000935,-0.005553,0.002172,0.550641,-0.163079,-0.818583,-0.011030
57525,NaN,12.528185,-0.082139,0.627040,-4.906509,3.279888,1.256269,0.029533,-1.163082,0.466966,-0.950928,0.271973,-0.064697,0.125244,-0.000530,0.006999,0.999980,0.000148,-0.005815,0.002335,0.545937,-0.164984,-0.821375,-0.008676
57526,NaN,12.295130,0.746332,1.100978,-5.108762,4.165777,0.650803,0.004267,-1.031302,0.454263,-0.948730,0.274170,-0.058350,0.122875,0.007742,0.011644,0.999984,0.000021,-0.005156,0.002271,0.542072,-0.166885,-0.823564,-0.007026
57527,NaN,11.986191,1.642343,0.824666,-4.575671,4.942621,0.270912,0.000139,-0.748776,0.403270,-0.944580,0.280518,-0.052246,0.119796,0.016665,0.008695,0.999991,0.000001,-0.003744,0.002016,0.539016,-0.168584,-0.825235,-0.005308
57528,NaN,11.942023,2.474391,0.282407,-3.880883,5.660896,0.272288,-0.142121,-0.579215,0.385665,-0.942627,0.282715,-0.048096,0.119363,0.024976,0.003152,0.999994,-0.000711,-0.002896,0.001928,0.536942,-0.170589,-0.826177,-0.004890
57529,NaN,12.289130,3.007949,0.525363,-4.102331,6.359157,0.340048,-0.638669,-0.576615,0.379398,-0.944580,0.278320,-0.041504,0.122818,0.030330,0.005511,0.999989,-0.003193,-0.002883,0.001897,0.534038,-0.173897,-0.827362,-0.006019
57530,NaN,12.421944,3.455366,0.789536,-4.255814,6.907548,0.239238,-1.341867,-0.627961,0.252742,-0.948975,0.286865,-0.031006,0.124150,0.034764,0.008052,0.999972,-0.006709,-0.003140,0.001264,0.530757,-0.178554,-0.828430,-0.010950
57531,NaN,12.371141,3.729799,-0.414734,-3.087882,6.918812,0.662210,-2.202092,-0.409395,0.098966,-0.946777,0.286865,-0.026855,0.123702,0.037312,-0.004305,0.999937,-0.011010,-0.002047,0.000495,0.527086,-0.184833,-0.829240,-0.019445
57532,NaN,12.555989,4.277371,-1.650511,-1.866057,7.162557,1.317824,-1.929352,-0.338691,-0.073628,-0.942627,0.286865,-0.014160,0.125604,0.042567,-0.016704,0.999952,-0.009647,-0.001693,-0.000368,0.524412,-0.189645,-0.829604,-0.028008
57533,NaN,13.601070,4.124499,-0.185194,-3.586487,7.655883,1.613566,-1.264558,-0.715187,-0.086160,-0.942383,0.280518,-0.003662,0.136035,0.041176,-0.001626,0.999974,-0.006323,-0.003576,-0.000431,0.520240,-0.192711,-0.831346,-0.032803
57534,NaN,15.503779,2.929386,1.182454,-5.946197,7.437468,2.823486,-0.670403,-0.670166,-0.105076,-0.946533,0.276123,0.000732,0.155013,0.029253,0.012246,0.999989,-0.003352,-0.003351,-0.000525,0.517372,-0.194116,-0.832677,-0.035987
57535,NaN,16.609576,2.070189,2.645477,-7.962779,7.329279,3.227170,-0.480261,0.058064,-0.324066,-0.944336,0.278320,0.000732,0.166137,0.020496,0.026357,0.999996,-0.002401,0.000290,-0.001620,0.517107,-0.194010,-0.832735,-0.038884
57536,NaN,17.545978,1.791969,3.129659,-8.808530,7.359169,3.939307,0.190262,0.517154,-0.762993,-0.948486,0.267578,-0.009766,0.175607,0.017220,0.030859,0.999989,0.000951,0.002586,-0.003815,0.519967,-0.190239,-0.831701,-0.041430
57537,NaN,18.207999,0.899849,6.833268,-12.562729,7.519004,3.019769,1.404379,0.166524,-0.812388,-0.948242,0.263428,-0.018311,0.182170,0.007779,0.068239,0.999967,0.007022,0.000833,-0.004062,0.521830,-0.183181,-0.832289,-0.037862
57538,NaN,17.412289,-2.024160,9.837944,-15.741977,5.156387,1.573960,0.854543,2.050356,-0.242610,-0.948242,0.261230,-0.043457,0.175094,-0.020869,0.096499,0.999938,0.004273,0.010252,-0.001213,0.531872,-0.179570,-0.826704,-0.037783
57539,NaN,16.369320,-1.151385,5.973491,-11.383776,4.583693,2.610092,0.029132,3.816646,-0.085875,-0.946289,0.257080,-0.075195,0.164788,-0.011593,0.056595,0.999818,0.000146,0.019082,-0.000429,0.547581,-0.178395,-0.816470,-0.041313
57540,NaN,14.301984,0.919474,2.338175,-6.335256,4.914842,2.293029,0.729728,3.401734,-0.005963,-0.948486,0.259277,-0.113281,0.143391,0.009111,0.020978,0.999849,0.003648,0.017008,-0.000030,0.562978,-0.175717,-0.806462,-0.042415
57541,NaN,14.104555,1.291659,-1.136678,-2.603039,4.164360,3.519899,1.360590,3.857792,0.054534,-0.946777,0.268066,-0.153564,0.140789,0.013044,-0.013996,0.999791,0.006802,0.019288,0.000273,0.579643,-0.171264,-0.795657,-0.040159
57542,NaN,15.187231,4.789971,-4.044428,1.435635,6.766146,5.089769,1.706210,4.194866,-0.100501,-0.942627,0.257568,-0.193604,0.151009,0.048184,-0.043208,0.999744,0.008530,0.020973,-0.000502,0.598568,-0.165047,-0.782947,-0.038326
57543,NaN,14.970222,3.842812,-16.616162,13.462668,2.469545,8.286057,1.267874,4.030602,-0.194451,-0.931885,0.253418,-0.233887,0.146355,0.039350,-0.168886,0.999776,0.006339,0.020152,-0.000972,0.615242,-0.159694,-0.771094,-0.037264
57544,NaN,15.733029,-3.842564,-21.335493,16.449137,-5.781568,10.517595,3.902079,4.219900,-0.307989,-0.921143,0.240479,-0.276123,0.152717,-0.034449,-0.217308,0.999586,0.019508,0.021097,-0.001540,0.635109,-0.145492,-0.758094,-0.027606
57545,NaN,12.726032,-11.044997,-15.597122,10.824315,-11.440410,6.889640,6.741678,2.764396,-0.824570,-0.920410,0.214844,-0.305420,0.124613,-0.105589,-0.161320,0.999328,0.033701,0.013819,-0.004122,0.649969,-0.120496,-0.750318,-0.006669
57546,NaN,12.948377,-8.967762,-5.928741,2.916727,-7.415403,5.008282,8.696939,0.717977,-1.533163,-0.919189,0.172119,-0.320068,0.128582,-0.087962,-0.063601,0.999019,0.043470,0.003589,-0.007663,0.657765,-0.086100,-0.748029,0.019628
57547,NaN,10.922691,-7.593384,2.306547,-4.221096,-5.768661,1.640335,5.456962,-0.987716,-1.719951,-0.927002,0.146484,-0.304932,0.108456,-0.077470,0.021502,0.999579,0.027281,-0.004938,-0.008599,0.656334,-0.061603,-0.751146,0.034796
57548,NaN,11.722192,-1.883494,-2.379099,0.541471,-0.409860,2.276151,2.477800,-3.831595,-1.982529,-0.930420,0.124756,-0.275146,0.117460,-0.019720,-0.021783,0.999691,0.012388,-0.019156,-0.009912,0.643373,-0.045174,-0.763277,0.037935
57549,NaN,17.116609,10.722515,-5.472898,2.714374,12.399204,6.823369,-2.275729,-1.211017,-2.587346,-0.936279,0.107666,-0.281250,0.172861,0.104372,-0.054884,0.999833,-0.011378,-0.006055,-0.012936,0.638644,-0.042396,-0.768041,0.021195
57550,NaN,19.890407,10.534474,-6.061219,3.482120,11.639402,10.074045,-4.589567,4.908175,-3.553149,-0.918945,0.090820,-0.332031,0.199110,0.100306,-0.067838,0.999278,-0.022942,0.024535,-0.017761,0.656892,-0.043671,-0.752657,-0.009677
57551,NaN,13.956806,3.442670,7.332701,-8.303194,4.680950,3.203574,-6.402103,6.541265,-2.991365,-0.902100,0.088867,-0.382812,0.142358,0.034536,0.067596,0.998841,-0.031998,0.032694,-0.014951,0.679219,-0.053082,-0.730630,-0.044998
57552,NaN,11.067960,-0.022729,-6.246941,5.548487,-1.101900,1.565578,-6.560670,3.878688,-2.523143,-0.891602,0.086670,-0.404053,0.109409,-0.003708,-0.064516,0.999194,-0.032795,0.019388,-0.012612,0.690976,-0.064936,-0.715562,-0.079409
57553,NaN,10.934468,1.212088,-7.639361,7.464928,-0.892662,1.269679,-5.012780,3.351650,-2.084524,-0.874756,0.088867,-0.433594,0.108146,0.009040,-0.078465,0.999491,-0.025060,0.016755,-0.010421,0.700183,-0.073440,-0.702283,-0.105589
57554,NaN,7.984755,-1.167584,-6.415699,5.907991,-3.336891,-2.052661,-4.113073,3.470370,-1.867844,-0.862305,0.088867,-0.454834,0.078599,-0.013748,-0.065260,0.999594,-0.020563,0.017350,-0.009338,0.709939,-0.079078,-0.687895,-0.128580
57555,NaN,7.086037,-1.924247,-4.251652,3.686908,-3.738950,-3.148850,-3.643744,3.376384,-1.736841,-0.847900,0.104004,-0.490967,0.069958,-0.020637,-0.043335,0.999654,-0.018217,0.016880,-0.008683,0.718771,-0.083846,-0.673992,-0.148566
57556,NaN,6.976511,-0.094083,-2.829478,3.033066,-1.843668,-3.173451,-4.001049,3.074262,-1.553296,-0.833008,0.097656,-0.507812,0.069306,-0.002060,-0.029329,0.999652,-0.020003,0.015370,-0.007766,0.726335,-0.090329,-0.659953,-0.169530
57557,NaN,6.404388,-1.581700,-4.725838,4.263793,-4.103876,-4.261223,-4.291467,3.118557,-1.412648,-0.818604,0.112793,-0.527100,0.063182,-0.017288,-0.047888,0.999623,-0.021455,0.015591,-0.007062,0.733238,-0.098579,-0.645355,-0.190164
57558,NaN,5.351690,-2.684606,-5.959779,4.778700,-5.713440,-5.828251,-4.067681,2.869369,-1.232762,-0.806396,0.125732,-0.544189,0.052488,-0.028387,-0.059789,0.999671,-0.020336,0.014345,-0.006163,0.739319,-0.106402,-0.630954,-0.209722
57559,NaN,5.874936,-0.320937,-5.059392,5.020757,-3.583295,-5.105327,-3.899825,2.329093,-1.038292,-0.793945,0.138672,-0.556885,0.058134,-0.004507,-0.051194,0.999729,-0.019497,0.011644,-0.005191,0.743324,-0.115074,-0.618610,-0.227045
57560,NaN,4.405964,-1.030046,-5.235398,4.582530,-4.234673,-6.822001,-4.156337,2.298631,-0.642650,-0.783936,0.157959,-0.569824,0.043420,-0.011532,-0.052624,0.999713,-0.020780,0.011492,-0.003213,0.747295,-0.125546,-0.605188,-0.243998
57561,NaN,3.583339,-1.814115,-5.163685,3.884026,-4.875531,-7.829327,-3.787860,1.912379,-0.518425,-0.778076,0.172852,-0.576416,0.035291,-0.019211,-0.051619,0.999772,-0.018938,0.009561,-0.002592,0.749923,-0.135770,-0.593581,-0.258543
57562,NaN,2.736461,-2.757049,-4.458861,2.514613,-5.227729,-8.665593,-3.283487,1.469423,-0.365211,-0.768066,0.187988,-0.580811,0.026987,-0.028349,-0.044327,0.999837,-0.016417,0.007347,-0.001826,0.751623,-0.144744,-0.583683,-0.270972
57563,NaN,2.174153,-2.422191,-3.814449,1.968007,-4.548683,-9.051856,-2.964463,1.155663,-0.213780,-0.766113,0.198730,-0.584961,0.021496,-0.024808,-0.037904,0.999873,-0.014822,0.005778,-0.001069,0.752487,-0.153677,-0.575374,-0.281232
57564,NaN,2.202762,-2.078817,-3.747719,2.017575,-4.302807,-9.017051,-2.883363,0.934042,-0.070852,-0.756104,0.218018,-0.591553,0.021846,-0.021334,-0.037275,0.999885,-0.014416,0.004670,-0.000354,0.752916,-0.162697,-0.567541,-0.290766
57565,NaN,1.815828,-2.650579,-3.789162,1.510899,-4.719859,-9.467118,-2.764304,0.628514,0.078997,-0.754639,0.237305,-0.591797,0.018050,-0.027019,-0.037577,0.999899,-0.013821,0.003142,0.000395,0.752511,-0.172397,-0.561005,-0.298799
57566,NaN,1.619903,-2.825645,-3.438294,0.989158,-4.624629,-9.560498,-2.578654,0.308633,0.202101,-0.750732,0.252197,-0.581299,0.016175,-0.028680,-0.034040,0.999915,-0.012893,0.001543,0.001010,0.751519,-0.181936,-0.555554,-0.305742
57567,NaN,1.334940,-3.097415,-3.147573,0.441700,-4.591504,-9.738994,-2.328857,0.073734,0.270920,-0.757324,0.258545,-0.577148,0.013380,-0.031320,-0.031117,0.999931,-0.011644,0.000369,0.001355,0.749989,-0.191312,-0.551402,-0.311243
57568,NaN,1.085410,-3.447254,-2.813469,-0.169582,-4.576620,-9.862226,-1.916328,-0.197470,0.300055,-0.753418,0.273682,-0.568848,0.010934,-0.034724,-0.027792,0.999952,-0.009581,-0.000987,0.001500,0.748157,-0.199420,-0.548660,-0.315382
57569,NaN,1.215048,-3.321727,-2.357433,-0.439303,-4.219782,-9.552271,-1.362467,-0.578208,0.316130,-0.760010,0.282227,-0.564453,0.012271,-0.033357,-0.023312,0.999971,-0.006812,-0.002891,0.001581,0.745710,-0.206287,-0.548313,-0.317357
57570,NaN,1.782549,-2.848134,-2.176688,-0.160871,-3.894765,-8.900538,-0.792172,-1.006439,0.300279,-0.760254,0.286377,-0.553955,0.017977,-0.028540,-0.021564,0.999978,-0.003961,-0.005032,0.001501,0.742698,-0.211509,-0.550316,-0.317515
57571,NaN,2.614545,-2.212452,-1.641813,0.054803,-3.270796,-7.882661,-0.310147,-1.420707,0.231694,-0.766602,0.288574,-0.543457,0.026287,-0.022119,-0.016197,0.999973,-0.001551,-0.007103,0.001158,0.738829,-0.215546,-0.554810,-0.316003
57572,NaN,3.527814,-1.960969,-0.907277,-0.130394,-2.778942,-6.750961,0.004433,-1.730135,0.127047,-0.774902,0.281982,-0.528564,0.035367,-0.019587,-0.008768,0.999962,0.000022,-0.008651,0.000635,0.734302,-0.218504,-0.560897,-0.313770
57573,NaN,4.222204,-1.900320,-0.038288,-0.607776,-2.255485,-5.814864,0.298082,-1.959174,-0.021332,-0.789551,0.277832,-0.517822,0.042221,-0.019008,0.000002,0.999951,0.001490,-0.009796,-0.000107,0.729084,-0.220411,-0.568523,-0.310864
57574,NaN,4.749715,-2.282213,0.560894,-1.270542,-2.175750,-5.150717,0.624408,-2.269968,-0.169126,-0.793701,0.275635,-0.500977,0.047411,-0.022881,0.006076,0.999930,0.003122,-0.011350,-0.000846,0.723095,-0.221097,-0.577773,-0.307292
57575,NaN,5.815857,-3.097718,1.336540,-2.326881,-2.368516,-3.966277,0.937203,-2.732339,-0.255255,-0.814697,0.271240,-0.479736,0.057930,-0.031116,0.014012,0.999895,0.004686,-0.013661,-0.001276,0.715792,-0.221144,-0.589283,-0.302462
57576,NaN,9.451175,-2.739631,3.599446,-3.420057,-1.099604,0.029707,1.000563,-3.157777,-0.262475,-0.824951,0.262451,-0.458496,0.093893,-0.027704,0.037342,0.999862,0.005003,-0.015788,-0.001312,0.707190,-0.221514,-0.602155,-0.297022
57577,NaN,15.012476,-2.021051,9.759371,-7.160126,2.931974,6.460345,0.641629,-3.296865,-0.211540,-0.845947,0.260254,-0.430908,0.148468,-0.020686,0.099984,0.999858,0.003208,-0.016484,-0.001058,0.697584,-0.223471,-0.614886,-0.292153
57578,NaN,22.702971,0.343392,14.673597,-9.012696,7.321061,14.600062,-0.015892,-2.816248,0.008163,-0.852051,0.256104,-0.413818,0.224933,0.003455,0.149913,0.999901,-0.000079,-0.014081,0.000041,0.688975,-0.227671,-0.624409,-0.289125
57579,NaN,31.035593,3.983719,19.327414,-9.704646,12.571991,23.359310,-0.962379,-0.738016,0.224420,-0.848145,0.268799,-0.409668,0.309595,0.041118,0.194222,0.999981,-0.004812,-0.003690,0.001122,0.685910,-0.232748,-0.625264,-0.290519
57580,NaN,32.820315,6.638771,18.840494,-6.980301,14.075469,25.248784,-2.464682,1.402032,0.175000,-0.842285,0.281738,-0.414062,0.329450,0.068972,0.185259,0.999899,-0.012323,0.007010,0.000875,0.687811,-0.239712,-0.616269,-0.299444
57581,NaN,25.547003,7.018002,9.762804,-0.020664,8.636415,17.068160,-2.953967,1.830723,-0.166804,-0.840332,0.288086,-0.428955,0.256402,0.071375,0.094235,0.999849,-0.014769,0.009153,-0.000834,0.689581,-0.246577,-0.605628,-0.311277
57582,NaN,16.811186,5.434454,4.913432,1.978252,4.929842,7.739071,-1.908924,1.359833,-0.191213,-0.831787,0.288086,-0.427002,0.168491,0.054642,0.047469,0.999931,-0.009544,0.006799,-0.000956,0.691244,-0.250391,-0.597751,-0.319656
57583,NaN,10.403808,3.052108,3.734182,0.688609,3.233541,1.167578,-1.193524,1.207112,-0.023240,-0.827881,0.294678,-0.435547,0.104264,0.030729,0.036530,0.999964,-0.005968,0.006035,-0.000116,0.693318,-0.252505,-0.591649,-0.324812
57584,NaN,5.706936,-2.180953,2.650284,-2.840202,-0.377222,-3.801000,-0.661755,1.015711,0.029849,-0.827881,0.294678,-0.441650,0.057206,-0.021714,0.026284,0.999982,-0.003309,0.005079,0.000149,0.695766,-0.253119,-0.586605,-0.328231
57585,NaN,4.319119,-6.177189,2.622048,-5.938290,-2.814602,-5.284742,-0.073943,0.343071,0.083978,-0.825928,0.296875,-0.443848,0.043262,-0.061744,0.026169,0.999998,-0.000370,0.001715,0.000420,0.696837,-0.253055,-0.585153,-0.328599
57586,NaN,6.988680,-6.628944,1.487958,-5.276728,-4.370815,-2.880833,0.355942,-0.816958,0.179483,-0.823730,0.294678,-0.433350,0.069885,-0.066253,0.015047,0.999990,0.001780,-0.004085,0.000897,0.695435,-0.253627,-0.587919,-0.326181
57587,NaN,12.133208,-7.192670,-3.300482,-2.120527,-8.996822,1.340837,0.046939,-1.137857,0.259824,-0.830078,0.296631,-0.422852,0.121611,-0.071761,-0.032330,0.999983,0.000235,-0.005689,0.001299,0.692585,-0.256075,-0.591582,-0.323701
57588,NaN,14.321636,-5.557604,-6.103302,1.094388,-10.167738,3.174284,0.778358,-1.566973,0.311076,-0.842773,0.298828,-0.405762,0.143776,-0.055118,-0.060123,0.999961,0.003892,-0.007835,0.001555,0.689663,-0.256883,-0.597408,-0.318560
57589,NaN,17.415487,-2.932610,-4.494825,2.184338,-7.399902,6.696752,2.367070,-2.226007,0.271108,-0.846680,0.285889,-0.399414,0.174682,-0.028570,-0.043347,0.999867,0.011835,-0.011130,0.001355,0.686418,-0.253038,-0.608396,-0.307664
57590,NaN,19.075388,-0.112409,-4.545881,4.299531,-5.337321,8.560033,3.401421,-2.147786,0.297742,-0.852783,0.279541,-0.390869,0.191228,-0.000090,-0.043414,0.999797,0.017006,-0.010738,0.001489,0.684713,-0.245643,-0.620126,-0.293719
57591,NaN,17.791508,1.282244,6.028020,-2.461899,3.391479,8.543442,3.917233,-0.934862,0.067715,-0.854492,0.264404,-0.396973,0.177626,0.011688,0.061347,0.999797,0.019585,-0.004674,0.000339,0.686611,-0.233763,-0.628840,-0.280145
57592,NaN,10.690261,1.047414,4.868175,-2.350109,2.972802,1.354791,3.542874,0.735910,-0.549051,-0.856201,0.247314,-0.413818,0.107108,0.009321,0.048460,0.999833,0.017713,0.003679,-0.002745,0.692384,-0.218922,-0.631461,-0.271907
57593,NaN,-0.067662,-5.633291,-12.763520,6.182287,-12.389547,-11.516365,3.611927,0.593610,-0.345502,-0.851318,0.228271,-0.422119,-0.001152,-0.054014,-0.128622,0.999831,0.018059,0.002968,-0.001727,0.697650,-0.204482,-0.634558,-0.262313
57594,NaN,-5.179126,-7.494183,-15.781217,7.578087,-14.933676,-16.992966,3.531646,-0.870994,0.353765,-0.859619,0.223877,-0.413574,-0.050970,-0.072228,-0.159327,0.999833,0.017657,-0.004355,0.001769,0.699024,-0.194531,-0.641457,-0.249112
57595,NaN,-3.582608,-3.669604,-14.509479,9.433337,-11.067247,-14.845193,3.072291,-2.239068,0.597695,-0.863525,0.217285,-0.398682,-0.034089,-0.034561,-0.146025,0.999815,0.015361,-0.011195,0.002988,0.695472,-0.188462,-0.652378,-0.234954
57596,NaN,-0.760716,-0.181916,-12.941691,10.600152,-7.293287,-11.399299,3.370314,-2.784329,0.359593,-0.880127,0.204346,-0.377441,-0.005804,0.000351,-0.129512,0.999759,0.016850,-0.013921,0.001798,0.689919,-0.181329,-0.665353,-0.220082
57597,NaN,3.953268,2.633443,-8.719824,8.813808,-2.553519,-6.021923,4.633923,-3.256074,-0.331411,-0.890137,0.182861,-0.362549,0.040984,0.028268,-0.085899,0.999598,0.023167,-0.016278,-0.001657,0.682674,-0.167753,-0.681686,-0.202779
57598,NaN,8.666025,6.089970,-5.929046,7.913177,2.057519,-0.842874,5.034378,-2.670604,-0.852145,-0.897949,0.161621,-0.345459,0.087690,0.061974,-0.056573,0.999585,0.025168,-0.013351,-0.004260,0.676685,-0.150438,-0.696276,-0.186187
57599,NaN,13.550542,7.605555,-4.371938,6.559610,4.352529,4.278279,5.199931,-2.420105,-0.699212,-0.907715,0.142090,-0.328369,0.136272,0.076654,-0.040085,0.999583,0.025996,-0.012099,-0.003496,0.671267,-0.132604,-0.709509,-0.168561
57600,NaN,17.434953,7.084671,-2.692064,3.975048,4.830648,8.138380,4.173864,-2.236581,-0.070526,-0.911621,0.129150,-0.313232,0.174650,0.071299,-0.023484,0.999720,0.020867,-0.011182,-0.000353,0.665859,-0.120241,-0.720375,-0.152425
57601,NaN,15.013821,5.676185,-3.695973,4.099469,3.571744,5.734346,2.762971,-2.023471,0.591247,-0.920166,0.131348,-0.296387,0.150327,0.057695,-0.034647,0.999849,0.013814,-0.010117,0.002956,0.660612,-0.114700,-0.728724,-0.139272
57602,NaN,12.529965,4.274524,-4.402076,4.217467,2.370345,3.272908,1.633639,-1.950552,0.964217,-0.917969,0.135498,-0.279541,0.125510,0.043701,-0.042443,0.999907,0.008168,-0.009752,0.004821,0.655036,-0.114134,-0.735709,-0.128973
57603,NaN,9.883445,1.783952,-2.805175,2.014776,0.820968,0.385141,1.296674,-1.655402,1.208508,-0.928711,0.141846,-0.264648,0.098951,0.018615,-0.027114,0.999926,0.006483,-0.008277,0.006042,0.650447,-0.115396,-0.741195,-0.119297
57604,NaN,9.114602,-0.905223,-2.093510,0.457288,-1.312294,-0.520548,0.563583,-1.576996,1.262821,-0.924805,0.156982,-0.254395,0.091362,-0.008418,-0.020240,0.999945,0.002818,-0.007885,0.006314,0.645608,-0.119097,-0.745941,-0.112152
57605,NaN,8.921299,-1.433970,-2.664945,0.751924,-1.841299,-0.604594,-0.147658,-1.523979,1.348930,-0.923096,0.167480,-0.237549,0.089507,-0.013756,-0.025958,0.999948,-0.000738,-0.007620,0.006745,0.640589,-0.125458,-0.749908,-0.107442
57606,NaN,9.376848,-0.850458,-2.530052,0.639057,-1.060411,-0.142460,-0.566132,-1.646707,1.436416,-0.929932,0.186768,-0.222900,0.094031,-0.007900,-0.024504,0.999936,-0.002831,-0.008233,0.007182,0.634748,-0.133464,-0.753983,-0.103883
57607,NaN,9.049151,-0.192309,-3.644190,1.831996,-0.677760,-0.253076,-1.347710,-1.527891,1.448860,-0.932373,0.197510,-0.212402,0.090778,-0.001509,-0.035738,0.999922,-0.006738,-0.007639,0.007244,0.628822,-0.143992,-0.757080,-0.103344
57608,NaN,8.442049,0.251874,-4.152049,2.448928,-0.376573,-0.733565,-1.710299,-1.447343,1.399418,-0.932617,0.212402,-0.189209,0.084699,0.002759,-0.040931,0.999913,-0.008551,-0.007237,0.006997,0.622728,-0.155329,-0.759737,-0.104321
57609,NaN,7.518560,0.438795,-2.672338,1.236731,0.322388,-1.924242,-1.164734,-1.586993,1.415597,-0.930908,0.227295,-0.176514,0.075362,0.004768,-0.026153,0.999927,-0.005824,-0.007935,0.007078,0.616518,-0.165154,-0.762889,-0.103106
57610,NaN,8.203042,1.248874,-0.961274,-0.206674,1.893040,-1.679687,-0.885191,-1.406077,1.231064,-0.931396,0.244629,-0.164062,0.082017,0.012953,-0.009093,0.999947,-0.004426,-0.007030,0.006155,0.610960,-0.173206,-0.765788,-0.101473
57611,NaN,8.255289,0.909663,0.141234,-1.389338,2.110389,-1.899916,-0.942789,-1.125832,1.068372,-0.927246,0.250977,-0.157715,0.082493,0.009545,0.001833,0.999959,-0.004714,-0.005629,0.005342,0.606379,-0.180746,-0.767766,-0.100848
57612,NaN,8.597393,1.437441,-1.886335,0.541765,1.969083,-1.131177,-1.583766,-0.624336,0.857358,-0.925293,0.255127,-0.143066,0.085970,0.014594,-0.018710,0.999955,-0.007919,-0.003122,0.004287,0.602905,-0.189047,-0.768119,-0.103731
57613,NaN,8.673767,-0.240086,-2.611073,0.462711,0.207838,-0.765463,-1.639245,-0.089746,0.497755,-0.929688,0.265869,-0.138916,0.086755,-0.002399,-0.026052,0.999963,-0.008196,-0.000449,0.002489,0.601276,-0.195945,-0.767015,-0.108447
57614,NaN,8.919951,-1.147173,-1.897299,-0.605418,-0.283937,-0.645677,-0.583772,0.277274,0.061769,-0.927490,0.257324,-0.147217,0.089177,-0.011500,-0.019063,0.999995,-0.002919,0.001386,0.000309,0.601747,-0.197672,-0.765873,-0.110750
57615,NaN,9.170589,-1.640089,-1.376405,-1.305497,-0.490238,-0.499293,0.991548,0.202231,-0.254658,-0.931641,0.259521,-0.149414,0.091671,-0.016449,-0.013938,0.999986,0.004958,0.001011,-0.001273,0.603381,-0.193603,-0.766029,-0.107928
57616,NaN,9.387488,-1.299202,-0.925202,-1.581274,0.010305,-0.422892,2.301106,-0.092388,-0.359312,-0.927246,0.250977,-0.151367,0.093856,-0.013053,-0.009359,0.999932,0.011505,-0.000462,-0.001797,0.604978,-0.185220,-0.767906,-0.100079
57617,NaN,9.052206,-0.228046,-1.512334,-0.548257,0.710216,-0.676136,3.141058,-0.168134,-0.309453,-0.931396,0.242432,-0.157715,0.090531,-0.002183,-0.015082,0.999875,0.015705,-0.000841,-0.001547,0.607040,-0.174597,-0.770152,-0.088797
57618,NaN,8.159650,-0.821394,-3.168151,0.921787,-0.508768,-1.084423,3.311359,-0.274147,-0.224630,-0.931152,0.238037,-0.161865,0.081631,-0.007781,-0.031701,0.999861,0.016556,-0.001371,-0.001123,0.608653,-0.163698,-0.772592,-0.076459
57619,NaN,7.950309,-0.937831,-1.130468,-0.924253,0.048711,-1.780986,2.682823,-0.441157,-0.079221,-0.931152,0.233887,-0.163818,0.079524,-0.009259,-0.011254,0.999908,0.013414,-0.002206,-0.000396,0.609088,-0.155387,-0.774929,-0.065977
57620,NaN,7.463420,-0.994629,-2.563419,0.465988,-0.454236,-1.885575,1.873884,-0.860573,0.072710,-0.930908,0.231689,-0.153320,0.074747,-0.009680,-0.025404,0.999947,0.009369,-0.004303,0.000364,0.607162,-0.150166,-0.778115,-0.057803
57621,NaN,8.069319,-0.594625,-4.092419,1.831336,-0.315542,-0.937941,1.201132,-0.969232,0.185859,-0.935303,0.235840,-0.149170,0.080896,-0.005627,-0.040567,0.999970,0.006006,-0.004846,0.000929,0.604358,-0.147525,-0.781217,-0.051844
57622,NaN,8.656666,-0.142080,-3.565583,1.264564,0.434758,-0.545436,0.534367,-1.251590,0.358287,-0.933105,0.233643,-0.138672,0.086790,-0.001171,-0.035117,0.999975,0.002672,-0.006258,0.001791,0.599890,-0.147564,-0.784907,-0.047725
57623,NaN,9.539411,0.474918,-1.878023,-0.438281,1.683221,-0.235329,-0.050066,-1.429808,0.483599,-0.935303,0.242188,-0.115234,0.095513,0.004975,-0.018099,0.999971,-0.000250,-0.007149,0.002418,0.594370,-0.149956,-0.788781,-0.045423
57624,NaN,9.726896,1.206539,-0.520399,-1.646095,2.833722,-0.560791,-0.192417,-1.473587,0.519765,-0.935303,0.246582,-0.104736,0.097272,0.012314,-0.004499,0.999969,-0.000962,-0.007368,0.002599,0.588460,-0.152824,-0.792758,-0.043514
57625,NaN,9.561187,1.632363,0.172371,-2.220053,3.456501,-1.024449,0.049996,-1.270458,0.495231,-0.931152,0.248535,-0.094238,0.095558,0.016560,0.002335,0.999977,0.000250,-0.006352,0.002476,0.583586,-0.154920,-0.796087,-0.040895
57626,NaN,9.570119,1.952130,-0.640136,-1.473284,3.630726,-0.843073,0.472850,-0.981099,0.437636,-0.937744,0.257080,-0.085938,0.095688,0.019745,-0.005885,0.999983,0.002364,-0.004905,0.002188,0.580098,-0.155383,-0.798733,-0.036984
57627,NaN,9.766324,1.735467,-2.401989,-0.053071,3.116876,-0.094469,0.782326,-0.792929,0.406573,-0.933594,0.259277,-0.085938,0.097722,0.017646,-0.023564,0.999982,0.003912,-0.003965,0.002033,0.577634,-0.154889,-0.800824,-0.032073
57628,NaN,9.943763,1.435544,-3.047002,0.324634,2.806021,0.298839,0.914152,-0.905832,0.424233,-0.935547,0.259277,-0.075195,0.099543,0.014704,-0.029953,0.999977,0.004571,-0.004529,0.002121,0.574757,-0.153966,-0.803272,-0.026513
57629,NaN,10.071083,1.537765,-2.259921,-0.493651,3.195674,0.109060,0.897334,-1.068611,0.424587,-0.933594,0.261230,-0.064697,0.100796,0.015691,-0.021991,0.999973,0.004487,-0.005343,0.002123,0.571227,-0.153238,-0.806091,-0.020874
57630,NaN,10.450743,1.721641,-1.093424,-1.733699,3.781055,-0.010968,0.856706,-1.198637,0.412253,-0.935791,0.265625,-0.058350,0.104534,0.017477,-0.010233,0.999971,0.004283,-0.005993,0.002061,0.567063,-0.152425,-0.809302,-0.015376
57631,NaN,11.938330,1.380927,-0.213346,-3.210517,4.050709,1.038960,0.677119,-1.236445,0.421833,-0.931641,0.269775,-0.050049,0.119364,0.014066,-0.001348,0.999973,0.003386,-0.006182,0.002109,0.562623,-0.152311,-0.812494,-0.010506
57632,NaN,12.502018,0.824491,0.247689,-4.076296,3.811632,1.407608,0.454393,-1.079347,0.418369,-0.929443,0.271973,-0.035156,0.124987,0.008500,0.003171,0.999981,0.002272,-0.005397,0.002092,0.558610,-0.152626,-0.815239,-0.006740
57633,NaN,12.789821,0.972493,0.854450,-4.787679,4.199814,1.353940,0.356341,-0.942151,0.375522,-0.927490,0.278320,-0.035400,0.127837,0.009949,0.009164,0.999986,0.001782,-0.004711,0.001878,0.555077,-0.153199,-0.817562,-0.003529
57634,NaN,13.248005,1.692446,0.859953,-4.851405,5.051683,1.591563,0.321649,-0.724083,0.307779,-0.925293,0.278320,-0.029053,0.132421,0.017114,0.009106,0.999991,0.001608,-0.003620,0.001539,0.552418,-0.153428,-0.819325,-0.000922
57635,NaN,13.501703,2.453855,0.936365,-4.885613,5.900289,1.611448,0.362064,-0.560629,0.263930,-0.929443,0.274170,-0.026855,0.134957,0.024699,0.009787,0.999994,0.001810,-0.002803,0.001320,0.550428,-0.153519,-0.820645,0.001711
57636,NaN,13.825216,3.499458,1.619252,-5.407707,7.123189,1.413232,0.275467,-0.390905,0.223431,-0.929932,0.286865,-0.022705,0.138181,0.035126,0.016511,0.999997,0.001377,-0.001955,0.001117,0.549137,-0.153498,-0.821507,0.003595
57637,NaN,14.092267,4.412162,2.636656,-6.211810,8.248319,1.068019,0.285046,0.113419,0.146966,-0.923584,0.286865,-0.020508,0.140905,0.044188,0.026350,0.999999,0.001425,0.000567,0.000735,0.549849,-0.153329,-0.821055,0.005072
57638,NaN,13.351205,3.482402,0.839479,-4.551804,6.885503,1.275931,0.493190,0.089746,0.075981,-0.925781,0.286865,-0.029053,0.133503,0.034854,0.008421,0.999997,0.002466,0.000449,0.000380,0.550748,-0.152110,-0.820664,0.007025
57639,NaN,13.825236,2.536863,-2.127388,-2.274586,5.651647,3.031908,0.447252,-0.191956,-0.036108,-0.925537,0.282715,-0.018555,0.138277,0.025391,-0.021084,0.999997,0.002236,-0.000960,-0.000181,0.550331,-0.150731,-0.821180,0.008897
57640,NaN,13.988759,1.317342,-1.472392,-3.274516,4.630656,3.126498,0.109680,-0.669633,-0.058953,-0.925537,0.284668,-0.014160,0.139940,0.013140,-0.014248,0.999994,0.000548,-0.003348,-0.000295,0.547850,-0.149948,-0.822974,0.009429
57641,NaN,16.255271,0.341002,0.579372,-6.272785,4.611050,4.472772,-0.294038,-0.906079,0.108405,-0.929688,0.284668,0.000488,0.162522,0.003507,0.006525,0.999989,-0.001470,-0.004530,0.000542,0.543922,-0.151163,-0.825357,0.009186
57642,NaN,17.377792,0.247255,1.523818,-7.651024,4.977616,5.055235,-1.166968,-0.597953,0.007102,-0.927490,0.282471,0.006836,0.173731,0.002570,0.015743,0.999979,-0.005835,-0.002990,0.000036,0.540782,-0.154137,-0.826907,0.004543
57643,NaN,15.087425,0.137593,1.445027,-6.835048,4.222193,3.039984,-0.490106,-0.200852,-0.898344,-0.933350,0.265381,-0.001465,0.150864,0.000734,0.014599,0.999986,-0.002451,-0.001004,-0.004492,0.539619,-0.151749,-0.828120,0.000232
57644,NaN,19.921578,1.891751,7.300678,-13.424269,7.700181,4.823015,4.533499,1.806891,-1.445445,-0.939697,0.259033,-0.039307,0.199989,0.015840,0.071585,0.999676,0.022665,0.009033,-0.007226,0.550649,-0.133274,-0.823920,0.013387
57645,NaN,17.408541,7.398310,21.058574,-23.791128,13.736764,-3.000295,1.344805,4.516963,-0.436427,-0.931152,0.254883,-0.068848,0.178948,0.072196,0.207070,0.999720,0.006723,0.022583,-0.002182,0.570059,-0.128046,-0.811431,0.014701
57646,NaN,17.806126,3.305857,7.708562,-12.015737,8.182561,3.456246,-1.436776,1.603375,0.133231,-0.935791,0.261475,-0.077393,0.178648,0.033723,0.075414,0.999942,-0.007184,0.008017,0.000666,0.576045,-0.132601,-0.806553,0.007796
57647,NaN,17.328237,4.154697,-0.024565,-4.049102,7.858305,5.658261,-1.783110,3.086502,0.468435,-0.936035,0.263672,-0.111328,0.173149,0.041932,-0.003291,0.999838,-0.008915,0.015432,0.002342,0.587230,-0.139731,-0.797268,-0.000103
57648,NaN,15.353495,4.658343,-3.819047,0.836607,7.185224,5.007579,-2.265684,4.056449,0.820399,-0.927979,0.278809,-0.141113,0.152520,0.046750,-0.041820,0.999722,-0.011327,0.020280,0.004102,0.602131,-0.149418,-0.784227,-0.010032
57649,NaN,11.045086,2.793949,-21.905100,19.170337,0.429489,5.736038,-1.759416,5.753517,-0.337941,-0.925781,0.268066,-0.191650,0.104130,0.025813,-0.222341,0.999546,-0.008796,0.028763,-0.001689,0.623115,-0.153038,-0.766689,-0.022252
57650,NaN,12.072775,-0.390287,-25.770602,22.658019,-3.702496,7.002817,1.678682,4.867072,-0.462866,-0.919434,0.263916,-0.238281,0.114403,-0.001993,-0.260564,0.999666,0.008392,0.024333,-0.002314,0.643191,-0.145089,-0.751529,-0.021405
57651,NaN,12.642693,-6.198249,-21.713789,18.243539,-7.835808,6.779421,6.022465,3.210296,-0.710317,-0.910400,0.234131,-0.276123,0.122696,-0.055808,-0.220870,0.999412,0.030106,0.016048,-0.003551,0.659197,-0.122633,-0.741895,-0.003390
57652,NaN,12.087690,-10.420078,-10.547785,7.822549,-9.458741,4.853650,8.835807,2.327106,-1.082871,-0.913818,0.199951,-0.309570,0.119055,-0.100015,-0.111352,0.998942,0.044163,0.011631,-0.005412,0.672697,-0.088884,-0.734166,0.024034
57653,NaN,12.174901,-10.991048,4.772690,-6.368589,-8.703979,3.431520,6.346616,1.269513,-1.638533,-0.911133,0.180664,-0.320068,0.121120,-0.112328,0.043417,0.999443,0.031727,0.006346,-0.008191,0.680030,-0.061637,-0.729424,0.041230
57654,NaN,11.515642,-4.129216,5.233308,-6.155527,-2.450170,1.726137,1.684157,-0.934328,-1.944651,-0.916504,0.155029,-0.309326,0.114500,-0.042849,0.052513,0.999906,0.008421,-0.004671,-0.009723,0.677507,-0.048410,-0.732792,0.040695
57655,NaN,13.980749,1.206883,0.383324,-1.526872,2.817057,3.854360,-0.533945,-1.194225,-2.134779,-0.926758,0.137695,-0.302734,0.139900,0.010588,0.004639,0.999922,-0.002670,-0.005971,-0.010674,0.673416,-0.042158,-0.737376,0.031786
57656,NaN,13.529971,6.648129,-5.244748,4.193651,7.736191,3.502941,-3.193551,-0.608525,-2.335809,-0.922119,0.131348,-0.287842,0.136218,0.064050,-0.053070,0.999800,-0.015967,-0.003042,-0.011678,0.670864,-0.043985,-0.740179,0.011949
57657,NaN,17.590405,6.403423,-12.208198,11.106055,6.669956,8.393400,-6.856065,1.881768,-2.113279,-0.913818,0.131348,-0.321777,0.175366,0.057909,-0.125789,0.999312,-0.034272,0.009407,-0.010564,0.676016,-0.059246,-0.734203,-0.020936
57658,NaN,14.949616,5.842701,-5.732677,5.752475,5.509017,5.248849,-8.382083,5.349030,-2.510464,-0.901367,0.135742,-0.366211,0.148546,0.053978,-0.063634,0.998686,-0.041892,0.026733,-0.012547,0.692174,-0.077319,-0.714895,-0.061981
57659,NaN,8.234011,1.387224,-2.469977,2.620449,0.866791,-1.555536,-6.185214,4.166348,-2.296306,-0.896973,0.127441,-0.385254,0.081942,0.012122,-0.026803,0.999239,-0.030918,0.020826,-0.011479,0.703464,-0.089167,-0.698874,-0.093603
57660,NaN,7.831196,-1.018698,-4.154948,3.823978,-2.330158,-2.095272,-5.550388,2.836872,-2.302166,-0.882324,0.131592,-0.410645,0.077582,-0.012251,-0.042333,0.999448,-0.027747,0.014182,-0.011509,0.709615,-0.098766,-0.686793,-0.122508
57661,NaN,6.299258,-2.245094,-5.535991,4.694460,-4.294423,-3.907775,-5.633715,3.177447,-1.961796,-0.874023,0.133789,-0.431885,0.061875,-0.024627,-0.055676,0.999429,-0.028163,0.015884,-0.009807,0.716165,-0.110013,-0.672613,-0.150319
57662,NaN,6.892934,0.768029,-4.487572,4.848707,-1.557363,-3.309571,-4.677595,3.027982,-1.614078,-0.857422,0.142578,-0.446777,0.068291,0.006059,-0.046067,0.999579,-0.023385,0.015138,-0.008069,0.722422,-0.118514,-0.658732,-0.173588
57663,NaN,6.570863,0.043555,-3.628913,3.827783,-2.171222,-3.732163,-3.799449,2.846620,-1.398968,-0.844727,0.144775,-0.470215,0.065181,-0.000723,-0.037213,0.999694,-0.018995,0.014232,-0.006994,0.728138,-0.125120,-0.645746,-0.192800
57664,NaN,7.152234,2.063226,-5.352591,6.391275,-1.512672,-3.416676,-4.106497,2.745567,-1.335506,-0.838867,0.153320,-0.487061,0.070906,0.019039,-0.054904,0.999673,-0.020530,0.013726,-0.006677,0.733048,-0.132595,-0.632310,-0.212706
57665,NaN,5.440513,-0.669560,-7.056109,6.370532,-4.809741,-5.799776,-4.285594,2.715642,-1.102354,-0.828613,0.164062,-0.497803,0.053398,-0.008512,-0.071121,0.999663,-0.021426,0.013577,-0.005511,0.737399,-0.141879,-0.618282,-0.232035
57666,NaN,5.653732,0.405114,-6.245932,6.183991,-3.849637,-5.561999,-4.073262,2.071661,-0.931500,-0.813965,0.177002,-0.510742,0.055900,0.002509,-0.063102,0.999728,-0.020364,0.010357,-0.004657,0.739744,-0.151077,-0.606366,-0.249550
57667,NaN,5.624026,-0.210107,-6.000079,5.551153,-4.509677,-5.748983,-4.067500,1.805442,-0.762405,-0.806152,0.192139,-0.517090,0.055684,-0.003540,-0.060443,0.999745,-0.020336,0.009026,-0.003812,0.741031,-0.161511,-0.594998,-0.266015
57668,NaN,4.664932,-1.748480,-5.522685,3.996821,-5.511087,-6.818284,-3.890235,1.595249,-0.595301,-0.802246,0.204834,-0.527832,0.046154,-0.018697,-0.055240,0.999775,-0.019450,0.007976,-0.002976,0.741784,-0.171517,-0.584243,-0.281066
57669,NaN,3.906726,-1.745328,-5.211029,3.482365,-5.320004,-7.569930,-3.654015,1.339025,-0.521796,-0.794189,0.217773,-0.532227,0.038671,-0.018506,-0.052038,0.999807,-0.018269,0.006695,-0.002609,0.741710,-0.181621,-0.574440,-0.294784
57670,NaN,3.188867,-2.527572,-4.803013,2.398995,-5.613324,-8.276851,-3.321399,1.034143,-0.451277,-0.792480,0.234863,-0.528076,0.031583,-0.026142,-0.047765,0.999846,-0.016606,0.005170,-0.002256,0.741024,-0.190552,-0.566048,-0.306861
57671,NaN,3.304953,-2.663894,-4.896072,2.233479,-5.878281,-8.248948,-3.077054,0.747554,-0.379776,-0.786377,0.243408,-0.530273,0.032816,-0.027452,-0.048665,0.999873,-0.015385,0.003738,-0.001899,0.739554,-0.199696,-0.558810,-0.317667
57672,NaN,3.302230,-2.840149,-4.726145,1.839400,-5.955410,-8.245803,-2.881107,0.578912,-0.275972,-0.786865,0.260742,-0.528320,0.032846,-0.029125,-0.046941,0.999891,-0.014405,0.002894,-0.001380,0.737874,-0.208180,-0.552361,-0.327261
57673,NaN,2.902122,-3.304422,-4.358726,1.042628,-5.972501,-8.555521,-2.627080,0.421183,-0.176705,-0.778564,0.264893,-0.526367,0.028900,-0.033639,-0.043209,0.999911,-0.013135,0.002106,-0.000884,0.735971,-0.216665,-0.546607,-0.335596
57674,NaN,2.451585,-3.528598,-3.825003,0.320727,-5.659226,-8.832380,-2.329117,0.230997,-0.108398,-0.778809,0.275635,-0.520020,0.024453,-0.035742,-0.037864,0.999931,-0.011645,0.001155,-0.000542,0.733973,-0.224080,-0.541988,-0.342521
57675,NaN,2.016995,-3.407980,-3.242859,-0.145372,-5.058510,-9.045631,-1.925860,-0.047768,-0.050350,-0.776855,0.284180,-0.518066,0.020169,-0.034395,-0.032094,0.999954,-0.009629,-0.000239,-0.000252,0.731587,-0.231069,-0.538860,-0.347875
57676,NaN,1.803709,-2.919332,-2.638972,-0.263587,-4.248150,-9.023100,-1.457060,-0.396871,-0.017706,-0.777100,0.290527,-0.509521,0.018087,-0.029386,-0.026140,0.999971,-0.007285,-0.001984,-0.000089,0.728905,-0.236606,-0.537844,-0.351339
57677,NaN,2.161596,-2.429286,-1.744576,-0.426264,-3.367845,-8.365899,-1.005519,-0.828051,-0.036602,-0.783447,0.292725,-0.499023,0.021683,-0.024384,-0.017234,0.999979,-0.005028,-0.004140,-0.000183,0.725430,-0.241608,-0.539092,-0.353210
57678,NaN,2.739845,-2.116932,-0.980391,-0.589289,-2.736662,-7.551597,-0.564349,-1.311787,-0.114493,-0.789795,0.290527,-0.494629,0.027450,-0.021212,-0.009564,0.999974,-0.002822,-0.006559,-0.000572,0.721088,-0.245291,-0.543042,-0.353512
57679,NaN,3.829550,-2.186369,-0.467276,-0.824097,-2.630865,-6.339507,-0.127499,-1.794793,-0.255735,-0.798096,0.286133,-0.479980,0.038307,-0.021915,-0.004315,0.999959,-0.000637,-0.008974,-0.001279,0.715598,-0.248203,-0.549544,-0.352585
57680,NaN,4.762168,-2.257750,0.253205,-1.246703,-2.304749,-5.233079,0.410119,-2.242430,-0.391988,-0.810791,0.283936,-0.460693,0.047545,-0.022677,0.003019,0.999933,0.002051,-0.011212,-0.001960,0.709301,-0.249243,-0.558814,-0.349995
57681,NaN,6.207466,-2.537523,0.418767,-1.475001,-2.595933,-3.793497,0.838703,-2.666167,-0.481022,-0.825195,0.270996,-0.443604,0.061951,-0.025544,0.004907,0.999899,0.004193,-0.013330,-0.002405,0.702006,-0.249550,-0.570246,-0.346022
57682,NaN,8.447972,-3.316448,1.849562,-2.880259,-2.368537,-1.334613,1.141703,-2.914044,-0.478835,-0.835449,0.264648,-0.424561,0.084120,-0.033476,0.019533,0.999875,0.005708,-0.014570,-0.002394,0.694224,-0.248985,-0.583049,-0.340754
57683,NaN,13.212888,-2.113563,6.344538,-4.691623,1.057647,4.192803,1.195626,-3.088107,-0.385511,-0.850098,0.262451,-0.401367,0.131088,-0.021776,0.065346,0.999861,0.005978,-0.015440,-0.001927,0.685981,-0.248922,-0.596170,-0.334737
57684,NaN,19.915017,-0.410297,12.061144,-7.107452,5.608512,11.640565,0.724856,-2.702595,-0.203978,-0.854004,0.249512,-0.382080,0.197492,-0.004749,0.123271,0.999902,0.003624,-0.013513,-0.001020,0.678437,-0.250184,-0.606888,-0.329878
57685,NaN,26.307825,1.630968,16.690705,-8.668269,9.797578,18.510352,-0.204309,-1.381011,0.031412,-0.864746,0.255859,-0.380127,0.261915,0.016523,0.168701,0.999976,-0.001022,-0.006905,0.000157,0.674050,-0.253229,-0.611149,-0.328677
57686,NaN,29.737568,4.666953,19.287449,-7.866085,13.439689,22.367951,-1.686267,0.474908,0.093570,-0.854248,0.258057,-0.375732,0.297810,0.048429,0.191764,0.999962,-0.008431,0.002375,0.000468,0.673559,-0.258261,-0.606604,-0.334142
57687,NaN,26.747137,7.720921,14.285611,-1.879691,11.890111,19.068785,-2.720501,1.766325,-0.285343,-0.850098,0.264404,-0.392822,0.268824,0.078738,0.139422,0.999867,-0.013602,0.008831,-0.001427,0.674861,-0.263556,-0.596366,-0.345613
57688,NaN,19.394345,6.741014,4.816140,3.360415,4.763285,10.455027,-1.975128,1.475632,-0.510103,-0.848145,0.268799,-0.401367,0.194460,0.067376,0.046062,0.999921,-0.009875,0.007378,-0.002550,0.675844,-0.265919,-0.588509,-0.355217
57689,NaN,12.892266,3.436478,2.326989,2.075908,1.644110,3.469572,-1.055237,1.338077,-0.405039,-0.839600,0.264648,-0.403320,0.129143,0.034222,0.022226,0.999962,-0.005276,0.006690,-0.002025,0.677656,-0.265890,-0.582596,-0.361478
57690,NaN,6.974479,0.596083,3.832999,-1.354965,2.052255,-2.220476,-0.950938,1.416121,-0.210455,-0.833496,0.270996,-0.418213,0.070020,0.006068,0.037806,0.999963,-0.004755,0.007081,-0.001052,0.680234,-0.265678,-0.576263,-0.366903
57691,NaN,1.755216,-2.840636,3.724386,-4.352650,0.920767,-7.526323,-1.085772,0.977474,-0.198565,-0.827148,0.273193,-0.418457,0.017706,-0.028221,0.037311,0.999973,-0.005429,0.004887,-0.000993,0.681248,-0.266981,-0.571161,-0.372018
57692,NaN,1.335276,-4.357285,1.775675,-4.479216,-1.378501,-8.413370,-0.946587,-0.136928,-0.255485,-0.835693,0.273193,-0.409912,0.013285,-0.043505,0.017972,0.999988,-0.004733,-0.000685,-0.001277,0.679243,-0.269489,-0.570101,-0.375484
57693,NaN,6.311061,-3.131366,-1.654317,-1.212402,-4.356821,-4.162978,-0.197474,-1.302557,-0.095703,-0.835449,0.270996,-0.403564,0.063201,-0.031360,-0.016101,0.999978,-0.000987,-0.006513,-0.000479,0.675092,-0.272309,-0.574238,-0.374632
57694,NaN,11.610335,-3.300341,-5.331238,1.018788,-8.287350,0.404487,1.146907,-2.130144,0.214698,-0.845947,0.268799,-0.386475,0.116699,-0.032577,-0.052259,0.999926,0.005734,-0.010650,0.001073,0.671017,-0.272835,-0.583130,-0.367772
57695,NaN,17.726871,-5.522416,-6.887706,0.426400,-11.592616,6.236882,2.896404,-2.767866,0.527811,-0.849854,0.260254,-0.373779,0.178350,-0.053773,-0.067199,0.999796,0.014481,-0.013838,0.002639,0.667755,-0.269673,-0.596870,-0.353731
57696,NaN,18.075383,-3.761702,-7.745720,2.418728,-10.800409,6.870706,3.609854,-2.959661,0.619612,-0.860352,0.253662,-0.356689,0.181993,-0.035681,-0.075426,0.999723,0.018048,-0.014797,0.003098,0.664789,-0.264517,-0.612050,-0.336869
57697,NaN,20.334497,-2.947278,-1.611221,-0.815631,-5.439924,10.049431,4.357328,-2.338666,0.454277,-0.862061,0.242920,-0.352539,0.203586,-0.028685,-0.014363,0.999692,0.021784,-0.011692,0.002271,0.663980,-0.255266,-0.626340,-0.318854
57698,NaN,20.062098,1.293839,10.390335,-6.009683,6.401091,11.044097,4.539741,-1.073455,0.044124,-0.865723,0.225830,-0.356445,0.200056,0.010604,0.105237,0.999728,0.022697,-0.005367,0.000221,0.666360,-0.241925,-0.636849,-0.303084
57699,NaN,14.313755,0.652558,7.689212,-4.921636,4.339907,5.065553,3.611257,1.403037,-0.532778,-0.858887,0.206543,-0.379639,0.143687,0.004766,0.075982,0.999809,0.018055,0.007015,-0.002664,0.674286,-0.226010,-0.638137,-0.295022
57700,NaN,0.509529,-5.004965,-11.545982,5.148810,-11.455003,-10.747287,3.132570,2.034821,-0.208065,-0.848145,0.200195,-0.392334,0.003864,-0.048237,-0.116268,0.999825,0.015662,0.010174,-0.001040,0.683981,-0.211687,-0.635912,-0.288053
57701,NaN,-5.949552,-8.003645,-15.974159,6.722440,-15.604942,-17.930746,2.816772,-0.131596,0.121187,-0.858398,0.187256,-0.394287,-0.059342,-0.077812,-0.160887,0.999900,0.014083,-0.000658,0.000606,0.686677,-0.202593,-0.640194,-0.278537
57702,NaN,-3.966298,-5.184907,-14.920225,8.182883,-12.884480,-15.490845,2.265034,-1.609010,0.191850,-0.858398,0.185303,-0.383789,-0.038409,-0.050190,-0.150089,0.999903,0.011325,-0.008045,0.000959,0.684054,-0.197667,-0.648566,-0.268998
57703,NaN,-0.524953,-3.395108,-12.150104,7.502155,-10.024075,-11.439834,2.656103,-2.169607,-0.005184,-0.862061,0.172363,-0.368896,-0.003929,-0.032333,-0.121985,0.999853,0.013280,-0.010848,-0.000026,0.679564,-0.191442,-0.659435,-0.258240
57704,NaN,3.719352,-4.071753,-8.052727,4.055597,-8.344657,-6.784875,3.639928,-2.624568,-0.236173,-0.878418,0.155029,-0.343262,0.038205,-0.039294,-0.080754,0.999748,0.018198,-0.013122,-0.001181,0.673899,-0.181694,-0.673126,-0.244438
57705,NaN,6.362852,0.105126,-4.619884,3.638742,-2.979150,-3.510601,4.046329,-3.235352,-0.130799,-0.886719,0.144287,-0.324219,0.064365,0.001930,-0.045128,0.999664,0.020229,-0.016175,-0.000654,0.666330,-0.171501,-0.688831,-0.228261
57706,NaN,11.344674,5.631096,-6.511239,7.722341,0.658209,2.133175,3.924782,-3.084694,-0.107140,-0.896729,0.131348,-0.296387,0.114452,0.057490,-0.062232,0.999688,0.019622,-0.015422,-0.000536,0.658699,-0.161603,-0.703504,-0.212326
57707,NaN,15.748014,8.013770,-8.106504,9.525806,2.232546,6.984715,4.173996,-2.501079,0.117869,-0.898682,0.124756,-0.283691,0.158415,0.081872,-0.077391,0.999704,0.020868,-0.012504,0.000589,0.653236,-0.150868,-0.715836,-0.195193
57708,NaN,15.406675,7.608533,-5.502628,6.656738,3.702799,6.542143,3.181826,-1.998221,0.505898,-0.900879,0.129150,-0.269043,0.154404,0.077322,-0.052261,0.999820,0.015908,-0.009991,0.002529,0.648785,-0.144222,-0.725044,-0.180525
57709,NaN,13.264872,7.561855,-4.623241,5.767055,4.541479,4.350956,2.284858,-1.996959,0.869200,-0.909180,0.124756,-0.251953,0.132764,0.076707,-0.044035,0.999875,0.011424,-0.009984,0.004346,0.643929,-0.141736,-0.732836,-0.167979
57710,NaN,11.922549,5.613442,-5.743609,5.864940,2.685395,3.033493,2.155151,-1.734062,0.932292,-0.913330,0.126953,-0.241455,0.119449,0.057298,-0.055788,0.999893,0.010775,-0.008670,0.004661,0.639718,-0.139597,-0.739607,-0.155740
57711,NaN,11.253578,1.048691,-3.696341,2.119216,-0.374398,1.882210,1.074096,-1.217070,0.983090,-0.913574,0.135498,-0.228760,0.112704,0.011236,-0.036219,0.999955,0.005370,-0.006085,0.004915,0.636737,-0.140730,-0.743586,-0.147786
57712,NaN,9.316778,-0.512681,-2.403542,0.546847,-1.173016,-0.264610,-0.709291,-0.985368,1.080377,-0.913818,0.148193,-0.220459,0.093311,-0.004707,-0.023559,0.999967,-0.003546,-0.004927,0.005402,0.633235,-0.147638,-0.745551,-0.146187
57713,NaN,8.311011,-0.080754,-3.028662,1.386871,-0.966630,-1.129740,-1.393297,-0.932783,1.195862,-0.911865,0.156738,-0.209961,0.083254,-0.000519,-0.029894,0.999947,-0.006966,-0.004664,0.005979,0.629603,-0.157172,-0.746534,-0.146917
57714,NaN,7.729281,-1.499838,-4.146244,1.807962,-2.664712,-1.517401,-1.233218,-1.168055,1.114172,-0.916748,0.173828,-0.199463,0.077616,-0.014820,-0.040918,0.999948,-0.006166,-0.005840,0.005571,0.624937,-0.165977,-0.748531,-0.146991
57715,NaN,8.289289,-0.098500,-4.727202,2.751214,-1.544697,-0.806451,-1.427946,-1.062084,1.006288,-0.910400,0.178223,-0.188965,0.083147,-0.000902,-0.046824,0.999948,-0.007140,-0.005310,0.005031,0.620516,-0.174968,-0.749898,-0.148321
57716,NaN,8.827446,0.410070,-2.489644,0.838041,0.022302,-0.670155,-0.813653,-1.368614,0.963159,-0.912842,0.188965,-0.182617,0.088421,0.004427,-0.024309,0.999957,-0.004068,-0.006843,0.004816,0.615223,-0.182027,-0.752818,-0.147079
57717,NaN,8.742392,0.193080,-2.184887,0.433732,0.047212,-0.809933,-1.025521,-0.691889,0.792834,-0.908691,0.195312,-0.170166,0.087491,0.002167,-0.021557,0.999973,-0.005128,-0.003459,0.003964,0.612284,-0.188661,-0.753422,-0.147886
57718,NaN,7.278167,0.053163,-1.845303,0.308969,-0.011864,-2.310432,-0.512407,-0.537638,0.647862,-0.913086,0.201660,-0.163818,0.072829,0.000721,-0.018259,0.999988,-0.002562,-0.002688,0.003239,0.610108,-0.192978,-0.754223,-0.147227
57719,NaN,8.846084,-0.021804,-1.694414,-0.160001,0.224397,-0.810002,-0.143727,-0.565253,0.567087,-0.908936,0.203857,-0.163818,0.088508,0.000021,-0.016694,0.999992,-0.000719,-0.002826,0.002835,0.608282,-0.195961,-0.755261,-0.145513
57720,NaN,9.576142,0.068627,-0.261028,-1.525111,1.126257,-0.422264,-0.040926,-0.897097,0.590801,-0.915527,0.212402,-0.153320,0.095769,0.000969,-0.002181,0.999986,-0.000205,-0.004485,0.002954,0.605136,-0.198881,-0.757520,-0.142898
57721,NaN,9.600636,-0.002381,-0.854660,-1.096062,0.871398,-0.276362,-0.459587,-0.687534,0.427672,-0.911377,0.214355,-0.151123,0.096035,0.000162,-0.008217,0.999989,-0.002298,-0.003438,0.002138,0.602406,-0.202372,-0.758812,-0.142680
57722,NaN,9.838575,-1.480956,-2.429553,-0.534975,-1.075721,0.358353,-0.254477,-0.234117,0.139896,-0.909180,0.212402,-0.146973,0.098424,-0.014772,-0.024162,0.999998,-0.001272,-0.001171,0.000699,0.601231,-0.203752,-0.759332,-0.142905
57723,NaN,10.025317,-2.772409,-0.845353,-2.560495,-1.428910,0.202796,1.334789,-0.533958,0.047563,-0.913330,0.212402,-0.142578,0.100282,-0.027644,-0.008370,0.999974,0.006674,-0.002670,0.000238,0.600613,-0.200288,-0.761796,-0.137167
57724,NaN,9.911645,-0.977031,1.345517,-3.612589,1.131680,-0.502804,1.785134,-0.656419,-0.070861,-0.913330,0.210205,-0.140625,0.099068,-0.009927,0.013692,0.999955,0.008926,-0.003282,-0.000354,0.599703,-0.195037,-0.765153,-0.129835
57725,NaN,8.237478,0.788034,-1.219391,-0.269735,1.357178,-1.563491,1.725307,0.096352,-0.087419,-0.913330,0.210205,-0.148926,0.082372,0.007949,-0.012165,0.999963,0.008626,0.000482,-0.000437,0.601706,-0.189452,-0.766015,-0.123605
57726,NaN,7.309565,0.750898,-3.055579,1.526082,0.451956,-2.015461,1.836433,0.388763,-0.129038,-0.910889,0.201660,-0.153076,0.073041,0.007743,-0.030627,0.999956,0.009182,0.001944,-0.000645,0.604721,-0.183130,-0.766178,-0.117248
57727,NaN,7.346424,0.651494,-3.429708,1.845382,0.255779,-1.895230,1.973778,0.387398,-0.146326,-0.915039,0.199463,-0.157471,0.073403,0.006800,-0.034373,0.999949,0.009869,0.001937,-0.000732,0.607927,-0.176358,-0.766233,-0.110497
57728,NaN,7.201960,-0.214567,-4.542512,2.545042,-0.907795,-1.735159,2.364669,-0.324732,-0.089920,-0.915039,0.199463,-0.155273,0.072092,-0.001642,-0.045330,0.999929,0.011823,-0.001624,-0.000450,0.608561,-0.168931,-0.768665,-0.101338
57729,NaN,8.033163,-0.367637,-4.207629,2.012557,-0.712765,-0.991598,1.942771,-0.824853,0.023441,-0.910645,0.193115,-0.153076,0.080505,-0.003260,-0.041778,0.999944,0.009714,-0.004124,0.000117,0.607041,-0.163512,-0.772071,-0.093117
57730,NaN,8.437492,-0.195785,-2.733103,0.599310,0.103848,-0.962352,1.298705,-1.145087,0.217169,-0.915039,0.195068,-0.144775,0.084532,-0.001691,-0.026859,0.999962,0.006493,-0.005725,0.001086,0.603634,-0.160872,-0.776066,-0.086416
57731,NaN,9.561837,-0.154531,-1.683841,-0.675098,0.741627,-0.154508,0.595908,-1.378206,0.470147,-0.916992,0.197266,-0.136230,0.095735,-0.001271,-0.016183,0.999969,0.002980,-0.006891,0.002351,0.598982,-0.161482,-0.780056,-0.081593
57732,NaN,9.528331,0.683743,-1.396867,-0.740568,1.709931,-0.339892,0.086106,-1.339192,0.590504,-0.915039,0.201416,-0.119385,0.095353,0.007125,-0.013327,0.999973,0.000431,-0.006696,0.002952,0.593927,-0.164003,-0.783721,-0.078322
57733,NaN,9.631643,1.645347,-0.959311,-0.920651,2.858674,-0.465238,0.322810,-1.240558,0.565054,-0.915039,0.203613,-0.104492,0.096326,0.016740,-0.008969,0.999975,0.001614,-0.006203,0.002825,0.589569,-0.165735,-0.787025,-0.074378
57734,NaN,9.763568,2.194927,-0.477200,-1.292388,3.635546,-0.566943,0.716616,-1.075124,0.508918,-0.915283,0.209961,-0.102539,0.097603,0.022213,-0.004168,0.999976,0.003583,-0.005376,0.002545,0.585990,-0.165945,-0.790129,-0.069096
57735,NaN,9.975872,2.120076,-0.434599,-1.498407,3.700729,-0.418028,1.002979,-0.960036,0.479628,-0.917236,0.209961,-0.092041,0.099726,0.021460,-0.003760,0.999973,0.005015,-0.004800,0.002398,0.583211,-0.165223,-0.792845,-0.062948
57736,NaN,10.096789,1.304896,-0.656883,-1.691277,2.978454,-0.202981,1.091184,-0.981198,0.494376,-0.915283,0.212158,-0.087646,0.100966,0.013332,-0.006001,0.999970,0.005456,-0.004906,0.002472,0.580257,-0.164212,-0.795717,-0.056317
57737,NaN,10.266799,0.893761,-0.692012,-1.925810,2.702849,-0.031622,1.038841,-1.068348,0.512181,-0.917725,0.222900,-0.079346,0.102679,0.009234,-0.006324,0.999969,0.005194,-0.005342,0.002561,0.577018,-0.163526,-0.798640,-0.049837
57738,NaN,11.133763,0.971219,-0.231861,-2.661817,3.167017,0.571941,0.891406,-1.173907,0.538295,-0.915527,0.224854,-0.068848,0.111322,0.010020,-0.001621,0.999969,0.004457,-0.005869,0.002691,0.573085,-0.163291,-0.801871,-0.043728
57739,NaN,12.245012,1.005888,0.245858,-3.516613,3.655036,1.380360,0.668133,-1.223271,0.558152,-0.915527,0.224854,-0.058105,0.122403,0.010391,0.003242,0.999972,0.003341,-0.006116,0.002791,0.568864,-0.163872,-0.805022,-0.038469
57740,NaN,12.710628,1.770939,0.630397,-3.889686,4.672218,1.506848,0.387654,-1.205218,0.538405,-0.913574,0.233398,-0.045654,0.127017,0.018038,0.007104,0.999976,0.001938,-0.006026,0.002692,0.564353,-0.165058,-0.808134,-0.034375
57741,NaN,13.137069,2.784760,0.321020,-3.538749,5.741396,1.804214,0.130813,-0.972361,0.461439,-0.905029,0.235596,-0.041504,0.131288,0.028148,0.003867,0.999985,0.000654,-0.004862,0.002307,0.560635,-0.166713,-0.810485,-0.031760
57742,NaN,13.304346,3.604638,0.085623,-3.213726,6.571434,1.870357,0.087779,-0.719044,0.388820,-0.902832,0.235596,-0.037109,0.132969,0.036304,0.001350,0.999992,0.000439,-0.003595,0.001944,0.557813,-0.168032,-0.812235,-0.029731
57743,NaN,13.170496,3.844469,0.538015,-3.561019,6.933516,1.491126,0.185353,-0.530692,0.342625,-0.906982,0.233398,-0.030762,0.131624,0.038665,0.005765,0.999995,0.000927,-0.002653,0.001713,0.555894,-0.168980,-0.813429,-0.027596
57744,NaN,13.234737,4.057359,0.826116,-3.826736,7.258440,1.366472,0.269038,-0.423625,0.195126,-0.905273,0.239746,-0.030762,0.132290,0.040691,0.008596,0.999996,0.001345,-0.002118,0.000976,0.554413,-0.168931,-0.814512,-0.025651
57745,NaN,13.078307,3.563338,0.559590,-3.721904,6.709463,1.375839,0.338420,-0.077139,-0.046705,-0.906982,0.233398,-0.024414,0.130789,0.035593,0.005707,0.999998,0.001692,-0.000386,-0.000234,0.554411,-0.167807,-0.814786,-0.024355
57746,NaN,13.125460,2.456521,0.340949,-3.903613,5.610200,1.664061,0.637396,-0.061975,-0.239963,-0.905029,0.233398,-0.030762,0.131283,0.024397,0.003528,0.999994,0.003187,-0.000310,-0.001200,0.554681,-0.164889,-0.815252,-0.022455
57747,NaN,13.119193,1.388907,0.689697,-4.571376,4.649586,1.676503,0.578987,-0.301888,-0.284476,-0.904785,0.229004,-0.026611,0.131201,0.013682,0.007135,0.999994,0.002895,-0.001509,-0.001422,0.553925,-0.162151,-0.816362,-0.020654
57748,NaN,13.815638,0.837469,0.729836,-5.069205,4.282681,2.355590,0.096990,-0.638602,-0.161114,-0.902588,0.229004,-0.022461,0.138139,0.008260,0.007743,0.999994,0.000485,-0.003193,-0.000806,0.551429,-0.161097,-0.818267,-0.020297
57749,NaN,15.715111,1.184089,0.692679,-5.667275,5.066039,4.009869,-0.432971,-0.642748,-0.056104,-0.900391,0.226807,-0.013916,0.157131,0.011812,0.007406,0.999992,-0.002165,-0.003214,-0.000281,0.548474,-0.162120,-0.820013,-0.021724
57750,NaN,16.816068,2.111369,1.652184,-6.664738,6.409251,4.486628,-0.952881,0.074721,-0.116515,-0.904541,0.220459,-0.009521,0.168179,0.021094,0.016358,0.999988,-0.004764,0.000374,-0.000583,0.548079,-0.164050,-0.819765,-0.026149
57751,NaN,15.584004,1.085997,0.886683,-5.826451,4.917460,3.851007,-0.296108,0.520266,-0.597920,-0.895752,0.211914,-0.020020,0.155894,0.010407,0.008446,0.999991,-0.001481,0.002601,-0.002990,0.549918,-0.162335,-0.818762,-0.029447
57752,NaN,18.672406,1.410418,6.436108,-11.668762,6.869256,4.633431,4.627016,2.026042,-1.306729,-0.906250,0.201416,-0.055908,0.187446,0.011417,0.062749,0.999660,0.023132,0.010129,-0.006533,0.561713,-0.143706,-0.814601,-0.015902
57753,NaN,18.540773,3.326817,17.957769,-21.423156,10.356814,0.721564,1.901270,4.482031,-0.647961,-0.901855,0.195068,-0.091797,0.189477,0.030976,0.175663,0.999698,0.009505,0.022408,-0.003239,0.581144,-0.135322,-0.802362,-0.013213
57754,NaN,17.812931,4.199477,11.717166,-14.734355,9.850650,2.758501,-2.658960,3.119880,0.064685,-0.900146,0.199219,-0.104492,0.179908,0.043581,0.113802,0.999790,-0.013294,0.015598,0.000323,0.591967,-0.142882,-0.792768,-0.026025
57755,NaN,17.607084,1.811056,0.051990,-3.849889,5.184563,6.666475,-2.992059,2.908048,0.663130,-0.894043,0.212158,-0.130127,0.175990,0.018674,-0.002316,0.999777,-0.014959,0.014539,0.003315,0.601343,-0.153950,-0.783097,-0.038012
57756,NaN,14.314011,1.292368,-10.391281,7.036641,1.326751,6.411656,-0.953027,3.620967,0.092585,-0.891846,0.201660,-0.166016,0.141221,0.012486,-0.106541,0.999825,-0.004765,0.018104,0.000463,0.614978,-0.156260,-0.771624,-0.044504
57757,NaN,12.511900,4.276366,-22.289760,20.098579,0.503539,6.537011,1.610810,5.402287,-0.874449,-0.885498,0.195312,-0.214600,0.119236,0.044045,-0.225820,0.999593,0.008053,0.027008,-0.004372,0.636663,-0.146663,-0.755716,-0.045202
57758,NaN,11.719307,-3.149748,-24.594243,21.299591,-7.068094,5.943694,4.398442,4.836119,-0.795136,-0.872314,0.174072,-0.256836,0.111079,-0.026489,-0.249297,0.999458,0.021988,0.024176,-0.003975,0.657822,-0.128203,-0.741363,-0.034855
57759,NaN,11.185715,-9.113016,-17.557173,14.471976,-10.422178,4.258119,9.854834,2.958502,-1.044507,-0.867188,0.137695,-0.283936,0.108754,-0.082858,-0.181416,0.998663,0.049252,0.014786,-0.005220,0.674068,-0.091242,-0.733003,-0.003644
57760,NaN,12.260863,-13.853791,-6.914702,4.733736,-12.704054,4.542401,10.777410,-0.631623,-1.036169,-0.872559,0.109863,-0.275391,0.122135,-0.135194,-0.076108,0.998530,0.053861,-0.003157,-0.005178,0.675716,-0.050721,-0.734697,0.032501
57761,NaN,12.497357,-10.358079,5.079611,-6.346747,-8.884499,3.227429,3.834836,-2.489655,-1.224264,-0.872070,0.096924,-0.256104,0.123704,-0.105309,0.050333,0.999720,0.019172,-0.012447,-0.006121,0.667586,-0.032848,-0.742560,0.043056
57762,NaN,13.206665,-0.249889,1.875778,-3.413127,1.035828,3.042873,-2.627622,-2.188264,-1.464092,-0.880371,0.088379,-0.234863,0.131829,-0.003205,0.020240,0.999827,-0.013137,-0.010941,-0.007320,0.659288,-0.035503,-0.750505,0.028654
57763,NaN,17.001578,6.231291,-5.124819,3.198164,7.344708,7.213870,-8.236213,-0.352634,-2.110457,-0.880615,0.094727,-0.239258,0.170738,0.058343,-0.053405,0.999095,-0.041169,-0.001763,-0.010549,0.656243,-0.054642,-0.752513,-0.009178
57764,NaN,14.181672,9.244447,-6.826913,6.342606,9.041623,4.712288,-8.326310,4.216481,-2.722192,-0.859131,0.086182,-0.285645,0.141496,0.087488,-0.074967,0.998819,-0.041615,0.021074,-0.013606,0.669000,-0.071224,-0.738104,-0.050682
57765,NaN,14.160606,6.422970,0.377699,-0.072264,6.654489,4.241142,-5.253660,5.780061,-2.396698,-0.848633,0.077881,-0.323730,0.142360,0.062525,-0.001988,0.999166,-0.026261,0.028892,-0.011980,0.687321,-0.078419,-0.717650,-0.080114
57766,NaN,12.329973,3.747651,-4.002236,4.447313,2.485732,2.680650,-5.094114,3.448965,-2.134303,-0.842285,0.077881,-0.342773,0.122958,0.035092,-0.043059,0.999470,-0.025466,0.017242,-0.010670,0.696551,-0.086538,-0.704163,-0.107152
57767,NaN,9.912284,0.945781,-8.209515,8.115017,-1.944293,0.028933,-5.448887,3.544548,-1.834074,-0.825439,0.080078,-0.370361,0.097712,0.006285,-0.084036,0.999430,-0.027239,0.017719,-0.009169,0.705321,-0.097098,-0.689262,-0.134211
57768,NaN,6.133655,-1.685436,-5.589678,4.823802,-3.927051,-4.068238,-4.726481,3.389776,-1.876932,-0.808594,0.080078,-0.387451,0.060212,-0.018754,-0.056495,0.999533,-0.023629,0.016946,-0.009383,0.713176,-0.104643,-0.674697,-0.158788
57769,NaN,6.991933,-1.708730,-3.932175,3.304007,-3.758865,-3.315492,-4.026299,2.902075,-1.756687,-0.798340,0.088867,-0.412842,0.069184,-0.018497,-0.039966,0.999654,-0.020129,0.014509,-0.008782,0.719244,-0.110722,-0.661806,-0.180117
57770,NaN,6.931564,-0.705009,-3.687161,3.506709,-3.031184,-3.437344,-4.126511,2.832659,-1.428228,-0.787842,0.088867,-0.429688,0.068729,-0.008314,-0.037685,0.999661,-0.020630,0.014162,-0.007140,0.724849,-0.117925,-0.648458,-0.200475
57771,NaN,7.973054,0.929872,-4.967113,5.515226,-2.584105,-2.601755,-4.023068,2.715119,-1.118021,-0.771240,0.104004,-0.451172,0.079091,0.007839,-0.050915,0.999690,-0.020113,0.013574,-0.005590,0.729959,-0.126109,-0.635011,-0.219130
57772,NaN,6.856852,0.582140,-5.701487,5.925022,-3.388000,-4.045059,-4.017335,2.578488,-0.973625,-0.767090,0.106201,-0.459473,0.067849,0.004332,-0.057990,0.999703,-0.020085,0.012891,-0.004868,0.734366,-0.134497,-0.621635,-0.237037
57773,NaN,6.178669,-0.454991,-6.595316,6.040115,-4.894014,-5.182764,-3.764761,2.272397,-0.797268,-0.752930,0.123291,-0.476807,0.061011,-0.006043,-0.066545,0.999750,-0.018822,0.011361,-0.003986,0.737792,-0.143101,-0.609177,-0.253156
57774,NaN,5.789933,-0.807728,-5.314027,4.664379,-4.687729,-5.490904,-3.466697,1.878020,-0.660875,-0.746826,0.129883,-0.487305,0.057369,-0.009193,-0.053528,0.999800,-0.017332,0.009389,-0.003304,0.740069,-0.151156,-0.598260,-0.267460
57775,NaN,5.529559,-0.154148,-5.214147,4.849004,-4.251213,-5.788227,-3.487070,1.579702,-0.694080,-0.734131,0.138428,-0.481201,0.054874,-0.002646,-0.052536,0.999811,-0.017434,0.007898,-0.003470,0.741113,-0.159826,-0.588129,-0.281625
57776,NaN,4.687379,-1.445552,-5.375836,3.965755,-5.349821,-6.878656,-3.386678,1.479873,-0.624675,-0.728271,0.153320,-0.498047,0.046428,-0.015512,-0.053846,0.999824,-0.016932,0.007399,-0.003123,0.741757,-0.168124,-0.578351,-0.295027
57777,NaN,3.951032,-1.741507,-4.895515,3.169836,-5.248913,-7.574910,-3.127799,1.222895,-0.564880,-0.720215,0.164062,-0.500488,0.039160,-0.018291,-0.048914,0.999855,-0.015638,0.006114,-0.002824,0.741743,-0.176245,-0.569559,-0.307176
57778,NaN,3.498174,-2.199515,-4.652244,2.487581,-5.423353,-8.047644,-2.904156,1.006077,-0.475501,-0.716064,0.166260,-0.498291,0.034695,-0.022752,-0.046371,0.999879,-0.014520,0.005030,-0.002377,0.741225,-0.183817,-0.561824,-0.318041
57779,NaN,3.249744,-2.028016,-4.761106,2.511754,-5.376003,-8.353370,-2.709528,0.742899,-0.363584,-0.716553,0.181152,-0.494141,0.032283,-0.020983,-0.047450,0.999900,-0.013547,0.003714,-0.001818,0.740188,-0.191619,-0.555006,-0.327676
57780,NaN,2.820097,-2.425980,-4.421949,1.803245,-5.379962,-8.719601,-2.519526,0.497164,-0.264793,-0.708252,0.189697,-0.500732,0.028059,-0.024852,-0.043979,0.999917,-0.012597,0.002486,-0.001324,0.738642,-0.199129,-0.549374,-0.336071
57781,NaN,2.419017,-2.797679,-3.853840,0.970214,-5.182580,-8.958686,-2.252259,0.252136,-0.161320,-0.706299,0.196289,-0.500732,0.024119,-0.028428,-0.038250,0.999935,-0.011261,0.001261,-0.000807,0.736790,-0.206549,-0.544751,-0.343109
57782,NaN,2.238375,-3.270005,-3.243991,0.094296,-5.049026,-8.961519,-1.942812,0.005184,-0.094199,-0.708496,0.202637,-0.496582,0.022367,-0.033024,-0.032121,0.999953,-0.009714,0.000026,-0.000471,0.734573,-0.213214,-0.541614,-0.348707
57783,NaN,2.221157,-3.440144,-2.661304,-0.492425,-4.748633,-8.783997,-1.589782,-0.262181,-0.051784,-0.706543,0.208984,-0.490234,0.022237,-0.034617,-0.026309,0.999968,-0.007949,-0.001311,-0.000259,0.732070,-0.219344,-0.539811,-0.352939
57784,NaN,2.426475,-2.939629,-2.401224,-0.306384,-4.283886,-8.452822,-1.190038,-0.607470,-0.040906,-0.710693,0.206787,-0.483887,0.024331,-0.029543,-0.023763,0.999978,-0.005950,-0.003037,-0.000205,0.728997,-0.224477,-0.540116,-0.355596
57785,NaN,2.788551,-2.262102,-2.128133,0.051568,-3.737913,-7.956027,-0.807492,-0.978554,-0.035398,-0.719482,0.213379,-0.471191,0.027985,-0.022711,-0.021053,0.999980,-0.004037,-0.004893,-0.000177,0.725386,-0.229041,-0.542245,-0.356827
57786,NaN,3.596212,-1.787245,-1.816010,0.307810,-3.405199,-7.031603,-0.508161,-1.326104,-0.057706,-0.721436,0.208984,-0.462646,0.036076,-0.017929,-0.017876,0.999975,-0.002541,-0.006630,-0.000289,0.721036,-0.232939,-0.546352,-0.356856
57787,NaN,4.207504,-1.644580,-1.418394,0.217174,-3.149662,-6.284011,-0.154428,-1.663078,-0.110820,-0.727783,0.208984,-0.447754,0.042182,-0.016480,-0.013821,0.999965,-0.000772,-0.008315,-0.000554,0.716106,-0.236133,-0.552152,-0.355756
57788,NaN,5.092628,-1.824040,-1.080028,-0.067726,-3.182631,-5.307818,0.288609,-2.073965,-0.192304,-0.740234,0.202393,-0.437256,0.051017,-0.018274,-0.010298,0.999945,0.001443,-0.010370,-0.000962,0.710276,-0.238117,-0.560443,-0.353147
57789,NaN,6.450911,-2.462745,-0.538840,-0.813576,-3.431849,-3.852105,0.851221,-2.516353,-0.251504,-0.746338,0.193848,-0.420166,0.064540,-0.024688,-0.004681,0.999911,0.004256,-0.012581,-0.001257,0.703747,-0.238792,-0.571102,-0.348656
57790,NaN,8.603357,-2.509714,0.878150,-1.666641,-2.769554,-1.408221,1.402525,-3.012051,-0.293101,-0.758789,0.187256,-0.401123,0.085853,-0.025290,0.009899,0.999861,0.007012,-0.015060,-0.001465,0.696137,-0.238136,-0.584568,-0.342002
57791,NaN,13.272606,-1.836428,4.153443,-3.168551,-0.661467,3.836217,1.675757,-3.233742,-0.273775,-0.772949,0.167969,-0.377686,0.132007,-0.018904,0.043516,0.999833,0.008378,-0.016168,-0.001369,0.688114,-0.236974,-0.598888,-0.334178
57792,NaN,18.666368,-0.459381,8.647474,-5.251068,2.866981,9.874765,1.342903,-3.042837,-0.196344,-0.783447,0.167969,-0.352051,0.185315,-0.005369,0.089267,0.999861,0.006714,-0.015213,-0.000982,0.680092,-0.236740,-0.611885,-0.327147
57793,NaN,24.840508,1.546911,15.137897,-8.411415,8.309498,16.809995,0.368507,-2.124702,-0.108565,-0.783203,0.165771,-0.345703,0.246786,0.015053,0.154034,0.999942,0.001842,-0.010623,-0.000543,0.673830,-0.238598,-0.619778,-0.323882
57794,NaN,28.946506,4.048424,19.025634,-9.285960,12.487395,21.397845,-1.206593,-0.147991,-0.110582,-0.779297,0.170166,-0.347900,0.289347,0.041472,0.190222,0.999981,-0.006033,-0.000740,-0.000553,0.671695,-0.242477,-0.618528,-0.327801
57795,NaN,28.278474,7.151675,17.544337,-5.541686,13.448084,20.960540,-2.773727,1.953918,-0.442346,-0.775146,0.174316,-0.362793,0.284635,0.073287,0.171660,0.999854,-0.013868,0.009769,-0.002212,0.673570,-0.247167,-0.607838,-0.340213
57796,NaN,20.018813,6.183900,8.891838,-0.245982,7.215120,11.771853,-2.792754,2.605676,-0.829107,-0.764648,0.174561,-0.379883,0.201574,0.062214,0.085431,0.999809,-0.013963,0.013028,-0.004145,0.676511,-0.249448,-0.595243,-0.354674
57797,NaN,12.401643,3.494258,2.634532,1.611918,1.800021,3.114319,-1.385201,1.578746,-0.665401,-0.762451,0.174561,-0.386230,0.124334,0.034706,0.025124,0.999939,-0.006926,0.007894,-0.003327,0.678278,-0.249318,-0.588213,-0.363023
57798,NaN,8.205877,1.620115,2.927922,-0.141157,1.544492,-1.087591,-0.588407,1.248699,-0.407233,-0.760254,0.170166,-0.385986,0.082272,0.016119,0.028718,0.999974,-0.002942,0.006243,-0.002036,0.680484,-0.247688,-0.583419,-0.367716
57799,NaN,3.411822,-0.413548,3.670876,-2.391640,1.826108,-5.783784,-0.471863,1.025083,-0.259418,-0.751709,0.170166,-0.392578,0.034300,-0.004094,0.036543,0.999983,-0.002359,0.005125,-0.001297,0.682417,-0.246627,-0.579348,-0.371266
57800,NaN,0.328898,-1.689186,2.320939,-2.727567,0.699075,-9.164692,-0.910277,0.469289,-0.275110,-0.747559,0.172363,-0.394531,0.003320,-0.016791,0.023278,0.999986,-0.004551,0.002346,-0.001376,0.682165,-0.247904,-0.576393,-0.375454
57801,NaN,1.415596,-3.052745,-1.270730,-1.614737,-3.107530,-8.991915,-0.978694,-0.491661,-0.214710,-0.749756,0.176514,-0.384033,0.014154,-0.030604,-0.012523,0.999984,-0.004893,-0.002458,-0.001074,0.679137,-0.251522,-0.576462,-0.378419
57802,NaN,4.959600,-1.385037,-3.385379,1.109817,-4.533583,-5.788903,-0.138852,-1.645640,-0.034418,-0.762451,0.172363,-0.371338,0.049870,-0.013882,-0.033435,0.999966,-0.000694,-0.008228,-0.000172,0.674164,-0.254863,-0.581806,-0.376896
57803,NaN,10.098564,-1.271686,-4.985493,2.281948,-6.670594,-0.939046,1.231292,-2.704067,0.222795,-0.768311,0.159424,-0.358398,0.101662,-0.012302,-0.048560,0.999889,0.006156,-0.013520,0.001114,0.668228,-0.256407,-0.592865,-0.369104
57804,NaN,14.911200,-2.814691,-5.803202,1.583493,-8.828490,3.732560,2.425953,-3.138960,0.454823,-0.778809,0.157227,-0.331055,0.150064,-0.027119,-0.056015,0.999801,0.012129,-0.015694,0.002274,0.662751,-0.255285,-0.607143,-0.356327
57805,NaN,15.621547,-2.050919,-7.098852,2.934853,-9.033598,4.622904,3.185340,-3.159998,0.448751,-0.782715,0.150635,-0.311768,0.157358,-0.019049,-0.068819,0.999746,0.015925,-0.015799,0.002244,0.657873,-0.251637,-0.622535,-0.341076
57806,NaN,16.726050,-1.985131,-5.213508,1.685545,-7.249804,6.170415,3.864407,-2.964142,0.276668,-0.788818,0.142090,-0.292725,0.168039,-0.018639,-0.050016,0.999703,0.019320,-0.014819,0.001383,0.653764,-0.244708,-0.638380,-0.324317
57807,NaN,18.281532,-0.641376,1.009132,-1.773491,-1.595189,8.351571,4.374706,-2.375842,0.012702,-0.794678,0.126953,-0.286377,0.182680,-0.006652,0.012118,0.999690,0.021871,-0.011878,0.000064,0.651371,-0.234206,-0.652999,-0.307335
57808,NaN,18.236709,4.082244,10.856780,-5.958368,8.750715,9.028117,5.365790,-1.493684,-0.460973,-0.798340,0.109863,-0.281982,0.181633,0.037447,0.110961,0.999610,0.026825,-0.007467,-0.002305,0.651784,-0.217403,-0.666435,-0.289445
57809,NaN,16.126229,0.405574,3.525780,-3.266866,1.106252,6.335005,3.783890,1.078274,-0.612582,-0.789551,0.096924,-0.298828,0.161460,0.002904,0.034450,0.999802,0.018918,0.005391,-0.003063,0.658495,-0.201409,-0.668904,-0.279975
57810,NaN,3.565310,-2.722988,-10.720934,6.399283,-9.262450,-6.929224,1.257702,2.003639,-0.286069,-0.785156,0.094971,-0.305176,0.034537,-0.026603,-0.107728,0.999929,0.006288,0.010018,-0.001430,0.666012,-0.193456,-0.664318,-0.278720
57811,NaN,-0.883153,-8.147987,-14.973579,6.598421,-15.556734,-12.226308,0.628629,-0.117837,0.110673,-0.793945,0.101318,-0.305176,-0.008698,-0.081014,-0.149996,0.999995,0.003143,-0.000589,0.000553,0.666400,-0.191875,-0.665449,-0.276174
57812,NaN,1.108980,-4.738883,-10.602291,5.318375,-10.380739,-9.593515,0.838125,-1.279242,0.210249,-0.793701,0.092773,-0.296631,0.011818,-0.046932,-0.106146,0.999970,0.004191,-0.006396,0.001051,0.663169,-0.191557,-0.670704,-0.271419
57813,NaN,2.254082,-4.232606,-6.753903,2.621215,-7.680817,-8.156365,1.335106,-1.691978,0.121263,-0.795654,0.090576,-0.275391,0.023138,-0.041861,-0.067625,0.999942,0.006675,-0.008460,0.000606,0.658922,-0.189804,-0.677944,-0.264930
57814,NaN,4.541393,-3.776317,-5.840354,2.092138,-6.893392,-5.678042,2.201085,-2.475845,0.095815,-0.805908,0.082031,-0.256348,0.046154,-0.037100,-0.058246,0.999863,0.011005,-0.012379,0.000479,0.652576,-0.186183,-0.688916,-0.254706
57815,NaN,6.860719,0.024886,-4.615900,3.146579,-3.127710,-2.835111,3.326275,-2.804966,0.022348,-0.805664,0.075439,-0.235107,0.069245,0.001013,-0.045178,0.999763,0.016630,-0.014024,0.000112,0.645908,-0.178918,-0.702094,-0.240531
57816,NaN,10.391903,4.049060,-3.947642,4.322026,0.635687,1.181379,3.788752,-2.506629,-0.013491,-0.815918,0.068848,-0.216064,0.104399,0.041205,-0.037394,0.999742,0.018942,-0.012532,-0.000067,0.640220,-0.169678,-0.714671,-0.224885
57817,NaN,11.702460,4.693493,-6.949705,6.777284,-0.142027,2.887971,2.945424,-1.939724,0.081400,-0.819824,0.058105,-0.201172,0.117667,0.047988,-0.067656,0.999844,0.014726,-0.009698,0.000407,0.635804,-0.162678,-0.723986,-0.212444
57818,NaN,12.624361,4.590605,-6.445933,5.953589,0.366403,3.840287,2.714015,-1.789761,0.335985,-0.823975,0.058105,-0.194824,0.126732,0.046977,-0.062694,0.999866,0.013569,-0.008948,0.001680,0.631692,-0.157195,-0.732302,-0.199970
57819,NaN,11.445250,3.629883,-4.078517,3.448768,1.034643,2.345913,2.267266,-1.545480,0.649984,-0.817871,0.064453,-0.182129,0.114641,0.037124,-0.039482,0.999901,0.011336,-0.007727,0.003250,0.628427,-0.153928,-0.738843,-0.188406
57820,NaN,10.345924,2.959109,-3.621776,2.772710,0.937747,1.157148,2.051347,-1.686996,0.938475,-0.823975,0.064453,-0.165283,0.103617,0.030440,-0.035035,0.999901,0.010256,-0.008435,0.004692,0.624465,-0.152551,-0.745409,-0.176458
57821,NaN,10.611032,3.409781,-4.886363,3.929846,0.998872,1.661269,0.899035,-1.246813,0.957217,-0.820068,0.077393,-0.161133,0.106246,0.034823,-0.048046,0.999959,0.004495,-0.006234,0.004786,0.621349,-0.154390,-0.749310,-0.169184
57822,NaN,9.587326,1.225312,-5.097337,3.274223,-0.915161,0.572011,-0.191121,-0.758845,0.942448,-0.824463,0.083740,-0.150391,0.096007,0.012657,-0.050621,0.999981,-0.000956,-0.003794,0.004712,0.619000,-0.159163,-0.750904,-0.166280
57823,NaN,8.931224,-0.173046,-3.681255,1.493521,-1.456936,-0.379016,-0.691173,-0.843220,0.995379,-0.826904,0.092285,-0.144287,0.089474,-0.001412,-0.036430,0.999973,-0.003456,-0.004216,0.004977,0.616121,-0.165721,-0.752103,-0.165142
57824,NaN,8.362180,-1.203777,-2.463777,0.020506,-1.753509,-1.188935,-0.677688,-0.903252,0.952465,-0.829102,0.092285,-0.135742,0.083788,-0.011722,-0.024220,0.999973,-0.003388,-0.004516,0.004762,0.612776,-0.172138,-0.753665,-0.163898
57825,NaN,8.207134,0.399394,-2.102497,0.429291,-0.083260,-1.342444,-0.631087,-0.956593,0.890404,-0.829346,0.103027,-0.125244,0.082152,0.004294,-0.020645,0.999974,-0.003155,-0.004783,0.004452,0.609367,-0.178192,-0.755270,-0.162745
57826,NaN,7.972565,2.162707,-2.190650,1.343535,1.492850,-1.505819,-1.134553,-0.831230,0.850019,-0.823242,0.113770,-0.125488,0.079724,0.021842,-0.021699,0.999966,-0.005673,-0.004156,0.004250,0.605730,-0.185539,-0.756244,-0.163589
57827,NaN,7.168496,2.619720,-3.435046,2.776542,1.279991,-2.021526,-1.152239,-0.628302,0.818205,-0.825439,0.117920,-0.119141,0.071685,0.026293,-0.034277,0.999970,-0.005761,-0.003141,0.004091,0.602962,-0.192616,-0.756401,-0.164905
57828,NaN,7.289491,1.531369,-2.831040,1.689172,0.676742,-2.054791,-0.605685,-0.795619,0.759237,-0.827637,0.124268,-0.114746,0.072948,0.015505,-0.028067,0.999980,-0.003028,-0.003978,0.003796,0.599818,-0.197958,-0.757708,-0.164041
57829,NaN,9.318748,2.368801,-3.004678,1.820270,1.583419,-0.032222,-0.845979,-0.678432,0.663170,-0.823730,0.130859,-0.108643,0.093210,0.023871,-0.029831,0.999980,-0.004230,-0.003392,0.003316,0.596967,-0.203546,-0.758356,-0.164607
57830,NaN,10.346301,1.190753,-3.227925,1.190726,0.616915,1.007887,-0.740521,-0.195735,0.514249,-0.821533,0.128662,-0.106445,0.103464,0.012054,-0.032222,0.999989,-0.003703,-0.000979,0.002571,0.595718,-0.207843,-0.757959,-0.165590
57831,NaN,10.078975,-1.361673,-0.340912,-2.471598,-0.128592,0.058006,0.490046,-0.365077,0.347616,-0.823486,0.128662,-0.102295,0.100819,-0.013433,-0.003258,0.999994,0.002450,-0.001825,0.001738,0.595152,-0.207988,-0.759066,-0.162341
57832,NaN,10.043195,0.023957,-0.166282,-1.906592,1.172686,-0.020666,0.796152,0.101490,0.070129,-0.823975,0.139404,-0.106445,0.100431,0.000282,-0.001713,0.999992,0.003981,0.000507,0.000351,0.596252,-0.205782,-0.759483,-0.159129
57833,NaN,9.591404,-0.008590,-2.256601,-0.039482,0.058316,0.040336,0.793459,0.625627,-0.128430,-0.823730,0.128662,-0.112793,0.095843,-0.000057,-0.022866,0.999987,0.003967,0.003128,-0.000642,0.599358,-0.202414,-0.758352,-0.157165
57834,NaN,9.065298,-0.788047,-1.254690,-1.115189,-0.226387,-0.697884,1.532686,0.568932,-0.218758,-0.827637,0.122314,-0.119141,0.090608,-0.007882,-0.012865,0.999966,0.007663,0.002845,-0.001094,0.602718,-0.196523,-0.758191,-0.152496
57835,NaN,7.803988,-0.550988,-1.962711,-0.099907,-0.501421,-1.763062,2.387977,0.182914,-0.142922,-0.821289,0.122314,-0.116943,0.078018,-0.005330,-0.019763,0.999928,0.011940,0.000915,-0.000715,0.605630,-0.188617,-0.759527,-0.144067
57836,NaN,8.165897,-1.448520,-3.029793,0.386880,-1.704299,-1.157921,2.326153,0.032129,-0.115418,-0.823486,0.122314,-0.121094,0.081646,-0.014179,-0.030477,0.999932,0.011631,0.000161,-0.000577,0.607671,-0.181094,-0.761299,-0.135516
57837,NaN,8.189537,-1.932074,-4.193892,1.241626,-2.576290,-0.856650,2.073015,-0.350155,-0.011010,-0.825195,0.111572,-0.112549,0.081968,-0.018890,-0.041993,0.999945,0.010365,-0.001751,-0.000055,0.608197,-0.174968,-0.763716,-0.127358
57838,NaN,8.945232,-1.165228,-4.140779,1.381148,-1.698188,-0.131308,1.267814,-0.567209,0.103589,-0.825195,0.113525,-0.110596,0.089575,-0.011344,-0.041226,0.999976,0.006339,-0.002836,0.000518,0.607037,-0.171873,-0.766275,-0.121606
57839,NaN,8.289448,-0.707965,-3.570594,1.168713,-1.062140,-0.898053,0.655824,-0.816299,0.240064,-0.821045,0.117920,-0.104248,0.083048,-0.006864,-0.035390,0.999986,0.003279,-0.004081,0.001200,0.604634,-0.171283,-0.768915,-0.117685
57840,NaN,9.047496,-0.204486,-1.924256,-0.318363,0.206164,-0.568405,0.461926,-1.194103,0.365296,-0.823242,0.115723,-0.097900,0.090591,-0.001836,-0.018706,0.999978,0.002310,-0.005970,0.001826,0.600479,-0.172002,-0.772604,-0.113679
57841,NaN,9.618378,0.208266,-0.986889,-1.196760,1.098527,-0.279051,0.347804,-1.205008,0.396637,-0.821045,0.119873,-0.085205,0.096236,0.002290,-0.009285,0.999978,0.001739,-0.006025,0.001983,0.596360,-0.173158,-0.776043,-0.110128
57842,NaN,9.969222,0.346145,-1.159826,-1.156691,1.293434,0.078640,0.390304,-1.063001,0.405587,-0.823486,0.128418,-0.083252,0.099745,0.003686,-0.011061,0.999982,0.001952,-0.005315,0.002028,0.592629,-0.174161,-0.779192,-0.106386
57843,NaN,10.092091,0.546126,-1.683830,-0.715185,1.382371,0.314524,0.582157,-0.917339,0.405603,-0.821289,0.124268,-0.074707,0.100985,0.005714,-0.016359,0.999983,0.002911,-0.004587,0.002028,0.589792,-0.174489,-0.781835,-0.102138
57844,NaN,10.530775,0.830029,-2.006885,-0.493434,1.680407,0.796059,0.705481,-0.829354,0.412071,-0.821045,0.124268,-0.062012,0.105372,0.008587,-0.019602,0.999983,0.003527,-0.004147,0.002060,0.587217,-0.174447,-0.784390,-0.097352
