// Start Time: Unknown
// Update Rate: 100.0Hz
// Filter Profile: human (46.1)
// Firmware Version: 4.4.0
PacketCounter,SampleTimeFine,Acc_X,Acc_Y,Acc_Z,FreeAcc_X,FreeAcc_Y,FreeAcc_Z,Gyr_X,Gyr_Y,Gyr_Z,Mag_X,Mag_Y,Mag_Z,VelInc_X,VelInc_Y,VelInc_Z,OriInc_q0,OriInc_q1,OriInc_q2,OriInc_q3,Quat_q0,Quat_q1,Quat_q2,Quat_q3
30490,NaN,21.446300,2.645237,9.242035,2.210671,2.875732,13.407465,1.721928,-1.628740,-0.831487,-0.748535,0.266846,-0.452393,0.213805,0.024756,0.094381,0.999921,0.008609,-0.008143,-0.004157,0.724297,-0.281822,-0.500490,-0.381418
30491,NaN,17.307324,2.316010,6.422198,2.075004,1.737368,8.594240,1.594407,-1.571491,-0.731638,-0.760742,0.253906,-0.439697,0.172642,0.022008,0.065758,0.999931,0.007972,-0.007857,-0.003658,0.721166,-0.277195,-0.510218,-0.377837
30492,NaN,12.274761,1.347912,1.847070,2.406363,-0.980903,2.399635,1.835721,-1.503072,-0.639207,-0.764648,0.239014,-0.435303,0.122645,0.012911,0.019513,0.999925,0.009178,-0.007515,-0.003196,0.718577,-0.270943,-0.519956,-0.374008
30493,NaN,8.445248,-0.663470,1.070744,0.325530,-1.677285,-1.446807,2.028152,-1.601529,-0.571736,-0.774902,0.230225,-0.428711,0.084344,-0.006989,0.011313,0.999912,0.010140,-0.008007,-0.002859,0.716029,-0.265141,-0.530232,-0.368588
30494,NaN,6.855984,-1.587130,0.840057,-0.708956,-1.927712,-3.029654,2.206721,-1.818915,-0.509208,-0.782959,0.217529,-0.420166,0.068440,-0.016142,0.008846,0.999895,0.011033,-0.009094,-0.002546,0.711003,-0.259504,-0.544344,-0.361693
30495,NaN,6.519901,-1.735383,-0.393100,-0.235528,-2.828148,-3.679128,2.576285,-2.114410,-0.380169,-0.791016,0.204590,-0.409424,0.065204,-0.017431,-0.003466,0.999859,0.012881,-0.010572,-0.001901,0.707804,-0.253098,-0.556936,-0.353239
30496,NaN,6.601319,-1.616468,-0.922625,0.118720,-2.986473,-3.639563,3.007540,-2.399706,-0.257005,-0.803467,0.196045,-0.396729,0.066099,-0.016116,-0.008676,0.999814,0.015037,-0.011998,-0.001285,0.701685,-0.251539,-0.574924,-0.337386
30497,NaN,7.602375,-0.948074,-1.612861,1.117398,-3.138094,-2.727659,3.497971,-2.544205,-0.156726,-0.809326,0.178711,-0.373291,0.076215,-0.009268,-0.015323,0.999766,0.017488,-0.012720,-0.000784,0.698342,-0.243049,-0.589812,-0.324603
30498,NaN,7.937804,-1.059635,-2.440967,1.529552,-3.435547,-2.333141,4.103075,-2.721416,0.044956,-0.819580,0.165771,-0.364746,0.079705,-0.010090,-0.023537,0.999697,0.020513,-0.013606,0.000225,0.689380,-0.244002,-0.613582,-0.297884
30499,NaN,9.431235,-0.333276,-1.533720,1.436640,-2.244769,-0.631043,4.527832,-2.820581,0.191906,-0.827393,0.150879,-0.349854,0.094520,-0.002914,-0.014074,0.999644,0.022636,-0.014101,0.000959,0.686291,-0.233099,-0.629594,-0.279786
30500,NaN,10.413542,0.885397,-1.175227,1.741869,-0.470739,0.547907,4.784766,-2.703410,0.214164,-0.833496,0.140137,-0.332764,0.104270,0.009221,-0.010126,0.999622,0.023921,-0.013515,0.001071,0.673687,-0.233594,-0.656330,-0.246597
30501,NaN,10.976222,2.636109,-1.189347,2.650088,1.158024,1.162800,4.767888,-2.709019,0.385301,-0.843506,0.125000,-0.311523,0.109853,0.026822,-0.009770,0.999622,0.023836,-0.013543,0.001926,0.670587,-0.222052,-0.670634,-0.226398
30502,NaN,12.903719,4.589877,-1.702951,3.574478,3.120443,3.146137,4.369166,-2.823188,0.318599,-0.847412,0.118408,-0.290283,0.129177,0.046435,-0.014196,0.999661,0.021843,-0.014114,0.001593,0.654976,-0.216933,-0.695472,-0.200664
30503,NaN,14.364002,4.567789,-1.471424,2.894636,3.699479,4.583889,4.570057,-2.504240,0.247108,-0.857666,0.107666,-0.273193,0.143744,0.046148,-0.011864,0.999660,0.022848,-0.012520,0.001235,0.651250,-0.205266,-0.707752,-0.181181
30504,NaN,14.041087,3.538306,-0.579363,0.736965,3.524222,4.223918,4.352703,-2.167075,0.272716,-0.859619,0.099121,-0.260498,0.140409,0.035667,-0.003498,0.999704,0.021761,-0.010834,0.001363,0.635932,-0.189255,-0.728948,-0.168545
30505,NaN,13.247564,6.400939,-3.296537,4.213204,4.968708,3.784212,3.044315,-2.277178,0.236904,-0.865967,0.101074,-0.243408,0.132756,0.064643,-0.030474,0.999819,0.015221,-0.011385,0.001184,0.630598,-0.182324,-0.738397,-0.154512
30506,NaN,11.400445,4.993789,-1.928308,1.920551,4.185180,1.909602,2.531382,-1.810182,0.477709,-0.870117,0.099121,-0.235107,0.114049,0.050440,-0.017615,0.999876,0.012656,-0.009051,0.002388,0.615737,-0.167682,-0.753891,-0.156199
30507,NaN,10.361652,5.240501,-0.536261,0.753120,5.183518,0.563661,2.203149,-2.080339,0.584738,-0.874268,0.101074,-0.216064,0.103507,0.052755,-0.003706,0.999881,0.011015,-0.010401,0.002924,0.610126,-0.164708,-0.761436,-0.144332
30508,NaN,9.867481,2.847574,0.066984,-1.162581,3.060780,-0.078489,2.251970,-1.859185,0.861905,-0.876465,0.103271,-0.201172,0.098537,0.028884,0.001910,0.999884,0.011259,-0.009296,0.004309,0.597797,-0.150825,-0.772931,-0.149896
30509,NaN,9.476390,0.730733,0.408587,-2.411060,1.431704,-0.722322,2.894505,-2.209283,1.086791,-0.880615,0.107422,-0.180176,0.094669,0.007752,0.005242,0.999820,0.014472,-0.011046,0.005434,0.592148,-0.148002,-0.780744,-0.133769
30510,NaN,8.312398,-0.268665,0.941090,-3.208168,0.566106,-2.103229,4.080481,-2.999136,1.328793,-0.885010,0.113770,-0.156738,0.082987,-0.002343,0.010606,0.999657,0.020400,-0.014994,0.006643,0.582525,-0.135855,-0.791214,-0.127238
30511,NaN,11.411418,3.061320,-3.132107,0.440165,2.683400,2.102858,2.942691,-3.802611,1.148695,-0.885254,0.126465,-0.133789,0.114496,0.031705,-0.028685,0.999695,0.014712,-0.019011,0.005743,0.570034,-0.134206,-0.803138,-0.109631
30512,NaN,12.339432,3.251343,-4.714888,1.346847,2.394105,3.510645,1.077636,-1.338486,1.035576,-0.887451,0.130859,-0.127441,0.123534,0.033403,-0.046144,0.999950,0.005388,-0.006692,0.005178,0.566926,-0.130893,-0.805372,-0.113302
30513,NaN,8.868787,0.840214,-1.660000,-1.164287,1.041028,-0.886600,1.382731,-1.532257,0.822453,-0.887695,0.141357,-0.110596,0.088775,0.008878,-0.015860,0.999938,0.006914,-0.007661,0.004112,0.562092,-0.131146,-0.809911,-0.104393
30514,NaN,9.444533,0.924127,0.317173,-3.190522,1.757002,-1.044315,0.682885,-1.725412,0.908689,-0.889893,0.143555,-0.095703,0.094370,0.009657,0.004019,0.999947,0.003414,-0.008627,0.004543,0.557018,-0.128314,-0.813569,-0.106641
30515,NaN,10.836656,1.813835,0.383124,-3.596996,2.898300,0.163494,0.826287,-2.391385,0.955796,-0.885742,0.154297,-0.083252,0.108222,0.018636,0.005202,0.999909,0.004131,-0.011957,0.004779,0.548279,-0.131164,-0.819982,-0.099074
30516,NaN,13.042399,3.743711,0.883982,-4.207113,5.077948,2.078983,0.163136,-1.115388,1.087556,-0.886230,0.166992,-0.074707,0.130166,0.038138,0.009597,0.999969,0.000816,-0.005577,0.005438,0.548964,-0.133426,-0.818519,-0.104224
30517,NaN,12.817139,3.237569,-1.517095,-2.222277,3.952966,2.697193,-1.252203,-0.441613,0.942519,-0.882080,0.169189,-0.068604,0.128051,0.032885,-0.015093,0.999967,-0.006261,-0.002208,0.004713,0.546794,-0.140946,-0.818423,-0.106463
30518,NaN,10.910686,0.163440,-3.230795,-0.952394,0.097528,1.527119,-1.368093,-0.095476,0.562051,-0.884033,0.171387,-0.064209,0.109118,0.001720,-0.032267,0.999973,-0.006840,-0.000477,0.002810,0.552228,-0.144987,-0.811994,-0.121197
30519,NaN,9.415133,-1.492424,-0.794960,-3.184539,-0.693194,-0.819276,-0.420932,-0.942516,0.089739,-0.884277,0.175537,-0.047363,0.094194,-0.014898,-0.007474,0.999987,-0.002105,-0.004713,0.000449,0.548144,-0.147083,-0.814265,-0.121974
30520,NaN,8.345916,0.028497,0.773362,-3.554750,1.144085,-2.308952,-0.354561,-1.817529,-0.344611,-0.890137,0.164795,-0.036621,0.083385,0.000156,0.008491,0.999956,-0.001773,-0.009088,-0.001723,0.546149,-0.152557,-0.812494,-0.135284
30521,NaN,8.374107,3.022028,0.941683,-2.675010,3.992430,-2.259751,0.383602,-2.112083,-0.389127,-0.890381,0.171143,-0.021973,0.083694,0.030038,0.010359,0.999941,0.001918,-0.010560,-0.001946,0.537565,-0.151348,-0.818769,-0.133169
30522,NaN,9.932318,2.114995,0.450486,-3.166113,3.084568,-0.659293,1.580881,-1.754149,-0.129998,-0.885986,0.168945,-0.015625,0.099291,0.021044,0.005542,0.999930,0.007904,-0.008771,-0.000650,0.538964,-0.151010,-0.817528,-0.135506
30523,NaN,11.387841,1.248515,0.667662,-4.352976,2.523436,0.500935,1.400653,-0.148577,-0.569517,-0.890137,0.164795,-0.019775,0.113908,0.012113,0.006847,0.999971,0.007003,-0.000743,-0.002848,0.539013,-0.145004,-0.819283,-0.131200
30524,NaN,10.646433,4.220685,-0.018050,-2.038823,4.783162,0.391341,0.109340,1.629301,-0.971369,-0.894043,0.151855,-0.032471,0.106662,0.041690,-0.001026,0.999955,0.000547,0.008146,-0.004857,0.550724,-0.149654,-0.808036,-0.146235
30525,NaN,10.206580,6.774798,-3.181140,1.929112,5.634570,1.354991,-0.335387,1.870451,-1.028077,-0.889648,0.147705,-0.051270,0.102108,0.067169,-0.032879,0.999942,-0.001677,0.009352,-0.005140,0.557246,-0.145047,-0.803363,-0.151812
30526,NaN,7.123573,3.041183,-3.116762,1.697852,1.720891,-1.821263,1.486269,2.204832,-1.207022,-0.891602,0.132812,-0.072510,0.071071,0.030217,-0.031727,0.999893,0.007431,0.011024,-0.006035,0.570315,-0.144109,-0.791272,-0.166916
30527,NaN,6.619037,1.517554,-1.957242,0.281864,0.753538,-2.791445,3.137627,1.415699,-1.503346,-0.891357,0.124268,-0.078613,0.066164,0.014988,-0.019805,0.999824,0.015687,0.007078,-0.007516,0.576822,-0.128008,-0.790797,-0.159781
30528,NaN,6.966427,1.082119,0.241073,-1.888987,1.040717,-3.096454,3.355527,0.798954,-1.452266,-0.895020,0.107178,-0.089111,0.069750,0.010276,0.002308,0.999825,0.016777,0.003995,-0.007261,0.583833,-0.104948,-0.789937,-0.155319
30529,NaN,6.838468,0.039907,0.088874,-2.099330,-0.077639,-3.304205,2.520225,0.208526,-1.179851,-0.892578,0.096436,-0.091064,0.068386,-0.000015,0.000819,0.999903,0.012601,0.001043,-0.005899,0.585006,-0.092759,-0.791828,-0.148903
30530,NaN,6.934517,-1.437336,-1.136408,-1.472538,-2.024706,-3.091306,2.117977,-0.241295,-0.818157,-0.892334,0.081299,-0.093262,0.069300,-0.014536,-0.011434,0.999935,0.010590,-0.001206,-0.004091,0.587188,-0.082645,-0.791241,-0.149393
30531,NaN,7.645298,0.273773,-1.431429,-0.907893,-0.563755,-2.103451,1.986793,-0.339628,-0.587836,-0.894287,0.083496,-0.078369,0.076485,0.002654,-0.014158,0.999945,0.009934,-0.001698,-0.002939,0.586194,-0.074736,-0.793921,-0.143110
30532,NaN,8.464520,0.422611,-1.025355,-1.451094,-0.398034,-1.409480,2.205881,0.011306,-0.557335,-0.892090,0.077148,-0.086670,0.084656,0.004103,-0.010213,0.999935,0.011029,0.000057,-0.002787,0.588814,-0.069655,-0.792430,-0.143181
30533,NaN,7.105151,2.608467,-0.096298,-1.347195,2.031763,-2.646617,2.425368,-0.550116,-0.507424,-0.896240,0.074951,-0.076172,0.071119,0.025912,-0.000452,0.999919,0.012127,-0.002751,-0.002537,0.587068,-0.060893,-0.795899,-0.134862
30534,NaN,6.977046,3.589620,-1.292869,-0.066702,2.603018,-2.299151,1.494528,-1.756864,-0.270581,-0.893799,0.070557,-0.063477,0.069927,0.035894,-0.012047,0.999933,0.007472,-0.008784,-0.001353,0.582838,-0.053614,-0.800157,-0.131053
30535,NaN,7.554614,2.959262,-2.544997,0.567780,1.678209,-1.496194,1.246788,-2.142754,-0.103335,-0.895996,0.072754,-0.040283,0.075827,0.029708,-0.024454,0.999923,0.006234,-0.010713,-0.000517,0.574487,-0.050967,-0.807184,-0.125782
30536,NaN,8.654462,1.670016,-1.744753,-0.968968,0.595354,-0.900012,1.109538,-2.157241,0.150280,-0.895752,0.070557,-0.027588,0.086713,0.016858,-0.016420,0.999926,0.005548,-0.010786,0.000751,0.568086,-0.050133,-0.811936,-0.124598
30537,NaN,8.969649,1.177839,-0.965888,-2.096070,0.385445,-0.967999,1.637020,-2.278147,0.106774,-0.895996,0.074707,-0.006348,0.089792,0.011899,-0.008539,0.999901,0.008185,-0.011390,0.000534,0.559259,-0.047332,-0.819320,-0.117066
30538,NaN,9.896094,1.554895,-0.326217,-3.091210,0.900670,-0.321380,1.553167,-2.236448,0.244865,-0.895752,0.076904,0.012695,0.098969,0.015689,-0.002034,0.999907,0.007766,-0.011182,0.001224,0.552718,-0.046310,-0.824307,-0.113479
30539,NaN,10.750554,1.493475,0.263806,-4.154900,1.023691,0.165290,1.455032,-1.618952,0.360012,-0.898193,0.081055,0.019043,0.107452,0.015104,0.003617,0.999939,0.007275,-0.008095,0.001800,0.546553,-0.044688,-0.829473,-0.106105
30540,NaN,11.066935,1.418168,0.608970,-4.645105,1.065939,0.293984,1.300761,-0.767180,0.481645,-0.889648,0.087402,0.020996,0.110610,0.014406,0.006607,0.999969,0.006504,-0.003836,0.002408,0.546715,-0.045448,-0.829664,-0.103415
30541,NaN,11.029179,1.365542,0.487412,-4.581305,1.057779,0.268848,1.049294,-0.239222,0.604705,-0.892090,0.091797,0.027344,0.110244,0.013963,0.005079,0.999981,0.005246,-0.001196,0.003024,0.546264,-0.045211,-0.830707,-0.097353
30542,NaN,11.204251,1.418655,-0.500473,-3.654860,0.960196,0.841783,0.944397,-0.081163,0.669011,-0.887939,0.095947,0.025146,0.111996,0.014585,-0.004891,0.999983,0.004722,-0.000406,0.003345,0.549903,-0.049336,-0.828141,-0.096716
30543,NaN,11.502861,1.347772,-1.486998,-2.900043,0.763023,1.472267,1.085288,-0.138781,0.681867,-0.890137,0.102539,0.027100,0.114992,0.013950,-0.014715,0.999979,0.005426,-0.000694,0.003409,0.549915,-0.049241,-0.828862,-0.090311
30544,NaN,11.858305,1.298097,-1.776611,-2.681316,0.729498,1.923502,1.206299,-0.333177,0.636338,-0.888428,0.113281,0.027100,0.118570,0.013464,-0.017488,0.999975,0.006031,-0.001666,0.003182,0.552765,-0.052991,-0.826911,-0.088666
30545,NaN,12.182740,1.415463,-1.753181,-2.850706,0.951078,2.206630,1.033022,-0.571249,0.582685,-0.890625,0.121826,0.035400,0.121835,0.014599,-0.017109,0.999978,0.005165,-0.002856,0.002913,0.550923,-0.052798,-0.828775,-0.082631
30546,NaN,12.793414,1.944875,-1.875146,-2.813010,1.522196,2.865588,0.711879,-0.704450,0.481784,-0.888428,0.119629,0.041748,0.127952,0.019822,-0.018231,0.999985,0.003559,-0.003522,0.002409,0.552036,-0.057265,-0.827700,-0.083003
30547,NaN,14.087275,3.961475,-2.200023,-2.706991,3.522971,4.302721,0.532873,-0.376322,0.375477,-0.890869,0.125977,0.041748,0.140839,0.039937,-0.021629,0.999993,0.002664,-0.001882,0.001877,0.550784,-0.057504,-0.828846,-0.079653
30548,NaN,15.101868,5.527410,-2.458869,-2.362045,5.039351,5.474234,0.580594,0.426024,0.288819,-0.888672,0.125977,0.033447,0.150886,0.055564,-0.024749,0.999992,0.002903,0.002130,0.001444,0.556437,-0.061654,-0.824519,-0.082127
30549,NaN,16.285087,6.697136,-1.774448,-3.093765,6.368992,6.406644,0.564691,1.158947,0.231251,-0.888916,0.128174,0.022705,0.162668,0.067211,-0.018498,0.999979,0.002823,0.005795,0.001156,0.561472,-0.060559,-0.821438,-0.079512
30550,NaN,15.951429,5.728334,-1.076950,-3.377562,5.509544,5.892564,0.324809,1.416222,0.238703,-0.889160,0.134766,0.012207,0.159365,0.057492,-0.011805,0.999973,0.001624,0.007081,0.001194,0.570940,-0.064620,-0.814060,-0.084612
30551,NaN,14.862367,3.572058,-0.643894,-3.641009,3.476986,4.634267,-0.096101,1.287119,0.212425,-0.893311,0.132568,-0.000488,0.148540,0.035875,-0.007412,0.999979,-0.000481,0.006436,0.001062,0.576226,-0.065213,-0.810258,-0.084811
30552,NaN,13.862878,1.665781,-0.827756,-3.213640,1.494196,3.717916,-0.222168,1.088846,0.154142,-0.893311,0.134766,-0.006836,0.138568,0.016755,-0.009051,0.999984,-0.001111,0.005444,0.000771,0.584083,-0.069534,-0.803429,-0.092272
30553,NaN,13.122203,-0.157401,-0.354953,-3.698344,-0.189751,2.782086,0.126789,0.788769,0.075827,-0.895752,0.136963,-0.013184,0.131207,-0.001522,-0.004068,0.999992,0.000634,0.003944,0.000379,0.587326,-0.069104,-0.801151,-0.091815
30554,NaN,13.205081,-1.054513,0.120850,-4.180840,-0.997137,2.718347,0.553321,0.365893,-0.081121,-0.893555,0.136963,-0.015381,0.132048,-0.010602,0.000938,0.999994,0.002767,0.001829,-0.000406,0.592361,-0.071110,-0.796704,-0.096517
30555,NaN,13.914060,-0.604236,0.201503,-4.317287,-0.572514,3.417574,1.003429,0.258681,-0.195757,-0.895508,0.134766,-0.019531,0.139137,-0.006188,0.001804,0.999986,0.005017,0.001293,-0.000979,0.593646,-0.067233,-0.796480,-0.093190
30556,NaN,14.321540,-0.372281,1.587962,-5.487990,-0.066658,3.515599,1.367967,0.646596,-0.207519,-0.895752,0.136963,-0.032227,0.143262,-0.003978,0.015390,0.999971,0.006840,0.003233,-0.001038,0.600019,-0.067377,-0.791438,-0.095198
30557,NaN,14.637606,-0.787823,2.586442,-6.502833,-0.323316,3.572991,1.425284,0.923337,-0.140357,-0.897705,0.134766,-0.038574,0.146488,-0.008162,0.025131,0.999964,0.007126,0.004617,-0.000702,0.604065,-0.062104,-0.789365,-0.090287
30558,NaN,16.038966,0.612193,8.018290,-11.396326,2.314620,3.850433,0.915746,0.740958,0.102508,-0.902344,0.139160,-0.051270,0.160682,0.005839,0.079615,0.999983,0.004579,0.003705,0.000513,0.610994,-0.067064,-0.783128,-0.094336
30559,NaN,16.091800,1.502560,8.193320,-11.142933,3.179150,4.117178,-0.109241,2.737730,0.602000,-0.900391,0.141357,-0.074463,0.161973,0.015556,0.079712,0.999902,-0.000546,0.013688,0.003010,0.621901,-0.068458,-0.774434,-0.093834
30560,NaN,16.706592,4.645471,3.084608,-4.870155,5.147214,6.310798,-1.092007,2.922986,0.714544,-0.900635,0.147949,-0.093506,0.167323,0.047211,0.028145,0.999872,-0.005460,0.014614,0.003573,0.637337,-0.083903,-0.758471,-0.107160
30561,NaN,18.419263,2.483934,-5.238852,2.632573,0.630873,9.306204,-4.544487,1.979790,0.043553,-0.898438,0.147949,-0.108398,0.183653,0.023653,-0.054755,0.999693,-0.022720,0.009898,0.000218,0.642766,-0.097462,-0.749476,-0.125052
30562,NaN,20.538710,1.675643,-9.528556,6.830112,-2.314527,11.712777,-1.847443,3.793450,-1.685687,-0.896240,0.135254,-0.156982,0.203655,0.014130,-0.099298,0.999742,-0.009236,0.018966,-0.008428,0.658116,-0.102098,-0.731213,-0.147605
30563,NaN,14.131588,4.055917,-6.799317,6.433786,0.543604,5.041324,-0.533377,4.809955,-1.534685,-0.902344,0.126709,-0.180176,0.139929,0.039294,-0.071476,0.999678,-0.002667,0.024047,-0.007673,0.674084,-0.094661,-0.715540,-0.157012
30564,NaN,12.122789,-2.486547,-10.937306,8.573001,-7.413415,2.199656,0.834937,2.510919,-1.660943,-0.891113,0.103271,-0.203369,0.119632,-0.025402,-0.110987,0.999878,0.004175,0.012554,-0.008304,0.683668,-0.090883,-0.704167,-0.168781
30565,NaN,10.866433,-3.502430,-11.899626,9.392116,-8.697915,0.583267,1.554992,1.145456,-1.858138,-0.899414,0.094727,-0.211670,0.107654,-0.035098,-0.119887,0.999910,0.007775,0.005727,-0.009290,0.686779,-0.078051,-0.702344,-0.170164
30566,NaN,9.805204,-2.609334,-10.071802,8.171628,-7.221645,-0.568185,0.719336,0.959770,-1.645926,-0.890625,0.077637,-0.222168,0.097350,-0.026533,-0.101281,0.999948,0.003597,0.004799,-0.008229,0.690133,-0.069785,-0.698697,-0.175126
30567,NaN,13.266249,2.386653,-6.881173,6.764278,-2.206982,3.544132,-0.927848,0.501180,-1.927440,-0.892090,0.060303,-0.224121,0.132709,0.022267,-0.069250,0.999940,-0.004639,0.002506,-0.009637,0.689831,-0.065811,-0.696785,-0.185183
30568,NaN,15.779751,6.058853,-7.404496,8.569064,0.021273,6.529096,-4.100424,1.669193,-1.990584,-0.885742,0.056152,-0.245117,0.157748,0.057466,-0.076561,0.999705,-0.020500,0.008345,-0.009952,0.692403,-0.072901,-0.687045,-0.207926
30569,NaN,20.816263,6.275292,-0.183582,2.698515,1.163519,11.723901,-8.181978,5.997643,-1.602860,-0.871826,0.073486,-0.311035,0.208425,0.060769,-0.010599,0.998682,-0.040892,0.029975,-0.008011,0.707438,-0.089382,-0.657465,-0.243478
30570,NaN,14.584604,0.605150,-3.095303,3.741489,-4.720740,3.831570,-11.702856,9.400119,-1.504909,-0.841064,0.099365,-0.387451,0.144199,0.002875,-0.037991,0.997157,-0.058459,0.046956,-0.007517,0.729173,-0.113928,-0.608963,-0.290673
30571,NaN,6.047176,-6.997331,4.976467,-7.413063,-4.654674,-4.011080,-8.409770,8.021350,-1.351003,-0.826660,0.112549,-0.427734,0.062015,-0.068284,0.050193,0.998289,-0.042025,0.040084,-0.006751,0.745586,-0.128614,-0.567246,-0.325257
30572,NaN,9.432478,-0.046011,-1.519029,2.469625,-4.253266,-1.622468,-4.913313,2.398424,-2.470809,-0.815918,0.101807,-0.446777,0.094115,-0.002015,-0.016283,0.999550,-0.024563,0.011990,-0.012352,0.744440,-0.137241,-0.551523,-0.350422
30573,NaN,11.208491,7.505528,-3.405010,9.277618,-1.142005,0.488989,-4.696158,3.138667,-2.080428,-0.810059,0.118896,-0.468018,0.112281,0.073034,-0.037542,0.999547,-0.023477,0.015691,-0.010401,0.745891,-0.143421,-0.532792,-0.373108
30574,NaN,9.661937,3.975008,-2.042007,5.786269,-2.636881,-1.276457,-3.898455,3.272045,-1.363905,-0.793213,0.121094,-0.484863,0.096526,0.038663,-0.022761,0.999653,-0.019490,0.016358,-0.006819,0.748842,-0.148156,-0.514996,-0.389955
30575,NaN,8.066334,2.017992,-2.428169,4.445734,-3.824975,-3.438710,-3.782126,3.031851,-1.073317,-0.781006,0.134033,-0.501953,0.080384,0.019269,-0.025872,0.999692,-0.018909,0.015158,-0.005366,0.751524,-0.153595,-0.496907,-0.405837
30576,NaN,7.806453,1.947698,-1.826906,4.034173,-3.608695,-3.586412,-3.409853,2.764036,-0.829535,-0.768799,0.149170,-0.521240,0.077878,0.018826,-0.019671,0.999751,-0.017048,0.013819,-0.004147,0.753900,-0.158141,-0.481717,-0.417823
30577,NaN,6.745856,1.455394,-1.869778,3.534109,-3.641538,-4.776376,-3.228374,2.802905,-0.609949,-0.762695,0.159912,-0.538330,0.067229,0.014034,-0.019870,0.999767,-0.016141,0.014013,-0.003050,0.756648,-0.162949,-0.464777,-0.430016
30578,NaN,4.765618,0.915882,-1.717288,2.655461,-3.000621,-6.581364,-2.917968,2.515030,-0.527048,-0.748291,0.172852,-0.549072,0.047458,0.008776,-0.017900,0.999811,-0.014589,0.012574,-0.002635,0.758870,-0.166743,-0.451353,-0.438856
30579,NaN,3.584936,-0.194089,-1.549188,1.410287,-2.993523,-7.729780,-2.809112,2.159043,-0.456451,-0.735840,0.183594,-0.565918,0.035675,-0.002243,-0.015848,0.999840,-0.014045,0.010795,-0.002282,0.760278,-0.171607,-0.437305,-0.448656
30580,NaN,2.937049,-0.346063,-2.029421,1.365299,-3.089299,-8.606012,-2.821444,1.827233,-0.428051,-0.727783,0.196533,-0.572510,0.029176,-0.003812,-0.020509,0.999856,-0.014107,0.009136,-0.002140,0.760707,-0.176966,-0.426451,-0.456233
30581,NaN,2.462339,-0.411301,-1.853494,1.076208,-2.788171,-8.955276,-2.830825,1.700555,-0.237831,-0.721924,0.209229,-0.576904,0.024460,-0.004406,-0.018682,0.999863,-0.014153,0.008502,-0.001189,0.761182,-0.183322,-0.413677,-0.464615
30582,NaN,2.141451,-0.777346,-1.278599,0.390795,-2.431259,-8.940340,-2.660588,1.476057,-0.174394,-0.713867,0.222168,-0.585449,0.021313,-0.007963,-0.012838,0.999884,-0.013302,0.007380,-0.000872,0.760981,-0.189762,-0.404042,-0.470795
30583,NaN,2.076975,-1.239419,-0.748298,-0.285162,-2.271772,-8.732123,-2.408666,1.231108,-0.166029,-0.705811,0.237305,-0.587646,0.020713,-0.012501,-0.007460,0.999908,-0.012043,0.006155,-0.000830,0.760723,-0.195676,-0.393808,-0.477417
30584,NaN,2.613957,-1.063802,-0.422093,-0.159905,-2.274321,-8.096737,-2.085476,0.974629,-0.194617,-0.703857,0.245850,-0.589844,0.026109,-0.010708,-0.004237,0.999933,-0.010427,0.004873,-0.000973,0.759425,-0.201510,-0.387085,-0.482527
30585,NaN,2.758180,-1.088237,-0.279217,-0.215786,-2.275425,-7.903330,-1.847336,0.745729,-0.229962,-0.700195,0.260742,-0.592041,0.027559,-0.010940,-0.002794,0.999950,-0.009237,0.003729,-0.001150,0.758415,-0.206270,-0.380009,-0.487702
30586,NaN,2.698586,-1.174982,-0.246573,-0.338050,-2.249950,-7.929290,-1.676098,0.527779,-0.245009,-0.696045,0.262939,-0.592041,0.026965,-0.011803,-0.002438,0.999961,-0.008380,0.002639,-0.001225,0.756029,-0.211952,-0.375672,-0.492307
30587,NaN,2.440199,-1.379163,-0.047251,-0.666868,-2.042739,-8.012305,-1.569944,0.308864,-0.261176,-0.696289,0.273682,-0.594238,0.024383,-0.013827,-0.000402,0.999967,-0.007850,0.001544,-0.001306,0.754279,-0.216629,-0.370904,-0.496554
30588,NaN,2.487890,-1.481446,0.739940,-1.036374,-1.541190,-7.471231,-1.449017,0.074867,-0.296722,-0.696045,0.269287,-0.587891,0.024860,-0.014797,0.007497,0.999973,-0.007245,0.000374,-0.001484,0.750694,-0.222849,-0.368545,-0.500971
30589,NaN,2.429720,-1.398131,1.786410,-1.319030,-0.715947,-6.846699,-1.252170,-0.162861,-0.369760,-0.702637,0.275879,-0.581543,0.024257,-0.013914,0.017971,0.999978,-0.006261,-0.000814,-0.001849,0.748056,-0.227270,-0.366424,-0.504473
30590,NaN,2.453865,-1.529623,2.411854,-1.652841,-0.184077,-6.434465,-0.953565,-0.394425,-0.433290,-0.698486,0.282227,-0.577393,0.024458,-0.015234,0.024240,0.999984,-0.004768,-0.001972,-0.002166,0.726711,-0.244514,-0.359152,-0.532084
30591,NaN,2.820672,-1.575602,3.034124,-1.794379,0.076243,-5.760664,-0.794057,-0.554129,-0.476194,-0.713379,0.284424,-0.573242,0.028085,-0.015702,0.030482,0.999985,-0.003970,-0.002771,-0.002381,0.723469,-0.248015,-0.359629,-0.534555
30592,NaN,3.155152,-1.552893,3.275656,-1.772742,0.219390,-5.351134,-0.822911,-0.666590,-0.513050,-0.711426,0.284424,-0.569092,0.031402,-0.015474,0.032925,0.999983,-0.004115,-0.003333,-0.002565,0.704235,-0.262818,-0.354419,-0.556208
30593,NaN,3.703547,-1.229853,3.234163,-1.383750,-0.013822,-4.936884,-0.766647,-0.761275,-0.558770,-0.721924,0.280029,-0.560547,0.036878,-0.012277,0.032529,0.999982,-0.003833,-0.003806,-0.002794,0.700312,-0.266640,-0.355695,-0.558523
30594,NaN,3.565517,-1.264520,3.338303,-1.458051,0.267068,-4.989958,-0.476066,-0.902991,-0.605203,-0.723877,0.275635,-0.553955,0.035466,-0.012673,0.033574,0.999982,-0.002380,-0.004515,-0.003026,0.683816,-0.278422,-0.353324,-0.574490
30595,NaN,3.200504,-1.464224,4.005651,-1.821093,1.023612,-4.906788,0.072648,-1.133481,-0.668088,-0.736328,0.273438,-0.541260,0.031728,-0.014763,0.040231,0.999978,0.000363,-0.005667,-0.003340,0.679982,-0.280243,-0.358330,-0.575055
30596,NaN,2.945334,-1.724689,4.764539,-2.172851,1.914082,-4.717144,0.581074,-1.421085,-0.717831,-0.744385,0.260742,-0.532715,0.029052,-0.017490,0.047802,0.999964,0.002905,-0.007105,-0.003589,0.661532,-0.291582,-0.359453,-0.590041
30597,NaN,3.022573,-1.894998,5.108909,-2.451445,2.198003,-4.522539,0.958203,-1.773657,-0.746368,-0.757080,0.256348,-0.524170,0.029700,-0.019307,0.051262,0.999942,0.004791,-0.008868,-0.003732,0.657502,-0.292288,-0.369214,-0.588167
30598,NaN,3.605360,-2.501753,5.159222,-3.053791,2.033411,-4.119487,1.163417,-2.044685,-0.698250,-0.762939,0.239014,-0.507080,0.035436,-0.025443,0.051809,0.999925,0.005817,-0.010223,-0.003491,0.643412,-0.300598,-0.375875,-0.595298
30599,NaN,4.818091,-3.600267,4.629129,-4.160944,0.914484,-3.531542,1.281382,-2.166369,-0.642913,-0.777344,0.230469,-0.494385,0.047561,-0.036454,0.046576,0.999916,0.006407,-0.010832,-0.003214,0.639300,-0.301690,-0.387593,-0.591651
30600,NaN,7.608567,-2.893452,2.133857,-3.253146,-2.373390,-2.423644,1.244949,-1.933704,-0.640477,-0.783691,0.226318,-0.489990,0.075782,-0.029313,0.021891,0.999929,0.006225,-0.009668,-0.003202,0.629058,-0.307462,-0.395256,-0.594580
30601,NaN,9.617593,-0.623071,-1.553332,-0.635047,-6.187684,-2.289005,1.323080,-1.863268,-0.686713,-0.800049,0.211182,-0.479248,0.096293,-0.006462,-0.014679,0.999929,0.006615,-0.009316,-0.003433,0.625324,-0.307461,-0.406077,-0.591218
30602,NaN,12.940113,1.105610,1.548521,0.389591,-4.732508,2.373796,1.510280,-2.047119,-0.813416,-0.805908,0.196045,-0.462158,0.129276,0.010406,0.016889,0.999911,0.007551,-0.010235,-0.004067,0.618598,-0.309820,-0.417092,-0.589391
30603,NaN,16.825295,2.321945,5.517507,0.591115,-2.657046,7.836607,2.007379,-1.980686,-0.834463,-0.813965,0.185303,-0.447266,0.167787,0.021952,0.057063,0.999892,0.010037,-0.009903,-0.004172,0.615051,-0.307675,-0.430381,-0.584654
30604,NaN,17.151969,2.182533,5.719696,0.104058,-2.245987,8.259205,2.332309,-2.081804,-0.657379,-0.828125,0.163818,-0.438721,0.170979,0.020580,0.059223,0.999872,0.011661,-0.010409,-0.003287,0.610719,-0.307139,-0.444160,-0.579145
30605,NaN,15.896635,2.357981,3.971109,0.417238,-2.865065,6.485618,2.379390,-2.110272,-0.405616,-0.834473,0.157471,-0.423828,0.158580,0.022770,0.041660,0.999872,0.011896,-0.010551,-0.002028,0.608435,-0.305045,-0.458059,-0.571784
30606,NaN,12.839240,1.836489,-2.136187,1.284476,-6.799963,1.362447,3.026188,-2.092803,-0.211473,-0.844482,0.140137,-0.408936,0.128624,0.018536,-0.019737,0.999830,0.015130,-0.010463,-0.001057,0.607458,-0.302180,-0.473694,-0.561512
30607,NaN,9.149691,-0.059237,-2.578253,-0.172569,-5.864331,-2.333151,3.139344,-2.268707,-0.210496,-0.850342,0.129395,-0.391846,0.091781,-0.000295,-0.024749,0.999812,0.015696,-0.011343,-0.001052,0.606123,-0.298460,-0.489627,-0.551183
30608,NaN,7.202917,-0.392438,0.140820,-1.070209,-2.571667,-3.157275,3.014327,-2.550069,-0.294497,-0.860352,0.112305,-0.374756,0.071998,-0.004060,0.002266,0.999804,0.015071,-0.012750,-0.001472,0.603397,-0.296457,-0.506590,-0.539808
30609,NaN,7.578195,0.889463,-0.356332,0.180967,-2.669141,-2.658266,2.941612,-2.654166,-0.328525,-0.872559,0.097168,-0.349121,0.075834,0.008811,-0.002427,0.999802,0.014707,-0.013270,-0.001643,0.600029,-0.293856,-0.522923,-0.529307
30610,NaN,7.959003,1.242848,-1.781373,0.872115,-3.755281,-2.519193,3.627151,-2.660324,-0.180301,-0.878662,0.086426,-0.334229,0.079827,0.012664,-0.016525,0.999747,0.018134,-0.013300,-0.000901,0.597998,-0.290035,-0.541360,-0.514983
30611,NaN,9.212936,2.179877,-4.183464,2.418677,-5.739113,-1.546498,4.151408,-2.877067,-0.059620,-0.884521,0.077881,-0.306641,0.092721,0.022615,-0.040040,0.999681,0.020755,-0.014384,-0.000298,0.595887,-0.284778,-0.560563,-0.499588
30612,NaN,10.234831,2.225493,-2.998828,1.888119,-4.543810,-0.093059,4.347629,-2.848801,0.274908,-0.888184,0.060547,-0.287598,0.102726,0.023020,-0.028032,0.999661,0.021736,-0.014242,0.001374,0.595033,-0.279760,-0.580312,-0.480529
30613,NaN,12.421679,3.195081,-2.206299,2.066333,-3.575527,2.528227,4.075893,-2.919300,0.406819,-0.901123,0.069092,-0.260010,0.124449,0.032620,-0.019587,0.999684,0.020377,-0.014595,0.002034,0.593054,-0.275741,-0.598036,-0.463258
30614,NaN,13.730142,4.325304,-1.714495,2.534464,-2.400476,4.256881,3.604172,-2.830029,0.430769,-0.904785,0.053955,-0.238770,0.137424,0.043825,-0.014414,0.999735,0.018019,-0.014149,0.002154,0.590869,-0.272697,-0.615137,-0.445102
30615,NaN,14.508218,5.020808,-1.160135,2.577414,-1.229178,5.315542,3.259584,-2.619404,0.459541,-0.904785,0.053955,-0.217529,0.145094,0.050701,-0.008877,0.999779,0.016297,-0.013096,0.002298,0.588150,-0.270251,-0.629366,-0.430049
30616,NaN,14.956675,5.070176,-1.604581,2.618972,-1.110366,5.803727,2.827890,-2.139258,0.518693,-0.915283,0.058105,-0.200684,0.149589,0.051295,-0.013723,0.999839,0.014139,-0.010696,0.002593,0.587191,-0.266929,-0.642444,-0.413790
30617,NaN,15.505723,4.638956,-1.609913,2.041880,-0.985699,6.292695,2.471230,-1.875282,0.539552,-0.915283,0.058105,-0.183838,0.155069,0.046990,-0.014067,0.999876,0.012356,-0.009376,0.002698,0.585509,-0.265255,-0.652262,-0.401712
30618,NaN,14.823545,3.472301,-1.064810,0.806211,-0.664577,5.413206,2.135792,-1.560664,0.569227,-0.911133,0.062256,-0.171143,0.148211,0.035248,-0.009117,0.999908,0.010679,-0.007803,0.002846,0.584824,-0.263183,-0.661585,-0.388613
30619,NaN,14.059696,1.951691,-0.718162,-0.549695,-0.865836,4.362726,1.931336,-1.463212,0.595829,-0.917480,0.064453,-0.156250,0.140584,0.019997,-0.005961,0.999922,0.009656,-0.007316,0.002979,0.583638,-0.262330,-0.668781,-0.378525
30620,NaN,12.769715,0.908030,-0.958523,-1.046270,-1.280381,2.918023,1.715241,-1.346153,0.695643,-0.915527,0.068848,-0.150146,0.127725,0.009601,-0.008645,0.999935,0.008576,-0.006731,0.003478,0.583012,-0.261494,-0.676147,-0.366801
30621,NaN,12.217180,0.139546,-0.652350,-1.750228,-1.245940,2.232460,1.789075,-1.332171,0.807786,-0.922119,0.079346,-0.133301,0.122204,0.001942,-0.005694,0.999930,0.008945,-0.006661,0.004039,0.582288,-0.261437,-0.682208,-0.356629
30622,NaN,10.904932,-0.592891,-0.011139,-2.470594,-0.911132,0.786044,2.009957,-1.263105,0.868654,-0.919922,0.081543,-0.124756,0.109072,-0.005458,0.000521,0.999920,0.010050,-0.006315,0.004343,0.582361,-0.260270,-0.689255,-0.343572
30623,NaN,9.078886,-0.593990,0.844927,-2.675659,-0.021714,-1.075893,2.322756,-1.458035,1.086951,-0.928711,0.090088,-0.107910,0.090755,-0.005549,0.009045,0.999891,0.011613,-0.007290,0.005435,0.582163,-0.259731,-0.696001,-0.330466
30624,NaN,9.428206,-0.090496,0.504499,-2.170227,0.230730,-0.626450,2.930064,-1.926497,1.338691,-0.926758,0.100830,-0.095215,0.094231,-0.000357,0.005945,0.999824,0.014649,-0.009632,0.006693,0.581369,-0.259114,-0.705191,-0.312372
30625,NaN,10.618981,1.411146,-1.448623,-0.040921,0.048373,0.996603,2.917676,-1.825216,1.450760,-0.924805,0.111328,-0.078369,0.106208,0.015082,-0.013302,0.999826,0.014588,-0.009126,0.007253,0.580877,-0.258555,-0.713051,-0.295447
30626,NaN,11.653923,4.287305,-3.319337,3.074481,1.063600,2.621947,1.936199,-1.238662,1.495479,-0.925049,0.119873,-0.074219,0.116414,0.044058,-0.032049,0.999906,0.009681,-0.006193,0.007477,0.581024,-0.260417,-0.717917,-0.281407
30627,NaN,11.512914,5.952408,-5.948852,6.131471,0.641307,3.046414,0.651805,-0.445138,1.446584,-0.921387,0.141357,-0.068115,0.114825,0.060548,-0.059037,0.999966,0.003259,-0.002226,0.007233,0.582290,-0.264335,-0.718219,-0.274273
30628,NaN,10.245667,4.037724,-6.520643,5.503245,-0.957417,1.702086,0.769276,-0.491677,1.279908,-0.923584,0.143555,-0.070312,0.102354,0.041282,-0.064797,0.999969,0.003846,-0.002458,0.006399,0.583373,-0.266748,-0.719778,-0.265409
30629,NaN,9.758160,2.845469,-4.939054,3.707096,-0.572856,0.847490,0.555216,-0.882133,1.167394,-0.919922,0.158447,-0.057617,0.097629,0.029161,-0.048880,0.999969,0.002776,-0.004411,0.005837,0.582469,-0.270494,-0.721509,-0.258819
30630,NaN,9.324360,3.019256,-3.140016,2.648711,0.936130,0.088123,-0.162996,-0.908752,1.043279,-0.919922,0.164795,-0.055664,0.093226,0.030654,-0.031001,0.999976,-0.000815,-0.004544,0.005216,0.580631,-0.274158,-0.723791,-0.252651
30631,NaN,10.327919,4.248529,-2.924403,3.226119,2.136765,1.063591,-1.281717,0.104425,1.069185,-0.924561,0.173340,-0.055664,0.103035,0.042848,-0.029572,0.999965,-0.006409,0.000522,0.005346,0.580581,-0.281609,-0.720378,-0.254318
30632,NaN,9.401154,2.565680,-2.649577,2.084425,1.055749,0.012012,-1.287632,0.310130,0.793831,-0.918457,0.182129,-0.055664,0.093868,0.025858,-0.026807,0.999970,-0.006438,0.001551,0.003969,0.581555,-0.284880,-0.718473,-0.253837
30633,NaN,9.886488,1.737434,-1.588961,0.747197,1.269155,0.243000,-1.337513,-0.197159,0.711768,-0.922852,0.192627,-0.053711,0.098818,0.017620,-0.015909,0.999971,-0.006688,-0.000986,0.003559,0.579827,-0.291570,-0.716315,-0.256282
30634,NaN,11.230509,0.899550,-1.599891,-0.032153,0.850471,1.534936,-2.903702,0.280877,0.419253,-0.920654,0.188477,-0.057861,0.112263,0.008996,-0.016287,0.999891,-0.014518,0.001404,0.002096,0.577639,-0.298539,-0.712756,-0.263035
30635,NaN,9.692199,-0.819720,-0.945680,-1.453287,-0.096303,-0.149189,-3.567567,0.981522,0.032812,-0.918701,0.192627,-0.053711,0.096876,-0.008354,-0.009784,0.999829,-0.017837,0.004907,0.000164,0.575755,-0.307619,-0.705059,-0.277071
30636,NaN,10.407272,0.751632,0.019599,-1.025823,1.671565,0.435717,-2.642241,0.137288,-0.599306,-0.924805,0.182129,-0.053711,0.104095,0.007206,0.000028,0.999908,-0.013211,0.000686,-0.002996,0.572641,-0.308736,-0.704239,-0.284273
30637,NaN,9.420465,4.714757,0.197278,1.977025,4.221863,-0.363893,-0.255800,-0.415473,-0.736639,-0.922607,0.177734,-0.047363,0.094373,0.046803,0.002109,0.999990,-0.001279,-0.002077,-0.003683,0.569730,-0.307464,-0.706196,-0.286636
30638,NaN,8.423696,3.437491,-0.571714,1.536806,2.738145,-1.254523,1.640974,-0.058904,-0.573358,-0.922363,0.169189,-0.055664,0.084337,0.034178,-0.005411,0.999962,0.008205,-0.000295,-0.002867,0.572505,-0.296687,-0.711775,-0.278551
30639,NaN,7.336118,1.297557,-0.507875,0.044836,1.243231,-2.449773,2.511767,0.432583,-0.569110,-0.926758,0.173584,-0.057861,0.073387,0.012831,-0.005076,0.999915,0.012558,0.002163,-0.002845,0.576928,-0.286847,-0.714819,-0.271857
30640,NaN,8.187501,0.241109,-1.062695,-0.501722,0.163146,-1.569876,1.997060,0.765732,-0.596949,-0.922119,0.160645,-0.074707,0.081841,0.002275,-0.010917,0.999938,0.009985,0.003829,-0.002985,0.582494,-0.274844,-0.717720,-0.264648
30641,NaN,9.004119,0.872572,-0.511559,-0.550450,0.975262,-0.821484,1.123271,1.346246,-0.765849,-0.924316,0.160645,-0.085205,0.090037,0.008412,-0.005674,0.999954,0.005616,0.006731,-0.003829,0.587828,-0.267033,-0.716306,-0.264683
30642,NaN,8.408052,2.142385,-0.460995,0.406063,1.768715,-1.315441,1.267894,1.531114,-0.861263,-0.926025,0.145752,-0.095703,0.084134,0.021093,-0.005119,0.999941,0.006339,0.007655,-0.004306,0.594337,-0.256053,-0.715726,-0.262556
30643,NaN,8.270757,2.538913,-0.142535,0.476585,2.167416,-1.449293,1.491953,1.090936,-0.834751,-0.924072,0.145752,-0.112549,0.082804,0.025056,-0.001689,0.999949,0.007460,0.005455,-0.004174,0.599024,-0.247189,-0.715476,-0.261078
30644,NaN,7.434633,0.957373,-0.681656,-0.066181,0.540609,-2.305479,1.949142,0.575483,-0.699553,-0.921387,0.130859,-0.114502,0.074360,0.009381,-0.006938,0.999942,0.009746,0.002877,-0.003498,0.602467,-0.237546,-0.717633,-0.256139
30645,NaN,7.565141,1.723995,-0.342574,0.121308,1.324942,-2.160870,1.909005,-0.247371,-0.630949,-0.927490,0.124268,-0.105957,0.075709,0.017032,-0.003169,0.999949,0.009545,-0.001237,-0.003155,0.603007,-0.229839,-0.721537,-0.250880
30646,NaN,6.781615,1.091223,-1.906896,0.972857,-0.167557,-2.752758,1.542390,-0.425653,-0.541698,-0.925293,0.120117,-0.105957,0.067886,0.010874,-0.018841,0.999964,0.007712,-0.002128,-0.002708,0.602110,-0.224275,-0.725499,-0.246609
30647,NaN,6.155236,1.950778,-2.455800,1.991904,0.173331,-3.200174,1.587538,-0.504871,-0.495776,-0.927246,0.117920,-0.103760,0.061662,0.019548,-0.024247,0.999962,0.007938,-0.002524,-0.002479,0.601423,-0.218314,-0.729506,-0.241765
30648,NaN,6.025460,2.096322,-1.754842,1.503313,0.759742,-3.414058,1.418617,-0.847452,-0.502738,-0.924805,0.104980,-0.099609,0.060380,0.020934,-0.017144,0.999963,0.007093,-0.004237,-0.002514,0.598482,-0.214768,-0.734147,-0.238166
30649,NaN,7.087704,1.453697,-0.038494,-0.497331,1.359377,-2.723659,1.493522,-0.908022,-0.450817,-0.931152,0.107178,-0.084717,0.070910,0.014378,0.000045,0.999959,0.007468,-0.004540,-0.002254,0.596190,-0.209719,-0.739098,-0.233045
30650,NaN,7.440851,1.515843,1.441555,-1.783889,2.332592,-2.663009,1.222770,-1.058548,-0.401331,-0.924561,0.100586,-0.080566,0.074361,0.014919,0.014901,0.999965,0.006114,-0.005293,-0.002007,0.592430,-0.207020,-0.744017,-0.229364
30651,NaN,8.425841,1.754225,0.452474,-1.193160,2.014992,-1.518634,1.302874,-1.359725,-0.384464,-0.930908,0.098389,-0.067871,0.084258,0.017348,0.005211,0.999954,0.006514,-0.006799,-0.001922,0.588251,-0.203283,-0.749904,-0.224235
30652,NaN,9.913732,1.719942,-0.390578,-1.019531,1.631193,0.071150,1.477623,-1.413417,-0.345245,-0.928711,0.096191,-0.057129,0.099191,0.017053,-0.003079,0.999946,0.007388,-0.007067,-0.001726,0.583336,-0.200861,-0.755805,-0.219392
30653,NaN,10.433229,1.220573,-0.535395,-1.447555,1.235443,0.531639,1.139806,-1.302365,-0.193045,-0.932617,0.087646,-0.042236,0.104376,0.012133,-0.004605,0.999962,0.005699,-0.006512,-0.000965,0.579323,-0.198230,-0.761021,-0.214328
30654,NaN,10.168335,1.098768,-1.011178,-1.194868,0.940897,0.351466,0.679615,-1.369337,-0.063326,-0.928223,0.087646,-0.029541,0.101753,0.010988,-0.009378,0.999971,0.003398,-0.006847,-0.000317,0.574093,-0.199005,-0.765529,-0.211610
30655,NaN,9.497558,1.275520,-1.048185,-1.022811,1.121104,-0.293044,0.705882,-1.765166,0.037641,-0.928223,0.091797,-0.014893,0.095060,0.012808,-0.009598,0.999955,0.003529,-0.008826,0.000188,0.568051,-0.198984,-0.771272,-0.207031
30656,NaN,10.461044,1.196903,-1.265008,-1.331394,1.149796,0.645114,0.693303,-2.462650,0.128144,-0.923828,0.091797,0.008301,0.104748,0.012077,-0.011319,0.999918,0.003466,-0.012313,0.000641,0.558785,-0.201535,-0.778540,-0.202531
30657,NaN,11.228737,1.176267,-0.409642,-2.452612,1.833876,1.061623,0.973671,-2.449832,0.213048,-0.924072,0.098145,0.029541,0.112313,0.011898,-0.002663,0.999913,0.004868,-0.012249,0.001065,0.550395,-0.202109,-0.786089,-0.195656
30658,NaN,11.899662,1.198924,-0.260752,-2.965558,2.184269,1.568685,0.994719,-2.127986,0.471881,-0.921875,0.102539,0.044189,0.118986,0.012279,-0.001281,0.999928,0.004973,-0.010640,0.002359,0.543375,-0.203198,-0.792490,-0.188187
30659,NaN,12.980434,1.071320,-0.346697,-3.480853,2.332937,2.524099,1.272698,-1.609446,0.377531,-0.924072,0.104492,0.054688,0.129806,0.010976,-0.002353,0.999946,0.006363,-0.008047,0.001888,0.538614,-0.202742,-0.797635,-0.180470
30660,NaN,13.424200,0.945360,-0.850401,-3.385913,2.181232,3.055972,1.004321,-0.697894,0.560515,-0.922363,0.115234,0.061035,0.134243,0.009871,-0.007987,0.999977,0.005022,-0.003489,0.002803,0.537004,-0.204318,-0.799489,-0.175210
30661,NaN,13.884579,0.806162,-1.648517,-2.982369,1.835366,3.747735,0.857398,-0.032378,0.634274,-0.920410,0.123779,0.065186,0.138822,0.008572,-0.016427,0.999986,0.004287,-0.000162,0.003171,0.538297,-0.204579,-0.799669,-0.170041
30662,NaN,14.352918,2.653134,-2.936947,-1.105281,2.942692,4.740291,0.354532,0.133145,0.578749,-0.924561,0.123779,0.063232,0.143432,0.026999,-0.029417,0.999994,0.001773,0.000666,0.002894,0.539194,-0.208303,-0.798341,-0.168910
30663,NaN,14.823789,4.100260,-3.955285,0.346373,3.823685,5.597044,0.161043,0.026815,0.579914,-0.922852,0.136719,0.058838,0.148113,0.041464,-0.039539,0.999995,0.000805,0.000134,0.002900,0.539955,-0.210162,-0.797799,-0.166728
30664,NaN,15.117575,4.677951,-3.122493,-0.062234,4.848483,5.571136,-0.085673,-0.355126,0.449541,-0.916504,0.132324,0.067139,0.151125,0.047106,-0.030977,0.999996,-0.000428,-0.001776,0.002248,0.538496,-0.214263,-0.797675,-0.166820
30665,NaN,14.933877,4.929428,-2.762389,-0.152508,5.274455,5.257395,-0.614728,-0.364519,0.391548,-0.922852,0.138672,0.065186,0.149292,0.049502,-0.027504,0.999992,-0.003074,-0.001823,0.001958,0.536704,-0.217784,-0.797718,-0.167822
30666,NaN,14.543609,4.497277,-1.119023,-1.517108,5.715598,4.259423,-0.670805,-0.436881,0.403288,-0.923096,0.140869,0.073486,0.145369,0.045229,-0.011024,0.999990,-0.003354,-0.002184,0.002016,0.534419,-0.222506,-0.797521,-0.169845
30667,NaN,14.095395,2.679141,-0.015748,-3.211591,4.744980,3.341324,-0.966564,-0.797521,0.490600,-0.918945,0.151611,0.083984,0.140887,0.027138,0.000274,0.999977,-0.004833,-0.003988,0.002453,0.530566,-0.227720,-0.798269,-0.171494
30668,NaN,13.383339,1.337076,0.244745,-3.916060,3.738349,2.501919,-0.857010,-0.802251,0.475323,-0.918701,0.145020,0.092529,0.133790,0.013701,0.002926,0.999980,-0.004285,-0.004011,0.002377,0.526507,-0.234376,-0.798424,-0.174292
30669,NaN,12.380096,1.283099,0.696824,-3.963869,3.825424,1.369984,-0.818773,-0.367179,0.454941,-0.914795,0.151611,0.094482,0.123758,0.013142,0.007142,0.999987,-0.004094,-0.001836,0.002275,0.524470,-0.238667,-0.798135,-0.175928
30670,NaN,11.302317,1.678313,1.208440,-3.711576,4.261687,0.191370,-0.866887,0.203088,0.515016,-0.919189,0.155762,0.094482,0.112992,0.017126,0.011896,0.999987,-0.004334,0.001015,0.002575,0.524748,-0.243411,-0.795810,-0.179102
30671,NaN,11.380822,2.349237,1.635643,-3.574304,5.078360,0.144749,-0.922813,0.719736,0.568319,-0.919434,0.166504,0.083984,0.113798,0.023890,0.015837,0.999979,-0.004614,0.003599,0.002842,0.526985,-0.247446,-0.792387,-0.182153
30672,NaN,12.106104,2.202335,1.156873,-3.376299,4.833050,1.049462,-0.773977,1.109839,0.521164,-0.923584,0.162354,0.075439,0.121064,0.022382,0.010811,0.999974,-0.003870,0.005549,0.002606,0.530891,-0.251626,-0.787451,-0.186443
30673,NaN,11.421014,1.944442,1.647116,-3.534918,4.745007,0.282896,-0.428450,1.067310,0.575423,-0.926025,0.173096,0.071289,0.114239,0.019807,0.015819,0.999979,-0.002142,0.005337,0.002877,0.535078,-0.254031,-0.783479,-0.187939
30674,NaN,12.747342,3.887204,-0.352267,-1.124767,5.391646,2.327840,-0.590383,0.876968,0.464652,-0.921875,0.173096,0.062744,0.127365,0.039156,-0.004197,0.999983,-0.002952,0.004385,0.002323,0.538402,-0.257037,-0.779472,-0.190994
30675,NaN,14.261317,3.375645,-3.213791,0.442835,3.558302,4.755933,-0.085041,1.800191,0.397543,-0.928467,0.175293,0.041504,0.142249,0.034025,-0.033434,0.999957,-0.000425,0.009001,0.001988,0.545664,-0.257088,-0.774001,-0.192558
30676,NaN,13.920072,1.418086,-2.589241,-0.793099,2.144197,4.231601,1.665102,3.040240,0.474937,-0.930908,0.186035,0.007568,0.138752,0.014737,-0.027883,0.999847,0.008325,0.015200,0.002375,0.560247,-0.251435,-0.766183,-0.189385
30677,NaN,13.918011,1.268519,-1.915964,-0.976470,2.246172,4.078779,3.498378,3.622024,0.441339,-0.933350,0.188477,-0.026123,0.138777,0.013354,-0.021446,0.999681,0.017490,0.018108,0.002206,0.578757,-0.239819,-0.758552,-0.179239
30678,NaN,15.393060,1.473322,-0.975733,-1.503440,2.961584,5.320832,2.860448,2.950543,0.022598,-0.933594,0.192627,-0.053711,0.153765,0.014910,-0.011814,0.999789,0.014301,0.014752,0.000113,0.593450,-0.229454,-0.751833,-0.172958
30679,NaN,15.410349,1.287528,-4.742666,1.742012,0.624086,6.255890,1.382625,1.809796,-0.499106,-0.942139,0.190674,-0.068359,0.153699,0.012825,-0.048730,0.999932,0.006913,0.009049,-0.002495,0.601367,-0.221897,-0.748181,-0.171303
30680,NaN,17.109004,-0.800211,-3.537792,-0.486158,-0.507011,7.662277,0.966549,1.394575,-0.905129,-0.939697,0.175781,-0.087402,0.170800,-0.008601,-0.036610,0.999954,0.004833,0.006973,-0.004526,0.606406,-0.217439,-0.744524,-0.175147
30681,NaN,17.614406,-2.812298,-4.907758,-0.305941,-3.264348,8.393906,-0.801950,2.993026,-1.592829,-0.941406,0.158691,-0.110352,0.175152,-0.029724,-0.051587,0.999848,-0.004010,0.014964,-0.007964,0.615188,-0.211289,-0.736367,-0.186187
30682,NaN,14.045975,-0.900752,-6.215800,2.572066,-3.200011,5.014912,-0.887083,2.763009,-1.900147,-0.938965,0.150146,-0.131592,0.139488,-0.010617,-0.064045,0.999850,-0.004435,0.013814,-0.009500,0.622397,-0.205854,-0.728156,-0.200088
30683,NaN,11.757023,-2.758802,-8.609052,3.946757,-6.570329,2.883714,-0.338114,1.526959,-1.736102,-0.940674,0.130859,-0.142090,0.116662,-0.028750,-0.086936,0.999932,-0.001691,0.007635,-0.008680,0.625829,-0.199046,-0.724803,-0.208278
30684,NaN,11.025242,-2.441628,-9.114232,4.616806,-6.910675,2.083072,0.660375,1.033879,-2.009445,-0.946289,0.107422,-0.148193,0.109528,-0.025217,-0.091792,0.999931,0.003302,0.005169,-0.010047,0.627329,-0.191702,-0.723105,-0.216398
30685,NaN,10.159623,-0.455358,-7.669836,4.662801,-4.633621,1.097750,1.538919,0.702641,-2.247832,-0.950195,0.092285,-0.154297,0.101271,-0.005101,-0.077092,0.999901,0.007694,0.003513,-0.011239,0.628850,-0.177970,-0.724649,-0.218535
30686,NaN,12.746537,3.858895,-2.561184,2.267483,1.498920,3.473758,1.436071,0.387357,-2.470926,-0.947266,0.068848,-0.166748,0.127881,0.037195,-0.025589,0.999896,0.007180,0.001937,-0.012354,0.627854,-0.167247,-0.726219,-0.224574
30687,NaN,14.764480,2.941470,1.482711,-1.861095,2.419617,5.002477,-0.990843,3.437816,-2.210916,-0.945068,0.056152,-0.200684,0.148183,0.027843,0.012142,0.999779,-0.004954,0.017188,-0.011054,0.636886,-0.158434,-0.716004,-0.237935
30688,NaN,10.878620,0.956939,-4.734729,3.032492,-2.947912,1.311715,-4.805765,4.161581,-1.920803,-0.936279,0.041260,-0.238525,0.107845,0.007353,-0.049793,0.999449,-0.024024,0.020804,-0.009602,0.644061,-0.165273,-0.697158,-0.268032
30689,NaN,14.661746,3.133509,-12.446483,10.152131,-7.303967,5.120865,-9.054978,4.618193,-2.281031,-0.930420,0.052002,-0.289307,0.143974,0.023909,-0.129006,0.998644,-0.045254,0.023081,-0.011400,0.648744,-0.180063,-0.671101,-0.310374
30690,NaN,17.129449,11.091431,-3.825931,9.088580,1.867021,8.746404,-11.742104,6.656026,-1.932522,-0.903809,0.071533,-0.355225,0.170797,0.106543,-0.050296,0.997677,-0.058665,0.033254,-0.009655,0.655752,-0.201190,-0.631282,-0.361932
30691,NaN,7.862658,1.805352,1.531923,0.066980,0.286752,-1.609398,-9.462842,7.188706,-1.136208,-0.891357,0.082275,-0.399658,0.079192,0.018213,0.011619,0.998219,-0.047286,0.035922,-0.005678,0.665693,-0.215255,-0.590630,-0.402087
30692,NaN,6.836185,1.336102,-0.343284,1.151981,-1.547548,-3.111413,-5.117860,2.976630,-1.515200,-0.885254,0.086670,-0.416748,0.068395,0.012732,-0.004782,0.999533,-0.025585,0.014881,-0.007575,0.665458,-0.221701,-0.571672,-0.425682
30693,NaN,11.183950,4.418689,-1.059174,4.090788,-2.196374,1.329401,-4.296494,2.514509,-1.558761,-0.875000,0.095459,-0.437988,0.112025,0.043053,-0.012933,0.999660,-0.021480,0.012571,-0.007793,0.664339,-0.226114,-0.555696,-0.445789
30694,NaN,7.918856,0.180656,-1.130246,0.660730,-3.641017,-2.719194,-4.241542,3.331526,-0.716054,-0.852051,0.108398,-0.461426,0.078990,0.001265,-0.012650,0.999630,-0.021205,0.016656,-0.003580,0.666683,-0.230761,-0.535665,-0.464054
30695,NaN,7.231609,-2.528396,-2.554324,-0.976658,-5.970545,-4.463932,-3.512147,2.727632,-0.602121,-0.848389,0.121094,-0.482666,0.071885,-0.025956,-0.026074,0.999748,-0.017559,0.013637,-0.003010,0.668371,-0.234470,-0.518985,-0.478496
30696,NaN,6.851280,-1.352029,-2.876907,0.144423,-5.696690,-4.856084,-3.435674,2.603407,-0.545687,-0.833740,0.127686,-0.499756,0.068095,-0.014208,-0.029417,0.999764,-0.017177,0.013016,-0.002728,0.669447,-0.238240,-0.502548,-0.492471
30697,NaN,5.710441,-0.148246,-3.481066,1.408942,-5.359343,-6.066097,-3.743088,2.588231,-0.398783,-0.832520,0.149170,-0.518799,0.056644,-0.002256,-0.035508,0.999739,-0.018714,0.012940,-0.001994,0.670336,-0.243332,-0.485013,-0.506164
30698,NaN,4.841313,-0.431330,-3.041898,0.875046,-4.834346,-6.856620,-3.607851,2.329375,-0.351200,-0.820068,0.159912,-0.538086,0.048047,-0.004952,-0.030895,0.999768,-0.018038,0.011646,-0.001756,0.670422,-0.248582,-0.468448,-0.518940
30699,NaN,3.816315,-0.074323,-2.401828,0.876295,-3.795582,-7.540514,-3.422758,2.140277,-0.270285,-0.809814,0.175049,-0.544434,0.037902,-0.001210,-0.024407,0.999795,-0.017113,0.010701,-0.001351,0.670342,-0.253819,-0.452633,-0.530415
30700,NaN,2.608384,-0.969218,-1.931511,-0.216678,-3.146694,-8.577915,-3.072280,1.750267,-0.228392,-0.797852,0.192139,-0.555176,0.025903,-0.010019,-0.019390,0.999843,-0.015361,0.008751,-0.001142,0.669651,-0.258830,-0.438989,-0.540243
30701,NaN,2.565794,-1.162370,-1.152259,-0.686389,-2.550872,-8.301433,-2.826944,1.613085,-0.082785,-0.789551,0.205078,-0.563965,0.025560,-0.011798,-0.011563,0.999867,-0.014134,0.008065,-0.000414,0.669221,-0.263723,-0.426002,-0.548740
30702,NaN,2.485130,-1.070717,-0.550404,-0.792214,-1.998188,-8.079233,-2.630663,1.428631,-0.030943,-0.781494,0.218018,-0.568115,0.024810,-0.010784,-0.005540,0.999888,-0.013153,0.007143,-0.000155,0.668650,-0.268417,-0.414193,-0.556151
30703,NaN,2.524478,-1.020842,-0.173534,-0.846981,-1.703385,-7.856590,-2.406765,1.238809,-0.037624,-0.777832,0.230713,-0.576904,0.025232,-0.010234,-0.001769,0.999908,-0.012033,0.006194,-0.000188,0.667820,-0.272917,-0.403372,-0.562871
30704,NaN,2.316172,-0.890049,-0.045911,-0.759984,-1.464345,-7.958755,-2.056532,1.006263,-0.057057,-0.771484,0.237305,-0.581055,0.023157,-0.008912,-0.000484,0.999934,-0.010282,0.005031,-0.000285,0.666894,-0.276731,-0.394494,-0.568372
30705,NaN,2.129668,-0.856007,-0.028584,-0.740059,-1.345209,-8.106295,-1.663523,0.731250,-0.096327,-0.773926,0.247803,-0.574707,0.021291,-0.008573,-0.000292,0.999959,-0.008318,0.003656,-0.000482,0.665733,-0.280000,-0.387445,-0.572962
30706,NaN,2.363379,-0.597059,0.741287,-0.624107,-0.797215,-7.474637,-1.351957,0.474779,-0.151950,-0.765625,0.254395,-0.581299,0.023647,-0.005939,0.007397,0.999974,-0.006760,0.002374,-0.000760,0.664366,-0.282776,-0.382414,-0.576555
30707,NaN,2.657786,-0.160979,2.133189,-0.421997,0.250301,-6.436379,-1.277972,0.306622,-0.231735,-0.772217,0.260742,-0.574951,0.026609,-0.001504,0.021301,0.999978,-0.006390,0.001533,-0.001159,0.662463,-0.285688,-0.378031,-0.580188
30708,NaN,2.847137,-0.036974,2.932217,-0.403844,0.816662,-5.828297,-1.218722,0.155640,-0.308431,-0.768066,0.258545,-0.572754,0.028494,-0.000235,0.029302,0.999980,-0.006094,0.000778,-0.001542,0.660160,-0.288638,-0.374621,-0.583555
30709,NaN,3.108520,-0.434237,3.173178,-0.799197,0.812306,-5.497376,-1.106668,-0.019782,-0.385994,-0.770508,0.271484,-0.577148,0.031074,-0.004227,0.031758,0.999983,-0.005533,-0.000099,-0.001930,0.657389,-0.291622,-0.372008,-0.586862
30710,NaN,3.316173,-0.849415,3.144934,-1.181383,0.630309,-5.361158,-1.007897,-0.182096,-0.456719,-0.774658,0.269287,-0.572754,0.033114,-0.008411,0.031522,0.999984,-0.005039,-0.000910,-0.002284,0.654282,-0.294569,-0.370494,-0.589812
30711,NaN,3.236047,-0.997208,2.913635,-1.288616,0.487642,-5.563298,-0.889679,-0.331347,-0.537967,-0.774658,0.271484,-0.568604,0.032285,-0.009929,0.029234,0.999985,-0.004448,-0.001657,-0.002690,0.650762,-0.297457,-0.369741,-0.592722
30712,NaN,3.181195,-1.080490,2.787155,-1.356586,0.432228,-5.686132,-0.679159,-0.523842,-0.635691,-0.782959,0.267090,-0.562256,0.031704,-0.010811,0.027991,0.999986,-0.003396,-0.002619,-0.003178,0.646966,-0.299989,-0.370540,-0.595098
30713,NaN,3.124205,-0.977477,2.557137,-1.236824,0.316958,-5.859871,-0.411657,-0.704334,-0.694708,-0.793457,0.264893,-0.553711,0.031118,-0.009830,0.025701,0.999986,-0.002058,-0.003522,-0.003474,0.642968,-0.302126,-0.372631,-0.597041
30714,NaN,2.892252,-1.448766,2.466005,-1.713547,0.353819,-6.140682,-0.119540,-0.884385,-0.659788,-0.793213,0.256348,-0.549561,0.028765,-0.014568,0.024796,0.999985,-0.000598,-0.004422,-0.003299,0.639205,-0.303897,-0.376237,-0.597921
30715,NaN,2.535679,-1.865317,2.754544,-2.183284,0.785197,-6.332302,0.209711,-1.161863,-0.590356,-0.805664,0.250000,-0.536621,0.025141,-0.018757,0.027672,0.999978,0.001049,-0.005809,-0.002952,0.635559,-0.305584,-0.381466,-0.597634
30716,NaN,2.471370,-2.510291,3.565089,-2.948963,1.486989,-6.042930,0.516277,-1.530966,-0.492224,-0.812012,0.243408,-0.528076,0.024378,-0.025255,0.035773,0.999964,0.002581,-0.007655,-0.002461,0.631998,-0.307553,-0.388715,-0.595726
30717,NaN,3.183294,-2.378001,5.095928,-3.062039,2.506385,-4.704127,0.782078,-1.865414,-0.418238,-0.828613,0.234863,-0.510986,0.031306,-0.024046,0.051159,0.999947,0.003910,-0.009327,-0.002091,0.628297,-0.309810,-0.397562,-0.592626
30718,NaN,6.231673,-2.073964,5.966467,-3.004138,1.880123,-1.678103,0.931160,-1.940852,-0.349493,-0.832520,0.228516,-0.500488,0.061698,-0.021127,0.060168,0.999941,0.004656,-0.009704,-0.001747,0.624835,-0.311953,-0.406959,-0.588772
30719,NaN,10.564168,-1.975338,3.676420,-2.787702,-2.027910,1.010082,1.336238,-1.894570,-0.353366,-0.840820,0.219727,-0.489746,0.105253,-0.020189,0.037629,0.999931,0.006681,-0.009473,-0.001767,0.621981,-0.312616,-0.417335,-0.584160
30720,NaN,14.275395,-1.686303,0.416192,-2.211834,-6.394480,2.876596,1.527723,-1.702099,-0.365896,-0.853027,0.207031,-0.479004,0.142681,-0.017161,0.005246,0.999933,0.007638,-0.008510,-0.001829,0.619803,-0.312063,-0.427654,-0.579286
30721,NaN,14.409612,-1.806335,0.983271,-2.531677,-5.781993,3.303009,1.500244,-1.660121,-0.415975,-0.865479,0.200439,-0.464111,0.143971,-0.018442,0.010891,0.999935,0.007501,-0.008300,-0.002080,0.617349,-0.311314,-0.437766,-0.574738
30722,NaN,14.731535,0.815632,4.302146,-0.718571,-2.361704,5.355992,1.777641,-1.876149,-0.387040,-0.871582,0.189697,-0.451416,0.146918,0.007481,0.044469,0.999915,0.008888,-0.009380,-0.001935,0.614986,-0.310381,-0.449314,-0.568835
30723,NaN,15.217921,1.843594,4.668639,0.005723,-1.794020,6.110620,1.713312,-1.828620,-0.313877,-0.883789,0.178955,-0.436523,0.151771,0.017789,0.048230,0.999920,0.008566,-0.009143,-0.001569,0.612595,-0.309585,-0.460261,-0.563066
30724,NaN,14.369777,1.502678,5.163905,-0.567636,-0.790229,5.499383,1.837592,-1.695989,-0.296459,-0.885742,0.170410,-0.427979,0.143274,0.014331,0.052989,0.999921,0.009188,-0.008480,-0.001482,0.610782,-0.308076,-0.471145,-0.556828
30725,NaN,13.709792,1.990304,2.401489,0.421832,-2.682950,3.982378,2.036029,-1.681331,-0.275641,-0.895996,0.159668,-0.417236,0.136915,0.019461,0.025366,0.999912,0.010180,-0.008406,-0.001378,0.609137,-0.305865,-0.482331,-0.550233
30726,NaN,11.670442,2.119723,0.107966,1.150227,-3.733217,1.387278,2.221982,-1.662168,-0.269982,-0.897705,0.144531,-0.402344,0.116717,0.021019,0.002284,0.999903,0.011110,-0.008311,-0.001350,0.607898,-0.302996,-0.494003,-0.542784
30727,NaN,9.509169,2.252258,-0.341877,1.477285,-3.126860,-0.666661,2.489052,-1.820022,-0.277245,-0.909912,0.133789,-0.391602,0.095147,0.022424,-0.002274,0.999880,0.012445,-0.009100,-0.001386,0.606349,-0.299651,-0.506650,-0.534655
30728,NaN,8.679525,2.431958,0.164123,1.483535,-2.124439,-1.178093,2.631585,-2.123652,-0.204395,-0.913818,0.123047,-0.374512,0.086794,0.024198,0.002882,0.999857,0.013157,-0.010618,-0.001022,0.604468,-0.296761,-0.520540,-0.524966
30729,NaN,8.905093,2.781827,-0.287609,1.840235,-2.281125,-0.951211,2.804018,-2.184117,-0.140703,-0.926270,0.114258,-0.351318,0.089092,0.027783,-0.001514,0.999842,0.014019,-0.010920,-0.000703,0.602479,-0.293608,-0.534628,-0.514768
30730,NaN,8.502305,2.745639,-1.265465,2.103347,-2.803723,-1.497761,3.047512,-2.181382,-0.067757,-0.930176,0.110107,-0.336426,0.085161,0.027607,-0.011306,0.999824,0.015237,-0.010906,-0.000339,0.600996,-0.289781,-0.549247,-0.503148
30731,NaN,8.506260,2.065545,-1.404158,1.465524,-2.908042,-1.567431,3.149884,-2.272217,0.106449,-0.944824,0.099365,-0.319336,0.085201,0.020908,-0.012746,0.999811,0.015748,-0.011360,0.000532,0.599475,-0.286271,-0.563742,-0.490790
30732,NaN,8.953727,1.921935,-1.280923,1.181151,-2.712759,-1.052361,3.206967,-2.298870,0.222636,-0.948486,0.088379,-0.291748,0.089653,0.019510,-0.011468,0.999805,0.016034,-0.011494,0.001113,0.598135,-0.282843,-0.578293,-0.477296
30733,NaN,9.747136,2.658580,-1.382855,1.722113,-2.431619,-0.060791,3.391446,-2.356974,0.318503,-0.950439,0.082031,-0.276855,0.097579,0.026958,-0.012224,0.999786,0.016956,-0.011784,0.001592,0.596748,-0.279187,-0.592861,-0.463101
30734,NaN,10.734157,3.538555,-2.298812,2.710557,-2.747699,1.055548,3.316209,-2.329529,0.378840,-0.954590,0.079834,-0.257812,0.107527,0.035950,-0.021143,0.999793,0.016580,-0.011647,0.001894,0.595314,-0.275724,-0.607071,-0.448378
30735,NaN,11.223152,3.863710,-2.492627,2.944314,-2.490454,1.685792,3.433660,-2.260643,0.493284,-0.962891,0.079834,-0.240967,0.112402,0.039320,-0.022985,0.999786,0.017167,-0.011302,0.002466,0.594164,-0.272012,-0.620687,-0.433273
30736,NaN,12.646372,4.674791,-3.857526,4.038865,-3.100061,3.253438,3.133816,-2.245337,0.453111,-0.967041,0.077637,-0.217529,0.126773,0.047617,-0.036412,0.999812,0.015668,-0.011226,0.002265,0.592414,-0.268829,-0.633689,-0.418587
30737,NaN,13.574588,5.952117,-4.007331,4.942005,-2.265959,4.546164,2.866794,-2.215648,0.398001,-0.971191,0.079590,-0.192139,0.136053,0.060344,-0.037706,0.999834,0.014333,-0.011078,0.001990,0.589982,-0.266193,-0.645612,-0.405275
30738,NaN,14.809807,6.138895,-3.950544,4.731912,-1.801383,5.902498,2.624784,-2.038386,0.353937,-0.973145,0.075195,-0.181641,0.148375,0.062150,-0.037182,0.999860,0.013123,-0.010191,0.001770,0.587530,-0.263630,-0.656672,-0.392542
30739,NaN,14.567967,5.306496,-2.931001,3.392222,-0.978190,5.565824,2.166331,-1.759289,0.354952,-0.977539,0.079590,-0.166748,0.145832,0.053628,-0.027449,0.999901,0.010831,-0.008796,0.001775,0.585247,-0.261861,-0.665560,-0.382027
30740,NaN,13.565364,3.883230,-1.698948,1.606376,-0.346177,4.303849,1.801264,-1.680502,0.445452,-0.975342,0.079346,-0.147705,0.135701,0.039279,-0.015497,0.999922,0.009006,-0.008402,0.002227,0.582807,-0.261128,-0.673616,-0.372008
30741,NaN,13.053390,4.327248,-1.360108,1.737129,0.520610,3.886551,1.344065,-1.876384,0.463881,-0.975098,0.079346,-0.133057,0.130551,0.043660,-0.012084,0.999931,0.006720,-0.009382,0.002319,0.579064,-0.262248,-0.680933,-0.363650
30742,NaN,11.316884,1.773081,0.198296,-0.937334,0.605203,1.589345,1.667426,-1.459272,0.775171,-0.983887,0.090088,-0.122559,0.113080,0.018147,0.002958,0.999931,0.008337,-0.007296,0.003876,0.577612,-0.262559,-0.687452,-0.353324
30743,NaN,11.494850,2.527034,1.317292,-1.130771,2.165173,1.775269,1.570739,-1.689338,0.953246,-0.979980,0.102783,-0.103516,0.114709,0.025708,0.014343,0.999922,0.007853,-0.008446,0.004766,0.575505,-0.264266,-0.693801,-0.342924
30744,NaN,10.665257,3.009414,-0.589669,0.532498,1.254438,1.200469,1.351749,-1.553257,1.226476,-0.982178,0.111328,-0.088867,0.106506,0.030783,-0.004863,0.999928,0.006759,-0.007766,0.006132,0.573900,-0.267191,-0.699194,-0.332229
30745,NaN,11.646448,3.356256,-1.978652,1.468271,0.664715,2.361655,1.351136,-1.430077,1.456993,-0.982666,0.124268,-0.082520,0.116352,0.034539,-0.018723,0.999925,0.006756,-0.007150,0.007285,0.573082,-0.270766,-0.703544,-0.321386
30746,NaN,11.449300,0.991868,-2.634339,0.204653,-1.097610,1.924346,1.569800,-0.863178,1.629569,-0.982910,0.130615,-0.078369,0.114518,0.011055,-0.025765,0.999927,0.007849,-0.004316,0.008148,0.574664,-0.273285,-0.706543,-0.309634
30747,NaN,11.019820,0.914476,-1.486160,-0.431641,-0.072013,1.335660,1.620369,-0.982080,1.493424,-0.979248,0.152100,-0.070068,0.110196,0.010085,-0.014241,0.999927,0.008102,-0.004910,0.007467,0.575677,-0.275409,-0.709783,-0.298251
30748,NaN,10.163345,-0.867824,-3.306975,-0.336030,-2.473909,0.615534,-0.034927,-0.563647,1.332136,-0.977295,0.160645,-0.065918,0.101781,-0.008006,-0.032782,0.999974,-0.000175,-0.002818,0.006661,0.575548,-0.280908,-0.709785,-0.293326
30749,NaN,7.997855,-1.904253,-0.308668,-2.608076,-0.963512,-2.069598,0.632502,-0.552203,1.435717,-0.975586,0.175537,-0.061768,0.080121,-0.018458,-0.002925,0.999965,0.003162,-0.002761,0.007179,0.576560,-0.284987,-0.710263,-0.286160
30750,NaN,10.172600,1.871802,0.553317,-0.704483,2.498151,0.214900,0.301009,-0.322409,1.476762,-0.976074,0.192871,-0.055664,0.101575,0.019460,0.005726,0.999970,0.001505,-0.001612,0.007384,0.577901,-0.289645,-0.709783,-0.279901
30751,NaN,11.566021,3.138686,-4.069042,3.150677,0.156936,2.444080,-1.176769,0.359464,1.264426,-0.974365,0.203369,-0.060059,0.115386,0.031876,-0.041085,0.999961,-0.005884,0.001797,0.006322,0.579218,-0.297021,-0.705240,-0.280929
30752,NaN,10.224572,2.032259,-4.189500,2.728524,-0.820136,1.054921,-1.646200,0.826396,0.985702,-0.968018,0.207764,-0.064209,0.101970,0.020478,-0.042485,0.999945,-0.008231,0.004132,0.004928,0.580975,-0.303961,-0.699302,-0.284697
30753,NaN,8.613947,1.783361,-2.476062,1.762761,0.076405,-0.846244,-2.521592,0.727300,0.793432,-0.972656,0.220703,-0.066406,0.085977,0.017858,-0.025299,0.999906,-0.012608,0.003636,0.003967,0.580759,-0.313000,-0.692330,-0.292283
30754,NaN,11.704334,2.176709,-2.756344,1.895902,0.297983,2.255531,-3.872155,0.427251,0.436939,-0.966553,0.224854,-0.068604,0.116936,0.021480,-0.028231,0.999808,-0.019360,0.002136,0.002185,0.576655,-0.324882,-0.684933,-0.304611
30755,NaN,10.324096,0.372834,1.551121,-1.866232,2.398284,0.182149,-3.190762,0.652451,-0.208183,-0.974854,0.220703,-0.068604,0.103295,0.003864,0.015113,0.999867,-0.015953,0.003262,-0.001041,0.573310,-0.332335,-0.678441,-0.317153
30756,NaN,8.651683,2.969126,2.435370,-0.003326,4.416546,-1.440602,-1.637426,0.408342,-0.535212,-0.972656,0.218506,-0.072754,0.086645,0.029657,0.023934,0.999961,-0.008187,0.002042,-0.002676,0.571100,-0.334295,-0.675879,-0.324467
30757,NaN,6.846641,3.081765,0.820739,1.197242,2.983705,-2.978134,1.190742,-0.208837,-0.451642,-0.980957,0.212158,-0.076904,0.068527,0.030613,0.008462,0.999979,0.005954,-0.001044,-0.002258,0.571638,-0.329704,-0.679151,-0.321372
30758,NaN,7.135361,2.054154,-1.060972,1.336828,0.915423,-2.489209,2.790625,0.209887,-0.430096,-0.970215,0.203613,-0.072754,0.071387,0.020534,-0.010398,0.999900,0.013953,0.001049,-0.002150,0.576207,-0.319613,-0.683989,-0.313038
30759,NaN,7.725626,1.601413,-1.364405,1.051822,0.472869,-1.889215,2.276840,0.127263,-0.499369,-0.972168,0.201416,-0.081055,0.077288,0.015975,-0.013511,0.999932,0.011384,0.000636,-0.002497,0.579457,-0.311128,-0.687939,-0.306868
30760,NaN,8.348255,0.748712,-1.280464,0.228867,0.045778,-1.336907,1.613223,0.485324,-0.697496,-0.969971,0.192871,-0.097900,0.083477,0.007300,-0.012948,0.999958,0.008066,0.002427,-0.003487,0.582499,-0.303097,-0.690330,-0.303763
30761,NaN,8.597333,1.540280,0.316113,-0.201430,1.726197,-1.247327,1.454054,0.950468,-0.824490,-0.978271,0.186523,-0.099854,0.086050,0.015027,0.002862,0.999954,0.007270,0.004752,-0.004122,0.586701,-0.294562,-0.690991,-0.302567
30762,NaN,7.491249,0.567832,1.378763,-1.494923,1.771306,-2.534686,1.420096,0.599443,-0.755240,-0.979980,0.171387,-0.112549,0.074974,0.005298,0.013601,0.999963,0.007100,0.002997,-0.003776,0.589665,-0.286662,-0.692719,-0.300434
30763,NaN,6.894354,1.278001,1.009229,-0.691845,1.889169,-3.020344,1.205142,-0.333708,-0.672094,-0.979980,0.173584,-0.097656,0.068969,0.012487,0.010283,0.999975,0.006026,-0.001669,-0.003360,0.589210,-0.281279,-0.696462,-0.297751
30764,NaN,7.027730,1.915106,-0.384279,0.595402,1.290708,-2.658439,1.166360,-0.728781,-0.606508,-0.977783,0.171387,-0.095703,0.070348,0.018959,-0.003476,0.999972,0.005832,-0.003644,-0.003033,0.587335,-0.276678,-0.701373,-0.294216
30765,NaN,6.704918,2.344159,-0.783951,1.151209,1.302989,-2.881452,1.347527,-0.571812,-0.560234,-0.981689,0.160645,-0.093506,0.067136,0.023305,-0.007490,0.999969,0.006738,-0.002859,-0.002801,0.586349,-0.271592,-0.705791,-0.290331
30766,NaN,6.468686,1.539222,-1.500284,1.024457,0.257176,-3.078598,1.523891,-0.568453,-0.559109,-0.981201,0.143555,-0.089111,0.064772,0.015324,-0.014702,0.999963,0.007619,-0.002842,-0.002796,0.585479,-0.265922,-0.710556,-0.285674
30767,NaN,7.452459,1.763703,-0.273587,0.105895,1.377800,-2.275172,1.859287,-0.909701,-0.521856,-0.985596,0.149902,-0.076416,0.074581,0.017465,-0.002234,0.999943,0.009296,-0.004548,-0.002609,0.583937,-0.259913,-0.716531,-0.279366
30768,NaN,7.988853,2.411613,0.859900,-0.438371,2.720288,-1.889111,1.487442,-1.344974,-0.380877,-0.979004,0.143555,-0.072266,0.079873,0.023897,0.009314,0.999948,0.007437,-0.006725,-0.001904,0.580389,-0.256019,-0.723140,-0.273260
30769,NaN,8.453196,2.710880,0.029944,0.130560,2.457920,-1.283556,1.273467,-1.279719,-0.375552,-0.983154,0.141357,-0.057373,0.084578,0.026945,0.001012,0.999957,0.006367,-0.006399,-0.001878,0.576851,-0.252706,-0.729047,-0.268091
30770,NaN,8.720656,2.416238,-0.848024,0.380380,1.728298,-0.897847,1.517346,-0.861349,-0.440349,-0.980713,0.132812,-0.055176,0.087294,0.024032,-0.007922,0.999960,0.007587,-0.004307,-0.002202,0.574896,-0.247876,-0.734199,-0.262685
30771,NaN,8.083059,1.853862,-0.935769,0.113605,1.271684,-1.565424,1.275693,-0.946444,-0.330733,-0.987061,0.134766,-0.040283,0.080904,0.018462,-0.008857,0.999967,0.006378,-0.004732,-0.001654,0.572546,-0.244234,-0.738984,-0.257767
30772,NaN,8.386225,1.392620,-2.108205,0.482706,0.254319,-1.071240,0.539991,-1.751977,-0.122153,-0.984619,0.130615,-0.025635,0.084051,0.013930,-0.020309,0.999958,0.002700,-0.008760,-0.000611,0.566422,-0.244519,-0.744901,-0.253967
30773,NaN,9.219894,1.182002,-1.965718,-0.088893,0.378602,-0.319909,0.414852,-2.129864,0.059890,-0.984863,0.136963,-0.000244,0.092398,0.011887,-0.018649,0.999941,0.002074,-0.010649,0.000299,0.559035,-0.246261,-0.751346,-0.249628
30774,NaN,9.481696,0.926744,-1.002771,-1.158258,0.988528,-0.355183,0.366648,-2.201199,0.192516,-0.980469,0.134766,0.014648,0.094911,0.009376,-0.008966,0.999937,0.001833,-0.011006,0.000963,0.551276,-0.248779,-0.757738,-0.245024
30775,NaN,9.974976,0.434612,-0.563798,-2.060713,1.114402,-0.090833,0.365680,-2.152285,0.338051,-0.980469,0.143066,0.039795,0.099795,0.004524,-0.004556,0.999939,0.001828,-0.010761,0.001690,0.543954,-0.251677,-0.763655,-0.240010
30776,NaN,10.953360,0.393475,-0.491315,-2.539268,1.421662,0.765573,0.521226,-1.844819,0.464593,-0.980469,0.145264,0.050537,0.109563,0.004200,-0.003892,0.999951,0.002606,-0.009224,0.002323,0.537963,-0.254340,-0.768719,-0.234476
30777,NaN,11.863287,0.397431,-0.666627,-2.768239,1.601314,1.637647,0.787346,-1.282567,0.535044,-0.976318,0.151611,0.065186,0.118661,0.004316,-0.005889,0.999968,0.003937,-0.006413,0.002675,0.534640,-0.255777,-0.772390,-0.228367
30778,NaN,12.142525,0.421726,-0.951268,-2.680257,1.624301,1.964415,0.959132,-0.802806,0.597134,-0.978760,0.156006,0.065186,0.121449,0.004624,-0.009004,0.999976,0.004796,-0.004014,0.002986,0.533329,-0.256537,-0.774869,-0.222098
30779,NaN,12.577922,0.469827,-1.630555,-2.306823,1.440076,2.584365,1.033643,-0.633708,0.658712,-0.970459,0.166748,0.073486,0.125813,0.005195,-0.015881,0.999976,0.005168,-0.003169,0.003294,0.532914,-0.257033,-0.776846,-0.215514
30780,NaN,13.329799,0.857979,-2.574019,-1.612454,1.437780,3.617726,1.167311,-0.671685,0.673725,-0.974854,0.168701,0.077637,0.133353,0.009177,-0.025240,0.999972,0.005836,-0.003358,0.003369,0.532436,-0.257366,-0.779005,-0.208389
30781,NaN,14.324763,1.957350,-3.101561,-0.859097,2.322398,4.765226,0.855065,-0.803632,0.632071,-0.973145,0.183838,0.090332,0.143307,0.020157,-0.030355,0.999978,0.004275,-0.004018,0.003160,0.531049,-0.258387,-0.781208,-0.202333
30782,NaN,15.530300,3.040073,-3.488375,-0.299361,3.320084,6.045655,0.006030,-0.653044,0.525707,-0.975342,0.187988,0.092529,0.155335,0.030810,-0.034376,0.999991,0.000030,-0.003265,0.002629,0.528956,-0.261232,-0.782233,-0.200185
30783,NaN,16.394530,4.429851,-2.747868,-0.205632,5.069861,6.625335,-1.343169,0.082031,0.464108,-0.973145,0.190186,0.088135,0.163831,0.044493,-0.027844,0.999975,-0.006716,0.000410,0.002321,0.527969,-0.266514,-0.780049,-0.204308
30784,NaN,15.542490,7.165979,-0.490994,0.307093,8.327722,5.144332,-2.046996,0.295423,0.520574,-0.970947,0.187988,0.096680,0.155230,0.072007,-0.005875,0.999943,-0.010235,0.001477,0.002603,0.526818,-0.273810,-0.776378,-0.211489
30785,NaN,14.775000,6.606608,-0.060800,-0.018619,8.007391,4.252604,-1.632281,-0.918729,0.451029,-0.975342,0.190186,0.111328,0.147603,0.066395,-0.000471,0.999954,-0.008161,-0.004594,0.002255,0.521465,-0.280823,-0.776422,-0.215365
30786,NaN,15.810917,4.221356,0.350929,-2.189232,6.784326,4.921852,-1.010643,-1.075239,0.331003,-0.970947,0.190186,0.117676,0.158018,0.042495,0.004145,0.999971,-0.005053,-0.005376,0.001655,0.516128,-0.286133,-0.777528,-0.217232
30787,NaN,14.401700,2.060236,1.523566,-4.021853,5.712751,3.038900,-1.005377,-0.561321,0.336977,-0.973389,0.198486,0.128174,0.143939,0.020923,0.015535,0.999982,-0.005027,-0.002807,0.001685,0.512860,-0.290645,-0.777392,-0.219460
30788,NaN,13.062054,1.798607,1.822227,-3.966250,5.474432,1.653431,-0.949786,-0.273888,0.315013,-0.973389,0.200684,0.124023,0.130567,0.018279,0.018315,0.999987,-0.004749,-0.001369,0.001575,0.510688,-0.294895,-0.776397,-0.222355
30789,NaN,12.611721,1.665016,1.428487,-3.623596,5.065951,1.370951,-0.773180,-0.110582,0.381100,-0.973389,0.198486,0.130371,0.126077,0.016946,0.014289,0.999991,-0.003866,-0.000553,0.001905,0.509533,-0.298472,-0.775254,-0.224213
30790,NaN,13.432737,0.836007,1.688017,-4.562929,4.866656,1.997552,-0.369586,0.073694,0.396763,-0.971191,0.200684,0.121826,0.134317,0.008658,0.016815,0.999996,-0.001848,0.000368,0.001984,0.509676,-0.301185,-0.773820,-0.225213
30791,NaN,15.128621,0.583548,2.352802,-5.609227,5.532007,3.328240,-0.057731,0.570160,0.349592,-0.975830,0.209229,0.119629,0.151342,0.006107,0.023095,0.999994,-0.000289,0.002851,0.001748,0.512182,-0.302044,-0.771774,-0.225399
30792,NaN,16.061332,0.791222,1.800849,-5.243556,5.479297,4.481168,0.087689,1.262511,0.285943,-0.978027,0.209473,0.109131,0.160711,0.008134,0.016998,0.999979,0.000438,0.006313,0.001430,0.517507,-0.301814,-0.767908,-0.226741
30793,NaN,15.751684,1.264941,0.792517,-3.978332,4.948013,4.679606,1.519072,1.976416,0.253771,-0.980469,0.218018,0.085938,0.157569,0.012797,0.006465,0.999922,0.007595,0.009882,0.001269,0.527631,-0.296596,-0.764076,-0.223213
30794,NaN,16.062642,2.701026,4.259888,-5.200703,8.118785,3.988681,3.035361,2.652113,0.493168,-0.985107,0.224609,0.047852,0.161110,0.026778,0.040872,0.999794,0.015176,0.013260,0.002466,0.542728,-0.287856,-0.759232,-0.214830
30795,NaN,17.587225,5.069625,7.594827,-6.040675,11.977049,4.771598,2.425005,4.769860,0.653851,-0.987793,0.237549,-0.003174,0.177461,0.050383,0.072340,0.999637,0.012124,0.023846,0.003269,0.564824,-0.278533,-0.747680,-0.210634
30796,NaN,14.871018,5.548118,4.089331,-2.217252,9.273775,3.518062,1.812796,4.119961,0.587581,-0.996582,0.239746,-0.034668,0.149354,0.055564,0.038324,0.999742,0.009063,0.020598,0.002938,0.583260,-0.271684,-0.736503,-0.208710
30797,NaN,19.933734,5.376519,-4.352753,3.283176,4.379755,10.564719,0.687446,1.173841,-1.206504,-1.000488,0.229248,-0.045166,0.199398,0.052714,-0.044515,0.999959,0.003437,0.005869,-0.006032,0.587230,-0.264002,-0.735408,-0.211280
30798,NaN,21.393628,3.217679,-7.112282,3.977270,0.682586,12.598970,0.563513,3.674435,-1.365467,-1.004395,0.212158,-0.089600,0.212797,0.030929,-0.074951,0.999804,0.002817,0.018371,-0.006827,0.599852,-0.254148,-0.726329,-0.219164
30799,NaN,13.129330,-1.569207,-11.685201,5.983606,-7.383843,5.054161,-0.592152,3.220006,-2.060539,-1.010254,0.195068,-0.110596,0.129217,-0.017381,-0.118894,0.999813,-0.002961,0.016099,-0.010302,0.608420,-0.244867,-0.718508,-0.231541
30800,NaN,10.126827,0.475530,-22.542158,15.968993,-13.494628,3.369141,-1.432639,2.421980,-2.125995,-1.007812,0.173828,-0.135742,0.098560,0.002077,-0.226647,0.999845,-0.007163,0.012109,-0.010629,0.612672,-0.239408,-0.711504,-0.247141
30801,NaN,7.133717,-2.854579,-20.530271,12.706931,-15.233478,-0.485727,0.196936,1.521572,-2.024384,-1.015625,0.156494,-0.141846,0.069480,-0.029053,-0.205864,0.999919,0.000985,0.007608,-0.010122,0.615768,-0.229705,-0.709455,-0.254440
30802,NaN,8.461452,-4.120493,-11.643117,5.025398,-10.590642,-0.500374,1.338079,0.082139,-2.233587,-1.015137,0.137451,-0.148193,0.084105,-0.041366,-0.116742,0.999915,0.006690,0.000411,-0.011168,0.614497,-0.218037,-0.713150,-0.257429
30803,NaN,12.643631,1.081699,-4.368103,2.051817,-2.137475,3.276454,0.493755,0.460681,-2.494802,-1.020752,0.109375,-0.149902,0.126458,0.009348,-0.043948,0.999917,0.002469,0.002303,-0.012474,0.613414,-0.207015,-0.715033,-0.263812
30804,NaN,18.535302,6.794547,4.879561,-2.364262,7.489283,8.943600,-2.823450,2.800734,-2.282742,-1.016113,0.088135,-0.194336,0.186768,0.066474,0.045241,0.999737,-0.014116,0.014002,-0.011413,0.617069,-0.204271,-0.704687,-0.284456
30805,NaN,16.992662,6.071042,-4.281817,4.813736,-0.040133,8.090896,-7.739275,6.109674,-2.083653,-1.003662,0.090576,-0.251465,0.169074,0.057096,-0.050250,0.998731,-0.038680,0.030535,-0.010414,0.626938,-0.211857,-0.676077,-0.324014
30806,NaN,13.840331,4.855648,-11.468776,9.812534,-7.459631,4.123328,-12.062230,7.996767,-1.885210,-0.987305,0.101562,-0.333984,0.134006,0.040036,-0.122695,0.997339,-0.060258,0.039948,-0.009418,0.636162,-0.230099,-0.631468,-0.378946
30807,NaN,8.441453,-0.067142,2.586596,-2.138653,0.089890,-1.249550,-9.898539,8.133312,-1.325479,-0.966797,0.116699,-0.391357,0.085372,-0.000068,0.022419,0.997927,-0.049458,0.040638,-0.006623,0.646614,-0.241506,-0.587090,-0.422954
30808,NaN,8.542203,-1.687291,-0.946730,-1.295615,-4.039674,-2.150636,-6.328968,4.041308,-1.441146,-0.950195,0.127441,-0.412598,0.085089,-0.017811,-0.010635,0.999269,-0.031637,0.020202,-0.007204,0.647087,-0.249113,-0.561803,-0.451218
30809,NaN,9.448732,3.910373,-1.268105,3.694191,-2.335977,-0.482551,-4.548239,3.274493,-1.251668,-0.946289,0.135986,-0.442139,0.094494,0.038187,-0.015104,0.999588,-0.022738,0.016370,-0.006257,0.647528,-0.252824,-0.542280,-0.471932
30810,NaN,7.970666,1.869154,-0.914877,1.829147,-2.821209,-2.292904,-3.874848,3.211022,-1.008652,-0.925293,0.138428,-0.471924,0.079635,0.018091,-0.010782,0.999671,-0.019372,0.016053,-0.005043,0.648416,-0.255152,-0.523666,-0.490131
30811,NaN,6.214361,1.651126,-2.075722,2.194737,-3.518764,-4.479034,-3.603599,3.018078,-0.892462,-0.921387,0.146973,-0.490967,0.061890,0.015846,-0.021982,0.999714,-0.018016,0.015089,-0.004462,0.649347,-0.257031,-0.506043,-0.506167
30812,NaN,7.431554,2.537897,-2.557229,3.144266,-4.353540,-3.538939,-3.481961,2.636670,-0.768742,-0.906982,0.162109,-0.514404,0.074062,0.024632,-0.026983,0.999754,-0.017408,0.013182,-0.003843,0.649205,-0.259702,-0.489438,-0.521093
30813,NaN,6.417108,1.661220,-3.330097,2.589266,-5.104849,-5.094927,-3.770232,2.767213,-0.473689,-0.896973,0.172852,-0.533691,0.063737,0.015818,-0.034488,0.999724,-0.018849,0.013835,-0.002368,0.649666,-0.263501,-0.471117,-0.535304
30814,NaN,4.853175,-0.803062,-3.205586,0.166259,-5.156390,-7.009983,-3.691640,2.575206,-0.313289,-0.886963,0.194336,-0.548584,0.048102,-0.008704,-0.032521,0.999746,-0.018457,0.012875,-0.001566,0.649665,-0.267793,-0.453131,-0.548539
30815,NaN,3.430772,-2.186732,-3.333443,-1.208795,-4.983372,-8.643614,-3.569894,2.336968,-0.233714,-0.879150,0.211426,-0.561523,0.033892,-0.022502,-0.033334,0.999772,-0.017848,0.011684,-0.001168,0.649390,-0.272390,-0.435962,-0.560388
30816,NaN,3.224250,-0.765260,-3.200745,0.016898,-4.460394,-8.659771,-3.395109,1.967794,-0.191913,-0.860352,0.226562,-0.574219,0.031919,-0.008229,-0.032186,0.999807,-0.016974,0.009838,-0.000960,0.648209,-0.277432,-0.420237,-0.571190
30817,NaN,2.642020,-0.600522,-2.982307,0.034111,-3.967868,-9.113560,-3.278352,1.771735,-0.078895,-0.850342,0.241455,-0.587158,0.026153,-0.006506,-0.029952,0.999826,-0.016391,0.008858,-0.000394,0.647045,-0.282784,-0.405171,-0.580690
30818,NaN,2.357595,-0.559011,-2.893445,-0.029769,-3.747613,-9.369466,-3.020967,1.517153,-0.035384,-0.850830,0.260742,-0.591553,0.023355,-0.006032,-0.029023,0.999857,-0.015104,0.007585,-0.000177,0.645576,-0.287983,-0.391554,-0.589053
30819,NaN,1.790030,-0.864223,-2.129171,-0.527725,-2.848913,-9.513812,-2.687970,1.210783,-0.014471,-0.842773,0.271484,-0.595947,0.017771,-0.008930,-0.021281,0.999891,-0.013439,0.006054,-0.000072,0.643962,-0.293035,-0.379711,-0.596040
30820,NaN,1.789793,-0.891549,-1.255665,-0.721039,-2.119158,-9.061624,-2.429407,0.906884,0.003600,-0.838867,0.286621,-0.600342,0.017841,-0.009067,-0.012528,0.999916,-0.012147,0.004534,0.000018,0.642022,-0.298085,-0.369610,-0.601948
30821,NaN,1.797134,-0.493474,-0.601474,-0.423105,-1.538848,-8.677834,-2.160380,0.620210,0.012822,-0.837158,0.299316,-0.593994,0.017953,-0.004999,-0.006017,0.999937,-0.010802,0.003101,0.000064,0.639945,-0.303160,-0.361077,-0.606784
30822,NaN,1.634063,-0.966854,0.555066,-1.006003,-0.524555,-8.192241,-1.895600,0.334063,-0.022506,-0.833008,0.301514,-0.587646,0.016349,-0.009617,0.005615,0.999954,-0.009478,0.001670,-0.000113,0.637541,-0.308106,-0.354387,-0.610755
30823,NaN,1.707020,-1.084671,1.755527,-1.196819,0.430849,-7.455948,-1.601521,0.077620,-0.102875,-0.837646,0.312256,-0.581299,0.017072,-0.010714,0.017635,0.999968,-0.008008,0.000388,-0.000514,0.634876,-0.312784,-0.349398,-0.614019
30824,NaN,1.494221,-0.317983,2.775019,-0.463811,1.443901,-7.031596,-1.326410,-0.177755,-0.204645,-0.835693,0.318604,-0.583496,0.014914,-0.003011,0.027784,0.999977,-0.006632,-0.000889,-0.001023,0.631786,-0.317149,-0.346293,-0.616721
30825,NaN,1.742756,-0.039368,2.828552,-0.158475,1.372653,-6.791084,-1.137114,-0.467939,-0.337017,-0.842041,0.325195,-0.575195,0.017361,-0.000262,0.028328,0.999980,-0.005686,-0.002340,-0.001685,0.628119,-0.321596,-0.344795,-0.618998
30826,NaN,2.011853,-1.018345,2.814585,-1.115633,1.210763,-6.603989,-1.002407,-0.740546,-0.427768,-0.846436,0.329346,-0.562500,0.019992,-0.010085,0.028271,0.999978,-0.005012,-0.003703,-0.002139,0.623849,-0.326251,-0.344782,-0.620885
30827,NaN,2.427398,-2.257957,3.028845,-2.348434,1.186923,-6.173962,-0.798518,-0.938667,-0.493809,-0.852783,0.324951,-0.558105,0.024076,-0.022518,0.030492,0.999978,-0.003993,-0.004693,-0.002469,0.619380,-0.330799,-0.346032,-0.622256
30828,NaN,2.519603,-3.142622,3.595220,-3.238194,1.668631,-5.827788,-0.416215,-1.127122,-0.587559,-0.858643,0.316406,-0.543213,0.024900,-0.031425,0.036158,0.999978,-0.002081,-0.005636,-0.002938,0.614848,-0.334541,-0.349249,-0.622952
30829,NaN,2.621778,-3.654085,3.935850,-3.768696,1.969288,-5.613267,0.219747,-1.381863,-0.727621,-0.877441,0.307861,-0.532715,0.025812,-0.036679,0.039498,0.999969,0.001099,-0.006909,-0.003638,0.610516,-0.336891,-0.355391,-0.622473
30830,NaN,3.491613,-3.822232,4.332930,-4.012445,1.928216,-4.737652,0.869601,-1.691356,-0.870925,-0.885742,0.297119,-0.521973,0.034382,-0.038562,0.043454,0.999945,0.004348,-0.008457,-0.004355,0.606169,-0.337929,-0.364722,-0.620759
30831,NaN,5.116958,-3.703042,6.346564,-4.091981,2.939007,-2.410717,1.307871,-1.876527,-0.852407,-0.900146,0.286377,-0.507080,0.050413,-0.037662,0.063696,0.999926,0.006539,-0.009382,-0.004262,0.602264,-0.338211,-0.375885,-0.617739
30832,NaN,7.138733,-4.228573,6.144758,-4.826750,1.889934,-0.883657,1.312541,-1.764487,-0.712756,-0.912354,0.271240,-0.500488,0.070691,-0.042943,0.061793,0.999933,0.006563,-0.008822,-0.003564,0.598896,-0.338340,-0.386417,-0.614436
30833,NaN,8.887517,-5.243246,2.079109,-5.846321,-2.422888,-1.401326,0.956823,-1.410681,-0.708949,-0.918457,0.262695,-0.487793,0.088540,-0.052847,0.021164,0.999957,0.004784,-0.007053,-0.003545,0.595584,-0.338427,-0.394767,-0.612296
30834,NaN,5.897317,-2.125067,-3.566881,-2.297270,-5.909828,-6.375703,0.466247,-1.325550,-0.711366,-0.924561,0.254150,-0.474854,0.059132,-0.021378,-0.035327,0.999969,0.002331,-0.006628,-0.003557,0.591550,-0.339700,-0.401296,-0.611256
30835,NaN,8.455331,1.117447,-2.137445,0.615115,-5.623512,-3.081835,0.711408,-2.068081,-0.913763,-0.943115,0.241211,-0.457764,0.084818,0.010861,-0.020459,0.999930,0.003557,-0.010340,-0.004569,0.585773,-0.342061,-0.411113,-0.608974
30836,NaN,12.607861,0.815618,3.669037,-0.526810,-1.977304,3.183002,2.000784,-2.165403,-0.822368,-0.955322,0.219727,-0.442871,0.125702,0.007262,0.038128,0.999883,0.010004,-0.010827,-0.004112,0.582205,-0.341076,-0.424927,-0.603441
30837,NaN,13.171381,-1.255905,5.870761,-3.028243,-0.013289,4.341734,2.590786,-2.069139,-0.543605,-0.961182,0.208984,-0.423584,0.131062,-0.013687,0.059893,0.999859,0.012953,-0.010345,-0.002718,0.580503,-0.338576,-0.439637,-0.595903
30838,NaN,14.688414,-0.607821,-0.108645,-2.046798,-5.780952,3.548206,2.832627,-2.274676,-0.285969,-0.973389,0.191650,-0.415039,0.146876,-0.006288,0.000496,0.999834,0.014162,-0.011373,-0.001430,0.579396,-0.336463,-0.455113,-0.586485
30839,NaN,13.726986,0.715426,-2.830522,-0.308233,-7.542762,2.017647,3.257840,-2.079523,-0.100661,-0.977051,0.176758,-0.389648,0.137557,0.007529,-0.026755,0.999813,0.016288,-0.010397,-0.000503,0.579740,-0.332833,-0.470776,-0.575755
30840,NaN,12.370888,0.960343,-0.538179,-0.308345,-4.629784,1.707431,3.314230,-2.190329,-0.135601,-0.995850,0.165771,-0.372559,0.123763,0.009592,-0.003867,0.999803,0.016570,-0.010951,-0.000678,0.579685,-0.329147,-0.486880,-0.564424
30841,NaN,11.624937,3.775906,0.779869,2.175222,-2.410731,1.996085,3.313144,-2.492040,-0.146225,-0.999756,0.159424,-0.353516,0.116162,0.037522,0.009869,0.999785,0.016565,-0.012459,-0.000731,0.578532,-0.326152,-0.503591,-0.552559
30842,NaN,11.279136,4.242034,-0.625260,2.869914,-3.145889,1.477011,3.391050,-2.405851,-0.156798,-1.009766,0.142090,-0.336426,0.112883,0.042414,-0.004176,0.999784,0.016954,-0.012028,-0.000784,0.577549,-0.322504,-0.520180,-0.540224
30843,NaN,11.444547,3.786446,-2.586536,2.834805,-4.731741,1.212891,3.643895,-2.525719,-0.124219,-1.015869,0.133545,-0.310791,0.114778,0.038238,-0.023723,0.999754,0.018218,-0.012628,-0.000621,0.576376,-0.318403,-0.537390,-0.526899
30844,NaN,11.773443,3.307843,-2.777716,2.357560,-4.701284,1.571256,4.033611,-2.537865,0.069138,-1.021729,0.122803,-0.293945,0.118057,0.033650,-0.025606,0.999716,0.020166,-0.012688,0.000346,0.576102,-0.313507,-0.555221,-0.511419
30845,NaN,12.926613,3.308936,-1.685474,1.806288,-3.533832,3.037155,4.365867,-2.384944,0.245978,-1.027588,0.109863,-0.272461,0.129408,0.033583,-0.014582,0.999690,0.021827,-0.011923,0.001230,0.576772,-0.307618,-0.572698,-0.494693
30846,NaN,14.027282,3.462369,-1.614876,1.694661,-3.191919,4.268483,4.522473,-2.348406,0.313293,-1.031738,0.107666,-0.251465,0.140389,0.035172,-0.013709,0.999674,0.022610,-0.011741,0.001566,0.577614,-0.301199,-0.590131,-0.476851
30847,NaN,14.523252,4.603923,-2.903066,3.094410,-3.534315,4.967545,4.478312,-2.241569,0.407359,-1.040039,0.101074,-0.230225,0.145443,0.046946,-0.026357,0.999684,0.022389,-0.011207,0.002037,0.578531,-0.294719,-0.606483,-0.458934
30848,NaN,14.507017,5.140125,-4.023728,4.007601,-3.759953,5.115089,4.148441,-2.178339,0.454174,-1.043945,0.098877,-0.211182,0.145371,0.052529,-0.037573,0.999723,0.020740,-0.010891,0.002271,0.578915,-0.289041,-0.621619,-0.441477
30849,NaN,13.693168,4.304980,-3.734072,3.242258,-3.229407,4.294655,3.797081,-2.032383,0.585928,-1.044189,0.103271,-0.189941,0.137168,0.044132,-0.035116,0.999764,0.018984,-0.010161,0.002929,0.579240,-0.284292,-0.634892,-0.424937
30850,NaN,14.355529,3.976997,-2.607093,2.237756,-2.023446,5.005393,3.329745,-2.033197,0.521008,-1.046143,0.103027,-0.177246,0.143701,0.040555,-0.023940,0.999806,0.016648,-0.010165,0.002605,0.578470,-0.280611,-0.647159,-0.409653
30851,NaN,14.022009,4.103405,-1.910643,1.947071,-0.924219,4.762907,2.583063,-1.826822,0.446558,-1.048096,0.096680,-0.160400,0.140291,0.041578,-0.017291,0.999872,0.012915,-0.009134,0.002233,0.577020,-0.278293,-0.657027,-0.397386
30852,NaN,13.581202,5.329373,-2.601311,3.318048,-0.478990,4.622390,1.445364,-1.544926,0.475243,-1.052246,0.100830,-0.147705,0.135878,0.053798,-0.024576,0.999941,0.007227,-0.007724,0.002376,0.574829,-0.278742,-0.663843,-0.388828
30853,NaN,12.081820,3.466864,-2.461444,1.950916,-1.004121,2.805956,1.060241,-1.203475,0.671164,-1.052734,0.115967,-0.128662,0.120845,0.035201,-0.023702,0.999962,0.005301,-0.006017,0.003356,0.573592,-0.280254,-0.668406,-0.381685
30854,NaN,11.999465,1.494539,0.227526,-1.160994,0.381660,2.219513,1.903818,-1.705010,0.747039,-1.048340,0.111572,-0.120361,0.119912,0.015364,0.003443,0.999911,0.009519,-0.008525,0.003735,0.571867,-0.280541,-0.676008,-0.370511
30855,NaN,11.310378,1.986496,0.913687,-1.073798,1.493758,1.559052,1.927058,-1.588278,1.007530,-1.057129,0.128662,-0.103516,0.112924,0.020339,0.010229,0.999909,0.009635,-0.007941,0.005037,0.571013,-0.281356,-0.682648,-0.358852
30856,NaN,11.474157,2.416168,-0.285321,-0.083449,1.013047,1.872229,1.557231,-1.305362,1.328331,-1.051270,0.141357,-0.099365,0.114592,0.024940,-0.001913,0.999926,0.007786,-0.006527,0.006641,0.571032,-0.283768,-0.687424,-0.347630
30857,NaN,12.429114,4.755075,-0.741533,1.886640,2.296092,3.179822,1.121687,-1.094260,1.556238,-1.053711,0.160645,-0.082520,0.123953,0.048554,-0.006466,0.999939,0.005608,-0.005471,0.007781,0.571529,-0.287801,-0.690251,-0.337754
30858,NaN,13.180149,4.194043,-3.082525,2.815401,0.320953,4.071634,0.209354,-0.099384,1.616899,-1.049805,0.171387,-0.089111,0.131472,0.043036,-0.030715,0.999967,0.001047,-0.000497,0.008084,0.574123,-0.292965,-0.688695,-0.332045
30859,NaN,11.275073,2.713999,-3.129718,2.179790,-0.547766,1.987034,-0.139627,0.387732,1.656455,-1.048340,0.192871,-0.089111,0.112460,0.028050,-0.031535,0.999964,-0.000698,0.001939,0.008282,0.577978,-0.298418,-0.684903,-0.328323
30860,NaN,9.957413,0.823990,-2.677489,0.789846,-1.303770,0.418247,-0.171484,0.456384,1.619561,-1.042480,0.205811,-0.097656,0.099442,0.009022,-0.027009,0.999964,-0.000857,0.002282,0.008098,0.581843,-0.303702,-0.681033,-0.324682
30861,NaN,8.462358,0.613898,-0.258616,-0.489507,0.523417,-1.354550,0.396651,-0.405901,1.559857,-1.045166,0.227295,-0.095703,0.084577,0.006804,-0.002401,0.999966,0.001983,-0.002029,0.007799,0.583571,-0.308511,-0.680470,-0.318162
30862,NaN,9.644262,1.582109,-0.420042,0.300099,1.151506,-0.103214,-0.851583,-0.528928,1.313405,-1.039062,0.235840,-0.087402,0.096347,0.016437,-0.004015,0.999966,-0.004258,-0.002645,0.006567,0.582451,-0.316281,-0.678787,-0.316173
30863,NaN,9.104355,1.697182,-3.933808,2.574576,-1.581013,-0.214958,-2.717645,-0.175904,0.988073,-1.039307,0.246338,-0.079102,0.090995,0.016886,-0.039488,0.999895,-0.013588,-0.000879,0.004940,0.579053,-0.327796,-0.673374,-0.322203
30864,NaN,9.767198,-0.188111,-2.713074,0.270605,-1.623408,0.191586,-1.999791,-0.293022,0.813694,-1.037598,0.254883,-0.074951,0.097719,-0.001754,-0.026970,0.999941,-0.009999,-0.001465,0.004068,0.575991,-0.336741,-0.669823,-0.325847
30865,NaN,7.611410,-1.922480,1.291841,-3.114913,0.598861,-2.516357,-1.791118,0.018850,0.705718,-1.039795,0.263428,-0.074951,0.076182,-0.018839,0.013081,0.999954,-0.008955,0.000094,0.003529,0.574157,-0.344219,-0.665636,-0.329826
30866,NaN,8.756529,-0.581508,1.708332,-2.295856,1.840950,-1.370368,-3.511697,-0.204424,0.114670,-1.033447,0.265625,-0.062256,0.087551,-0.005463,0.017271,0.999845,-0.017558,-0.001022,0.000573,0.567526,-0.354821,-0.660379,-0.340464
30867,NaN,8.618797,0.256288,1.360091,-1.361684,2.000453,-1.425603,-3.600880,-0.034817,-0.429209,-1.037598,0.259277,-0.055908,0.086191,0.002622,0.013569,0.999836,-0.018003,-0.000174,-0.002146,0.560194,-0.363626,-0.655006,-0.353448
30868,NaN,6.116267,2.947193,0.351522,1.719373,2.241489,-3.629038,0.006855,-0.590121,-0.470668,-1.037354,0.254883,-0.055908,0.061221,0.029328,0.003697,0.999993,0.000034,-0.002951,-0.002353,0.557424,-0.363002,-0.657734,-0.353404
30869,NaN,7.246884,7.103835,-1.024914,5.790744,3.278515,-2.083133,3.075178,-0.297843,-0.297900,-1.039307,0.244141,-0.062012,0.072589,0.071076,-0.009048,0.999880,0.015375,-0.001489,-0.001489,0.561427,-0.353938,-0.664464,-0.343533
30870,NaN,7.989441,3.828589,-1.015765,2.824436,1.792734,-1.546515,3.125394,1.074344,-0.431691,-1.039062,0.237793,-0.081055,0.079923,0.038270,-0.009989,0.999861,0.015626,0.005371,-0.002158,0.569702,-0.341674,-0.667713,-0.335943
30871,NaN,6.934017,0.877724,-2.200619,1.113423,-0.897491,-2.626043,1.769272,1.448539,-0.642555,-1.041016,0.231445,-0.097900,0.069207,0.008752,-0.022430,0.999929,0.008846,0.007243,-0.003213,0.576436,-0.332035,-0.667615,-0.334313
30872,NaN,6.231618,-0.438893,1.964296,-2.180166,1.696437,-3.875337,1.876141,0.814188,-0.871038,-1.045166,0.225098,-0.110596,0.062375,-0.004843,0.019345,0.999938,0.009381,0.004071,-0.004355,0.580765,-0.322173,-0.670031,-0.331625
30873,NaN,6.622393,1.748547,4.669104,-2.034272,5.095732,-3.599147,1.387549,0.494486,-0.748557,-1.040771,0.212158,-0.121094,0.066403,0.016913,0.046646,0.999966,0.006938,0.002472,-0.003743,0.583390,-0.314809,-0.672084,-0.329931
30874,NaN,5.330766,2.038722,2.998604,-0.760986,3.817229,-4.673196,1.107579,0.024091,-0.541553,-1.042480,0.205811,-0.116699,0.053366,0.020076,0.030091,0.999981,0.005538,0.000120,-0.002708,0.584276,-0.309618,-0.674843,-0.327635
30875,NaN,5.944925,2.718804,0.036288,1.371276,1.869792,-3.700550,1.824249,-0.415966,-0.635688,-1.044678,0.203613,-0.110352,0.059534,0.026993,0.000733,0.999951,0.009121,-0.002080,-0.003178,0.584622,-0.302813,-0.680003,-0.322671
30876,NaN,6.520428,2.774027,-1.148884,1.978338,1.029170,-2.989375,2.216344,-0.220029,-0.637786,-1.044434,0.195068,-0.114502,0.065305,0.027657,-0.011110,0.999933,0.011081,-0.001100,-0.003189,0.586109,-0.294442,-0.685272,-0.316516
30877,NaN,7.075793,1.920669,-1.980908,1.699513,-0.084839,-2.411074,2.166201,-0.346437,-0.634576,-1.050537,0.190674,-0.110352,0.070853,0.019194,-0.019478,0.999935,0.010831,-0.001732,-0.003173,0.587062,-0.286452,-0.690611,-0.310418
30878,NaN,7.730067,2.173429,-0.623253,0.868181,1.188304,-1.894383,1.867435,-0.669528,-0.585817,-1.048096,0.175781,-0.103760,0.077384,0.021563,-0.005772,0.999947,0.009337,-0.003348,-0.002929,0.586402,-0.279955,-0.696391,-0.304627
30879,NaN,8.360141,1.265625,-0.074254,-0.357228,1.077312,-1.433550,1.398204,-1.093885,-0.486917,-1.054199,0.173584,-0.093262,0.083634,0.012455,-0.000198,0.999958,0.006991,-0.005469,-0.002435,0.583778,-0.275818,-0.702386,-0.299637
30880,NaN,8.858008,1.203770,0.138799,-0.738883,1.274385,-0.994467,1.192531,-1.308986,-0.529210,-1.051758,0.167236,-0.080566,0.088600,0.011792,0.002039,0.999957,0.005963,-0.006545,-0.002646,0.579913,-0.272436,-0.708791,-0.295119
30881,NaN,9.096465,0.512981,1.307873,-2.176956,1.734212,-1.039362,1.122827,-1.280753,-0.404953,-1.055908,0.165039,-0.069824,0.090888,0.004870,0.013689,0.999962,0.005614,-0.006404,-0.002025,0.576278,-0.269628,-0.714692,-0.290553
30882,NaN,9.177628,0.280166,2.086440,-2.994566,2.205279,-1.162355,1.071672,-1.402760,-0.194261,-1.055908,0.164795,-0.057129,0.091629,0.002598,0.021522,0.999961,0.005358,-0.007014,-0.000971,0.572306,-0.267914,-0.720597,-0.285357
30883,NaN,9.572443,0.570146,1.741157,-2.736061,2.248863,-0.732834,1.198328,-1.152031,-0.001400,-1.053955,0.166992,-0.046631,0.095622,0.005594,0.017996,0.999965,0.005992,-0.005760,-0.000007,0.569732,-0.266118,-0.725586,-0.279485
30884,NaN,10.316365,1.158452,1.016725,-2.046156,2.253439,0.164195,1.585472,-0.299225,0.212289,-1.053955,0.166992,-0.051025,0.103136,0.011612,0.010414,0.999967,0.007927,-0.001496,0.001061,0.570938,-0.262860,-0.728388,-0.272737
30885,NaN,10.343914,1.091954,0.668820,-1.851846,1.998892,0.247686,1.231892,0.225951,0.562280,-1.050049,0.177734,-0.051025,0.103415,0.011169,0.006640,0.999976,0.006159,0.001130,0.002811,0.574127,-0.261080,-0.728673,-0.266931
30886,NaN,10.357917,0.531003,-0.880355,-1.117025,0.582695,0.519567,1.252828,-0.139460,0.736355,-1.050049,0.184082,-0.051025,0.103565,0.005746,-0.008696,0.999973,0.006264,-0.000697,0.003682,0.576135,-0.260440,-0.729784,-0.260105
30887,NaN,11.233633,0.049685,-1.311968,-1.285780,0.109847,1.423488,1.375200,-0.650534,0.733080,-1.056641,0.192871,-0.051025,0.112375,0.000997,-0.012748,0.999964,0.006876,-0.003253,0.003665,0.576478,-0.259993,-0.732472,-0.252113
30888,NaN,12.027011,0.518092,-1.646113,-0.891811,0.441483,2.296606,1.216899,-0.859550,0.692250,-1.050537,0.197021,-0.036377,0.120320,0.005695,-0.015910,0.999966,0.006084,-0.004298,0.003461,0.575730,-0.260070,-0.735610,-0.244493
30889,NaN,12.603189,1.329752,-2.262684,-0.044619,0.857233,3.032121,0.965014,-0.940879,0.674366,-1.050537,0.205566,-0.025879,0.126090,0.013830,-0.021968,0.999972,0.004825,-0.004704,0.003372,0.574325,-0.260918,-0.738607,-0.237767
30890,NaN,13.788539,2.710910,-3.087592,1.186267,1.662608,4.429218,0.707286,-0.924012,0.603310,-1.046387,0.207520,-0.013184,0.137943,0.027633,-0.030142,0.999979,0.003536,-0.004620,0.003017,0.572453,-0.262345,-0.741293,-0.232286
30891,NaN,14.983453,3.790955,-3.277083,1.774509,2.656384,5.660117,0.381724,-0.408144,0.670091,-1.050781,0.214111,-0.013184,0.149773,0.038473,-0.032392,0.999990,0.001909,-0.002041,0.003350,0.572207,-0.264210,-0.742025,-0.228410
30892,NaN,15.646988,4.309590,-1.881505,0.984341,4.159287,5.956612,0.225284,-0.374319,0.681562,-1.049072,0.222656,-0.013184,0.156357,0.043650,-0.018473,0.999992,0.001126,-0.001872,0.003408,0.571797,-0.266658,-0.742438,-0.225226
30893,NaN,16.612068,4.394014,-0.630645,-0.030755,5.271324,6.554257,-0.271698,-0.306303,0.676698,-1.049316,0.231201,-0.004883,0.165980,0.044494,-0.006112,0.999992,-0.001358,-0.001532,0.003383,0.571048,-0.270292,-0.742106,-0.223885
30894,NaN,16.238545,3.993989,0.362330,-0.856403,5.621435,5.917485,-0.969343,0.143302,0.625124,-1.047119,0.235596,-0.007080,0.162262,0.040464,0.003312,0.999983,-0.004847,0.000717,0.003126,0.570910,-0.275228,-0.739770,-0.225947
30895,NaN,14.251167,2.819181,0.804275,-1.454161,4.761129,3.858689,-1.532833,0.148253,0.493047,-1.049561,0.244141,-0.002930,0.142447,0.028603,0.007719,0.999967,-0.007664,0.000741,0.002465,0.569880,-0.281253,-0.736919,-0.230401
30896,NaN,12.824532,0.772667,0.517082,-2.301986,2.892604,2.502598,-1.672515,-0.405664,0.425274,-1.047119,0.237549,0.001465,0.128218,0.008044,0.005365,0.999961,-0.008362,-0.002028,0.002126,0.566453,-0.288083,-0.735502,-0.234895
30897,NaN,11.904538,-1.124273,0.703773,-3.605678,1.611569,1.495552,-1.643181,-1.393998,0.225210,-1.045410,0.250244,0.028809,0.119005,-0.011046,0.007959,0.999941,-0.008216,-0.006970,0.001126,0.559184,-0.295187,-0.737159,-0.238273
30898,NaN,11.561058,-0.905753,0.305371,-3.236550,1.637795,1.205770,-2.094931,-2.393265,0.532521,-1.042969,0.243896,0.060547,0.115586,-0.008707,0.004529,0.999870,-0.010474,-0.011966,0.002662,0.547800,-0.305876,-0.740428,-0.241084
30899,NaN,12.340678,-2.250260,0.066072,-4.394388,0.983525,1.894873,-1.821072,-3.094199,0.626680,-1.047363,0.254395,0.094238,0.123444,-0.022097,0.002773,0.999834,-0.009105,-0.015470,0.003133,0.534217,-0.316865,-0.745632,-0.241332
30900,NaN,13.582094,-2.075100,0.758498,-5.239536,2.212963,2.716671,-1.418458,-3.358694,0.292518,-1.034180,0.247803,0.132324,0.135696,-0.020487,0.010011,0.999833,-0.007092,-0.016793,0.001463,0.519700,-0.325815,-0.752236,-0.240621
30901,NaN,14.248059,-1.797626,1.724306,-6.067658,3.593068,2.815274,-1.416961,-3.217936,0.022254,-1.031982,0.254150,0.174561,0.142179,-0.017827,0.019659,0.999845,-0.007084,-0.016089,0.000111,0.505228,-0.333404,-0.758746,-0.240607
30902,NaN,15.484382,-0.605455,2.318837,-6.056520,5.428833,3.579345,-0.435439,-2.082313,0.427292,-1.030029,0.254150,0.172363,0.154604,-0.005671,0.024812,0.999941,-0.002177,-0.010411,0.002136,0.497104,-0.338707,-0.762621,-0.237853
30903,NaN,21.006424,2.870416,7.639901,-8.093677,12.995636,6.724139,1.814536,2.236151,0.726028,-1.043457,0.269287,0.125977,0.210798,0.028788,0.074306,0.999890,0.009072,0.011180,0.003630,0.509504,-0.334271,-0.757913,-0.232885
30904,NaN,16.023318,2.829675,8.661363,-7.159724,11.957846,2.247184,2.193577,5.755584,0.822117,-1.048096,0.278076,0.068848,0.162527,0.028043,0.082266,0.999517,0.010966,0.028773,0.004110,0.535736,-0.325079,-0.743891,-0.232242
30905,NaN,12.187416,5.704141,4.655574,-1.433887,9.847178,0.371169,4.170726,4.151246,0.262704,-1.057129,0.286865,0.026367,0.122747,0.056250,0.045192,0.999566,0.020851,0.020753,0.001313,0.558018,-0.309927,-0.736872,-0.222669
30906,NaN,17.132407,9.603668,-3.266524,6.045647,7.914488,7.426727,1.151536,4.300850,-0.629974,-1.061279,0.276123,-0.022217,0.170879,0.095698,-0.035792,0.999747,0.005757,0.021502,-0.003150,0.574862,-0.299708,-0.726704,-0.227179
30907,NaN,16.392610,6.255801,-6.928362,6.773459,2.574833,7.603690,3.286787,3.457098,-0.688491,-1.065674,0.276367,-0.066406,0.162925,0.063154,-0.071071,0.999710,0.016432,0.017284,-0.003442,0.591392,-0.283749,-0.721328,-0.222326
30908,NaN,17.043682,1.986074,-0.078529,-0.830025,3.695537,6.922569,0.482007,3.067250,-0.653729,-1.065430,0.265869,-0.102295,0.170462,0.019310,-0.003353,0.999874,0.002410,0.015336,-0.003269,0.602352,-0.276698,-0.713400,-0.227311
30909,NaN,14.869675,-2.254877,-5.390824,0.807911,-3.658446,5.717514,-1.038472,3.724797,-0.488787,-1.063477,0.265869,-0.132080,0.147604,-0.023199,-0.056545,0.999810,-0.005192,0.018623,-0.002444,0.613525,-0.273798,-0.701549,-0.237592
30910,NaN,11.196036,-4.459718,-12.445817,5.018862,-10.812419,2.757571,-1.315924,3.177833,-1.005066,-1.067383,0.248779,-0.159424,0.109739,-0.045978,-0.125914,0.999839,-0.006579,0.015888,-0.005025,0.621581,-0.270648,-0.691271,-0.250063
30911,NaN,9.698188,-0.509343,-14.947249,9.735985,-10.091044,1.191848,-0.016785,2.304686,-1.429803,-1.079834,0.236084,-0.178223,0.095211,-0.005791,-0.150576,0.999908,-0.000084,0.011523,-0.007149,0.627673,-0.262854,-0.685964,-0.257657
30912,NaN,9.470283,2.272824,-9.778693,7.919496,-4.686308,0.472958,1.565099,-0.000188,-2.061326,-1.074707,0.206055,-0.173828,0.094936,0.022515,-0.097610,0.999916,0.007825,-0.000001,-0.010306,0.626995,-0.250955,-0.690492,-0.259073
30913,NaN,13.864367,6.940151,-7.056610,8.445928,0.680128,4.964655,1.730600,-0.928762,-2.721285,-1.084473,0.182373,-0.163086,0.139900,0.068107,-0.069325,0.999859,0.008653,-0.004644,-0.013606,0.622341,-0.237305,-0.698968,-0.260424
30914,NaN,17.642729,9.995812,-8.304102,10.722400,1.725051,9.217021,-3.089569,1.240199,-2.466941,-1.088135,0.154541,-0.194580,0.177106,0.096467,-0.085646,0.999785,-0.015447,0.006201,-0.012334,0.619595,-0.236716,-0.693769,-0.280629
30915,NaN,22.728077,7.568860,1.227729,2.179810,4.914096,13.552923,-9.300122,7.528362,-2.464517,-1.075928,0.156982,-0.281250,0.228353,0.073076,0.000252,0.998135,-0.046472,0.037618,-0.012315,0.630076,-0.245969,-0.659046,-0.328879
30916,NaN,9.738020,-1.374571,2.015205,-2.940082,-0.582955,-0.234329,-10.703186,9.336732,-1.871997,-1.052979,0.163818,-0.353271,0.098073,-0.013720,0.016317,0.997436,-0.053470,0.046644,-0.009352,0.642848,-0.257569,-0.612574,-0.380995
30917,NaN,10.405492,1.145411,-1.708246,1.495484,-2.815885,0.301980,-6.467052,4.012537,-2.569794,-1.050537,0.153076,-0.380615,0.103810,0.009514,-0.019496,0.999194,-0.032327,0.020057,-0.012846,0.641391,-0.262634,-0.590185,-0.413912
30918,NaN,12.334292,9.025878,-4.838593,9.726028,-2.569697,2.665988,-5.167387,3.759544,-2.391334,-1.031738,0.151123,-0.420898,0.123433,0.087453,-0.052990,0.999418,-0.025832,0.018794,-0.011954,0.640249,-0.264239,-0.570122,-0.441837
30919,NaN,11.290469,7.120703,-0.942260,6.273229,-0.841809,1.974806,-5.015782,4.002400,-1.704039,-1.021240,0.153320,-0.456787,0.113262,0.069939,-0.013452,0.999449,-0.025074,0.020008,-0.008519,0.640909,-0.266453,-0.548175,-0.466628
30920,NaN,9.241028,2.644994,-1.485652,2.698946,-3.202999,-1.035573,-4.358456,3.421181,-1.345307,-1.012939,0.155518,-0.478027,0.092305,0.025474,-0.016999,0.999594,-0.021789,0.017104,-0.006726,0.640922,-0.268623,-0.528540,-0.487551
30921,NaN,9.055279,-0.603525,-1.223979,-0.364219,-4.499200,-1.845407,-4.277332,3.110412,-1.054647,-0.998535,0.166260,-0.507812,0.090315,-0.006792,-0.013506,0.999636,-0.021384,0.015550,-0.005273,0.640589,-0.271866,-0.509377,-0.506231
30922,NaN,8.264205,-0.781079,-3.012592,0.098919,-6.053847,-3.384985,-4.388696,3.197808,-0.841340,-0.979980,0.183594,-0.535400,0.082113,-0.008835,-0.031255,0.999623,-0.021941,0.015987,-0.004206,0.640248,-0.275541,-0.488930,-0.524506
30923,NaN,6.163832,-0.457583,-3.520946,0.517584,-5.739147,-5.642878,-4.281353,2.942614,-0.695780,-0.965576,0.196533,-0.561035,0.061094,-0.005554,-0.035999,0.999657,-0.021404,0.014711,-0.003479,0.639495,-0.279736,-0.469081,-0.541070
30924,NaN,5.491393,1.220069,-3.849037,2.099591,-5.476271,-6.341078,-4.525393,3.192234,-0.622449,-0.955811,0.218018,-0.584473,0.054323,0.011143,-0.039621,0.999612,-0.022624,0.015959,-0.003112,0.638598,-0.283943,-0.447310,-0.558107
30925,NaN,3.735993,0.446516,-3.534870,1.175254,-4.711220,-8.060194,-4.426119,2.572726,-0.449524,-0.941650,0.241699,-0.601562,0.036909,0.003591,-0.035911,0.999670,-0.022128,0.012862,-0.002247,0.636599,-0.289800,-0.427243,-0.572906
30926,NaN,3.050082,0.130510,-3.651958,0.759063,-4.608049,-8.894512,-4.363380,2.282121,-0.386590,-0.927490,0.258789,-0.610352,0.030083,0.000445,-0.036880,0.999695,-0.021815,0.011409,-0.001933,0.633749,-0.296165,-0.407939,-0.586715
30927,NaN,2.332778,-1.230615,-3.495500,-0.743330,-4.313058,-9.680692,-4.062821,2.016545,-0.363984,-0.915283,0.280273,-0.616943,0.022952,-0.013058,-0.034928,0.999741,-0.020312,0.010082,-0.001820,0.630611,-0.302307,-0.390072,-0.598987
30928,NaN,2.095124,-2.350787,-2.455889,-2.106140,-3.377992,-9.497449,-3.540975,1.683401,-0.276050,-0.905273,0.293213,-0.631836,0.020713,-0.023968,-0.024312,0.999807,-0.017704,0.008416,-0.001380,0.627516,-0.307758,-0.374560,-0.609272
30929,NaN,2.769516,-1.169485,-1.959180,-1.076496,-3.204201,-8.608508,-3.287950,1.447921,-0.252583,-0.905762,0.312500,-0.631836,0.027538,-0.012052,-0.019595,0.999838,-0.016439,0.007239,-0.001263,0.624294,-0.313143,-0.360336,-0.618350
30930,NaN,2.269962,-1.995582,-0.930366,-2.005496,-2.080479,-8.528140,-2.882128,1.256042,-0.267021,-0.893555,0.327393,-0.636230,0.022615,-0.020119,-0.009157,0.999876,-0.014410,0.006280,-0.001335,0.621087,-0.317668,-0.347954,-0.626311
30931,NaN,2.592071,-1.280590,-0.221607,-1.347769,-1.640504,-7.837821,-2.608618,1.019584,-0.305203,-0.885254,0.338135,-0.636475,0.025890,-0.012874,-0.002180,0.999901,-0.013043,0.005098,-0.001526,0.617697,-0.322017,-0.337076,-0.633353
30932,NaN,2.382464,-1.155786,-0.064049,-1.230216,-1.383387,-7.918256,-2.482718,0.815156,-0.343690,-0.881592,0.355225,-0.636475,0.023802,-0.011606,-0.000594,0.999913,-0.012413,0.004076,-0.001718,0.613893,-0.326435,-0.327303,-0.639882
30933,NaN,1.529463,-0.962018,-0.118911,-1.018158,-0.934594,-8.642756,-2.194268,0.521691,-0.408751,-0.885742,0.357422,-0.634521,0.015272,-0.009664,-0.001123,0.999934,-0.010971,0.002608,-0.002044,0.609813,-0.330815,-0.319334,-0.645535
30934,NaN,1.189958,-0.726910,0.087562,-0.768944,-0.570121,-8.794974,-1.853564,0.144242,-0.475773,-0.888184,0.363770,-0.632324,0.011883,-0.007289,0.000935,0.999954,-0.009268,0.000721,-0.002379,0.605385,-0.335171,-0.313769,-0.650168
30935,NaN,0.865972,-1.257014,1.367413,-1.204881,0.711698,-8.315526,-1.577104,-0.117746,-0.546170,-0.892578,0.370361,-0.624023,0.008617,-0.012485,0.013778,0.999965,-0.007885,-0.000589,-0.002731,0.600757,-0.339463,-0.309910,-0.654074
30936,NaN,0.972047,-1.930920,2.835791,-1.751260,1.929513,-7.378570,-1.237572,-0.368183,-0.628856,-0.886230,0.374512,-0.617676,0.009608,-0.019163,0.028495,0.999974,-0.006188,-0.001841,-0.003144,0.595987,-0.343350,-0.308108,-0.657251
30937,NaN,1.234043,-2.186395,4.075790,-1.887144,2.852475,-6.463497,-0.719025,-0.662924,-0.780755,-0.903076,0.370117,-0.615479,0.012120,-0.021765,0.040877,0.999980,-0.003595,-0.003315,-0.003904,0.591150,-0.346466,-0.309061,-0.659533
30938,NaN,1.784039,-2.967996,5.461291,-2.561275,3.814795,-5.262518,-0.094328,-1.057620,-0.948565,-0.911377,0.359375,-0.604736,0.017410,-0.029737,0.054720,0.999975,-0.000472,-0.005288,-0.004743,0.586176,-0.348713,-0.313563,-0.660663
30939,NaN,2.500108,-3.863315,5.840652,-3.485966,3.911573,-4.536788,0.376781,-1.381143,-1.080164,-0.925537,0.342285,-0.596191,0.024388,-0.038876,0.058503,0.999960,0.001884,-0.006906,-0.005401,0.581072,-0.350467,-0.320733,-0.660801
30940,NaN,2.998941,-4.085551,5.725223,-3.800254,3.670501,-4.285761,0.516463,-1.676752,-1.155817,-0.937744,0.329346,-0.576904,0.029271,-0.041174,0.057394,0.999945,0.002582,-0.008384,-0.005779,0.575393,-0.352599,-0.329326,-0.660410
30941,NaN,3.723923,-4.541064,4.052040,-4.511700,2.047484,-4.678652,0.643848,-1.986521,-1.093129,-0.956543,0.316406,-0.559814,0.036586,-0.045743,0.040739,0.999931,0.003219,-0.009932,-0.005466,0.569604,-0.355486,-0.339078,-0.658944
30942,NaN,4.403267,-5.567889,2.102796,-5.803006,0.272721,-5.223418,0.568269,-1.933578,-0.991412,-0.970947,0.301514,-0.544922,0.043551,-0.055956,0.021292,0.999937,0.002841,-0.009668,-0.004957,0.563987,-0.358516,-0.348166,-0.657392
30943,NaN,3.771797,-3.648699,-1.650045,-4.159699,-2.812699,-7.566022,0.498051,-1.667785,-0.901122,-0.987549,0.290771,-0.534180,0.037690,-0.036616,-0.016277,0.999952,0.002490,-0.008339,-0.004506,0.558983,-0.361012,-0.356112,-0.656043
30944,NaN,5.450784,0.476463,-4.678950,-0.518274,-6.700824,-7.232190,0.784451,-2.054663,-1.067577,-0.997803,0.280029,-0.517090,0.055010,0.004654,-0.046208,0.999925,0.003922,-0.010273,-0.005338,0.553171,-0.363634,-0.366290,-0.653915
30945,NaN,10.808144,0.660844,1.840440,-0.617331,-3.263566,0.656319,1.273794,-2.354548,-1.216691,-1.009766,0.258545,-0.495850,0.107892,0.005829,0.019714,0.999892,0.006369,-0.011772,-0.006083,0.547132,-0.365545,-0.379145,-0.650594
30946,NaN,16.222302,1.380889,9.549069,-0.395587,1.541851,8.994097,2.125055,-2.039397,-1.110012,-1.025879,0.234863,-0.482910,0.161307,0.011885,0.097272,0.999876,0.010625,-0.010197,-0.005550,0.543467,-0.364222,-0.393620,-0.645793
30947,NaN,17.267027,2.364396,4.875092,-0.051487,-2.767547,8.070915,2.131535,-2.238751,-0.865671,-1.038086,0.215576,-0.463623,0.172207,0.022363,0.050923,0.999871,0.010657,-0.011193,-0.004328,0.540073,-0.363912,-0.408118,-0.639789
30948,NaN,19.731414,3.665936,-2.148694,0.556124,-9.803556,7.820787,2.992846,-2.263669,-0.506704,-1.050049,0.196045,-0.446533,0.197629,0.036453,-0.018705,0.999821,0.014963,-0.011318,-0.002533,0.539181,-0.361978,-0.424658,-0.630810
30949,NaN,16.400729,2.675354,-1.104353,0.064566,-7.099259,5.251911,3.537213,-2.022293,-0.328530,-1.060059,0.178955,-0.429443,0.164148,0.026654,-0.008912,0.999791,0.017685,-0.010111,-0.001643,0.540135,-0.358051,-0.441777,-0.620392
30950,NaN,12.308034,2.581218,1.325217,0.485768,-3.006042,2.460151,3.304285,-2.278545,-0.320392,-1.070312,0.166016,-0.410400,0.122956,0.025376,0.015075,0.999797,0.016520,-0.011392,-0.001602,0.539942,-0.355414,-0.458734,-0.609677
30951,NaN,10.494976,2.526203,1.497752,0.625354,-1.893682,0.900929,3.191226,-2.582576,-0.218708,-1.080566,0.159424,-0.389160,0.104769,0.024890,0.016730,0.999789,0.015955,-0.012912,-0.001093,0.538904,-0.354098,-0.475731,-0.598229
30952,NaN,9.658892,1.370217,-1.279536,-0.164802,-4.007424,-0.828540,3.290909,-2.570957,-0.035171,-1.090332,0.135742,-0.359131,0.096743,0.013880,-0.011325,0.999782,0.016453,-0.012854,-0.000176,0.538424,-0.352751,-0.492547,-0.585717
30953,NaN,8.892364,0.287561,-2.427682,-0.931232,-4.712107,-1.940372,3.614933,-2.597244,0.103308,-1.104980,0.131592,-0.337891,0.089227,0.003346,-0.023062,0.999752,0.018073,-0.012985,0.000516,0.538567,-0.350795,-0.509826,-0.571809
30954,NaN,9.904987,0.411721,-2.404876,-0.936880,-4.691081,-0.803268,4.034221,-2.696646,0.151335,-1.104736,0.120605,-0.314697,0.099358,0.004658,-0.022620,0.999705,0.020169,-0.013482,0.000757,0.539086,-0.347908,-0.528317,-0.556082
30955,NaN,10.850600,1.134040,-2.459305,-0.348211,-4.554356,0.394873,3.975461,-2.822306,0.299349,-1.121338,0.114258,-0.280762,0.108819,0.011969,-0.022825,0.999702,0.019875,-0.014110,0.001497,0.539212,-0.345730,-0.546304,-0.539698
30956,NaN,11.997702,1.862561,-2.106535,0.106440,-3.941652,1.861572,3.877334,-2.746228,0.451929,-1.120850,0.105469,-0.253174,0.120205,0.019279,-0.019046,0.999715,0.019385,-0.013730,0.002259,0.539531,-0.343797,-0.563367,-0.522807
30957,NaN,13.340959,2.984553,-2.435659,1.041037,-3.811823,3.498474,4.001308,-2.571920,0.544532,-1.125000,0.105469,-0.231934,0.133620,0.030665,-0.022031,0.999713,0.020005,-0.012858,0.002722,0.540428,-0.341164,-0.579672,-0.505495
30958,NaN,14.094156,3.466616,-2.702331,1.462475,-3.563877,4.438738,4.013683,-2.392547,0.573346,-1.129150,0.105469,-0.210938,0.141145,0.035581,-0.024628,0.999723,0.020067,-0.011962,0.002866,0.541692,-0.337893,-0.595295,-0.487875
30959,NaN,13.886793,3.331094,-2.626895,1.379871,-3.032241,4.319676,3.759268,-2.098341,0.658489,-1.139893,0.111816,-0.189697,0.139017,0.034236,-0.024173,0.999763,0.018795,-0.010491,0.003292,0.543269,-0.334712,-0.608901,-0.471240
30960,NaN,15.410516,3.369043,-2.662612,1.157586,-2.752873,5.903154,3.178587,-2.102068,0.545918,-1.137695,0.109619,-0.166504,0.154276,0.034512,-0.024461,0.999815,0.015892,-0.010510,0.002729,0.543420,-0.332576,-0.621242,-0.456230
30961,NaN,15.027018,4.480131,-2.212454,2.056003,-1.460086,5.820729,2.503066,-1.915925,0.595465,-1.137695,0.111572,-0.145264,0.150335,0.045509,-0.020118,0.999871,0.012515,-0.009579,0.002977,0.542913,-0.331955,-0.631094,-0.443590
30962,NaN,14.072389,3.705824,-1.582231,1.277659,-0.725924,4.750934,2.165970,-1.731348,0.723113,-1.137695,0.113770,-0.136963,0.140716,0.037727,-0.014198,0.999897,0.010829,-0.008656,0.003615,0.542628,-0.332098,-0.639512,-0.431613
30963,NaN,12.515743,1.433665,-0.498181,-0.898064,-0.268286,2.759562,2.619820,-1.845514,0.942315,-1.142090,0.126465,-0.117920,0.125126,0.014980,-0.003634,0.999861,0.013098,-0.009227,0.004711,0.543028,-0.331942,-0.648525,-0.417552
30964,NaN,12.080977,2.189098,1.803992,-1.162188,2.461614,2.294194,2.983525,-2.166325,1.076935,-1.144775,0.143555,-0.096924,0.120483,0.022255,0.019676,0.999816,0.014917,-0.010831,0.005384,0.543129,-0.331726,-0.658902,-0.401019
30965,NaN,12.530486,4.392587,-1.953911,2.352697,0.444901,3.392803,1.005098,-1.625938,1.204337,-1.145020,0.154297,-0.082275,0.125189,0.044774,-0.018297,0.999936,0.005025,-0.008130,0.006022,0.541813,-0.336205,-0.663300,-0.391712
30966,NaN,11.323368,2.308486,-2.160901,0.928571,-0.466474,1.897650,1.283275,-1.149701,1.506717,-1.145508,0.171387,-0.069580,0.113176,0.024073,-0.020806,0.999935,0.006416,-0.005748,0.007533,0.543086,-0.339889,-0.666515,-0.381171
30967,NaN,11.067054,1.802656,-1.017417,0.103896,0.521481,1.433471,1.709534,-1.199788,1.647952,-1.139648,0.190674,-0.063477,0.110574,0.019020,-0.009351,0.999912,0.008547,-0.005999,0.008240,0.545078,-0.342997,-0.670178,-0.368923
30968,NaN,11.632535,1.976890,-0.585766,0.050959,1.251602,1.934346,1.635082,-1.006032,1.622043,-1.140137,0.207764,-0.059326,0.116187,0.020755,-0.005106,0.999921,0.008175,-0.005030,0.008110,0.547463,-0.345740,-0.673260,-0.357028
30969,NaN,10.850596,3.502646,-2.034977,2.307804,0.903439,1.501016,-0.114430,-0.631941,1.629609,-1.134277,0.229248,-0.046875,0.108279,0.035898,-0.020028,0.999962,-0.000572,-0.003160,0.008148,0.548019,-0.352656,-0.671949,-0.351843
30970,NaN,8.773340,1.507680,-4.789487,2.320766,-2.520783,-0.302570,-1.299088,-1.217618,1.517135,-1.130127,0.235596,-0.023682,0.087907,0.015434,-0.047460,0.999932,-0.006495,-0.006088,0.007586,0.544260,-0.363368,-0.670436,-0.349657
30971,NaN,9.466749,2.404549,-2.721417,2.053404,-0.082115,0.116144,-0.694410,-1.339079,1.570803,-1.124268,0.256836,-0.017578,0.094655,0.024696,-0.026665,0.999941,-0.003472,-0.006695,0.007854,0.541216,-0.372845,-0.669979,-0.345253
30972,NaN,9.098692,2.976035,-0.720785,1.778142,1.946924,-0.581880,-1.575540,0.605199,1.514825,-1.120605,0.271973,-0.028320,0.090735,0.030389,-0.007720,0.999936,-0.007878,0.003026,0.007574,0.542866,-0.381049,-0.662926,-0.347315
30973,NaN,8.512399,2.200423,-1.171670,1.501214,1.070850,-1.136617,-2.309479,0.444394,1.065393,-1.124756,0.271973,-0.026123,0.084979,0.022318,-0.012162,0.999917,-0.011547,0.002222,0.005327,0.541736,-0.390048,-0.655632,-0.352891
30974,NaN,9.243451,-0.249760,-3.585288,0.303960,-2.086612,-0.121895,-2.951512,-0.214634,0.642270,-1.120850,0.284912,-0.017822,0.092481,-0.002728,-0.035715,0.999885,-0.014757,-0.001073,0.003211,0.536318,-0.400421,-0.649848,-0.360171
30975,NaN,9.219379,-0.799446,-1.200336,-1.175806,-0.208476,-0.557935,-3.255875,1.062191,0.498410,-1.123047,0.282715,-0.028320,0.092149,-0.007964,-0.012363,0.999850,-0.016279,0.005311,0.002492,0.534061,-0.408800,-0.640049,-0.371480
30976,NaN,9.869189,-2.625555,0.760564,-3.610456,0.887078,-0.270691,-3.876341,1.976927,0.136855,-1.119141,0.289062,-0.038818,0.098782,-0.026047,0.007136,0.999763,-0.019380,0.009884,0.000684,0.532570,-0.415763,-0.627321,-0.387273
30977,NaN,8.291996,0.917876,1.367722,-0.327745,2.439180,-1.724923,-2.632579,1.224908,-0.701386,-1.120850,0.280518,-0.045166,0.083033,0.009062,0.013049,0.999888,-0.013162,0.006124,-0.003507,0.529515,-0.418157,-0.620357,-0.399895
30978,NaN,5.785853,6.554100,-1.756091,6.205067,1.108843,-3.505296,1.064924,-0.128780,-0.486961,-1.125000,0.274170,-0.051514,0.058029,0.065492,-0.017175,0.999983,0.005325,-0.000644,-0.002435,0.530345,-0.414030,-0.623997,-0.397419
30979,NaN,7.406448,4.352139,-1.021622,3.695502,1.305271,-2.100494,3.490542,0.032228,-0.489709,-1.122803,0.267822,-0.053467,0.074169,0.043509,-0.009469,0.999845,0.017452,0.000161,-0.002448,0.536608,-0.403121,-0.631771,-0.387827
30980,NaN,8.012416,1.447849,-2.874721,1.591520,-1.335310,-1.431586,2.576310,-0.160875,-0.766096,-1.124756,0.261475,-0.063965,0.080203,0.014540,-0.028496,0.999909,0.012881,-0.000804,-0.003830,0.539722,-0.394010,-0.638848,-0.381222
30981,NaN,7.983639,-3.170851,-0.606070,-3.531721,-1.122668,-2.039267,1.652503,0.065041,-0.832239,-1.126465,0.250732,-0.063965,0.079702,-0.031989,-0.006350,0.999957,0.008262,0.000325,-0.004161,0.541568,-0.386754,-0.643442,-0.378296
30982,NaN,8.290253,-0.384719,3.969606,-2.955545,4.125996,-2.139777,1.414797,0.306300,-0.861596,-1.128174,0.237793,-0.065918,0.082945,-0.004485,0.039539,0.999965,0.007074,0.001531,-0.004308,0.543609,-0.379505,-0.647092,-0.376480
30983,NaN,6.579427,-0.261412,4.739620,-3.042573,4.681457,-3.926473,0.606150,-0.187725,-0.570275,-1.130127,0.233643,-0.065918,0.065742,-0.002945,0.047449,0.999991,0.003031,-0.000939,-0.002851,0.543066,-0.376365,-0.649828,-0.375704
30984,NaN,5.449573,0.616515,0.907946,-0.546867,1.539443,-4.499206,0.745336,-0.785925,-0.450015,-1.127930,0.231445,-0.059570,0.054473,0.006008,0.009316,0.999983,0.003727,-0.003930,-0.002250,0.541037,-0.374309,-0.654320,-0.372877
30985,NaN,6.461124,1.128738,-2.351182,1.131450,-0.996674,-3.010199,1.917662,-1.131560,-0.504935,-1.129883,0.227051,-0.051025,0.064771,0.011346,-0.023037,0.999935,0.009588,-0.005658,-0.002525,0.539940,-0.369558,-0.661866,-0.365821
30986,NaN,7.990985,2.133841,-0.431752,0.879680,1.410467,-1.699096,2.359716,-1.207114,-0.545285,-1.127441,0.216309,-0.046875,0.079991,0.021166,-0.003584,0.999908,0.011798,-0.006035,-0.002726,0.539232,-0.363517,-0.670505,-0.357083
30987,NaN,8.851397,3.288665,0.955479,0.992038,3.374722,-0.997935,1.982302,-1.144448,-0.577755,-1.129395,0.214111,-0.029785,0.088550,0.032531,0.010385,0.999930,0.009911,-0.005722,-0.002889,0.537921,-0.358256,-0.678141,-0.349884
30988,NaN,9.240455,2.917016,1.702435,0.117871,3.973382,-0.813258,1.759405,-0.916601,-0.363071,-1.137695,0.207764,-0.023438,0.092377,0.028849,0.017702,0.999949,0.008797,-0.004583,-0.001815,0.537269,-0.353841,-0.684402,-0.343122
30989,NaN,8.870663,3.665455,1.486903,0.813642,4.222381,-1.103912,1.725905,-0.876541,-0.187000,-1.135498,0.203369,-0.012939,0.088674,0.036439,0.015573,0.999953,0.008629,-0.004383,-0.000935,0.536968,-0.350054,-0.690024,-0.336146
30990,NaN,9.153969,3.191533,0.977945,0.524377,3.691927,-0.811021,0.965508,-1.395287,0.026317,-1.131348,0.211914,-0.002441,0.091464,0.031878,0.010572,0.999964,0.004827,-0.006976,0.000132,0.533829,-0.349856,-0.695403,-0.330215
30991,NaN,9.695814,3.815305,0.889550,0.901262,4.165746,-0.263449,0.735273,-1.663280,0.014713,-1.135254,0.203369,0.016846,0.096876,0.038125,0.009842,0.999959,0.003676,-0.008316,0.000074,0.529326,-0.350679,-0.701010,-0.324690
30992,NaN,10.146239,3.816329,1.484581,0.402732,4.886480,-0.031548,0.291815,-2.013092,-0.022451,-1.131104,0.207520,0.040039,0.101310,0.038129,0.015922,0.999948,0.001459,-0.010065,-0.000112,0.522672,-0.353055,-0.706876,-0.320143
30993,NaN,10.177388,3.147735,2.332596,-0.710034,5.403260,-0.366851,0.345042,-2.306895,0.042835,-1.133057,0.207275,0.069580,0.101489,0.031457,0.024552,0.999932,0.001725,-0.011534,0.000214,0.515152,-0.355976,-0.713341,-0.314712
30994,NaN,10.302377,2.213745,3.882693,-2.427474,6.371859,-0.889980,0.478771,-2.534257,0.098806,-1.130859,0.207275,0.090820,0.102509,0.022093,0.040181,0.999917,0.002394,-0.012671,0.000494,0.507031,-0.359043,-0.720421,-0.308222
30995,NaN,11.029517,1.779960,4.394516,-3.341715,6.912313,-0.583780,0.162062,-2.948272,0.102996,-1.128662,0.209229,0.133057,0.109622,0.017820,0.045579,0.999891,0.000810,-0.014741,0.000515,0.496797,-0.363509,-0.727889,-0.302045
30996,NaN,12.521513,1.920435,3.674935,-3.370251,7.006752,0.841706,-0.077565,-2.949355,-0.054059,-1.124268,0.205078,0.158447,0.124660,0.019185,0.038583,0.999891,-0.000388,-0.014746,-0.000270,0.485752,-0.367930,-0.735111,-0.297127
30997,NaN,14.727595,3.665572,2.535119,-2.044117,7.857715,3.257802,-0.757452,-1.882479,0.126604,-1.122070,0.207031,0.177490,0.147006,0.036848,0.026596,0.999948,-0.003787,-0.009412,0.000633,0.477593,-0.373015,-0.738294,-0.296119
30998,NaN,16.384603,4.969509,2.404008,-1.341206,9.041353,4.863310,-0.642596,-0.392849,0.394301,-1.126465,0.213379,0.173096,0.163700,0.050096,0.024201,0.999991,-0.003213,-0.001964,0.001972,0.475504,-0.376616,-0.737489,-0.296928
30999,NaN,17.393133,5.248926,3.161573,-1.605433,10.083292,5.543549,-1.088720,0.488208,0.680963,-1.128662,0.219971,0.177246,0.173827,0.053251,0.030903,0.999976,-0.005444,0.002441,0.003405,0.476244,-0.380984,-0.733420,-0.300230
31000,NaN,16.529178,2.237317,1.421439,-2.896664,6.827096,5.195161,-1.852818,0.547953,0.971955,-1.128662,0.213623,0.171143,0.165218,0.023304,0.013549,0.999942,-0.009264,0.002740,0.004860,0.476144,-0.388171,-0.727338,-0.305924
31001,NaN,15.286992,-0.352796,-0.195778,-3.890604,3.871002,4.460764,-1.591791,0.158344,1.043374,-1.124756,0.230713,0.175049,0.152884,-0.002747,-0.002055,0.999954,-0.007959,0.000792,0.005217,0.475195,-0.395497,-0.722476,-0.309516
31002,NaN,14.757590,-1.339840,-0.411821,-4.403817,3.147001,3.987747,-0.948840,-0.293795,1.002396,-1.125000,0.237061,0.181396,0.147646,-0.012677,-0.003840,0.999975,-0.004744,-0.001469,0.005012,0.473803,-0.401888,-0.719568,-0.310191
31003,NaN,15.589289,-1.760540,0.252569,-5.147923,3.856829,4.498518,-0.291693,-0.389748,0.984775,-1.127441,0.247803,0.179199,0.155972,-0.016834,0.002855,0.999985,-0.001458,-0.001949,0.004924,0.473326,-0.406722,-0.718056,-0.308114
31004,NaN,17.549704,-0.292026,1.953005,-4.875976,6.607839,5.822203,-0.159735,0.538077,0.954143,-1.134033,0.254150,0.164307,0.175560,-0.002067,0.019060,0.999985,-0.000799,0.002690,0.004771,0.476427,-0.409772,-0.714419,-0.307749
31005,NaN,17.739954,-0.371502,2.094771,-4.807969,6.641436,6.061613,0.116935,2.047040,0.934004,-1.140869,0.265137,0.143311,0.177616,-0.002897,0.019129,0.999937,0.000585,0.010235,0.004670,0.485377,-0.409656,-0.707771,-0.309275
31006,NaN,14.909820,0.619626,2.019376,-3.045474,6.010761,3.653665,0.595668,2.902450,1.166357,-1.143555,0.280273,0.103027,0.149331,0.007011,0.018048,0.999873,0.002978,0.014512,0.005832,0.498662,-0.407888,-0.698960,-0.310513
31007,NaN,14.501233,3.448365,-0.478196,0.989486,4.865528,4.249009,1.478169,3.488400,1.512115,-1.148682,0.299561,0.054199,0.144636,0.035625,-0.007047,0.999792,0.007390,0.017441,0.007560,0.516103,-0.403988,-0.689336,-0.308621
31008,NaN,15.761750,8.449648,-3.124834,6.925203,4.964482,6.216699,1.166988,4.674254,1.661079,-1.155518,0.308350,-0.009277,0.156128,0.085992,-0.034410,0.999675,0.005834,0.023369,0.008304,0.537019,-0.399439,-0.675262,-0.309967
31009,NaN,19.084598,5.277156,-8.657695,6.942966,-1.218897,10.614432,-0.169296,4.294287,-0.219663,-1.164307,0.308594,-0.049561,0.188986,0.052488,-0.090693,0.999769,-0.000846,0.021470,-0.001098,0.550707,-0.392406,-0.663760,-0.319628
31010,NaN,17.353888,2.109999,-3.577064,2.227536,0.616634,7.880003,1.475629,3.648667,-0.321971,-1.155518,0.297852,-0.089600,0.172884,0.021100,-0.038773,0.999805,0.007378,0.018242,-0.001610,0.565105,-0.381425,-0.656358,-0.323057
31011,NaN,14.609367,-0.834666,-5.015467,0.821284,-2.927165,5.353912,0.501922,2.838308,-0.521167,-1.159912,0.293701,-0.125488,0.145340,-0.008597,-0.052242,0.999893,0.002510,0.014191,-0.002606,0.574467,-0.373673,-0.650080,-0.328256
