// Start Time: Unknown
// Update Rate: 100.0Hz
// Filter Profile: human (46.1)
// Firmware Version: 4.4.0
PacketCounter,SampleTimeFine,Acc_X,Acc_Y,Acc_Z,FreeAcc_X,FreeAcc_Y,FreeAcc_Z,Gyr_X,Gyr_Y,Gyr_Z,Mag_X,Mag_Y,Mag_Z,VelInc_X,VelInc_Y,VelInc_Z,OriInc_q0,OriInc_q1,OriInc_q2,OriInc_q3,Quat_q0,Quat_q1,Quat_q2,Quat_q3
48538,NaN,15.173893,-12.241841,-8.768961,0.000000,0.000000,11.564498,0.846057,2.260643,0.014340,-0.900391,-0.138672,0.418213,0.150740,-0.122030,-0.089914,0.999927,0.004230,0.011303,0.000072,-0.192452,-0.422133,0.729457,-0.502651
48539,NaN,6.496102,-10.424291,-10.879626,1.572884,8.414825,4.185305,1.299843,0.553118,-0.004836,-0.904785,-0.134521,0.420166,0.064656,-0.103534,-0.109650,0.999975,0.006499,0.002766,-0.000024,-0.173475,-0.455537,0.647978,-0.585250
48540,NaN,5.367987,-5.925456,-4.917019,0.313379,3.042695,-0.938792,1.928805,-0.781116,-0.121214,-0.898438,-0.130371,0.441406,0.053837,-0.058811,-0.049529,0.999946,0.009644,-0.003906,-0.000606,-0.166897,-0.459863,0.642700,-0.589583
48541,NaN,17.038427,0.674101,-1.446722,-9.810803,-5.871720,2.919526,3.264126,-2.527874,-0.209309,-0.884033,-0.111084,0.466553,0.170555,0.006774,-0.012202,0.999786,0.016319,-0.012638,-0.001046,-0.147651,-0.472614,0.636527,-0.591328
48542,NaN,36.781776,13.421774,22.145670,-20.929424,-37.266121,4.208224,1.193221,1.830155,-1.072884,-0.898682,-0.119629,0.434814,0.370537,0.130924,0.218862,0.999926,0.005966,0.009151,-0.005364,-0.153817,-0.471463,0.629066,-0.598614
48543,NaN,12.800923,5.243305,-1.016693,-10.529507,-5.149195,-2.396570,2.553842,2.469655,-1.667577,-0.903076,-0.119629,0.426514,0.128308,0.051502,-0.011089,0.999807,0.012768,0.012347,-0.008337,-0.168267,-0.487556,0.585948,-0.625013
48544,NaN,9.155795,2.648044,-17.607681,-13.766902,11.803830,-1.328325,3.700463,1.717379,-1.431073,-0.907227,-0.121582,0.420166,0.090246,0.029093,-0.176333,0.999766,0.018501,0.008586,-0.007155,-0.168710,-0.489381,0.569314,-0.638690
48545,NaN,6.869757,1.490800,-2.585330,-5.251737,-0.482471,-4.494194,0.987229,0.540614,-0.686966,-0.907471,-0.113037,0.422119,0.068678,0.014800,-0.025966,0.999978,0.004936,0.002703,-0.003435,-0.177162,-0.508310,0.543391,-0.644174
48546,NaN,9.617626,3.239156,7.140338,-3.279096,-10.497792,-4.066541,0.513862,0.856672,-0.195807,-0.916016,-0.117432,0.407471,0.096513,0.032114,0.071073,0.999987,0.002569,0.004283,-0.000979,-0.178812,-0.506532,0.540473,-0.647566
48547,NaN,8.122113,4.237333,-0.611709,-6.699062,-3.557035,-4.638933,0.603253,0.968467,-0.172806,-0.922363,-0.113037,0.407471,0.081227,0.042322,-0.006383,0.999983,0.003016,0.004842,-0.000864,-0.186557,-0.522401,0.503600,-0.662330
48548,NaN,14.234106,9.725994,-1.931225,-13.983543,-6.381629,-1.770980,0.605583,1.022294,-0.214973,-0.928711,-0.117188,0.392578,0.142345,0.097166,-0.019746,0.999982,0.003028,0.005111,-0.001075,-0.188258,-0.520112,0.500070,-0.666313
48549,NaN,19.077695,12.071949,0.540509,-15.230565,-10.806421,2.884798,0.087525,1.568371,-0.374213,-0.928711,-0.121582,0.377930,0.191037,0.120360,0.003960,0.999967,0.000438,0.007842,-0.001871,-0.202366,-0.540571,0.452269,-0.679914
48550,NaN,21.597737,9.944961,7.080721,-10.999472,-15.389331,6.239124,-0.008209,2.003352,-0.617613,-0.943604,-0.125732,0.361084,0.216978,0.098783,0.068633,0.999945,-0.000041,0.010017,-0.003088,-0.209007,-0.535119,0.448576,-0.684648
48551,NaN,18.659877,9.256487,4.441413,-8.754449,-11.129914,6.095094,-0.266067,2.598320,-0.886894,-0.953857,-0.138428,0.331543,0.187562,0.091791,0.041859,0.999905,-0.001330,0.012991,-0.004434,-0.228193,-0.562695,0.364110,-0.706206
48552,NaN,17.379378,4.455857,3.186741,-5.994484,-6.501007,6.118967,-0.933222,3.474559,-0.952655,-0.964355,-0.146973,0.297852,0.174520,0.043867,0.028634,0.999827,-0.004666,0.017372,-0.004763,-0.240468,-0.550999,0.360697,-0.713073
48553,NaN,18.224389,0.978689,5.345927,-0.731772,-3.355181,8.890717,-1.703249,4.156219,-0.982001,-0.974609,-0.166016,0.253662,0.183348,0.009322,0.049576,0.999736,-0.008515,0.020779,-0.004910,-0.261748,-0.567275,0.271714,-0.732023
48554,NaN,21.434928,2.265921,2.991257,-4.549732,-1.631160,11.402110,-3.076045,4.906418,-1.233373,-0.989014,-0.187256,0.198975,0.215127,0.021737,0.024302,0.999562,-0.015378,0.024529,-0.006166,-0.281535,-0.546722,0.272934,-0.739824
48555,NaN,18.742174,0.659834,3.619018,-1.660894,1.203520,9.173791,-3.038604,5.804553,-1.422479,-0.997314,-0.206543,0.139893,0.188408,0.005754,0.030639,0.999438,-0.015190,0.029017,-0.007111,-0.304589,-0.545714,0.203783,-0.753588
48556,NaN,15.486310,0.257622,-6.627564,-8.241190,8.088116,2.451492,-3.003409,4.658032,-1.866813,-1.000977,-0.234131,0.087158,0.153272,0.000109,-0.069872,0.999572,-0.015015,0.023287,-0.009333,-0.324431,-0.525260,0.202825,-0.760071
48557,NaN,8.685288,2.348078,-15.208203,-13.857243,10.655505,-7.254868,-4.724468,5.028489,-1.746940,-0.998535,-0.255371,0.017578,0.083165,0.019109,-0.154690,0.999367,-0.023617,0.025137,-0.008733,-0.353257,-0.520535,0.170085,-0.758501
48558,NaN,2.462619,1.474150,-14.359436,-10.892671,9.030238,-13.572986,-4.984982,5.282265,-1.383810,-1.000488,-0.265869,-0.050049,0.020902,0.010994,-0.144484,0.999317,-0.024919,0.026405,-0.006917,-0.375725,-0.492525,0.175941,-0.765045
48559,NaN,-4.789622,-3.241785,-9.271198,-2.545906,6.000052,-18.581164,-3.961677,4.611416,-0.724540,-0.992188,-0.272217,-0.094238,-0.050128,-0.034052,-0.090909,0.999531,-0.019805,0.023053,-0.003622,-0.404598,-0.494777,0.165542,-0.751060
48560,NaN,-9.835606,-4.681244,-5.066159,2.521950,1.646976,-21.441278,-2.990267,3.343510,-0.548427,-0.985840,-0.274170,-0.134521,-0.099306,-0.047275,-0.048302,0.999745,-0.014950,0.016716,-0.002742,-0.416719,-0.476501,0.168608,-0.755555
48561,NaN,-11.570082,-5.620649,-3.451519,4.192120,0.023095,-22.453162,-2.374763,2.439923,-0.434747,-0.988037,-0.271973,-0.155762,-0.116227,-0.056348,-0.032431,0.999853,-0.011873,0.012199,-0.002174,-0.437201,-0.483194,0.168065,-0.739684
48562,NaN,-7.307420,-4.392908,-3.637120,2.666185,1.300928,-18.594506,-1.646648,1.548622,-0.213282,-0.992432,-0.274170,-0.176758,-0.073398,-0.044145,-0.035441,0.999936,-0.008233,0.007743,-0.001066,-0.443241,-0.474016,0.170243,-0.741528
48563,NaN,0.404674,1.334496,-2.523494,-2.538510,1.234351,-10.399890,-1.284433,1.197145,-0.133221,-0.990479,-0.269775,-0.191650,0.003904,0.013180,-0.025344,0.999961,-0.006422,0.005986,-0.000666,-0.456545,-0.480986,0.171987,-0.728450
48564,NaN,1.061470,0.913886,-2.919578,-2.464777,2.073421,-10.146523,-1.063719,1.047164,-0.093890,-0.981934,-0.273926,-0.208496,0.010466,0.008978,-0.029299,0.999972,-0.005319,0.005236,-0.000469,-0.460333,-0.474811,0.173240,-0.729819
48565,NaN,1.046596,-1.389655,-3.283533,-0.708419,3.527628,-10.741124,-0.599081,0.605006,-0.148020,-0.986084,-0.278320,-0.208496,0.010356,-0.014003,-0.032825,0.999991,-0.002995,0.003025,-0.000740,-0.466927,-0.484160,0.171399,-0.719854
48566,NaN,3.191042,-1.872850,-3.276354,-0.486954,4.852911,-9.014616,-0.199674,0.105464,-0.220379,-0.990234,-0.278320,-0.204102,0.031872,-0.018796,-0.032762,0.999999,-0.000998,0.000527,-0.001102,-0.468294,-0.483503,0.171338,-0.719423
48567,NaN,6.378018,-2.346279,-2.724866,0.107815,6.271631,-6.035911,0.362506,-0.359481,-0.217256,-0.990234,-0.278320,-0.197998,0.063804,-0.023483,-0.027177,0.999996,0.001813,-0.001797,-0.001086,-0.472064,-0.496839,0.172954,-0.707385
48568,NaN,8.926124,-2.330665,-2.301444,0.180679,7.207990,-3.614592,1.046175,-0.751862,-0.145184,-0.983887,-0.278320,-0.193604,0.089330,-0.023252,-0.022800,0.999979,0.005231,-0.003759,-0.000726,-0.469318,-0.502082,0.170664,-0.706065
48569,NaN,10.234823,-0.842029,-1.572386,-0.439398,6.377195,-1.623035,1.514703,-1.097656,0.057714,-0.992188,-0.280518,-0.174561,0.102435,-0.008274,-0.015225,0.999956,0.007573,-0.005488,0.000289,-0.467457,-0.518854,0.176005,-0.693756
48570,NaN,11.332133,1.070968,-0.812927,-1.583116,5.258519,0.190490,1.600199,-1.545076,0.245496,-0.994141,-0.282715,-0.149170,0.113366,0.010909,-0.007167,0.999937,0.008001,-0.007725,0.001227,-0.461065,-0.527705,0.174692,-0.691686
48571,NaN,12.013077,2.229358,1.236382,-1.029276,3.042760,2.040123,1.293157,-1.939595,0.223436,-1.002441,-0.284912,-0.130127,0.119977,0.022342,0.013672,0.999931,0.006466,-0.009698,0.001117,-0.456896,-0.546010,0.185052,-0.677403
48572,NaN,10.546415,2.002800,2.828876,0.187582,1.139760,1.228180,0.703336,-2.247113,0.156899,-1.004639,-0.280762,-0.102539,0.105121,0.020008,0.029542,0.999930,0.003517,-0.011235,0.000784,-0.452334,-0.555045,0.188219,-0.672230
48573,NaN,9.118829,1.076562,3.290755,1.438557,0.264245,-0.169229,0.328761,-2.609132,0.243572,-1.004639,-0.278564,-0.077393,0.090735,0.010821,0.034111,0.999913,0.001644,-0.013045,0.001218,-0.448322,-0.571664,0.201801,-0.656874
48574,NaN,8.059321,0.528436,3.741268,2.208308,-0.413958,-1.200200,0.233761,-3.013549,0.273584,-1.006836,-0.272217,-0.039307,0.080010,0.005349,0.038627,0.999885,0.001169,-0.015067,0.001368,-0.443663,-0.581744,0.208547,-0.649034
48575,NaN,9.373253,-0.219293,4.655811,3.643361,-0.764657,-0.029323,0.408951,-3.241343,0.243879,-1.006592,-0.270264,-0.005371,0.092964,-0.002177,0.048064,0.999866,0.002045,-0.016206,0.001219,-0.437710,-0.597656,0.221570,-0.634132
48576,NaN,12.509629,0.116941,6.102529,4.674680,-1.527189,3.208191,0.733688,-3.252150,0.295501,-1.008545,-0.270508,0.024170,0.124080,0.001124,0.063053,0.999860,0.003668,-0.016260,0.001477,-0.430917,-0.609162,0.227213,-0.625785
48577,NaN,13.106589,0.279755,7.201690,5.452368,-2.903188,3.809079,1.149863,-2.897050,0.441372,-1.006592,-0.264160,0.060059,0.129998,0.002664,0.073921,0.999876,0.005749,-0.014485,0.002207,-0.421479,-0.622292,0.236437,-0.615797
48578,NaN,12.709663,-0.382159,7.220265,6.160583,-2.975108,3.110029,1.866577,-2.743912,0.650255,-1.008789,-0.255615,0.089600,0.126104,-0.004095,0.073900,0.999857,0.009332,-0.013719,0.003251,-0.410366,-0.633816,0.238461,-0.610748
48579,NaN,13.171124,0.428851,5.754215,4.893481,-2.569242,3.461635,2.635257,-3.194258,0.867343,-1.002686,-0.240723,0.127441,0.130751,0.004080,0.059690,0.999776,0.013175,-0.015970,0.004336,-0.394166,-0.647286,0.243693,-0.605201
48580,NaN,14.034717,2.651266,3.292605,2.074712,-2.162349,4.534158,2.829563,-3.697849,1.092519,-0.998779,-0.223633,0.177979,0.139556,0.026783,0.035889,0.999714,0.014146,-0.018487,0.005462,-0.377086,-0.662535,0.245884,-0.598661
48581,NaN,15.160060,5.657500,1.426008,-1.016834,-2.984429,6.120835,2.430298,-4.054922,1.211135,-0.996826,-0.206787,0.218018,0.150915,0.057287,0.018018,0.999702,0.012150,-0.020273,0.006055,-0.359223,-0.675912,0.252968,-0.591700
48582,NaN,15.851876,6.218644,-0.973135,-2.503567,-2.082543,6.927938,1.620104,-3.931524,1.164562,-0.984375,-0.196045,0.260254,0.158297,0.063168,-0.006109,0.999757,0.008100,-0.019656,0.005822,-0.345243,-0.688815,0.259110,-0.582411
48583,NaN,15.986113,6.849553,-0.343141,-2.358417,-3.612420,7.037893,0.921007,-3.550384,1.100451,-0.973877,-0.183350,0.296143,0.159505,0.069380,-0.000280,0.999817,0.004605,-0.017751,0.005502,-0.333828,-0.698128,0.267177,-0.574276
48584,NaN,14.133787,4.600394,0.256119,-0.408811,-3.222377,4.693018,0.613436,-3.693939,0.910478,-0.967773,-0.172852,0.333984,0.141045,0.046633,0.005311,0.999814,0.003067,-0.018469,0.004552,-0.324077,-0.708412,0.274710,-0.563614
48585,NaN,13.441558,2.152103,0.433831,1.598857,-2.221803,3.528280,0.605632,-3.530267,0.905652,-0.955322,-0.159912,0.363525,0.134211,0.022111,0.006775,0.999829,0.003028,-0.017650,0.004528,-0.314986,-0.717181,0.281336,-0.554333
48586,NaN,11.815336,0.421239,1.395314,3.289150,-2.133218,1.427752,0.460828,-2.765500,0.864915,-0.948730,-0.157959,0.386719,0.117926,0.004688,0.015595,0.999892,0.002304,-0.013827,0.004324,-0.307012,-0.724278,0.287486,-0.546367
48587,NaN,9.004106,0.193982,1.654588,3.002245,-2.173917,-1.439727,-0.085238,-1.958180,0.985706,-0.947021,-0.145264,0.403564,0.089862,0.002390,0.017425,0.999940,-0.000426,-0.009791,0.004928,-0.302510,-0.726716,0.293667,-0.542339
48588,NaN,7.663822,0.015371,0.395550,2.048975,-1.115483,-2.501915,-0.444466,-0.764943,1.080988,-0.947266,-0.136475,0.401367,0.076620,0.000577,0.004248,0.999976,-0.002222,-0.003825,0.005405,-0.300063,-0.726514,0.299949,-0.540528
48589,NaN,5.981327,0.208677,0.215874,1.321319,-0.954142,-4.049907,-0.839775,0.425540,1.200139,-0.949707,-0.130127,0.395020,0.059804,0.002454,0.002022,0.999971,-0.004199,0.002128,0.006001,-0.301236,-0.720563,0.305419,-0.544761
48590,NaN,4.671648,0.046008,-1.489617,0.069631,0.582820,-4.944363,-0.813047,0.450800,1.358028,-0.958252,-0.123779,0.395020,0.046678,0.000716,-0.015004,0.999966,-0.004065,0.002254,0.006790,-0.301144,-0.716013,0.311837,-0.547170
48591,NaN,4.467233,-0.025846,-3.069799,-0.917785,1.864662,-4.806588,-0.532277,-0.201802,1.377167,-0.954346,-0.113037,0.396973,0.044704,-0.000032,-0.030653,0.999972,-0.002661,-0.001009,0.006886,-0.299746,-0.711900,0.318413,-0.549512
48592,NaN,6.077647,0.453377,-4.277335,-1.707029,2.247218,-2.922524,-0.458692,-1.061988,1.126397,-0.952393,-0.108643,0.407471,0.060976,0.004779,-0.042461,0.999967,-0.002293,-0.005310,0.005632,-0.296584,-0.712314,0.325264,-0.546671
48593,NaN,10.231548,-0.086487,-2.744172,0.413306,0.700323,0.749451,-0.521685,-1.531333,0.704754,-0.950195,-0.102295,0.424316,0.102524,-0.000574,-0.026656,0.999961,-0.002608,-0.007657,0.003524,-0.294507,-0.713445,0.331775,-0.542390
48594,NaN,13.933100,0.360087,-0.224462,2.324763,-2.313042,3.735350,-0.317276,-2.122655,0.240217,-0.931152,-0.098145,0.445312,0.139340,0.003766,-0.000772,0.999942,-0.001586,-0.010613,0.001201,-0.291449,-0.718294,0.336599,-0.534614
48595,NaN,15.993138,0.026078,3.281746,5.153662,-5.398543,4.707531,0.410512,-2.061452,-0.291742,-0.926758,-0.102539,0.462402,0.159582,-0.000042,0.034464,0.999944,0.002053,-0.010307,-0.001459,-0.287452,-0.723861,0.337369,-0.528753
48596,NaN,17.584118,0.935234,7.238101,7.268558,-9.428778,5.044130,0.971823,-1.198755,-0.601759,-0.918213,-0.100342,0.468750,0.175429,0.008469,0.073476,0.999966,0.004859,-0.005994,-0.003009,-0.283494,-0.729417,0.334334,-0.525170
48597,NaN,14.310070,3.389849,9.609772,6.105791,-12.078294,1.387692,0.980293,-0.239890,-0.460618,-0.918213,-0.102539,0.466553,0.143062,0.033097,0.096433,0.999985,0.004901,-0.001199,-0.002303,-0.281985,-0.729906,0.330152,-0.527941
48598,NaN,8.829270,1.168303,5.446730,4.268914,-6.458940,-2.809433,0.686955,0.694448,-0.292066,-0.926758,-0.100342,0.458008,0.088498,0.011367,0.054200,0.999987,0.003435,0.003472,-0.001460,-0.281392,-0.729514,0.326289,-0.531191
48599,NaN,8.175540,-2.503594,-3.593809,1.505800,3.003116,-1.167902,1.752026,2.066066,-0.635488,-0.942139,-0.089600,0.453857,0.081297,-0.024974,-0.036998,0.999903,0.008760,0.010330,-0.003177,-0.282695,-0.724037,0.315804,-0.544171
48600,NaN,15.840629,-3.022463,-3.952904,3.164809,2.602845,6.277489,2.201255,0.432463,-0.678447,-0.935547,-0.089600,0.458008,0.158217,-0.030322,-0.040205,0.999931,0.011006,0.002162,-0.003392,-0.277236,-0.726994,0.306725,-0.548216
48601,NaN,24.485245,-3.884241,-3.433165,5.821774,1.736468,14.466715,2.387889,-1.187720,-0.495368,-0.931396,-0.087402,0.472900,0.244956,-0.039047,-0.033343,0.999908,0.011939,-0.005938,-0.002477,-0.268189,-0.732088,0.297644,-0.550936
48602,NaN,17.182642,3.171303,3.631784,3.876348,-7.118776,6.086353,1.785403,-0.216857,-1.293307,-0.920898,-0.085449,0.472656,0.171986,0.030274,0.036779,0.999939,0.008927,-0.001084,-0.006466,-0.264878,-0.736959,0.288264,-0.551031
48603,NaN,10.429242,-1.660541,-0.112291,3.395443,0.031515,0.187482,3.432399,1.300483,-1.708577,-0.940186,-0.081055,0.462158,0.104134,-0.017465,-0.002095,0.999795,0.017161,0.006502,-0.008542,-0.260422,-0.737057,0.270563,-0.561893
48604,NaN,5.487346,-5.044069,-4.707044,1.331836,6.345999,-3.841446,3.499017,1.701284,-1.479614,-0.940186,-0.078857,0.451660,0.054094,-0.050004,-0.048410,0.999783,0.017494,0.008506,-0.007398,-0.253930,-0.738675,0.253007,-0.570847
48605,NaN,5.275405,-3.968984,-4.165485,0.708058,5.323900,-4.148115,2.093799,0.465447,-1.063919,-0.937988,-0.083252,0.451660,0.052446,-0.039530,-0.042192,0.999928,0.010469,0.002327,-0.005319,-0.249806,-0.738849,0.241455,-0.577407
48606,NaN,5.357942,-0.656903,-1.717649,0.323868,1.253576,-4.297888,1.516723,0.060805,-0.675752,-0.940186,-0.078857,0.453857,0.053552,-0.006619,-0.017243,0.999965,0.007584,0.000304,-0.003379,-0.246219,-0.741358,0.234496,-0.578599
48607,NaN,5.887649,0.670795,-1.509108,-0.286696,0.090184,-3.705196,1.019090,0.119953,-0.284627,-0.942627,-0.072510,0.458008,0.058877,0.006701,-0.015092,0.999986,0.005095,0.000600,-0.001423,-0.243739,-0.740287,0.230781,-0.582500
48608,NaN,7.494300,2.347876,-2.867295,-2.012770,-0.459609,-1.711090,0.613555,0.029184,0.110078,-0.936035,-0.074707,0.458008,0.074926,0.023608,-0.028612,0.999995,0.003068,0.000146,0.000550,-0.241180,-0.740819,0.229365,-0.583447
48609,NaN,11.262594,4.132403,-5.951019,-4.707434,-0.175706,2.723096,0.462915,-0.389490,0.371274,-0.940918,-0.057373,0.462158,0.112664,0.041670,-0.059195,0.999994,0.002315,-0.001947,0.001856,-0.238116,-0.740268,0.229910,-0.585188
48610,NaN,13.407116,4.332641,-6.228950,-4.572021,-0.407558,4.892794,0.723797,-0.591567,0.311938,-0.934326,-0.057373,0.466309,0.134186,0.043760,-0.061735,0.999988,0.003619,-0.002958,0.001560,-0.233841,-0.742493,0.229649,-0.584195
48611,NaN,13.471208,4.044863,-4.559393,-3.117789,-1.318584,4.580423,0.848209,-0.585954,0.254783,-0.930420,-0.049072,0.480957,0.134793,0.040812,-0.045027,0.999986,0.004241,-0.002930,0.001274,-0.229696,-0.743732,0.228701,-0.584635
48612,NaN,13.084208,3.497359,-3.290749,-1.857096,-1.738921,3.890730,0.885025,-0.376775,0.148961,-0.932373,-0.051025,0.480957,0.130877,0.035215,-0.032505,0.999988,0.004425,-0.001884,0.000745,-0.225536,-0.745671,0.227098,-0.584410
48613,NaN,10.355722,2.440039,-0.555038,0.307202,-2.370816,0.569393,0.812518,-0.113398,-0.058812,-0.937012,-0.042480,0.478760,0.103567,0.024392,-0.005393,0.999992,0.004063,-0.000567,-0.000294,-0.223423,-0.746046,0.224626,-0.585697
48614,NaN,9.652383,1.355968,1.106622,2.110120,-2.441556,-0.548892,0.812738,0.138432,-0.182886,-0.934814,-0.040283,0.478760,0.096544,0.013426,0.011054,0.999991,0.004064,0.000692,-0.000914,-0.221081,-0.746747,0.221407,-0.586917
48615,NaN,10.498865,1.553511,4.496680,4.793138,-4.603171,-0.394832,0.478644,0.501357,-0.151567,-0.935059,-0.038330,0.480957,0.105113,0.015348,0.044740,0.999994,0.002393,0.002507,-0.000758,-0.221292,-0.744975,0.218723,-0.590086
48616,NaN,11.372006,3.091610,3.925041,3.597303,-5.513266,0.720562,-0.033835,0.620154,-0.075133,-0.939209,-0.036133,0.468262,0.113853,0.030880,0.038892,0.999995,-0.000169,0.003101,-0.000376,-0.222317,-0.743187,0.217856,-0.592273
48617,NaN,13.266711,4.690107,1.458852,1.004447,-5.355135,3.242709,-0.226957,0.802731,-0.176246,-0.945312,-0.048828,0.457764,0.132765,0.046800,0.014003,0.999991,-0.001135,0.004014,-0.000881,-0.226019,-0.739301,0.216821,-0.596103
48618,NaN,17.325423,7.011032,4.421750,2.585992,-9.018494,6.945694,-0.858969,1.809959,-0.433695,-0.955811,-0.059570,0.436768,0.173795,0.069918,0.042346,0.999947,-0.004295,0.009050,-0.002168,-0.232437,-0.733367,0.215721,-0.601341
48619,NaN,19.079427,7.906185,8.142593,4.851773,-11.611503,8.474501,-1.204448,3.047569,-0.741314,-0.974609,-0.070068,0.411621,0.192293,0.078828,0.078028,0.999859,-0.006022,0.015237,-0.003706,-0.244525,-0.721720,0.212752,-0.611608
48620,NaN,19.299073,7.486407,8.723824,5.151010,-11.126516,9.007804,-0.685226,3.641853,-1.074122,-0.991455,-0.083008,0.369385,0.194933,0.074111,0.083446,0.999814,-0.003426,0.018208,-0.005370,-0.254110,-0.710754,0.206480,-0.622594
48621,NaN,19.311534,4.789897,10.641274,7.750447,-9.460010,9.147232,-0.363753,4.031674,-1.176485,-0.999512,-0.102051,0.331543,0.195485,0.046942,0.102402,0.999778,-0.001819,0.020157,-0.005882,-0.266214,-0.696331,0.197540,-0.636577
48622,NaN,18.352216,2.747686,8.192825,6.576714,-5.748235,8.493735,-0.193097,3.787140,-1.363377,-1.007812,-0.114746,0.297852,0.185211,0.026295,0.078406,0.999797,-0.000965,0.018934,-0.006816,-0.274912,-0.685226,0.188328,-0.647628
48623,NaN,23.979102,6.960186,-2.183125,-4.387006,-0.825987,14.846328,-3.806458,5.224909,-1.721449,-1.024170,-0.146729,0.226318,0.239673,0.067027,-0.029387,0.999441,-0.019029,0.026120,-0.008606,-0.301826,-0.661055,0.186938,-0.661031
48624,NaN,18.697743,1.354665,6.314643,4.565899,-1.807180,9.346403,-4.087259,6.048282,-1.742804,-1.036133,-0.178711,0.165283,0.188883,0.013115,0.057182,0.999296,-0.020431,0.030234,-0.008712,-0.326531,-0.636065,0.185427,-0.674104
48625,NaN,19.368012,3.602889,-2.875660,-4.421251,4.055225,9.166902,-4.422745,5.415597,-2.494059,-1.039795,-0.214844,0.095703,0.193217,0.032893,-0.034744,0.999311,-0.022109,0.027072,-0.012467,-0.356889,-0.609274,0.182818,-0.684100
48626,NaN,13.526999,5.040995,-9.853700,-10.579284,7.516532,1.887635,-5.119878,5.692825,-2.917185,-1.041260,-0.246826,0.017822,0.133060,0.045849,-0.103559,0.999161,-0.025592,0.028456,-0.014582,-0.387360,-0.582828,0.181132,-0.690982
48627,NaN,5.352763,4.174162,-14.992498,-12.976639,10.008119,-8.347751,-5.668215,5.642744,-2.049662,-1.034668,-0.261719,-0.041260,0.049644,0.036922,-0.152455,0.999148,-0.028333,0.028206,-0.010245,-0.417867,-0.551516,0.182988,-0.698379
48628,NaN,-1.293685,-1.496444,-10.009903,-4.713141,7.536642,-14.818308,-4.765135,4.836870,-1.125463,-1.030518,-0.270020,-0.106934,-0.015439,-0.017256,-0.099353,0.999408,-0.023821,0.024180,-0.005626,-0.439112,-0.525377,0.186308,-0.704591
48629,NaN,-4.860289,-4.891980,-7.759953,0.053812,6.062156,-18.238239,-3.885551,4.011844,-0.565380,-1.028320,-0.274170,-0.155518,-0.050274,-0.050261,-0.075634,0.999606,-0.019425,0.020057,-0.002827,-0.455892,-0.502120,0.188856,-0.710191
48630,NaN,-4.537977,-5.979625,-3.688815,3.508599,3.553364,-16.521591,-2.934998,3.118289,-0.004612,-1.030762,-0.271973,-0.189209,-0.045940,-0.060321,-0.035292,0.999771,-0.014674,0.015590,-0.000023,-0.466117,-0.484246,0.192114,-0.715075
48631,NaN,-0.232319,-3.643814,-1.705702,2.298790,2.883861,-11.437124,-2.334102,2.391372,0.339230,-1.022705,-0.263184,-0.214844,-0.002461,-0.036638,-0.016601,0.999859,-0.011670,0.011956,0.001696,-0.473421,-0.469100,0.195382,-0.719474
48632,NaN,3.778622,-0.828362,-1.303081,-0.350009,3.238067,-7.352139,-2.293693,1.951922,0.416945,-1.023193,-0.252441,-0.240234,0.037675,-0.008357,-0.013303,0.999884,-0.011468,0.009759,0.002085,-0.479153,-0.456187,0.199968,-0.722716
48633,NaN,5.215763,-0.946149,-1.804467,-0.670142,4.433108,-6.458066,-2.255900,1.670404,0.378327,-1.023438,-0.245850,-0.263428,0.052023,-0.009569,-0.018372,0.999900,-0.011279,0.008352,0.001892,-0.484948,-0.443695,0.204919,-0.725237
48634,NaN,4.938032,-1.091463,-2.114599,-0.645313,4.615919,-6.927629,-1.729904,1.360052,0.325037,-1.019287,-0.241699,-0.276367,0.049253,-0.011019,-0.021386,0.999938,-0.008649,0.006800,0.001625,-0.488971,-0.434208,0.208602,-0.727225
48635,NaN,4.591661,-0.538707,-2.652432,-1.317531,4.610453,-7.485329,-1.009848,0.939167,0.284284,-1.017334,-0.237305,-0.284668,0.045799,-0.005456,-0.026712,0.999975,-0.005049,0.004696,0.001421,-0.491226,-0.427695,0.210770,-0.728937
48636,NaN,5.458899,-1.792296,-3.072420,-0.506320,5.932208,-7.166149,-0.137483,0.439159,0.179934,-1.017334,-0.237305,-0.291016,0.054537,-0.017895,-0.030832,0.999997,-0.000687,0.002196,0.000900,-0.491326,-0.425564,0.210576,-0.730172
48637,NaN,6.428994,-2.078263,-2.461853,-0.166698,6.136818,-6.067894,0.766580,0.017472,0.035632,-1.019531,-0.237305,-0.286865,0.064291,-0.020677,-0.024704,0.999993,0.003833,0.000087,0.000178,-0.489461,-0.427337,0.208213,-0.731066
48638,NaN,5.077959,-1.601388,-1.378137,0.053368,4.422866,-6.543931,1.430316,-0.268378,-0.160323,-1.019043,-0.248047,-0.276123,0.050785,-0.015956,-0.013827,0.999973,0.007152,-0.001342,-0.000802,-0.486699,-0.431973,0.203293,-0.731571
48639,NaN,3.291101,-0.901853,-0.781812,-0.043053,2.721531,-7.611023,1.739202,-0.658996,-0.327728,-1.018799,-0.256592,-0.263428,0.032922,-0.009005,-0.007788,0.999955,0.008696,-0.003295,-0.001639,-0.483143,-0.439128,0.198476,-0.730990
48640,NaN,2.862963,-0.216657,-0.811126,-0.591974,2.193099,-7.878459,1.671830,-1.070688,-0.397248,-1.018555,-0.260986,-0.252930,0.028668,-0.002156,-0.007976,0.999949,0.008359,-0.005353,-0.001986,-0.479837,-0.447451,0.194069,-0.729302
48641,NaN,2.846949,0.306801,-0.592147,-0.929407,1.760363,-7.670956,1.318382,-1.509496,-0.339132,-1.026855,-0.263184,-0.227539,0.028518,0.003058,-0.005686,0.999948,0.006592,-0.007547,-0.001696,-0.476263,-0.456705,0.192828,-0.726231
48642,NaN,3.592296,0.790467,0.036558,-1.110587,1.426954,-6.609462,0.794616,-2.000978,-0.195911,-1.024414,-0.269775,-0.202148,0.035924,0.007867,0.000756,0.999942,0.003973,-0.010005,-0.000980,-0.473203,-0.466024,0.194248,-0.721920
48643,NaN,4.446488,0.968651,0.720485,-0.980206,1.200012,-5.473705,0.272033,-2.417047,-0.005340,-1.030762,-0.269775,-0.178711,0.044374,0.009675,0.007755,0.999926,0.001360,-0.012085,-0.000027,-0.469782,-0.475730,0.199625,-0.716335
48644,NaN,4.439414,0.219489,1.541536,0.136090,0.848090,-5.187384,0.248584,-3.023390,0.157008,-1.036865,-0.271973,-0.146973,0.044153,0.002210,0.016087,0.999885,0.001243,-0.015116,0.000785,-0.465557,-0.486929,0.206186,-0.709678
48645,NaN,5.708080,-0.499622,3.107904,1.505797,0.438697,-3.486005,0.441012,-3.444677,0.323343,-1.041260,-0.265625,-0.111084,0.056542,-0.004974,0.032045,0.999848,0.002205,-0.017223,0.001617,-0.459277,-0.500150,0.214024,-0.702217
48646,NaN,6.275983,-0.251955,4.436211,2.040554,-0.670652,-2.429558,0.668143,-3.842408,0.416152,-1.045410,-0.259277,-0.062500,0.061898,-0.002541,0.045548,0.999808,0.003340,-0.019211,0.002081,-0.451945,-0.514632,0.221500,-0.694145
48647,NaN,7.220064,0.771712,5.867633,2.004764,-2.207637,-0.966894,0.995690,-4.178129,0.488957,-1.043213,-0.257324,-0.022461,0.070935,0.007594,0.060205,0.999766,0.004978,-0.020889,0.002445,-0.442606,-0.530932,0.229376,-0.685272
48648,NaN,7.922958,1.884324,6.373986,1.512879,-3.259904,-0.116464,1.415032,-4.417327,0.613379,-1.039062,-0.246826,0.030518,0.077737,0.018623,0.065600,0.999726,0.007075,-0.022085,0.003067,-0.431562,-0.548348,0.235868,-0.676339
48649,NaN,13.058844,3.928406,6.666542,0.129688,-3.396933,4.979339,1.838185,-4.677234,0.700078,-1.041260,-0.240479,0.079102,0.128839,0.039104,0.070052,0.999678,0.009190,-0.023384,0.003500,-0.418320,-0.567121,0.242210,-0.666871
48650,NaN,16.060046,5.554075,5.912417,-1.252049,-3.487708,7.792391,1.718133,-4.298361,0.818047,-1.030518,-0.234375,0.125488,0.159046,0.055663,0.063032,0.999724,0.008590,-0.021490,0.004090,-0.405401,-0.583897,0.247724,-0.658291
48651,NaN,16.823330,6.677773,4.400052,-2.189337,-3.740063,8.301910,1.635786,-4.071003,0.856792,-1.030762,-0.219482,0.167725,0.166997,0.067113,0.047956,0.999750,0.008178,-0.020353,0.004284,-0.351859,-0.613791,0.216069,-0.672882
48652,NaN,15.271318,5.371569,2.464783,-2.087997,-2.444543,6.242281,1.396013,-4.149712,0.881725,-1.022461,-0.208740,0.218262,0.151915,0.054198,0.028183,0.999751,0.006979,-0.020747,0.004408,-0.340039,-0.629101,0.221325,-0.663040
48653,NaN,14.457738,4.562982,0.716005,-2.200393,-1.588687,5.119231,0.299462,-4.055611,0.914824,-1.013916,-0.198242,0.260498,0.144181,0.046276,0.010156,0.999783,0.001497,-0.020277,0.004574,-0.297307,-0.652965,0.196641,-0.668265
48654,NaN,13.064559,2.048490,3.058395,1.465017,-1.881163,3.548834,-0.220875,-3.231530,1.057888,-1.011963,-0.187744,0.283691,0.130018,0.021209,0.032665,0.999855,-0.001104,-0.016157,0.005289,-0.291274,-0.662298,0.205608,-0.658974
48655,NaN,10.324956,2.335123,4.105776,2.364516,-3.242447,0.808140,-1.336034,-2.622456,1.072994,-1.007812,-0.185547,0.300537,0.102573,0.024182,0.042246,0.999877,-0.006680,-0.013112,0.005365,-0.261179,-0.676558,0.188389,-0.662242
48656,NaN,9.773478,0.233194,4.348362,3.860635,-2.058832,-0.048836,-1.747253,-2.206857,1.123713,-0.999512,-0.177002,0.315186,0.097231,0.003265,0.044533,0.999885,-0.008736,-0.011034,0.005618,-0.261260,-0.680446,0.200836,-0.654523
48657,NaN,8.338447,-0.936019,6.085694,6.035796,-2.190279,-1.675966,-2.119461,-1.793204,1.043139,-0.992920,-0.183594,0.325684,0.082879,-0.008276,0.061693,0.999890,-0.010597,-0.008966,0.005216,-0.241116,-0.689156,0.190240,-0.656305
48658,NaN,6.845639,-0.316541,6.801274,6.144188,-3.446304,-3.210638,-2.175133,-1.447867,0.826666,-0.990723,-0.183594,0.334229,0.067972,-0.002140,0.068533,0.999906,-0.010875,-0.007239,0.004133,-0.244498,-0.690433,0.201953,-0.650183
48659,NaN,2.557706,0.139002,5.481140,4.623498,-3.115332,-7.462966,-1.269831,-0.965469,0.546241,-0.988770,-0.179199,0.340576,0.025308,0.001808,0.054923,0.999964,-0.006349,-0.004827,0.002731,-0.230099,-0.696042,0.191858,-0.652511
48660,NaN,0.802806,-0.367555,1.547185,1.541506,-0.547905,-9.107767,1.263933,-0.493373,0.395317,-0.990967,-0.172852,0.353271,0.007997,-0.003757,0.015468,0.999975,0.006320,-0.002467,0.001977,-0.223932,-0.698708,0.189673,-0.652446
48661,NaN,5.785105,1.779209,-2.674355,-2.749336,0.027689,-3.793986,1.546994,-0.939832,0.174534,-0.978271,-0.166504,0.363770,0.057960,0.018047,-0.026332,0.999959,0.007735,-0.004699,0.000873,-0.203436,-0.706603,0.171376,-0.655711
48662,NaN,11.823746,2.389158,-5.114463,-4.507559,0.764473,2.465533,1.530908,-2.328071,-0.321414,-0.976074,-0.164307,0.391113,0.118859,0.024084,-0.049580,0.999902,0.007654,-0.011640,-0.001607,-0.197067,-0.715997,0.167573,-0.648407
48663,NaN,19.232919,1.040393,-2.521492,-0.545856,0.646394,9.593914,0.454931,-1.797414,-1.055164,-0.960938,-0.173096,0.407959,0.192597,0.009443,-0.023463,0.999943,0.002275,-0.008987,-0.005276,-0.186436,-0.725519,0.151566,-0.644896
48664,NaN,19.790475,-4.360622,4.408742,8.488160,2.248309,8.975522,0.513880,-1.658588,-1.160500,-0.947754,-0.183838,0.422852,0.197273,-0.044868,0.045611,0.999945,0.002569,-0.008293,-0.005802,-0.187047,-0.732185,0.147238,-0.638153
48665,NaN,57.578803,7.858453,32.713967,34.276433,-18.577682,44.286127,4.338180,1.228233,-2.014238,-0.956543,-0.179443,0.403809,0.578494,0.065700,0.325111,0.999695,0.021689,0.006141,-0.010070,-0.169880,-0.734790,0.115039,-0.646522
48666,NaN,36.400204,-4.283040,8.272299,13.818206,2.876811,25.007135,3.119721,2.534359,-0.472337,-0.971924,-0.168701,0.388916,0.364901,-0.044927,0.077413,0.999795,0.015598,0.012671,-0.002362,-0.161369,-0.729368,0.101044,-0.657094
48667,NaN,8.870395,-1.522522,-11.431412,-9.404983,5.990064,-0.468663,2.043154,4.081110,-1.199333,-0.978271,-0.175049,0.355225,0.086256,-0.014566,-0.116242,0.999722,0.010215,0.020404,-0.005996,-0.152583,-0.717745,0.078593,-0.674821
48668,NaN,-2.405864,-6.108463,-17.035636,-14.455703,10.853490,-12.365249,2.327758,2.263138,-1.195909,-0.980225,-0.177002,0.346924,-0.026346,-0.058946,-0.170761,0.999850,0.011638,0.011315,-0.005979,-0.149132,-0.712246,0.064710,-0.682845
48669,NaN,-3.474742,-2.021225,-6.810053,-6.162584,3.455850,-13.364540,0.012539,-0.097445,-0.187291,-0.975830,-0.183594,0.353271,-0.034733,-0.020175,-0.068119,0.999999,0.000063,-0.000487,-0.000936,-0.143146,-0.712539,0.057421,-0.684471
48670,NaN,-1.054058,3.412126,-7.070831,-7.805437,-1.278127,-10.246901,-2.263786,-1.106836,0.122040,-0.975586,-0.192139,0.361816,-0.010168,0.033311,-0.071145,0.999920,-0.011319,-0.005534,0.000610,-0.150464,-0.714613,0.066391,-0.679912
48671,NaN,2.405586,6.927228,-8.799999,-10.246631,-3.696431,-6.269407,-0.878561,-0.833259,-0.269517,-0.971191,-0.196533,0.361816,0.024516,0.068852,-0.088202,0.999981,-0.004393,-0.004166,-0.001348,-0.149377,-0.716914,0.064087,-0.677949
48672,NaN,6.103343,8.041417,-7.617058,-9.114626,-4.711215,-2.419500,1.506731,-0.717619,-0.373532,-0.969238,-0.187988,0.372314,0.061456,0.080869,-0.075342,0.999963,0.007534,-0.003588,-0.001868,-0.145007,-0.720563,0.058174,-0.675557
48673,NaN,12.091037,3.208935,-2.244235,-1.988261,-1.107949,2.691083,1.727819,-0.801649,-0.149230,-0.971436,-0.183594,0.391357,0.121022,0.032189,-0.021680,0.999954,0.008639,-0.004008,-0.000746,-0.134094,-0.724775,0.046864,-0.674184
48674,NaN,11.723143,0.951439,1.408121,2.176332,0.028801,1.831290,-0.301336,-0.769623,0.084447,-0.962646,-0.190186,0.386963,0.117172,0.009586,0.014518,0.999991,-0.001507,-0.003848,0.000422,-0.134720,-0.727140,0.048701,-0.671377
48675,NaN,13.385876,3.384893,1.524982,1.880011,-2.145684,3.782395,-0.281329,0.133953,0.060890,-0.964844,-0.185791,0.386963,0.133859,0.033911,0.015112,0.999999,-0.001407,0.000670,0.000304,-0.131461,-0.726654,0.045133,-0.672796
48676,NaN,12.713076,2.606129,0.362909,0.860530,-1.172890,3.088075,0.685479,0.330092,-0.074658,-0.960449,-0.190186,0.389160,0.127146,0.026002,0.003508,0.999993,0.003427,0.001650,-0.000373,-0.129295,-0.726004,0.042339,-0.674098
48677,NaN,13.074548,-0.151025,-0.159755,0.995446,1.689615,3.115820,0.437926,0.195453,-0.190272,-0.965088,-0.183594,0.380615,0.130742,-0.001631,-0.001729,0.999997,0.002190,0.000977,-0.000951,-0.125367,-0.725682,0.036523,-0.675526
48678,NaN,13.032088,-1.978347,1.777585,3.264192,3.020035,2.722599,-0.280128,0.140120,-0.073534,-0.962891,-0.185791,0.384766,0.130326,-0.019807,0.017712,0.999999,-0.001401,0.000701,-0.000368,-0.126657,-0.725044,0.037114,-0.675937
48679,NaN,13.236816,-0.819209,2.003451,3.198846,1.899623,3.073622,-0.090387,0.141158,0.154018,-0.965088,-0.185791,0.378662,0.132389,-0.008081,0.019945,0.999999,-0.000452,0.000706,0.000770,-0.123488,-0.724445,0.034572,-0.677300
48680,NaN,13.352569,0.372442,1.950950,2.865349,0.756513,3.357480,0.531594,0.308830,0.267937,-0.969238,-0.183594,0.378662,0.133551,0.003852,0.019313,0.999994,0.002658,0.001544,0.001340,-0.120708,-0.723676,0.033551,-0.678673
48681,NaN,12.144588,1.504574,3.471801,3.946552,-0.797052,2.253670,0.614835,0.756280,0.324642,-0.969482,-0.177246,0.367920,0.121552,0.015137,0.034305,0.999987,0.003074,0.003781,0.001623,-0.115585,-0.721245,0.030148,-0.682302
48682,NaN,11.407942,2.779073,5.501291,5.511245,-2.519056,1.650591,0.422803,1.426136,0.181070,-0.980225,-0.175049,0.355225,0.114443,0.027779,0.054256,0.999972,0.002114,0.007131,0.000905,-0.113655,-0.716575,0.028534,-0.687596
48683,NaN,12.014455,4.665013,7.861180,7.311300,-4.654402,2.547821,0.273424,2.017920,-0.177728,-0.989014,-0.172852,0.336182,0.120971,0.046436,0.077458,0.999948,0.001367,0.010089,-0.000889,-0.112248,-0.709458,0.024398,-0.695323
48684,NaN,11.712398,5.311412,7.590306,6.709284,-5.116605,2.508049,0.774141,2.312887,-0.611464,-0.995117,-0.179199,0.311035,0.118154,0.052463,0.074745,0.999921,0.003871,0.011564,-0.003057,-0.111901,-0.701868,0.018238,-0.703226
48685,NaN,12.553721,5.872602,6.859118,5.731484,-5.146285,3.595742,1.648260,2.228186,-0.925985,-0.999268,-0.187744,0.294189,0.126563,0.057581,0.067663,0.999893,0.008241,0.011141,-0.004630,-0.108163,-0.694433,0.006300,-0.711354
48686,NaN,15.396572,6.069675,0.849873,-0.571115,-3.678534,6.334562,-0.052725,3.289776,-1.345691,-1.007568,-0.198242,0.260498,0.154481,0.059660,0.005945,0.999842,-0.000264,0.016448,-0.006728,-0.113218,-0.682635,0.000035,-0.721936
48687,NaN,13.272360,3.775691,4.168564,2.622513,-2.023459,4.215228,-1.374666,4.064119,-1.221593,-1.011475,-0.219482,0.216064,0.133759,0.037215,0.038717,0.999751,-0.006873,0.020319,-0.006107,-0.121942,-0.666403,-0.002221,-0.735549
48688,NaN,13.662333,3.903363,2.573750,0.418431,-1.555415,4.536122,-2.188502,3.926486,-1.677154,-1.019531,-0.238770,0.167725,0.137410,0.038142,0.022624,0.999712,-0.010941,0.019631,-0.008385,-0.135323,-0.650417,-0.002154,-0.747423
48689,NaN,13.754312,4.127204,-2.473103,-5.196959,-0.470013,3.790258,-3.823974,4.485215,-2.031256,-1.018799,-0.268555,0.114990,0.137337,0.039354,-0.028578,0.999514,-0.019117,0.022422,-0.010155,-0.155437,-0.630079,0.002238,-0.760812
48690,NaN,9.978234,1.813542,-4.729363,-6.712689,1.768502,-1.037902,-4.342056,4.236471,-1.911933,-1.020752,-0.289795,0.058105,0.098906,0.016124,-0.049760,0.999494,-0.021707,0.021179,-0.009558,-0.176355,-0.610292,0.009437,-0.772239
48691,NaN,8.681683,3.245154,-7.739785,-9.992451,1.279972,-3.158953,-4.863194,3.693419,-1.847055,-1.016113,-0.311035,0.001221,0.085642,0.029737,-0.079732,0.999491,-0.024312,0.018464,-0.009234,-0.198489,-0.591035,0.019018,-0.781613
48692,NaN,5.505425,0.955503,-6.222488,-7.269209,2.508632,-6.527972,-4.419746,3.529273,-1.232207,-1.018066,-0.319580,-0.045166,0.053994,0.007828,-0.063370,0.999581,-0.022096,0.017644,-0.006160,-0.216615,-0.572725,0.029137,-0.790073
48693,NaN,4.571761,-2.636250,-3.260323,-3.052885,4.801307,-7.341832,-3.442901,2.895688,-0.575614,-1.011719,-0.323730,-0.076904,0.045166,-0.027057,-0.032798,0.999743,-0.017213,0.014477,-0.002878,-0.228310,-0.557285,0.037080,-0.797454
48694,NaN,5.231502,-3.658730,-1.280353,-1.068739,5.377126,-6.300122,-2.515713,2.409349,-0.282156,-1.011719,-0.325684,-0.112793,0.052108,-0.036823,-0.012970,0.999847,-0.012578,0.012046,-0.001411,-0.236856,-0.544772,0.043568,-0.803259
48695,NaN,5.706598,-3.175011,-0.960153,-1.177012,5.036300,-5.711743,-1.704748,2.053979,-0.135007,-1.011719,-0.329834,-0.138184,0.056944,-0.031872,-0.009915,0.999911,-0.008523,0.010270,-0.000675,-0.241158,-0.534416,0.046644,-0.808744
48696,NaN,6.931045,-1.759469,-0.624740,-1.952995,4.133038,-4.278391,-1.071624,1.648543,-0.092450,-1.003662,-0.321289,-0.153076,0.069248,-0.017662,-0.006724,0.999952,-0.005358,0.008243,-0.000462,-0.244768,-0.526451,0.048740,-0.812750
48697,NaN,7.549064,-1.246663,0.002820,-1.940320,3.721620,-3.415297,-0.497998,1.239838,-0.157904,-1.003418,-0.327637,-0.165771,0.075479,-0.012527,-0.000409,0.999977,-0.002490,0.006199,-0.000790,-0.246114,-0.520805,0.048309,-0.816000
48698,NaN,6.281311,-0.775951,0.907308,-1.035983,2.598209,-4.063262,-0.053407,0.976188,-0.215151,-1.005615,-0.329834,-0.172119,0.062848,-0.007825,0.008768,0.999987,-0.000267,0.004881,-0.001076,-0.247364,-0.516799,0.046765,-0.818256
48699,NaN,4.015927,-0.771959,1.064353,-0.161833,1.762555,-5.975557,0.360312,0.596993,-0.248588,-1.001221,-0.332031,-0.172119,0.040181,-0.007789,0.010510,0.999993,0.001802,0.002985,-0.001243,-0.247790,-0.514828,0.044186,-0.819512
48700,NaN,3.136311,-0.282977,1.003024,-0.135456,1.058316,-6.684722,0.854197,0.137539,-0.271975,-0.996826,-0.336182,-0.174072,0.031366,-0.002915,0.009996,0.999990,0.004271,0.000688,-0.001360,-0.246734,-0.515375,0.039814,-0.819711
48701,NaN,3.407761,-0.227318,0.790457,-0.424662,1.190909,-6.543026,1.404648,-0.262720,-0.313578,-0.994629,-0.340576,-0.157227,0.034064,-0.002382,0.007933,0.999973,0.007023,-0.001314,-0.001568,-0.243198,-0.518273,0.033039,-0.819241
48702,NaN,3.559545,0.154040,0.614255,-0.765668,0.979975,-6.417883,1.819137,-0.567964,-0.391438,-0.996582,-0.346924,-0.144531,0.035581,0.001414,0.006257,0.999953,0.009096,-0.002840,-0.001957,-0.239983,-0.522848,0.025262,-0.817557
48703,NaN,3.254225,0.926156,0.770607,-0.813181,0.149934,-6.442585,1.951029,-0.858617,-0.462865,-0.998291,-0.353516,-0.127441,0.032530,0.009110,0.007935,0.999941,0.009755,-0.004293,-0.002314,-0.235241,-0.528771,0.016401,-0.815349
48704,NaN,3.419355,1.519157,0.657797,-1.140957,-0.276997,-6.199716,1.800024,-1.204504,-0.420032,-0.993896,-0.360107,-0.104248,0.034184,0.015059,0.006920,0.999939,0.009000,-0.006022,-0.002100,-0.232081,-0.535798,0.009368,-0.811770
48705,NaN,4.201563,1.191125,0.550637,-1.280820,0.324089,-5.614002,1.582589,-1.547152,-0.272932,-0.997803,-0.364258,-0.087158,0.041987,0.011808,0.005925,0.999938,0.007913,-0.007736,-0.001365,-0.227306,-0.543934,0.003153,-0.807748
48706,NaN,5.163753,1.277539,0.829058,-1.267851,0.514022,-4.605856,1.345435,-1.786210,-0.064854,-0.997803,-0.362305,-0.066162,0.051564,0.012700,0.008837,0.999937,0.006727,-0.008931,-0.000324,-0.223867,-0.552642,-0.000428,-0.802789
48707,NaN,6.145869,1.112262,0.689394,-1.507489,1.015195,-3.797742,1.220162,-1.861746,0.146742,-0.995605,-0.358154,-0.036621,0.061382,0.011123,0.007533,0.999938,0.006101,-0.009309,0.000734,-0.218396,-0.561499,-0.003701,-0.798128
48708,NaN,6.206219,0.621793,0.194963,-1.682104,1.556874,-4.008639,1.440163,-1.985007,0.283858,-0.991455,-0.353760,-0.013428,0.062030,0.006289,0.002611,0.999924,0.007201,-0.009925,0.001419,-0.213240,-0.570953,-0.006483,-0.792780
48709,NaN,6.403655,0.091469,-0.069611,-1.685819,2.106575,-4.004204,1.757923,-2.287485,0.391609,-0.997803,-0.351807,0.020508,0.064037,0.001042,0.000045,0.999894,0.008789,-0.011437,0.001958,-0.204743,-0.581915,-0.011138,-0.786976
48710,NaN,6.928151,-0.344018,0.103971,-1.382232,2.577778,-3.522180,1.876893,-2.496705,0.612932,-1.002197,-0.343262,0.050049,0.069272,-0.003243,0.001873,0.999873,0.009384,-0.012483,0.003065,-0.196984,-0.593618,-0.014183,-0.780137
48711,NaN,7.704566,-0.828658,0.243818,-1.144388,3.158820,-2.825859,1.846099,-2.532560,0.738905,-1.000000,-0.334961,0.081787,0.077037,-0.008030,0.003339,0.999870,0.009230,-0.012662,0.003694,-0.186956,-0.605377,-0.017838,-0.773465
48712,NaN,7.769194,-1.315762,0.125302,-0.988034,3.567693,-2.855690,1.721910,-2.527706,0.835475,-1.004395,-0.326416,0.109131,0.077723,-0.012849,0.002124,0.999874,0.008609,-0.012638,0.004177,-0.178715,-0.616757,-0.019603,-0.766347
48713,NaN,8.013195,0.100052,0.248800,-1.108490,2.188439,-2.179770,1.076538,-2.506668,0.867483,-0.998291,-0.315674,0.136475,0.080087,0.001331,0.003499,0.999898,0.005383,-0.012533,0.004337,-0.171056,-0.627464,-0.019457,-0.759375
48714,NaN,7.264896,0.600759,1.512411,0.278721,1.163950,-2.464836,0.624168,-2.595481,1.049654,-0.996582,-0.296631,0.166016,0.072412,0.006339,0.016084,0.999897,0.003121,-0.012977,0.005248,-0.165348,-0.637887,-0.016312,-0.751993
48715,NaN,9.521506,1.353280,2.229959,0.717094,0.771109,0.002910,0.120586,-2.918210,1.330775,-0.992676,-0.285889,0.191162,0.094783,0.014150,0.023693,0.999871,0.000603,-0.014590,0.006654,-0.158901,-0.649116,-0.010794,-0.743829
48716,NaN,16.025554,1.257991,2.377396,0.519588,2.218476,6.275808,-0.592532,-2.937336,1.128717,-0.988525,-0.279541,0.214355,0.159809,0.013558,0.026084,0.999872,-0.002963,-0.014686,0.005643,-0.156764,-0.659545,-0.002592,-0.735132
48717,NaN,17.868315,4.385938,3.829166,1.495070,-0.894914,8.898796,-0.545768,-2.705271,0.499816,-0.984131,-0.277588,0.243896,0.178034,0.044414,0.040582,0.999902,-0.002729,-0.013526,0.002499,-0.156300,-0.669132,0.003234,-0.726514
48718,NaN,23.467790,6.031850,9.632320,6.900605,-2.590250,15.198351,0.493460,-1.903823,-0.231147,-0.979736,-0.281738,0.258789,0.233815,0.059806,0.098700,0.999951,0.002467,-0.009519,-0.001156,-0.155450,-0.676402,0.002156,-0.719938
48719,NaN,22.926805,5.830782,17.459175,14.881863,-4.127213,15.206273,0.533029,-0.124626,-0.833282,-0.977295,-0.286133,0.256836,0.229398,0.056886,0.174888,0.999988,0.002665,-0.000623,-0.004166,-0.157274,-0.677317,-0.001490,-0.718683
48720,NaN,20.559748,7.255567,22.300017,19.515557,-6.723523,13.565921,1.161247,-0.131202,-0.743425,-0.977295,-0.290527,0.269531,0.205716,0.070494,0.223548,0.999976,0.005806,-0.000656,-0.003717,-0.156009,-0.678677,-0.008077,-0.717630
48721,NaN,19.172266,3.921718,17.353816,15.654828,-2.684895,10.967531,0.923518,-1.056024,-0.236711,-0.970947,-0.286133,0.280029,0.190848,0.038186,0.174725,0.999975,0.004618,-0.005280,-0.001184,-0.154366,-0.682926,-0.010518,-0.713914
48722,NaN,18.635757,2.499114,12.278802,11.204746,-0.385883,9.645173,0.486086,-0.608736,-0.168528,-0.968750,-0.288330,0.273682,0.186003,0.024535,0.123415,0.999992,0.002430,-0.003044,-0.000843,-0.153338,-0.685457,-0.012358,-0.711676
48723,NaN,17.245816,3.195414,11.822219,10.676287,-1.270609,8.402584,-0.221699,0.041900,-0.223489,-0.966553,-0.292725,0.277832,0.172519,0.031892,0.118151,0.999999,-0.001108,0.000210,-0.001117,-0.155135,-0.684682,-0.011872,-0.712041
48724,NaN,16.166201,2.842011,10.854371,9.782685,-1.003503,7.232315,-0.735611,0.171950,-0.247658,-0.970459,-0.299072,0.275879,0.161791,0.028618,0.108300,0.999992,-0.003678,0.000860,-0.001238,-0.158523,-0.683476,-0.010233,-0.712479
48725,NaN,12.335723,0.576146,9.679040,9.086429,0.427556,2.971642,-0.649461,0.571793,-0.347216,-0.964111,-0.303223,0.267334,0.123643,0.005860,0.096418,0.999989,-0.003247,0.002859,-0.001736,-0.163102,-0.680328,-0.008204,-0.714482
48726,NaN,9.518973,-1.035919,8.142173,7.940409,1.585835,-0.199490,-0.996422,0.565318,-0.455706,-0.972656,-0.305420,0.254639,0.095396,-0.010171,0.081203,0.999981,-0.004982,0.002827,-0.002279,-0.168093,-0.677461,-0.006655,-0.716063
48727,NaN,8.523844,-0.806971,7.254741,6.988140,1.280194,-1.125624,-1.290474,0.474110,-0.545377,-0.965820,-0.316162,0.248535,0.085389,-0.007835,0.072396,0.999973,-0.006452,0.002371,-0.002727,-0.174832,-0.673961,-0.003560,-0.717773
48728,NaN,7.698108,0.431173,5.215594,4.695150,0.357460,-1.782940,-1.344524,0.303953,-0.630893,-0.969971,-0.326904,0.239990,0.077074,0.004419,0.052009,0.999971,-0.006723,0.001520,-0.003154,-0.181616,-0.671661,-0.001125,-0.718252
48729,NaN,7.083859,2.074134,3.553303,2.630794,-0.933518,-2.110977,-1.043507,0.252893,-0.683081,-0.967529,-0.335449,0.231689,0.070954,0.020684,0.035335,0.999980,-0.005217,0.001264,-0.003415,-0.188193,-0.669051,0.001044,-0.718994
48730,NaN,8.221747,0.254189,2.698459,2.252134,1.310315,-1.557127,-0.226505,-0.010217,-0.506593,-0.965332,-0.337402,0.233887,0.082222,0.002364,0.026986,0.999996,-0.001133,-0.000051,-0.002533,-0.190771,-0.668871,0.000174,-0.718483
48731,NaN,18.701571,-5.431373,2.473929,3.212552,9.555952,7.031652,1.169141,-0.155169,-0.178862,-0.965332,-0.335449,0.248535,0.186948,-0.054625,0.024566,0.999982,0.005846,-0.000776,-0.000894,-0.187237,-0.669789,-0.004382,-0.718544
48732,NaN,23.565058,-2.636059,7.598390,7.250497,7.056947,12.938708,0.887672,-0.133369,0.418371,-0.971680,-0.333252,0.248535,0.235655,-0.026205,0.076025,0.999988,0.004438,-0.000667,0.002092,-0.182761,-0.671096,-0.006045,-0.718465
48733,NaN,23.717618,1.405970,12.850519,11.165402,1.933468,14.707225,-1.706034,0.216476,0.286531,-0.967285,-0.339600,0.235840,0.237293,0.015494,0.128120,0.999962,-0.008530,0.001082,0.001433,-0.187202,-0.668015,0.001231,-0.720215
48734,NaN,23.717840,7.668901,1.157612,-2.013221,-1.060406,15.036902,-2.391195,0.533263,0.183465,-0.973877,-0.337402,0.217041,0.237136,0.077033,0.010024,0.999925,-0.011956,0.002666,0.000917,-0.194516,-0.663800,0.009956,-0.722104
48735,NaN,8.493874,5.428566,-13.744930,-15.156071,1.055341,-2.085264,-0.127189,1.377476,0.403019,-0.978271,-0.337402,0.206299,0.083880,0.054368,-0.138064,0.999974,-0.000636,0.006887,0.002015,-0.195134,-0.657823,0.012486,-0.727349
48736,NaN,0.344502,-4.234034,-17.768389,-15.656034,8.891381,-12.909931,-0.178859,0.482870,0.535538,-0.987061,-0.326660,0.204102,0.003130,-0.042491,-0.177654,0.999993,-0.000894,0.002414,0.002678,-0.193802,-0.655849,0.014428,-0.729448
48737,NaN,-3.394410,-2.089970,-16.221972,-14.572313,5.475467,-15.871490,0.086620,0.353825,0.238179,-0.982666,-0.328857,0.202148,-0.034206,-0.020870,-0.162168,0.999998,0.000433,0.001769,0.001191,-0.191946,-0.654071,0.014530,-0.731530
48738,NaN,-2.964120,-2.934446,-13.157772,-11.496817,5.427323,-15.187244,1.762336,-0.450344,-0.346215,-0.978516,-0.322510,0.220947,-0.029394,-0.028132,-0.131896,0.999957,0.008812,-0.002252,-0.001731,-0.187407,-0.657401,0.007385,-0.729827
48739,NaN,-0.100678,-5.290695,-5.736382,-4.103905,6.307543,-11.879455,4.063038,-2.049039,-0.730979,-0.969971,-0.324707,0.257080,-0.000602,-0.051724,-0.058430,0.999734,0.020313,-0.010244,-0.003655,-0.177180,-0.668269,-0.006667,-0.722481
48740,NaN,5.630521,-1.556643,-8.892396,-8.489525,4.830360,-5.595555,4.229051,-2.040522,-0.723015,-0.968018,-0.314209,0.290771,0.057158,-0.013895,-0.088649,0.999718,0.021143,-0.010202,-0.003615,-0.165679,-0.679168,-0.022547,-0.714684
48741,NaN,9.840049,3.869862,-14.690488,-15.305575,1.613677,-0.288193,3.971121,-1.270513,-0.709835,-0.957275,-0.307861,0.313965,0.099471,0.041245,-0.145473,0.999776,0.019854,-0.006352,-0.003549,-0.155681,-0.686717,-0.036432,-0.709123
48742,NaN,13.997361,4.028704,-14.010556,-14.431277,1.987362,4.194187,4.566087,-1.878435,-0.680683,-0.942871,-0.292969,0.355957,0.141419,0.042971,-0.137821,0.999690,0.022828,-0.009391,-0.003403,-0.142710,-0.696588,-0.053481,-0.701098
48743,NaN,20.589997,7.438722,-9.353974,-9.538084,-0.478472,11.992981,4.244104,-2.943041,-0.215486,-0.934570,-0.278076,0.394043,0.207312,0.076084,-0.088893,0.999666,0.021218,-0.014714,-0.001077,-0.129317,-0.709814,-0.066229,-0.689242
48744,NaN,21.313105,10.808330,-3.252499,-2.819288,-4.336609,13.741953,3.308512,-2.615527,0.080483,-0.926270,-0.263184,0.421387,0.213473,0.108657,-0.027940,0.999778,0.016541,-0.013077,0.000402,-0.118133,-0.720831,-0.075635,-0.678768
48745,NaN,14.687830,5.249853,-2.416238,-1.526959,-0.987665,5.865810,2.470806,-1.296318,0.151926,-0.924561,-0.252441,0.437988,0.146988,0.052895,-0.022558,0.999902,0.012354,-0.006481,0.000760,-0.108384,-0.726787,-0.082774,-0.673188
48746,NaN,9.068126,-2.434532,-5.639165,-4.798545,4.949907,-1.302263,2.019005,-1.241663,0.530740,-0.912109,-0.235352,0.454834,0.091093,-0.023537,-0.056067,0.999926,0.010095,-0.006208,0.002654,-0.099763,-0.732223,-0.086958,-0.668083
48747,NaN,8.341061,-4.755205,-4.819632,-3.985662,6.824252,-2.535725,2.557888,-1.631839,0.766073,-0.908447,-0.218262,0.473633,0.083983,-0.046615,-0.048113,0.999878,0.012789,-0.008159,0.003830,-0.088204,-0.739310,-0.091440,-0.661272
48748,NaN,9.972727,-3.455897,-4.954511,-3.858261,5.843075,-0.489866,1.817654,-1.418266,0.568048,-0.906738,-0.203369,0.488525,0.100173,-0.033827,-0.049145,0.999930,0.009088,-0.007091,0.002840,-0.080245,-0.745005,-0.094714,-0.655406
48749,NaN,9.350605,-3.773481,-2.925933,-1.839620,5.889666,-1.317991,2.351387,-1.505265,0.571583,-0.896484,-0.181885,0.511475,0.093832,-0.037125,-0.028993,0.999898,0.011757,-0.007526,0.002858,-0.070582,-0.751309,-0.098412,-0.648744
48750,NaN,9.785510,-4.277577,-3.428716,-2.228796,6.366367,-0.851138,2.048217,-1.572480,0.658915,-0.884277,-0.164795,0.532471,0.098262,-0.042104,-0.033949,0.999911,0.010241,-0.007862,0.003294,-0.061514,-0.757387,-0.102012,-0.642008
48751,NaN,8.139814,-3.888040,-2.796077,-1.723217,5.510436,-2.339105,2.426764,-1.910748,0.914411,-0.880615,-0.141357,0.549072,0.081839,-0.038170,-0.027646,0.999870,0.012133,-0.009553,0.004572,-0.050856,-0.764959,-0.104006,-0.633589
48752,NaN,8.913338,-1.533521,-3.490332,-1.913862,3.226569,-0.873826,2.544396,-2.057641,0.940507,-0.872559,-0.122070,0.574463,0.089557,-0.014477,-0.034171,0.999855,0.012721,-0.010288,0.004702,-0.039203,-0.772500,-0.107925,-0.624547
48753,NaN,9.254864,1.690914,-7.560533,-5.213123,-0.276783,1.069047,1.432738,-1.961408,0.853451,-0.853760,-0.109375,0.584717,0.093209,0.017843,-0.074568,0.999917,0.007163,-0.009807,0.004267,-0.032614,-0.779634,-0.106780,-0.616202
48754,NaN,7.948248,1.965005,-5.496425,-3.241167,-0.771880,-0.531468,1.279345,-1.786529,0.923501,-0.847900,-0.087891,0.603516,0.079876,0.020366,-0.054123,0.999929,0.006397,-0.008932,0.004617,-0.025728,-0.785783,-0.106817,-0.608665
48755,NaN,9.294590,1.941816,-3.854980,-1.144132,-0.444286,0.361319,1.098536,-1.704953,0.830138,-0.839600,-0.079346,0.616211,0.093187,0.020013,-0.037647,0.999940,0.005493,-0.008525,0.004151,-0.020248,-0.791838,-0.104898,-0.601315
48756,NaN,8.226001,-0.056192,-2.830518,-0.540264,1.315400,-1.230307,1.439759,-1.668008,0.778214,-0.829590,-0.060059,0.632812,0.082493,-0.000041,-0.027619,0.999932,0.007199,-0.008340,0.003891,-0.013076,-0.797351,-0.105963,-0.593997
48757,NaN,8.896623,3.717759,-3.288705,-0.060476,-2.384465,0.091628,0.694175,-1.332934,0.746826,-0.823486,-0.051514,0.639160,0.089042,0.037622,-0.032164,0.999965,0.003471,-0.006665,0.003734,-0.009160,-0.802026,-0.103287,-0.588220
48758,NaN,9.328074,4.073033,-5.190361,-1.563943,-2.896574,1.128330,-0.539455,-0.972828,0.495605,-0.816895,-0.055908,0.647705,0.093431,0.040822,-0.051559,0.999981,-0.002697,-0.004864,0.002478,-0.010362,-0.805102,-0.099660,-0.584612
48759,NaN,8.910599,0.507210,-0.694934,2.123566,0.940803,-1.167272,1.369859,-1.131070,0.382579,-0.808838,-0.036621,0.660156,0.089133,0.005288,-0.006410,0.999959,0.006849,-0.005655,0.001913,-0.004488,-0.808891,-0.100731,-0.579249
48760,NaN,9.904087,0.109365,1.203826,4.253304,1.688434,-0.946477,1.681349,-1.080625,0.343417,-0.811279,-0.025879,0.662109,0.098972,0.001159,0.012583,0.999949,0.008407,-0.005403,0.001717,0.002768,-0.812188,-0.104175,-0.574012
48761,NaN,10.188817,-0.044496,0.668701,3.892436,1.796576,-0.545417,0.934626,-0.326748,0.085620,-0.805176,-0.021729,0.664307,0.101877,-0.000433,0.006851,0.999988,0.004673,-0.001634,0.000428,0.006327,-0.813393,-0.104985,-0.572128
48762,NaN,7.982845,-0.101788,-2.737263,0.015165,1.036680,-1.436900,0.976073,0.120106,-0.066617,-0.805420,-0.010986,0.662109,0.079812,-0.000911,-0.027425,0.999988,0.004880,0.000601,-0.000333,0.010175,-0.812973,-0.108036,-0.572102
48763,NaN,6.929275,2.222017,-4.531408,-1.525740,-1.692171,-1.548666,1.249066,-0.403436,-0.116514,-0.801270,-0.002441,0.672607,0.069397,0.022462,-0.045034,0.999978,0.006245,-0.002017,-0.000583,0.014489,-0.814182,-0.110737,-0.569767
48764,NaN,8.165773,2.746228,-5.129157,-1.473490,-2.146059,-0.130164,2.070052,-0.604065,-0.074948,-0.793213,0.012451,0.674561,0.081822,0.027959,-0.050757,0.999942,0.010350,-0.003020,-0.000375,0.022373,-0.815664,-0.116969,-0.566137
48765,NaN,8.853838,2.929105,-3.737865,0.189765,-2.047782,0.021490,2.215607,-0.395762,-0.141110,-0.798096,0.027588,0.678711,0.088633,0.029639,-0.036876,0.999936,0.011078,-0.001979,-0.000706,0.030284,-0.816696,-0.122107,-0.563188
48766,NaN,8.577995,3.043511,-2.860169,1.009110,-2.074080,-0.554981,1.909432,0.093924,-0.261161,-0.794189,0.044678,0.676514,0.085806,0.030595,-0.028350,0.999953,0.009547,0.000470,-0.001306,0.037408,-0.815945,-0.128522,-0.562421
48767,NaN,8.173016,3.868939,-2.923889,1.086354,-2.985725,-0.856091,2.310435,0.141389,-0.305533,-0.796875,0.057617,0.680420,0.081769,0.038899,-0.028848,0.999932,0.011552,0.000707,-0.001528,0.045591,-0.815150,-0.134579,-0.561551
48768,NaN,8.549576,4.334000,-2.852968,1.510532,-3.378460,-0.521783,2.627617,-0.132467,-0.150045,-0.797119,0.072510,0.678223,0.085547,0.043645,-0.027901,0.999913,0.013138,-0.000662,-0.000750,0.055792,-0.814751,-0.142578,-0.559231
48769,NaN,8.934262,3.186429,-2.128191,2.065266,-2.073427,-0.542404,2.077205,-0.385387,-0.016677,-0.795410,0.085449,0.682373,0.089386,0.032074,-0.020777,0.999944,0.010386,-0.001927,-0.000083,0.063416,-0.815486,-0.146955,-0.556206
48770,NaN,8.662869,2.355983,-2.203988,1.746515,-1.362676,-0.837968,1.460783,-0.581365,0.038929,-0.787354,0.098145,0.684326,0.086687,0.023736,-0.021615,0.999969,0.007304,-0.002907,0.000195,0.069058,-0.816643,-0.151030,-0.552734
48771,NaN,8.497358,2.490354,-2.026614,1.986713,-1.482723,-1.073832,1.130969,-0.906194,0.089520,-0.781250,0.108887,0.686523,0.085053,0.025054,-0.019739,0.999974,0.005655,-0.004531,0.000448,0.072862,-0.819034,-0.152797,-0.548204
48772,NaN,9.361186,2.626275,-1.376150,3.026481,-1.264058,-0.557213,1.011659,-1.204864,0.080432,-0.772949,0.115234,0.705322,0.093681,0.026368,-0.013064,0.999969,0.005058,-0.006024,0.000402,0.076309,-0.822004,-0.155665,-0.542452
48773,NaN,10.176989,3.020347,-0.085321,4.713178,-1.098255,-0.363959,0.940231,-1.315742,0.039994,-0.760254,0.117432,0.711670,0.101766,0.030225,-0.000042,0.999967,0.004701,-0.006579,0.000200,0.078924,-0.825416,-0.157353,-0.536376
48774,NaN,11.159632,2.713452,0.677498,5.771868,-0.360178,0.132799,1.042883,-1.238803,-0.013714,-0.758301,0.128174,0.715820,0.111553,0.027089,0.007607,0.999967,0.005214,-0.006194,-0.000069,0.082220,-0.828290,-0.160681,-0.530431
48775,NaN,11.735208,2.587891,1.478689,6.753565,0.149742,0.235395,1.270257,-0.934830,-0.094444,-0.748047,0.140869,0.726318,0.117293,0.025727,0.015499,0.999969,0.006351,-0.004674,-0.000472,0.086234,-0.830272,-0.163836,-0.525710
48776,NaN,11.524732,2.414702,0.663839,6.014082,0.081177,0.331969,1.439113,-0.662803,-0.155608,-0.746338,0.153809,0.730469,0.115243,0.024007,0.007193,0.999968,0.007195,-0.003314,-0.000778,0.091260,-0.831240,-0.168535,-0.521831
48777,NaN,11.702671,1.973316,-0.501075,5.024149,0.178329,0.949415,1.479841,-0.598890,-0.202426,-0.744385,0.162354,0.730225,0.117061,0.019649,-0.004515,0.999968,0.007399,-0.002994,-0.001012,0.096051,-0.832047,-0.172407,-0.518410
48778,NaN,11.898507,1.824503,-1.594966,4.218958,0.028314,1.573532,1.342993,-0.607333,-0.254276,-0.738281,0.168701,0.728027,0.119056,0.018199,-0.015466,0.999972,0.006715,-0.003037,-0.001271,0.100460,-0.832734,-0.177223,-0.514834
48779,NaN,12.202867,1.928125,-1.896617,4.218843,-0.080816,1.952456,1.139327,-0.700395,-0.279027,-0.729980,0.177490,0.732178,0.122121,0.019217,-0.018429,0.999977,0.005697,-0.003502,-0.001395,0.103595,-0.833764,-0.180708,-0.511323
48780,NaN,12.309745,1.975748,-1.261279,4.890059,0.183069,1.723208,0.889013,-0.783364,-0.287980,-0.729980,0.177246,0.747070,0.123174,0.019635,-0.012043,0.999981,0.004445,-0.003917,-0.001440,0.105862,-0.835031,-0.184573,-0.507394
48781,NaN,12.240860,2.092675,-0.516979,5.595856,0.386360,1.278797,0.750822,-0.846546,-0.296657,-0.715332,0.183838,0.742676,0.122460,0.020763,-0.004573,0.999983,0.003754,-0.004233,-0.001483,0.107148,-0.836556,-0.187156,-0.503653
48782,NaN,12.085876,2.087581,0.038401,6.055903,0.641366,0.833500,0.863836,-0.797352,-0.339492,-0.721680,0.181641,0.747070,0.120891,0.020667,0.000955,0.999981,0.004319,-0.003987,-0.001697,0.109165,-0.837769,-0.191165,-0.499683
48783,NaN,12.080600,2.163981,0.546759,6.556347,0.831688,0.543178,1.195326,-0.688662,-0.455883,-0.711426,0.196533,0.746826,0.120835,0.021330,0.006012,0.999974,0.005977,-0.003443,-0.002279,0.112065,-0.838408,-0.195470,-0.496291
48784,NaN,12.609707,2.458780,0.815341,7.179524,0.896509,0.834573,1.559198,-0.530211,-0.646660,-0.713623,0.200928,0.753174,0.126153,0.024114,0.008677,0.999961,0.007796,-0.002651,-0.003233,0.116481,-0.838186,-0.202328,-0.492888
48785,NaN,12.844908,3.384123,1.055752,7.920032,0.340437,0.897750,1.688550,-0.347940,-0.853888,-0.705566,0.211670,0.748779,0.128573,0.033200,0.011063,0.999954,0.008443,-0.001740,-0.004269,0.120757,-0.837171,-0.209278,-0.490678
48786,NaN,14.919094,4.159156,0.480994,8.755283,0.090292,2.971767,1.791868,-0.188568,-1.180105,-0.714355,0.220215,0.742432,0.149428,0.040664,0.005318,0.999942,0.008959,-0.000943,-0.005900,0.125165,-0.835270,-0.218704,-0.488699
48787,NaN,17.819258,3.019426,0.678721,9.504190,2.068878,5.434827,3.006630,0.809316,-1.456974,-0.727539,0.235352,0.727539,0.178432,0.028796,0.006505,0.999852,0.015032,0.004046,-0.007285,0.134647,-0.829686,-0.230632,-0.490204
48788,NaN,20.340455,0.704215,5.308897,12.508167,7.062300,5.551192,4.218261,1.671055,-1.669112,-0.747314,0.256836,0.704102,0.203882,0.004244,0.051496,0.999708,0.021089,0.008354,-0.008345,0.149949,-0.820585,-0.246690,-0.493253
48789,NaN,20.369024,0.624931,11.390351,16.398702,10.491290,3.070476,3.991998,2.039228,-1.558564,-0.764648,0.267578,0.685059,0.204867,0.002409,0.111892,0.999718,0.019958,0.010195,-0.007792,0.164474,-0.810395,-0.260262,-0.498469
48790,NaN,19.443897,0.081974,13.032106,16.277482,11.938291,2.034280,2.559112,3.186637,-1.449123,-0.792969,0.280518,0.649170,0.196473,-0.002240,0.127186,0.999765,0.012795,0.015932,-0.007245,0.175347,-0.798275,-0.269817,-0.509126
48791,NaN,16.314843,-0.210446,6.609489,9.869099,7.882490,2.448507,1.800389,3.288064,-0.903783,-0.812256,0.280518,0.617676,0.164192,-0.003424,0.063374,0.999814,0.009001,0.016439,-0.004519,0.183891,-0.786971,-0.273584,-0.521548
48792,NaN,15.219851,0.517607,-3.072455,2.559552,1.330686,5.451920,-0.533816,3.235726,-0.254016,-0.839600,0.272217,0.598633,0.151681,0.004897,-0.033195,0.999865,-0.002669,0.016178,-0.001270,0.185537,-0.778572,-0.270167,-0.535173
48793,NaN,10.441737,-3.211455,-17.160353,-12.023880,-5.200311,5.747645,-0.720234,4.751160,-0.676375,-0.871582,0.265869,0.556641,0.100193,-0.033082,-0.173899,0.999706,-0.003601,0.023753,-0.003382,0.186421,-0.765357,-0.264797,-0.556200
48794,NaN,9.475755,-2.210344,-20.497979,-14.685664,-8.366764,5.324599,0.055031,2.717861,-0.906263,-0.884033,0.259521,0.546143,0.091859,-0.022467,-0.206247,0.999897,0.000275,0.013589,-0.004531,0.187700,-0.756470,-0.265845,-0.567317
48795,NaN,13.845708,-2.625285,-16.575458,-11.243422,-5.152851,8.086100,2.355359,0.651170,-1.034306,-0.886475,0.265869,0.533447,0.137784,-0.025009,-0.166503,0.999912,0.011776,0.003256,-0.005171,0.193817,-0.750964,-0.274553,-0.568427
48796,NaN,17.197112,-5.400106,-10.207484,-7.603853,1.147204,9.421357,4.429847,0.285279,-1.429466,-0.895508,0.283203,0.516357,0.171443,-0.052946,-0.103500,0.999728,0.022147,0.001426,-0.007147,0.206735,-0.743696,-0.292145,-0.564649
48797,NaN,18.248873,-5.060900,-6.003220,-4.398193,3.488290,9.243645,4.201224,1.074350,-1.859521,-0.906006,0.276611,0.499512,0.181686,-0.051011,-0.062078,0.999722,0.021004,0.005371,-0.009297,0.217994,-0.733465,-0.308629,-0.565027
48798,NaN,17.747063,-5.776786,-7.022437,-6.156232,3.076681,8.902303,-0.027732,2.064013,-2.057082,-0.920410,0.259766,0.478516,0.176127,-0.059594,-0.072038,0.999894,-0.000139,0.010320,-0.010285,0.215254,-0.724414,-0.313798,-0.574823
48799,NaN,13.890462,-4.554195,-7.800200,-6.934651,0.871156,5.209068,-0.637988,2.459498,-2.343294,-0.938965,0.231934,0.445068,0.137384,-0.047410,-0.079549,0.999851,-0.003190,0.012297,-0.011716,0.209378,-0.714377,-0.316594,-0.587874
48800,NaN,14.397637,-0.109294,-2.629867,-0.715094,1.227099,4.753157,-0.526267,3.811830,-2.670989,-0.961670,0.204102,0.411621,0.143408,-0.003085,-0.029029,0.999726,-0.002631,0.019057,-0.013354,0.205635,-0.699302,-0.320496,-0.604957
48801,NaN,14.331689,-3.660746,-5.816516,-6.233496,1.440630,4.734749,-1.584509,5.108016,-2.727729,-0.984375,0.174316,0.363281,0.141253,-0.039022,-0.061488,0.999549,-0.007921,0.025536,-0.013637,0.199246,-0.680944,-0.318712,-0.628521
48802,NaN,13.386667,-3.154134,-3.906330,-5.299725,1.982327,3.314949,-1.909275,5.566689,-2.396076,-1.013184,0.142334,0.314941,0.132323,-0.033527,-0.042447,0.999495,-0.009545,0.027829,-0.011978,0.193999,-0.661195,-0.315150,-0.652584
48803,NaN,10.438203,-5.696310,-3.769772,-7.374865,3.287787,-0.305499,-2.039086,5.073186,-2.197372,-1.027344,0.110352,0.272949,0.102754,-0.058496,-0.039727,0.999566,-0.010194,0.025362,-0.010985,0.187237,-0.643057,-0.309556,-0.674978
48804,NaN,7.719573,-5.988179,-2.431350,-6.664410,3.913159,-3.361208,-1.015076,4.062132,-2.178655,-1.037598,0.093262,0.226562,0.076026,-0.060842,-0.025558,0.999722,-0.005075,0.020309,-0.010892,0.182870,-0.626749,-0.309233,-0.691461
48805,NaN,8.883111,-2.420736,-4.184473,-6.179128,0.243783,-1.811161,-1.007675,3.310892,-2.230034,-1.047607,0.065430,0.199219,0.087845,-0.025406,-0.043178,0.999788,-0.005038,0.016553,-0.011149,0.176238,-0.612913,-0.308420,-0.705801
48806,NaN,8.016296,1.228937,-5.804644,-5.315046,-3.679362,-2.219429,-2.042967,3.965959,-2.113527,-1.055420,0.037842,0.153076,0.079109,0.010845,-0.059738,0.999695,-0.010214,0.019828,-0.010567,0.168596,-0.597274,-0.304086,-0.722753
48807,NaN,7.514782,1.867456,-3.196493,-3.230120,-2.606440,-2.537192,-2.974326,4.301386,-1.635833,-1.061523,0.020752,0.115234,0.074580,0.017569,-0.033840,0.999625,-0.014870,0.021504,-0.008178,0.159460,-0.581795,-0.293370,-0.741634
48808,NaN,7.289604,1.994779,-2.675135,-3.038912,-2.467522,-2.816911,-2.962988,3.032406,-1.278121,-1.067871,0.014404,0.085693,0.072600,0.019073,-0.028141,0.999755,-0.014814,0.015161,-0.006390,0.150526,-0.570896,-0.283599,-0.755639
48809,NaN,7.017431,3.518433,-3.929876,-3.416996,-4.490438,-3.088418,-3.294422,2.817672,-0.973077,-1.063232,-0.002686,0.047607,0.069774,0.034180,-0.040852,0.999753,-0.016471,0.014087,-0.004865,0.140624,-0.561451,-0.270738,-0.769219
48810,NaN,4.820300,4.102850,-3.623180,-2.438660,-5.021397,-5.119488,-3.413822,2.771395,-0.336696,-1.065430,-0.004639,0.022217,0.047757,0.040314,-0.037588,0.999757,-0.017068,0.013856,-0.001683,0.133480,-0.552601,-0.256528,-0.781671
48811,NaN,4.981904,2.947651,-3.388328,-3.112661,-3.946293,-5.371771,-3.229612,2.250716,-0.149520,-1.067627,-0.008789,-0.002930,0.049452,0.028881,-0.034911,0.999806,-0.016147,0.011253,-0.000748,0.126184,-0.545843,-0.241958,-0.792206
48812,NaN,2.527775,-0.609030,-3.094095,-3.733062,-0.902886,-8.554948,-2.982810,2.034475,0.021378,-1.071777,-0.008789,-0.026367,0.024963,-0.006551,-0.031101,0.999837,-0.014913,0.010172,0.000107,0.120585,-0.539602,-0.228749,-0.801226
48813,NaN,2.374970,-1.424498,-4.679599,-5.352872,-0.896554,-9.482178,-2.945197,1.742230,0.137566,-1.065674,-0.004395,-0.043213,0.023352,-0.014918,-0.046784,0.999853,-0.014725,0.008711,0.000688,0.114578,-0.534642,-0.214780,-0.809258
48814,NaN,1.594335,-1.850794,-5.003110,-5.494383,-0.590924,-10.490454,-2.542781,1.340122,0.234647,-1.065918,-0.002197,-0.055908,0.015631,-0.019124,-0.049896,0.999896,-0.012713,0.006700,0.001173,0.110175,-0.530871,-0.203062,-0.815355
48815,NaN,1.190032,-1.940827,-4.001411,-4.539434,0.032018,-10.578283,-2.021847,0.950672,0.290205,-1.063721,-0.002197,-0.068604,0.011739,-0.019795,-0.039871,0.999937,-0.010109,0.004753,0.001451,0.106389,-0.528558,-0.192827,-0.819833
48816,NaN,0.840651,-1.967439,-3.401685,-3.900259,0.371126,-10.706517,-1.569967,0.697584,0.351437,-1.065918,0.000000,-0.068604,0.008323,-0.019926,-0.033890,0.999962,-0.007850,0.003488,0.001757,0.104366,-0.526850,-0.185072,-0.822973
48817,NaN,0.881327,-1.762327,-3.159463,-3.634316,0.337175,-10.549365,-1.073561,0.488109,0.421460,-1.059814,0.008545,-0.074951,0.008774,-0.017774,-0.031521,0.999980,-0.005368,0.002441,0.002107,0.103166,-0.525992,-0.178605,-0.825100
48818,NaN,1.096475,-1.132233,-3.086445,-3.437163,-0.182816,-10.216206,-0.606814,0.362127,0.503023,-1.062256,0.014893,-0.077148,0.010937,-0.011388,-0.030850,0.999991,-0.003034,0.001811,0.002515,0.103985,-0.525253,-0.174578,-0.826329
48819,NaN,0.912502,-0.276291,-2.492502,-2.561438,-0.724050,-10.003342,-0.127706,0.184952,0.573212,-1.060303,0.023682,-0.085693,0.009110,-0.002753,-0.024932,0.999995,-0.000639,0.000925,0.002866,0.105622,-0.525287,-0.171765,-0.826689
48820,NaN,0.863276,-0.493870,-1.241399,-1.575695,-0.035706,-9.597913,0.309842,-0.074361,0.556094,-1.053955,0.025635,-0.081543,0.008651,-0.004895,-0.012418,0.999995,0.001549,-0.000372,0.002780,0.108688,-0.525903,-0.171612,-0.825931
48821,NaN,1.190504,-0.501649,-0.503888,-1.101488,0.258304,-9.010908,0.804103,-0.431781,0.458582,-1.060547,0.027832,-0.075195,0.011927,-0.004969,-0.005033,0.999987,0.004020,-0.002159,0.002293,0.111795,-0.527879,-0.173298,-0.823901
48822,NaN,1.474339,-0.439451,-0.231867,-0.966367,0.304734,-8.632087,1.303765,-0.852456,0.284888,-1.062744,0.036377,-0.064697,0.014759,-0.004359,-0.002284,0.999969,0.006519,-0.004262,0.001424,0.115685,-0.530890,-0.178376,-0.820338
48823,NaN,1.924792,0.118818,-0.416318,-1.076108,-0.278324,-8.182745,1.732536,-1.410722,0.053524,-1.062500,0.031982,-0.052002,0.019276,0.001229,-0.004017,0.999938,0.008663,-0.007053,0.000268,0.118712,-0.535949,-0.185475,-0.815025
48824,NaN,3.114892,0.996996,0.073748,-0.752712,-0.830543,-6.739409,2.021456,-2.007626,-0.205152,-1.064453,0.029785,-0.026611,0.031149,0.009928,0.001151,0.999898,0.010107,-0.010038,-0.001026,0.121437,-0.542684,-0.195422,-0.807811
48825,NaN,4.267665,2.639766,0.307570,-0.233505,-2.107588,-5.254496,2.075317,-2.626600,-0.420506,-1.055664,0.023193,0.007324,0.042684,0.026270,0.003909,0.999858,0.010376,-0.013132,-0.002102,0.122304,-0.551816,-0.205861,-0.798851
48826,NaN,7.193523,3.038437,1.245035,-0.168021,-1.788799,-2.112450,2.025154,-3.147815,-0.526775,-1.059814,0.023193,0.030518,0.071804,0.030059,0.013887,0.999821,0.010125,-0.015738,-0.002634,0.122543,-0.562508,-0.217277,-0.788263
48827,NaN,11.601892,3.891259,4.287345,1.551127,-0.581401,3.046603,1.897021,-3.426653,-0.633919,-1.052979,0.014404,0.070801,0.115379,0.038125,0.045218,0.999803,0.009484,-0.017132,-0.003169,0.121229,-0.574320,-0.227999,-0.776837
48828,NaN,16.183193,5.608624,8.801109,5.099305,0.922782,8.732276,1.515870,-3.275542,-0.711217,-1.050781,0.014404,0.098145,0.160554,0.054831,0.091066,0.999831,0.007579,-0.016377,-0.003556,0.119082,-0.585216,-0.237862,-0.766005
48829,NaN,20.279511,6.379688,13.080121,8.325360,3.247517,13.493084,0.535083,-2.361251,-0.722418,-1.043945,0.003662,0.121582,0.201459,0.062713,0.133354,0.999920,0.002675,-0.011806,-0.003612,0.114685,-0.593279,-0.242829,-0.758881
48830,NaN,22.804305,5.490595,17.889247,11.571856,6.971105,16.411366,-0.745755,-0.836326,-0.686526,-1.045898,-0.004883,0.119629,0.227481,0.054793,0.179640,0.999978,-0.003729,-0.004182,-0.003433,0.108867,-0.596035,-0.242496,-0.757685
48831,NaN,22.801280,4.257111,19.882003,12.709338,8.900560,16.503805,-1.719488,0.748229,-0.704593,-1.047607,-0.017822,0.106934,0.228906,0.043468,0.197594,0.999950,-0.008597,0.003741,-0.003523,0.101504,-0.593444,-0.236983,-0.762470
48832,NaN,18.476114,4.342502,13.357446,8.117022,4.953766,11.358298,-1.032406,1.204576,-0.716388,-1.047363,-0.026367,0.094238,0.185716,0.043446,0.132234,0.999962,-0.005162,0.006023,-0.003582,0.097150,-0.588505,-0.234539,-0.767604
48833,NaN,14.354531,1.818496,6.544727,2.197972,3.369880,5.549742,0.728198,0.468432,-0.485446,-1.043457,-0.019775,0.090088,0.143741,0.017599,0.065176,0.999988,0.003641,0.002342,-0.002427,0.097377,-0.585929,-0.237715,-0.768568
48834,NaN,12.950687,0.051956,4.144176,-0.266432,3.648662,3.283605,1.670655,-0.023437,-0.117306,-1.041260,-0.017822,0.092041,0.129502,0.000097,0.041459,0.999965,0.008353,-0.000117,-0.000587,0.101807,-0.585046,-0.244467,-0.766545
48835,NaN,10.164406,1.407901,5.945715,2.683143,3.062650,1.325957,1.235317,-0.299054,0.305181,-1.037109,-0.015625,0.100586,0.101534,0.013866,0.059695,0.999979,0.006177,-0.001495,0.001526,0.105532,-0.586117,-0.247531,-0.764237
48836,NaN,8.717818,0.407261,6.053077,2.796326,3.815769,-0.303437,0.481183,-0.715697,0.644230,-1.037598,-0.002686,0.108887,0.086947,0.004207,0.060852,0.999986,0.002406,-0.003578,0.003221,0.108534,-0.589388,-0.247842,-0.761194
48837,NaN,6.534686,-0.808746,4.205146,1.405462,3.631673,-3.039670,0.124976,-1.481800,0.987947,-1.037598,0.003662,0.125732,0.065072,-0.007792,0.042529,0.999960,0.000625,-0.007409,0.004940,0.110094,-0.596349,-0.245203,-0.756387
48838,NaN,7.440665,-0.900117,2.545869,-0.128401,2.991251,-2.485467,0.678286,-2.291517,1.259753,-1.033936,0.024902,0.146729,0.074164,-0.008622,0.026280,0.999909,0.003391,-0.011457,0.006299,0.114079,-0.606133,-0.245236,-0.747962
48839,NaN,11.005040,-0.209730,0.549998,-2.124263,1.856440,0.840583,1.159346,-2.256901,1.199628,-1.023193,0.029297,0.169922,0.109989,-0.001474,0.006732,0.999902,0.005797,-0.011284,0.005998,0.118556,-0.615528,-0.246119,-0.739254
48840,NaN,10.766063,-2.180431,-7.118882,-9.324495,-0.437194,-0.636741,1.641927,-1.534210,0.637466,-1.021729,0.050537,0.184570,0.108271,-0.020879,-0.070534,0.999932,0.008209,-0.007671,0.003187,0.124087,-0.620969,-0.251102,-0.732085
48841,NaN,11.763451,-6.746125,-13.341944,-16.841802,0.106223,-0.969317,3.507874,-2.328590,0.539452,-1.017822,0.065430,0.203369,0.119363,-0.064803,-0.133189,0.999775,0.017538,-0.011642,0.002697,0.133282,-0.628122,-0.262545,-0.720256
48842,NaN,16.297615,-8.019355,-12.782032,-17.581245,1.606238,3.662205,5.089035,-1.995872,0.385836,-1.013916,0.080566,0.220215,0.164404,-0.076619,-0.128164,0.999625,0.025442,-0.009978,0.001929,0.148000,-0.632191,-0.280873,-0.706782
48843,NaN,19.238256,-6.728345,-12.076542,-16.559815,0.859807,7.105525,5.159988,-0.265828,-0.445112,-1.009766,0.084717,0.222412,0.192399,-0.064571,-0.122199,0.999664,0.025797,-0.001329,-0.002225,0.161592,-0.628933,-0.299412,-0.699059
48844,NaN,17.092680,-2.605766,-7.261363,-9.903384,-0.047001,6.111934,4.895721,-0.181193,-0.871330,-1.010010,0.089111,0.213867,0.170882,-0.025017,-0.073080,0.999691,0.024476,-0.000906,-0.004356,0.173637,-0.624116,-0.319299,-0.691649
48845,NaN,12.526818,1.816439,0.521254,-0.387429,1.103355,2.801535,3.236359,-1.568177,-0.648210,-0.992920,0.091064,0.239014,0.125278,0.017660,0.006483,0.999833,0.016181,-0.007840,-0.003241,0.178257,-0.626197,-0.332562,-0.682279
48846,NaN,9.717353,9.500108,9.317752,11.757294,1.437579,1.640206,2.455810,-2.698441,-0.303928,-0.995117,0.093262,0.253906,0.096037,0.093690,0.095634,0.999832,0.012278,-0.013491,-0.001520,0.180410,-0.632607,-0.344223,-0.669904
48847,NaN,8.584536,3.814611,6.961616,6.402770,3.862314,-0.824244,2.659882,1.062615,-0.368233,-1.001709,0.101807,0.230713,0.086284,0.037061,0.069656,0.999896,0.013299,0.005313,-0.001841,0.188714,-0.626533,-0.352068,-0.669247
48848,NaN,-1.537644,-6.558615,-11.768736,-12.559029,-4.300512,-12.577718,2.079324,2.495114,-0.239133,-1.001953,0.106201,0.217773,-0.016926,-0.064340,-0.118156,0.999867,0.010396,0.012475,-0.001196,0.198812,-0.615724,-0.357356,-0.673539
48849,NaN,-5.982176,-7.003837,-15.393559,-14.556924,-7.621009,-17.010709,1.632479,-0.304194,0.248053,-1.000000,0.114746,0.230469,-0.059501,-0.068852,-0.154591,0.999965,0.008162,-0.001521,0.001240,0.203446,-0.616153,-0.361171,-0.669717
48850,NaN,-0.995861,-3.666091,-10.491587,-9.599886,-5.501824,-11.250449,1.056245,-2.965125,0.483299,-0.989502,0.118896,0.255859,-0.008312,-0.036127,-0.105239,0.999873,0.005281,-0.014825,0.002416,0.202957,-0.625808,-0.366171,-0.658097
48851,NaN,5.498967,0.715748,-5.893509,-4.115094,-3.695530,-3.906153,1.996212,-2.992480,-0.137417,-0.980957,0.123047,0.285400,0.055868,0.007702,-0.058028,0.999838,0.009981,-0.014962,-0.000687,0.202712,-0.633914,-0.375054,-0.645287
48852,NaN,11.662549,4.054702,-0.398184,1.463992,-0.205577,2.451760,3.920700,-1.703363,-1.126630,-0.978760,0.123047,0.293701,0.116875,0.039944,-0.002200,0.999756,0.019602,-0.008516,-0.005633,0.208278,-0.633175,-0.392890,-0.633520
48853,NaN,13.391734,0.870404,-2.956465,-2.651728,0.443643,3.663380,4.461116,-1.290278,-1.132892,-0.974854,0.131592,0.295898,0.134152,0.008588,-0.028507,0.999714,0.022303,-0.006451,-0.005664,0.215767,-0.630860,-0.410817,-0.621844
48854,NaN,14.879470,1.993788,-6.601755,-3.972119,-2.502038,5.900726,3.426834,-1.303882,-0.737897,-0.970703,0.135986,0.304199,0.149294,0.020504,-0.064697,0.999825,0.017133,-0.006519,-0.003689,0.221583,-0.629599,-0.425115,-0.611377
48855,NaN,13.106106,5.373351,-6.791748,-0.945654,-4.782313,5.120485,2.205545,-0.965741,-0.470965,-0.968750,0.142334,0.310547,0.131512,0.054164,-0.066687,0.999925,0.011027,-0.004829,-0.002355,0.224610,-0.629736,-0.433383,-0.604287
48856,NaN,8.900735,4.056791,-4.745580,-0.217963,-3.448837,0.495301,2.700706,-1.010551,-0.218277,-0.964600,0.150879,0.318848,0.089288,0.041102,-0.046452,0.999895,0.013503,-0.005053,-0.001091,0.230258,-0.629226,-0.443302,-0.595432
48857,NaN,8.611498,2.503870,-4.588912,-1.216852,-2.536192,-0.139536,2.621910,-0.705678,-0.080509,-0.956299,0.157227,0.321045,0.086286,0.025600,-0.045252,0.999908,0.013109,-0.003528,-0.000403,0.236362,-0.628698,-0.451266,-0.587563
48858,NaN,9.288877,2.518572,-4.525515,-1.076037,-2.228755,0.530367,2.277615,-0.877069,0.083497,-0.954346,0.163574,0.325195,0.093075,0.025735,-0.044556,0.999925,0.011388,-0.004385,0.000417,0.241787,-0.628735,-0.458679,-0.579521
48859,NaN,9.834067,2.145071,-3.631041,-0.866613,-1.090262,0.796473,1.299447,-0.469906,0.043826,-0.961182,0.174316,0.329346,0.098421,0.021707,-0.035939,0.999976,0.006497,-0.002350,0.000219,0.244646,-0.629210,-0.462068,-0.575097
48860,NaN,8.317613,1.046593,-2.261932,-0.925622,0.139587,-1.180326,1.380348,-0.533004,0.148316,-0.956787,0.176514,0.331299,0.083228,0.010682,-0.022324,0.999972,0.006902,-0.002665,0.000742,0.248193,-0.629391,-0.466192,-0.570029
48861,NaN,7.961048,1.494640,-3.414522,-0.980722,-1.104700,-1.147349,1.454967,-0.680100,0.268080,-0.946533,0.189453,0.337646,0.079705,0.015300,-0.033764,0.999967,0.007275,-0.003400,0.001340,0.251691,-0.630722,-0.469543,-0.564243
48862,NaN,7.818167,1.192896,-3.802644,-1.314696,-1.305537,-1.235230,1.615120,-0.827728,0.272021,-0.947021,0.199951,0.343750,0.078321,0.012340,-0.037604,0.999958,0.008075,-0.004139,0.001360,0.255614,-0.631649,-0.474246,-0.557469
48863,NaN,8.022408,0.385267,-3.591890,-1.832868,-0.676854,-1.234202,1.691901,-0.933519,0.248380,-0.940674,0.204346,0.347900,0.080385,0.004254,-0.035509,0.999953,0.008459,-0.004668,0.001242,0.259203,-0.633230,-0.478601,-0.550250
48864,NaN,8.354983,-0.049902,-3.991711,-2.312715,-0.687332,-0.872911,1.722691,-0.988442,0.197378,-0.938721,0.212891,0.350098,0.083746,-0.000075,-0.039505,0.999950,0.008613,-0.004942,0.000987,0.262838,-0.634170,-0.483954,-0.542709
48865,NaN,9.458072,0.313017,-4.491886,-2.147060,-0.840459,0.405548,1.677563,-0.962201,0.128714,-0.928223,0.215088,0.362793,0.094793,0.003565,-0.044434,0.999953,0.008388,-0.004811,0.000644,0.265967,-0.635445,-0.488603,-0.535480
48866,NaN,10.433469,1.282418,-4.831247,-1.340585,-1.104779,1.625115,1.585272,-0.863886,0.099947,-0.930664,0.225830,0.364746,0.104535,0.013256,-0.047757,0.999959,0.007926,-0.004319,0.000500,0.269165,-0.635881,-0.493640,-0.528701
48867,NaN,10.367378,1.941810,-4.535220,-0.490423,-1.041795,1.610709,1.533619,-0.724555,0.101511,-0.924561,0.234375,0.366699,0.103827,0.019816,-0.044825,0.999964,0.007668,-0.003623,0.000508,0.272336,-0.636544,-0.497612,-0.522520
48868,NaN,9.978077,2.466070,-4.193636,0.247333,-1.002475,1.240045,1.390809,-0.542720,0.099979,-0.926758,0.238525,0.366699,0.099881,0.025000,-0.041492,0.999972,0.006954,-0.002714,0.000500,0.275680,-0.636313,-0.501634,-0.517175
48869,NaN,9.695364,-0.530943,-3.434561,-2.129560,0.627431,0.244603,1.817739,-0.415392,-0.008998,-0.920654,0.251465,0.366699,0.097025,-0.005003,-0.034191,0.999957,0.009089,-0.002077,-0.000045,0.280232,-0.635397,-0.506232,-0.511341
48870,NaN,8.966203,-1.098182,-1.075615,-1.720058,2.622468,-1.273381,2.206290,-0.378485,0.007546,-0.920898,0.260010,0.368652,0.089683,-0.010860,-0.010707,0.999937,0.011031,-0.001892,0.000038,0.286299,-0.633266,-0.512330,-0.504504
48871,NaN,9.172364,0.331903,-3.822433,-1.285495,-0.167774,0.044922,1.596735,-0.050038,-0.014962,-0.918945,0.262207,0.360107,0.091733,0.003617,-0.038173,0.999968,0.007984,-0.000250,-0.000075,0.291017,-0.631652,-0.515731,-0.500347
48872,NaN,8.333015,1.193381,-5.267931,-0.844218,-2.003473,-0.123162,1.718106,-0.236258,0.055838,-0.915039,0.272949,0.364258,0.083389,0.012408,-0.052476,0.999962,0.008590,-0.001181,0.000279,0.295976,-0.629878,-0.520159,-0.495062
48873,NaN,8.460214,1.963223,-5.301761,-0.015427,-2.180913,0.126137,1.661879,-0.444303,0.145530,-0.913086,0.279297,0.366455,0.084705,0.020132,-0.052664,0.999963,0.008309,-0.002221,0.000728,0.300261,-0.629466,-0.523752,-0.489183
48874,NaN,8.381062,2.621360,-4.728565,0.898010,-1.825392,-0.048809,1.324793,-0.617784,0.252815,-0.915283,0.281494,0.364258,0.083922,0.026631,-0.046851,0.999972,0.006624,-0.003089,0.001264,0.303437,-0.629648,-0.527092,-0.483368
48875,NaN,8.546888,2.481476,-4.274793,0.994879,-1.261884,-0.071143,1.147453,-0.659635,0.256638,-0.907227,0.294189,0.359863,0.085577,0.025168,-0.042322,0.999977,0.005737,-0.003298,0.001283,0.305811,-0.630714,-0.529407,-0.477921
48876,NaN,8.824921,2.129900,-3.066888,1.081292,0.077601,-0.291913,1.421254,-0.720019,0.275902,-0.905273,0.300781,0.368164,0.088329,0.021637,-0.030198,0.999967,0.007106,-0.003600,0.001379,0.309049,-0.630986,-0.532999,-0.471441
48877,NaN,9.054923,1.935264,-1.597212,1.372405,1.593965,-0.655025,1.525228,-0.715847,0.309209,-0.905518,0.313477,0.376709,0.090575,0.019612,-0.015499,0.999963,0.007626,-0.003579,0.001546,0.312574,-0.631643,-0.536099,-0.464676
48878,NaN,9.230372,2.099253,-1.448559,1.639703,1.827082,-0.556485,1.354076,-0.623057,0.319711,-0.899170,0.315674,0.374512,0.092314,0.021236,-0.014055,0.999971,0.006770,-0.003115,0.001599,0.315926,-0.631829,-0.539176,-0.458555
48879,NaN,9.192344,2.459567,-1.643554,2.021707,1.620470,-0.510222,1.289479,-0.588316,0.344129,-0.893311,0.328613,0.376465,0.091928,0.024858,-0.016005,0.999973,0.006447,-0.002942,0.001721,0.319091,-0.632580,-0.541334,-0.452748
48880,NaN,9.311520,2.253055,-1.764771,1.866066,1.670496,-0.398793,1.269742,-0.649790,0.342005,-0.886963,0.330811,0.372314,0.093133,0.022800,-0.017201,0.999973,0.006349,-0.003249,0.001710,0.322126,-0.632950,-0.544132,-0.446688
48881,NaN,9.740350,1.988435,-1.621692,1.721652,2.091485,-0.111201,1.192800,-0.711344,0.309931,-0.889404,0.343506,0.378418,0.097429,0.020130,-0.015751,0.999975,0.005964,-0.003557,0.001550,0.324543,-0.633971,-0.546309,-0.440794
48882,NaN,9.864065,1.325335,-1.614558,1.140791,2.350390,-0.074282,1.192946,-0.733659,0.250413,-0.887451,0.349854,0.382568,0.098682,0.013471,-0.015704,0.999975,0.005965,-0.003668,0.001252,0.326876,-0.634337,-0.549304,-0.434781
48883,NaN,9.623134,1.055068,-1.540728,0.951513,2.434351,-0.364958,1.271933,-0.708815,0.188989,-0.879150,0.354248,0.382568,0.096275,0.010738,-0.014998,0.999973,0.006360,-0.003544,0.000945,0.329252,-0.634838,-0.551948,-0.428867
48884,NaN,9.507871,0.824770,-1.691169,0.746621,2.359937,-0.441852,1.446333,-0.675167,0.123261,-0.879395,0.364990,0.386719,0.095130,0.008427,-0.016530,0.999968,0.007232,-0.003376,0.000616,0.332244,-0.634242,-0.555735,-0.422504
48885,NaN,9.917006,0.717993,-1.733770,0.701337,2.574825,-0.078915,1.602910,-0.632357,0.050792,-0.871094,0.371338,0.380371,0.099222,0.007342,-0.016966,0.999963,0.008014,-0.003162,0.000254,0.335548,-0.633590,-0.559291,-0.416132
48886,NaN,10.252313,0.596731,-1.316872,0.695753,3.177549,0.016792,1.730663,-0.697485,0.025778,-0.871338,0.377686,0.384521,0.102567,0.006092,-0.012759,0.999956,0.008653,-0.003487,0.000129,0.339129,-0.632199,-0.563939,-0.409009
48887,NaN,10.529993,1.017029,-1.087684,1.196787,3.518903,0.151370,1.766034,-0.700731,-0.004696,-0.863037,0.386475,0.382324,0.105337,0.010261,-0.010417,0.999955,0.008830,-0.003504,-0.000023,0.342588,-0.631182,-0.567987,-0.402036
48888,NaN,10.714036,1.787089,-1.109624,1.992887,3.575412,0.309540,1.866512,-0.632305,-0.059607,-0.867432,0.390625,0.386475,0.107180,0.017939,-0.010590,0.999951,0.009332,-0.003161,-0.000298,0.346557,-0.629074,-0.572966,-0.394810
48889,NaN,11.100072,2.508420,-1.289825,2.737291,3.596474,0.710581,1.836429,-0.479590,-0.163591,-0.861328,0.401367,0.377930,0.111051,0.025109,-0.012402,0.999955,0.009182,-0.002398,-0.000818,0.350491,-0.626958,-0.577126,-0.388594
48890,NaN,11.295196,3.113626,-1.380606,3.344742,3.636094,0.900535,1.762642,-0.233050,-0.311195,-0.859619,0.407715,0.373535,0.113016,0.031080,-0.013400,0.999959,0.008813,-0.001165,-0.001556,0.354734,-0.623417,-0.581895,-0.383294
48891,NaN,11.423616,3.027497,-1.287275,3.264211,3.841470,0.953438,1.873481,0.000691,-0.509713,-0.867920,0.403564,0.361084,0.114313,0.030103,-0.012591,0.999953,0.009367,0.000003,-0.002549,0.359444,-0.619212,-0.586239,-0.379080
48892,NaN,12.774219,2.452868,-0.414641,2.709391,5.313297,1.754355,2.051064,0.110952,-0.746789,-0.872314,0.405762,0.358887,0.127830,0.024093,-0.003969,0.999940,0.010255,0.000555,-0.003734,0.364691,-0.613109,-0.592187,-0.374717
48893,NaN,15.541551,1.955142,-0.166772,2.168756,6.817337,4.123186,2.288636,0.333334,-1.024196,-0.876709,0.405762,0.342041,0.155510,0.018775,-0.001709,0.999920,0.011443,0.001667,-0.005121,0.370592,-0.605894,-0.598119,-0.371225
48894,NaN,18.258509,1.064876,-0.285176,1.112068,7.892909,6.650855,2.448266,0.809167,-1.279742,-0.887451,0.407959,0.331543,0.182635,0.009520,-0.003469,0.999896,0.012241,0.004046,-0.006398,0.378024,-0.595985,-0.604963,-0.368673
48895,NaN,18.621953,-1.602826,1.328654,-1.828876,9.262791,6.372235,2.642494,1.289868,-1.580285,-0.893555,0.397217,0.306152,0.186164,-0.017662,0.011860,0.999861,0.013212,0.006449,-0.007901,0.386643,-0.584502,-0.611092,-0.368010
48896,NaN,17.609604,-2.822617,4.701554,-3.529840,11.496640,4.169793,2.751239,1.801122,-1.639324,-0.906494,0.401611,0.276611,0.176265,-0.030299,0.045021,0.999831,0.013755,0.009005,-0.008196,0.397114,-0.570783,-0.617344,-0.367959
48897,NaN,17.228644,-2.822876,8.121356,-4.106946,14.061429,2.682290,2.047688,2.380974,-1.567684,-0.912598,0.388916,0.253418,0.173002,-0.030398,0.078853,0.999846,0.010238,0.011904,-0.007838,0.407106,-0.558331,-0.619662,-0.372223
48898,NaN,15.689439,-3.524291,6.832985,-4.936098,11.791752,2.096489,1.029177,3.012404,-1.278476,-0.929443,0.382568,0.215576,0.157667,-0.036592,0.065773,0.999853,0.005146,0.015061,-0.006392,0.416882,-0.546609,-0.618908,-0.379975
48899,NaN,14.696121,-5.843598,0.439107,-6.685576,4.731499,3.722322,1.979943,3.489826,-1.179102,-0.942383,0.378418,0.175537,0.146653,-0.059324,0.001246,0.999781,0.009899,0.017448,-0.005895,0.430401,-0.533207,-0.617160,-0.386728
48900,NaN,12.036943,-6.298920,-3.000420,-6.616330,-0.027609,2.424972,2.290074,3.506808,-1.229895,-0.952637,0.365723,0.141602,0.119421,-0.063360,-0.032828,0.999762,0.011449,0.017533,-0.006149,0.444856,-0.517599,-0.617159,-0.391548
48901,NaN,10.092185,-6.336144,-8.380022,-5.700594,-6.187074,2.079605,1.649988,2.840898,-0.990875,-0.965576,0.365723,0.116455,0.099400,-0.063154,-0.085741,0.999853,0.008250,0.014204,-0.004954,0.455488,-0.506423,-0.615189,-0.397001
48902,NaN,10.540621,-7.924508,-12.850831,-6.456272,-11.014254,3.454867,1.123162,2.382382,-0.750653,-0.974121,0.361572,0.093262,0.103565,-0.078908,-0.130193,0.999906,0.005616,0.011912,-0.003753,0.464137,-0.496802,-0.613822,-0.401232
48903,NaN,13.226203,-7.969703,-12.088030,-6.695648,-10.056108,5.633713,1.596447,1.974967,-0.765293,-0.973877,0.355225,0.067871,0.130752,-0.079224,-0.122810,0.999912,0.007982,0.009875,-0.003826,0.472233,-0.487846,-0.613079,-0.403901
48904,NaN,14.094823,-6.673464,-8.047362,-6.104925,-6.155360,5.444634,1.936103,1.680694,-1.100802,-0.984375,0.344482,0.044678,0.139894,-0.066716,-0.082298,0.999903,0.009680,0.008403,-0.005504,0.479849,-0.476482,-0.615633,-0.404606
48905,NaN,14.307936,-4.488039,-5.274351,-4.499950,-3.355271,5.058751,2.913719,1.426935,-1.450935,-0.990479,0.331787,0.025879,0.142368,-0.045130,-0.054417,0.999842,0.014568,0.007134,-0.007254,0.487871,-0.463115,-0.620387,-0.403269
48906,NaN,15.625942,-2.337459,-3.048165,-3.076491,-0.832880,5.959267,2.816529,1.694585,-1.608381,-0.992432,0.323242,-0.001465,0.155799,-0.024184,-0.032140,0.999833,0.014082,0.008472,-0.008041,0.496335,-0.447785,-0.625541,-0.402292
48907,NaN,15.293866,0.533166,-5.809243,0.346670,-3.119996,6.251651,0.724569,2.362238,-1.774872,-0.996338,0.308350,-0.031006,0.152279,0.004193,-0.059877,0.999884,0.003623,0.011811,-0.008874,0.501417,-0.436684,-0.624018,-0.410474
48908,NaN,12.018895,-0.875704,-7.415933,-0.239245,-5.962374,3.016180,0.218429,4.021830,-1.454475,-1.004639,0.295654,-0.073242,0.118598,-0.009541,-0.076565,0.999771,0.001092,0.020108,-0.007272,0.511353,-0.423269,-0.617406,-0.422104
48909,NaN,9.617052,-2.590307,-2.165296,-3.013582,-2.122576,-0.310824,0.045909,3.839807,-1.136469,-1.000244,0.285156,-0.106934,0.095582,-0.026442,-0.023498,0.999800,0.000230,0.019198,-0.005682,0.520494,-0.412409,-0.609061,-0.433648
48910,NaN,8.984219,-1.979885,-4.651102,-1.661680,-4.724232,-0.802823,-0.320208,3.498459,-1.043372,-1.002441,0.278809,-0.147217,0.088906,-0.020340,-0.048039,0.999832,-0.001601,0.017491,-0.005217,0.528148,-0.402435,-0.601302,-0.444457
48911,NaN,8.253768,-1.338931,-6.442880,-0.471920,-6.587324,-1.578549,-0.195717,3.363011,-1.036442,-1.002197,0.268066,-0.172363,0.081368,-0.013877,-0.065790,0.999845,-0.000979,0.016814,-0.005182,0.535162,-0.393203,-0.593136,-0.455173
48912,NaN,7.227514,-0.939728,-5.916949,-0.106550,-6.214551,-2.777782,-0.220492,3.239053,-0.982961,-1.002197,0.263916,-0.201904,0.071257,-0.009815,-0.060318,0.999856,-0.001102,0.016194,-0.004915,0.542032,-0.383475,-0.585806,-0.464737
48913,NaN,6.493897,-2.839743,-3.378689,-2.530342,-4.464374,-3.870227,0.446962,2.673501,-1.001943,-1.003906,0.249023,-0.225098,0.064336,-0.028644,-0.034713,0.999896,0.002235,0.013367,-0.005010,0.548048,-0.373882,-0.580734,-0.471809
48914,NaN,8.974193,3.020904,-4.986537,3.165148,-4.813058,-0.793979,-0.565646,2.211006,-1.646354,-0.999512,0.238281,-0.246094,0.089427,0.029329,-0.050939,0.999901,-0.002828,0.011055,-0.008231,0.549485,-0.365424,-0.576354,-0.482025
48915,NaN,6.343195,0.737374,-2.822285,0.665895,-3.292068,-3.692232,-0.519773,2.932756,-1.054414,-0.988770,0.227783,-0.271484,0.063046,0.006966,-0.029168,0.999875,-0.002599,0.014663,-0.005272,0.554107,-0.357431,-0.568266,-0.492223
48916,NaN,6.634748,1.459586,-2.365792,1.177439,-2.887070,-3.330169,-0.406219,2.350023,-0.778990,-0.988770,0.225586,-0.299072,0.066119,0.014289,-0.024465,0.999921,-0.002031,0.011750,-0.003895,0.558110,-0.350556,-0.562096,-0.499672
48917,NaN,7.184005,1.041297,-2.814295,0.821246,-3.672034,-2.996994,-0.375247,2.095518,-0.704471,-0.982178,0.219238,-0.313721,0.071576,0.010107,-0.028913,0.999937,-0.001876,0.010477,-0.003522,0.561292,-0.345035,-0.555946,-0.506781
48918,NaN,6.580124,1.047520,-3.015301,0.956694,-3.896757,-3.698355,-0.612524,2.140244,-0.522608,-0.975830,0.215088,-0.334961,0.065500,0.010210,-0.030887,0.999935,-0.003063,0.010701,-0.002613,0.564838,-0.339880,-0.549246,-0.513584
48919,NaN,6.496009,1.635472,-2.017991,1.255723,-2.924191,-3.582437,-0.694109,1.699610,-0.379426,-0.971680,0.219482,-0.349854,0.064816,0.016160,-0.020787,0.999956,-0.003470,0.008498,-0.001897,0.567097,-0.337023,-0.542789,-0.519803
48920,NaN,5.924679,0.618936,-1.743100,0.285070,-2.875390,-4.319660,-0.839212,1.458900,-0.255165,-0.971680,0.215088,-0.358154,0.059125,0.006039,-0.017888,0.999964,-0.004196,0.007294,-0.001276,0.568973,-0.334931,-0.536876,-0.525219
48921,NaN,5.061855,0.126699,-1.376672,-0.171569,-2.511017,-5.208501,-1.071005,1.363844,-0.119216,-0.967529,0.219482,-0.364502,0.050524,0.001162,-0.014118,0.999962,-0.005355,0.006819,-0.000596,0.570298,-0.334616,-0.529919,-0.531016
48922,NaN,4.223742,-0.111759,-1.764418,-0.201574,-2.774687,-6.175955,-1.176634,1.271386,-0.054384,-0.965820,0.225830,-0.383545,0.042124,-0.001234,-0.017905,0.999962,-0.005883,0.006357,-0.000272,0.571547,-0.334463,-0.523236,-0.536370
48923,NaN,3.652103,-0.724950,-1.925673,-0.692585,-2.938336,-6.904430,-1.011163,1.161141,-0.005297,-0.955078,0.225830,-0.390137,0.036408,-0.007348,-0.019431,0.999970,-0.005056,0.005806,-0.000026,0.572670,-0.334734,-0.516792,-0.541229
48924,NaN,3.540110,-0.774797,-1.572418,-0.812681,-2.611552,-6.962348,-0.708845,0.951755,0.048701,-0.951172,0.230225,-0.396484,0.035328,-0.007795,-0.015865,0.999982,-0.003544,0.004759,0.000244,0.574079,-0.334332,-0.512053,-0.544478
48925,NaN,3.879057,-0.523223,-1.108357,-0.710140,-2.247247,-6.496845,-0.452030,0.770893,0.149181,-0.951172,0.234619,-0.402832,0.038751,-0.005229,-0.011221,0.999990,-0.002260,0.003854,0.000746,0.575524,-0.334402,-0.507981,-0.546720
48926,NaN,4.077172,-0.148417,-0.822436,-0.421575,-1.990577,-6.182042,-0.256286,0.605651,0.230509,-0.947021,0.234619,-0.415527,0.040748,-0.001448,-0.008346,0.999994,-0.001281,0.003028,0.001153,0.577276,-0.334091,-0.505145,-0.547690
48927,NaN,4.052861,0.119233,-0.753079,-0.160387,-1.886701,-6.149133,-0.053485,0.396162,0.284486,-0.944824,0.234619,-0.409180,0.040512,0.001248,-0.007611,0.999997,-0.000267,0.001981,0.001422,0.578807,-0.334352,-0.503029,-0.547862
48928,NaN,4.171513,0.660894,-0.668306,0.349078,-1.754056,-5.928572,0.107712,0.149398,0.294905,-0.949463,0.240967,-0.411377,0.041700,0.006674,-0.006711,0.999998,0.000539,0.000747,0.001475,0.580185,-0.334396,-0.502394,-0.546960
48929,NaN,4.249921,1.145323,-0.294519,0.742331,-1.336087,-5.674555,0.268400,-0.168713,0.225769,-0.947266,0.245361,-0.405029,0.042489,0.011505,-0.002894,0.999998,0.001342,-0.000844,0.001129,0.580687,-0.335098,-0.502917,-0.545514
48930,NaN,4.716095,1.695933,0.316949,1.099371,-0.781110,-4.975397,0.363294,-0.474266,0.109175,-0.951416,0.240967,-0.406982,0.047144,0.016979,0.003312,0.999995,0.001816,-0.002371,0.000546,0.580413,-0.335634,-0.505096,-0.543460
48931,NaN,5.698077,2.536501,1.818446,1.476049,0.534573,-3.508407,0.380707,-0.726453,-0.056245,-0.953369,0.238770,-0.394287,0.056921,0.025314,0.018440,0.999992,0.001904,-0.003632,-0.000281,0.578937,-0.336790,-0.508031,-0.541581
48932,NaN,6.730456,3.170192,3.210301,1.641478,1.731558,-2.069189,0.425114,-1.012165,-0.233290,-0.959961,0.240967,-0.390137,0.067178,0.031555,0.032510,0.999984,0.002126,-0.005061,-0.001166,0.576455,-0.337727,-0.512493,-0.539436
48933,NaN,7.763268,3.625411,4.375092,1.652913,2.726412,-0.735999,0.631075,-1.270255,-0.403464,-0.965820,0.230225,-0.375244,0.077425,0.035958,0.044357,0.999973,0.003155,-0.006351,-0.002017,0.573039,-0.338712,-0.518232,-0.536969
48934,NaN,8.946069,3.557215,5.819712,1.025101,3.884655,0.694986,0.694302,-1.226943,-0.535875,-0.969971,0.223633,-0.370850,0.089195,0.035129,0.058867,0.999972,0.003471,-0.006135,-0.002679,0.569595,-0.338644,-0.524501,-0.534585
48935,NaN,9.770476,3.930507,6.740582,0.960387,4.735743,1.719640,0.652331,-1.000883,-0.638900,-0.971680,0.210938,-0.362305,0.097490,0.038772,0.068021,0.999977,0.003262,-0.005004,-0.003194,0.566213,-0.338209,-0.529854,-0.533172
48936,NaN,10.368004,3.927907,7.425064,0.595256,5.324531,2.408156,0.455844,-0.664605,-0.669155,-0.975586,0.204346,-0.355957,0.103563,0.038763,0.074684,0.999986,0.002279,-0.003323,-0.003346,0.563445,-0.336939,-0.534072,-0.532700
48937,NaN,10.531650,4.090411,7.362216,0.647940,5.306231,2.567640,0.303261,-0.367136,-0.661449,-0.973389,0.200195,-0.349609,0.105315,0.040444,0.073877,0.999992,0.001516,-0.001836,-0.003307,0.561031,-0.335753,-0.536673,-0.533381
48938,NaN,11.164824,3.749789,7.549194,0.098279,5.271965,3.144968,0.101718,-0.025310,-0.561987,-0.977539,0.197998,-0.360107,0.111743,0.037146,0.075525,0.999996,0.000509,-0.000127,-0.002810,0.559646,-0.334052,-0.537954,-0.534612
48939,NaN,11.566123,3.535495,8.003227,-0.316946,5.536470,3.587811,-0.099321,0.193221,-0.392971,-0.977295,0.189453,-0.360107,0.115808,0.035167,0.079903,0.999997,-0.000497,0.000966,-0.001965,0.558729,-0.333247,-0.537408,-0.536620
48940,NaN,12.128178,3.251377,8.078619,-0.697871,5.370316,4.101356,-0.521925,0.274640,-0.205650,-0.979492,0.191650,-0.364258,0.121426,0.032599,0.080535,0.999995,-0.002610,0.001373,-0.001028,0.558057,-0.333440,-0.535578,-0.539024
48941,NaN,12.777707,3.031670,7.524876,-0.816332,4.588541,4.587409,-0.963549,0.272391,-0.107358,-0.977539,0.195801,-0.364258,0.127896,0.030610,0.074928,0.999987,-0.004818,0.001362,-0.000537,0.556617,-0.335629,-0.531943,-0.542740
48942,NaN,14.013238,3.026945,7.167968,-0.856030,3.885535,5.714126,-1.295400,0.230446,-0.156742,-0.973389,0.200195,-0.362305,0.140239,0.030622,0.071321,0.999978,-0.006477,0.001152,-0.000784,0.554632,-0.338212,-0.528035,-0.546969
48943,NaN,15.470736,2.367151,6.981627,-1.586617,3.168996,6.954229,-1.486212,0.223949,-0.240729,-0.971436,0.206543,-0.364502,0.154814,0.024002,0.069465,0.999971,-0.007431,0.001120,-0.001204,0.551729,-0.341627,-0.523245,-0.552360
48944,NaN,15.955407,2.359334,6.842329,-1.558053,2.833674,7.406492,-1.753177,0.406488,-0.254415,-0.975586,0.200195,-0.368652,0.159723,0.023987,0.067890,0.999959,-0.008766,0.002032,-0.001272,0.549086,-0.344688,-0.517692,-0.558292
48945,NaN,14.128285,2.413840,7.081117,-1.125973,3.408877,5.765667,-2.216471,0.786539,-0.218567,-0.965332,0.213135,-0.373047,0.141586,0.024762,0.069983,0.999930,-0.011082,0.003933,-0.001093,0.546308,-0.348559,-0.509148,-0.566412
48946,NaN,10.145247,1.361854,6.769008,-1.316995,3.894483,1.749969,-2.405900,1.017515,-0.204717,-0.969727,0.215088,-0.381348,0.101809,0.014323,0.067003,0.999914,-0.012029,0.005087,-0.001024,0.544094,-0.351725,-0.499865,-0.574793
48947,NaN,7.087821,-0.762545,5.198775,-2.551820,2.946094,-1.897284,-2.057783,0.841471,-0.144217,-0.963623,0.225830,-0.383545,0.071091,-0.007143,0.051764,0.999938,-0.010289,0.004207,-0.000721,0.541739,-0.355106,-0.491302,-0.582273
48948,NaN,5.287108,-2.827604,3.308544,-3.995492,1.485053,-4.453041,-1.351953,0.431187,-0.064657,-0.963867,0.232422,-0.390137,0.052933,-0.028069,0.033162,0.999975,-0.006760,0.002156,-0.000323,0.540212,-0.357372,-0.486297,-0.586491
48949,NaN,4.637148,-3.834601,1.915900,-4.702964,0.310598,-5.609885,-0.783164,0.065106,0.029690,-0.959717,0.232422,-0.387939,0.046383,-0.038264,0.019294,0.999992,-0.003916,0.000326,0.000148,0.538629,-0.359981,-0.483141,-0.588954
48950,NaN,5.694116,-3.076992,0.275058,-3.960536,-1.502214,-4.911265,-0.338715,-0.250240,0.139760,-0.961914,0.240967,-0.379639,0.056959,-0.030725,0.002874,0.999998,-0.001694,-0.001251,0.000699,0.537842,-0.361994,-0.482561,-0.588915
48951,NaN,6.700716,-3.968502,-1.600531,-4.817827,-3.589617,-4.605641,0.248683,-0.653228,0.249830,-0.959717,0.240967,-0.371094,0.067109,-0.039581,-0.015835,0.999993,0.001243,-0.003266,0.001249,0.537018,-0.364498,-0.483947,-0.586983
48952,NaN,9.175845,-5.682971,-3.429270,-6.687066,-6.069990,-2.979746,1.336215,-1.591056,0.392165,-0.968018,0.234375,-0.364746,0.092140,-0.056422,-0.033939,0.999944,0.006681,-0.007955,0.001961,0.536741,-0.366535,-0.491395,-0.579735
48953,NaN,15.147693,-8.469953,-5.047299,-10.079626,-9.246993,2.000557,2.261313,-2.394483,0.732485,-0.974609,0.240723,-0.343506,0.152382,-0.083578,-0.049601,0.999858,0.011306,-0.011972,0.003662,0.536660,-0.369842,-0.502327,-0.568226
48954,NaN,19.407825,-8.574611,-5.825282,-10.510418,-10.858536,6.178813,2.836998,-2.379412,0.849169,-0.982910,0.236572,-0.330811,0.195122,-0.084103,-0.057136,0.999820,0.014184,-0.011896,0.004246,0.538261,-0.371084,-0.515107,-0.554290
48955,NaN,19.193496,-6.823635,-5.856836,-8.503291,-10.430879,6.561983,3.699612,-2.413891,0.610481,-0.978516,0.236328,-0.311768,0.192838,-0.066578,-0.057486,0.999751,0.018497,-0.012068,0.003052,0.540141,-0.370049,-0.529985,-0.538913
48956,NaN,21.485590,-3.841395,-0.217081,-6.748450,-4.739611,10.396815,4.274598,-1.769822,0.366260,-0.988770,0.221436,-0.311523,0.214939,-0.037989,-0.001084,0.999731,0.021371,-0.008848,0.001831,0.544215,-0.364174,-0.545458,-0.523147
48957,NaN,17.958534,-4.082084,6.447005,-7.945631,2.257111,7.864967,3.681267,0.453128,0.006335,-0.982178,0.215088,-0.328613,0.179731,-0.041987,0.063297,0.999828,0.018405,0.002266,0.000032,0.551802,-0.353723,-0.553173,-0.514193
48958,NaN,12.232083,-5.889214,4.926454,-8.624050,1.047838,1.723665,3.089873,1.834897,-0.240257,-0.975586,0.202393,-0.358154,0.122689,-0.059779,0.047221,0.999838,0.015449,0.009174,-0.001201,0.561646,-0.339790,-0.556387,-0.509441
48959,NaN,5.569943,-5.902252,-5.600026,-4.700165,-7.966952,-6.400074,3.199420,2.046881,-0.181169,-0.975342,0.187256,-0.383301,0.055063,-0.058161,-0.057501,0.999819,0.015996,0.010234,-0.000906,0.571908,-0.325921,-0.558368,-0.504897
48960,NaN,0.549537,-4.848996,-13.236159,-0.310389,-13.861288,-12.412852,3.168908,0.984682,0.035900,-0.970703,0.180908,-0.387451,0.004850,-0.046384,-0.133133,0.999862,0.015844,0.004923,0.000179,0.579844,-0.314460,-0.563417,-0.497451
48961,NaN,-0.306995,-0.954915,-13.911933,4.024253,-13.071980,-12.544933,2.576260,-0.700603,0.294505,-0.970703,0.176514,-0.378906,-0.002570,-0.007760,-0.139237,0.999910,0.012881,-0.003503,0.001472,0.582375,-0.310386,-0.570811,-0.488543
48962,NaN,-0.160053,4.051962,-14.896130,9.281972,-12.249189,-11.267555,2.577426,-2.610976,0.483195,-0.980957,0.167969,-0.349365,0.000239,0.042434,-0.148428,0.999829,0.012886,-0.013054,0.002416,0.580013,-0.310616,-0.583863,-0.475612
48963,NaN,3.758963,8.792954,-9.793191,11.299770,-6.320973,-5.378487,3.556402,-5.050872,0.149730,-0.999268,0.152832,-0.306885,0.039953,0.089670,-0.095358,0.999523,0.017779,-0.025250,0.000749,0.570772,-0.313298,-0.606088,-0.456860
48964,NaN,16.185256,20.231609,4.027284,13.602941,9.793967,10.344657,5.848499,-2.286958,-1.252521,-1.000732,0.131348,-0.302490,0.162590,0.199971,0.048001,0.999487,0.029238,-0.011433,-0.006262,0.569857,-0.297910,-0.627623,-0.438865
48965,NaN,13.771295,10.700334,2.081168,5.799841,4.983266,5.997879,4.520173,-0.589869,-1.008657,-1.004639,0.114258,-0.302246,0.138182,0.105794,0.023619,0.999728,0.022599,-0.002949,-0.005043,0.572323,-0.283640,-0.640288,-0.426645
48966,NaN,10.854832,9.079590,-4.991750,8.136828,-1.222457,2.736028,3.633732,-0.140327,-0.696805,-1.003906,0.088623,-0.306396,0.108900,0.091303,-0.048185,0.999829,0.018168,-0.000702,-0.003484,0.575448,-0.271295,-0.649322,-0.416701
48967,NaN,12.423919,6.879965,-2.961528,4.850904,-0.516580,3.849470,3.512102,-0.104715,-0.532428,-1.003662,0.079834,-0.304199,0.124438,0.068974,-0.028340,0.999842,0.017560,-0.000524,-0.002662,0.578645,-0.260121,-0.657345,-0.406700
48968,NaN,11.982399,2.587625,0.461235,-0.511190,0.220598,2.441955,2.601997,0.398406,-0.265428,-1.005371,0.069336,-0.308350,0.119867,0.025656,0.004708,0.999913,0.013010,0.001992,-0.001327,0.582751,-0.250922,-0.661775,-0.399366
48969,NaN,9.591249,0.725375,2.240031,-2.576320,0.953444,-0.326415,2.108220,0.238988,0.123411,-1.003174,0.069336,-0.308350,0.095935,0.007077,0.022361,0.999944,0.010541,0.001195,0.000617,0.586384,-0.245148,-0.664904,-0.392376
48970,NaN,9.831183,1.061424,2.629545,-2.611241,1.427361,-0.023038,1.892821,-0.131066,0.417904,-0.999023,0.069336,-0.314697,0.098272,0.010570,0.026460,0.999953,0.009464,-0.000655,0.002089,0.589063,-0.241267,-0.668463,-0.384646
48971,NaN,9.853459,0.536336,2.978672,-3.250245,1.427591,-0.135470,1.714633,-0.307677,0.503793,-1.005371,0.067139,-0.310303,0.098475,0.005355,0.029984,0.999959,0.008573,-0.001538,0.002519,0.591028,-0.238970,-0.671818,-0.377147
48972,NaN,10.224757,0.938147,2.307769,-2.618164,1.131829,0.317247,1.635980,-0.271729,0.497366,-1.003174,0.067139,-0.306152,0.102193,0.009446,0.023294,0.999963,0.008180,-0.001359,0.002487,0.592987,-0.236344,-0.675092,-0.369810
48973,NaN,8.113542,1.763017,-0.859344,0.377847,-0.528913,-1.490817,1.712709,-0.090912,0.241572,-1.000977,0.067139,-0.310303,0.081118,0.017801,-0.008405,0.999963,0.008563,-0.000455,0.001208,0.595106,-0.232769,-0.677981,-0.363332
48974,NaN,7.369124,-0.001644,-1.391866,-0.444609,-1.932234,-2.580126,1.509321,0.327580,0.143001,-1.005127,0.062744,-0.316650,0.073668,0.000142,-0.014039,0.999970,0.007547,0.001638,0.000715,0.598215,-0.228194,-0.679567,-0.358127
48975,NaN,6.760635,-0.414845,-1.112149,-0.786225,-1.905279,-3.265409,1.729085,0.102533,0.088635,-0.998779,0.062744,-0.314697,0.067602,-0.004022,-0.011191,0.999962,0.008645,0.000513,0.000443,0.600658,-0.223646,-0.682006,-0.352221
48976,NaN,6.698262,-0.139984,-1.859386,-0.056706,-2.262992,-3.238557,1.931726,-0.112034,-0.066017,-1.000488,0.047852,-0.312500,0.066993,-0.001243,-0.018569,0.999953,0.009658,-0.000560,-0.000330,0.602291,-0.217840,-0.685793,-0.345656
48977,NaN,6.633898,0.286257,-0.920526,-0.372382,-1.244486,-3.236190,2.496899,-0.554478,-0.108093,-1.006592,0.041504,-0.310303,0.066366,0.002940,-0.008985,0.999918,0.012484,-0.002772,-0.000540,0.602873,-0.211394,-0.691632,-0.336900
48978,NaN,8.719954,1.779539,-1.292031,0.498720,-0.650239,-0.857206,2.861960,-0.918738,-0.061805,-1.006348,0.034912,-0.295410,0.087262,0.017947,-0.012263,0.999887,0.014309,-0.004594,-0.000309,0.602547,-0.204111,-0.699217,-0.326146
48979,NaN,9.757839,2.194595,-1.429109,0.619267,-0.458342,0.261010,2.819387,-0.473761,-0.089634,-1.001953,0.026367,-0.295410,0.097621,0.022099,-0.013749,0.999898,0.014096,-0.002369,-0.000448,0.603572,-0.196549,-0.705068,-0.316146
48980,NaN,8.941398,2.028720,-1.632934,0.765444,-0.545203,-0.547323,2.592565,-0.340591,-0.158882,-1.006104,0.024170,-0.295166,0.089458,0.020424,-0.015913,0.999914,0.012962,-0.001703,-0.000794,0.604613,-0.188720,-0.710298,-0.307090
48981,NaN,8.253515,2.358076,-1.946105,1.303582,-0.356106,-1.115480,2.633974,-0.333833,-0.168652,-1.007812,0.013428,-0.284668,0.082587,0.023763,-0.019011,0.999912,0.013169,-0.001669,-0.000843,0.605623,-0.181132,-0.715268,-0.297999
48982,NaN,7.789736,2.554212,-1.224806,0.917162,0.388067,-1.583987,2.715620,-0.359724,-0.140437,-1.009521,0.002686,-0.280273,0.077937,0.025649,-0.011760,0.999906,0.013578,-0.001799,-0.000702,0.606524,-0.172960,-0.720473,-0.288325
48983,NaN,7.447907,2.465582,0.031189,-0.102070,1.204766,-2.060987,2.360777,-0.397764,-0.095433,-1.007324,-0.005859,-0.280273,0.074490,0.024613,0.000751,0.999928,0.011804,-0.001989,-0.000477,0.606982,-0.166476,-0.724948,-0.279837
48984,NaN,7.775271,3.101647,0.824623,-0.503554,2.202609,-1.710266,1.821869,-0.491220,-0.024046,-1.011230,-0.010254,-0.271729,0.077735,0.030929,0.008719,0.999955,0.009109,-0.002456,-0.000120,0.606651,-0.161574,-0.728986,-0.272852
48985,NaN,8.824347,3.681455,0.970896,-0.589988,2.707754,-0.610300,1.376686,-0.602172,0.127669,-1.011475,-0.005859,-0.267578,0.088190,0.036802,0.010228,0.999972,0.006883,-0.003011,0.000638,0.605756,-0.159148,-0.732398,-0.267066
48986,NaN,8.810766,3.792583,-0.782172,0.814870,1.841743,-0.401609,1.010254,-0.517371,0.226803,-1.013428,-0.012451,-0.261230,0.088084,0.038064,-0.007402,0.999983,0.005051,-0.002587,0.001134,0.604950,-0.157641,-0.735133,-0.262230
48987,NaN,8.728800,3.948758,-1.886303,1.772796,1.405196,-0.314002,0.711752,-0.368814,0.175579,-1.007080,-0.010254,-0.256836,0.087288,0.039631,-0.018561,0.999992,0.003559,-0.001844,0.000878,0.604410,-0.157090,-0.736864,-0.258927
48988,NaN,9.823617,4.449961,-0.904392,0.972394,2.343464,0.708042,0.513630,-0.443382,0.154444,-1.009033,-0.010254,-0.254883,0.098221,0.044598,-0.008712,0.999994,0.002568,-0.002217,0.000772,0.603367,-0.156714,-0.738755,-0.256184
48989,NaN,11.454581,4.963736,1.324875,-0.945697,3.952155,2.065333,0.289375,-0.234422,0.159114,-1.009033,-0.010254,-0.254883,0.114491,0.049709,0.013455,0.999998,0.001447,-0.001172,0.000796,0.602956,-0.157190,-0.739538,-0.254596
48990,NaN,11.884925,4.490468,2.392371,-2.172523,4.162448,2.232783,0.261778,0.062183,0.173439,-1.009277,-0.008057,-0.254883,0.118818,0.044976,0.023946,0.999999,0.001309,0.000311,0.000867,0.603603,-0.156997,-0.739558,-0.253120
48991,NaN,12.428415,4.098755,3.695385,-3.530913,4.547983,2.506790,0.086123,0.306860,0.206063,-1.011475,-0.003662,-0.263428,0.124298,0.041100,0.036781,0.999998,0.000431,0.001534,0.001030,0.605085,-0.157605,-0.738388,-0.252618
48992,NaN,13.786174,3.583995,5.535721,-5.529585,5.045642,3.510664,-0.186373,0.778153,0.198442,-1.007324,-0.001465,-0.271729,0.138040,0.036028,0.054787,0.999992,-0.000932,0.003891,0.000992,0.608047,-0.157952,-0.735648,-0.253283
48993,NaN,14.479744,2.864284,6.511929,-6.709809,4.906899,4.013710,-0.253693,1.297906,0.216076,-1.005371,0.000488,-0.284424,0.145185,0.028881,0.064141,0.999978,-0.001268,0.006489,0.001080,0.612892,-0.158434,-0.730964,-0.254859
48994,NaN,14.909783,2.149132,3.819779,-4.817338,2.674541,4.718224,0.131267,1.400706,0.233858,-1.001221,0.002686,-0.297119,0.149335,0.021641,0.037167,0.999975,0.000656,0.007003,0.001169,0.618389,-0.157132,-0.726648,-0.254732
48995,NaN,17.693277,2.040608,5.596088,-6.574124,3.209592,7.362763,-0.213558,2.303019,0.222467,-0.990723,0.004883,-0.322754,0.177538,0.020662,0.053897,0.999933,-0.001068,0.011515,0.001112,0.626834,-0.156290,-0.718760,-0.256977
48996,NaN,18.479932,0.698575,5.692070,-7.025191,1.811524,8.123562,-1.584994,3.971392,0.128565,-0.974121,0.009521,-0.367188,0.185875,0.007536,0.053178,0.999771,-0.007924,0.019855,0.000643,0.639880,-0.156615,-0.704026,-0.265280
48997,NaN,18.497976,1.063585,6.477053,-6.764837,2.162817,8.483407,-2.232308,4.550594,-0.216924,-0.957520,0.013916,-0.413818,0.186399,0.011125,0.060417,0.999678,-0.011160,0.022751,-0.001085,0.653632,-0.157601,-0.686131,-0.277763
48998,NaN,18.594961,1.314133,10.073019,-8.726093,3.971666,9.079993,-2.635685,5.264257,-0.295936,-0.943115,0.020508,-0.464600,0.188532,0.014146,0.095608,0.999566,-0.013177,0.026317,-0.001479,0.668911,-0.157853,-0.665219,-0.291761
48999,NaN,14.423741,0.661598,3.404075,-2.834750,-0.259172,4.744963,-1.558841,4.695698,-0.332445,-0.917725,0.020508,-0.494385,0.144994,0.006623,0.030591,0.999693,-0.007793,0.023476,-0.001662,0.682544,-0.155815,-0.646923,-0.302235
49000,NaN,12.962831,0.319253,-5.789971,4.641732,-6.184963,2.096726,-1.246329,3.752514,-0.962668,-0.900879,0.018555,-0.530273,0.128524,0.002201,-0.060334,0.999793,-0.006231,0.018761,-0.004813,0.692109,-0.151284,-0.632867,-0.312374
49001,NaN,8.640954,-0.210795,-9.029260,6.987471,-7.872470,-3.073807,-1.618978,3.803504,-1.464190,-0.877441,0.014404,-0.557861,0.084650,-0.003472,-0.091889,0.999760,-0.008094,0.019016,-0.007320,0.700381,-0.146978,-0.617785,-0.325892
49002,NaN,8.629783,5.278403,-7.574442,9.448636,-3.270680,-2.085479,-1.948215,3.307355,-2.057602,-0.864502,0.005859,-0.589600,0.085556,0.051151,-0.077667,0.999763,-0.009740,0.016535,-0.010287,0.705644,-0.142053,-0.604412,-0.341429
49003,NaN,4.296476,6.078078,-14.979462,15.393354,-6.349288,-8.245592,-3.037158,4.563932,-2.209506,-0.824707,0.014404,-0.632080,0.040170,0.058033,-0.151628,0.999563,-0.015184,0.022816,-0.011046,0.713101,-0.138811,-0.584164,-0.361898
49004,NaN,-1.772296,1.630458,-12.248233,9.784384,-5.850077,-14.892185,-3.802182,5.870785,-0.458105,-0.797607,0.029541,-0.668213,-0.021279,0.014026,-0.122174,0.999386,-0.019007,0.029348,-0.002290,0.726340,-0.140353,-0.556336,-0.378447
49005,NaN,-6.108838,-0.538195,-3.577374,1.435268,-0.123291,-16.764199,-2.466756,3.603277,-0.169561,-0.774902,0.049072,-0.697998,-0.061724,-0.005761,-0.034596,0.999761,-0.012333,0.018015,-0.000848,0.734058,-0.142391,-0.538395,-0.388605
49006,NaN,-6.063847,-0.373986,-1.560877,-0.018548,1.371786,-15.933137,-1.935510,3.503385,0.158513,-0.754150,0.059814,-0.723633,-0.060896,-0.003932,-0.014506,0.999799,-0.009677,0.017516,0.000793,0.742273,-0.143117,-0.521575,-0.395610
49007,NaN,-5.865254,-1.373085,-3.879895,0.609013,-0.678950,-16.919250,-1.416157,3.140317,0.318843,-0.733643,0.076904,-0.742920,-0.059229,-0.014095,-0.037773,0.999850,-0.007080,0.015701,0.001594,0.749881,-0.143350,-0.506643,-0.400553
49008,NaN,-4.631477,-3.097992,-4.666448,-0.156929,-2.717448,-16.551478,-1.064731,2.638241,0.626412,-0.716797,0.085693,-0.755615,-0.046826,-0.031372,-0.045883,0.999894,-0.005323,0.013191,0.003132,0.756979,-0.143659,-0.494136,-0.402709
49009,NaN,-0.858010,-1.495959,-4.736320,1.671041,-3.447956,-13.087608,-0.793377,2.145050,0.736542,-0.696045,0.098389,-0.768555,-0.009031,-0.015180,-0.047208,0.999928,-0.003967,0.010725,0.003683,0.763050,-0.144512,-0.483693,-0.403623
49010,NaN,1.252624,-3.261057,-3.250276,-0.185736,-4.641241,-10.904552,-0.232660,1.485429,0.607295,-0.689697,0.100586,-0.779053,0.012384,-0.032611,-0.032557,0.999967,-0.001163,0.007427,0.003036,0.767679,-0.143895,-0.477122,-0.402887
49011,NaN,1.507935,-4.026505,-3.510350,-0.536949,-5.402233,-10.968804,0.375984,0.897931,0.439634,-0.677002,0.098633,-0.781250,0.015010,-0.040166,-0.035247,0.999986,0.001880,0.004490,0.002198,0.770891,-0.142032,-0.473971,-0.401130
49012,NaN,1.322374,-3.487825,-3.386804,-0.210735,-4.893375,-10.993491,0.904005,0.361827,0.322518,-0.681152,0.092041,-0.781250,0.013218,-0.034703,-0.034049,0.999987,0.004520,0.001809,0.001613,0.773031,-0.138613,-0.474175,-0.397955
49013,NaN,1.299254,-2.361764,-3.115455,0.502941,-3.992576,-10.694853,1.224924,-0.109789,0.339386,-0.680908,0.083496,-0.779053,0.013050,-0.023404,-0.031291,0.999980,0.006125,-0.000549,0.001697,0.774218,-0.135239,-0.476675,-0.393799
49014,NaN,1.995732,-1.859583,-4.071975,1.709340,-4.542779,-10.492822,1.798510,-0.586889,0.502389,-0.682373,0.068604,-0.776855,0.020123,-0.018179,-0.040826,0.999952,0.008992,-0.002934,0.002512,0.774990,-0.130651,-0.482147,-0.387111
49015,NaN,4.399529,-1.298908,-5.471643,3.687375,-6.059401,-8.996487,2.598583,-1.081150,0.513262,-0.688232,0.053467,-0.763916,0.044323,-0.012165,-0.054639,0.999898,0.012992,-0.005406,0.002566,0.774954,-0.124226,-0.490890,-0.378208
49016,NaN,5.684317,-1.359365,-5.186540,3.879972,-6.430904,-7.657526,3.433556,-1.581479,0.379382,-0.702393,0.025635,-0.755127,0.057277,-0.012597,-0.051636,0.999820,0.017167,-0.007907,0.001897,0.773783,-0.114850,-0.503208,-0.367219
49017,NaN,6.835804,-1.191795,-2.920091,2.754814,-5.470941,-5.436331,3.841764,-2.281975,0.261899,-0.714355,-0.000244,-0.738037,0.068702,-0.011274,-0.028639,0.999750,0.019207,-0.011409,0.001309,0.770524,-0.105097,-0.518768,-0.355144
49018,NaN,7.998058,-1.551486,-1.009720,1.348542,-5.104967,-3.526724,3.806465,-2.930112,0.304265,-0.741211,-0.017334,-0.714600,0.080143,-0.015212,-0.009215,0.999710,0.019030,-0.014649,0.001521,0.765240,-0.096423,-0.536527,-0.342416
49019,NaN,9.253276,-0.996299,1.053638,0.231699,-4.010811,-1.352234,3.405087,-3.325261,0.486057,-0.757324,-0.038818,-0.682617,0.092367,-0.009933,0.011904,0.999714,0.017024,-0.016625,0.002430,0.758580,-0.090638,-0.554671,-0.329669
49020,NaN,9.968649,1.113870,3.103115,-0.247883,-1.452929,0.582436,2.417835,-3.506615,0.709148,-0.780518,-0.047607,-0.661377,0.099081,0.011100,0.032906,0.999767,0.012088,-0.017532,0.003545,0.750939,-0.089223,-0.571528,-0.318568
49021,NaN,10.236354,4.225997,5.120042,-0.379035,2.169623,2.186582,1.639042,-3.932709,0.948239,-0.801514,-0.049805,-0.623291,0.101125,0.042309,0.053544,0.999762,0.008195,-0.019662,0.004741,0.741774,-0.092293,-0.588330,-0.308418
49022,NaN,14.111557,8.085417,5.980057,1.102206,4.701792,6.827922,1.062389,-3.784084,0.844191,-0.822510,-0.049805,-0.602051,0.139603,0.081117,0.062882,0.999798,0.005312,-0.018919,0.004221,0.732278,-0.096683,-0.603517,-0.300314
49023,NaN,17.915077,11.065190,10.074244,-0.753107,8.396516,11.953577,0.955104,-2.626003,0.992077,-0.833252,-0.045654,-0.587158,0.177253,0.111044,0.103608,0.999890,0.004775,-0.013130,0.004960,0.726229,-0.100383,-0.613995,-0.292446
49024,NaN,21.175112,13.061544,14.735536,-3.732344,11.869221,16.288571,0.898901,-1.934835,1.214472,-0.848145,-0.039307,-0.563965,0.209513,0.131222,0.149978,0.999925,0.004494,-0.009674,0.006072,0.722454,-0.103700,-0.621701,-0.284244
49025,NaN,22.187803,15.742984,12.859206,-0.918766,13.364032,17.132134,-0.327301,-1.890049,1.186672,-0.852783,-0.028564,-0.549072,0.219711,0.158950,0.130416,0.999936,-0.001636,-0.009450,0.005933,0.718042,-0.111550,-0.627343,-0.280022
49026,NaN,18.803854,11.650977,5.861508,2.349206,7.864834,11.548118,-0.871293,-2.768145,1.230667,-0.870117,-0.013672,-0.528076,0.186485,0.117922,0.060692,0.999876,-0.004356,-0.013840,0.006153,0.710498,-0.122432,-0.635318,-0.276719
49027,NaN,13.950049,7.153341,4.965330,0.197782,5.392913,5.720362,-0.133612,-3.496017,1.603789,-0.885254,0.001221,-0.488037,0.138025,0.072678,0.052026,0.999815,-0.000668,-0.017479,0.008018,0.701388,-0.133109,-0.646360,-0.269360
49028,NaN,10.772366,0.959131,-1.988978,2.270721,-2.318194,0.693142,0.755683,-3.786362,1.473248,-0.906494,0.005371,-0.464600,0.107999,0.010456,-0.017808,0.999787,0.003778,-0.018930,0.007366,0.691479,-0.140323,-0.659557,-0.259135
49029,NaN,11.829103,-4.206537,0.272819,-2.623544,-5.234743,1.295992,1.629601,-2.745347,1.643659,-0.910889,0.011719,-0.441406,0.118582,-0.041121,0.004017,0.999839,0.008148,-0.013726,0.008218,0.685583,-0.143925,-0.669808,-0.246209
49030,NaN,10.396273,-5.611241,6.528736,-8.759229,-2.659284,0.106600,1.509201,-2.761396,1.977263,-0.919678,0.028809,-0.411865,0.103603,-0.055585,0.066299,0.999827,0.007546,-0.013806,0.009886,0.679725,-0.148780,-0.679612,-0.232307
49031,NaN,10.323594,-5.859004,5.450811,-8.055871,-3.157283,-0.027900,-0.666648,-1.752172,1.835884,-0.924561,0.048096,-0.405762,0.103283,-0.057458,0.055606,0.999914,-0.003333,-0.008761,0.009179,0.675351,-0.159643,-0.683252,-0.227114
49032,NaN,5.005304,-1.239553,1.838230,-2.374699,-0.491855,-4.904846,-0.938509,0.314967,1.326855,-0.918457,0.056641,-0.416260,0.050162,-0.011977,0.018360,0.999966,-0.004692,0.001575,0.006634,0.677149,-0.167014,-0.680059,-0.226043
49033,NaN,4.223052,-1.151767,-11.462260,9.029504,-7.356398,-5.953681,1.525831,0.735354,0.304562,-0.920410,0.054443,-0.412109,0.041825,-0.010578,-0.114860,0.999963,0.007629,0.003677,0.001523,0.681248,-0.162430,-0.678875,-0.220558
49034,NaN,8.964184,-5.861257,-10.430247,5.727468,-11.047911,-1.528019,1.758685,-1.145130,0.249189,-0.922363,0.045898,-0.401367,0.090311,-0.057583,-0.104296,0.999944,0.008793,-0.005726,0.001246,0.679013,-0.158571,-0.684493,-0.212757
49035,NaN,10.669677,-7.103508,-2.777191,-1.577919,-8.212074,0.290910,-0.137033,-1.821352,0.299127,-0.924561,0.054443,-0.386719,0.107050,-0.070894,-0.026749,0.999957,-0.000685,-0.009107,0.001496,0.672962,-0.162290,-0.690190,-0.210764
49036,NaN,14.288859,-1.240428,-1.003643,-0.471193,-2.362937,4.361458,-1.928235,-1.637191,0.128856,-0.930908,0.058838,-0.369873,0.142972,-0.012401,-0.008747,0.999920,-0.009641,-0.008186,0.000644,0.665815,-0.170967,-0.693525,-0.215599
49037,NaN,52.374206,-0.474339,12.358951,-13.869453,3.359258,42.075163,0.519998,-0.534113,-0.900119,-0.924316,0.041748,-0.399414,0.523380,-0.007423,0.124971,0.999983,0.002600,-0.002671,-0.004501,0.663425,-0.166996,-0.696555,-0.216310
49038,NaN,57.707670,6.874935,67.939333,-56.288775,37.244439,48.791949,-1.876881,6.663722,-1.331368,-0.907471,0.043945,-0.426758,0.599731,0.071056,0.659000,0.999379,-0.009382,0.033312,-0.006655,0.683196,-0.161309,-0.673124,-0.232649
49039,NaN,7.785521,-0.407791,-7.889915,6.414761,-5.286083,-2.468592,3.236053,0.905272,-0.936359,-0.897949,0.011719,-0.439453,0.077481,-0.003160,-0.079307,0.999848,0.016179,0.004526,-0.004682,0.687679,-0.146681,-0.674164,-0.226021
49040,NaN,1.428088,-4.269203,-26.693643,21.374353,-16.587482,-10.493731,6.716435,3.295712,-1.417103,-0.892578,-0.028809,-0.460205,0.009605,-0.033774,-0.268355,0.999275,0.033574,0.016475,-0.007084,0.701598,-0.115020,-0.670994,-0.210470
49041,NaN,-5.038336,-1.127487,-11.277313,9.635731,-5.003785,-15.805358,5.125274,1.346300,-1.257029,-0.883545,-0.052490,-0.459961,-0.051199,-0.008066,-0.112664,0.999629,0.025623,0.006731,-0.006284,0.707506,-0.091868,-0.671977,-0.198600
49042,NaN,-5.219845,1.932760,-3.193510,3.615054,1.341384,-14.942241,1.456419,-0.164054,-0.648227,-0.885254,-0.061035,-0.451416,-0.052109,0.019729,-0.031835,0.999968,0.007282,-0.000820,-0.003241,0.706942,-0.084730,-0.674304,-0.195878
49043,NaN,2.174186,3.151733,-8.553266,9.118500,-0.797500,-7.804140,-0.209911,-1.425779,-0.318571,-0.891602,-0.063232,-0.440918,0.022401,0.031392,-0.085408,0.999973,-0.001050,-0.007129,-0.001593,0.701737,-0.086224,-0.679133,-0.197254
49044,NaN,6.281189,4.933050,-9.203784,10.377139,-0.100144,-3.425029,0.151944,-0.747729,-0.137694,-0.891602,-0.061035,-0.432373,0.063189,0.049357,-0.091765,0.999992,0.000760,-0.003739,-0.000688,0.699106,-0.085992,-0.681985,-0.196858
49045,NaN,8.612743,3.608893,-4.456524,5.402687,0.220881,-0.990860,0.729120,-1.122969,0.106035,-0.893555,-0.063232,-0.424072,0.086356,0.036296,-0.043949,0.999977,0.003646,-0.005615,0.000530,0.695692,-0.085243,-0.686492,-0.193587
49046,NaN,10.038531,2.799727,0.271739,0.588752,1.159633,0.530965,0.226870,-1.433132,0.128086,-0.904297,-0.059082,-0.415527,0.100344,0.028058,0.003468,0.999973,0.001134,-0.007166,0.000640,0.690958,-0.086310,-0.691648,-0.191707
49047,NaN,11.365649,4.741544,1.239624,0.304147,3.156022,2.151571,-0.141257,-0.684449,-0.115018,-0.899658,-0.069824,-0.404785,0.113641,0.047359,0.012752,0.999994,-0.000706,-0.003422,-0.000575,0.688424,-0.087359,-0.693861,-0.192348
49048,NaN,13.791654,1.302246,5.326520,-4.938964,1.230740,4.128928,0.943331,-0.015745,-0.268253,-0.899658,-0.069824,-0.402832,0.137929,0.012586,0.053336,0.999988,0.004717,-0.000079,-0.001341,0.688498,-0.083228,-0.694955,-0.189951
49049,NaN,11.737228,-3.020548,3.832589,-5.134479,-3.053185,1.407369,1.360102,-0.158292,-0.169025,-0.899414,-0.082520,-0.402588,0.117316,-0.030565,0.038212,0.999976,0.006800,-0.000791,-0.000845,0.688351,-0.078428,-0.696774,-0.185818
49050,NaN,10.874521,-1.466392,-0.877715,-0.181783,-3.260789,0.699680,1.390598,-0.666838,-0.264152,-0.907715,-0.084717,-0.392090,0.108754,-0.014748,-0.008517,0.999969,0.006953,-0.003334,-0.001321,0.686289,-0.073371,-0.700467,-0.181576
49051,NaN,12.559406,2.624447,-1.507308,1.673348,0.071706,2.997127,1.238151,-0.900403,-0.201265,-0.905273,-0.093506,-0.381348,0.125686,0.026208,-0.014345,0.999970,0.006191,-0.004502,-0.001006,0.683406,-0.069578,-0.704661,-0.177675
49052,NaN,12.912696,2.604848,0.130705,-0.016824,0.605419,3.346800,1.582209,-0.575148,-0.065619,-0.906982,-0.102051,-0.372803,0.129131,0.025993,0.001884,0.999965,0.007911,-0.002876,-0.000328,0.681828,-0.064482,-0.708055,-0.172079
49053,NaN,12.798071,2.543210,0.484726,-0.447278,0.714193,3.217393,1.768154,-0.170911,0.106223,-0.902832,-0.102051,-0.375000,0.127963,0.025455,0.005182,0.999960,0.008841,-0.000855,0.000531,0.681879,-0.059308,-0.710030,-0.165472
49054,NaN,11.684237,2.075694,1.125171,-1.186563,0.648142,2.030778,2.341552,0.007552,0.053388,-0.906982,-0.106445,-0.362305,0.116837,0.020655,0.011490,0.999931,0.011707,0.000038,0.000267,0.682578,-0.051536,-0.711902,-0.156930
49055,NaN,12.189509,3.488748,-0.085059,0.319813,1.544424,2.768058,1.353799,0.409800,-0.241947,-0.902588,-0.112793,-0.366455,0.121935,0.034746,-0.000865,0.999974,0.006769,0.002049,-0.001210,0.684204,-0.046067,-0.711544,-0.153125
49056,NaN,13.020868,6.419791,3.093407,-1.917488,5.025595,4.021684,0.470384,1.371315,-0.444117,-0.895996,-0.119141,-0.381348,0.130559,0.063837,0.030190,0.999971,0.002352,0.006857,-0.002221,0.688811,-0.041858,-0.707321,-0.153245
49057,NaN,17.761041,10.785727,8.078988,-5.418948,9.647865,9.541263,-1.101029,2.591710,-0.705016,-0.881348,-0.121094,-0.417236,0.179012,0.107662,0.077883,0.999895,-0.005505,0.012958,-0.003525,0.697157,-0.041499,-0.697555,-0.160207
49058,NaN,17.745305,11.276713,8.389089,-4.958885,9.914167,9.922930,-1.416119,3.369182,-0.995112,-0.870361,-0.129639,-0.440430,0.179384,0.112454,0.080083,0.999821,-0.007080,0.016845,-0.004975,0.707672,-0.040290,-0.684787,-0.169247
