// Start Time: Unknown
// Update Rate: 100.0Hz
// Filter Profile: human (46.1)
// Firmware Version: 4.4.0
PacketCounter,SampleTimeFine,Acc_X,Acc_Y,Acc_Z,FreeAcc_X,FreeAcc_Y,FreeAcc_Z,Gyr_X,Gyr_Y,Gyr_Z,Mag_X,Mag_Y,Mag_Z,VelInc_X,VelInc_Y,VelInc_Z,OriInc_q0,OriInc_q1,OriInc_q2,OriInc_q3,Quat_q0,Quat_q1,Quat_q2,Quat_q3
41904,NaN,9.930260,-0.965604,-1.169566,-0.258410,-0.073804,0.229117,0.311046,-0.335397,0.437818,-0.910156,0.074707,0.396484,0.099343,-0.009421,-0.011544,0.999995,0.001555,-0.001677,0.002189,0.001217,-0.735071,0.079408,-0.673323
41905,NaN,9.955786,-0.950631,-1.225187,-0.287088,-0.134626,0.258145,0.312471,-0.346547,0.396900,-0.912109,0.074707,0.400879,0.099597,-0.009290,-0.012094,0.999995,0.001562,-0.001733,0.001984,0.003839,-0.736075,0.079813,-0.672167
41906,NaN,9.841356,-0.910525,-1.444201,-0.496851,-0.174895,0.161750,0.268413,-0.343817,0.351580,-0.908203,0.085205,0.402832,0.098454,-0.008913,-0.014285,0.999996,0.001342,-0.001719,0.001758,0.005822,-0.736873,0.080021,-0.671253
41907,NaN,9.807703,-0.895261,-1.692135,-0.720147,-0.201531,0.152072,0.273550,-0.325213,0.309696,-0.908447,0.087402,0.400635,0.098118,-0.008778,-0.016774,0.999997,0.001368,-0.001626,0.001548,0.007999,-0.737830,0.080235,-0.670153
41908,NaN,9.686655,-0.824421,-1.906671,-0.918667,-0.279993,0.047528,0.323917,-0.303306,0.267704,-0.904053,0.089600,0.409180,0.096906,-0.008084,-0.018933,0.999997,0.001620,-0.001517,0.001339,0.010650,-0.738988,0.080165,-0.668847
41909,NaN,9.716588,-0.618550,-2.004801,-1.011517,-0.513066,0.062907,0.391421,-0.282972,0.246313,-0.902100,0.089600,0.415527,0.097202,-0.006027,-0.019922,0.999996,0.001957,-0.001415,0.001232,0.013033,-0.739812,0.079750,-0.667943
41910,NaN,9.723611,-0.542898,-2.175115,-1.149607,-0.597042,0.081567,0.484705,-0.257608,0.233587,-0.902344,0.100342,0.411133,0.097270,-0.005263,-0.021639,0.999996,0.002424,-0.001288,0.001168,0.015476,-0.741133,0.078200,-0.666609
41911,NaN,9.823108,-0.129172,-2.030494,-1.016532,-1.067245,0.110042,0.576518,-0.232725,0.238683,-0.904541,0.100342,0.411133,0.098256,-0.001116,-0.020194,0.999994,0.002883,-0.001164,0.001193,0.018499,-0.741766,0.077145,-0.665950
41912,NaN,9.473894,0.480121,-1.928735,-0.956129,-1.648521,-0.321994,0.563406,-0.232168,0.238948,-0.900391,0.104492,0.408936,0.094755,0.004969,-0.019164,0.999995,0.002817,-0.001161,0.001195,0.021879,-0.743355,0.074082,-0.664422
41913,NaN,9.590482,0.427187,-2.084606,-1.072315,-1.636651,-0.185808,0.481686,-0.224278,0.229627,-0.898438,0.113037,0.413086,0.095923,0.004432,-0.020728,0.999996,0.002408,-0.001121,0.001148,0.024516,-0.743959,0.073310,-0.663739
41914,NaN,9.751080,0.105139,-1.847727,-0.733428,-1.347031,-0.006761,0.367946,-0.201491,0.249732,-0.892334,0.119629,0.419434,0.097528,0.001207,-0.018377,0.999997,0.001840,-0.001007,0.001249,0.028049,-0.745887,0.067745,-0.662025
41915,NaN,9.647946,-0.173143,-1.929292,-0.790784,-1.085296,-0.064267,0.254603,-0.194774,0.260272,-0.896729,0.121582,0.423828,0.096500,-0.001581,-0.019201,0.999998,0.001273,-0.000974,0.001301,0.029926,-0.746406,0.067846,-0.661347
41916,NaN,9.728156,-0.410650,-1.803784,-0.583055,-0.849129,0.036079,0.228425,-0.177044,0.278761,-0.892578,0.125977,0.415039,0.097303,-0.003950,-0.017956,0.999998,0.001142,-0.000885,0.001394,0.034257,-0.748463,0.060717,-0.659502
41917,NaN,9.679524,-0.428012,-1.717814,-0.488438,-0.860674,-0.022498,0.234613,-0.165461,0.300240,-0.892578,0.125977,0.423584,0.096816,-0.004115,-0.017103,0.999998,0.001173,-0.000827,0.001501,0.036176,-0.748875,0.061038,-0.658902
41918,NaN,9.678805,-0.137510,-1.470077,-0.191945,-1.126925,-0.088883,0.248038,-0.172561,0.340024,-0.886230,0.130127,0.421631,0.096803,-0.001192,-0.014619,0.999997,0.001240,-0.000863,0.001700,0.041120,-0.750918,0.052985,-0.656980
41919,NaN,9.686954,0.151572,-1.421738,-0.133603,-1.453047,-0.130124,0.215723,-0.189990,0.376247,-0.890625,0.134521,0.425781,0.096880,0.001713,-0.014124,0.999997,0.001079,-0.000950,0.001881,0.043216,-0.751396,0.053650,-0.656245
41920,NaN,9.737514,0.145767,-1.593564,-0.222675,-1.418713,-0.049627,0.151278,-0.196514,0.423119,-0.895264,0.140869,0.425537,0.097387,0.001676,-0.015839,0.999997,0.000756,-0.000983,0.002116,0.048740,-0.753477,0.044314,-0.654166
41921,NaN,9.803545,0.212364,-1.695817,-0.295275,-1.541602,0.014134,0.076214,-0.200495,0.502046,-0.886719,0.145264,0.425537,0.098047,0.002376,-0.016859,0.999996,0.000381,-0.001002,0.002510,0.050713,-0.754000,0.045907,-0.653303
41922,NaN,9.737147,0.368069,-2.180247,-0.699679,-1.671012,0.006623,0.015413,-0.196379,0.576572,-0.882568,0.149414,0.431885,0.097382,0.003963,-0.021707,0.999995,0.000077,-0.000982,0.002883,0.056942,-0.756070,0.035705,-0.651030
41923,NaN,9.799579,0.345481,-2.230493,-0.720643,-1.717616,0.069433,-0.036074,-0.183579,0.656807,-0.887207,0.157959,0.431885,0.098004,0.003773,-0.022216,0.999994,-0.000180,-0.000918,0.003284,0.058976,-0.756557,0.038252,-0.650139
41924,NaN,9.784739,0.200857,-2.269870,-0.673580,-1.559553,0.089201,-0.055506,-0.182803,0.745045,-0.881104,0.164551,0.429688,0.097860,0.002367,-0.022610,0.999993,-0.000278,-0.000914,0.003725,0.066428,-0.758702,0.027321,-0.647466
41925,NaN,9.782618,0.273010,-2.266254,-0.645819,-1.705597,0.065740,-0.057488,-0.183616,0.851468,-0.876709,0.166504,0.436035,0.097834,0.003140,-0.022574,0.999990,-0.000287,-0.000918,0.004257,0.068990,-0.759192,0.030676,-0.646472
41926,NaN,9.794387,0.534805,-2.071967,-0.330140,-1.936797,0.018292,-0.052398,-0.200175,0.961612,-0.877197,0.179443,0.431641,0.097937,0.005814,-0.020623,0.999988,-0.000262,-0.001001,0.004808,0.077519,-0.761438,0.018967,-0.643306
41927,NaN,9.943802,0.410916,-2.132362,-0.345601,-1.934912,0.173841,-0.039161,-0.218445,1.058781,-0.871094,0.190186,0.439941,0.099438,0.004631,-0.021216,0.999985,-0.000196,-0.001092,0.005294,0.080795,-0.762044,0.023039,-0.642051
41928,NaN,9.873220,0.069228,-1.972828,-0.131502,-1.567490,0.132254,-0.014534,-0.260973,1.152079,-0.862793,0.196533,0.439941,0.098752,0.001260,-0.019600,0.999983,-0.000073,-0.001305,0.005760,0.090053,-0.763912,0.011652,-0.638899
41929,NaN,9.774258,-0.380808,-1.910986,-0.093718,-1.216380,0.078894,0.020710,-0.292256,1.219281,-0.865234,0.207275,0.437500,0.097791,-0.003210,-0.018967,0.999980,0.000104,-0.001461,0.006096,0.094042,-0.764751,0.016112,-0.637223
41930,NaN,9.377502,-1.042549,-1.986858,-0.221134,-0.532878,-0.187831,0.035774,-0.316464,1.284201,-0.859619,0.226562,0.443848,0.093871,-0.009819,-0.019722,0.999978,0.000179,-0.001582,0.006421,0.104531,-0.767140,0.004340,-0.632891
41931,NaN,9.327341,-1.881516,-1.880764,-0.184763,0.191519,-0.117101,0.058198,-0.317731,1.332116,-0.851318,0.239502,0.447998,0.093426,-0.018188,-0.018665,0.999977,0.000291,-0.001589,0.006661,0.108974,-0.768068,0.009099,-0.630962
41932,NaN,8.773008,-2.794383,-1.540767,-0.097468,1.149024,-0.548941,0.050034,-0.312109,1.380132,-0.849365,0.245850,0.447754,0.087944,-0.027334,-0.015277,0.999975,0.000250,-0.001561,0.006901,0.118946,-0.768038,0.002742,-0.629256
41933,NaN,9.075557,-3.820691,-1.157106,0.240006,2.042765,-0.113714,0.079905,-0.291853,1.421829,-0.836914,0.256592,0.447754,0.091041,-0.037556,-0.011453,0.999974,0.000400,-0.001459,0.007109,0.123727,-0.768869,0.007777,-0.627274
41934,NaN,9.438698,-3.142391,-1.117404,0.493891,1.255457,0.106497,0.143791,-0.270573,1.485366,-0.833252,0.273682,0.447510,0.094632,-0.030714,-0.011068,0.999971,0.000719,-0.001353,0.007427,0.132795,-0.770327,0.004148,-0.623655
41935,NaN,9.025787,-0.249544,-1.022529,1.008211,-1.581741,-0.921539,0.080882,-0.349816,1.562647,-0.827148,0.284424,0.451660,0.090291,-0.001786,-0.010068,0.999968,0.000404,-0.001749,0.007813,0.137982,-0.771307,0.009682,-0.621251
41936,NaN,10.602817,0.346145,-2.610033,0.026399,-2.860897,0.730743,-0.034557,-0.429952,1.573096,-0.816895,0.299316,0.459961,0.106052,0.004291,-0.025873,0.999967,-0.000173,-0.002150,0.007865,0.145795,-0.772514,0.008068,-0.617981
41937,NaN,10.478205,-0.338820,-3.205886,-0.611752,-2.462760,0.852359,-0.016000,-0.466251,1.630551,-0.817627,0.316406,0.468262,0.104879,-0.002536,-0.031814,0.999964,-0.000080,-0.002331,0.008153,0.150785,-0.773873,0.014075,-0.614968
41938,NaN,9.450563,-1.004932,-3.896410,-1.486720,-1.919877,0.167610,0.122070,-0.477323,1.654219,-0.809326,0.329346,0.461914,0.094677,-0.009243,-0.038744,0.999963,0.000610,-0.002387,0.008271,0.165251,-0.775657,0.004317,-0.609122
41939,NaN,8.683336,-1.842784,-4.297694,-2.146713,-1.216289,-0.264059,0.261282,-0.496140,1.635245,-0.794922,0.344238,0.463867,0.087086,-0.017661,-0.042785,0.999963,0.001306,-0.002481,0.008176,0.171250,-0.776888,0.009454,-0.605830
41940,NaN,8.727728,-2.708613,-4.522072,-2.445937,-0.590573,0.067853,0.379532,-0.523552,1.586042,-0.788818,0.354980,0.465820,0.087606,-0.026307,-0.045042,0.999963,0.001898,-0.002618,0.007930,0.180691,-0.778075,0.003496,-0.601613
41941,NaN,9.837854,-3.649112,-3.925698,-1.692268,0.041308,1.261681,0.692816,-0.575183,1.575942,-0.780518,0.367920,0.467773,0.098774,-0.035578,-0.039098,0.999959,0.003464,-0.002876,0.007880,0.188130,-0.779120,0.007023,-0.597938
41942,NaN,11.293835,-2.950835,-2.661989,0.182521,-0.700178,2.137905,1.026292,-0.627840,1.604208,-0.766357,0.393555,0.471680,0.113253,-0.028465,-0.026413,0.999950,0.005131,-0.003139,0.008021,0.198192,-0.781217,0.002934,-0.591955
41943,NaN,12.697828,-1.509123,-1.751950,1.892714,-2.285951,2.747908,1.217443,-0.667089,1.686742,-0.758545,0.412842,0.467285,0.127157,-0.013914,-0.017183,0.999940,0.006087,-0.003335,0.008434,0.207938,-0.781914,0.005258,-0.587661
41944,NaN,11.814977,0.805436,-1.316301,2.798741,-4.073801,1.028951,1.187781,-0.701644,1.818130,-0.737549,0.425537,0.469238,0.118115,0.009205,-0.012696,0.999935,0.005939,-0.003508,0.009090,0.224592,-0.782487,-0.006367,-0.580717
41945,NaN,12.602283,-0.579465,-2.338616,1.905896,-3.583977,2.358540,0.874297,-0.743858,1.898292,-0.731689,0.447021,0.473389,0.126155,-0.004497,-0.022939,0.999938,0.004371,-0.003719,0.009491,0.233488,-0.783677,-0.002313,-0.575611
41946,NaN,13.489218,-3.015161,-2.794903,1.386890,-1.870026,4.095337,0.932398,-0.749342,1.968911,-0.710938,0.468262,0.475342,0.135283,-0.028692,-0.027579,0.999934,0.004662,-0.003747,0.009844,0.252290,-0.785607,-0.018249,-0.564658
41947,NaN,15.910306,-2.060314,-1.865736,3.571921,-3.200448,5.609734,1.115169,-0.671223,2.077637,-0.703125,0.489746,0.470703,0.159367,-0.018846,-0.018231,0.999925,0.005576,-0.003356,0.010388,0.262457,-0.786226,-0.014081,-0.559256
41948,NaN,18.615996,0.796757,-0.285406,7.370316,-5.433655,6.417183,1.030326,-0.594314,2.301224,-0.680176,0.511230,0.470459,0.186059,0.010121,-0.002253,0.999916,0.005151,-0.002971,0.011506,0.285216,-0.786497,-0.035024,-0.546669
41949,NaN,19.678911,2.076152,-0.986024,7.941155,-7.437221,6.744638,0.856568,-0.586730,2.525978,-0.668213,0.539062,0.474365,0.196533,0.023285,-0.009187,0.999907,0.004283,-0.002934,0.012629,0.295361,-0.787249,-0.028264,-0.540558
41950,NaN,20.861014,1.745661,-2.720503,7.754697,-7.856428,8.180144,0.753644,-0.571903,2.684830,-0.643066,0.553955,0.465820,0.208426,0.020356,-0.026536,0.999899,0.003768,-0.002859,0.013424,0.321877,-0.787220,-0.057596,-0.522840
41951,NaN,23.042595,1.966563,-3.282038,8.737696,-9.295670,9.752688,0.882951,-0.486570,2.808356,-0.626465,0.571045,0.471924,0.230197,0.023042,-0.032163,0.999889,0.004415,-0.002433,0.014041,0.332520,-0.787793,-0.049626,-0.516091
41952,NaN,24.352201,4.754684,-2.823413,11.889601,-10.991337,9.197548,1.056049,-0.352667,2.872493,-0.597168,0.601074,0.460938,0.242853,0.051185,-0.027542,0.999881,0.005280,-0.001763,0.014362,0.353356,-0.787843,-0.069891,-0.499558
41953,NaN,23.461798,6.793369,-2.450375,13.023492,-12.458805,6.852596,1.047653,-0.249816,2.879190,-0.578613,0.624512,0.458496,0.233637,0.071428,-0.023843,0.999882,0.005238,-0.001249,0.014395,0.364547,-0.787530,-0.061598,-0.493060
41954,NaN,18.731101,6.763777,-2.095109,11.724828,-10.418537,2.635088,1.134854,-0.117583,2.742849,-0.557861,0.648193,0.445557,0.186371,0.070315,-0.020447,0.999890,0.005674,-0.000588,0.013714,0.383481,-0.786214,-0.082171,-0.477554
41955,NaN,11.236100,6.079056,-1.641798,7.899216,-8.041813,-3.581807,1.093320,-0.095239,2.247911,-0.536865,0.663086,0.441162,0.111675,0.062137,-0.016027,0.999922,0.005466,-0.000476,0.011239,0.393079,-0.785207,-0.076120,-0.472381
41956,NaN,1.569167,5.301405,-0.242618,3.470934,-4.031134,-11.338478,0.282694,0.114671,1.476131,-0.531006,0.676025,0.447266,0.015298,0.053131,-0.002360,0.999972,0.001413,0.000573,0.007381,0.401679,-0.784654,-0.093403,-0.462869
41957,NaN,-7.053179,-2.958909,4.319837,-2.647486,6.652870,-14.901215,0.789015,0.071550,0.537807,-0.522705,0.686768,0.427979,-0.070436,-0.029949,0.043106,0.999989,0.003945,0.000358,0.002689,0.406050,-0.783146,-0.092973,-0.461694
41958,NaN,-11.353940,1.658910,3.835329,-3.059669,4.062479,-20.790310,1.563248,-0.156976,-0.123213,-0.518311,0.682373,0.421631,-0.113559,0.016359,0.038393,0.999969,0.007816,-0.000785,-0.000616,0.414484,-0.779647,-0.115144,-0.455077
41959,NaN,-13.357062,3.618983,3.739694,-3.126707,3.189334,-23.434171,2.235253,-0.083975,-0.738689,-0.531250,0.688965,0.402100,-0.133453,0.036262,0.037746,0.999931,0.011176,-0.000420,-0.003693,0.421440,-0.774728,-0.123275,-0.454960
41960,NaN,-12.514211,3.631605,2.864046,-3.068070,2.160131,-22.615646,2.092994,0.053260,-1.371175,-0.535645,0.688965,0.389160,-0.124883,0.036870,0.029058,0.999922,0.010465,0.000266,-0.006856,0.428228,-0.768404,-0.146359,-0.452500
41961,NaN,-6.094184,5.856494,0.483867,0.611557,-2.088314,-17.994017,1.444842,0.055150,-1.823010,-0.543945,0.684814,0.380615,-0.060403,0.059080,0.005281,0.999932,0.007224,0.000276,-0.009115,0.429666,-0.763800,-0.156504,-0.455525
41962,NaN,-3.675884,7.548780,-0.795669,2.571117,-4.469805,-16.486204,1.164780,0.056579,-2.209375,-0.558838,0.676270,0.372070,-0.035924,0.075932,-0.007505,0.999922,0.005824,0.000283,-0.011047,0.430681,-0.758241,-0.178906,-0.455606
41963,NaN,-1.180157,6.679131,1.312439,4.599040,-2.546915,-14.294262,1.051557,0.196057,-2.862146,-0.577637,0.663330,0.363770,-0.010832,0.066881,0.013487,0.999883,0.005258,0.000980,-0.014310,0.428273,-0.752883,-0.191709,-0.461516
41964,NaN,-0.199284,4.605486,0.450684,3.398476,-2.124818,-12.133598,0.696020,0.219382,-3.447875,-0.602783,0.642090,0.357422,-0.001194,0.046064,0.004669,0.999845,0.003480,0.001097,-0.017238,0.424725,-0.745801,-0.217267,-0.464957
41965,NaN,-0.330322,2.714997,-1.338700,1.149053,-2.577062,-10.957209,0.502779,0.098276,-3.852049,-0.625732,0.625000,0.349121,-0.002786,0.027240,-0.013317,0.999811,0.002514,0.000491,-0.019259,0.417672,-0.740181,-0.232550,-0.472867
41966,NaN,0.467196,0.291944,-2.564852,-0.823829,-2.342271,-8.965914,0.540226,-0.011029,-4.265715,-0.652588,0.597168,0.344971,0.004735,0.002888,-0.025640,0.999769,0.002701,-0.000055,-0.021327,0.411269,-0.731713,-0.260729,-0.476943
41967,NaN,1.707508,-1.534091,-3.284851,-2.112186,-1.997745,-7.054722,0.888544,-0.119153,-4.596014,-0.679932,0.577881,0.338867,0.016738,-0.015582,-0.032907,0.999726,0.004442,-0.000596,-0.022978,0.403292,-0.723980,-0.279835,-0.484667
41968,NaN,3.167620,-2.563692,-3.248505,-2.455522,-1.415016,-5.439450,1.507436,-0.248825,-4.781025,-0.704834,0.550293,0.321777,0.031096,-0.026139,-0.032642,0.999685,0.007536,-0.001244,-0.023903,0.398972,-0.711773,-0.312412,-0.486415
41969,NaN,4.697062,-3.494851,-1.369062,-2.082645,0.788892,-4.228326,2.126612,-0.335968,-4.855413,-0.736084,0.522461,0.313477,0.046130,-0.035928,-0.013991,0.999647,0.010632,-0.001680,-0.024274,0.394066,-0.700515,-0.335422,-0.491409
41970,NaN,5.342875,-4.693338,-0.638005,-2.954053,2.054372,-3.646324,1.902552,-0.524267,-4.922412,-0.756592,0.494629,0.311768,0.052271,-0.048167,-0.006696,0.999648,0.009512,-0.002621,-0.024609,0.390524,-0.685925,-0.369109,-0.490669
41971,NaN,7.177167,-6.239692,-0.139344,-4.039706,3.420734,-1.911648,1.781645,-0.745863,-4.853043,-0.785645,0.464600,0.305664,0.070236,-0.064100,-0.001696,0.999659,0.008907,-0.003729,-0.024262,0.383218,-0.675089,-0.391453,-0.494130
41972,NaN,10.266095,-6.530775,0.621241,-3.952191,4.776974,0.673616,1.238615,-0.927021,-4.667554,-0.799805,0.434570,0.312500,0.101070,-0.067718,0.006269,0.999698,0.006192,-0.004635,-0.023335,0.376247,-0.662318,-0.420112,-0.493233
41973,NaN,13.733763,-8.450343,0.667054,-5.713005,6.341415,3.883029,0.511963,-0.922277,-4.485060,-0.824463,0.402588,0.317139,0.135365,-0.087572,0.007076,0.999735,0.002560,-0.004611,-0.022423,0.364843,-0.654034,-0.437850,-0.497409
41974,NaN,15.869257,-12.502138,-0.346771,-10.322205,7.417685,5.891659,0.408449,-0.774986,-4.218300,-0.846924,0.370361,0.323730,0.156022,-0.128324,-0.003119,0.999768,0.002042,-0.003875,-0.021090,0.355433,-0.643386,-0.458992,-0.499047
41975,NaN,14.890414,-14.104476,-1.010144,-12.749186,7.193593,4.586599,0.826400,-0.526540,-3.897853,-0.858887,0.338379,0.320068,0.146145,-0.143869,-0.010305,0.999798,0.004132,-0.002633,-0.019488,0.347083,-0.634158,-0.474436,-0.502282
41976,NaN,14.806721,-13.204908,-0.642418,-12.387477,7.184006,3.932088,0.802853,-0.382601,-3.635664,-0.877197,0.308350,0.320312,0.145647,-0.134685,-0.006681,0.999825,0.004014,-0.001913,-0.018177,0.340495,-0.623865,-0.490675,-0.504078
41977,NaN,15.853163,-14.046975,0.390435,-13.386250,8.679914,4.123577,0.000116,-0.280360,-3.288396,-0.886719,0.276123,0.327148,0.156188,-0.143051,0.004124,0.999864,0.000001,-0.001402,-0.016441,0.331471,-0.616420,-0.501343,-0.508732
41978,NaN,14.174925,-16.311061,0.623110,-15.835824,9.134906,1.724763,-0.848285,-0.169297,-2.910715,-0.898682,0.248291,0.327637,0.139350,-0.165122,0.007047,0.999885,-0.004241,-0.000846,-0.014553,0.321542,-0.611115,-0.508093,-0.514773
41979,NaN,14.506069,-17.871073,-0.385475,-17.897776,8.899050,1.606750,-1.264726,-0.076774,-2.015762,-0.906494,0.227051,0.334229,0.143251,-0.180180,-0.002663,0.999929,-0.006323,-0.000384,-0.010079,0.312270,-0.608183,-0.511085,-0.520955
41980,NaN,12.909816,-14.037873,-0.390702,-14.251460,7.556894,0.368526,-1.418003,0.038653,-1.483979,-0.914551,0.207764,0.340820,0.128051,-0.141355,-0.002932,0.999947,-0.007090,0.000193,-0.007420,0.304556,-0.607999,-0.509526,-0.527225
41981,NaN,13.155337,-11.818236,-0.853133,-12.426174,6.725896,0.855395,-1.646312,0.126827,-1.065353,-0.922363,0.188477,0.345459,0.130916,-0.118946,-0.007637,0.999952,-0.008231,0.000634,-0.005327,0.297049,-0.607430,-0.508208,-0.533400
41982,NaN,12.263335,-11.045173,-2.132920,-12.047204,5.294016,0.373970,-1.990666,0.226170,-0.658139,-0.924072,0.175537,0.345703,0.122245,-0.111060,-0.020364,0.999944,-0.009953,0.001131,-0.003291,0.290020,-0.610500,-0.500914,-0.540614
41983,NaN,11.737920,-11.661866,-3.109086,-12.951658,4.685825,-0.130975,-2.384776,0.224410,-0.268256,-0.929932,0.158447,0.352295,0.117188,-0.117137,-0.029828,0.999927,-0.011924,0.001122,-0.001341,0.282555,-0.612637,-0.494926,-0.547620
41984,NaN,11.570897,-12.459717,-4.008059,-13.912612,4.460509,-0.235099,-2.507360,0.184669,0.157623,-0.938232,0.149902,0.348145,0.115771,-0.124996,-0.038622,0.999921,-0.012536,0.000923,0.000788,0.276019,-0.618866,-0.483122,-0.554448
41985,NaN,11.227563,-11.764309,-4.044571,-13.208875,4.340054,-0.458600,-2.386259,0.135188,0.583888,-0.946533,0.139160,0.361084,0.112593,-0.117787,-0.039117,0.999924,-0.011931,0.000676,0.002919,0.270558,-0.623149,-0.474477,-0.559781
41986,NaN,10.561188,-9.577569,-3.228167,-10.657520,4.245089,-0.752770,-2.192071,0.116326,0.940085,-0.953125,0.139160,0.365234,0.106043,-0.095625,-0.031295,0.999929,-0.010960,0.000582,0.004700,0.267142,-0.631026,-0.460862,-0.563957
41987,NaN,10.091351,-6.835172,-2.637512,-7.819880,3.576709,-0.781312,-2.050794,0.099222,1.188401,-0.957275,0.136963,0.367432,0.101305,-0.068017,-0.025727,0.999930,-0.010254,0.000496,0.005942,0.264231,-0.636181,-0.451165,-0.567367
41988,NaN,9.745880,-4.533991,-2.257041,-5.407032,2.839612,-0.684015,-1.705185,0.075441,1.361245,-0.970215,0.134766,0.382324,0.097757,-0.044866,-0.022223,0.999940,-0.008526,0.000377,0.006806,0.263135,-0.644541,-0.437036,-0.569496
41989,NaN,9.544724,-1.710334,-1.416254,-2.425547,2.131199,-0.560329,-1.186195,0.045704,1.476455,-0.979004,0.136963,0.386719,0.095567,-0.016482,-0.014085,0.999955,-0.005931,0.000229,0.007382,0.263604,-0.649171,-0.428820,-0.570266
41990,NaN,8.559833,0.879125,-0.321615,0.552676,1.417356,-1.337344,-0.926987,-0.009111,1.452047,-0.987305,0.132568,0.399414,0.085532,0.009397,-0.003255,0.999963,-0.004635,-0.000046,0.007260,0.264253,-0.657081,-0.415940,-0.570446
41991,NaN,5.219399,-16.369946,-14.603026,-21.558312,-2.193827,-3.577769,-0.540127,-1.016433,1.774213,-0.994385,0.143311,0.422852,0.054385,-0.163617,-0.145316,0.999944,-0.002701,-0.005082,0.008871,0.265411,-0.664348,-0.409890,-0.565852
41992,NaN,18.375550,10.692595,7.338831,13.734190,4.608649,7.390871,0.668534,0.024770,2.530637,-1.005127,0.143311,0.427246,0.182394,0.108994,0.073728,0.999914,0.003343,0.000124,0.012653,0.275091,-0.671564,-0.398792,-0.560617
41993,NaN,15.569199,3.347338,1.889806,4.742353,3.258270,5.156179,-0.510046,-0.204248,1.084922,-1.018066,0.141113,0.452881,0.155488,0.034366,0.018970,0.999982,-0.002550,-0.001021,0.005425,0.276008,-0.674991,-0.393993,-0.559444
41994,NaN,19.963610,17.022740,1.336987,16.491242,-3.979516,10.244587,-0.650977,-0.366071,1.577859,-1.026367,0.134766,0.469971,0.198260,0.171838,0.013176,0.999962,-0.003255,-0.001830,0.007889,0.277211,-0.682904,-0.382078,-0.557506
41995,NaN,20.692053,13.494798,2.129135,14.229174,-1.576924,10.431587,-2.047131,-0.128823,1.373562,-1.025879,0.119629,0.478760,0.205973,0.136574,0.020032,0.999924,-0.010235,-0.000644,0.006868,0.273784,-0.688674,-0.371830,-0.559029
41996,NaN,15.371043,2.059949,-7.795603,-1.207107,-4.237636,6.976265,-2.833320,-0.269798,1.151233,-1.025146,0.098145,0.496338,0.153698,0.020379,-0.078038,0.999882,-0.014166,-0.001349,0.005756,0.266237,-0.697591,-0.355733,-0.562084
41997,NaN,19.376855,11.556867,-7.267374,7.032828,-8.897282,11.001008,-2.567462,-0.254778,1.129765,-1.018311,0.083252,0.500732,0.193209,0.115718,-0.073912,0.999901,-0.012837,-0.001274,0.005649,0.259979,-0.703666,-0.344880,-0.564201
41998,NaN,43.958620,11.469951,-4.381794,12.030913,-2.378117,34.149871,-1.820230,-0.291869,1.104618,-0.996826,0.089600,0.505127,0.439010,0.116724,-0.044233,0.999942,-0.009101,-0.001459,0.005523,0.256171,-0.710311,-0.333439,-0.564494
41999,NaN,30.628000,-8.425723,14.537432,7.343721,21.706107,16.555484,-0.599475,-0.262818,1.853944,-0.987305,0.119629,0.502686,0.306849,-0.080978,0.146023,0.999952,-0.002997,-0.001314,0.009270,0.258826,-0.714879,-0.325482,-0.562156
42000,NaN,-2.295203,-6.153605,2.839933,-3.181962,5.766637,-12.609152,0.179814,-0.865515,1.755155,-0.970947,0.145264,0.510742,-0.022533,-0.061760,0.028246,0.999952,0.000899,-0.004328,0.008776,0.262118,-0.721643,-0.316045,-0.557351
42001,NaN,7.165279,-4.867424,-0.662270,-2.704388,3.902200,-2.537514,-0.336481,-0.616701,1.917715,-0.952148,0.160156,0.510742,0.072135,-0.047995,-0.006320,0.999948,-0.001682,-0.003083,0.009588,0.265262,-0.726797,-0.308978,-0.553113
42002,NaN,7.356236,0.100794,-5.651112,-2.045771,-3.058685,-1.296958,-0.746989,-0.653831,1.881345,-0.944336,0.181641,0.512695,0.073734,0.001491,-0.056275,0.999943,-0.003735,-0.003269,0.009407,0.265791,-0.734203,-0.295662,-0.550349
42003,NaN,8.599794,-8.337146,-8.005677,-9.304057,1.193441,1.121750,-0.363038,-0.516868,1.501582,-0.940430,0.198730,0.518799,0.086828,-0.082867,-0.079682,0.999967,-0.001815,-0.002584,0.007508,0.267820,-0.738305,-0.289826,-0.546973
42004,NaN,7.732668,-7.325983,-6.097841,-7.354738,1.727772,-0.139632,0.515898,-0.245970,1.296741,-0.928223,0.213623,0.518555,0.077874,-0.072599,-0.061071,0.999975,0.002579,-0.001230,0.006484,0.272316,-0.741718,-0.282270,-0.544079
42005,NaN,8.026970,-3.042202,-4.709479,-3.215420,-0.305337,-0.569691,0.715315,-0.057855,1.062952,-0.928467,0.224365,0.524902,0.080443,-0.029826,-0.047179,0.999979,0.003577,-0.000289,0.005315,0.277776,-0.742388,-0.280345,-0.541394
42006,NaN,10.243650,-3.288028,-2.474188,-1.253614,1.605931,1.036899,0.648628,0.085307,0.847839,-0.922607,0.239502,0.516113,0.102564,-0.032365,-0.024891,0.999986,0.003243,0.000427,0.004239,0.282190,-0.743938,-0.274691,-0.539879
42007,NaN,9.619243,-2.870034,-0.189164,0.411220,2.812356,-0.183371,0.248887,0.170208,0.751590,-0.918701,0.250000,0.515869,0.096298,-0.028336,-0.002009,0.999992,0.001244,0.000851,0.003758,0.285379,-0.744155,-0.272323,-0.539103
42008,NaN,9.179525,-1.747159,-0.682790,0.856403,1.551017,-0.612521,-0.399426,0.150935,0.670007,-0.912109,0.250000,0.516113,0.091848,-0.017178,-0.006863,0.999992,-0.001997,0.000755,0.003350,0.285459,-0.746652,-0.264370,-0.539567
42009,NaN,10.124402,-2.000708,-2.671105,-0.325664,0.361181,0.836468,-0.762800,0.112585,0.568502,-0.914307,0.250000,0.513916,0.101286,-0.019821,-0.026692,0.999989,-0.003814,0.000563,0.002843,0.284294,-0.748181,-0.260023,-0.540176
42010,NaN,8.964234,-3.423727,-3.490315,-2.121450,0.662416,0.153370,-0.773991,0.129058,0.466982,-0.910156,0.252197,0.516113,0.089700,-0.034163,-0.034829,0.999990,-0.003870,0.000645,0.002335,0.282387,-0.750845,-0.252021,-0.541271
42011,NaN,9.787977,-5.302522,-3.185428,-2.943908,2.271060,1.152887,-0.476153,0.201067,0.353004,-0.906006,0.256592,0.515869,0.097941,-0.052928,-0.031827,0.999995,-0.002381,0.001005,0.001765,0.281810,-0.751416,-0.249120,-0.542122
42012,NaN,9.173750,-4.346569,-2.479353,-1.938223,2.000849,0.258926,-0.153215,0.241810,0.234756,-0.906006,0.258545,0.509521,0.091758,-0.043377,-0.024871,0.999998,-0.000766,0.001209,0.001174,0.281772,-0.752539,-0.243638,-0.543075
42013,NaN,9.281149,-3.092500,-2.054507,-0.775194,1.366916,0.059234,-0.035614,0.282416,0.206652,-0.901855,0.265137,0.507324,0.092814,-0.030833,-0.020671,0.999998,-0.000178,0.001412,0.001033,0.282547,-0.752074,-0.242363,-0.543886
42014,NaN,9.270349,-3.331891,-1.620650,-0.607094,1.785447,-0.009069,0.007520,0.250025,0.154917,-0.904053,0.265137,0.509521,0.092709,-0.033246,-0.016324,0.999999,0.000038,0.001250,0.000775,0.282903,-0.752796,-0.237682,-0.544768
42015,NaN,9.223699,-2.869777,-1.346354,-0.130421,1.608279,-0.193890,0.050207,0.234307,0.159304,-0.908203,0.262939,0.505127,0.092244,-0.028621,-0.013579,0.999999,0.000251,0.001172,0.000797,0.283809,-0.752276,-0.236884,-0.545361
42016,NaN,9.169272,-2.037610,-1.441271,0.373474,0.880867,-0.358101,-0.000265,0.190301,0.189693,-0.904053,0.267334,0.505127,0.091698,-0.020289,-0.014500,0.999999,-0.000001,0.000952,0.000948,0.284139,-0.753149,-0.232193,-0.546002
42017,NaN,9.193753,-2.177783,-1.424307,0.303424,0.972857,-0.312271,-0.042862,0.119423,0.222248,-0.904053,0.267334,0.507324,0.091953,-0.021679,-0.014293,0.999999,-0.000214,0.000597,0.001111,0.284727,-0.753143,-0.231066,-0.546182
42018,NaN,9.324987,-2.723758,-1.183869,0.196020,1.491254,-0.142451,0.007979,0.055292,0.278228,-0.902344,0.273682,0.505127,0.093284,-0.027107,-0.011866,0.999999,0.000040,0.000276,0.001391,0.285179,-0.754387,-0.226414,-0.546178
42019,NaN,9.325818,-2.675902,-1.112111,0.296805,1.481135,-0.164570,0.099038,-0.016171,0.337774,-0.900391,0.280029,0.507080,0.093304,-0.026596,-0.011127,0.999998,0.000495,-0.000081,0.001689,0.286462,-0.754672,-0.225430,-0.545519
42020,NaN,9.418550,-2.000276,-1.068756,0.854754,0.959723,-0.210573,0.211922,-0.079570,0.417730,-0.900391,0.282227,0.502686,0.094231,-0.019795,-0.010671,0.999997,0.001060,-0.000398,0.002089,0.287903,-0.756071,-0.221069,-0.544608
42021,NaN,9.128008,-1.183156,-1.333007,1.147784,0.143513,-0.584520,0.230571,-0.137043,0.528678,-0.898682,0.292969,0.504639,0.091320,-0.011575,-0.013281,0.999996,0.001153,-0.000685,0.002643,0.290067,-0.756694,-0.219891,-0.543068
42022,NaN,9.268113,-0.879723,-1.882320,1.074723,-0.512225,-0.389460,0.100093,-0.183437,0.643071,-0.890137,0.299316,0.509033,0.092726,-0.008490,-0.018742,0.999994,0.000500,-0.000917,0.003215,0.291603,-0.758670,-0.214702,-0.541563
42023,NaN,9.364894,-1.327239,-2.141922,0.697774,-0.391506,-0.147802,0.035263,-0.254071,0.738885,-0.884033,0.307861,0.504639,0.093724,-0.012922,-0.021302,0.999992,0.000176,-0.001270,0.003694,0.293469,-0.760095,-0.212359,-0.539477
42024,NaN,9.523543,-1.873184,-2.240044,0.415749,-0.149310,0.138630,0.050857,-0.307099,0.823998,-0.878174,0.320801,0.510742,0.095346,-0.018333,-0.022259,0.999990,0.000254,-0.001535,0.004120,0.274424,-0.769898,-0.177440,-0.548146
42025,NaN,9.612021,-1.699081,-2.400498,0.504360,-0.436814,0.216980,0.102505,-0.342236,0.911332,-0.869629,0.327148,0.510742,0.096237,-0.016540,-0.023849,0.999988,0.000513,-0.001711,0.004557,0.277016,-0.771495,-0.174676,-0.545477
42026,NaN,9.667802,-1.803808,-2.544723,0.428791,-0.553156,0.321654,0.142632,-0.391340,1.006253,-0.863525,0.337891,0.517090,0.096817,-0.017533,-0.025271,0.999985,0.000713,-0.001957,0.005031,0.263127,-0.778613,-0.145430,-0.550796
42027,NaN,9.655603,-1.531169,-2.753775,0.495523,-0.964304,0.285913,0.237160,-0.416679,1.111657,-0.851318,0.354980,0.514893,0.096696,-0.014742,-0.027354,0.999982,0.001186,-0.002083,0.005558,0.266810,-0.780243,-0.142297,-0.547525
42028,NaN,8.961534,-1.303357,-2.898692,0.295643,-1.298929,-0.398108,0.331729,-0.429785,1.211245,-0.847412,0.369873,0.512451,0.089754,-0.012442,-0.028815,0.999978,0.001659,-0.002149,0.006056,0.257717,-0.785346,-0.117663,-0.550427
42029,NaN,8.679754,-2.301750,-3.433057,-0.608655,-0.805286,-0.252267,0.312042,-0.450444,1.279306,-0.828613,0.385010,0.522949,0.087019,-0.022408,-0.034170,0.999976,0.001560,-0.002252,0.006396,0.262199,-0.786917,-0.114071,-0.546809
42030,NaN,8.540127,-3.531598,-3.553275,-1.211194,0.105746,0.013390,0.414270,-0.465795,1.324199,-0.818359,0.399902,0.516357,0.085715,-0.034676,-0.035406,0.999973,0.002071,-0.002329,0.006621,0.257607,-0.790491,-0.094719,-0.547532
42031,NaN,8.274897,-3.693398,-3.561349,-1.290277,0.164920,-0.163625,0.642997,-0.491944,1.343608,-0.803955,0.414795,0.527100,0.083082,-0.036262,-0.035527,0.999969,0.003215,-0.002460,0.006718,0.263593,-0.791621,-0.091795,-0.543533
42032,NaN,8.873085,-3.854941,-3.600659,-1.038846,0.088017,0.457059,0.817298,-0.525537,1.364546,-0.798096,0.434082,0.524658,0.089085,-0.037795,-0.035928,0.999965,0.004086,-0.002628,0.006823,0.262875,-0.793961,-0.076626,-0.542818
42033,NaN,9.959347,-3.356479,-2.842291,0.328170,-0.271651,1.066141,0.943758,-0.543724,1.432580,-0.777344,0.455566,0.524414,0.099907,-0.032716,-0.028307,0.999960,0.004719,-0.002719,0.007163,0.270299,-0.794713,-0.074207,-0.538390
42034,NaN,11.318463,-3.119341,-3.238248,0.778073,-1.100225,2.291209,0.969617,-0.576610,1.524704,-0.762939,0.474854,0.519775,0.113510,-0.030172,-0.032203,0.999955,0.004848,-0.002883,0.007623,0.273134,-0.796304,-0.062487,-0.536090
42035,NaN,12.490081,-1.885429,-3.111425,2.003667,-2.481591,2.799193,1.081910,-0.587544,1.689842,-0.750977,0.498291,0.523926,0.125144,-0.017630,-0.030844,0.999945,0.005409,-0.002938,0.008449,0.281780,-0.796886,-0.059453,-0.531073
42036,NaN,13.128321,-1.163365,-2.808691,2.956916,-3.310720,2.910666,1.088006,-0.614953,1.898733,-0.738770,0.517578,0.519287,0.131470,-0.010235,-0.027741,0.999935,0.005440,-0.003075,0.009493,0.288581,-0.797889,-0.050437,-0.526831
42037,NaN,13.631461,-2.898011,-2.773959,2.727611,-2.196328,3.958205,1.087503,-0.610715,2.071625,-0.716309,0.553955,0.516846,0.136688,-0.027416,-0.027474,0.999927,0.005437,-0.003053,0.010358,0.298209,-0.798392,-0.045909,-0.521089
42038,NaN,14.408628,-4.216862,-3.191612,2.451274,-1.822171,5.228465,1.229079,-0.606505,2.184550,-0.693359,0.573242,0.512207,0.144630,-0.040395,-0.031730,0.999917,0.006145,-0.003032,0.010922,0.308288,-0.798695,-0.039367,-0.515263
42039,NaN,16.611084,-4.160509,-2.802931,4.041107,-2.545012,6.868749,1.335656,-0.581182,2.343921,-0.672852,0.603271,0.499023,0.166663,-0.039468,-0.027814,0.999905,0.006678,-0.002906,0.011719,0.319524,-0.798518,-0.034335,-0.509013
42040,NaN,20.704069,-3.077328,-2.563087,6.935005,-4.752306,9.526160,1.331485,-0.603103,2.572799,-0.647949,0.631104,0.492432,0.207489,-0.027937,-0.025198,0.999891,0.006657,-0.003015,0.012864,0.333138,-0.798202,-0.030225,-0.500978
42041,NaN,24.347032,-0.480904,-2.279629,10.321199,-8.107266,10.824767,1.260516,-0.599790,2.894240,-0.618652,0.658936,0.489990,0.243571,-0.001144,-0.022081,0.999871,0.006302,-0.002999,0.014471,0.345292,-0.797939,-0.022821,-0.493505
42042,NaN,26.505274,0.697172,-2.725498,12.095954,-10.307696,11.583929,1.180107,-0.583193,3.232395,-0.589600,0.686768,0.476807,0.264970,0.011412,-0.026424,0.999848,0.005900,-0.002916,0.016161,0.361302,-0.797430,-0.018791,-0.482921
42043,NaN,26.828679,1.677498,-3.209866,12.734913,-12.004132,10.840096,1.104091,-0.533019,3.479789,-0.551758,0.716797,0.463867,0.268023,0.021614,-0.031274,0.999830,0.005520,-0.002665,0.017398,0.374002,-0.796913,-0.008537,-0.474320
42044,NaN,25.729305,2.528753,-3.201464,13.154376,-12.543067,8.847302,0.951648,-0.483549,3.628734,-0.520508,0.746582,0.454834,0.256852,0.030101,-0.031258,0.999821,0.004758,-0.002418,0.018143,0.391260,-0.796203,-0.005751,-0.461458
42045,NaN,21.750167,4.249272,-2.732721,12.209966,-12.537768,4.053002,0.767191,-0.362379,3.632906,-0.482666,0.770264,0.448242,0.216730,0.046538,-0.026761,0.999826,0.003836,-0.001812,0.018163,0.402624,-0.795503,0.006239,-0.452802
42046,NaN,15.452123,4.753021,-2.505365,9.348274,-10.453364,-1.389724,0.489587,-0.228159,3.427993,-0.450684,0.780762,0.439697,0.153704,0.050230,-0.024757,0.999849,0.002448,-0.001141,0.017139,0.418364,-0.794927,0.006578,-0.439339
42047,NaN,8.938596,4.822136,-2.850923,5.216096,-8.444608,-6.241598,0.174999,-0.185607,2.927687,-0.425293,0.791504,0.437500,0.088693,0.049548,-0.028384,0.999892,0.000875,-0.000928,0.014638,0.425459,-0.794785,0.017447,-0.432431
42048,NaN,3.734848,5.240563,-3.326555,1.958395,-6.968458,-10.099755,0.088371,-0.261929,2.106480,-0.406250,0.800049,0.431152,0.036837,0.052810,-0.033194,0.999944,0.000442,-0.001310,0.010532,0.435630,-0.795194,0.013852,-0.421546
42049,NaN,-2.249405,4.375411,-4.186387,-2.834442,-4.666841,-13.264607,-0.439954,-0.207384,1.684378,-0.391113,0.797852,0.437744,-0.022817,0.043471,-0.041983,0.999962,-0.002200,-0.001037,0.008422,0.437435,-0.796441,0.021030,-0.417002
42050,NaN,-4.950112,-0.219132,1.360107,-2.453317,2.976393,-13.207331,-0.023537,-0.342974,1.022412,-0.374023,0.806396,0.435547,-0.049512,-0.002443,0.013516,0.999985,-0.000118,-0.001715,0.005112,0.443996,-0.797409,0.014042,-0.408423
42051,NaN,-7.821471,-0.471189,-0.295643,-5.584865,3.083947,-14.371539,0.609850,-0.547422,0.425619,-0.369873,0.810791,0.424805,-0.078196,-0.004869,-0.003185,0.999989,0.003049,-0.002737,0.002128,0.447337,-0.797133,0.013284,-0.405330
42052,NaN,-12.268705,0.575857,-0.920356,-8.727799,3.453147,-17.787679,1.595314,-0.529028,-0.391215,-0.367676,0.810791,0.411865,-0.122651,0.006073,-0.009480,0.999963,0.007976,-0.002645,-0.001956,0.457422,-0.794740,-0.002970,-0.398930
42053,NaN,-11.851229,1.229111,1.875799,-6.426035,4.882863,-18.776155,2.047784,-0.416895,-1.194202,-0.380859,0.815186,0.396729,-0.118476,0.012807,0.018640,0.999928,0.010239,-0.002084,-0.005971,0.463144,-0.790811,-0.012748,-0.399941
42054,NaN,-7.133884,0.265311,0.909083,-4.221069,2.893284,-14.872290,1.914258,-0.205527,-1.798521,-0.393555,0.810791,0.385986,-0.071321,0.003208,0.009046,0.999913,0.009571,-0.001028,-0.008992,0.470982,-0.786394,-0.032859,-0.398348
42055,NaN,-3.687886,2.651962,-0.430617,-1.575955,-0.621632,-14.049131,2.061320,0.005258,-2.332346,-0.410645,0.808838,0.368896,-0.036566,0.026990,-0.004029,0.999879,0.010306,0.000026,-0.011661,0.474391,-0.781050,-0.046113,-0.403470
42056,NaN,-2.854490,4.654001,1.606231,1.243692,-0.383334,-15.352658,2.137080,0.211761,-2.977908,-0.438232,0.798096,0.345215,-0.027832,0.046783,0.016591,0.999832,0.010685,0.001059,-0.014889,0.479288,-0.774376,-0.067303,-0.407548
42057,NaN,-2.182376,4.322892,1.688782,1.744864,-0.322487,-14.624216,1.991294,0.220089,-3.453483,-0.465820,0.793945,0.328125,-0.021056,0.043426,0.017343,0.999801,0.009956,0.001100,-0.017266,0.479946,-0.767838,-0.084185,-0.415920
42058,NaN,-2.284277,4.083909,1.693183,1.730986,-0.146266,-14.475590,1.743073,0.150919,-3.744949,-0.497559,0.781250,0.317383,-0.022062,0.041107,0.017306,0.999786,0.008715,0.000755,-0.018723,0.481392,-0.760961,-0.107269,-0.421537
42059,NaN,-2.259495,3.407785,1.707756,1.529083,0.190848,-13.966969,1.443865,0.010390,-4.045878,-0.531250,0.760010,0.308838,-0.021900,0.034401,0.017326,0.999769,0.007219,0.000052,-0.020228,0.478260,-0.755118,-0.125650,-0.430438
42060,NaN,-0.582895,1.973041,1.247238,1.532936,0.168233,-11.659147,1.350044,-0.133079,-4.338549,-0.560791,0.740723,0.302734,-0.005409,0.019766,0.012602,0.999742,0.006750,-0.000665,-0.021691,0.475360,-0.748681,-0.148650,-0.437508
42061,NaN,1.041709,0.655417,0.662464,1.348267,0.042352,-9.447137,1.360311,-0.223544,-4.559999,-0.593994,0.710693,0.287842,0.010555,0.006269,0.006680,0.999716,0.006801,-0.001118,-0.022798,0.470183,-0.742335,-0.169178,-0.446369
42062,NaN,2.222912,-0.720458,-0.039909,0.660048,-0.015014,-7.571017,1.360769,-0.392320,-4.739579,-0.619141,0.687256,0.279541,0.022051,-0.007726,-0.000407,0.999694,0.006803,-0.001961,-0.023695,0.464926,-0.735355,-0.192646,-0.453855
42063,NaN,3.551514,-3.209542,-0.306382,-0.693932,0.870507,-5.147444,1.308097,-0.562428,-4.898637,-0.652588,0.661621,0.266846,0.034724,-0.032932,-0.003179,0.999675,0.006540,-0.002812,-0.024491,0.457934,-0.728634,-0.214864,-0.461761
42064,NaN,5.558631,-6.068601,-0.240503,-2.113652,2.196588,-2.165638,1.260235,-0.690344,-5.043720,-0.672852,0.625244,0.269531,0.054042,-0.062046,-0.002605,0.999656,0.006300,-0.003451,-0.025216,0.451751,-0.720627,-0.241035,-0.467460
42065,NaN,7.907291,-6.988830,0.402210,-1.908350,3.169991,0.077507,1.539805,-0.764359,-5.022940,-0.704346,0.601807,0.263184,0.077270,-0.071874,0.003771,0.999648,0.007698,-0.003821,-0.025112,0.444486,-0.712630,-0.264367,-0.474026
42066,NaN,9.686383,-5.995747,2.138297,-0.159496,4.369019,0.920658,1.498078,-0.869619,-4.839588,-0.726807,0.571777,0.257080,0.095280,-0.062436,0.021338,0.999670,0.007490,-0.004348,-0.024195,0.438240,-0.703874,-0.289246,-0.478377
42067,NaN,11.638547,-5.649268,2.451371,0.460354,4.750346,2.457932,0.736382,-1.168196,-4.616298,-0.751709,0.539795,0.263916,0.114894,-0.059248,0.024973,0.999710,0.003682,-0.005840,-0.023079,0.427981,-0.698175,-0.309724,-0.483172
42068,NaN,15.923545,-6.983301,3.045975,0.395573,6.367787,6.644583,0.158301,-1.340021,-4.479975,-0.771973,0.509766,0.266357,0.157409,-0.073397,0.031461,0.999726,0.000791,-0.006699,-0.022398,0.417192,-0.692651,-0.331210,-0.486297
42069,NaN,19.892995,-9.464691,3.825868,-0.936982,8.886491,10.681560,-0.183018,-1.260124,-4.407872,-0.785889,0.475342,0.279785,0.196534,-0.098960,0.039591,0.999737,-0.000915,-0.006300,-0.022037,0.403652,-0.688617,-0.348567,-0.491298
42070,NaN,21.118721,-11.238807,3.999607,-2.977841,10.448623,11.870857,-0.284478,-1.034627,-4.189440,-0.793457,0.443359,0.282227,0.208561,-0.116717,0.041244,0.999766,-0.001422,-0.005173,-0.020946,0.392527,-0.682617,-0.367134,-0.495145
42071,NaN,18.779351,-10.422159,3.328632,-3.816148,9.724596,9.244330,-0.441240,-0.803114,-3.991858,-0.811768,0.413330,0.289062,0.185528,-0.107865,0.034270,0.999790,-0.002206,-0.004015,-0.019958,0.379589,-0.678003,-0.381161,-0.500940
42072,NaN,17.707814,-11.970049,2.517547,-6.445237,9.832556,8.212811,-0.766943,-0.626434,-3.452226,-0.821533,0.381104,0.287354,0.174897,-0.122633,0.026192,0.999839,-0.003835,-0.003132,-0.017260,0.369555,-0.672364,-0.394991,-0.505310
42073,NaN,17.186463,-13.203323,0.899046,-8.781639,9.160332,7.778240,-0.934846,-0.481752,-3.109891,-0.833496,0.357666,0.296143,0.169761,-0.134639,0.010026,0.999865,-0.004674,-0.002409,-0.015549,0.357561,-0.669078,-0.403917,-0.511211
42074,NaN,16.571608,-13.911919,0.382670,-10.248393,9.053445,6.958768,-0.927108,-0.315167,-2.650979,-0.839111,0.333984,0.294434,0.163846,-0.141279,0.004737,0.999900,-0.004635,-0.001576,-0.013254,0.350474,-0.663461,-0.414639,-0.514842
42075,NaN,15.008919,-12.345408,0.432740,-9.334445,8.381719,5.035292,-0.689288,-0.104928,-2.237925,-0.840820,0.321289,0.303223,0.148693,-0.125107,0.004835,0.999931,-0.003446,-0.000525,-0.011189,0.342192,-0.660256,-0.420440,-0.519805
42076,NaN,13.473868,-10.343402,0.496412,-7.883347,7.458056,3.263958,-0.739955,0.054363,-1.920565,-0.853271,0.306152,0.303223,0.133739,-0.104702,0.005313,0.999947,-0.003700,0.000272,-0.009603,0.334732,-0.657716,-0.423456,-0.525404
42077,NaN,12.417679,-9.557251,0.148321,-7.604037,6.724976,2.125024,-0.853742,0.119697,-1.689004,-0.848389,0.291260,0.301514,0.123365,-0.096609,0.001820,0.999955,-0.004269,0.000598,-0.008445,0.327733,-0.655227,-0.426545,-0.530404
42078,NaN,12.401240,-9.437863,-0.390147,-7.856498,6.304499,2.084390,-0.820015,0.143312,-1.428210,-0.856445,0.274170,0.292969,0.123332,-0.095276,-0.003601,0.999966,-0.004100,0.000717,-0.007141,0.321499,-0.653621,-0.427335,-0.535540
42079,NaN,11.611989,-8.389097,-0.550413,-7.154097,5.635759,1.258570,-0.810546,0.178854,-1.151543,-0.862549,0.263428,0.299561,0.115629,-0.084579,-0.005266,0.999975,-0.004053,0.000894,-0.005758,0.316148,-0.651970,-0.428626,-0.539690
42080,NaN,11.120942,-8.133261,-1.020061,-7.222552,5.082468,0.811222,-0.891775,0.207302,-0.874004,-0.864258,0.252686,0.295410,0.110842,-0.081862,-0.009951,0.999980,-0.004459,0.001037,-0.004370,0.311425,-0.651431,-0.427240,-0.544167
42081,NaN,10.759238,-8.092133,-1.157716,-7.323094,4.932734,0.415889,-0.920788,0.270980,-0.562055,-0.868164,0.241943,0.300049,0.107349,-0.081276,-0.011349,0.999985,-0.004604,0.001355,-0.002810,0.307479,-0.650919,-0.426133,-0.547880
42082,NaN,9.957185,-7.234724,-0.961759,-6.508000,4.594242,-0.381339,-1.026338,0.338442,-0.270702,-0.870361,0.244141,0.289062,0.099458,-0.072531,-0.009414,0.999984,-0.005132,0.001692,-0.001354,0.304342,-0.651488,-0.422153,-0.552020
42083,NaN,9.253266,-6.710485,-0.892387,-6.036933,4.308535,-1.069595,-1.213859,0.380701,-0.003032,-0.876709,0.237793,0.291504,0.092515,-0.067159,-0.008692,0.999980,-0.006069,0.001903,-0.000015,0.301186,-0.652267,-0.418221,-0.555812
42084,NaN,8.738141,-6.868208,-1.011919,-6.208862,4.207742,-1.548548,-1.336439,0.385096,0.261457,-0.868164,0.239746,0.293457,0.087452,-0.068634,-0.009829,0.999975,-0.006682,0.001925,0.001307,0.298953,-0.654039,-0.411811,-0.559707
42085,NaN,8.779481,-6.616617,-1.221209,-6.043231,3.958530,-1.436575,-1.334533,0.397044,0.553792,-0.870361,0.237793,0.291504,0.087954,-0.066003,-0.011946,0.999972,-0.006673,0.001985,0.002769,0.296958,-0.656046,-0.405655,-0.562906
42086,NaN,8.141672,-5.226727,-2.192323,-5.277665,2.333586,-1.743482,-1.237507,0.394236,0.849595,-0.870361,0.241943,0.287109,0.081595,-0.052056,-0.021761,0.999970,-0.006187,0.001971,0.004248,0.296880,-0.658699,-0.397639,-0.565562
42087,NaN,7.900564,-2.981638,-1.884467,-3.142405,1.404478,-1.874640,-1.102230,0.274155,1.101853,-0.864258,0.250488,0.286865,0.079143,-0.029484,-0.018790,0.999969,-0.005511,0.001371,0.005509,0.296912,-0.661732,-0.390469,-0.566999
42088,NaN,7.254041,-1.739619,-2.142852,-2.178912,0.386207,-2.373465,-1.152887,0.265151,1.233466,-0.862305,0.259033,0.286865,0.072618,-0.017072,-0.021426,0.999963,-0.005764,0.001326,0.006167,0.298050,-0.665214,-0.381704,-0.568294
42089,NaN,6.587053,-2.821510,-1.253154,-2.600109,1.562689,-3.200772,-1.071332,0.149036,1.331545,-0.855957,0.261230,0.289062,0.066047,-0.027843,-0.012431,0.999963,-0.005357,0.000745,0.006658,0.298556,-0.668906,-0.373989,-0.568825
42090,NaN,6.704310,-14.632068,-4.321193,-14.048423,5.448868,-2.694823,-0.284145,-0.074548,1.590575,-0.852295,0.280518,0.292969,0.068220,-0.145842,-0.042979,0.999967,-0.001421,-0.000373,0.007953,0.302823,-0.672690,-0.366878,-0.566734
42091,NaN,12.118411,-4.989609,-9.077817,-7.796254,-3.042932,3.755463,0.839731,-0.278745,3.405719,-0.844482,0.302002,0.288330,0.122132,-0.047440,-0.090811,0.999845,0.004198,-0.001394,0.017028,0.314752,-0.678353,-0.358162,-0.559007
42092,NaN,0.274231,24.146431,-3.674720,18.012097,-16.496139,-9.798894,-3.056355,0.296943,2.177708,-0.832031,0.314697,0.301270,0.000059,0.240876,-0.040433,0.999823,-0.015281,0.001485,0.010888,0.311743,-0.686414,-0.340514,-0.561874
42093,NaN,20.892391,5.271147,-1.924138,6.231408,-2.324457,10.771921,-4.224925,-0.495737,2.562254,-0.823486,0.316895,0.316162,0.208278,0.054967,-0.019870,0.999692,-0.021122,-0.002478,0.012810,0.303515,-0.698542,-0.320514,-0.563194
42094,NaN,18.652434,4.771538,-1.166683,6.183323,-2.073406,8.339284,-3.551184,-0.099843,2.305729,-0.819580,0.327393,0.324707,0.185965,0.049645,-0.012444,0.999776,-0.017755,-0.000499,0.011528,0.297896,-0.708019,-0.301525,-0.564845
42095,NaN,15.954145,-4.728419,-8.909397,-6.152684,-2.349020,7.876063,-1.631134,-0.029527,2.150055,-0.815674,0.336182,0.328857,0.160056,-0.046290,-0.088690,0.999909,-0.008155,-0.000148,0.010750,0.298136,-0.713709,-0.289317,-0.563941
42096,NaN,13.580707,2.264880,-8.497243,-0.910343,-6.897496,4.794193,-0.534700,-0.429966,1.761942,-0.805176,0.344482,0.337402,0.135784,0.023618,-0.084743,0.999955,-0.002673,-0.002150,0.008810,0.301005,-0.718500,-0.281175,-0.560441
42097,NaN,10.240621,5.167473,-3.501441,3.845338,-5.383374,0.190514,-0.810515,-0.717478,1.569743,-0.801514,0.357422,0.345703,0.102122,0.052336,-0.034859,0.999955,-0.004053,-0.003587,0.007849,0.301484,-0.723905,-0.274324,-0.556611
42098,NaN,7.642234,-2.852900,-1.061657,-0.940448,1.575146,-1.793770,-0.843699,-0.607763,1.354664,-0.792969,0.363770,0.354248,0.076645,-0.028054,-0.010265,0.999964,-0.004218,-0.003039,0.006773,0.301652,-0.728988,-0.267086,-0.553396
42099,NaN,8.943918,-5.724818,-3.563066,-4.190642,1.748130,0.426638,-0.547212,-0.507923,1.036795,-0.786621,0.365967,0.360596,0.089825,-0.056880,-0.035247,0.999980,-0.002736,-0.002540,0.005184,0.301857,-0.732589,-0.262545,-0.550696
42100,NaN,18.914477,-3.908466,3.719413,4.579358,6.285960,8.253274,-0.545229,-0.232860,1.103114,-0.780518,0.372314,0.364990,0.189313,-0.037939,0.037519,0.999980,-0.002726,-0.001164,0.005516,0.302876,-0.735779,-0.256428,-0.548762
42101,NaN,62.612565,14.842054,5.831890,31.286748,-3.441228,46.612980,-1.312540,-0.259783,1.325510,-0.772217,0.383057,0.366943,0.625046,0.152947,0.058137,0.999956,-0.006563,-0.001299,0.006627,0.301353,-0.740146,-0.248323,-0.547453
42102,NaN,10.254170,7.829172,2.511783,10.030815,-3.360945,-2.013251,-0.366503,-0.550924,2.357527,-0.758057,0.404297,0.381592,0.101540,0.079539,0.025253,0.999925,-0.001832,-0.002755,0.011787,0.305743,-0.745311,-0.238279,-0.542453
42103,NaN,-4.442931,-17.173186,-0.110593,-13.181706,11.849184,-10.523243,-0.221929,-1.079463,1.339808,-0.747559,0.412842,0.381592,-0.043271,-0.172026,-0.001151,0.999962,-0.001110,-0.005397,0.006699,0.307268,-0.750146,-0.234316,-0.536622
42104,NaN,7.976655,-10.017977,1.866105,-2.976048,8.500455,-0.520152,0.118937,-0.853253,1.632683,-0.737305,0.425781,0.387939,0.080500,-0.099536,0.018944,0.999957,0.000595,-0.004266,0.008163,0.311116,-0.754349,-0.228616,-0.530942
42105,NaN,11.819926,-4.134046,-2.514906,-0.423268,1.254757,2.890393,0.781561,-1.073834,1.335448,-0.729004,0.438721,0.392090,0.118605,-0.040452,-0.024672,0.999956,0.003908,-0.005369,0.006677,0.316384,-0.757476,-0.227305,-0.523893
42106,NaN,10.988242,-1.998674,-4.785395,-0.524139,-1.945068,2.169539,0.999190,-1.098504,1.303308,-0.714600,0.453613,0.398193,0.110269,-0.019032,-0.047346,0.999951,0.004996,-0.005492,0.006516,0.322396,-0.760412,-0.225440,-0.516731
42107,NaN,6.885677,-2.110590,-6.166860,-2.785602,-2.971995,-1.251017,1.139976,-1.013755,1.194812,-0.706543,0.468506,0.391602,0.069292,-0.020342,-0.061436,0.999953,0.005700,-0.005069,0.005974,0.328676,-0.762504,-0.225456,-0.509637
42108,NaN,5.426026,-3.164325,-7.170520,-4.538241,-3.074768,-2.014018,0.897955,-0.757147,1.127383,-0.702393,0.477051,0.393799,0.054708,-0.031014,-0.071639,0.999967,0.004490,-0.003786,0.005637,0.334250,-0.764367,-0.223587,-0.504012
42109,NaN,9.099073,-4.656291,-4.318600,-2.220097,-0.023100,1.058999,0.657684,-0.416793,1.007052,-0.694092,0.485596,0.400146,0.091313,-0.045962,-0.043148,0.999980,0.003288,-0.002084,0.005035,0.338845,-0.765428,-0.222077,-0.499986
42110,NaN,10.264096,-2.968245,-1.476255,1.247031,0.862091,0.866368,0.512458,-0.119268,0.931984,-0.686035,0.496338,0.399902,0.102786,-0.029166,-0.014776,0.999986,0.002562,-0.000596,0.004660,0.343168,-0.766043,-0.218988,-0.497451
42111,NaN,9.389730,-0.737627,-1.853284,2.240730,-0.965253,-0.528689,-0.131403,-0.073179,0.905229,-0.677490,0.502686,0.402100,0.093936,-0.006963,-0.018494,0.999989,-0.000657,-0.000366,0.004526,0.344850,-0.767433,-0.215305,-0.495752
42112,NaN,9.895638,-3.462648,-3.458151,-0.286898,-0.390907,1.216216,-0.482349,-0.064238,0.886261,-0.673340,0.507080,0.402100,0.099120,-0.034271,-0.034467,0.999987,-0.002412,-0.000321,0.004431,0.345249,-0.769520,-0.209818,-0.494590
42113,NaN,10.014932,-4.208847,-3.580933,-0.733968,-0.016641,1.602074,-0.337895,-0.003878,0.843450,-0.673584,0.513428,0.401855,0.100326,-0.041726,-0.035737,0.999990,-0.001689,-0.000019,0.004217,0.346044,-0.770988,-0.205730,-0.493464
42114,NaN,10.080338,-4.476226,-3.295044,-0.625746,0.316338,1.677085,-0.128543,0.021431,0.821889,-0.667480,0.524170,0.399658,0.100983,-0.044369,-0.032933,0.999991,-0.000643,0.000107,0.004109,0.347752,-0.772124,-0.201287,-0.492317
42115,NaN,10.253286,-4.408860,-2.759219,-0.105403,0.599610,1.668158,0.079575,0.044175,0.837072,-0.663330,0.524170,0.403809,0.102710,-0.043648,-0.027632,0.999991,0.000398,0.000221,0.004185,0.350178,-0.772711,-0.198161,-0.490943
42116,NaN,10.996622,-3.809502,-2.945143,0.574223,-0.056703,2.178058,0.276885,0.015858,0.849167,-0.659180,0.530518,0.399658,0.110124,-0.037587,-0.029512,0.999990,0.001384,0.000079,0.004246,0.353528,-0.773126,-0.194671,-0.489283
42117,NaN,12.970639,-3.045064,-3.161367,1.897265,-0.911350,3.717735,0.463472,-0.011889,0.937918,-0.650879,0.541260,0.393066,0.129849,-0.029769,-0.031675,0.999986,0.002317,-0.000059,0.004690,0.357615,-0.773236,-0.192185,-0.487116
42118,NaN,14.598971,-0.106085,-3.946926,4.159611,-3.673522,4.255703,0.550748,-0.067320,1.084415,-0.645020,0.556396,0.390625,0.146005,-0.000161,-0.039421,0.999981,0.002754,-0.000337,0.005422,0.362484,-0.773530,-0.188631,-0.484432
42119,NaN,19.293219,-0.828951,-4.740973,5.531868,-4.199784,8.819164,0.474913,-0.192643,1.334136,-0.636719,0.566895,0.394775,0.193027,-0.006890,-0.047241,0.999974,0.002375,-0.000963,0.006671,0.367379,-0.774373,-0.184953,-0.480804
42120,NaN,23.956592,-2.265929,-2.777893,8.264801,-2.327416,12.837498,0.633766,-0.215422,1.666794,-0.617920,0.579834,0.392578,0.239773,-0.020574,-0.027588,0.999960,0.003169,-0.001077,0.008334,0.373792,-0.775281,-0.179762,-0.476344
42121,NaN,25.445096,0.878939,-2.815765,11.304329,-4.803280,12.665519,1.007934,-0.299322,2.008679,-0.607910,0.603516,0.383789,0.254386,0.011485,-0.027724,0.999936,0.005040,-0.001497,0.010043,0.382208,-0.775863,-0.174911,-0.470488
42122,NaN,26.896398,2.181120,-2.467831,13.486000,-5.840677,12.952193,1.031916,-0.396912,2.371717,-0.589355,0.626953,0.385742,0.268727,0.025124,-0.024021,0.999914,0.005159,-0.001985,0.011858,0.391552,-0.776814,-0.168389,-0.463565
42123,NaN,28.220783,2.040146,-2.369064,14.649615,-6.155699,13.716667,1.248841,-0.467221,2.659054,-0.572998,0.650635,0.374756,0.281956,0.024296,-0.022888,0.999889,0.006244,-0.002336,0.013295,0.402146,-0.777602,-0.161838,-0.455436
42124,NaN,27.888585,3.232906,-2.235878,15.844713,-7.143825,12.347489,1.560206,-0.439125,2.875667,-0.552246,0.674072,0.372314,0.278429,0.036505,-0.021473,0.999864,0.007801,-0.002196,0.014378,0.414500,-0.777578,-0.154875,-0.446740
42125,NaN,26.040137,5.327273,-2.179881,16.680479,-8.475070,9.189816,1.897871,-0.385132,2.958443,-0.527344,0.699707,0.363525,0.259614,0.057317,-0.020767,0.999844,0.009489,-0.001926,0.014791,0.428141,-0.776670,-0.148373,-0.437566
42126,NaN,22.220941,7.882347,-1.873077,16.672992,-9.425779,4.062744,2.047055,-0.347405,2.927141,-0.502197,0.721191,0.348145,0.221053,0.082248,-0.017516,0.999839,0.010235,-0.001737,0.014635,0.442322,-0.774908,-0.142362,-0.428489
42127,NaN,16.308163,11.572109,-3.115262,15.043469,-11.696642,-2.999322,1.580474,-0.336570,2.859570,-0.481201,0.736084,0.350342,0.161454,0.118277,-0.029952,0.999865,0.007902,-0.001683,0.014297,0.454289,-0.774060,-0.135380,-0.419672
42128,NaN,9.183344,17.180776,-3.749971,13.751845,-14.109992,-12.127635,-0.296486,-0.475169,1.975386,-0.462646,0.757568,0.350098,0.090220,0.172649,-0.037540,0.999947,-0.001482,-0.002376,0.009877,0.457067,-0.776805,-0.128704,-0.413640
42129,NaN,1.860893,2.407549,-4.357986,0.288078,-5.216402,-8.834439,0.663770,-0.732141,1.952540,-0.443359,0.763916,0.354248,0.018531,0.024401,-0.043431,0.999940,0.003319,-0.003661,0.009763,0.463202,-0.778008,-0.124144,-0.405877
42130,NaN,-1.699429,1.328246,-4.276354,-2.530665,-3.928558,-10.862264,0.474640,-1.002968,1.501504,-0.426758,0.776611,0.358398,-0.016879,0.013257,-0.042817,0.999956,0.002373,-0.005015,0.007507,0.467551,-0.779638,-0.122376,-0.398228
42131,NaN,-6.760662,0.335650,0.566990,-3.975429,1.514310,-15.108231,1.085397,-0.886885,1.005604,-0.422852,0.791748,0.345459,-0.067647,0.002987,0.005387,0.999963,0.005427,-0.004434,0.005028,0.473240,-0.779448,-0.122671,-0.391735
42132,NaN,-10.695429,3.520223,1.924574,-4.187744,1.687564,-20.305666,1.737287,-0.812164,0.312125,-0.414307,0.798096,0.338867,-0.107087,0.034869,0.019115,0.999953,0.008686,-0.004061,0.001561,0.480163,-0.776917,-0.127510,-0.386762
42133,NaN,-7.537790,7.205501,0.506502,-0.670204,-1.887103,-20.058824,1.831197,-0.825380,-0.190800,-0.416992,0.806641,0.341064,-0.075331,0.072078,0.005414,0.999949,0.009156,-0.004127,-0.000954,0.486372,-0.773951,-0.133752,-0.382821
42134,NaN,-4.641783,10.972172,1.458093,3.985252,-3.331249,-20.633020,1.382411,-0.666522,-0.755215,-0.419189,0.808838,0.328125,-0.046053,0.109793,0.015186,0.999963,0.006912,-0.003333,-0.003776,0.489841,-0.771189,-0.141593,-0.381151
42135,NaN,-2.867737,10.934817,0.703663,4.940796,-4.182253,-19.107006,0.824188,-0.505479,-1.312417,-0.434082,0.806885,0.323730,-0.027978,0.109503,0.007416,0.999967,0.004121,-0.002527,-0.006562,0.490159,-0.769174,-0.149443,-0.381814
42136,NaN,-1.985861,8.963029,2.684988,5.356093,-1.628006,-17.568230,0.616284,-0.280379,-1.765369,-0.444580,0.802490,0.325928,-0.019105,0.089718,0.027099,0.999955,0.003081,-0.001402,-0.008827,0.488955,-0.766680,-0.158863,-0.384562
42137,NaN,-3.201062,6.391999,2.909904,3.197703,-0.075060,-16.836870,0.121512,-0.156374,-2.200744,-0.465820,0.789795,0.325928,-0.031328,0.064250,0.029113,0.999939,0.000608,-0.000782,-0.011003,0.485051,-0.764884,-0.167891,-0.389217
42138,NaN,-4.527418,3.888363,1.613262,0.337735,0.068537,-15.985089,-0.373801,-0.114747,-2.639526,-0.489014,0.776855,0.328125,-0.044765,0.039507,0.016033,0.999911,-0.001869,-0.000574,-0.013197,0.478375,-0.763527,-0.178329,-0.395452
42139,NaN,-4.978420,1.670118,0.146923,-1.890492,-0.187057,-14.710077,-0.366146,-0.067914,-3.060388,-0.512207,0.761963,0.328369,-0.049521,0.017463,0.001421,0.999881,-0.001831,-0.000340,-0.015301,0.470825,-0.761714,-0.189416,-0.402787
42140,NaN,-4.669145,1.126283,-0.206680,-2.087334,-0.347570,-14.129184,-0.089466,0.022976,-3.411260,-0.539795,0.753418,0.330322,-0.046491,0.012056,-0.002067,0.999854,-0.000447,0.000115,-0.017055,0.463658,-0.758285,-0.203012,-0.410866
42141,NaN,-4.673949,0.654661,-0.738492,-2.514312,-0.662592,-13.819739,-0.131683,0.020436,-3.687514,-0.564697,0.727783,0.337158,-0.046609,0.007402,-0.007385,0.999830,-0.000658,0.000102,-0.018437,0.455542,-0.754673,-0.216627,-0.419551
42142,NaN,-3.964362,-1.223661,-1.342994,-3.605351,-0.389350,-12.234448,-0.466472,-0.026245,-3.949257,-0.592041,0.710693,0.337158,-0.039874,-0.011482,-0.013408,0.999802,-0.002332,-0.000131,-0.019745,0.445587,-0.751035,-0.231566,-0.428691
42143,NaN,-2.266361,-5.199867,-2.697610,-6.186267,0.307954,-8.772107,-0.555490,-0.107275,-4.248448,-0.627686,0.685059,0.341797,-0.023748,-0.051577,-0.026845,0.999770,-0.002777,-0.000536,-0.021241,0.434186,-0.747408,-0.246501,-0.438293
42144,NaN,-0.608476,-9.825351,-2.528641,-8.880186,2.716113,-5.683337,0.053883,-0.109659,-4.376502,-0.661377,0.659424,0.337646,-0.008219,-0.098082,-0.025317,0.999760,0.000269,-0.000548,-0.021881,0.424949,-0.741517,-0.264331,-0.446878
42145,NaN,0.542096,-11.717868,-0.672212,-9.227102,5.241126,-4.770562,0.618566,-0.113935,-4.376958,-0.684082,0.631592,0.337891,0.002859,-0.117238,-0.007083,0.999756,0.003093,-0.000570,-0.021883,0.417226,-0.734489,-0.282106,-0.454824
42146,NaN,2.665532,-11.304466,1.548119,-7.363003,6.967302,-3.937862,0.966695,-0.395976,-4.258696,-0.715576,0.610107,0.333740,0.024209,-0.113651,0.014982,0.999760,0.004833,-0.001980,-0.021292,0.410944,-0.726690,-0.301832,-0.460373
42147,NaN,6.800310,-10.597680,2.410818,-5.191508,7.629345,-0.914156,1.065616,-0.490173,-4.074343,-0.738281,0.586670,0.333984,0.065766,-0.107459,0.023701,0.999775,0.005328,-0.002451,-0.020370,0.404623,-0.719316,-0.320016,-0.465247
42148,NaN,9.532338,-12.051415,2.710043,-5.813548,8.849058,1.646356,0.914530,-0.483409,-3.940141,-0.765381,0.558838,0.334229,0.092858,-0.122483,0.026770,0.999793,0.004572,-0.002417,-0.019699,0.398422,-0.711636,-0.338142,-0.469568
42149,NaN,12.496613,-14.097345,1.453505,-7.650555,9.069085,4.890793,0.784511,-0.359934,-3.669783,-0.786133,0.537354,0.325928,0.122325,-0.143290,0.014198,0.999822,0.003922,-0.001800,-0.018348,0.391937,-0.704585,-0.353688,-0.474183
42150,NaN,14.460837,-14.802812,0.350676,-8.729565,8.701282,6.812672,0.939250,-0.177646,-3.367304,-0.800293,0.513916,0.322021,0.142086,-0.150449,0.002931,0.999847,0.004696,-0.000888,-0.016836,0.387333,-0.696710,-0.368613,-0.478217
42151,NaN,13.223241,-13.721931,0.168667,-8.740497,7.941906,5.143032,0.624672,-0.074207,-3.132904,-0.827393,0.490479,0.320068,0.130061,-0.139273,0.001302,0.999872,0.003123,-0.000371,-0.015664,0.381851,-0.689814,-0.381107,-0.482809
42152,NaN,14.327785,-12.278683,0.143691,-7.679986,7.553828,5.679396,0.007245,-0.010664,-2.901574,-0.843994,0.466797,0.320312,0.141476,-0.124848,0.001440,0.999895,0.000036,-0.000053,-0.014507,0.375224,-0.683933,-0.391373,-0.488130
42153,NaN,15.796707,-12.664340,-2.400341,-9.102822,5.832939,7.472370,-0.748524,0.131403,-2.618755,-0.862549,0.443359,0.324707,0.156274,-0.128786,-0.023627,0.999907,-0.003743,0.000657,-0.013093,0.366515,-0.679827,-0.398208,-0.494906
42154,NaN,16.605280,-13.479292,-5.856608,-11.413843,3.450237,8.882741,-1.524134,0.188399,-2.193742,-0.867920,0.417725,0.329346,0.164503,-0.137045,-0.057683,0.999910,-0.007620,0.000942,-0.010968,0.356626,-0.677548,-0.401538,-0.502507
42155,NaN,17.387579,-15.906414,-5.970507,-13.882959,4.885565,9.535370,-2.275090,0.143601,-1.927298,-0.880127,0.394043,0.340576,0.172286,-0.161396,-0.058002,0.999889,-0.011375,0.000718,-0.009636,0.344346,-0.677298,-0.402041,-0.510937
42156,NaN,18.168161,-16.869932,-5.124271,-14.554779,6.608432,9.818806,-2.117264,0.154394,-1.476798,-0.890137,0.370361,0.347168,0.180388,-0.170565,-0.049583,0.999916,-0.010586,0.000772,-0.007384,0.334061,-0.677468,-0.401196,-0.518153
42157,NaN,17.010411,-14.800689,-2.225229,-11.811823,8.280755,7.659149,-1.561358,0.200522,-1.220751,-0.900146,0.351074,0.347412,0.169174,-0.149210,-0.021260,0.999950,-0.007807,0.001003,-0.006104,0.326016,-0.677073,-0.400921,-0.523973
42158,NaN,15.141624,-11.504016,-0.117945,-8.319438,8.341549,5.114720,-0.879844,0.271219,-0.960085,-0.906250,0.342529,0.349609,0.150860,-0.115770,-0.000876,0.999978,-0.004399,0.001356,-0.004800,0.321528,-0.675855,-0.401168,-0.528114
42159,NaN,15.188414,-8.551530,-0.558547,-6.020626,6.643657,5.145295,-0.413165,0.303044,-0.674822,-0.916748,0.333984,0.351807,0.151586,-0.086039,-0.005638,0.999991,-0.002066,0.001515,-0.003374,0.318976,-0.674359,-0.401857,-0.531042
42160,NaN,14.040759,-8.189296,-2.192563,-6.662939,4.830015,4.374999,-0.158897,0.366012,-0.404780,-0.918945,0.332031,0.341309,0.140201,-0.082194,-0.022117,0.999996,-0.000794,0.001830,-0.002024,0.318676,-0.672809,-0.401924,-0.533133
42161,NaN,13.738734,-7.977361,-3.198017,-7.032941,3.777420,4.290039,0.052900,0.385513,-0.149964,-0.927246,0.327637,0.345459,0.137265,-0.079868,-0.032266,0.999998,0.000264,0.001928,-0.000750,0.319250,-0.671393,-0.401945,-0.534557
42162,NaN,13.036133,-7.010277,-3.478991,-6.405919,2.875167,3.673808,-0.032145,0.363788,0.055058,-0.927002,0.321289,0.343506,0.130317,-0.070073,-0.035016,0.999998,-0.000161,0.001819,0.000275,0.320770,-0.670487,-0.400890,-0.535576
42163,NaN,12.826322,-5.475945,-2.370495,-4.566695,3.020534,3.231134,-0.247680,0.339654,0.268860,-0.933350,0.316895,0.341309,0.128296,-0.054616,-0.023855,0.999997,-0.001238,0.001698,0.001344,0.321362,-0.670510,-0.398769,-0.536773
42164,NaN,11.871218,-3.237945,-1.084594,-2.064467,2.824791,2.034027,-0.498950,0.323276,0.539273,-0.937744,0.321289,0.336914,0.118781,-0.032086,-0.010958,0.999992,-0.002495,0.001616,0.002696,0.322392,-0.671557,-0.394689,-0.537861
42165,NaN,9.549654,0.269641,-0.287389,1.174178,1.342986,-0.422886,-0.877140,0.319439,0.769471,-0.944336,0.319092,0.343506,0.095480,0.003051,-0.003039,0.999982,-0.004386,0.001597,0.003847,0.322164,-0.673617,-0.389213,-0.539410
42166,NaN,6.986706,1.833716,-0.068892,2.390577,0.238208,-3.000251,-1.301426,0.243968,0.831174,-0.944336,0.321289,0.349854,0.069789,0.018622,-0.000895,0.999969,-0.006507,0.001220,0.004156,0.321028,-0.676742,-0.382001,-0.541329
42167,NaN,5.174253,-3.297104,0.531528,-1.924475,2.991930,-4.785701,-1.526421,0.070389,0.840214,-0.946289,0.312744,0.362793,0.051882,-0.032712,0.005547,0.999962,-0.007632,0.000352,0.004201,0.318284,-0.680579,-0.374888,-0.543108
42168,NaN,7.967718,-17.937146,-7.270858,-17.828696,4.613377,0.133429,-1.388930,-0.590628,1.935102,-0.942139,0.321289,0.373291,0.081623,-0.179086,-0.071225,0.999925,-0.006944,-0.002953,0.009675,0.317913,-0.688253,-0.364635,-0.540629
42169,NaN,11.618572,12.673280,6.356237,15.781720,0.123486,-0.490748,-2.133683,0.342492,2.366739,-0.948730,0.321289,0.384033,0.114777,0.128764,0.061998,0.999872,-0.010668,0.001712,0.011833,0.317577,-0.694944,-0.350121,-0.541861
42170,NaN,15.784778,0.856686,1.336516,4.223174,2.763743,5.227160,-2.698186,-0.253168,1.838285,-0.950928,0.321045,0.401123,0.157742,0.010198,0.013435,0.999866,-0.013490,-0.001266,0.009191,0.312643,-0.703478,-0.335669,-0.542862
42171,NaN,18.399301,9.938704,-2.433790,10.215453,-5.449937,7.770289,-1.853527,-0.213498,2.253049,-0.944580,0.321045,0.407715,0.182886,0.101221,-0.025075,0.999893,-0.009267,-0.001067,0.011265,0.311873,-0.710658,-0.322999,-0.541638
42172,NaN,18.161870,4.052169,-3.126192,5.257628,-2.829950,8.086719,-1.876759,-0.081605,1.795228,-0.950928,0.316895,0.422607,0.181260,0.041854,-0.031577,0.999916,-0.009384,-0.000408,0.008976,0.309884,-0.716983,-0.310636,-0.541676
42173,NaN,15.290247,5.361816,-11.904033,0.610495,-10.938363,7.046315,-1.643641,-0.463007,1.591097,-0.937988,0.314697,0.437744,0.152750,0.053855,-0.119129,0.999932,-0.008218,-0.002315,0.007955,0.307586,-0.723204,-0.301164,-0.540062
42174,NaN,12.092084,1.545128,-8.069470,-0.748341,-5.949428,3.520215,-1.517806,-0.430350,1.407254,-0.929443,0.316650,0.446289,0.120984,0.015691,-0.080553,0.999944,-0.007589,-0.002152,0.007036,0.305235,-0.729056,-0.291796,-0.538669
42175,NaN,6.374551,1.140845,-7.424991,-2.049307,-5.742518,-2.073787,-1.135393,-0.629748,1.206656,-0.923096,0.318848,0.459229,0.063910,0.011373,-0.074113,0.999961,-0.005677,-0.003149,0.006033,0.303441,-0.734214,-0.285275,-0.536164
42176,NaN,18.462007,3.094030,-7.123048,2.883050,-5.686806,9.174167,-0.219191,-0.595646,1.156633,-0.906006,0.325195,0.469971,0.184648,0.031930,-0.070715,0.999978,-0.001096,-0.002978,0.005783,0.304917,-0.738024,-0.280657,-0.532520
42177,NaN,41.350526,6.757454,9.880949,22.716108,6.459578,26.178590,-0.250395,-0.228937,1.628570,-0.902344,0.340088,0.467529,0.412823,0.071062,0.099195,0.999965,-0.001252,-0.001145,0.008143,0.308024,-0.741272,-0.274306,-0.529521
42178,NaN,31.594947,7.918443,9.029208,20.773826,3.798576,16.577390,-0.820499,-0.469739,2.154165,-0.879639,0.370117,0.480225,0.314857,0.082951,0.090697,0.999931,-0.004102,-0.002349,0.010771,0.310022,-0.746860,-0.264196,-0.525630
42179,NaN,1.290206,-6.435988,-1.190366,-4.932055,3.526672,-7.030809,-0.688112,-0.973390,2.118811,-0.860840,0.385010,0.486328,0.013640,-0.064258,-0.011617,0.999926,-0.003440,-0.004867,0.010594,0.311738,-0.753225,-0.255950,-0.519577
42180,NaN,2.613515,-11.183328,-2.904853,-8.797493,5.595637,-4.189294,-0.411656,-0.902100,2.023845,-0.844482,0.408691,0.486084,0.027395,-0.111620,-0.028697,0.999937,-0.002058,-0.004510,0.010119,0.314250,-0.758889,-0.247939,-0.513673
42181,NaN,7.662772,-8.885573,-4.650951,-6.338850,2.995531,0.682205,0.607326,-0.816377,1.851979,-0.830078,0.427979,0.485840,0.077635,-0.087999,-0.046462,0.999944,0.003037,-0.004082,0.009260,0.320307,-0.762282,-0.243725,-0.506881
42182,NaN,10.004957,-1.781714,-2.634318,0.911468,-0.311645,0.641101,1.052856,-0.847782,1.657379,-0.815430,0.442871,0.483643,0.100303,-0.016849,-0.026009,0.999943,0.005264,-0.004239,0.008287,0.327274,-0.764969,-0.240423,-0.499910
42183,NaN,7.869516,-1.524045,-4.254586,-0.535300,-1.841054,-0.942798,0.729980,-0.860549,1.553177,-0.803467,0.468506,0.487549,0.078992,-0.014473,-0.042260,0.999954,0.003650,-0.004303,0.007766,0.332925,-0.767754,-0.237688,-0.493173
42184,NaN,4.121314,-7.177283,-5.909777,-6.805159,0.497579,-2.271863,0.568692,-0.784955,1.310342,-0.791016,0.481445,0.491699,0.041914,-0.071332,-0.059137,0.999967,0.002843,-0.003925,0.006552,0.337255,-0.770487,-0.234443,-0.487489
42185,NaN,6.648599,-8.664981,-3.031297,-4.974700,3.639909,-0.300807,0.902167,-0.488355,1.117342,-0.787354,0.494141,0.491699,0.067043,-0.086139,-0.030539,0.999971,0.004511,-0.002442,0.005587,0.342898,-0.771440,-0.233137,-0.482648
42186,NaN,7.642822,-3.285517,-1.128218,0.362592,1.487334,-1.558242,0.766695,-0.181020,0.995544,-0.781250,0.507080,0.485107,0.076601,-0.032431,-0.011338,0.999980,0.003833,-0.000905,0.004978,0.347894,-0.771943,-0.230476,-0.479535
42187,NaN,10.972592,-0.740279,-2.552689,2.818605,-1.232960,1.049920,0.031751,-0.280323,0.974157,-0.766357,0.513428,0.489258,0.109796,-0.006864,-0.025374,0.999987,0.000159,-0.001402,0.004871,0.350051,-0.773669,-0.227259,-0.476712
42188,NaN,13.554128,-2.207934,-4.640094,1.860541,-1.875635,4.439985,-0.063700,-0.263789,0.952296,-0.762451,0.521973,0.487061,0.135705,-0.021448,-0.046215,0.999988,-0.000319,-0.001319,0.004761,0.351650,-0.775688,-0.222950,-0.474283
42189,NaN,9.705265,-2.493527,-5.278653,-0.324597,-2.279518,1.276551,0.444742,-0.262453,0.945468,-0.754150,0.534912,0.486816,0.097238,-0.024359,-0.052714,0.999985,0.002224,-0.001312,0.004727,0.355346,-0.776566,-0.220777,-0.471096
42190,NaN,7.526059,-4.015631,-4.997198,-2.096512,-1.158699,-0.221026,0.571815,-0.296605,0.859711,-0.739502,0.545654,0.484619,0.075506,-0.039689,-0.049974,0.999986,0.002859,-0.001483,0.004299,0.359177,-0.777362,-0.218474,-0.467941
42191,NaN,9.236943,-6.183360,-4.072177,-2.149236,0.883632,1.794916,0.656198,-0.235893,0.812936,-0.738037,0.562744,0.475830,0.092667,-0.061324,-0.040814,0.999986,0.003281,-0.001179,0.004065,0.363393,-0.777608,-0.217251,-0.464836
42192,NaN,10.837338,-5.555202,-3.235543,-0.405518,1.021943,2.739868,0.987962,-0.105437,0.773235,-0.729492,0.569092,0.478027,0.108604,-0.054972,-0.032571,0.999980,0.004940,-0.000527,0.003866,0.368872,-0.777040,-0.215946,-0.462071
42193,NaN,11.422849,-3.236970,-3.445128,1.405286,-0.720321,2.448357,1.053254,-0.031962,0.781886,-0.725830,0.586182,0.471191,0.114359,-0.031741,-0.034601,0.999978,0.005266,-0.000160,0.003909,0.374755,-0.775994,-0.215376,-0.459353
42194,NaN,12.804244,-2.848543,-4.339400,1.941937,-1.797858,3.747829,1.044972,0.002840,0.880191,-0.719727,0.596924,0.456055,0.128165,-0.027694,-0.043542,0.999977,0.005225,0.000014,0.004401,0.380786,-0.775107,-0.213580,-0.456722
42195,NaN,14.715801,-1.078013,-4.176325,4.287672,-2.930110,4.615949,1.163636,0.077054,1.024996,-0.709717,0.618408,0.458008,0.147194,-0.009782,-0.041879,0.999970,0.005818,0.000385,0.005125,0.387734,-0.773782,-0.212092,-0.453807
42196,NaN,17.838009,-0.964763,-2.952003,6.731725,-2.278724,6.840396,1.125789,0.066327,1.281400,-0.690918,0.633545,0.447266,0.178426,-0.008338,-0.029629,0.999964,0.005629,0.000332,0.006407,0.395057,-0.772884,-0.208902,-0.450489
42197,NaN,21.346252,-1.006576,-1.146720,9.640150,-1.130988,9.260042,1.021810,0.080656,1.563051,-0.683105,0.656982,0.440430,0.213528,-0.008338,-0.011599,0.999956,0.005109,0.000403,0.007815,0.402620,-0.772278,-0.204974,-0.446620
42198,NaN,24.563141,-0.310491,-0.774145,12.242935,-1.670189,11.432207,1.016015,0.096371,1.911466,-0.662109,0.676270,0.425293,0.245642,-0.000717,-0.007867,0.999941,0.005080,0.000482,0.009557,0.410900,-0.771986,-0.199097,-0.442221
42199,NaN,26.873265,1.287376,-1.377952,14.578698,-3.563544,12.558223,1.028233,0.122292,2.305495,-0.639404,0.704102,0.412109,0.268551,0.016041,-0.013867,0.999920,0.005141,0.000611,0.011527,0.420081,-0.771831,-0.192184,-0.436892
42200,NaN,26.174071,5.045161,-1.775685,16.891458,-6.399952,9.868814,1.104862,0.140787,2.726469,-0.616699,0.734131,0.398926,0.261007,0.054111,-0.017649,0.999892,0.005524,0.000704,0.013632,0.430441,-0.771712,-0.183369,-0.430764
42201,NaN,23.211751,6.289842,-3.658208,15.484856,-8.760247,6.775282,0.917742,0.086173,2.967678,-0.585205,0.757568,0.390137,0.231133,0.066500,-0.036382,0.999879,0.004589,0.000431,0.014838,0.440426,-0.772173,-0.173666,-0.423810
42202,NaN,21.374073,4.359960,-5.359065,12.698086,-9.259002,6.236272,0.631994,-0.036154,3.029175,-0.558350,0.785400,0.387695,0.213056,0.046999,-0.053407,0.999880,0.003160,-0.000181,0.015145,0.449288,-0.773291,-0.163249,-0.416546
42203,NaN,20.646055,6.035137,-5.234774,13.729565,-10.277856,4.184128,0.883650,-0.094336,2.969376,-0.533203,0.809082,0.376709,0.205557,0.063638,-0.051974,0.999880,0.004418,-0.000472,0.014846,0.458783,-0.773826,-0.153779,-0.408733
42204,NaN,16.964778,8.143110,-4.481183,13.405056,-10.471619,-0.603158,1.190544,-0.141009,2.832409,-0.497314,0.826172,0.361816,0.168501,0.084087,-0.044197,0.999882,0.005952,-0.000705,0.014161,0.469126,-0.773324,-0.145718,-0.400821
42205,NaN,10.822416,10.115041,-4.558466,10.801102,-10.727418,-6.903762,0.654213,-0.255712,2.714312,-0.469727,0.843262,0.359375,0.106895,0.102755,-0.045113,0.999902,0.003271,-0.001279,0.013571,0.476888,-0.774195,-0.137097,-0.392943
42206,NaN,5.572677,10.048617,-4.844461,7.205527,-10.107334,-11.002306,-0.050054,-0.360199,2.317013,-0.448730,0.851807,0.367920,0.054645,0.101111,-0.048371,0.999931,-0.000250,-0.001801,0.011585,0.481091,-0.776392,-0.129310,-0.386064
42207,NaN,-1.058614,7.211117,-3.908892,1.508708,-6.766446,-14.322489,-0.674116,-0.472041,1.442112,-0.431396,0.851807,0.372314,-0.011012,0.071900,-0.039357,0.999966,-0.003371,-0.002360,0.007210,0.480960,-0.779822,-0.123519,-0.381179
42208,NaN,-6.056438,0.422709,0.666910,-3.580204,1.403170,-14.557876,0.569011,-0.448998,0.877254,-0.420898,0.858154,0.376709,-0.060597,0.003943,0.006545,0.999984,0.002845,-0.002245,0.004386,0.484635,-0.779705,-0.122769,-0.376984
42209,NaN,-13.181889,7.033654,3.974550,-3.286429,2.184875,-24.761146,0.719869,-0.144963,0.432118,-0.418945,0.862305,0.365723,-0.131999,0.069908,0.039902,0.999991,0.003599,-0.000725,0.002161,0.488186,-0.778483,-0.122769,-0.374921
42210,NaN,-14.617743,3.923844,3.313215,-6.331859,3.440019,-23.528597,0.631065,-0.098217,-0.208569,-0.418945,0.862305,0.363770,-0.146153,0.039286,0.033184,0.999994,0.003155,-0.000491,-0.001043,0.490227,-0.776883,-0.125406,-0.374706
42211,NaN,-9.158429,5.751936,2.469128,-1.884917,0.904589,-20.707006,1.045957,0.173066,-0.750523,-0.427490,0.862549,0.359375,-0.091346,0.057732,0.025072,0.999979,0.005230,0.000865,-0.003753,0.493005,-0.773499,-0.129832,-0.376548
42212,NaN,-6.687306,12.129642,1.199195,3.041318,-3.634167,-22.882691,0.786750,0.463534,-1.417555,-0.444824,0.864746,0.350586,-0.065983,0.121717,0.012624,0.999964,0.003934,0.002318,-0.007088,0.493695,-0.769636,-0.135977,-0.381361
42213,NaN,-5.822933,17.805029,1.205052,7.238887,-6.473846,-25.876703,0.280762,0.595431,-2.028185,-0.474365,0.851807,0.350830,-0.056383,0.178611,0.012471,0.999943,0.001404,0.002977,-0.010141,0.491309,-0.766376,-0.142818,-0.388440
42214,NaN,-4.375549,13.666445,3.970558,7.309912,-2.421601,-22.555140,-0.193617,0.798066,-2.565977,-0.500000,0.843262,0.346436,-0.041839,0.137248,0.039742,0.999909,-0.000968,0.003990,-0.012829,0.486152,-0.763277,-0.150742,-0.397922
42215,NaN,-4.205632,6.452446,2.643700,2.628455,-0.228234,-17.516189,-0.711055,0.805056,-3.041052,-0.522949,0.823975,0.346680,-0.040962,0.065247,0.026372,0.999870,-0.003555,0.004025,-0.015205,0.477957,-0.761004,-0.158935,-0.408865
42216,NaN,-4.339464,2.556688,-0.512021,-1.207420,-1.093630,-14.605716,-0.744525,0.769990,-3.697311,-0.562988,0.798340,0.348877,-0.042932,0.026345,-0.005051,0.999815,-0.003722,0.003850,-0.018485,0.468198,-0.757949,-0.170170,-0.421125
42217,NaN,-3.621891,0.940219,-4.676754,-3.700929,-3.995186,-12.305491,-0.445128,0.754232,-4.434952,-0.602783,0.770752,0.349121,-0.036176,0.010101,-0.046653,0.999745,-0.002225,0.003771,-0.022173,0.457721,-0.753429,-0.184210,-0.434631
42218,NaN,-1.773252,-0.823515,-5.529864,-4.202399,-4.091342,-9.781197,0.570316,0.755643,-4.966150,-0.645020,0.749268,0.338623,-0.018136,-0.007631,-0.055253,0.999681,0.002851,0.003778,-0.024828,0.449802,-0.745444,-0.203009,-0.448084
42219,NaN,0.448240,-3.160366,-3.466744,-3.731062,-1.399743,-7.297968,1.520811,0.569103,-5.323536,-0.684814,0.717285,0.321533,0.003545,-0.031441,-0.034918,0.999613,0.007603,0.002845,-0.026614,0.443974,-0.735051,-0.224877,-0.460454
42220,NaN,3.476186,-5.452235,-1.412866,-3.221080,1.258369,-4.170272,2.082532,0.247722,-5.534286,-0.726562,0.683105,0.306885,0.033221,-0.055305,-0.014744,0.999562,0.010411,0.001238,-0.027667,0.439296,-0.722993,-0.250170,-0.470866
42221,NaN,7.340535,-6.672844,0.699014,-1.969872,3.524597,-0.726070,2.492188,0.093323,-5.571014,-0.768555,0.653320,0.302979,0.071511,-0.068818,0.006108,0.999534,0.012459,0.000467,-0.027851,0.435129,-0.709990,-0.275834,-0.480097
42222,NaN,9.427509,-6.723961,1.041920,-1.661040,3.902012,1.011077,1.947118,-0.111991,-5.475448,-0.801514,0.614746,0.290527,0.092380,-0.069884,0.009799,0.999578,0.009734,-0.000560,-0.027373,0.428789,-0.697883,-0.300683,-0.488559
42223,NaN,13.332024,-7.336866,-0.953256,-2.349875,2.633505,5.018774,0.796162,-0.595974,-5.233775,-0.832520,0.576172,0.299316,0.131369,-0.076786,-0.009440,0.999645,0.003980,-0.002980,-0.026166,0.417763,-0.689511,-0.322043,-0.496323
42224,NaN,19.720365,-11.660397,-4.337866,-6.369809,2.188053,12.507710,-0.354381,-1.050167,-4.995216,-0.856934,0.531250,0.306396,0.194432,-0.121559,-0.042140,0.999673,-0.001772,-0.005250,-0.024973,0.402398,-0.684389,-0.340847,-0.503499
42225,NaN,22.753185,-17.962916,-5.250843,-12.422320,5.028988,16.420472,-0.215424,-1.216312,-4.782389,-0.874756,0.490479,0.326172,0.223463,-0.185061,-0.050944,0.999695,-0.001077,-0.006081,-0.023910,0.387455,-0.679522,-0.358996,-0.509166
42226,NaN,21.677206,-17.822252,-3.684353,-12.868402,6.894892,14.432791,0.102818,-1.207868,-4.472290,-0.895020,0.451904,0.343750,0.212933,-0.182994,-0.035643,0.999732,0.000514,-0.006039,-0.022359,0.374167,-0.674071,-0.376904,-0.513391
42227,NaN,23.880871,-16.337047,-1.382712,-11.082057,9.164226,15.330532,-0.377749,-1.073545,-4.196600,-0.915283,0.411133,0.350830,0.235379,-0.168358,-0.012243,0.999764,-0.001889,-0.005367,-0.020981,0.360040,-0.669463,-0.391982,-0.518209
42228,NaN,22.793121,-16.456165,-0.490201,-11.805802,10.436595,13.471822,-1.047453,-0.641228,-3.803563,-0.927002,0.379150,0.359619,0.224759,-0.168876,-0.003301,0.999800,-0.005237,-0.003206,-0.019017,0.345349,-0.665395,-0.403100,-0.524876
42229,NaN,20.550542,-18.914953,-1.057461,-15.189319,11.120751,10.845261,-1.102476,-0.392318,-3.355585,-0.934326,0.344727,0.370850,0.202312,-0.192615,-0.009120,0.999842,-0.005512,-0.001961,-0.016777,0.332060,-0.661458,-0.411970,-0.531498
42230,NaN,20.458756,-18.692147,-3.187421,-16.444926,9.503147,10.615722,-0.400284,-0.376539,-2.773889,-0.942139,0.319092,0.377686,0.202027,-0.189798,-0.031114,0.999900,-0.002001,-0.001883,-0.013869,0.322580,-0.657394,-0.420520,-0.535667
42231,NaN,19.751741,-13.718474,-3.009143,-12.392914,7.550972,9.597587,-0.208343,-0.015785,-2.135809,-0.962891,0.295410,0.375732,0.196040,-0.139315,-0.029932,0.999942,-0.001042,-0.000079,-0.010679,0.316153,-0.653242,-0.426970,-0.539461
42232,NaN,17.698033,-13.472668,-4.039431,-13.052494,6.213673,7.567231,0.000589,0.008966,-1.652102,-0.955811,0.278320,0.380371,0.175858,-0.136182,-0.040403,0.999966,0.000003,0.000045,-0.008260,0.311748,-0.649807,-0.432049,-0.542123
42233,NaN,18.803338,-14.134587,-3.337831,-13.533642,7.400067,8.258497,0.246943,0.062360,-1.049201,-0.959961,0.276123,0.375977,0.187278,-0.142288,-0.033612,0.999985,0.001235,0.000312,-0.005246,0.309867,-0.646976,-0.436011,-0.543414
42234,NaN,14.362239,-10.128126,-1.885678,-9.554815,5.958480,3.811175,-0.115057,0.145421,-0.608335,-0.966309,0.269775,0.384766,0.143300,-0.101728,-0.018903,0.999995,-0.000575,0.000727,-0.003042,0.308207,-0.645654,-0.437025,-0.545114
42235,NaN,13.229105,-8.497082,-2.183041,-8.294665,4.767857,2.853848,-0.485047,0.075167,-0.191554,-0.974854,0.265625,0.386963,0.132201,-0.085150,-0.021674,0.999997,-0.002425,0.000376,-0.000958,0.306313,-0.645774,-0.436191,-0.546704
42236,NaN,13.127487,-7.955497,-2.439822,-7.909235,4.321851,2.849819,-0.686854,0.130429,0.193908,-0.966064,0.261230,0.378418,0.131336,-0.079511,-0.024211,0.999993,-0.003434,0.000652,0.000970,0.304984,-0.647149,-0.433003,-0.548354
42237,NaN,12.093077,-7.026077,-2.208693,-6.955243,3.901464,1.887285,-0.653399,0.132587,0.559009,-0.972412,0.263428,0.389160,0.121112,-0.069994,-0.021938,0.999991,-0.003267,0.000663,0.002795,0.304718,-0.648985,-0.429183,-0.549334
42238,NaN,11.288482,-5.759915,-1.400255,-5.397067,3.858287,1.075452,-0.597101,0.105938,0.846007,-0.961914,0.267578,0.384766,0.113120,-0.057163,-0.013891,0.999986,-0.002985,0.000530,0.004230,0.305414,-0.651704,-0.424087,-0.549686
42239,NaN,10.840092,-4.878912,-0.447082,-4.090236,4.166680,0.551603,-0.621727,0.094963,1.137204,-0.971191,0.282715,0.395264,0.108674,-0.048185,-0.004372,0.999979,-0.003109,0.000475,0.005686,0.306740,-0.654789,-0.418505,-0.549560
42240,NaN,10.095738,-4.018973,0.283322,-2.885491,4.204557,-0.213212,-0.709379,0.137303,1.415681,-0.967041,0.289062,0.390869,0.101240,-0.039464,0.002905,0.999968,-0.003547,0.000687,0.007078,0.308674,-0.658753,-0.411097,-0.549331
42241,NaN,8.978608,-3.049997,0.473636,-1.868461,3.636293,-1.243771,-0.904246,0.190565,1.629777,-0.965088,0.293457,0.395020,0.090035,-0.029745,0.004786,0.999956,-0.004521,0.000953,0.008149,0.310582,-0.662945,-0.402919,-0.549272
42242,NaN,7.656473,-2.157253,0.113280,-1.211556,2.585946,-2.387633,-1.101686,0.197712,1.790380,-0.955078,0.316895,0.386230,0.076755,-0.020880,0.001173,0.999944,-0.005508,0.000989,0.008952,0.312312,-0.667999,-0.392977,-0.549370
42243,NaN,5.844945,-0.791025,0.015175,-0.118602,1.440921,-4.094477,-1.232679,0.187753,1.924186,-0.957520,0.325439,0.390381,0.058522,-0.007347,0.000143,0.999934,-0.006163,0.000939,0.009621,0.313860,-0.673143,-0.382831,-0.549373
42244,NaN,4.484698,2.716096,0.493135,3.076919,-0.258347,-5.546837,-1.362616,0.143398,2.042214,-0.949219,0.338379,0.390137,0.044570,0.027650,0.004712,0.999924,-0.006813,0.000717,0.010211,0.315213,-0.679052,-0.371286,-0.549251
42245,NaN,2.324467,5.343509,0.562001,5.107025,-2.030813,-7.796657,-1.576318,0.200918,1.957169,-0.947510,0.349121,0.396484,0.022725,0.053701,0.005174,0.999921,-0.007881,0.001005,0.009786,0.315616,-0.684561,-0.359951,-0.549725
42246,NaN,1.306012,2.162668,2.329997,3.232194,0.913462,-9.084838,-1.435085,0.109883,1.636690,-0.945801,0.357666,0.406982,0.012894,0.021899,0.023136,0.999941,-0.007175,0.000549,0.008183,0.315450,-0.689699,-0.349567,-0.550099
42247,NaN,0.454325,-6.701679,-1.198494,-6.108138,2.844309,-8.738364,-0.931435,-0.292903,1.846164,-0.944092,0.372559,0.415527,0.005179,-0.067026,-0.011666,0.999945,-0.004657,-0.001464,0.009231,0.316819,-0.695160,-0.341066,-0.547770
42248,NaN,8.559688,-7.667527,-1.306445,-5.423325,4.345406,-0.568186,-0.994051,-0.056861,3.044366,-0.934082,0.391846,0.419434,0.086755,-0.075424,-0.012663,0.999872,-0.004970,-0.000284,0.015221,0.321634,-0.702251,-0.327144,-0.544401
42249,NaN,11.303188,2.803592,1.843597,5.586017,0.928200,0.528552,-3.416443,0.353436,2.891677,-0.925781,0.400391,0.436523,0.112640,0.029973,0.017736,0.999748,-0.017081,0.001767,0.014457,0.318039,-0.711332,-0.307025,-0.546437
42250,NaN,20.545034,7.517321,-1.966862,9.271377,-4.593113,9.562257,-3.645636,-0.107702,2.968897,-0.921875,0.413086,0.445068,0.204319,0.077838,-0.020961,0.999724,-0.018227,-0.000538,0.014843,0.312990,-0.722021,-0.285898,-0.546795
42251,NaN,19.072431,8.776455,1.600430,12.229892,-3.350199,6.995508,-2.848341,0.325427,2.546909,-0.922119,0.419678,0.453369,0.189609,0.090397,0.014420,0.999816,-0.014241,0.001627,0.012734,0.310111,-0.729093,-0.268337,-0.547951
42252,NaN,12.712001,-1.349200,-5.307529,-1.019078,-2.472647,3.767811,-2.445470,0.151741,2.429690,-0.907471,0.430176,0.464111,0.127236,-0.012595,-0.053014,0.999851,-0.012227,0.000759,0.012148,0.308051,-0.735793,-0.251895,-0.547962
42253,NaN,12.301594,3.046339,-4.736064,2.469701,-5.199585,2.430752,-2.061984,-0.269431,2.188742,-0.910156,0.440918,0.479004,0.122740,0.031318,-0.047515,0.999886,-0.010310,-0.001347,0.010943,0.306121,-0.742374,-0.238561,-0.546131
42254,NaN,10.618183,0.212284,-5.149986,-0.140928,-3.664110,1.406314,-1.446703,-0.298942,2.005192,-0.897705,0.453857,0.483154,0.106233,0.002816,-0.051360,0.999922,-0.007233,-0.001495,0.010026,0.305892,-0.747889,-0.227060,-0.543631
42255,NaN,12.225439,-3.570215,-3.281072,-0.776273,0.275664,3.313283,-1.164703,-0.329868,1.737190,-0.895752,0.455811,0.498047,0.122613,-0.034828,-0.032404,0.999944,-0.005823,-0.001649,0.008686,0.305901,-0.752492,-0.217870,-0.541030
42256,NaN,11.220275,-1.698921,-3.233213,0.340024,-1.116342,1.929137,-0.425694,-0.252841,1.535302,-0.883057,0.464355,0.500000,0.112370,-0.016196,-0.032155,0.999967,-0.002128,-0.001264,0.007676,0.308218,-0.755614,-0.210806,-0.538155
42257,NaN,6.017870,1.378429,-2.702877,1.074144,-2.964229,-3.856221,-0.526575,-0.420528,1.390279,-0.878906,0.470703,0.510742,0.060138,0.014131,-0.026939,0.999970,-0.002633,-0.002103,0.006951,0.309551,-0.758993,-0.204758,-0.534959
42258,NaN,23.283103,0.035413,-5.874368,4.172340,-4.607657,13.381348,-0.766148,-0.759625,1.468388,-0.874756,0.475098,0.521484,0.233042,0.001842,-0.057864,0.999958,-0.003831,-0.003798,0.007342,0.309835,-0.763808,-0.197825,-0.530532
42259,NaN,59.218832,11.551938,6.628274,33.436970,-5.835903,40.506857,-1.557378,-0.491426,1.683151,-0.855957,0.485596,0.544922,0.591022,0.121015,0.066808,0.999931,-0.007787,-0.002457,0.008416,0.307879,-0.769130,-0.187993,-0.527549
42260,NaN,4.686882,-1.685697,0.479198,1.097798,1.370907,-5.127350,0.091843,-0.750122,2.280496,-0.837402,0.507080,0.555420,0.047039,-0.016324,0.004961,0.999928,0.000459,-0.003751,0.011402,0.313558,-0.773105,-0.180244,-0.521058
42261,NaN,6.996391,-13.204954,-1.891928,-6.445812,8.098069,1.130978,0.067297,-0.839278,2.029823,-0.824951,0.521973,0.561768,0.071378,-0.131324,-0.018666,0.999940,0.000336,-0.004196,0.010149,0.318365,-0.776962,-0.173856,-0.514537
42262,NaN,8.475362,-3.948941,-1.788476,-0.031627,1.142356,-0.362050,0.993128,-0.590871,2.124496,-0.806641,0.547607,0.563477,0.085219,-0.038497,-0.017826,0.999927,0.004966,-0.002954,0.010622,0.327195,-0.778740,-0.168662,-0.507997
42263,NaN,4.405964,-1.052988,-7.766308,-3.961167,-4.885612,-3.388205,1.057035,-0.664293,1.950081,-0.790039,0.566895,0.569824,0.044415,-0.009688,-0.077569,0.999933,0.005285,-0.003321,0.009750,0.335715,-0.780283,-0.164806,-0.501292
42264,NaN,4.374275,-6.720082,-9.773822,-8.546240,-2.293992,-0.783993,0.491378,-0.536711,1.656018,-0.773193,0.581787,0.567383,0.044558,-0.066594,-0.097783,0.999959,0.002457,-0.002684,0.008280,0.341377,-0.782183,-0.160075,-0.496012
42265,NaN,6.865405,-9.199866,-6.207936,-6.367037,1.586617,1.467776,1.131825,-0.396640,1.318518,-0.771484,0.594727,0.562988,0.069381,-0.091190,-0.062460,0.999960,0.005659,-0.001983,0.006593,0.348775,-0.782251,-0.158372,-0.491281
42266,NaN,9.723196,-3.136678,-1.458400,1.779120,0.212100,0.350693,1.309228,-0.288902,1.185956,-0.754883,0.609619,0.567139,0.097436,-0.030694,-0.014646,0.999960,0.006546,-0.001444,0.005930,0.356627,-0.781650,-0.157045,-0.487009
42267,NaN,12.161338,-4.131400,-0.270723,3.219125,1.394063,2.545789,0.878048,-0.275522,1.123448,-0.751221,0.624756,0.569092,0.121847,-0.040618,-0.002719,0.999974,0.004390,-0.001378,0.005617,0.362602,-0.781609,-0.155255,-0.483222
42268,NaN,12.331439,-5.925946,-1.301535,1.692066,1.754221,3.712564,0.550227,-0.182618,1.186085,-0.738525,0.633301,0.566895,0.123675,-0.058491,-0.013064,0.999978,0.002751,-0.000913,0.005930,0.367529,-0.782006,-0.151878,-0.479920
42269,NaN,16.268762,-6.148109,-2.212080,3.061971,0.645775,7.437460,0.485016,-0.060031,1.321693,-0.730225,0.645996,0.564697,0.163096,-0.060350,-0.022219,0.999975,0.002425,-0.000300,0.006608,0.372575,-0.782234,-0.147955,-0.476872
42270,NaN,24.009867,-3.208737,-1.754263,9.167301,-2.225429,12.566810,0.509733,0.024017,1.608670,-0.713623,0.656738,0.564453,0.240344,-0.030110,-0.017650,0.999964,0.002549,0.000120,0.008043,0.378468,-0.782424,-0.142428,-0.473591
42271,NaN,28.368638,1.149361,-3.251315,13.270213,-7.176240,14.457576,0.734985,-0.012300,1.995333,-0.692627,0.678223,0.560059,0.283554,0.014442,-0.032446,0.999943,0.003675,-0.000061,0.009976,0.386071,-0.782430,-0.136352,-0.469213
42272,NaN,29.260002,3.161903,-5.624454,13.791121,-10.798184,14.496524,0.912313,-0.194501,2.345548,-0.674072,0.701660,0.549072,0.292255,0.035303,-0.055805,0.999920,0.004561,-0.000972,0.011727,0.395029,-0.782659,-0.129375,-0.463313
42273,NaN,29.005575,2.350921,-6.138543,13.364573,-11.028410,14.358256,1.266810,-0.389755,2.607553,-0.646973,0.720947,0.548828,0.289832,0.027675,-0.060654,0.999893,0.006334,-0.001949,0.013037,0.405764,-0.782653,-0.122835,-0.455763
42274,NaN,28.098055,2.176140,-5.569761,13.659510,-10.762483,13.051715,1.587321,-0.440519,2.760519,-0.615234,0.742432,0.538086,0.280762,0.026076,-0.054883,0.999871,0.007936,-0.002203,0.013802,0.417979,-0.781999,-0.116398,-0.447463
42275,NaN,25.655200,3.570183,-3.920272,14.557012,-10.293957,9.380447,1.991381,-0.393639,2.788010,-0.586182,0.774414,0.516357,0.256094,0.039659,-0.038317,0.999851,0.009956,-0.001968,0.013939,0.431743,-0.780214,-0.110731,-0.438866
42276,NaN,21.852014,6.049400,-3.049918,14.628992,-10.599709,4.223205,2.056217,-0.356151,2.675933,-0.550049,0.789551,0.505615,0.217735,0.063717,-0.029467,0.999856,0.010281,-0.001781,0.013379,0.445394,-0.777872,-0.105599,-0.430567
42277,NaN,16.725458,9.649377,-2.335717,14.219642,-11.115148,-2.564669,1.896102,-0.391720,2.562906,-0.527344,0.812988,0.486084,0.166042,0.098840,-0.022101,0.999871,0.009480,-0.001959,0.012814,0.458053,-0.775734,-0.100544,-0.422273
42278,NaN,10.708893,11.280662,-2.940522,11.227103,-11.070600,-8.413971,1.918038,-0.556805,2.204207,-0.497803,0.832275,0.479492,0.105914,0.114251,-0.028018,0.999889,0.009590,-0.002784,0.011021,0.469813,-0.773474,-0.097522,-0.414128
42279,NaN,4.961092,10.797142,-3.522977,7.116915,-9.773281,-12.537523,2.036129,-0.596652,1.799476,-0.479004,0.847168,0.466553,0.048737,0.108763,-0.033979,0.999903,0.010180,-0.002983,0.008997,0.481107,-0.770718,-0.096143,-0.406554
42280,NaN,-2.945857,8.216323,-0.596475,2.195168,-3.985579,-17.285111,1.291308,-0.651611,0.939502,-0.466064,0.849365,0.460205,-0.029826,0.082060,-0.005531,0.999963,0.006456,-0.003258,0.004697,0.487641,-0.769300,-0.097069,-0.401201
42281,NaN,-7.128055,5.229002,1.576177,-1.075865,0.407703,-18.718407,1.058261,-0.701811,0.567182,-0.457520,0.855957,0.451416,-0.071484,0.052004,0.015787,0.999976,0.005291,-0.003509,0.002836,0.492526,-0.768372,-0.098691,-0.396588
42282,NaN,-11.310620,0.532172,2.759731,-5.862235,4.715314,-18.713747,1.201531,-0.740103,-0.039228,-0.455566,0.857910,0.442871,-0.113206,0.005180,0.027210,0.999975,0.006008,-0.003700,-0.000196,0.496660,-0.766788,-0.103416,-0.393281
42283,NaN,-12.596399,-1.797190,0.543074,-9.172895,4.191510,-17.589694,1.555434,-0.813920,-0.313208,-0.451172,0.860107,0.432129,-0.126012,-0.017813,0.004779,0.999960,0.007777,-0.004070,-0.001566,0.501596,-0.764322,-0.109665,-0.390111
42284,NaN,-8.367957,7.354506,0.818980,-1.068112,-0.912300,-20.894590,1.305082,-0.743524,-0.707512,-0.457520,0.858154,0.423584,-0.083450,0.073786,0.008360,0.999966,0.006525,-0.003718,-0.003538,0.504758,-0.762040,-0.117066,-0.388343
42285,NaN,-5.125947,12.624197,-0.474629,3.610771,-5.198351,-21.887770,0.166425,-0.679905,-1.323056,-0.466309,0.855957,0.434326,-0.050407,0.126581,-0.004813,0.999972,0.000832,-0.003399,-0.006615,0.502440,-0.762133,-0.124115,-0.388976
42286,NaN,-2.745695,11.124816,0.752974,5.051722,-4.029798,-19.304978,-0.536971,-0.564682,-1.965334,-0.480469,0.834473,0.443115,-0.026382,0.111530,0.007155,0.999944,-0.002685,-0.002823,-0.009826,0.496166,-0.763272,-0.132292,-0.392090
42287,NaN,-2.555685,3.217412,1.405293,0.915925,0.129332,-14.055502,-0.681924,-0.442556,-2.487950,-0.497070,0.817383,0.449707,-0.025184,0.032536,0.013886,0.999914,-0.003410,-0.002213,-0.012439,0.488380,-0.764110,-0.141510,-0.396983
42288,NaN,-3.873130,-1.150668,0.033167,-3.155113,1.217177,-12.023763,-0.380359,-0.374932,-2.901747,-0.522461,0.800293,0.454102,-0.038893,-0.010943,0.000280,0.999891,-0.001902,-0.001875,-0.014508,0.480815,-0.763588,-0.153084,-0.402884
42289,NaN,-4.492144,-1.651278,-1.520467,-4.532752,0.155126,-11.968109,0.191036,-0.331536,-3.314946,-0.545410,0.778809,0.452148,-0.045161,-0.015751,-0.015295,0.999861,0.000955,-0.001658,-0.016574,0.474575,-0.761144,-0.166874,-0.409379
42290,NaN,-3.888194,-1.616535,-1.886205,-4.253276,-0.348126,-11.566272,0.933756,-0.261515,-3.635524,-0.574707,0.761719,0.445801,-0.039141,-0.015367,-0.018986,0.999823,0.004669,-0.001307,-0.018177,0.470355,-0.756236,-0.183526,-0.416163
42291,NaN,-3.916866,-1.201559,-1.329334,-3.668675,-0.163376,-12.063085,1.342685,-0.244282,-3.828629,-0.595459,0.740479,0.439697,-0.039372,-0.011173,-0.013418,0.999793,0.006713,-0.001221,-0.019142,0.467174,-0.749909,-0.201307,-0.422918
42292,NaN,-2.561112,-1.806275,-0.503355,-2.908861,0.633130,-10.913349,1.153815,-0.409282,-4.057285,-0.633789,0.723389,0.435303,-0.025960,-0.017509,-0.005189,0.999776,0.005769,-0.002046,-0.020285,0.462378,-0.743768,-0.220167,-0.429584
42293,NaN,-0.153698,-3.338702,-0.315402,-2.679961,1.309094,-8.272447,0.968514,-0.503659,-4.294724,-0.660645,0.697754,0.424805,-0.002245,-0.033328,-0.003321,0.999755,0.004842,-0.002518,-0.021472,0.456118,-0.737694,-0.239303,-0.436461
42294,NaN,1.982365,-4.362952,-0.496825,-2.576638,1.527797,-6.039753,1.021279,-0.489479,-4.425578,-0.681152,0.665527,0.425293,0.018865,-0.044028,-0.005145,0.999739,0.005106,-0.002447,-0.022126,0.449501,-0.730883,-0.259178,-0.443381
42295,NaN,4.139881,-5.718593,-0.280678,-2.748338,2.330693,-3.736039,1.254235,-0.553766,-4.533638,-0.716797,0.639893,0.414795,0.040097,-0.058086,-0.003057,0.999720,0.006271,-0.002769,-0.022666,0.443221,-0.723206,-0.279673,-0.449789
42296,NaN,7.231911,-7.451434,0.527699,-2.823292,3.918363,-0.606226,1.546868,-0.774025,-4.526349,-0.739502,0.612305,0.412842,0.070588,-0.076164,0.004968,0.999707,0.007734,-0.003870,-0.022630,0.437406,-0.714913,-0.301384,-0.454691
42297,NaN,9.390359,-7.673688,2.514227,-1.856681,5.984403,0.868935,1.807694,-0.954152,-4.371196,-0.762207,0.588623,0.411133,0.092074,-0.078988,0.024877,0.999709,0.009038,-0.004770,-0.021854,0.432397,-0.706329,-0.323095,-0.457975
42298,NaN,10.623873,-7.706197,3.201717,-1.726517,6.850221,1.701021,1.588321,-1.122850,-4.192880,-0.769775,0.558594,0.407227,0.104409,-0.079518,0.031982,0.999733,0.007941,-0.005614,-0.020963,0.426464,-0.698442,-0.344049,-0.460368
42299,NaN,13.778598,-11.252164,2.849875,-4.500197,8.399595,5.475459,1.552698,-1.224316,-4.052967,-0.790527,0.530762,0.409668,0.135291,-0.115501,0.028443,0.999746,0.007763,-0.006121,-0.020263,0.420375,-0.690797,-0.364277,-0.461938
42300,NaN,15.776528,-12.841038,3.714105,-5.744740,10.208593,7.225694,1.406330,-1.165818,-3.900624,-0.806885,0.509521,0.409912,0.155001,-0.131713,0.037132,0.999768,0.007031,-0.005829,-0.019502,0.413998,-0.683217,-0.383443,-0.463455
42301,NaN,15.003327,-14.010544,3.216422,-7.883486,10.260693,6.443176,0.619240,-1.202054,-3.776812,-0.822998,0.477295,0.416748,0.147156,-0.143003,0.032615,0.999799,0.003096,-0.006010,-0.018883,0.405007,-0.677341,-0.400170,-0.465878
42302,NaN,16.520372,-16.333100,2.712002,-10.424825,11.096155,7.940893,-0.022595,-1.088998,-3.369233,-0.830811,0.451660,0.425537,0.162270,-0.166078,0.028028,0.999843,-0.000113,-0.005445,-0.016845,0.394855,-0.673057,-0.413631,-0.469034
42303,NaN,17.193462,-13.625082,2.696241,-8.302363,10.543112,7.748715,-0.611016,-0.795514,-2.924400,-0.840576,0.421631,0.430176,0.169809,-0.138660,0.028062,0.999881,-0.003055,-0.003977,-0.014621,0.384281,-0.670000,-0.423541,-0.473330
42304,NaN,19.456881,-12.619465,2.968547,-7.288146,11.192646,9.376101,-1.061414,-0.440154,-2.550802,-0.843750,0.393799,0.443604,0.192873,-0.128500,0.030789,0.999902,-0.005307,-0.002201,-0.012754,0.373760,-0.667642,-0.430213,-0.479035
42305,NaN,18.508340,-11.536554,3.824382,-6.545815,11.648998,7.842615,-1.361949,-0.106403,-2.287968,-0.855957,0.367920,0.441650,0.183729,-0.117208,0.039136,0.999911,-0.006810,-0.000532,-0.011440,0.363505,-0.665461,-0.434731,-0.485835
42306,NaN,16.459894,-11.575492,2.773471,-7.518496,10.459778,5.892857,-1.652731,0.202577,-2.032231,-0.861328,0.337891,0.448486,0.163442,-0.117186,0.028533,0.999914,-0.008263,0.001013,-0.010161,0.353538,-0.663570,-0.436785,-0.493867
42307,NaN,15.497160,-13.823651,0.052690,-10.906152,8.811867,5.505662,-1.700055,0.407503,-1.726677,-0.866943,0.318848,0.446777,0.153773,-0.139558,0.001395,0.999925,-0.008500,0.002037,-0.008633,0.344531,-0.661748,-0.437544,-0.501939
42308,NaN,14.919386,-13.578514,-3.564401,-12.246659,5.525857,5.651628,-1.581378,0.570555,-1.142268,-0.870605,0.295166,0.447021,0.148314,-0.136912,-0.034988,0.999948,-0.007907,0.002853,-0.005711,0.337744,-0.660628,-0.435955,-0.509355
42309,NaN,14.993376,-10.180352,-4.576136,-9.658912,3.457068,5.812020,-1.779864,0.609306,-0.718287,-0.880859,0.284424,0.449219,0.149427,-0.102745,-0.045306,0.999949,-0.008899,0.003046,-0.003591,0.331382,-0.660483,-0.432726,-0.516427
42310,NaN,14.680695,-8.171113,-4.434070,-7.917592,2.814427,5.397143,-2.010764,0.620851,-0.420415,-0.882568,0.269531,0.445068,0.146497,-0.082463,-0.043969,0.999942,-0.010054,0.003104,-0.002102,0.325085,-0.661429,-0.427413,-0.523593
42311,NaN,12.762489,-7.683869,-3.791852,-7.459918,2.849135,3.322444,-1.990916,0.554855,-0.183092,-0.884521,0.265137,0.445312,0.127450,-0.077330,-0.037504,0.999946,-0.009954,0.002774,-0.000915,0.319226,-0.662785,-0.421864,-0.529945
42312,NaN,11.615671,-8.040759,-3.708583,-7.864408,2.923778,2.142772,-1.630840,0.414029,0.067954,-0.888428,0.250244,0.447510,0.116108,-0.080668,-0.036669,0.999965,-0.008154,0.002070,0.000340,0.314984,-0.664604,-0.416148,-0.534703
42313,NaN,11.409443,-8.900793,-4.064151,-8.797557,3.036843,1.989731,-1.060375,0.317092,0.369449,-0.890625,0.254395,0.451660,0.114195,-0.089011,-0.040351,0.999983,-0.005302,0.001585,0.001847,0.313139,-0.666183,-0.411561,-0.537365
42314,NaN,10.975885,-7.890166,-4.537760,-8.106564,2.085248,1.730751,-0.389184,0.270416,0.688032,-0.880127,0.258789,0.456055,0.109968,-0.078612,-0.045373,0.999991,-0.001946,0.001352,0.003440,0.314384,-0.667696,-0.407265,-0.538033
42315,NaN,9.793488,-5.852188,-5.886946,-6.971903,-0.307181,0.962933,-0.094010,0.207230,0.972182,-0.884521,0.260986,0.447510,0.098157,-0.058073,-0.058944,0.999988,-0.000470,0.001036,0.004861,0.317140,-0.669257,-0.403417,-0.537375
42316,NaN,9.068622,-3.209635,-6.245237,-4.783247,-2.065409,0.404842,0.134926,0.056227,1.255796,-0.882568,0.269531,0.455811,0.090868,-0.031484,-0.062499,0.999980,0.000675,0.000281,0.006279,0.321231,-0.671649,-0.398930,-0.535307
42317,NaN,7.650932,-1.085889,-5.147396,-2.451618,-2.459397,-1.201572,0.183731,-0.085290,1.444549,-0.878906,0.286621,0.453613,0.076607,-0.010259,-0.051451,0.999973,0.000919,-0.000426,0.007223,0.325573,-0.674444,-0.394678,-0.532313
42318,NaN,5.502681,-9.235853,-15.415086,-14.473405,-7.803580,-0.712085,0.065161,-0.772253,2.018769,-0.866699,0.303711,0.466064,0.056550,-0.091743,-0.153964,0.999942,0.000326,-0.003861,0.010094,0.329791,-0.680571,-0.388746,-0.526249
42319,NaN,18.063022,25.247606,10.967959,29.953156,0.412747,3.846551,0.283373,-0.031905,3.069131,-0.861084,0.327148,0.468018,0.176712,0.255052,0.110068,0.999881,0.001417,-0.000160,0.015345,0.338767,-0.686071,-0.379034,-0.520459
42320,NaN,8.256996,31.706127,8.340098,32.792172,-7.310879,-6.052132,-2.899677,0.215853,1.304456,-0.856201,0.312256,0.479004,0.080581,0.318755,0.078700,0.999873,-0.014498,0.001079,0.006522,0.332728,-0.692994,-0.366125,-0.524408
42321,NaN,13.747528,0.907153,-7.185717,-0.210663,-4.365008,5.098858,-4.269709,-0.081892,2.091932,-0.845703,0.316406,0.493896,0.137411,0.008973,-0.071993,0.999717,-0.021347,-0.000409,0.010459,0.323214,-0.703943,-0.347694,-0.528305
42322,NaN,20.985530,-2.981178,-10.037493,-3.384932,-3.489282,13.130604,-3.765064,-0.151992,2.394808,-0.836914,0.314209,0.506836,0.210283,-0.029176,-0.099662,0.999751,-0.018824,-0.000760,0.011973,0.316051,-0.714534,-0.329102,-0.530325
42323,NaN,12.151507,-8.920113,-1.471380,-5.134569,5.711229,3.241001,-2.954640,0.208339,2.165856,-0.834717,0.314209,0.506836,0.122459,-0.088084,-0.013534,0.999832,-0.014772,0.001042,0.010829,0.311566,-0.722091,-0.313124,-0.532414
42324,NaN,2.560008,-3.652934,-3.093533,-4.006733,0.146297,-6.153257,-1.803114,-0.067224,1.788818,-0.828613,0.318604,0.515381,0.025937,-0.036575,-0.030597,0.999919,-0.009015,-0.000336,0.008944,0.309801,-0.727945,-0.301551,-0.532152
42325,NaN,4.579731,1.274329,-14.368516,-6.380111,-11.344084,-2.088966,-1.656364,-0.159571,1.687357,-0.815918,0.326904,0.526123,0.045809,0.011939,-0.143750,0.999930,-0.008282,-0.000798,0.008437,0.308038,-0.733425,-0.291206,-0.531413
42326,NaN,45.091936,21.704054,-20.887161,16.105042,-25.601944,35.195302,-0.838770,-0.501615,2.249104,-0.810059,0.344238,0.528076,0.448971,0.221221,-0.208666,0.999925,-0.004194,-0.002508,0.011245,0.310301,-0.739399,-0.281132,-0.527226
42327,NaN,62.568272,23.598770,30.218168,53.984010,12.472364,38.300260,1.055484,1.132142,2.407807,-0.804443,0.365479,0.521240,0.624496,0.241924,0.299911,0.999898,0.005277,0.005661,0.012039,0.322148,-0.738082,-0.273203,-0.526133
42328,NaN,-25.156346,-11.591771,1.722844,-15.205172,7.381955,-31.822961,-2.712375,-1.073353,2.562822,-0.781250,0.380615,0.538330,-0.250146,-0.118893,0.017482,0.999812,-0.013561,-0.005366,0.012813,0.317412,-0.748637,-0.258086,-0.521712
42329,NaN,9.019712,-13.504821,-7.312912,-11.103844,4.105637,3.493013,-1.441866,-0.804531,2.549848,-0.764160,0.386963,0.538330,0.092204,-0.134402,-0.071790,0.999885,-0.007209,-0.004022,0.012749,0.317630,-0.756222,-0.246004,-0.516450
42330,NaN,7.543241,-11.748382,-2.990368,-7.353693,6.082306,0.807452,-0.728932,-0.181086,2.242715,-0.760498,0.404053,0.551025,0.076771,-0.116736,-0.029408,0.999930,-0.003645,-0.000905,0.011213,0.320504,-0.760592,-0.235628,-0.513085
42331,NaN,8.302792,-3.510348,-2.333033,-0.783927,0.919607,-0.580195,-0.965116,-0.453757,2.046008,-0.750244,0.416748,0.552979,0.083434,-0.034363,-0.022974,0.999933,-0.004825,-0.002269,0.010230,0.321565,-0.765657,-0.226057,-0.509180
42332,NaN,9.272611,-7.874383,-2.535668,-3.284319,3.759831,1.566650,-0.485775,-0.525808,1.759668,-0.735596,0.427490,0.552734,0.093480,-0.077984,-0.024922,0.999955,-0.002429,-0.002629,0.008798,0.323671,-0.769775,-0.218597,-0.504875
42333,NaN,9.685861,-4.661656,-4.491925,-2.043080,0.048831,1.656594,0.426995,-0.386419,1.630130,-0.731934,0.442383,0.559082,0.097320,-0.045729,-0.044830,0.999963,0.002135,-0.001932,0.008151,0.329033,-0.771806,-0.213992,-0.500261
42334,NaN,8.776197,-3.606411,-4.375262,-1.492242,-0.711432,0.504065,0.645218,-0.284721,1.488442,-0.715088,0.453125,0.554688,0.088089,-0.035268,-0.043742,0.999966,0.003226,-0.001424,0.007442,0.335032,-0.773068,-0.209981,-0.496012
42335,NaN,7.842495,-6.138987,-2.687246,-2.369223,2.171160,-0.010421,0.226097,-0.228644,1.303195,-0.708984,0.463867,0.554688,0.078853,-0.060847,-0.026851,0.999977,0.001130,-0.001143,0.006516,0.338928,-0.774600,-0.205856,-0.492692
42336,NaN,9.442585,-5.592662,-1.926563,-0.736889,2.250613,1.075024,0.066356,-0.149363,1.158418,-0.707031,0.474609,0.556641,0.094762,-0.055372,-0.019213,0.999983,0.000332,-0.000747,0.005792,0.341985,-0.776080,-0.201435,-0.490071
42337,NaN,8.826950,-1.766949,-2.952936,0.924551,-1.165851,-0.456286,-0.127237,-0.115080,1.066071,-0.698730,0.483154,0.560791,0.088379,-0.017217,-0.029467,0.999985,-0.000636,-0.000575,0.005330,0.344021,-0.777635,-0.197152,-0.487919
42338,NaN,8.813335,-3.429716,-3.293043,-0.279480,-0.326240,0.192146,-0.252743,-0.116680,1.029776,-0.690186,0.483154,0.558594,0.088328,-0.033884,-0.032836,0.999986,-0.001264,-0.000583,0.005149,0.345538,-0.779398,-0.192383,-0.485934
42339,NaN,8.948626,-5.929856,-2.942378,-1.502909,1.592817,1.100698,-0.051702,-0.103213,0.957608,-0.692627,0.491699,0.560791,0.089784,-0.058877,-0.029362,0.999988,-0.000259,-0.000516,0.004788,0.347597,-0.780642,-0.188674,-0.483917
42340,NaN,8.825196,-5.250126,-2.063229,-0.498570,1.709895,0.508738,0.128415,-0.064316,0.855933,-0.677734,0.498047,0.558594,0.088482,-0.052110,-0.020637,0.999991,0.000642,-0.000322,0.004280,0.350215,-0.781413,-0.185404,-0.482047
42341,NaN,8.993403,-3.968494,-1.955908,0.519122,0.848919,0.160533,0.095837,-0.133317,0.778006,-0.673828,0.506592,0.558350,0.090100,-0.039325,-0.019518,0.999992,0.000479,-0.000667,0.003890,0.352377,-0.782273,-0.182799,-0.480067
42342,NaN,9.226388,-3.821366,-2.462593,0.474882,0.315710,0.457059,0.188430,-0.141488,0.758728,-0.665527,0.513184,0.569092,0.092425,-0.037840,-0.024596,0.999992,0.000942,-0.000707,0.003794,0.354915,-0.783000,-0.180177,-0.477998
42343,NaN,9.342546,-3.689189,-2.649365,0.562445,0.031692,0.560088,0.245381,-0.137488,0.756137,-0.665527,0.515137,0.560547,0.093582,-0.036506,-0.026474,0.999992,0.001227,-0.000687,0.003781,0.357594,-0.783560,-0.178016,-0.475889
42344,NaN,8.767563,-3.784022,-2.489906,0.390143,0.187869,0.046345,0.332815,-0.083699,0.786633,-0.661621,0.523682,0.562500,0.087834,-0.037453,-0.024925,0.999991,0.001664,-0.000418,0.003933,0.360805,-0.783884,-0.175526,-0.473853
42345,NaN,8.653652,-3.074236,-2.551437,0.795926,-0.390632,-0.322707,0.339678,-0.084802,0.842428,-0.657715,0.534424,0.562256,0.086676,-0.030334,-0.025529,0.999990,0.001698,-0.000424,0.004212,0.364092,-0.784195,-0.173150,-0.471694
42346,NaN,8.332232,-2.498435,-2.612612,1.020297,-0.859950,-0.828651,0.161544,-0.152107,0.896229,-0.645020,0.541016,0.558105,0.083453,-0.024589,-0.026083,0.999989,0.000808,-0.000761,0.004481,0.366816,-0.785048,-0.169952,-0.469322
42347,NaN,8.849796,-3.429080,-2.920858,0.598050,-0.548312,0.084273,0.018863,-0.232341,0.951729,-0.647217,0.545166,0.555908,0.088694,-0.033866,-0.029109,0.999988,0.000094,-0.001162,0.004759,0.368960,-0.786349,-0.166654,-0.466638
42348,NaN,9.063794,-4.109021,-2.912659,0.390897,-0.157340,0.547886,0.093183,-0.246203,1.006890,-0.632568,0.553711,0.557861,0.090879,-0.040620,-0.029034,0.999986,0.000466,-0.001231,0.005034,0.371576,-0.787595,-0.163038,-0.463729
42349,NaN,9.002832,-2.975439,-2.547664,1.356825,-0.698692,-0.113993,0.154501,-0.284729,1.064937,-0.624268,0.564453,0.564209,0.090221,-0.029255,-0.025371,0.999985,0.000773,-0.001424,0.005325,0.374454,-0.788814,-0.159698,-0.460491
42350,NaN,9.438635,-3.102399,-3.777773,0.865898,-1.623917,0.656128,0.158369,-0.338939,1.119593,-0.615967,0.572998,0.559814,0.094622,-0.030465,-0.037642,0.999983,0.000792,-0.001695,0.005598,0.377490,-0.790187,-0.155963,-0.456925
42351,NaN,9.864176,-4.466656,-4.335137,0.064983,-1.238146,1.785045,0.308655,-0.333341,1.163746,-0.609863,0.581543,0.566162,0.098971,-0.044025,-0.043255,0.999980,0.001543,-0.001667,0.005819,0.381139,-0.791249,-0.152665,-0.453158
42352,NaN,10.270153,-3.933518,-4.226635,0.791203,-1.645544,1.826774,0.530468,-0.315756,1.229447,-0.597168,0.592285,0.559570,0.103007,-0.038591,-0.042207,0.999976,0.002652,-0.001579,0.006147,0.385881,-0.791878,-0.149304,-0.449148
42353,NaN,11.536489,-2.646822,-4.612166,2.147578,-3.023965,2.336749,0.673835,-0.313323,1.325954,-0.582764,0.609375,0.555176,0.115608,-0.025547,-0.046028,0.999971,0.003369,-0.001567,0.006630,0.391319,-0.792238,-0.146135,-0.444828
42354,NaN,13.343919,-1.384269,-5.960343,3.265699,-5.195041,3.523121,0.737165,-0.379134,1.460960,-0.572510,0.622314,0.552979,0.133647,-0.012648,-0.059398,0.999965,0.003686,-0.001896,0.007305,0.397300,-0.792678,-0.142455,-0.439910
42355,NaN,16.958569,-1.762555,-7.480696,4.462242,-6.704991,6.973640,0.888252,-0.487206,1.695626,-0.560303,0.641602,0.554932,0.169907,-0.015855,-0.074466,0.999951,0.004441,-0.002436,0.008478,0.404221,-0.793144,-0.138616,-0.433951
42356,NaN,21.419454,-2.282374,-4.391817,8.882252,-4.840133,9.705182,1.182480,-0.482437,2.096316,-0.536865,0.654297,0.546143,0.214522,-0.020318,-0.043526,0.999925,0.005912,-0.002412,0.010481,0.413180,-0.793187,-0.133627,-0.426943
42357,NaN,21.944897,0.083848,-3.236562,11.576213,-5.770810,8.207302,1.402079,-0.527209,2.469643,-0.514160,0.682129,0.532959,0.219499,0.003773,-0.031767,0.999896,0.007010,-0.002636,0.012348,0.423654,-0.792972,-0.127867,-0.418763
42358,NaN,23.368808,-0.813514,-3.508860,12.256034,-5.966643,9.506173,1.471223,-0.615910,2.884378,-0.489258,0.707764,0.530762,0.233877,-0.004508,-0.034411,0.999864,0.007356,-0.003079,0.014421,0.435141,-0.792853,-0.120669,-0.409238
42359,NaN,24.871926,-0.628155,-3.863812,13.668766,-6.968399,10.149192,1.713433,-0.713247,3.242340,-0.458252,0.744141,0.519531,0.248910,-0.001921,-0.037780,0.999826,0.008567,-0.003566,0.016211,0.448097,-0.792390,-0.112818,-0.398245
42360,NaN,26.315529,0.866815,-3.589531,16.183377,-8.255282,9.578084,2.055441,-0.768906,3.574381,-0.420166,0.763428,0.504395,0.263075,0.013732,-0.034760,0.999780,0.010276,-0.003844,0.017871,0.462868,-0.791108,-0.104411,-0.386005
42361,NaN,25.469198,3.654258,-2.838837,18.075901,-9.367631,6.171757,2.352607,-0.762164,3.857426,-0.382812,0.804199,0.486816,0.254024,0.041769,-0.026949,0.999738,0.011762,-0.003810,0.019285,0.479132,-0.788928,-0.095395,-0.372726
42362,NaN,22.532350,7.197561,-1.852940,18.817972,-10.024357,0.591553,2.478361,-0.716582,4.060970,-0.344727,0.823486,0.471924,0.223860,0.076747,-0.016794,0.999711,0.012391,-0.003583,0.020303,0.496006,-0.785969,-0.085775,-0.358988
42363,NaN,17.922892,9.023858,-1.814010,16.737590,-9.943944,-4.630636,2.261066,-0.762570,4.019596,-0.311279,0.855469,0.447998,0.177429,0.094009,-0.016413,0.999727,0.011304,-0.003813,0.020096,0.511676,-0.783226,-0.075870,-0.344948
42364,NaN,13.595241,10.162900,-2.378707,13.955868,-9.895935,-8.794892,1.695007,-0.815352,3.689241,-0.269043,0.874756,0.441406,0.134138,0.104308,-0.022361,0.999786,0.008474,-0.004076,0.018445,0.524234,-0.781460,-0.066643,-0.331748
42365,NaN,8.544878,14.279368,-3.831635,11.245386,-11.647118,-15.240003,0.613114,-0.576440,3.348256,-0.237061,0.887695,0.430664,0.083150,0.144315,-0.037634,0.999851,0.003065,-0.002882,0.016740,0.531944,-0.781794,-0.056041,-0.320458
42366,NaN,0.504090,4.045494,3.932696,3.828330,1.595758,-13.670411,1.391273,-0.456301,2.535301,-0.205078,0.898193,0.424316,0.004440,0.040239,0.039618,0.999893,0.006956,-0.002281,0.012676,0.540792,-0.779542,-0.049292,-0.312134
42367,NaN,-1.115587,0.063981,3.499995,0.619167,3.337641,-11.217981,1.419990,-1.007841,1.794581,-0.190674,0.913330,0.404785,-0.011336,0.000290,0.034946,0.999922,0.007100,-0.005039,0.008973,0.548866,-0.777642,-0.047198,-0.302970
42368,NaN,-5.525202,-5.143035,0.985197,-6.190206,4.266213,-8.618024,1.970469,-1.121677,1.005047,-0.171631,0.924072,0.389893,-0.055045,-0.051799,0.009034,0.999923,0.009852,-0.005608,0.005025,0.557396,-0.774166,-0.049217,-0.295894
42369,NaN,-2.925271,-1.385258,-0.779945,-3.281683,0.530929,-9.993664,2.729998,-0.966179,0.396773,-0.165527,0.938965,0.359619,-0.029187,-0.013801,-0.008129,0.999893,0.013650,-0.004831,0.001984,0.568281,-0.767988,-0.054371,-0.290336
42370,NaN,1.738402,12.387405,0.624885,6.872103,-4.043479,-19.470662,2.420809,-0.737291,-0.348732,-0.165771,0.945557,0.344482,0.017573,0.123755,0.007812,0.999918,0.012104,-0.003686,-0.001744,0.576595,-0.762050,-0.061320,-0.288197
42371,NaN,6.244453,19.647641,3.546089,14.944706,-4.560612,-23.721062,1.207491,-0.761428,-1.183564,-0.176758,0.951904,0.333496,0.063466,0.195883,0.036885,0.999957,0.006037,-0.003807,-0.005918,0.579260,-0.759257,-0.069725,-0.288316
42372,NaN,9.165224,15.046065,4.967954,16.026789,-2.286774,-18.354939,0.239746,-0.867128,-1.863148,-0.191650,0.952148,0.335693,0.092831,0.149539,0.050260,0.999946,0.001199,-0.004336,-0.009316,0.576812,-0.759189,-0.079586,-0.290836
42373,NaN,6.461646,7.516472,3.788734,10.073048,-0.292996,-13.136748,-0.389988,-0.888355,-2.312866,-0.215576,0.956299,0.337646,0.065312,0.074486,0.038031,0.999921,-0.001950,-0.004442,-0.011564,0.571597,-0.760613,-0.090318,-0.294258
42374,NaN,2.486068,3.634184,0.414103,3.902280,-1.320183,-11.421226,-0.685100,-0.954863,-2.875764,-0.232422,0.943604,0.348389,0.025360,0.035994,0.004138,0.999879,-0.003425,-0.004774,-0.014378,0.563660,-0.762754,-0.102583,-0.299951
42375,NaN,2.378350,2.197473,-1.668183,2.431449,-2.711915,-9.832096,-0.646067,-0.944844,-3.512306,-0.269043,0.943604,0.356934,0.024243,0.021498,-0.016638,0.999829,-0.003230,-0.004724,-0.017561,0.555375,-0.764049,-0.117619,-0.306518
42376,NaN,4.893149,2.168116,-1.719042,4.366737,-3.104377,-8.113131,-0.287573,-0.797949,-4.204969,-0.307129,0.928711,0.363281,0.049441,0.020621,-0.017024,0.999770,-0.001438,-0.003989,-0.021023,0.546460,-0.763684,-0.134851,-0.316202
42377,NaN,6.832820,1.224681,-0.581499,5.636184,-1.860569,-6.167483,0.220960,-0.607592,-4.860898,-0.358887,0.928711,0.358643,0.068616,0.010588,-0.005595,0.999699,0.001105,-0.003038,-0.024302,0.539073,-0.760524,-0.155346,-0.326911
42378,NaN,7.776183,-0.713341,1.028895,5.514567,0.400313,-4.204629,0.634543,-0.509791,-5.412874,-0.403320,0.909424,0.358887,0.077504,-0.009267,0.010460,0.999626,0.003172,-0.002549,-0.027061,0.531294,-0.755409,-0.177862,-0.339777
42379,NaN,8.735704,-1.488999,1.851413,5.632579,1.574818,-2.904161,0.733088,-0.524947,-5.827083,-0.463135,0.898926,0.350098,0.086824,-0.017493,0.018682,0.999565,0.003665,-0.002624,-0.029131,0.523495,-0.748836,-0.202399,-0.352465
42380,NaN,10.369530,-0.620604,2.449325,7.065941,1.953705,-2.058206,0.681214,-0.519028,-6.055678,-0.509766,0.875488,0.350098,0.103378,-0.009424,0.024733,0.999532,0.003406,-0.002595,-0.030274,0.513928,-0.741691,-0.227283,-0.366216
42381,NaN,12.309272,0.420385,2.819088,8.643752,2.146578,-0.853280,0.544338,-0.440041,-6.083342,-0.577637,0.847656,0.348145,0.123081,0.000382,0.028466,0.999531,0.002721,-0.002200,-0.030412,0.504097,-0.733832,-0.251830,-0.379418
42382,NaN,13.674326,0.134769,3.394565,8.806404,3.116222,0.732746,0.182763,-0.352818,-6.081349,-0.629883,0.809326,0.348389,0.136639,-0.002840,0.034185,0.999536,0.000914,-0.001764,-0.030402,0.492410,-0.725845,-0.275699,-0.393282
42383,NaN,15.007519,-2.351604,1.287357,6.216295,2.453054,3.886872,-0.503136,-0.458949,-6.269390,-0.682861,0.779297,0.365723,0.149211,-0.028170,0.013284,0.999503,-0.002515,-0.002294,-0.031342,0.477411,-0.718979,-0.298424,-0.407542
42384,NaN,18.014883,-4.994721,-0.192828,4.113487,2.624458,8.231434,-0.280161,-0.452121,-6.439980,-0.737061,0.732178,0.372559,0.178420,-0.055714,-0.001448,0.999478,-0.001401,-0.002260,-0.032194,0.462195,-0.710342,-0.322347,-0.421762
42385,NaN,17.980574,-3.132463,-0.452182,4.523711,2.180148,7.736794,-0.072703,-0.333770,-6.471128,-0.791504,0.685303,0.377197,0.178674,-0.037120,-0.004210,0.999475,-0.000363,-0.001669,-0.032350,0.447543,-0.700408,-0.345750,-0.435420
42386,NaN,17.822832,-1.580551,-0.885427,4.619152,1.682227,7.411004,-0.513883,-0.433142,-6.480966,-0.843262,0.627441,0.392822,0.177610,-0.021590,-0.008419,0.999469,-0.002569,-0.002165,-0.032399,0.430466,-0.690646,-0.368506,-0.449345
42387,NaN,20.253611,-3.972328,-2.497385,1.631342,1.880965,10.823815,-0.941208,-0.573164,-6.585316,-0.888428,0.565430,0.402100,0.201150,-0.046478,-0.024188,0.999443,-0.004705,-0.002865,-0.032920,0.411160,-0.681439,-0.390133,-0.463017
42388,NaN,21.797865,-5.955432,-3.278460,-1.353016,2.714761,12.814039,-0.796758,-0.596054,-6.600983,-0.918457,0.500977,0.422119,0.215949,-0.066833,-0.031882,0.999443,-0.003983,-0.002980,-0.032999,0.391572,-0.670890,-0.412148,-0.476143
42389,NaN,22.192075,-7.546786,-3.146400,-4.100844,4.078787,13.115048,-0.694379,-0.592416,-6.623346,-0.954834,0.428223,0.431641,0.219349,-0.082868,-0.030532,0.999441,-0.003471,-0.002962,-0.033111,0.372072,-0.659635,-0.433617,-0.488283
42390,NaN,22.516421,-8.848278,-3.200100,-6.725933,5.113327,13.076743,-0.471723,-0.526065,-6.519527,-0.976074,0.361816,0.445557,0.222203,-0.095833,-0.031194,0.999463,-0.002358,-0.002630,-0.032592,0.353052,-0.646988,-0.455017,-0.499720
42391,NaN,21.740324,-9.836498,-2.660386,-8.896302,6.221021,11.598576,-0.236464,-0.418633,-6.280507,-1.005859,0.291260,0.450684,0.214227,-0.105157,-0.026032,0.999504,-0.001182,-0.002093,-0.031397,0.335504,-0.633841,-0.475235,-0.509739
42392,NaN,21.266298,-9.785906,-3.107603,-10.264862,6.031607,10.577658,-0.054206,-0.319142,-5.972876,-1.012207,0.222656,0.455811,0.209664,-0.104159,-0.030712,0.999553,-0.000271,-0.001595,-0.029860,0.319003,-0.619967,-0.494573,-0.518918
42393,NaN,20.291704,-9.884552,-3.617847,-11.602402,5.566530,9.076825,0.278857,-0.148133,-5.601700,-1.023193,0.164795,0.463135,0.200071,-0.104426,-0.036173,0.999607,0.001394,-0.000741,-0.028005,0.304878,-0.605810,-0.512684,-0.526497
42394,NaN,19.101648,-8.852579,-3.324658,-11.412583,5.313868,7.383611,0.471592,-0.030589,-5.206014,-1.023438,0.113281,0.461670,0.188633,-0.093378,-0.033434,0.999658,0.002358,-0.000153,-0.026027,0.292240,-0.591354,-0.529712,-0.533199
42395,NaN,18.016165,-9.994331,-3.049925,-13.061651,5.595182,5.411601,0.444599,-0.079087,-4.791380,-1.032471,0.061768,0.466797,0.177712,-0.104153,-0.030657,0.999710,0.002223,-0.000395,-0.023955,0.280524,-0.578053,-0.545010,-0.538632
42396,NaN,17.168284,-11.255410,-2.009623,-14.432710,6.585073,3.368464,0.515549,-0.116913,-4.304459,-1.022461,0.020996,0.469482,0.169220,-0.116162,-0.020293,0.999765,0.002578,-0.000585,-0.021521,0.269884,-0.565561,-0.558951,-0.543025
42397,NaN,16.471660,-12.782761,-0.274472,-15.686773,8.234240,1.181012,0.468554,-0.074250,-3.746990,-1.020996,-0.017578,0.468018,0.162285,-0.130877,-0.002988,0.999822,0.002343,-0.000371,-0.018734,0.260817,-0.554557,-0.570806,-0.546463
42398,NaN,12.656081,-14.178845,-0.322943,-16.388124,7.092301,-3.299500,-0.069103,-0.036295,-3.014426,-1.015625,-0.053955,0.472900,0.124405,-0.143675,-0.003157,0.999886,-0.000346,-0.000181,-0.015072,0.252144,-0.545928,-0.578952,-0.550637
42399,NaN,9.514225,-19.345033,-2.667766,-21.077676,4.864938,-7.834008,-0.620788,-0.064027,-1.954094,-1.021484,-0.066895,0.479492,0.093254,-0.194449,-0.026045,0.999947,-0.003104,-0.000320,-0.009770,0.244907,-0.541201,-0.582615,-0.554691
42400,NaN,10.059670,-24.146826,-3.172822,-25.742275,5.610389,-9.379165,-0.439235,-0.051552,-0.684071,-1.012695,-0.073242,0.475342,0.099778,-0.241879,-0.031172,0.999992,-0.002196,-0.000258,-0.003420,0.241614,-0.539810,-0.583227,-0.556843
42401,NaN,9.482284,-20.888621,-2.030633,-22.261376,5.839264,-8.973283,-0.157953,-0.003218,0.507638,-1.017090,-0.073242,0.473145,0.095353,-0.208661,-0.020140,0.999996,-0.000790,-0.000016,0.002538,0.242627,-0.541486,-0.581407,-0.556678
42402,NaN,8.707391,-17.759655,-2.032810,-19.182405,5.000259,-8.269313,-0.230832,-0.014596,1.464701,-1.013428,-0.051758,0.477051,0.088373,-0.176976,-0.020117,0.999973,-0.001154,-0.000073,0.007323,0.246049,-0.546070,-0.576644,-0.555651
42403,NaN,8.876604,-18.283368,-2.795660,-19.888556,4.597121,-7.766673,-0.178107,-0.004329,2.227355,-1.016357,-0.030273,0.476807,0.090796,-0.181855,-0.027792,0.999938,-0.000891,-0.000022,0.011137,0.251760,-0.552687,-0.570025,-0.553376
42404,NaN,8.584230,-17.583006,-3.393193,-19.282108,3.926658,-7.144126,-0.025261,-0.001989,2.817483,-1.008789,-0.002441,0.476562,0.088308,-0.174602,-0.033909,0.999901,-0.000126,-0.000010,0.014087,0.259535,-0.560790,-0.561893,-0.549939
42405,NaN,10.376058,-9.451776,-6.758425,-13.184709,-0.335239,-1.523614,-0.031435,-0.128305,3.213027,-1.016113,0.027588,0.480225,0.105304,-0.092845,-0.067502,0.999871,-0.000157,-0.000641,0.016064,0.267925,-0.570135,-0.552878,-0.545425
42406,NaN,5.704516,13.270081,-17.142453,5.588417,-16.948895,3.751874,0.102521,-0.498364,2.515995,-1.006348,0.053223,0.490723,0.055796,0.133496,-0.171216,0.999918,0.000513,-0.002492,0.012580,0.273808,-0.578405,-0.546342,-0.540359
42407,NaN,19.040384,67.783715,-9.084731,56.943566,-18.298143,28.423963,2.415954,-0.518485,0.516704,-1.009033,0.063965,0.492676,0.188870,0.679354,-0.082156,0.999920,0.012079,-0.002592,0.002583,0.280790,-0.577861,-0.552026,-0.531508
42408,NaN,25.051179,17.738338,24.607956,19.538395,27.068367,11.002429,2.464922,-0.176616,0.126124,-1.000732,0.078857,0.490234,0.250182,0.174489,0.248463,0.999923,0.012324,-0.000883,0.000631,0.287773,-0.575178,-0.558332,-0.524044
42409,NaN,18.548934,-28.878091,2.339585,-29.554459,14.862650,-0.376909,-1.485502,-0.584239,2.413381,-0.995117,0.095947,0.498535,0.188881,-0.286328,0.026077,0.999895,-0.007427,-0.002921,0.012066,0.288200,-0.585521,-0.548266,-0.522982
42410,NaN,21.595611,-14.981812,-9.069794,-19.733058,2.678767,9.589858,-0.756696,-0.363116,3.225634,-0.989746,0.130127,0.502441,0.218502,-0.146648,-0.089744,0.999861,-0.003783,-0.001815,0.016127,0.293452,-0.596368,-0.537062,-0.519418
42411,NaN,12.350252,5.613324,-5.123107,2.494084,-1.981952,4.333771,-0.168455,-0.174287,3.048266,-0.979736,0.151611,0.508545,0.122673,0.057964,-0.051172,0.999883,-0.000842,-0.000871,0.015241,0.300400,-0.605181,-0.527713,-0.514816
42412,NaN,1.226852,1.097821,-6.407058,-1.054896,-5.691648,-6.610677,-1.237585,-0.448122,2.196400,-0.973633,0.162354,0.519043,0.012293,0.010716,-0.064110,0.999918,-0.006188,-0.002241,0.010982,0.301197,-0.614007,-0.518262,-0.513499
42413,NaN,7.929374,-8.355818,-7.362286,-10.708199,-1.577661,-1.461925,-1.648423,-0.730628,2.209251,-0.967529,0.173096,0.527588,0.080481,-0.083275,-0.072643,0.999898,-0.008242,-0.003653,0.011046,0.299922,-0.624024,-0.508278,-0.512147
42414,NaN,12.203704,-12.364047,-6.722052,-14.258200,1.866298,2.027424,-1.183401,-0.871329,2.295678,-0.955322,0.192139,0.533691,0.123738,-0.122619,-0.065956,0.999907,-0.005917,-0.004357,0.011478,0.299975,-0.633883,-0.499107,-0.509019
42415,NaN,14.893485,-9.166247,-3.539072,-9.876554,4.694266,4.285561,0.135157,-0.590918,2.531235,-0.949951,0.220215,0.539795,0.150183,-0.089743,-0.035009,0.999915,0.000676,-0.002955,0.012656,0.305382,-0.641443,-0.492255,-0.502969
42416,NaN,8.083223,-3.162340,0.249396,-2.720162,3.860578,-2.526073,0.869602,-0.269774,2.208271,-0.940186,0.250000,0.543701,0.081172,-0.030739,0.002468,0.999929,0.004348,-0.001349,0.011041,0.313184,-0.646294,-0.487452,-0.496600
42417,NaN,7.430915,-3.361895,-2.262369,-3.610142,1.461659,-2.298244,0.733809,-0.662872,1.924063,-0.938477,0.262939,0.547852,0.074702,-0.032819,-0.022498,0.999942,0.003669,-0.003314,0.009620,0.318735,-0.651438,-0.484047,-0.489627
42418,NaN,9.643423,-3.464705,-2.693398,-3.542322,1.801641,0.008509,1.010172,-0.635922,1.903943,-0.922119,0.286377,0.547607,0.096843,-0.033591,-0.026798,0.999937,0.005051,-0.003180,0.009520,0.325286,-0.656066,-0.480996,-0.482088
42419,NaN,9.460986,-3.895652,-2.790370,-3.789953,1.763456,-0.066145,1.464965,-0.503910,1.694603,-0.916748,0.316406,0.549316,0.095005,-0.037948,-0.027945,0.999934,0.007325,-0.002519,0.008473,0.332980,-0.658927,-0.479736,-0.474124
42420,NaN,8.852821,-3.266633,-2.020975,-2.831415,2.012242,-0.809406,1.730544,-0.567052,1.466389,-0.906494,0.331543,0.549072,0.088821,-0.031841,-0.020236,0.999932,0.008653,-0.002835,0.007332,0.340948,-0.660980,-0.479597,-0.465668
42421,NaN,8.396357,-1.439109,-1.185902,-0.753038,2.037861,-1.490741,1.458678,-0.703213,1.276916,-0.903076,0.352783,0.548828,0.084094,-0.013769,-0.011665,0.999947,0.007293,-0.003516,0.006384,0.347074,-0.663154,-0.479925,-0.457644
42422,NaN,8.824177,-0.530026,-0.749802,0.415656,2.312191,-1.257634,0.850338,-0.857135,1.085717,-0.888184,0.363525,0.557373,0.088300,-0.004790,-0.007141,0.999967,0.004252,-0.004286,0.005429,0.350494,-0.666341,-0.479408,-0.450901
42423,NaN,9.494970,-1.677771,-2.810916,-1.013552,1.063072,0.122680,0.454568,-1.009440,0.944371,-0.884521,0.374268,0.570068,0.095168,-0.016265,-0.027667,0.999974,0.002273,-0.005047,0.004722,0.351745,-0.670063,-0.479021,-0.444781
