// Start Time: Unknown
// Update Rate: 100.0Hz
// Filter Profile: human (46.1)
// Firmware Version: 4.4.0
PacketCounter,SampleTimeFine,Acc_X,Acc_Y,Acc_Z,FreeAcc_X,FreeAcc_Y,FreeAcc_Z,Gyr_X,Gyr_Y,Gyr_Z,Mag_X,Mag_Y,Mag_Z,VelInc_X,VelInc_Y,VelInc_Z,OriInc_q0,OriInc_q1,OriInc_q2,OriInc_q3,Quat_q0,Quat_q1,Quat_q2,Quat_q3
01366,NaN,9.518732,0.384441,-2.205799,-0.000000,-0.000000,-0.034192,-0.034582,-0.584257,0.703842,-0.965088,-0.159912,-0.088867,0.095237,0.004176,-0.021781,0.999990,-0.000173,-0.002921,0.003519,0.616100,0.153060,-0.766774,0.095137
01367,NaN,9.366017,0.553735,-2.435779,0.386359,0.561039,-0.143286,-0.076210,-0.540625,0.699761,-0.963135,-0.155518,-0.082520,0.093705,0.005856,-0.024107,0.999990,-0.000381,-0.002703,0.003499,0.620377,0.176932,-0.752363,0.133334
01368,NaN,9.369596,0.315348,-2.903635,0.830602,0.579271,-0.050830,-0.036433,-0.499485,0.715030,-0.967529,-0.149170,-0.086914,0.093756,0.003483,-0.028803,0.999990,-0.000182,-0.002497,0.003575,0.618047,0.174460,-0.754562,0.134972
01369,NaN,9.661875,-0.633439,-3.253169,1.429211,-0.120872,0.300586,0.211289,-0.419077,0.716478,-0.965820,-0.140625,-0.072021,0.096708,-0.005954,-0.032336,0.999991,0.001056,-0.002095,0.003582,0.615860,0.172933,-0.756271,0.137347
01370,NaN,9.724392,-0.644063,-2.780036,0.935351,-0.280357,0.274585,0.435802,-0.362835,0.723783,-0.965820,-0.138428,-0.072021,0.097316,-0.006028,-0.027637,0.999989,0.002179,-0.001814,0.003619,0.613608,0.171786,-0.757707,0.140908
01371,NaN,9.683772,-0.440065,-2.148587,0.217549,-0.310006,0.109080,0.577327,-0.332905,0.713143,-0.972656,-0.127686,-0.065918,0.096888,-0.003993,-0.021337,0.999988,0.002887,-0.001665,0.003566,0.610644,0.171427,-0.759421,0.144937
01372,NaN,9.718074,0.122272,-1.608240,-0.573562,0.019480,0.021558,0.620990,-0.327301,0.724173,-0.972900,-0.123535,-0.059326,0.097201,0.001624,-0.015919,0.999987,0.003105,-0.001636,0.003621,0.608336,0.170809,-0.760581,0.149224
01373,NaN,9.655564,0.156612,-1.892847,-0.398648,0.236234,0.016960,0.533473,-0.334088,0.726115,-0.970947,-0.114990,-0.059570,0.096580,0.001967,-0.018762,0.999988,0.002667,-0.001670,0.003631,0.605780,0.170086,-0.761949,0.153409
01374,NaN,9.600141,-0.368644,-1.705601,-0.380763,-0.255635,-0.066059,0.466365,-0.333906,0.734308,-0.975342,-0.110596,-0.055420,0.096042,-0.003294,-0.016904,0.999989,0.002332,-0.001670,0.003672,0.603541,0.168955,-0.763219,0.157124
01375,NaN,9.785691,-0.524460,-1.139722,-0.905003,-0.603197,-0.007061,0.333478,-0.361203,0.733332,-0.975586,-0.106445,-0.051025,0.097896,-0.004867,-0.011229,0.999990,0.001667,-0.001806,0.003667,0.601298,0.167608,-0.764575,0.160540
01376,NaN,9.836505,-1.068147,-1.302392,-0.596996,-0.967687,0.101977,0.219583,-0.382310,0.732882,-0.971680,-0.093506,-0.047119,0.098428,-0.010307,-0.012847,0.999991,0.001098,-0.001912,0.003664,0.599058,0.165772,-0.766156,0.163261
01377,NaN,9.964905,-1.058113,-1.269069,-0.714706,-0.916976,0.221115,0.198865,-0.393992,0.747640,-0.974365,-0.080566,-0.045166,0.099712,-0.010196,-0.012505,0.999991,0.000994,-0.001970,0.003738,0.596966,0.164836,-0.767060,0.167568
01378,NaN,9.917750,-0.192419,-1.852300,-0.663668,0.172312,0.255035,0.171795,-0.376386,0.765617,-0.976807,-0.074219,-0.041016,0.099218,-0.001529,-0.018338,0.999991,0.000859,-0.001882,0.003828,0.594734,0.162727,-0.768664,0.170200
01379,NaN,9.162656,-0.014076,-2.917625,0.296868,0.934908,-0.246900,0.094539,-0.340103,0.763196,-0.972656,-0.067871,-0.036621,0.091676,0.000223,-0.029020,0.999991,0.000473,-0.001701,0.003816,0.593186,0.161191,-0.769128,0.174902
01380,NaN,9.534464,-1.292775,-3.323193,1.072380,0.024170,0.310045,0.105178,-0.315213,0.762660,-0.975098,-0.061279,-0.032471,0.095445,-0.012546,-0.033088,0.999991,0.000526,-0.001576,0.003813,0.591217,0.158845,-0.770578,0.177313
01381,NaN,9.741113,-1.449964,-2.917666,0.686165,-0.241106,0.433036,0.248370,-0.293370,0.777636,-0.977295,-0.057129,-0.034668,0.097509,-0.014085,-0.029051,0.999991,0.001242,-0.001467,0.003888,0.589300,0.157197,-0.771497,0.181125
01382,NaN,9.929693,-0.666214,-2.325393,-0.289253,0.234172,0.400583,0.291331,-0.291937,0.802816,-0.975586,-0.046387,-0.021973,0.099356,-0.006230,-0.023118,0.999990,0.001457,-0.001460,0.004014,0.587212,0.155222,-0.772717,0.184383
01383,NaN,9.980447,-0.595458,-1.868855,-0.788720,0.150167,0.326896,0.270671,-0.315589,0.830113,-0.975830,-0.037842,-0.024414,0.099857,-0.005515,-0.018539,0.999989,0.001353,-0.001578,0.004151,0.584973,0.153522,-0.773820,0.188254
01384,NaN,9.889195,-0.398703,-2.176124,-0.664187,0.534666,0.284978,0.260167,-0.333162,0.874676,-0.978271,-0.033447,-0.022217,0.098944,-0.003526,-0.021601,0.999988,0.001301,-0.001666,0.004373,0.582655,0.151211,-0.775212,0.191561
01385,NaN,9.729190,-0.569514,-2.272199,-0.524574,0.495831,0.168421,0.228978,-0.337771,0.908001,-0.972168,-0.020752,-0.015869,0.097355,-0.005227,-0.022564,0.999988,0.001145,-0.001689,0.004540,0.580644,0.148696,-0.776455,0.194573
01386,NaN,9.759934,-1.186968,-2.402175,-0.216362,0.082216,0.305671,0.175195,-0.353512,0.942122,-0.976807,-0.012207,-0.009766,0.097696,-0.011389,-0.023859,0.999987,0.000876,-0.001768,0.004711,0.578218,0.145889,-0.778002,0.197723
01387,NaN,9.935432,-1.692556,-2.333018,-0.165619,-0.332913,0.525653,0.156107,-0.366377,0.966319,-0.975098,-0.001465,-0.009766,0.099477,-0.016427,-0.023161,0.999986,0.000781,-0.001832,0.004832,0.576152,0.142617,-0.779559,0.199991
01388,NaN,10.197073,-1.961172,-2.437003,-0.116278,-0.443225,0.843505,0.206746,-0.367443,0.981734,-0.973389,0.013672,-0.007812,0.102110,-0.019086,-0.024202,0.999986,0.001034,-0.001837,0.004909,0.573583,0.139751,-0.781100,0.203360
01389,NaN,10.015606,-1.772681,-2.933205,0.194774,0.042738,0.771148,0.303846,-0.370034,0.987736,-0.973633,0.020020,-0.008057,0.100296,-0.017187,-0.029173,0.999985,0.001519,-0.001850,0.004939,0.571164,0.137486,-0.782141,0.207666
01390,NaN,9.978291,-1.381943,-3.027580,0.023191,0.510124,0.693518,0.365320,-0.392934,0.999294,-0.978516,0.032959,-0.001709,0.099909,-0.013265,-0.030104,0.999984,0.001827,-0.001965,0.004996,0.568330,0.135027,-0.783558,0.211675
01391,NaN,10.019693,-1.627093,-3.115057,0.114582,0.424703,0.796293,0.408050,-0.422491,1.020678,-0.974365,0.039307,0.004639,0.100344,-0.015696,-0.030971,0.999983,0.002040,-0.002112,0.005103,0.565690,0.132643,-0.784718,0.215912
01392,NaN,10.562974,-1.510060,-3.543643,0.144277,0.844125,1.397984,0.460353,-0.453669,1.057469,-0.970459,0.052002,0.008545,0.105787,-0.014460,-0.035230,0.999981,0.002302,-0.002268,0.005287,0.562452,0.130283,-0.786191,0.220404
01393,NaN,11.193295,-1.265130,-3.555867,-0.266878,1.173309,1.938262,0.562880,-0.485074,1.081216,-0.972900,0.058594,0.012939,0.112085,-0.011946,-0.035321,0.999978,0.002814,-0.002425,0.005406,0.559401,0.127178,-0.787890,0.223887
01394,NaN,12.634040,-1.696678,-2.144711,-1.844939,0.281971,2.978394,0.671247,-0.451128,1.159744,-0.971191,0.071289,0.014893,0.126484,-0.016162,-0.021217,0.999975,0.003356,-0.002256,0.005799,0.555885,0.124988,-0.789118,0.229483
01395,NaN,13.084109,-1.254173,-0.966075,-3.272166,0.215030,2.952271,0.597297,-0.373431,1.280344,-0.969482,0.082031,0.023193,0.130935,-0.011675,-0.009452,0.999973,0.002986,-0.001867,0.006402,0.553629,0.120338,-0.790547,0.232484
01396,NaN,11.996110,-1.355787,-0.964950,-2.956382,0.183030,1.930380,0.515353,-0.399880,1.382863,-0.963623,0.101318,0.018799,0.120070,-0.012703,-0.009443,0.999971,0.002577,-0.001999,0.006914,0.550115,0.116759,-0.791864,0.238102
01397,NaN,12.395058,-1.668837,-0.656007,-3.307256,-0.083498,2.266415,0.507606,-0.451655,1.489149,-0.962158,0.118408,0.029053,0.124085,-0.015749,-0.006321,0.999967,0.002538,-0.002258,0.007446,0.547803,0.111796,-0.793049,0.241842
01398,NaN,12.901032,-1.807366,-0.100549,-4.027059,-0.290577,2.573098,0.496562,-0.462024,1.626489,-0.960449,0.131348,0.031006,0.129154,-0.017022,-0.000750,0.999961,0.002483,-0.002310,0.008132,0.543705,0.107261,-0.794592,0.247998
01399,NaN,13.398639,-1.354253,0.232612,-4.788280,0.131541,2.775474,0.365113,-0.415356,1.768278,-0.956787,0.152832,0.030762,0.134094,-0.012362,0.002581,0.999957,0.001826,-0.002077,0.008841,0.541031,0.102884,-0.795091,0.254028
01400,NaN,13.564666,-1.543885,-0.854173,-4.052591,0.738353,3.231034,0.289211,-0.389956,1.917786,-0.957520,0.172119,0.039062,0.135803,-0.014125,-0.008298,0.999951,0.001446,-0.001950,0.009589,0.536870,0.096533,-0.796726,0.260153
01401,NaN,13.962240,-0.782563,-1.676412,-3.987720,2.057072,3.537445,0.330665,-0.376604,2.062513,-0.949463,0.184814,0.043213,0.139724,-0.006358,-0.016512,0.999944,0.001653,-0.001883,0.010312,0.533949,0.093133,-0.796168,0.268962
01402,NaN,14.723814,-0.667226,-2.829289,-3.619921,3.106234,4.416808,0.414643,-0.414410,2.198557,-0.939453,0.210449,0.040771,0.147357,-0.004995,-0.027999,0.999935,0.002073,-0.002072,0.010993,0.529115,0.086039,-0.797689,0.276272
01403,NaN,15.498416,-1.026797,-3.421095,-3.424881,3.493807,5.320393,0.645520,-0.459246,2.308501,-0.936035,0.229736,0.046875,0.155166,-0.008368,-0.033884,0.999926,0.003228,-0.002296,0.011542,0.527002,0.078428,-0.797877,0.281977
01404,NaN,17.134641,-0.820712,-3.319168,-4.546247,4.202343,6.525651,1.004272,-0.484590,2.397987,-0.930420,0.253418,0.044434,0.171507,-0.005986,-0.032810,0.999913,0.005021,-0.002423,0.011990,0.521248,0.072184,-0.798608,0.292088
01405,NaN,18.332713,1.085830,-2.775187,-6.426839,6.015437,6.541451,1.337396,-0.496998,2.505412,-0.920410,0.281250,0.041992,0.183238,0.013337,-0.027213,0.999896,0.006687,-0.002485,0.012527,0.518818,0.065310,-0.797949,0.299735
01406,NaN,17.667751,1.954626,-1.790222,-7.547695,6.373916,5.072176,1.589829,-0.557323,2.588599,-0.910645,0.306885,0.045898,0.176452,0.021970,-0.017242,0.999881,0.007949,-0.002787,0.012942,0.512134,0.059933,-0.797762,0.312575
01407,NaN,18.662423,2.710016,-0.536251,-9.545283,6.689336,5.020847,1.960494,-0.652044,2.663141,-0.898682,0.336914,0.045410,0.186256,0.029629,-0.004473,0.999858,0.009802,-0.003260,0.013315,0.506344,0.059828,-0.795574,0.327258
01408,NaN,20.340642,5.252023,0.276020,-12.400142,8.851055,4.653277,2.315728,-0.700138,2.738082,-0.891113,0.366943,0.042969,0.202650,0.055256,0.004100,0.999833,0.011578,-0.003500,0.013690,0.498302,0.055933,-0.794244,0.343138
01409,NaN,21.175574,7.542059,0.061137,-13.969055,10.973785,3.960128,2.572506,-0.732505,2.774845,-0.876953,0.388428,0.036377,0.210676,0.078326,0.002379,0.999814,0.012862,-0.003662,0.013873,0.492397,0.058206,-0.790319,0.359935
01410,NaN,21.069700,10.056382,0.225543,-15.580387,12.809610,1.944398,2.684405,-0.750184,2.798261,-0.864746,0.407715,0.033936,0.209249,0.103449,0.004418,0.999805,0.013421,-0.003751,0.013990,0.483519,0.055094,-0.787995,0.377144
01411,NaN,19.182724,9.753818,0.307835,-14.633035,12.177947,0.224210,2.570181,-0.679427,2.774426,-0.848389,0.437500,0.024902,0.190435,0.100130,0.005003,0.999815,0.012850,-0.003397,0.013871,0.481962,0.051123,-0.784121,0.387626
01412,NaN,18.280568,3.983477,0.176210,-11.773671,8.109893,2.256456,2.208537,-0.497996,2.747821,-0.836426,0.465332,0.018066,0.182230,0.042315,0.002675,0.999842,0.011042,-0.002490,0.013738,0.474043,0.046626,-0.781618,0.402720
01413,NaN,17.679048,-2.186584,-2.438859,-6.939025,5.647334,5.782550,1.945319,-0.297260,2.745501,-0.822266,0.489014,0.011475,0.177102,-0.019199,-0.024321,0.999857,0.009726,-0.001486,0.013727,0.470032,0.047914,-0.777755,0.414574
01414,NaN,18.427804,0.055413,-4.319194,-7.381764,8.998973,5.111911,1.403737,-0.141031,2.750566,-0.801514,0.512451,0.002686,0.184275,0.003391,-0.043045,0.999881,0.007018,-0.000705,0.013752,0.463389,0.040799,-0.775742,0.426416
01415,NaN,16.096481,1.582534,-2.406504,-8.114227,8.069084,1.867369,0.572132,0.093937,2.776650,-0.785156,0.533936,-0.001953,0.160712,0.018127,-0.024091,0.999899,0.002861,0.000470,0.013883,0.463482,0.035305,-0.774013,0.429933
01416,NaN,13.916904,2.066727,-2.919090,-6.892431,8.230241,-0.261820,0.160757,0.149343,2.555863,-0.768799,0.559570,-0.006348,0.138868,0.022467,-0.029277,0.999918,0.000804,0.000747,0.012779,0.458499,0.025457,-0.773707,0.436473
01417,NaN,10.595941,3.715834,-3.060959,-5.410204,8.341269,-3.763115,0.371413,0.008738,2.379116,-0.751953,0.574707,-0.010986,0.105506,0.038472,-0.030544,0.999928,0.001857,0.000044,0.011895,0.464595,0.016306,-0.772822,0.432009
01418,NaN,7.840643,4.453308,-0.645631,-5.909668,6.208573,-6.940236,0.101656,-0.098351,2.071428,-0.737549,0.589600,-0.006836,0.077943,0.045345,-0.006395,0.999946,0.000508,-0.000492,0.010357,0.459707,0.008744,-0.772956,0.437186
01419,NaN,6.522642,2.865924,0.439670,-5.078785,4.148879,-6.994285,-0.545474,-0.061232,1.533490,-0.735840,0.604492,-0.002686,0.065003,0.029170,0.004338,0.999967,-0.002727,-0.000306,0.007667,0.470937,-0.002427,-0.773957,0.423324
01420,NaN,4.772598,-0.081889,-1.561805,-1.494179,2.898188,-5.992814,-1.115028,-0.200225,1.188473,-0.723389,0.613037,0.003662,0.047746,-0.000622,-0.015566,0.999966,-0.005575,-0.001001,0.005942,0.467617,-0.009233,-0.776746,0.421799
01421,NaN,5.923978,-8.576139,-3.702205,2.752693,-1.008326,0.852866,-1.205030,-0.245301,0.997985,-0.710938,0.625977,0.016357,0.059712,-0.085685,-0.036433,0.999969,-0.006025,-0.001226,0.004990,0.478892,-0.019641,-0.778799,0.404659
01422,NaN,5.371568,-8.969653,-8.022403,6.355423,1.106796,1.678591,-0.819204,-0.370965,0.666545,-0.717285,0.628174,0.011963,0.054163,-0.089844,-0.079756,0.999984,-0.004096,-0.001855,0.003333,0.476012,-0.023453,-0.781264,0.403099
01423,NaN,4.348795,-2.353997,-4.807044,2.277946,3.008183,-4.040103,-0.027607,-0.322860,0.234433,-0.708740,0.625977,0.016357,0.043593,-0.023496,-0.047997,0.999998,-0.000138,-0.001614,0.001172,0.486432,-0.027708,-0.781081,0.390550
01424,NaN,2.415023,2.324807,-1.834688,-0.621510,3.703081,-9.102720,0.361947,0.052562,-0.283966,-0.710938,0.628174,0.010010,0.024178,0.023247,-0.018311,0.999997,0.001810,0.000263,-0.001420,0.487242,-0.025827,-0.780280,0.391268
01425,NaN,0.663950,4.409127,-0.788502,-1.180045,3.861821,-11.861258,0.478913,0.383128,-0.953626,-0.717041,0.619629,0.001465,0.006835,0.044078,-0.007792,0.999984,0.002395,0.001916,-0.004768,0.501621,-0.025502,-0.777613,0.378212
01426,NaN,-0.671291,5.394956,-0.461866,-1.160515,3.838043,-13.512900,0.320512,0.341588,-1.492526,-0.723145,0.608887,0.001709,-0.006318,0.054005,-0.004521,0.999969,0.001603,0.001708,-0.007463,0.505799,-0.019546,-0.776313,0.375664
01427,NaN,-0.326061,5.908096,-0.151423,-1.753513,4.313380,-13.466968,-0.024586,0.207094,-1.873013,-0.735596,0.593994,-0.002441,-0.002709,0.059108,-0.001518,0.999956,-0.000123,0.001035,-0.009365,0.520093,-0.016392,-0.775059,0.358496
01428,NaN,1.512729,4.394604,-0.165906,-2.094795,3.964828,-11.045374,-0.249307,0.247015,-2.181434,-0.743652,0.583252,-0.002441,0.015603,0.043775,-0.001733,0.999939,-0.001247,0.001235,-0.010907,0.524910,-0.009034,-0.774991,0.351819
01429,NaN,2.076183,3.254911,-0.333668,-1.728425,3.467714,-9.756945,-0.489312,0.267990,-2.328718,-0.760742,0.574707,-0.002441,0.021134,0.032296,-0.003444,0.999928,-0.002447,0.001340,-0.011643,0.539096,-0.005333,-0.774189,0.331630
01430,NaN,2.860962,2.925964,0.316462,-2.475351,3.161379,-8.961935,-0.687311,0.400431,-2.651835,-0.776855,0.544678,-0.006348,0.029000,0.028887,0.003007,0.999904,-0.003436,0.002002,-0.013259,0.544976,0.002410,-0.774242,0.321784
01431,NaN,2.726373,2.030973,-0.019748,-1.717439,2.573503,-8.403849,-0.876539,0.547042,-3.086336,-0.793213,0.519043,-0.008057,0.027572,0.019884,-0.000360,0.999868,-0.004382,0.002735,-0.015431,0.560147,0.007698,-0.772852,0.298120
01432,NaN,3.576201,1.699362,0.106462,-1.984439,2.466975,-7.433027,-0.832859,0.663790,-3.406582,-0.809570,0.497559,0.002930,0.036048,0.016385,0.000876,0.999841,-0.004164,0.003319,-0.017032,0.567736,0.017533,-0.771976,0.285344
01433,NaN,4.740610,1.341902,0.640688,-2.577013,2.193639,-6.175568,-0.816177,0.815439,-3.709048,-0.825684,0.467529,-0.003174,0.047670,0.012562,0.006160,0.999811,-0.004081,0.004077,-0.018544,0.583261,0.025197,-0.769038,0.260293
01434,NaN,5.403102,0.401377,0.605904,-2.335158,1.440016,-5.101947,-0.747769,0.981641,-4.009665,-0.843994,0.435547,-0.007080,0.054126,0.002951,0.005781,0.999780,-0.003739,0.004908,-0.020047,0.592224,0.037146,-0.766469,0.245797
01435,NaN,5.886578,-0.512485,0.518709,-1.877008,0.586557,-4.217077,-0.533661,1.127869,-4.241802,-0.864258,0.401367,-0.010986,0.058768,-0.006359,0.004871,0.999756,-0.002668,0.005639,-0.021207,0.607882,0.047542,-0.761327,0.220454
01436,NaN,6.736086,-0.941156,0.394693,-1.672098,0.192757,-3.211543,-0.285473,1.201721,-4.501939,-0.884277,0.360596,-0.023438,0.067149,-0.010919,0.003558,0.999728,-0.001427,0.006008,-0.022508,0.617325,0.062469,-0.756708,0.205916
01437,NaN,7.624446,-0.677954,0.287884,-1.585495,0.291786,-2.325100,-0.091156,1.251099,-4.760137,-0.895996,0.324219,-0.035645,0.076070,-0.008590,0.002406,0.999697,-0.000456,0.006255,-0.023798,0.631979,0.076345,-0.749661,0.181059
01438,NaN,8.483742,0.371794,0.574151,-2.143004,0.926238,-1.628848,-0.020298,1.264360,-5.024886,-0.916016,0.281494,-0.048096,0.084929,0.001585,0.005205,0.999664,-0.000101,0.006321,-0.025122,0.641067,0.093940,-0.743510,0.165533
01439,NaN,9.343190,1.073748,0.521527,-2.109760,1.225154,-0.716195,-0.142688,1.259033,-5.296131,-0.927002,0.229980,-0.053711,0.093703,0.008262,0.004619,0.999629,-0.000713,0.006294,-0.026477,0.654246,0.109798,-0.735242,0.139014
01440,NaN,10.661169,0.879680,-0.073067,-1.349101,0.813477,0.766864,-0.320594,1.236946,-5.556096,-0.938232,0.178711,-0.063721,0.106794,0.005830,-0.001402,0.999594,-0.001603,0.006184,-0.027777,0.662570,0.128265,-0.728066,0.120290
01441,NaN,12.133355,-0.170440,-0.818837,0.036845,-0.621151,2.331767,-0.409894,1.193753,-5.763282,-0.949219,0.129395,-0.073730,0.121165,-0.005216,-0.008904,0.999565,-0.002049,0.005968,-0.028812,0.673805,0.144966,-0.718767,0.091353
01442,NaN,13.835156,-1.480963,-1.503997,1.426562,-2.442955,3.891455,-0.435197,1.122821,-5.951646,-0.958008,0.069336,-0.081543,0.137741,-0.018949,-0.015776,0.999539,-0.002176,0.005613,-0.029754,0.680568,0.164304,-0.710534,0.070519
01443,NaN,15.785108,-1.959394,-1.920253,2.456634,-3.951174,5.515935,-0.489195,1.039724,-6.113231,-0.960449,0.018066,-0.091553,0.157051,-0.024451,-0.019965,0.999516,-0.002446,0.005198,-0.030561,0.689008,0.181995,-0.700346,0.040753
01444,NaN,17.823393,-2.029238,-2.035116,3.092555,-5.285302,7.167451,-0.587395,0.958417,-6.247547,-0.956299,-0.037598,-0.099121,0.177383,-0.025904,-0.021132,0.999496,-0.002936,0.004791,-0.031232,0.693830,0.201557,-0.691122,0.018034
01445,NaN,19.943024,-1.780131,-1.863337,3.514589,-6.803048,8.777428,-0.752937,0.904837,-6.316870,-0.958496,-0.097656,-0.111084,0.198647,-0.024157,-0.019450,0.999484,-0.003764,0.004523,-0.031579,0.699532,0.219034,-0.680103,-0.011795
01446,NaN,21.483447,-2.039357,-2.359472,4.701530,-8.488238,9.602370,-1.063324,0.886778,-6.359573,-0.956543,-0.153320,-0.118896,0.213932,-0.027335,-0.024412,0.999471,-0.005316,0.004433,-0.031792,0.702972,0.236873,-0.669610,-0.036666
01447,NaN,22.615889,-3.224687,-3.934449,7.182848,-10.768402,9.412635,-1.358482,0.914979,-6.353342,-0.945801,-0.211182,-0.126465,0.224795,-0.039674,-0.040122,0.999462,-0.006791,0.004574,-0.031761,0.707024,0.252299,-0.657319,-0.066286
01448,NaN,23.591527,-5.225895,-6.115110,10.358079,-13.470186,8.416622,-1.456659,0.964392,-6.299850,-0.937500,-0.269043,-0.138428,0.233807,-0.060096,-0.061863,0.999466,-0.007282,0.004821,-0.031494,0.709571,0.268036,-0.645126,-0.092081
01449,NaN,23.586632,-7.673742,-8.047224,13.150826,-16.103606,5.918680,-1.255446,0.954614,-6.150059,-0.924561,-0.329102,-0.144043,0.232962,-0.084439,-0.081075,0.999496,-0.006276,0.004772,-0.030745,0.711634,0.283151,-0.632075,-0.117831
01450,NaN,21.902180,-11.010355,-10.077845,15.721478,-18.242797,1.247450,-0.876722,0.748849,-5.935080,-0.907715,-0.380615,-0.156006,0.215240,-0.116972,-0.101086,0.999543,-0.004383,0.003744,-0.029671,0.711426,0.299098,-0.620199,-0.140596
01451,NaN,19.029170,-17.071190,-11.891568,18.104655,-21.298555,-6.157856,-0.138776,0.343485,-5.583458,-0.888916,-0.425537,-0.155273,0.185222,-0.176013,-0.119116,0.999609,-0.000694,0.001717,-0.027914,0.708842,0.316040,-0.610232,-0.158993
01452,NaN,16.424076,-20.869365,-11.582243,17.934581,-22.653212,-11.928291,0.987526,-0.064210,-5.031490,-0.874268,-0.474854,-0.147949,0.158969,-0.212162,-0.116813,0.999671,0.004937,-0.000321,-0.025155,0.702859,0.334736,-0.603089,-0.173853
01453,NaN,14.496022,-23.208043,-9.769640,16.467084,-23.165993,-15.834569,2.101198,-0.427267,-4.230673,-0.855713,-0.515869,-0.130127,0.140235,-0.234039,-0.099846,0.999719,0.010505,-0.002136,-0.021151,0.694620,0.354892,-0.599392,-0.179678
01454,NaN,13.226483,-25.448388,-5.679989,13.066456,-24.474683,-19.031723,2.971201,-0.536457,-3.037049,-0.843994,-0.543701,-0.108154,0.128548,-0.255577,-0.060243,0.999771,0.014855,-0.002682,-0.015184,0.684859,0.373749,-0.598393,-0.182225
01455,NaN,12.202093,-20.743540,-1.351737,8.465521,-21.510647,-16.639416,2.923117,-0.348132,-1.460194,-0.843750,-0.556641,-0.095215,0.120530,-0.208094,-0.016345,0.999865,0.014615,-0.001741,-0.007301,0.677550,0.388386,-0.599642,-0.174675
01456,NaN,13.377656,-13.226418,-0.658672,6.676644,-17.587642,-10.467210,1.490536,-0.175465,0.023280,-0.845947,-0.552246,-0.082275,0.133798,-0.132195,-0.007455,0.999972,0.007453,-0.000877,0.000116,0.674136,0.393202,-0.601562,-0.170455
01457,NaN,14.174266,-11.338812,-1.947320,7.790068,-16.438202,-8.274112,0.062802,-0.008066,1.149659,-0.859131,-0.543701,-0.086914,0.142392,-0.112565,-0.019503,0.999983,0.000314,-0.000040,0.005748,0.675626,0.390367,-0.604061,-0.162027
01458,NaN,11.487045,-9.609629,-2.891218,7.616691,-13.159364,-8.601651,-0.839631,0.100226,1.994777,-0.868164,-0.530762,-0.097900,0.115808,-0.095065,-0.028570,0.999941,-0.004198,0.000501,0.009974,0.679149,0.381565,-0.606896,-0.157611
01459,NaN,8.108037,-10.412040,-2.559809,6.729330,-11.554629,-11.190424,-1.902967,-0.021094,2.648310,-0.882080,-0.500732,-0.104736,0.082454,-0.103272,-0.024604,0.999867,-0.009514,-0.000105,0.013241,0.685224,0.367280,-0.610705,-0.150374
01460,NaN,10.979386,-9.261868,-3.886096,8.069804,-12.362110,-7.950887,-3.146824,-0.339201,3.165879,-0.902344,-0.472900,-0.118164,0.111312,-0.091459,-0.037228,0.999750,-0.015733,-0.001696,0.015828,0.692180,0.346486,-0.615158,-0.149714
01461,NaN,11.067269,-0.895232,-3.074922,5.280190,-6.625486,-2.005095,-3.806768,-0.496736,3.096567,-0.922852,-0.440674,-0.131592,0.110875,-0.007816,-0.030318,0.999696,-0.019032,-0.002483,0.015481,0.699664,0.323500,-0.619630,-0.147908
01462,NaN,19.097846,31.404755,1.589863,-3.687943,11.954919,24.782878,-3.177889,-0.329743,2.353870,-0.925537,-0.427734,-0.140381,0.187242,0.316469,0.011193,0.999803,-0.015888,-0.001649,0.011769,0.705391,0.304784,-0.622115,-0.150016
01463,NaN,16.037195,30.268937,14.590668,-16.036836,10.696354,22.040020,-3.119925,-0.186280,0.677047,-0.929932,-0.419189,-0.153320,0.159208,0.305458,0.141305,0.999872,-0.015599,-0.000931,0.003385,0.710117,0.291636,-0.621826,-0.154965
01464,NaN,13.759864,-20.856536,2.934208,2.042768,-25.038789,-11.117554,-4.694906,-0.894639,1.712585,-0.941650,-0.388916,-0.168945,0.139226,-0.206603,0.034828,0.999678,-0.023472,-0.004473,0.008562,0.715285,0.268857,-0.623657,-0.164728
01465,NaN,17.636987,-22.792136,-7.243668,11.892959,-27.220641,-9.140165,-4.184966,-0.987676,2.990940,-0.960205,-0.356934,-0.167236,0.180105,-0.226684,-0.066801,0.999657,-0.020922,-0.004938,0.014953,0.720244,0.243380,-0.627927,-0.166500
01466,NaN,18.716055,-7.829461,-2.768751,6.019483,-16.167028,1.215319,-1.989315,-0.769778,2.943963,-0.969482,-0.333252,-0.167725,0.188391,-0.075793,-0.026202,0.999835,-0.009946,-0.003849,0.014719,0.722585,0.226292,-0.632517,-0.163046
01467,NaN,12.831966,-4.181797,1.190991,-1.309596,-10.183789,-0.973689,-1.404946,-1.008238,2.444562,-0.979004,-0.309570,-0.159668,0.128754,-0.040158,0.012844,0.999888,-0.007024,-0.005041,0.012222,0.702596,0.144417,-0.656894,-0.232366
01468,NaN,6.995647,-5.088891,-4.634464,4.046999,-8.402708,-6.758728,-0.960746,-0.962516,2.037623,-0.986328,-0.286133,-0.157715,0.070693,-0.050392,-0.045763,0.999925,-0.004804,-0.004812,0.010188,0.702449,0.133221,-0.660576,-0.229034
01469,NaN,4.177108,1.090005,-11.266708,10.710832,-4.557348,-6.637427,-1.168906,-1.207323,1.951030,-0.993408,-0.269043,-0.147461,0.042346,0.010654,-0.112475,0.999917,-0.005844,-0.006036,0.009755,0.677225,0.057326,-0.673614,-0.290386
01470,NaN,10.580419,0.233114,-13.625366,12.052980,-9.117740,-1.491869,-2.067163,-1.599263,1.841148,-0.998535,-0.247559,-0.134766,0.106870,0.001909,-0.135423,0.999872,-0.010335,-0.007996,0.009205,0.675025,0.041797,-0.676465,-0.291529
01471,NaN,13.907704,-2.698888,-10.424223,5.554614,-13.008153,0.641958,-1.282158,-1.144537,1.971475,-1.007812,-0.228271,-0.126709,0.139931,-0.026276,-0.103273,0.999914,-0.006411,-0.005723,0.009857,0.648281,-0.027466,-0.679454,-0.342519
01472,NaN,7.795260,-3.619144,-3.170070,-0.240136,-7.476933,-4.525985,-0.333427,-0.566252,1.788462,-1.010254,-0.215332,-0.126953,0.078362,-0.035544,-0.031420,0.999955,-0.001667,-0.002831,0.008942,0.649353,-0.035591,-0.680438,-0.337756
01473,NaN,8.171348,-5.179111,-2.869675,-2.485006,-8.302671,-4.643821,-0.128919,-0.629625,1.558299,-1.015381,-0.196045,-0.116455,0.082204,-0.051170,-0.028405,0.999964,-0.000645,-0.003148,0.007791,0.625236,-0.090305,-0.677891,-0.376016
01474,NaN,12.514956,-6.509485,-0.465552,-5.975093,-9.144327,-0.874623,0.655699,-0.463298,1.670465,-1.022461,-0.178955,-0.114502,0.125698,-0.064031,-0.004576,0.999957,0.003278,-0.002316,0.008352,0.627084,-0.094783,-0.679784,-0.368342
01475,NaN,11.346429,-4.648156,-0.040464,-5.658226,-6.420443,-1.031608,1.079491,-0.324499,1.654981,-1.016357,-0.166016,-0.108398,0.113844,-0.045538,-0.000468,0.999950,0.005397,-0.001622,0.008275,0.607677,-0.137993,-0.675482,-0.394222
01476,NaN,9.886211,-2.071624,-0.810042,-2.964699,-4.758194,-1.371547,1.472544,-0.420041,1.504007,-1.025635,-0.151123,-0.102051,0.099031,-0.019913,-0.008041,0.999942,0.007363,-0.002100,0.007520,0.610212,-0.139418,-0.678579,-0.384362
01477,NaN,9.735317,-2.799434,-0.345790,-4.081778,-4.402692,-1.646514,1.856895,-0.414752,1.384956,-1.025879,-0.142578,-0.093750,0.097551,-0.027287,-0.003511,0.999931,0.009284,-0.002074,0.006925,0.594520,-0.172296,-0.675232,-0.401150
01478,NaN,9.693146,-1.647084,0.836680,-3.957022,-2.726691,-1.194330,1.780422,-0.406259,1.288000,-1.021973,-0.127686,-0.085449,0.097018,-0.015921,0.008420,0.999938,0.008902,-0.002031,0.006440,0.597237,-0.172155,-0.678854,-0.390931
01479,NaN,9.829231,0.654424,0.744313,-2.342563,-1.070634,-0.275340,1.107877,-0.515540,1.146248,-1.024658,-0.116943,-0.083496,0.098233,0.007065,0.007735,0.999965,0.005539,-0.002578,0.005731,0.583328,-0.201291,-0.674255,-0.405697
01480,NaN,9.271782,2.127757,0.877651,-1.154784,0.124035,-0.330412,0.237169,-0.620729,1.020653,-1.029297,-0.106201,-0.081299,0.092580,0.021740,0.009090,0.999981,0.001186,-0.003104,0.005103,0.583542,-0.205296,-0.675502,-0.401285
01481,NaN,9.199099,1.457472,-0.043423,-1.069652,-0.795574,-0.594688,-0.454083,-0.732816,0.925111,-1.036133,-0.099854,-0.068604,0.091923,0.014999,-0.000131,0.999980,-0.002270,-0.003664,0.004626,0.570414,-0.232166,-0.669131,-0.415922
01482,NaN,9.840429,-0.156776,-2.031473,-1.334814,-3.317180,-0.421246,-0.689485,-0.740687,0.887089,-1.030029,-0.086914,-0.060303,0.098484,-0.001200,-0.019946,0.999977,-0.003447,-0.003703,0.004435,0.568977,-0.238635,-0.668759,-0.414826
01483,NaN,10.054695,-0.786092,-2.397593,-1.850735,-3.792697,-0.344180,-0.469423,-0.638089,0.844977,-1.032471,-0.080566,-0.058350,0.100655,-0.007492,-0.023637,0.999983,-0.002347,-0.003190,0.004225,0.557417,-0.261916,-0.662074,-0.427018
01484,NaN,9.534207,-0.785990,-2.371802,-1.718546,-3.616936,-0.806688,-0.263563,-0.598126,0.753170,-1.039307,-0.069824,-0.049805,0.095441,-0.007532,-0.023423,0.999988,-0.001318,-0.002991,0.003766,0.556702,-0.266418,-0.662179,-0.424999
01485,NaN,9.902988,-1.232186,-3.594535,-1.707239,-4.775066,-0.496496,0.071912,-0.566726,0.731366,-1.035156,-0.065430,-0.043457,0.099175,-0.011947,-0.035669,0.999989,0.000360,-0.002834,0.003657,0.548195,-0.283564,-0.657443,-0.432253
01486,NaN,9.932796,-1.063007,-3.748646,-1.456631,-4.756821,-0.373791,0.484613,-0.461309,0.732847,-1.035400,-0.059082,-0.041504,0.099452,-0.010175,-0.037282,0.999988,0.002423,-0.002307,0.003664,0.548952,-0.285638,-0.658702,-0.427988
01487,NaN,9.190091,-0.271165,-4.192360,-0.478008,-4.603657,-0.830250,0.697948,-0.412623,0.691902,-1.033691,-0.048340,-0.037354,0.091995,-0.002248,-0.041742,0.999986,0.003490,-0.002063,0.003459,0.543653,-0.297638,-0.655835,-0.430968
01488,NaN,8.813491,-0.116227,-3.463527,-0.535072,-3.788789,-1.149819,0.747355,-0.365450,0.614857,-1.038086,-0.041992,-0.031006,0.088201,-0.000762,-0.034477,0.999987,0.003737,-0.001827,0.003074,0.544893,-0.298406,-0.657510,-0.426293
01489,NaN,9.617279,-0.057674,-1.101660,-1.746808,-1.611763,-0.428684,0.525293,-0.364112,0.566965,-1.031738,-0.039795,-0.033203,0.096194,-0.000275,-0.010842,0.999991,0.002626,-0.001821,0.002835,0.540648,-0.308193,-0.655098,-0.428442
01490,NaN,9.781152,-0.490071,-0.071008,-2.583058,-0.834387,-0.402724,0.150362,-0.373224,0.555354,-1.034180,-0.033447,-0.018311,0.097826,-0.004629,-0.000531,0.999994,0.000752,-0.001866,0.002777,0.540853,-0.310403,-0.655564,-0.425868
01491,NaN,10.161110,-2.041940,-1.378413,-3.441953,-2.582057,-0.283614,0.035238,-0.387316,0.528260,-1.036377,-0.029053,-0.018311,0.101691,-0.020148,-0.013591,0.999995,0.000176,-0.001937,0.002641,0.537010,-0.319408,-0.652967,-0.428057
01492,NaN,10.063732,-2.297231,-2.339092,-3.203575,-3.499263,-0.351229,0.290172,-0.383704,0.499870,-1.038818,-0.027100,-0.014160,0.100739,-0.022687,-0.023231,0.999994,0.001451,-0.001919,0.002499,0.537297,-0.321080,-0.653810,-0.425149
01493,NaN,10.066080,-0.992675,-2.326228,-2.064775,-2.826285,-0.041756,0.470259,-0.416708,0.471582,-1.034668,-0.016357,-0.014160,0.100732,-0.009635,-0.023075,0.999992,0.002351,-0.002084,0.002358,0.534759,-0.327567,-0.652774,-0.424993
01494,NaN,9.976547,-0.464740,-2.344672,-1.540049,-2.556498,0.002458,0.490524,-0.443414,0.467677,-1.039307,-0.007812,-0.010010,0.099828,-0.004357,-0.023236,0.999992,0.002453,-0.002217,0.002338,0.535114,-0.328722,-0.654225,-0.421409
01495,NaN,9.795110,-0.134343,-2.270891,-1.221563,-2.257138,-0.089941,0.462975,-0.465728,0.508627,-1.035156,-0.003418,-0.005859,0.098007,-0.001042,-0.022483,0.999991,0.002315,-0.002329,0.002543,0.533611,-0.333711,-0.654030,-0.419693
01496,NaN,9.746409,-0.243942,-2.313691,-1.256735,-2.273887,-0.135153,0.440825,-0.493803,0.558481,-1.039551,-0.005615,0.000488,0.097527,-0.002116,-0.022901,0.999991,0.002204,-0.002469,0.002792,0.533908,-0.335395,-0.655328,-0.415930
01497,NaN,9.903671,-0.408048,-2.186697,-1.451633,-2.139450,0.002898,0.473742,-0.501472,0.631273,-1.033447,0.007324,0.009033,0.099103,-0.003716,-0.021628,0.999989,0.002369,-0.002507,0.003156,0.533377,-0.339498,-0.655645,-0.412770
01498,NaN,9.495875,0.371702,-2.059558,-0.687029,-1.616239,-0.248870,0.445271,-0.489768,0.744236,-1.038086,0.015869,0.008789,0.094994,0.004116,-0.020354,0.999988,0.002226,-0.002449,0.003721,0.534066,-0.341758,-0.656593,-0.408485
01499,NaN,9.198800,0.395066,-2.382105,-0.423559,-1.810906,-0.485904,0.279652,-0.492897,0.837322,-1.036133,0.022217,0.015137,0.092029,0.004369,-0.023588,0.999987,0.001398,-0.002464,0.004187,0.533585,-0.347061,-0.656033,-0.405532
01500,NaN,9.243264,-0.027475,-2.724453,-0.606841,-2.222376,-0.455698,0.163502,-0.467700,0.938665,-1.032227,0.032959,0.023682,0.092496,0.000181,-0.027028,0.999986,0.000818,-0.002338,0.004693,0.534240,-0.350648,-0.655969,-0.401670
01501,NaN,9.144826,-0.391458,-3.257080,-0.632443,-2.772160,-0.522700,0.096103,-0.491056,0.984885,-1.034668,0.041504,0.027832,0.091546,-0.003448,-0.032348,0.999985,0.000481,-0.002455,0.004924,0.534086,-0.356239,-0.655040,-0.398459
01502,NaN,9.440035,-1.414200,-3.705671,-1.347984,-3.521015,-0.292679,0.129990,-0.492985,0.987233,-1.033203,0.058594,0.029785,0.094560,-0.013652,-0.036833,0.999985,0.000650,-0.002465,0.004936,0.534671,-0.360103,-0.654841,-0.394508
01503,NaN,9.755271,-2.086510,-3.647025,-1.965028,-3.642819,-0.030713,0.226803,-0.495868,0.963960,-1.033203,0.058594,0.036133,0.097742,-0.020353,-0.036251,0.999985,0.001134,-0.002479,0.004820,0.534864,-0.364882,-0.654358,-0.390637
01504,NaN,10.134963,-2.216415,-3.405905,-2.173578,-3.372972,0.342488,0.338720,-0.493190,0.924085,-1.033691,0.073486,0.040283,0.101534,-0.021638,-0.033846,0.999985,0.001694,-0.002466,0.004620,0.535674,-0.367959,-0.654636,-0.386148
01505,NaN,10.542659,-1.851472,-2.543158,-2.191496,-2.318635,0.716482,0.401631,-0.468635,0.895117,-1.031738,0.075684,0.046631,0.105567,-0.017992,-0.025221,0.999985,0.002008,-0.002343,0.004476,0.536731,-0.370897,-0.655089,-0.381070
01506,NaN,10.451731,-2.048000,-2.768479,-2.188991,-2.528088,0.671275,0.378609,-0.485987,0.870034,-1.032227,0.088623,0.048584,0.104672,-0.019973,-0.027469,0.999986,0.001893,-0.002430,0.004350,0.537501,-0.373653,-0.655485,-0.376584
01507,NaN,10.883503,-2.126711,-1.685693,-2.703648,-1.468696,0.973753,0.442964,-0.492415,0.830749,-1.028076,0.092773,0.059082,0.108963,-0.020778,-0.016635,0.999986,0.002215,-0.002462,0.004154,0.538698,-0.375740,-0.656456,-0.371065
01508,NaN,11.231592,-2.686658,-1.436158,-3.292606,-1.376483,1.263970,0.477136,-0.492712,0.820158,-1.026367,0.107910,0.056885,0.112460,-0.026372,-0.014148,0.999986,0.002386,-0.002464,0.004101,0.539501,-0.378057,-0.657111,-0.366355
01509,NaN,11.181035,-1.949042,-0.926826,-2.773949,-0.509972,1.219875,0.474603,-0.468879,0.859947,-1.029053,0.118408,0.062988,0.111914,-0.018988,-0.009051,0.999985,0.002373,-0.002344,0.004300,0.540657,-0.380427,-0.657759,-0.360996
01510,NaN,11.320401,-1.305567,-0.973432,-2.126635,-0.157960,1.423632,0.407718,-0.454176,0.918956,-1.027100,0.125000,0.071533,0.113284,-0.012516,-0.009503,0.999985,0.002039,-0.002271,0.004595,0.541598,-0.383163,-0.657959,-0.356298
01511,NaN,11.005474,-0.883925,-1.564392,-1.370589,-0.427200,1.245648,0.314213,-0.441824,0.999446,-1.025391,0.139893,0.071289,0.110131,-0.008265,-0.015414,0.999984,0.001571,-0.002209,0.004997,0.542557,-0.386699,-0.657701,-0.351461
01512,NaN,10.757128,-0.909356,-2.695534,-0.781913,-1.371813,1.201573,0.219025,-0.435788,1.080553,-1.021240,0.144287,0.069092,0.107677,-0.008483,-0.026730,0.999982,0.001095,-0.002179,0.005403,0.543446,-0.390419,-0.657161,-0.346956
01513,NaN,10.711443,-1.237149,-3.223722,-0.730252,-1.889939,1.257595,0.217486,-0.428045,1.155529,-1.019775,0.163574,0.077393,0.107252,-0.011717,-0.032021,0.999980,0.001087,-0.002140,0.005778,0.545284,-0.393127,-0.657257,-0.340778
01514,NaN,10.640971,-1.610480,-3.703302,-0.740566,-2.386704,1.290988,0.311595,-0.450741,1.232565,-1.018066,0.172119,0.081543,0.106589,-0.015391,-0.036817,0.999977,0.001558,-0.002254,0.006163,0.546512,-0.397089,-0.656573,-0.335496
01515,NaN,10.733588,-1.108090,-3.281344,-0.376162,-1.656993,1.337010,0.353449,-0.454154,1.293209,-1.018311,0.184814,0.081543,0.107478,-0.010329,-0.032588,0.999975,0.001767,-0.002271,0.006466,0.548337,-0.400518,-0.656279,-0.328954
01516,NaN,10.942378,-1.260488,-3.141129,-0.473495,-1.454368,1.538491,0.371736,-0.439358,1.409319,-1.010254,0.197754,0.085693,0.109577,-0.011775,-0.031193,0.999971,0.001859,-0.002197,0.007047,0.549950,-0.404837,-0.655247,-0.322976
01517,NaN,10.951076,-1.224834,-2.704475,-0.503641,-0.932294,1.483987,0.436238,-0.463304,1.485279,-1.008545,0.212646,0.091797,0.109660,-0.011376,-0.026816,0.999967,0.002181,-0.002316,0.007426,0.552838,-0.407136,-0.655594,-0.314336
01518,NaN,11.568232,-1.217104,-2.391009,-0.537178,-0.409058,2.043228,0.537994,-0.471278,1.624369,-1.000488,0.223389,0.087402,0.115832,-0.011167,-0.023668,0.999961,0.002690,-0.002356,0.008122,0.554928,-0.411700,-0.654403,-0.307107
01519,NaN,11.558542,-1.213220,-2.129345,-0.494721,-0.037833,1.992212,0.555566,-0.483853,1.745189,-0.999023,0.244873,0.097900,0.115736,-0.011064,-0.021045,0.999955,0.002778,-0.002419,0.008726,0.558483,-0.413896,-0.654766,-0.296765
01520,NaN,11.326708,-1.108019,-1.978484,-0.305199,0.246070,1.731941,0.502048,-0.514156,1.839500,-0.997559,0.268311,0.093262,0.113413,-0.009988,-0.019519,0.999951,0.002510,-0.002571,0.009197,0.560550,-0.419261,-0.653100,-0.288902
01521,NaN,12.027056,-1.686966,-2.836428,-0.215828,-0.432035,2.649339,0.575884,-0.520946,1.995402,-0.987549,0.285400,0.101562,0.120504,-0.015587,-0.028097,0.999943,0.002879,-0.002605,0.009977,0.564005,-0.422541,-0.652759,-0.277961
01522,NaN,12.719382,-1.273260,-3.311369,0.585357,-0.272486,3.376118,0.765257,-0.527143,2.101910,-0.979736,0.311279,0.103271,0.127404,-0.011268,-0.032823,0.999934,0.003826,-0.002636,0.010509,0.566794,-0.427951,-0.650818,-0.268400
01523,NaN,13.329944,-1.017256,-4.003910,1.406444,-0.342622,4.067096,1.025858,-0.572879,2.173926,-0.974121,0.330566,0.100830,0.133512,-0.008518,-0.039703,0.999924,0.005129,-0.002864,0.010869,0.570731,-0.431184,-0.650280,-0.255894
01524,NaN,14.109801,-1.482662,-3.862152,1.216868,-0.003012,4.840239,1.314327,-0.649287,2.243435,-0.966309,0.356201,0.104980,0.141375,-0.012990,-0.038252,0.999910,0.006571,-0.003246,0.011217,0.574281,-0.435523,-0.648912,-0.243792
01525,NaN,15.435989,-1.388608,-2.485773,0.883836,1.830409,5.751108,1.714827,-0.727210,2.272863,-0.951904,0.377686,0.106689,0.154592,-0.011920,-0.024404,0.999892,0.008574,-0.003636,0.011364,0.579278,-0.436342,-0.649789,-0.227634
01526,NaN,18.360551,-0.326522,-1.064625,1.424616,4.717287,7.908744,2.041937,-0.714298,2.348062,-0.941895,0.396973,0.093750,0.183663,-0.001005,-0.010008,0.999873,0.010209,-0.003571,0.011740,0.584019,-0.438816,-0.648969,-0.212607
01527,NaN,18.417922,0.827124,-0.468553,2.269576,6.178898,7.414470,2.369086,-0.677544,2.397683,-0.931885,0.418213,0.097656,0.184076,0.010528,-0.003946,0.999852,0.011845,-0.003388,0.011988,0.590407,-0.437363,-0.650136,-0.193534
01528,NaN,17.780667,1.941293,0.500405,2.767844,7.662580,6.117716,2.803064,-0.774406,2.386444,-0.919922,0.444092,0.084473,0.177537,0.021453,0.005983,0.999823,0.014014,-0.003872,0.011932,0.596232,-0.437521,-0.649793,-0.175646
01529,NaN,19.659317,4.488581,1.517574,4.325302,10.957035,6.623548,3.184053,-0.841680,2.423627,-0.914307,0.469727,0.075684,0.195964,0.047005,0.016738,0.999791,0.015919,-0.004208,0.012117,0.603432,-0.432621,-0.652258,-0.152540
01530,NaN,20.002237,7.851069,2.641554,6.194337,14.291258,5.222693,3.372861,-0.850233,2.514069,-0.904297,0.491211,0.066650,0.198900,0.080546,0.028610,0.999770,0.016863,-0.004251,0.012569,0.609740,-0.431196,-0.651799,-0.132078
01531,NaN,18.763936,7.659845,2.667765,5.666651,14.222512,3.731893,2.884815,-0.811488,2.556553,-0.885742,0.516846,0.055664,0.186530,0.078585,0.028560,0.999806,0.014423,-0.004057,0.012782,0.615823,-0.425927,-0.653913,-0.108377
01532,NaN,18.289802,3.551274,1.010660,4.023270,10.787629,4.869561,2.290668,-0.712184,2.610434,-0.873535,0.536133,0.046875,0.182376,0.037772,0.011181,0.999843,0.011453,-0.003561,0.013051,0.619698,-0.427732,-0.651677,-0.091312
01533,NaN,16.662012,-0.251023,-3.365443,4.565858,5.321686,5.673505,1.908253,-0.636335,2.656475,-0.859131,0.557617,0.042480,0.166737,0.000022,-0.033132,0.999861,0.009541,-0.003182,0.013282,0.623509,-0.425338,-0.652159,-0.070798
01534,NaN,18.577303,-1.435673,-4.792555,5.426065,5.001755,7.954087,1.569247,-0.609331,2.650944,-0.846924,0.581055,0.033447,0.186083,-0.011518,-0.047457,0.999877,0.007846,-0.003047,0.013254,0.625728,-0.429257,-0.648888,-0.056107
01535,NaN,17.265691,-0.686978,-1.527252,3.357529,7.260873,5.578730,1.398765,-0.246515,2.668152,-0.834717,0.600342,0.022705,0.172746,-0.004460,-0.015096,0.999886,0.006994,-0.001233,0.013340,0.629048,-0.427494,-0.648194,-0.037313
01536,NaN,13.315155,0.160815,-2.372079,4.145579,5.578845,1.790168,0.801484,-0.072825,2.507294,-0.815918,0.617676,0.022461,0.133125,0.003372,-0.023661,0.999913,0.004007,-0.000364,0.012536,0.630945,-0.433080,-0.643148,-0.026666
01537,NaN,10.294249,-1.593695,-3.247222,3.398792,2.666799,0.206621,-0.054393,-0.127399,2.524454,-0.801514,0.634766,0.015869,0.103153,-0.014645,-0.032402,0.999920,-0.000272,-0.000637,0.012622,0.630955,-0.434431,-0.642660,-0.012393
01538,NaN,5.708526,4.686804,-6.579536,8.963965,2.309236,-6.325917,-0.638927,-0.519281,2.133363,-0.793213,0.643311,0.030762,0.056753,0.047264,-0.065798,0.999935,-0.003195,-0.002596,0.010667,0.627996,-0.443310,-0.639574,-0.006583
01539,NaN,7.076738,3.926544,-3.135784,5.923502,4.756717,-5.615628,0.487436,-0.992610,1.229922,-0.786865,0.645264,0.022217,0.070678,0.039776,-0.030910,0.999966,0.002437,-0.004963,0.006150,0.625915,-0.437721,-0.645417,0.008207
01540,NaN,7.151268,-2.925932,0.334563,-0.684287,2.516869,-2.531865,0.958085,-0.407091,0.930777,-0.780518,0.651855,0.020020,0.071641,-0.028942,0.003352,0.999976,0.004790,-0.002035,0.004654,0.626651,-0.437703,-0.644590,0.015107
01541,NaN,3.916358,-9.052404,-2.759149,-1.815269,-4.808529,-0.953868,0.915115,-0.324788,0.605283,-0.782959,0.656006,0.017822,0.039482,-0.090278,-0.027941,0.999984,0.004576,-0.001624,0.003026,0.627195,-0.426143,-0.651238,0.030287
01542,NaN,4.833310,-13.303302,-7.379997,0.173658,-9.223382,3.214139,1.536579,-0.615456,0.082950,-0.784668,0.643311,0.007324,0.048617,-0.132441,-0.074670,0.999966,0.007683,-0.003077,0.000415,0.628436,-0.421491,-0.652728,0.036865
01543,NaN,7.110996,-4.126927,-6.020484,4.158022,-1.144902,-0.579959,1.803642,-0.480085,-0.293325,-0.780273,0.645508,-0.007812,0.071195,-0.040830,-0.060404,0.999955,0.009018,-0.002400,-0.001467,0.629867,-0.403107,-0.661746,0.053529
01544,NaN,4.343665,2.183957,-2.683875,3.872658,2.921916,-7.109917,2.019840,-0.014230,-0.659618,-0.788330,0.630371,-0.018311,0.043511,0.021966,-0.026614,0.999944,0.010099,-0.000071,-0.003298,0.634037,-0.394542,-0.662533,0.058164
01545,NaN,-0.225529,6.026459,-1.920860,4.242855,3.362512,-13.091254,1.666583,-0.093021,-1.301517,-0.791992,0.611328,-0.031006,-0.001854,0.060435,-0.018706,0.999944,0.008333,-0.000465,-0.006507,0.636262,-0.373704,-0.671285,0.069942
01546,NaN,-0.699009,6.669792,-0.309906,2.940104,4.268997,-14.078870,1.352771,-0.279173,-1.819704,-0.808594,0.594238,-0.037109,-0.006379,0.066777,-0.002657,0.999935,0.006764,-0.001396,-0.009098,0.638453,-0.363176,-0.675048,0.069215
01547,NaN,1.066694,5.454403,0.488869,1.636085,4.855414,-12.020474,0.779328,-0.347539,-2.006410,-0.827393,0.579102,-0.039062,0.011205,0.054414,0.005120,0.999941,0.003897,-0.001738,-0.010032,0.638017,-0.341283,-0.685926,0.077235
01548,NaN,3.602644,3.207131,0.940413,0.459450,4.765316,-8.704133,0.377501,-0.261330,-2.061096,-0.839355,0.553467,-0.043213,0.036342,0.031680,0.009512,0.999944,0.001887,-0.001307,-0.010305,0.638531,-0.332895,-0.690085,0.072402
01549,NaN,3.130808,2.058199,1.036349,-0.239619,3.623771,-8.426169,0.160633,-0.144072,-2.232189,-0.849121,0.527832,-0.044922,0.031528,0.020223,0.010402,0.999937,0.000803,-0.000720,-0.011161,0.637746,-0.311768,-0.700082,0.077246
01550,NaN,3.850157,1.766434,0.752332,-0.096333,3.652374,-7.541144,-0.142166,-0.013057,-2.573599,-0.870117,0.508545,-0.040527,0.038724,0.017172,0.007514,0.999917,-0.000711,-0.000065,-0.012868,0.638425,-0.303187,-0.704124,0.068561
01551,NaN,3.370147,2.473331,0.134936,0.559271,3.766618,-8.082954,-0.247974,0.049514,-2.978073,-0.881836,0.472168,-0.042236,0.034065,0.024230,0.001311,0.999888,-0.001240,0.000248,-0.014890,0.638013,-0.280355,-0.713822,0.069271
01552,NaN,4.211615,2.296542,0.156731,0.427802,3.970276,-7.150337,-0.177794,0.125240,-3.348457,-0.893311,0.433594,-0.045898,0.042494,0.022257,0.001521,0.999859,-0.000889,0.000626,-0.016741,0.639286,-0.268980,-0.718070,0.057775
01553,NaN,5.438149,1.160358,0.391232,-0.375188,3.496357,-5.487848,-0.140340,0.274407,-3.648239,-0.913574,0.399414,-0.047607,0.054586,0.010612,0.003830,0.999832,-0.000702,0.001372,-0.018240,0.640044,-0.242152,-0.726939,0.057147
01554,NaN,5.663883,0.261798,0.313876,-0.607637,2.611853,-4.807536,0.052564,0.379089,-3.883230,-0.931641,0.360840,-0.053711,0.056681,0.001517,0.003032,0.999810,0.000263,0.001895,-0.019415,0.642479,-0.227937,-0.730267,0.044447
01555,NaN,6.420032,-0.041328,0.619041,-1.173327,2.436739,-3.957663,0.264154,0.485343,-4.135777,-0.938721,0.317871,-0.059326,0.064188,-0.001749,0.006033,0.999782,0.001321,0.002427,-0.020677,0.644638,-0.197922,-0.737154,0.043280
01556,NaN,6.996214,-0.354233,0.489254,-1.207396,2.051918,-3.206963,0.225018,0.535923,-4.400814,-0.956543,0.272949,-0.061035,0.069874,-0.005086,0.004700,0.999754,0.001125,0.002679,-0.022002,0.647635,-0.181049,-0.739544,0.029390
01557,NaN,8.332462,-0.873961,0.255148,-1.318945,1.540577,-1.680439,0.177075,0.540059,-4.561347,-0.961182,0.223633,-0.068848,0.083103,-0.010639,0.002318,0.999736,0.000885,0.002700,-0.022805,0.649962,-0.150443,-0.744485,0.025643
01558,NaN,9.387344,-1.287603,-0.077428,-1.213851,0.953087,-0.464556,-0.042661,0.562984,-4.702925,-0.972412,0.174561,-0.076660,0.093533,-0.015078,-0.001035,0.999720,-0.000213,0.002815,-0.023512,0.652453,-0.133111,-0.745984,0.009777
01559,NaN,10.275347,-1.832235,-0.702799,-0.832360,-0.000754,0.614165,-0.202373,0.582764,-4.838523,-0.972900,0.127441,-0.084717,0.102249,-0.020808,-0.007306,0.999703,-0.001012,0.002914,-0.024190,0.654592,-0.102674,-0.748969,0.003585
01560,NaN,11.151434,-1.533359,-1.169898,-0.444471,-0.165264,1.493205,-0.308249,0.621944,-4.914718,-0.968750,0.073730,-0.094482,0.111055,-0.018085,-0.012018,0.999692,-0.001541,0.003109,-0.024571,0.656656,-0.085263,-0.749225,-0.013968
01561,NaN,11.978069,-1.082235,-1.469349,-0.199212,-0.283835,2.297358,-0.516420,0.665331,-4.955908,-0.975586,0.024414,-0.104492,0.119413,-0.013823,-0.015058,0.999684,-0.002582,0.003326,-0.024777,0.658337,-0.064583,-0.749320,-0.030670
01562,NaN,12.996728,-1.294471,-1.783432,-0.052522,-1.118385,3.320465,-0.841082,0.651843,-5.015277,-0.965332,-0.024902,-0.103760,0.129528,-0.016273,-0.018193,0.999671,-0.004205,0.003259,-0.025074,0.659529,-0.048445,-0.748413,-0.050523
01563,NaN,13.670848,-1.573913,-2.002571,0.028105,-2.144618,3.925407,-1.160119,0.600360,-5.091386,-0.959473,-0.067627,-0.109375,0.136186,-0.019328,-0.020330,0.999655,-0.005800,0.003001,-0.025454,0.660057,-0.029794,-0.747331,-0.070238
01564,NaN,13.969130,-2.086795,-2.132919,0.015130,-3.411870,4.056402,-1.410710,0.548658,-5.135922,-0.953613,-0.112549,-0.117432,0.139033,-0.024596,-0.021546,0.999642,-0.007053,0.002743,-0.025677,0.659864,-0.015060,-0.745517,-0.092507
01565,NaN,14.475154,-2.382946,-2.258363,-0.005976,-4.540092,4.316834,-1.551613,0.535551,-5.173818,-0.943359,-0.161865,-0.125244,0.144007,-0.027738,-0.022765,0.999632,-0.007757,0.002677,-0.025866,0.659236,0.001499,-0.743171,-0.114464
01566,NaN,15.421189,-2.576591,-2.706070,0.221247,-5.726236,4.981726,-1.560004,0.568002,-5.195407,-0.930908,-0.207031,-0.133057,0.153392,-0.029970,-0.027274,0.999628,-0.007799,0.002840,-0.025974,0.658147,0.015983,-0.740086,-0.137330
01567,NaN,16.288243,-3.210828,-3.603928,0.841572,-7.506810,5.401534,-1.638088,0.599626,-5.202505,-0.914307,-0.249756,-0.138672,0.161860,-0.036624,-0.036238,0.999624,-0.008189,0.002998,-0.026009,0.656880,0.032213,-0.736232,-0.159478
01568,NaN,16.768456,-3.930149,-4.460417,1.413884,-9.309370,5.279655,-1.739561,0.610127,-5.220038,-0.900146,-0.288330,-0.157227,0.166440,-0.044046,-0.044744,0.999617,-0.008697,0.003050,-0.026097,0.655000,0.046187,-0.731714,-0.182858
01569,NaN,17.397847,-4.538988,-5.618069,2.277886,-11.152195,5.193921,-1.850279,0.560515,-5.229776,-0.881348,-0.329102,-0.165283,0.172546,-0.050435,-0.056215,0.999611,-0.009250,0.002802,-0.026145,0.652702,0.061420,-0.726590,-0.205607
01570,NaN,17.645775,-4.967352,-6.497685,2.880076,-12.656006,4.668358,-1.951824,0.496848,-5.198412,-0.862793,-0.367676,-0.175293,0.174915,-0.054867,-0.064894,0.999612,-0.009758,0.002484,-0.025989,0.649517,0.074421,-0.721079,-0.229422
01571,NaN,17.940183,-5.118326,-7.617681,3.757376,-13.975024,4.207064,-2.140837,0.346438,-5.099085,-0.846191,-0.410645,-0.180908,0.177874,-0.056545,-0.075900,0.999616,-0.010703,0.001732,-0.025492,0.645820,0.087771,-0.715218,-0.252340
01572,NaN,17.829839,-8.558409,-9.132130,4.283734,-17.983197,1.706191,-2.123256,0.059665,-4.967112,-0.821533,-0.440674,-0.188965,0.176057,-0.090939,-0.090427,0.999635,-0.010615,0.000298,-0.024833,0.640471,0.098720,-0.709902,-0.275845
01573,NaN,18.069198,-14.073622,-8.734600,2.454463,-23.085135,-1.952057,-1.158963,-0.142583,-4.819365,-0.801025,-0.477051,-0.196777,0.177285,-0.145538,-0.086385,0.999693,-0.005794,-0.000713,-0.024094,0.634043,0.112955,-0.706156,-0.294235
01574,NaN,17.253928,-14.197023,-6.447599,0.203639,-22.454462,-3.771237,0.212528,-0.169637,-4.506101,-0.787109,-0.505127,-0.187744,0.169338,-0.145741,-0.064485,0.999745,0.001063,-0.000848,-0.022529,0.626541,0.129260,-0.704278,-0.307784
01575,NaN,13.768953,-12.861366,-5.320775,0.060891,-19.313346,-6.610005,0.688632,-0.310782,-4.017298,-0.773193,-0.530762,-0.183105,0.135155,-0.131162,-0.053445,0.999791,0.003443,-0.001554,-0.020085,0.619021,0.145503,-0.703720,-0.316891
01576,NaN,11.763080,-15.418983,-6.339957,1.007302,-20.370091,-10.384142,0.780171,-0.569618,-3.294698,-0.759521,-0.556641,-0.169678,0.115253,-0.155854,-0.063675,0.999853,0.003901,-0.002848,-0.016473,0.611145,0.158586,-0.704215,-0.324705
01577,NaN,12.455714,-18.412293,-5.434021,-0.394575,-22.745533,-12.293324,1.133328,-0.641839,-2.251773,-0.746338,-0.567383,-0.160889,0.122652,-0.185201,-0.054992,0.999915,0.005666,-0.003209,-0.011259,0.604411,0.168339,-0.706625,-0.327155
01578,NaN,13.101921,-16.691057,-2.022707,-3.407341,-20.997768,-11.162711,1.034767,-0.525259,-1.046494,-0.745850,-0.578125,-0.156494,0.130198,-0.167487,-0.020750,0.999969,0.005174,-0.002626,-0.005232,0.599961,0.174299,-0.709000,-0.327087
01579,NaN,11.925615,-12.351804,0.393230,-4.805868,-16.480061,-9.309822,-0.067500,-0.429525,0.118217,-0.759277,-0.567383,-0.148193,0.119320,-0.123446,0.004230,0.999997,-0.000338,-0.002148,0.000591,0.598989,0.172419,-0.710772,-0.326016
01580,NaN,11.692970,-11.107250,-0.317976,-4.020982,-15.566945,-8.511345,-1.443173,-0.410243,1.087230,-0.768311,-0.554443,-0.152588,0.117536,-0.110453,-0.002141,0.999957,-0.007216,-0.002051,0.005436,0.600529,0.163556,-0.710552,-0.328222
01581,NaN,10.775885,-11.740224,-2.003219,-2.574365,-15.843076,-9.245932,-2.296261,-0.330966,1.840523,-0.783936,-0.535156,-0.167969,0.108866,-0.116622,-0.018511,0.999890,-0.011481,-0.001655,0.009202,0.604262,0.148154,-0.709933,-0.330019
01582,NaN,12.331861,-11.262267,-3.160463,-2.069759,-16.696228,-7.397622,-2.807709,-0.355029,2.454623,-0.795654,-0.509277,-0.179199,0.124746,-0.111524,-0.029813,0.999825,-0.014038,-0.001775,0.012272,0.609033,0.130346,-0.708064,-0.332767
01583,NaN,9.218299,-11.655286,-1.896457,-3.055665,-14.664284,-9.696501,-3.394724,-0.387839,2.751106,-0.813721,-0.481445,-0.188232,0.093811,-0.115567,-0.016816,0.999759,-0.016972,-0.001939,0.013754,0.614504,0.108440,-0.705924,-0.335106
01584,NaN,17.430073,5.350839,-1.590909,-0.848151,-6.155871,7.401655,-3.202785,-0.429008,3.059862,-0.822998,-0.457764,-0.199463,0.173492,0.055907,-0.016419,0.999752,-0.016013,-0.002145,0.015298,0.619708,0.087054,-0.703358,-0.337151
01585,NaN,23.897385,43.528875,12.053767,-2.939919,24.898874,34.711188,-2.304202,0.163121,1.648982,-0.834473,-0.442627,-0.203857,0.235462,0.438588,0.115304,0.999899,-0.011521,0.000816,0.008245,0.624512,0.073954,-0.700253,-0.337877
01586,NaN,11.585755,-6.092063,11.114909,-14.668402,-6.252430,-3.440848,-3.525615,-0.267210,1.222431,-0.845947,-0.414795,-0.223633,0.116069,-0.058238,0.112347,0.999825,-0.017627,-0.001336,0.006112,0.626844,0.058199,-0.695459,-0.346435
01587,NaN,12.115838,-23.533952,-5.873848,-5.921466,-26.316266,-12.535224,-3.664450,-1.139853,2.530116,-0.855713,-0.386963,-0.230713,0.124447,-0.234794,-0.053730,0.999736,-0.018321,-0.005699,0.012649,0.628631,0.035505,-0.693800,-0.349577
01588,NaN,15.400123,-13.745674,-8.062569,-1.499250,-21.336339,-4.017807,-1.958850,-1.004252,3.083947,-0.873779,-0.356934,-0.222656,0.156502,-0.135832,-0.078508,0.999821,-0.009794,-0.005021,0.015419,0.630779,0.016886,-0.693954,-0.346786
01589,NaN,15.498754,-4.762242,-7.244712,1.305980,-13.891801,1.172182,-0.865949,-1.285073,2.846284,-0.889648,-0.335449,-0.216553,0.156108,-0.045716,-0.071246,0.999869,-0.004330,-0.006425,0.014231,0.631983,0.002132,-0.697313,-0.338152
01590,NaN,13.428085,-5.902817,-9.130143,2.713549,-14.520305,-0.852136,-1.557510,-1.875836,2.588671,-0.905762,-0.307617,-0.193604,0.135881,-0.057978,-0.089578,0.999842,-0.007787,-0.009379,0.012943,0.629744,-0.014990,-0.700522,-0.335360
01591,NaN,13.065112,-1.504337,-11.284186,6.468245,-11.740236,1.169504,-1.493840,-1.659535,2.955374,-0.913330,-0.277588,-0.191895,0.131792,-0.013938,-0.111645,0.999829,-0.007469,-0.008297,0.014776,0.629560,-0.032200,-0.703717,-0.327718
01592,NaN,5.398538,4.389609,-5.786341,5.938895,-1.394534,-3.128526,-0.976625,-0.794844,2.916042,-0.922852,-0.251953,-0.185791,0.053570,0.044397,-0.057866,0.999874,-0.004883,-0.003974,0.014580,0.631313,-0.046837,-0.704058,-0.321796
01593,NaN,2.073616,-1.978642,-3.797531,1.913514,-4.198372,-8.651827,-1.627298,-0.796851,2.273086,-0.934570,-0.223877,-0.186279,0.021112,-0.019856,-0.037730,0.999894,-0.008136,-0.003984,0.011365,0.632688,-0.060105,-0.704296,-0.316324
01594,NaN,10.971000,-7.456291,-4.365847,-2.044325,-11.553329,-2.239640,-1.096419,-0.876245,2.338715,-0.933350,-0.200439,-0.180176,0.110762,-0.073508,-0.042770,0.999907,-0.005482,-0.004381,0.011693,0.632920,-0.073194,-0.704563,-0.312483
01595,NaN,12.727266,-10.057132,-0.738616,-6.641286,-12.020935,-1.149456,0.250196,-0.329852,2.471828,-0.942383,-0.183350,-0.176270,0.128515,-0.098979,-0.007299,0.999921,0.001251,-0.001649,0.012359,0.636648,-0.080204,-0.706063,-0.299536
01596,NaN,10.324302,-6.635820,-0.896785,-4.276544,-8.532224,-2.045130,0.978896,-0.207810,2.252394,-0.951660,-0.166016,-0.172363,0.103991,-0.065145,-0.009181,0.999924,0.004894,-0.001039,0.011262,0.639639,-0.085351,-0.707231,-0.288794
01597,NaN,9.522078,-3.130402,-0.220153,-2.840153,-4.967389,-1.580259,1.402449,-0.286644,2.027319,-0.952393,-0.142578,-0.161865,0.095535,-0.030321,-0.002280,0.999923,0.007012,-0.001433,0.010136,0.643237,-0.086438,-0.710297,-0.272495
01598,NaN,10.288014,-3.913526,0.252513,-3.639971,-5.427037,-0.951703,1.633945,-0.324588,1.887618,-0.952881,-0.131836,-0.162109,0.103240,-0.038182,0.002378,0.999921,0.008170,-0.001623,0.009438,0.645318,-0.088329,-0.712692,-0.260447
01599,NaN,10.484864,-3.102043,-0.051298,-2.879141,-4.780095,-0.409728,1.827976,-0.290120,1.785395,-0.953369,-0.114746,-0.157959,0.105121,-0.030077,-0.000638,0.999917,0.009140,-0.001451,0.008927,0.648396,-0.087096,-0.716141,-0.243186
01600,NaN,9.262089,-0.642692,-0.551508,-1.106406,-2.501091,-0.923275,1.640071,-0.428769,1.645823,-0.960205,-0.108398,-0.149658,0.092681,-0.005620,-0.005365,0.999930,0.008200,-0.002144,0.008229,0.649537,-0.088196,-0.718756,-0.231761
01601,NaN,8.484425,1.396328,0.186301,-0.760608,-0.069070,-1.246190,0.796653,-0.622893,1.522176,-0.956787,-0.084717,-0.145752,0.084728,0.014600,0.002184,0.999958,0.003983,-0.003114,0.007611,0.650403,-0.089365,-0.721951,-0.218581
01602,NaN,8.548326,0.648491,-0.372807,-0.577224,-0.847764,-1.293291,-0.132385,-0.682713,1.366238,-0.959229,-0.076172,-0.135010,0.085448,0.007066,-0.003441,0.999971,-0.000662,-0.003414,0.006831,0.649359,-0.095479,-0.723392,-0.214290
01603,NaN,9.563465,-0.575460,-0.388204,-1.202981,-1.927397,-0.497209,-0.834087,-0.710790,1.233277,-0.961670,-0.069824,-0.124512,0.095681,-0.005180,-0.003520,0.999966,-0.004170,-0.003554,0.006166,0.648603,-0.101029,-0.725155,-0.207985
01604,NaN,9.664577,-2.426760,-2.106300,-0.481962,-4.213708,-0.553068,-1.028743,-0.745466,1.099394,-0.970703,-0.056885,-0.118164,0.096855,-0.023842,-0.020579,0.999965,-0.005144,-0.003727,0.005497,0.646507,-0.109133,-0.725919,-0.207751
01605,NaN,9.609880,-4.112204,-3.449335,0.023835,-6.160693,-0.691181,-0.627590,-0.627284,0.963315,-0.966797,-0.046143,-0.120605,0.096403,-0.040766,-0.034063,0.999979,-0.003138,-0.003136,0.004817,0.645883,-0.112332,-0.727820,-0.201233
01606,NaN,9.934648,-3.348366,-2.910333,-0.214766,-5.177248,-0.245672,0.019969,-0.501402,0.884450,-0.973633,-0.033447,-0.112305,0.099566,-0.033041,-0.028857,0.999987,0.000100,-0.002507,0.004422,0.644957,-0.115999,-0.728951,-0.198004
01607,NaN,9.527687,-1.223876,-2.323066,0.246078,-2.846217,-0.351765,0.250463,-0.452120,0.834267,-0.971680,-0.026855,-0.107910,0.095379,-0.011812,-0.023030,0.999988,0.001252,-0.002261,0.004171,0.645170,-0.115826,-0.731226,-0.188807
01608,NaN,9.198255,-0.735040,-2.254850,0.429994,-2.262853,-0.597130,0.164733,-0.409483,0.810112,-0.971924,-0.020508,-0.101807,0.092057,-0.006959,-0.022366,0.999989,0.000824,-0.002047,0.004051,0.644532,-0.118653,-0.732223,-0.185336
01609,NaN,9.421155,-1.667731,-2.843079,0.580109,-3.241084,-0.390328,0.095940,-0.355184,0.742212,-0.969971,-0.014160,-0.104004,0.094323,-0.016314,-0.028271,0.999991,0.000480,-0.001776,0.003711,0.644807,-0.118452,-0.734071,-0.177008
01610,NaN,9.314882,-2.019324,-3.396950,0.955147,-3.708966,-0.447072,0.212921,-0.295196,0.656096,-0.974609,-0.007568,-0.093262,0.093264,-0.019851,-0.033853,0.999993,0.001065,-0.001476,0.003280,0.644431,-0.120446,-0.734816,-0.173918
01611,NaN,9.178739,-1.486797,-2.693865,0.589513,-2.816879,-0.569633,0.215281,-0.266127,0.571747,-0.970703,0.003174,-0.095703,0.091865,-0.014577,-0.026832,0.999994,0.001076,-0.001331,0.002859,0.644880,-0.118950,-0.736582,-0.165615
01612,NaN,9.303810,-1.273484,-1.894337,-0.074694,-2.250419,-0.501354,0.049101,-0.267028,0.514375,-0.972900,0.007324,-0.087158,0.093096,-0.012491,-0.018822,0.999996,0.000246,-0.001335,0.002572,0.644354,-0.120919,-0.737172,-0.163598
01613,NaN,9.583168,-1.607333,-1.417885,-0.657393,-2.291028,-0.286418,-0.150155,-0.285745,0.480906,-0.975098,0.005127,-0.093506,0.095890,-0.015853,-0.014030,0.999996,-0.000751,-0.001429,0.002405,0.644325,-0.120371,-0.738722,-0.156989
01614,NaN,9.660660,-1.777620,-1.330276,-0.828167,-2.363861,-0.221860,-0.259644,-0.318131,0.465570,-0.979736,0.013672,-0.089355,0.096669,-0.017568,-0.013126,0.999995,-0.001298,-0.001591,0.002328,0.643360,-0.123189,-0.739258,-0.156237
01615,NaN,9.602424,-1.741322,-1.385669,-0.746001,-2.269125,-0.249576,-0.322591,-0.357169,0.466376,-0.971191,0.020264,-0.080811,0.096089,-0.017211,-0.013657,0.999994,-0.001613,-0.001786,0.002332,0.642951,-0.122844,-0.740944,-0.150085
01616,NaN,9.711698,-2.339466,-1.771727,-0.658134,-2.916988,-0.118002,-0.285864,-0.391207,0.460435,-0.975830,0.026611,-0.081055,0.097205,-0.023196,-0.017494,0.999994,-0.001429,-0.001956,0.002302,0.641672,-0.125775,-0.741698,-0.149403
01617,NaN,9.290621,-2.099146,-1.994667,-0.294682,-2.690810,-0.465326,-0.154770,-0.401640,0.458473,-0.973633,0.026611,-0.072510,0.092994,-0.020794,-0.019744,0.999995,-0.000774,-0.002008,0.002292,0.641097,-0.125029,-0.743624,-0.142777
01618,NaN,9.607606,-2.308334,-2.613108,0.124670,-3.060900,-0.061900,-0.022879,-0.411339,0.449035,-0.973877,0.030762,-0.065918,0.096181,-0.022870,-0.025931,0.999995,-0.000114,-0.002057,0.002245,0.639875,-0.127079,-0.744640,-0.141144
01619,NaN,9.488404,-1.946021,-2.880348,0.534428,-2.725229,-0.096700,0.120804,-0.407211,0.454390,-0.969727,0.032959,-0.068115,0.094986,-0.019227,-0.028622,0.999995,0.000604,-0.002036,0.002272,0.639374,-0.125368,-0.746749,-0.133603
01620,NaN,9.567801,-1.451230,-2.946911,0.743431,-2.227833,0.026870,0.156678,-0.373043,0.476191,-0.978760,0.043701,-0.062012,0.095767,-0.014261,-0.029302,0.999995,0.000783,-0.001865,0.002381,0.638398,-0.126908,-0.747743,-0.131240
01621,NaN,9.512021,-0.884287,-2.751742,0.777916,-1.524937,-0.019748,0.122970,-0.379577,0.503939,-0.970215,0.048096,-0.064209,0.095194,-0.008586,-0.027342,0.999995,0.000615,-0.001898,0.002520,0.637927,-0.125422,-0.749662,-0.123795
01622,NaN,9.654080,-1.340344,-2.603022,0.442460,-1.835199,0.097379,0.027379,-0.392376,0.527045,-0.976562,0.048096,-0.055664,0.096626,-0.013145,-0.025843,0.999995,0.000137,-0.001962,0.002635,0.636799,-0.127568,-0.750594,-0.121743
01623,NaN,9.770584,-2.086053,-2.474794,0.054510,-2.387222,0.199221,0.017380,-0.409402,0.568336,-0.974854,0.058594,-0.051514,0.097815,-0.020581,-0.024550,0.999994,0.000087,-0.002047,0.002842,0.636077,-0.126810,-0.752426,-0.114806
01624,NaN,9.153063,-1.865843,-2.509884,0.237372,-2.152866,-0.385713,0.089709,-0.456135,0.561141,-0.975098,0.067139,-0.047363,0.091639,-0.018390,-0.024898,0.999993,0.000449,-0.002281,0.002806,0.634739,-0.128912,-0.753566,-0.112371
01625,NaN,9.451245,-1.809513,-2.682572,0.368226,-2.038361,-0.039993,0.155094,-0.460121,0.614920,-0.975342,0.069336,-0.045166,0.094629,-0.017784,-0.026622,0.999992,0.000775,-0.002301,0.003075,0.633806,-0.128228,-0.755504,-0.105176
01626,NaN,9.733550,-1.637839,-2.719816,0.390539,-1.794013,0.259568,0.183648,-0.491388,0.642161,-0.975342,0.069336,-0.042969,0.097454,-0.016041,-0.026974,0.999991,0.000918,-0.002457,0.003211,0.632402,-0.130346,-0.756738,-0.102108
01627,NaN,9.397090,-1.840892,-2.784563,0.436031,-1.918215,-0.036303,0.165867,-0.505670,0.672791,-0.975586,0.080078,-0.032471,0.094102,-0.018070,-0.027623,0.999991,0.000829,-0.002528,0.003364,0.631242,-0.129854,-0.758724,-0.094920
01628,NaN,9.531927,-2.078734,-2.857978,0.381599,-2.072685,0.132385,0.211042,-0.532154,0.697725,-0.973877,0.086426,-0.023926,0.095467,-0.020424,-0.028348,0.999990,0.001055,-0.002661,0.003489,0.629687,-0.132103,-0.760041,-0.091547
01629,NaN,9.828347,-2.453873,-3.159060,0.489117,-2.375523,0.517579,0.279629,-0.545433,0.720790,-0.974121,0.097168,-0.021973,0.098457,-0.024140,-0.031356,0.999989,0.001398,-0.002727,0.003604,0.628343,-0.131727,-0.762068,-0.084171
01630,NaN,9.552827,-2.048819,-2.984788,0.474353,-1.873009,0.218723,0.333012,-0.541333,0.713885,-0.969971,0.099365,-0.021973,0.095681,-0.020097,-0.029623,0.999989,0.001665,-0.002707,0.003569,0.626794,-0.133645,-0.763429,-0.080278
01631,NaN,10.506264,-2.823365,-2.731347,-0.173059,-2.318355,1.160351,0.336927,-0.527536,0.751132,-0.970215,0.107910,-0.011475,0.105239,-0.027793,-0.027083,0.999988,0.001685,-0.002638,0.003756,0.625461,-0.133367,-0.765306,-0.072932
01632,NaN,10.963344,-2.504059,-1.980881,-0.886007,-1.649222,1.451557,0.365064,-0.471803,0.801318,-0.970459,0.114258,-0.009521,0.109779,-0.024565,-0.019595,0.999988,0.001825,-0.002359,0.004007,0.624185,-0.135480,-0.766368,-0.068689
01633,NaN,11.039596,-1.888563,-2.555278,-0.188965,-1.077632,1.622813,0.357532,-0.463712,0.865865,-0.966553,0.125000,-0.003174,0.110535,-0.018362,-0.025330,0.999986,0.001788,-0.002319,0.004329,0.623045,-0.135694,-0.767888,-0.061248
01634,NaN,10.722967,-1.700174,-2.832944,0.168187,-0.893325,1.370810,0.335934,-0.474284,0.942275,-0.973389,0.135742,0.005371,0.107375,-0.016449,-0.028103,0.999985,0.001680,-0.002371,0.004711,0.621731,-0.138427,-0.768815,-0.056675
01635,NaN,11.667133,-2.028729,-3.007095,0.050188,-0.963437,2.367128,0.359693,-0.499710,1.013674,-0.971680,0.144287,-0.001221,0.116847,-0.019642,-0.029815,0.999982,0.001798,-0.002499,0.005068,0.620384,-0.139469,-0.770235,-0.049097
01636,NaN,11.328489,-1.699219,-2.853335,0.044153,-0.515245,1.981133,0.456335,-0.506823,1.116311,-0.965576,0.157227,0.007080,0.113449,-0.016295,-0.028284,0.999979,0.002282,-0.002534,0.005582,0.619011,-0.142493,-0.771122,-0.043497
01637,NaN,12.033759,-1.452367,-3.079095,0.175554,-0.033159,2.691995,0.421011,-0.497833,1.246819,-0.959473,0.167725,0.013428,0.120501,-0.013708,-0.030521,0.999975,0.002105,-0.002489,0.006234,0.617660,-0.144352,-0.772281,-0.035215
01638,NaN,12.145982,-1.512599,-2.888064,-0.055108,0.155786,2.762029,0.410928,-0.500207,1.357942,-0.962158,0.182861,0.017578,0.121630,-0.014242,-0.028606,0.999972,0.002055,-0.002501,0.006790,0.616247,-0.148430,-0.772894,-0.029047
01639,NaN,12.414550,-2.299765,-2.889590,-0.324014,-0.328192,3.131168,0.508815,-0.542370,1.452918,-0.960449,0.197754,0.017334,0.124386,-0.022022,-0.028616,0.999967,0.002544,-0.002712,0.007265,0.614674,-0.151031,-0.773927,-0.020061
01640,NaN,13.142168,-2.290035,-2.124978,-1.199878,0.219983,3.640334,0.598301,-0.565157,1.570867,-0.954590,0.210693,0.023438,0.131655,-0.021804,-0.020944,0.999961,0.002991,-0.002826,0.007854,0.613072,-0.155340,-0.774504,-0.012465
01641,NaN,13.553363,-2.220586,-1.585097,-1.785661,0.744069,3.876345,0.651411,-0.558379,1.705851,-0.955322,0.229980,0.023193,0.135760,-0.020998,-0.015542,0.999954,0.003257,-0.002792,0.008529,0.611422,-0.158585,-0.775247,-0.002360
01642,NaN,13.672247,-1.851669,-1.815741,-1.506035,1.343102,3.956026,0.684249,-0.580114,1.851228,-0.945068,0.244873,0.029541,0.136938,-0.017188,-0.017821,0.999947,0.003421,-0.002901,0.009256,0.609704,-0.163687,-0.775517,0.006438
01643,NaN,14.404774,-1.726918,-2.585950,-0.905446,1.817820,4.782993,0.796607,-0.601514,2.012205,-0.941406,0.264160,0.037842,0.144288,-0.015716,-0.025490,0.999937,0.003983,-0.003008,0.010061,0.607816,-0.167782,-0.775945,0.017847
01644,NaN,15.310050,-1.190437,-3.286812,-0.301809,2.803719,5.635741,1.000027,-0.636900,2.185081,-0.935547,0.283447,0.035400,0.153321,-0.010067,-0.032433,0.999923,0.005000,-0.003184,0.010925,0.605940,-0.173170,-0.775894,0.028926
01645,NaN,15.965342,-0.416887,-3.799102,0.206324,4.058031,6.092442,1.237070,-0.731421,2.331285,-0.930176,0.309082,0.037109,0.159823,-0.002074,-0.037424,0.999906,0.006185,-0.003657,0.011656,0.603636,-0.177224,-0.776129,0.042889
01646,NaN,19.578959,-0.903937,-3.646978,-0.825344,5.291226,9.390131,1.617435,-0.821317,2.479344,-0.917725,0.326172,0.039062,0.196027,-0.006319,-0.035724,0.999882,0.008087,-0.004106,0.012396,0.601276,-0.181786,-0.775968,0.057397
01647,NaN,21.091928,0.944775,-3.555916,-0.898072,8.136979,9.969969,2.167615,-0.758991,2.635276,-0.912354,0.354004,0.036621,0.210900,0.012606,-0.034634,0.999847,0.010838,-0.003795,0.013176,0.599292,-0.184270,-0.775353,0.075643
01648,NaN,18.766479,1.917531,-2.366992,-1.411648,8.847794,6.954955,2.510022,-0.816231,2.705708,-0.904541,0.382080,0.034180,0.187474,0.022001,-0.022640,0.999821,0.012549,-0.004081,0.013528,0.597306,-0.186915,-0.774214,0.094245
01649,NaN,19.187597,1.841015,-1.225904,-2.726323,9.555310,6.748978,2.954791,-0.839344,2.751852,-0.890137,0.401367,0.020996,0.191645,0.021218,-0.011155,0.999787,0.014773,-0.004196,0.013758,0.595230,-0.187539,-0.772767,0.115594
01650,NaN,18.745082,3.644729,0.138566,-3.804443,11.523756,4.931177,3.421469,-0.776151,2.773933,-0.878174,0.424805,0.014404,0.186913,0.039003,0.002764,0.999750,0.017106,-0.003880,0.013869,0.593682,-0.187597,-0.770300,0.137792
01651,NaN,17.541593,6.239807,1.647598,-4.915712,13.651615,1.968582,3.662395,-0.842924,2.651750,-0.868164,0.450439,-0.000977,0.174496,0.064391,0.018380,0.999736,0.018310,-0.004214,0.013258,0.591728,-0.185628,-0.767728,0.161227
01652,NaN,18.436561,8.868942,2.565961,-6.085028,16.596235,0.801023,3.467310,-0.861910,2.566105,-0.855713,0.465576,-0.005371,0.183094,0.090572,0.028010,0.999758,0.017335,-0.004309,0.012829,0.589419,-0.184499,-0.764910,0.182914
01653,NaN,19.386276,6.989799,2.640249,-6.847607,15.636239,2.029886,3.323917,-0.664959,2.540211,-0.847900,0.489014,-0.016602,0.192866,0.071893,0.028229,0.999776,0.016618,-0.003325,0.012700,0.587395,-0.183299,-0.761400,0.204057
01654,NaN,16.434325,3.356184,0.440239,-4.354595,11.472248,1.630794,2.952408,-0.499219,2.504886,-0.835693,0.508545,-0.031738,0.163894,0.035542,0.005327,0.999810,0.014761,-0.002496,0.012524,0.585525,-0.183638,-0.757407,0.223096
01655,NaN,15.953051,-0.590454,-2.750077,-1.309492,8.632369,3.831454,2.189266,-0.352109,2.374692,-0.823242,0.521240,-0.040527,0.159631,-0.003710,-0.027268,0.999868,0.010946,-0.001760,0.011873,0.583454,-0.185472,-0.753775,0.238758
01656,NaN,17.036306,-3.514501,-1.955841,-2.368445,7.113162,6.004742,1.283034,-0.055292,2.293387,-0.810791,0.538330,-0.051270,0.170756,-0.033062,-0.019728,0.999914,0.006415,-0.000276,0.011467,0.581638,-0.190308,-0.750206,0.250339
01657,NaN,13.931089,-4.345290,-4.817389,1.201253,5.465510,4.499441,0.951162,0.079677,2.304161,-0.800781,0.557617,-0.053711,0.139778,-0.041614,-0.048430,0.999922,0.004756,0.000398,0.011521,0.579887,-0.195891,-0.746619,0.260609
01658,NaN,12.278340,0.786570,-4.066465,0.836435,8.707857,-0.253591,1.142596,-0.155074,2.398579,-0.779541,0.566162,-0.064453,0.122707,0.009569,-0.040518,0.999911,0.005713,-0.000775,0.011993,0.577242,-0.201330,-0.743158,0.271982
01659,NaN,11.168688,5.462090,-0.923280,-2.045519,11.273704,-4.899709,1.294077,-0.217232,2.378834,-0.773682,0.585449,-0.069092,0.111036,0.056002,-0.008753,0.999908,0.006470,-0.001086,0.011894,0.574441,-0.205783,-0.739657,0.283864
01660,NaN,6.619086,6.215155,-0.980521,-0.886118,9.048209,-8.950065,0.552896,-0.154354,1.790765,-0.760986,0.587646,-0.073242,0.065638,0.062768,-0.009581,0.999956,0.002764,-0.000772,0.008954,0.571862,-0.210607,-0.737433,0.291223
01661,NaN,5.153745,2.948246,-2.978075,1.486347,6.076660,-7.579591,-0.159577,-0.028878,1.286181,-0.756836,0.593994,-0.069092,0.051351,0.029789,-0.029797,0.999979,-0.000798,-0.000144,0.006431,0.569673,-0.215312,-0.736523,0.294359
01662,NaN,3.044376,-1.576156,-2.461911,1.613401,1.303094,-6.136775,-0.571506,-0.041109,0.957892,-0.752686,0.600586,-0.069092,0.030524,-0.015686,-0.024568,0.999984,-0.002858,-0.000206,0.004789,0.567478,-0.220420,-0.736432,0.295047
01663,NaN,4.732924,-9.589610,-5.909061,4.528861,-2.764217,1.193010,-0.837928,-0.276744,0.712726,-0.739990,0.604736,-0.058350,0.047752,-0.095973,-0.058623,0.999984,-0.004190,-0.001384,0.003564,0.564345,-0.224328,-0.737889,0.294467
01664,NaN,7.484810,-10.253523,-7.016053,4.775372,-1.179922,3.832266,-0.451948,-0.310282,0.586622,-0.740234,0.613281,-0.060791,0.075257,-0.102473,-0.069812,0.999992,-0.002260,-0.001551,0.002933,0.561816,-0.227325,-0.738759,0.294825
01665,NaN,6.296601,-7.238759,-3.771249,1.925720,-0.350401,0.308476,-0.063223,-0.091493,0.117336,-0.735596,0.600342,-0.062500,0.063026,-0.072363,-0.037661,1.000000,-0.000316,-0.000457,0.000587,0.561117,-0.227223,-0.739181,0.295176
01666,NaN,4.109824,-4.127802,-2.615612,1.415726,0.226907,-3.590549,0.294029,0.172569,-0.358008,-0.739746,0.600586,-0.069092,0.041002,-0.041313,-0.026252,0.999997,0.001470,0.000863,-0.001790,0.562607,-0.225345,-0.738660,0.295085
01667,NaN,3.138116,-1.716173,-1.063921,0.202957,1.024213,-6.230142,0.497534,0.447385,-0.854623,-0.741699,0.592041,-0.077393,0.031284,-0.017269,-0.010752,0.999985,0.002488,0.002237,-0.004273,0.565832,-0.220626,-0.737893,0.294402
01668,NaN,0.877800,-0.385473,-0.059782,-0.165473,0.303056,-8.916331,0.504427,0.588669,-1.290560,-0.743164,0.576904,-0.087891,0.008751,-0.003910,-0.000633,0.999972,0.002522,0.002943,-0.006453,0.570435,-0.215314,-0.736880,0.291978
01669,NaN,0.680966,-0.107746,0.596307,-0.747653,0.247927,-9.353955,0.339354,0.597451,-1.656865,-0.753418,0.557617,-0.094238,0.006818,-0.001144,0.005941,0.999960,0.001697,0.002987,-0.008284,0.575170,-0.208329,-0.736678,0.288243
01670,NaN,0.242812,-0.127421,0.398069,-0.442199,-0.015486,-9.618084,0.146308,0.640056,-1.849158,-0.765869,0.549072,-0.100586,0.002429,-0.001300,0.003972,0.999952,0.000732,0.003200,-0.009246,0.580309,-0.202026,-0.736510,0.282807
01671,NaN,0.661846,-0.056615,-0.273770,0.106208,0.415000,-9.235911,-0.240609,0.520261,-2.126358,-0.773438,0.521240,-0.102295,0.006605,-0.000640,-0.002754,0.999939,-0.001203,0.002601,-0.010632,0.584672,-0.194699,-0.737708,0.275749
01672,NaN,0.480503,-0.217781,-0.859401,0.728419,0.270301,-9.169882,-0.321295,0.644525,-2.362363,-0.788086,0.508545,-0.113037,0.004751,-0.002248,-0.008606,0.999924,-0.001606,0.003223,-0.011812,0.589941,-0.187814,-0.738504,0.267033
01673,NaN,0.954297,-0.077733,-1.425902,1.168441,0.738843,-8.793526,-0.356778,0.644120,-2.585402,-0.795898,0.487061,-0.112549,0.009486,-0.000926,-0.014288,0.999910,-0.001784,0.003221,-0.012927,0.595059,-0.179104,-0.739719,0.258152
01674,NaN,1.285357,1.394316,-0.408441,0.046399,1.919738,-9.538289,-0.109387,0.527440,-2.871864,-0.812256,0.459229,-0.123047,0.013041,0.013755,-0.004126,0.999893,-0.000547,0.002637,-0.014359,0.600547,-0.169485,-0.740779,0.248727
01675,NaN,2.659365,3.421543,2.223014,-2.924351,3.893620,-9.896157,-0.214662,0.812141,-3.136577,-0.815674,0.431396,-0.118408,0.027216,0.033816,0.022084,0.999868,-0.001073,0.004061,-0.015682,0.606901,-0.158470,-0.741407,0.238483
01676,NaN,1.704898,4.576488,1.827655,-2.395774,4.452885,-11.085536,-0.458668,0.887275,-3.672746,-0.831787,0.401611,-0.133057,0.017967,0.045482,0.018094,0.999819,-0.002293,0.004436,-0.018363,0.614089,-0.147292,-0.742033,0.224916
01677,NaN,4.385219,2.900083,1.159288,-2.179870,4.427624,-7.662179,-0.530768,0.866447,-4.137300,-0.849854,0.367188,-0.141113,0.044489,0.028115,0.011326,0.999773,-0.002654,0.004332,-0.020685,0.621202,-0.133567,-0.743036,0.210155
01678,NaN,5.818428,1.098619,0.710579,-1.850344,3.438670,-5.305814,-0.738765,0.977953,-4.403596,-0.859375,0.330811,-0.138428,0.058441,0.009727,0.006783,0.999739,-0.003694,0.004889,-0.022016,0.628800,-0.120510,-0.743518,0.193051
01679,NaN,6.298306,-1.235112,0.377159,-1.391490,1.358487,-3.685083,-0.900268,0.962309,-4.558689,-0.870850,0.292236,-0.148682,0.062697,-0.013766,0.003529,0.999719,-0.004501,0.004811,-0.022791,0.635883,-0.106367,-0.744044,0.175318
01680,NaN,7.006759,-3.045324,-0.928652,-0.030314,-0.182083,-2.119474,-0.822857,0.876332,-4.698161,-0.877930,0.247314,-0.156738,0.069285,-0.032126,-0.009461,0.999706,-0.004114,0.004381,-0.023489,0.642631,-0.092258,-0.744257,0.156828
01681,NaN,7.958480,-2.879443,-1.577709,0.540773,-0.020154,-1.221411,-0.546409,0.861242,-4.803914,-0.889404,0.208740,-0.156006,0.078793,-0.030737,-0.016035,0.999699,-0.002732,0.004306,-0.024017,0.649280,-0.077186,-0.743871,0.138325
01682,NaN,9.223287,-1.793886,-0.837361,-0.332060,0.872806,-0.426665,-0.169743,0.909477,-4.944840,-0.894287,0.163818,-0.170410,0.091712,-0.020218,-0.008775,0.999684,-0.000849,0.004547,-0.024722,0.655806,-0.059966,-0.742708,0.121272
01683,NaN,10.602670,-1.418767,0.025202,-1.258417,0.993728,0.762446,-0.091543,0.923022,-5.102102,-0.897217,0.123047,-0.180664,0.105619,-0.016886,-0.000229,0.999664,-0.000458,0.004615,-0.025508,0.662168,-0.042244,-0.740997,0.103307
01684,NaN,11.678898,-1.359368,0.252205,-1.468027,0.677626,1.834688,-0.234004,0.879402,-5.252542,-0.897461,0.069580,-0.186279,0.116388,-0.016652,0.002028,0.999645,-0.001170,0.004396,-0.026260,0.667850,-0.024014,-0.739053,0.084854
01685,NaN,12.582908,-2.202405,-0.687864,-0.412863,-0.574757,2.958850,-0.446371,0.799947,-5.370315,-0.900391,0.028809,-0.196289,0.125148,-0.025407,-0.007326,0.999629,-0.002232,0.003999,-0.026848,0.672839,-0.006365,-0.736938,0.064569
01686,NaN,14.075775,-3.326182,-1.437042,0.437600,-2.210567,4.544304,-0.355095,0.718168,-5.516525,-0.896484,-0.020508,-0.199951,0.139716,-0.037151,-0.014810,0.999612,-0.001775,0.003590,-0.027579,0.676990,0.012522,-0.734528,0.044681
01687,NaN,14.825727,-2.918029,-1.604019,0.675282,-2.571861,5.145837,-0.309944,0.674603,-5.631680,-0.892334,-0.073975,-0.207520,0.147302,-0.033363,-0.016489,0.999597,-0.001550,0.003373,-0.028155,0.680493,0.031663,-0.731677,0.023982
01688,NaN,15.023766,-2.385249,-2.096684,1.272882,-2.844075,5.221460,-0.395560,0.600526,-5.690099,-0.884277,-0.121094,-0.213379,0.149414,-0.028154,-0.021363,0.999589,-0.001978,0.003002,-0.028447,0.683152,0.051033,-0.728483,0.003287
01689,NaN,16.028175,-2.053745,-2.470272,1.713926,-3.436029,6.074583,-0.389211,0.563541,-5.711586,-0.878174,-0.170410,-0.218994,0.159537,-0.025150,-0.025107,0.999586,-0.001946,0.002817,-0.028554,0.685106,0.070193,-0.724832,-0.017940
01690,NaN,17.205942,-1.395004,-2.771737,2.070036,-3.840962,7.115124,-0.472989,0.582771,-5.712900,-0.857178,-0.215576,-0.218262,0.171485,-0.018921,-0.028177,0.999585,-0.002365,0.002913,-0.028561,0.686586,0.089284,-0.720492,-0.038985
01691,NaN,17.831199,-2.074933,-3.019640,2.510664,-5.582247,7.328424,-0.788060,0.601539,-5.706998,-0.840576,-0.260498,-0.230225,0.177529,-0.025943,-0.030636,0.999581,-0.003940,0.003007,-0.028531,0.687674,0.106994,-0.715456,-0.061474
01692,NaN,18.912053,-2.895431,-3.712219,3.382746,-7.594885,7.811088,-1.216868,0.566756,-5.663840,-0.823975,-0.305420,-0.235840,0.188090,-0.034518,-0.037457,0.999577,-0.006083,0.002833,-0.028315,0.688320,0.123185,-0.709807,-0.084945
01693,NaN,19.469433,-4.327636,-5.628401,5.472723,-10.071275,7.448811,-1.887679,0.470972,-5.605136,-0.801270,-0.339844,-0.243896,0.193237,-0.049237,-0.056294,0.999560,-0.009437,0.002355,-0.028022,0.688440,0.136598,-0.703646,-0.110787
01694,NaN,20.221866,-6.989802,-7.101063,7.050579,-13.818001,6.540014,-2.314572,0.348755,-5.440650,-0.778564,-0.376221,-0.249756,0.200080,-0.076179,-0.070503,0.999562,-0.011571,0.001744,-0.027199,0.687932,0.147890,-0.697147,-0.137343
01695,NaN,21.975204,-10.019765,-6.782816,6.686004,-18.276847,6.011450,-2.003251,0.317132,-5.210784,-0.753662,-0.406250,-0.255615,0.216924,-0.106549,-0.067128,0.999609,-0.010015,0.001585,-0.026051,0.686683,0.159347,-0.690561,-0.161864
01696,NaN,22.088953,-12.142132,-6.245619,6.042852,-21.069488,4.107578,-1.231767,0.335189,-4.967397,-0.739502,-0.440674,-0.267822,0.217673,-0.127238,-0.062051,0.999671,-0.006158,0.001676,-0.024834,0.684578,0.172474,-0.684237,-0.182827
01697,NaN,18.170975,-15.653109,-7.008765,6.712322,-22.802720,-2.119006,-0.648586,0.195383,-4.707270,-0.717285,-0.464355,-0.265137,0.177887,-0.160975,-0.069745,0.999717,-0.003243,0.000977,-0.023534,0.681443,0.186748,-0.678675,-0.200400
01698,NaN,15.163151,-18.920955,-8.253885,7.864417,-24.261060,-7.463957,0.188035,-0.076755,-4.241245,-0.698730,-0.500732,-0.262451,0.147607,-0.192291,-0.082662,0.999775,0.000940,-0.000384,-0.021205,0.676606,0.201648,-0.675021,-0.214215
01699,NaN,12.371017,-20.735590,-9.493932,9.229631,-24.175966,-11.664012,1.041495,-0.352217,-3.466052,-0.687256,-0.522217,-0.247070,0.120266,-0.208963,-0.095811,0.999835,0.005207,-0.001761,-0.017329,0.670853,0.216993,-0.673586,-0.221702
01700,NaN,12.067513,-23.597275,-7.122697,7.125225,-26.133437,-14.220430,1.854363,-0.457253,-2.294629,-0.680420,-0.532959,-0.236084,0.118128,-0.236666,-0.073147,0.999889,0.009271,-0.002286,-0.011473,0.664685,0.230397,-0.674621,-0.223602
01701,NaN,12.181438,-20.047002,-1.977808,2.367030,-23.283133,-12.355028,1.799875,-0.380218,-0.847511,-0.680420,-0.535156,-0.216797,0.121004,-0.200796,-0.021354,0.999949,0.008999,-0.001901,-0.004237,0.660829,0.239634,-0.676631,-0.219206
01702,NaN,11.797373,-14.445695,-0.813301,1.176247,-18.624092,-9.287010,0.357195,-0.361287,0.519228,-0.685059,-0.526611,-0.223389,0.118363,-0.144135,-0.008177,0.999993,0.001786,-0.001806,0.002596,0.659745,0.238647,-0.678844,-0.216691
01703,NaN,12.392933,-11.810992,-2.866402,3.118031,-16.830000,-6.927982,-0.950608,-0.284350,1.675430,-0.700684,-0.513672,-0.221436,0.124954,-0.117200,-0.027928,0.999953,-0.004753,-0.001422,0.008377,0.662304,0.230579,-0.680397,-0.212714
01704,NaN,10.731356,-11.914887,-3.965370,4.057236,-15.905539,-7.971991,-1.627100,-0.167125,2.526264,-0.716553,-0.488037,-0.230469,0.108842,-0.118097,-0.038600,0.999887,-0.008135,-0.000836,0.012631,0.666224,0.216379,-0.682065,-0.210029
01705,NaN,12.125459,-10.032543,-4.475629,4.357046,-15.115243,-5.314375,-2.112944,-0.219001,3.170886,-0.728027,-0.464355,-0.243896,0.122878,-0.098850,-0.043573,0.999818,-0.010564,-0.001095,0.015853,0.671630,0.199507,-0.683580,-0.204519
01706,NaN,9.107196,-0.348408,-3.631945,3.445416,-5.244669,-2.271286,-2.552638,-0.343976,3.129492,-0.744385,-0.429932,-0.250732,0.091179,-0.002520,-0.036126,0.999795,-0.012762,-0.001720,0.015646,0.676064,0.179833,-0.685116,-0.203011
01707,NaN,18.845288,25.724931,1.303145,-0.789634,12.624507,19.487917,-2.011013,-0.112983,2.769344,-0.749268,-0.412842,-0.253174,0.184859,0.259940,0.010532,0.999853,-0.010055,-0.000565,0.013846,0.680854,0.164746,-0.685617,-0.198055
01708,NaN,17.382041,43.523771,15.817423,-13.838164,30.098934,26.917952,-1.556680,0.328412,0.788908,-0.753906,-0.399902,-0.261963,0.172354,0.437132,0.154493,0.999961,-0.007783,0.001642,0.003944,0.684018,0.157047,-0.683589,-0.200402
01709,NaN,7.777745,-12.305042,3.668693,-4.689270,-14.227561,-8.849673,-3.695004,-0.580432,1.206177,-0.763428,-0.376221,-0.270996,0.078404,-0.121870,0.039173,0.999807,-0.018474,-0.002902,0.006030,0.686528,0.140698,-0.682569,-0.207326
01710,NaN,15.089027,-19.192943,-5.368669,2.911698,-24.456519,-5.547541,-3.319765,-1.012781,2.523878,-0.777100,-0.350586,-0.275879,0.153562,-0.190850,-0.049740,0.999770,-0.016598,-0.005064,0.012618,0.687867,0.119593,-0.684231,-0.210631
01711,NaN,18.390816,-11.524379,-4.948924,2.940108,-18.941624,1.503351,-1.819211,-0.827800,3.094291,-0.791016,-0.320557,-0.269775,0.185866,-0.112817,-0.047689,0.999830,-0.009096,-0.004139,0.015471,0.689864,0.103106,-0.686835,-0.204241
01712,NaN,15.028138,-3.077563,0.880466,-1.761404,-8.807371,2.653299,-1.119215,-0.902231,2.802744,-0.804688,-0.299072,-0.261719,0.150650,-0.028614,0.009648,0.999876,-0.005596,-0.004511,0.014013,0.690122,0.088672,-0.690171,-0.198830
01713,NaN,9.640443,-3.108731,2.375474,-3.131767,-6.163664,-2.038426,-1.102280,-0.948358,2.464366,-0.807861,-0.275391,-0.264160,0.096662,-0.029764,0.024379,0.999898,-0.005511,-0.004742,0.012321,0.690331,0.076824,-0.693362,-0.191806
01714,NaN,7.154380,-2.929174,2.578622,-3.287913,-4.840182,-4.140548,-1.029133,-0.793299,2.196586,-0.819580,-0.247559,-0.258301,0.071755,-0.028370,0.026218,0.999919,-0.005146,-0.003966,0.010983,0.690029,0.064874,-0.695908,-0.188053
01715,NaN,5.968384,1.458774,-3.704138,3.657761,-1.315195,-3.782692,-1.302669,-0.857854,1.935965,-0.828613,-0.232666,-0.250000,0.059699,0.014925,-0.036882,0.999923,-0.006513,-0.004289,0.009680,0.689827,0.054296,-0.698261,-0.183361
01716,NaN,4.393418,3.078579,-12.288871,12.425796,-0.932797,-4.860826,-2.273724,-1.358055,1.659079,-0.835938,-0.211182,-0.248047,0.044519,0.029756,-0.122930,0.999878,-0.011368,-0.006790,0.008295,0.687142,0.039394,-0.701233,-0.185895
01717,NaN,10.637707,-4.176435,-14.977103,13.137351,-10.300266,-1.082847,-2.692834,-1.798372,1.706578,-0.843262,-0.187744,-0.229248,0.108077,-0.042850,-0.148232,0.999833,-0.013463,-0.008991,0.008532,0.683388,0.023952,-0.705283,-0.187039
01718,NaN,17.424137,-7.525748,-9.678230,6.537304,-14.111279,4.748160,-0.360474,-1.163270,2.327749,-0.845947,-0.170410,-0.220947,0.175661,-0.073392,-0.095630,0.999914,-0.001802,-0.005816,0.011638,0.681449,0.013405,-0.709144,-0.180451
01719,NaN,9.755258,-4.557205,0.567993,-2.217068,-6.624012,-1.599358,0.584105,-0.292379,2.090116,-0.854980,-0.159668,-0.227539,0.098014,-0.044566,0.005692,0.999940,0.002920,-0.001462,0.010450,0.682722,0.009340,-0.710978,-0.168265
01720,NaN,5.748809,-2.576645,-1.029345,0.049657,-4.015993,-4.851269,0.083162,-0.590716,1.715638,-0.857422,-0.149170,-0.212646,0.057736,-0.025268,-0.010134,0.999959,0.000416,-0.002954,0.008578,0.682035,0.003010,-0.713121,-0.162104
01721,NaN,10.408878,-1.953058,-1.451639,0.281395,-4.416569,-0.082424,0.183391,-0.623103,1.694358,-0.862549,-0.129883,-0.208740,0.104294,-0.018634,-0.014209,0.999959,0.000917,-0.003115,0.008472,0.681614,-0.001238,-0.715623,-0.152593
01722,NaN,10.311980,-4.005502,-1.645384,0.040699,-6.227601,-0.522884,0.473455,-0.373158,1.659951,-0.860840,-0.116943,-0.206787,0.103478,-0.039158,-0.016354,0.999961,0.002367,-0.001866,0.008300,0.681522,-0.005867,-0.717223,-0.145203
01723,NaN,10.024686,-3.643022,-0.966420,-0.460615,-5.507328,-0.639117,1.101944,-0.237027,1.578426,-0.867676,-0.106201,-0.207031,0.100541,-0.035584,-0.009743,0.999953,0.005510,-0.001185,0.007892,0.682215,-0.006223,-0.718983,-0.132693
01724,NaN,9.595873,-1.666132,-0.179123,-0.794121,-3.225455,-0.655568,1.242718,-0.274646,1.499808,-0.868164,-0.093262,-0.196533,0.096082,-0.015930,-0.001760,0.999952,0.006213,-0.001373,0.007499,0.682229,-0.007576,-0.720667,-0.123063
01725,NaN,9.483423,0.282630,-0.137171,-0.472667,-1.151032,-0.406098,0.812862,-0.456925,1.451428,-0.870605,-0.082520,-0.196777,0.094813,0.003519,-0.001142,0.999963,0.004064,-0.002285,0.007257,0.681812,-0.008556,-0.722862,-0.111936
01726,NaN,9.513212,-0.170371,0.392914,-1.095804,-1.367250,-0.452509,0.187857,-0.523704,1.318200,-0.870850,-0.073975,-0.198975,0.095130,-0.001081,0.004177,0.999974,0.000939,-0.002618,0.006591,0.680647,-0.012992,-0.724683,-0.106706
01727,NaN,9.751016,-0.496698,0.163273,-0.963859,-1.614928,-0.230553,-0.332188,-0.567631,1.164728,-0.877686,-0.063477,-0.181885,0.097532,-0.004396,0.001917,0.999978,-0.001661,-0.002838,0.005824,0.679455,-0.016890,-0.726576,-0.100710
01728,NaN,10.098174,0.558956,0.440616,-1.130471,-0.449314,0.237110,-0.797079,-0.619384,1.127539,-0.874023,-0.048340,-0.182129,0.100934,0.006177,0.004695,0.999971,-0.003985,-0.003097,0.005638,0.677685,-0.024025,-0.728168,-0.099688
01729,NaN,9.680847,-0.574264,-0.307522,-0.590534,-1.516273,-0.247430,-1.163594,-0.654937,1.026438,-0.878662,-0.037598,-0.177979,0.096846,-0.005262,-0.002727,0.999965,-0.005818,-0.003275,0.005132,0.675902,-0.030281,-0.729925,-0.097204
01730,NaN,9.717552,-2.735608,-2.280481,0.895148,-3.902018,-0.268753,-0.991034,-0.661969,0.955261,-0.881104,-0.031250,-0.167480,0.097380,-0.027003,-0.022348,0.999971,-0.004955,-0.003310,0.004776,0.673779,-0.037458,-0.731519,-0.097457
01731,NaN,9.922547,-3.158809,-2.901805,1.363422,-4.334083,-0.003961,-0.431234,-0.614685,0.924893,-0.879639,-0.014160,-0.163330,0.099459,-0.031191,-0.028645,0.999982,-0.002156,-0.003073,0.004624,0.672116,-0.040822,-0.733493,-0.092635
01732,NaN,9.786068,-1.964089,-2.810588,1.455252,-3.045843,-0.008184,-0.034740,-0.557242,0.895621,-0.877441,-0.011963,-0.161377,0.098025,-0.019207,-0.027830,0.999986,-0.000174,-0.002786,0.004478,0.670470,-0.044502,-0.735161,-0.089603
01733,NaN,9.629620,-1.988765,-2.747134,1.387093,-2.924468,-0.130017,0.158075,-0.496414,0.851514,-0.884277,-0.001221,-0.157227,0.096447,-0.019456,-0.027248,0.999988,0.000790,-0.002482,0.004258,0.669241,-0.045520,-0.737007,-0.082854
01734,NaN,9.485817,-2.013429,-3.189229,1.804294,-2.931920,-0.202621,0.325257,-0.415715,0.801255,-0.882324,0.000977,-0.148682,0.095004,-0.019702,-0.031727,0.999988,0.001626,-0.002079,0.004006,0.668105,-0.047577,-0.738346,-0.078844
01735,NaN,9.639633,-1.041245,-3.163030,1.926438,-1.849532,0.030014,0.458354,-0.376826,0.762862,-0.888916,0.005127,-0.146729,0.096494,-0.009972,-0.031472,0.999988,0.002292,-0.001884,0.003814,0.667259,-0.047187,-0.739903,-0.071293
01736,NaN,9.609772,-0.517077,-2.793118,1.634800,-1.180489,0.003107,0.461759,-0.349225,0.718867,-0.880615,0.013672,-0.138184,0.096164,-0.004761,-0.027775,0.999989,0.002309,-0.001746,0.003594,0.666322,-0.048452,-0.741059,-0.067067
01737,NaN,9.325076,-1.097634,-2.045359,0.829404,-1.519275,-0.360239,0.252638,-0.318950,0.666021,-0.880859,0.020020,-0.136230,0.093319,-0.010640,-0.020318,0.999992,0.001263,-0.001595,0.003330,0.665518,-0.048365,-0.742341,-0.060634
01738,NaN,9.529779,-1.582434,-1.370741,0.050311,-1.828952,-0.228756,0.015852,-0.321114,0.605167,-0.883301,0.028809,-0.138428,0.095367,-0.015535,-0.013556,0.999994,0.000079,-0.001606,0.003026,0.664506,-0.050678,-0.743268,-0.058447
01739,NaN,9.722645,-1.811328,-1.203585,-0.182902,-1.948857,-0.043986,-0.131627,-0.321202,0.552295,-0.887695,0.030762,-0.140625,0.097295,-0.017853,-0.011868,0.999995,-0.000658,-0.001606,0.002761,0.663505,-0.051443,-0.744457,-0.053832
01740,NaN,10.116672,-2.390000,-1.903733,0.345706,-2.566351,0.433158,-0.119413,-0.327944,0.517622,-0.885498,0.032959,-0.132080,0.101259,-0.023649,-0.018857,0.999995,-0.000597,-0.001640,0.002588,0.662386,-0.053877,-0.745381,-0.052438
01741,NaN,10.186879,-2.078819,-2.261819,0.721753,-2.226858,0.566603,0.010271,-0.312923,0.499223,-0.887939,0.037354,-0.129883,0.101955,-0.020533,-0.022460,0.999996,0.000051,-0.001565,0.002496,0.661394,-0.053970,-0.746585,-0.047493
01742,NaN,9.834806,-1.670867,-2.547812,1.079262,-1.815174,0.264346,0.080221,-0.294826,0.476005,-0.887939,0.039307,-0.127930,0.098425,-0.016464,-0.025340,0.999996,0.000401,-0.001474,0.002380,0.660421,-0.055576,-0.747452,-0.045502
01743,NaN,9.704561,-1.616920,-2.726062,1.266380,-1.706352,0.172739,0.113426,-0.291348,0.459212,-0.884033,0.047852,-0.123779,0.097122,-0.015931,-0.027128,0.999996,0.000567,-0.001457,0.002296,0.659480,-0.055200,-0.748605,-0.040376
01744,NaN,9.706426,-1.588587,-2.456313,0.983942,-1.589870,0.151031,0.156177,-0.288836,0.459234,-0.884033,0.050049,-0.121582,0.097136,-0.015644,-0.024435,0.999996,0.000781,-0.001444,0.002296,0.658527,-0.056487,-0.749463,-0.038159
01745,NaN,9.389560,-1.252205,-2.244950,0.847530,-1.159832,-0.184195,0.197715,-0.297961,0.486770,-0.886230,0.054443,-0.119629,0.093959,-0.012271,-0.022322,0.999995,0.000989,-0.001490,0.002434,0.657540,-0.055989,-0.750623,-0.032732
01746,NaN,9.698328,-1.286188,-2.127769,0.667055,-1.109439,0.115208,0.189257,-0.308271,0.530091,-0.886475,0.060791,-0.121826,0.097050,-0.012585,-0.021140,0.999995,0.000946,-0.001541,0.002650,0.656515,-0.057432,-0.751519,-0.030153
01747,NaN,9.637887,-1.015123,-2.008807,0.573088,-0.743484,0.039880,0.163655,-0.316045,0.579635,-0.891113,0.065186,-0.113281,0.096439,-0.009855,-0.019944,0.999994,0.000818,-0.001580,0.002898,0.655412,-0.057469,-0.752677,-0.024686
01748,NaN,9.522528,-1.265233,-2.408670,0.928882,-0.977561,-0.001358,0.128932,-0.325813,0.623224,-0.886719,0.065186,-0.106934,0.095303,-0.012340,-0.023940,0.999994,0.000645,-0.001629,0.003116,0.654290,-0.059458,-0.753581,-0.022025
01749,NaN,9.293827,-1.362788,-2.678030,1.193694,-1.023223,-0.172568,0.143029,-0.352277,0.669512,-0.880615,0.073730,-0.106934,0.093030,-0.013297,-0.026626,0.999993,0.000715,-0.001761,0.003348,0.653001,-0.059989,-0.754797,-0.016494
01750,NaN,9.564490,-1.423607,-2.872234,1.314136,-1.009394,0.137661,0.223623,-0.369640,0.717233,-0.887451,0.082275,-0.107178,0.095748,-0.013861,-0.028561,0.999991,0.001118,-0.001848,0.003586,0.651720,-0.062022,-0.755805,-0.013156
01751,NaN,9.804412,-1.511227,-2.958952,1.332564,-0.975757,0.406762,0.281731,-0.385742,0.769643,-0.885498,0.090820,-0.100830,0.098158,-0.014693,-0.029421,0.999990,0.001409,-0.001929,0.003848,0.650292,-0.062567,-0.757072,-0.006931
01752,NaN,9.816773,-1.429625,-3.373207,1.717804,-0.840020,0.489452,0.326681,-0.414933,0.789761,-0.885498,0.093018,-0.100830,0.098293,-0.013853,-0.033551,0.999989,0.001633,-0.002075,0.003949,0.648836,-0.064535,-0.758181,-0.002956
01753,NaN,10.115516,-1.696823,-3.362893,1.608278,-0.951284,0.818375,0.402096,-0.435321,0.811055,-0.887939,0.101562,-0.092285,0.101296,-0.016490,-0.033442,0.999987,0.002010,-0.002177,0.004055,0.647189,-0.064933,-0.759550,0.003704
01754,NaN,10.492279,-2.182732,-3.045864,1.161659,-1.263755,1.195579,0.462643,-0.434923,0.847513,-0.888184,0.107910,-0.096680,0.105080,-0.021312,-0.030280,0.999986,0.002313,-0.002175,0.004238,0.645655,-0.066673,-0.760667,0.008386
01755,NaN,10.745315,-1.800914,-2.067392,0.166071,-0.655742,1.256211,0.517682,-0.410836,0.894764,-0.884521,0.120605,-0.082031,0.107574,-0.017475,-0.020499,0.999985,0.002588,-0.002054,0.004474,0.644061,-0.067099,-0.761867,0.015584
01756,NaN,10.436346,-1.116973,-1.762011,-0.058558,0.115705,0.829290,0.480578,-0.412295,0.958657,-0.880371,0.127197,-0.084229,0.104451,-0.010627,-0.017431,0.999984,0.002403,-0.002061,0.004793,0.642557,-0.069198,-0.762826,0.020682
01757,NaN,10.840314,-1.439094,-1.675278,-0.270228,-0.010924,1.246945,0.360857,-0.422464,1.040274,-0.882568,0.131348,-0.079834,0.108511,-0.013797,-0.016549,0.999983,0.001804,-0.002112,0.005201,0.640775,-0.070772,-0.763962,0.027579
01758,NaN,11.089741,-1.479593,-1.593042,-0.432388,0.118145,1.479204,0.278991,-0.429468,1.130416,-0.881104,0.146484,-0.080078,0.111012,-0.014147,-0.015712,0.999981,0.001395,-0.002147,0.005652,0.639056,-0.074164,-0.764888,0.032461
01759,NaN,11.373914,-2.043013,-1.675970,-0.480196,-0.243148,1.851665,0.232634,-0.447584,1.192235,-0.876953,0.152832,-0.073730,0.113895,-0.019732,-0.016528,0.999979,0.001163,-0.002238,0.005961,0.637032,-0.076812,-0.765999,0.039190
01760,NaN,11.679649,-2.817533,-1.850172,-0.458478,-0.809840,2.307856,0.284501,-0.472593,1.234975,-0.877441,0.167725,-0.067627,0.117011,-0.027427,-0.018265,0.999977,0.001422,-0.002363,0.006175,0.635064,-0.080570,-0.766960,0.044437
01761,NaN,12.133829,-2.604346,-1.524126,-0.889898,-0.330819,2.654529,0.368212,-0.468303,1.296148,-0.877930,0.182861,-0.070068,0.121539,-0.025228,-0.015004,0.999975,0.001841,-0.002341,0.006481,0.632907,-0.083252,-0.767989,0.051874
01762,NaN,12.117192,-2.038293,-1.289436,-1.125413,0.399812,2.484245,0.323772,-0.453970,1.363456,-0.874023,0.187012,-0.061523,0.121336,-0.019536,-0.012651,0.999973,0.001619,-0.002270,0.006817,0.630917,-0.087372,-0.768756,0.057662
01763,NaN,11.529507,-2.169459,-1.600472,-0.763806,0.329810,1.998440,0.260682,-0.463171,1.433221,-0.868164,0.204102,-0.055176,0.115483,-0.020847,-0.015765,0.999971,0.001303,-0.002316,0.007166,0.628603,-0.090993,-0.769648,0.064965
01764,NaN,11.319477,-2.433818,-1.445098,-0.936943,0.207027,1.815669,0.278260,-0.503574,1.515652,-0.872559,0.212891,-0.055420,0.113411,-0.023459,-0.014199,0.999967,0.001391,-0.002518,0.007578,0.626267,-0.095814,-0.770428,0.071069
01765,NaN,11.302677,-2.485227,-1.190929,-1.236262,0.352399,1.749724,0.359007,-0.542123,1.607165,-0.866943,0.234131,-0.049316,0.113253,-0.023922,-0.011646,0.999962,0.001795,-0.002711,0.008036,0.623531,-0.099833,-0.771345,0.079184
01766,NaN,12.119930,-1.949518,-0.630774,-1.970765,1.283289,2.251984,0.365174,-0.526751,1.736025,-0.861084,0.251221,-0.045166,0.121378,-0.018431,-0.006023,0.999957,0.001826,-0.002634,0.008680,0.620955,-0.105207,-0.771944,0.086308
01767,NaN,11.859503,-1.866018,-1.103531,-1.505978,1.525349,2.051051,0.331311,-0.508026,1.882887,-0.861328,0.260010,-0.045410,0.118791,-0.017524,-0.010763,0.999951,0.001657,-0.002540,0.009414,0.618094,-0.110448,-0.772487,0.095003
01768,NaN,12.550562,-1.334570,-2.108533,-0.693803,2.488740,2.719764,0.301791,-0.502905,2.022269,-0.853516,0.279053,-0.036865,0.125684,-0.012044,-0.020788,0.999945,0.001509,-0.002514,0.010111,0.615310,-0.117111,-0.772738,0.102734
01769,NaN,13.271762,-1.460887,-3.641167,0.574324,2.904987,3.706012,0.427202,-0.546341,2.118657,-0.845703,0.300537,-0.037354,0.132961,-0.013124,-0.036078,0.999938,0.002136,-0.002732,0.010593,0.612087,-0.123008,-0.773039,0.112379
01770,NaN,14.031673,-1.628994,-4.182661,0.859806,3.325220,4.513147,0.708793,-0.625608,2.189254,-0.846191,0.315674,-0.028809,0.140613,-0.014604,-0.041441,0.999929,0.003544,-0.003128,0.010946,0.608817,-0.128970,-0.773153,0.122239
01771,NaN,15.253307,-1.539554,-4.161579,0.481444,4.207881,5.497460,1.112910,-0.695731,2.256305,-0.833984,0.336914,-0.033447,0.152836,-0.013443,-0.041163,0.999915,0.005564,-0.003479,0.011281,0.605174,-0.133275,-0.773185,0.134856
01772,NaN,17.047701,-0.329155,-3.630214,-0.491083,6.372056,6.406093,1.474589,-0.688960,2.310876,-0.832520,0.354004,-0.031494,0.170622,-0.001056,-0.035728,0.999900,0.007373,-0.003445,0.011554,0.601860,-0.137298,-0.772657,0.148038
01773,NaN,17.148162,1.602266,-3.581946,-0.622744,8.609339,5.514687,1.732604,-0.656393,2.384426,-0.826904,0.377686,-0.027588,0.171388,0.018373,-0.035104,0.999886,0.008663,-0.003282,0.011922,0.598446,-0.140312,-0.771718,0.163173
01774,NaN,15.595292,2.228532,-2.695237,-1.225213,8.849634,3.439067,2.029366,-0.798732,2.383080,-0.818848,0.396973,-0.027832,0.155776,0.024410,-0.026089,0.999870,0.010146,-0.003993,0.011915,0.594749,-0.142795,-0.770678,0.178716
01775,NaN,18.998526,3.604797,-2.310512,-2.646632,11.896143,5.376999,2.318130,-0.854353,2.432137,-0.802246,0.414062,-0.032227,0.189621,0.038614,-0.021857,0.999850,0.011590,-0.004272,0.012160,0.590644,-0.144145,-0.769360,0.196080
01776,NaN,19.312065,6.653620,-1.280077,-4.013875,14.956731,3.567003,2.665057,-0.857621,2.496110,-0.802979,0.435547,-0.039062,0.192319,0.069095,-0.011066,0.999824,0.013325,-0.004288,0.012480,0.586696,-0.145040,-0.767342,0.214329
01777,NaN,18.220868,7.898525,-0.714586,-4.625963,15.717369,1.431371,2.669826,-0.905982,2.482213,-0.795166,0.454834,-0.039307,0.181236,0.081317,-0.005248,0.999824,0.013348,-0.004530,0.012410,0.582256,-0.145566,-0.765234,0.232819
01778,NaN,17.968202,4.260909,-0.527710,-4.850477,12.733014,2.661647,2.686005,-0.859986,2.467522,-0.782715,0.469727,-0.041504,0.179156,0.044880,-0.003913,0.999824,0.013429,-0.004300,0.012337,0.577926,-0.146189,-0.762677,0.250907
01779,NaN,17.907450,-1.971947,-1.506934,-3.679966,8.073922,5.938042,2.772469,-0.812338,2.457333,-0.770264,0.486816,-0.048340,0.179357,-0.017312,-0.014592,0.999820,0.013862,-0.004061,0.012286,0.573619,-0.146498,-0.759617,0.269224
01780,NaN,15.464974,-7.145026,-3.439711,-0.755032,3.506799,7.191923,2.704879,-0.740471,2.551898,-0.764648,0.510498,-0.059326,0.155669,-0.069000,-0.034766,0.999820,0.013524,-0.003702,0.012759,0.569227,-0.147437,-0.756089,0.287352
01781,NaN,16.139503,-3.660453,-4.814113,-0.107419,7.501851,5.703255,2.384105,-0.723121,2.538537,-0.754395,0.527588,-0.065918,0.162011,-0.033978,-0.047972,0.999842,0.011920,-0.003615,0.012692,0.564506,-0.149241,-0.752726,0.304079
01782,NaN,14.799147,0.555627,-3.118801,-1.914125,9.878790,1.491349,2.047300,-0.611217,2.328999,-0.744385,0.542725,-0.068115,0.148005,0.007595,-0.030665,0.999875,0.010236,-0.003056,0.011645,0.560098,-0.151308,-0.749501,0.318818
01783,NaN,12.731575,0.543803,-1.408685,-2.960247,8.367679,-0.561458,1.937668,-0.471617,1.951028,-0.738037,0.551270,-0.079102,0.127286,0.006814,-0.013725,0.999903,0.009688,-0.002358,0.009755,0.556686,-0.152567,-0.746173,0.331738
01784,NaN,8.528923,1.462547,-2.223207,-1.022669,6.942061,-4.282525,2.010815,-0.422327,1.735468,-0.736328,0.562012,-0.087646,0.085203,0.015586,-0.021899,0.999910,0.010054,-0.002112,0.008677,0.553690,-0.152757,-0.742616,0.344404
01785,NaN,8.652983,4.518673,-2.390953,-1.491164,9.340717,-6.416854,2.017829,-0.656786,1.581810,-0.729980,0.563965,-0.087646,0.086244,0.046106,-0.023164,0.999912,0.010089,-0.003284,0.007909,0.550143,-0.152101,-0.739675,0.356495
01786,NaN,8.747212,2.856915,-0.082021,-3.502257,7.435519,-5.674140,1.672783,-0.674912,1.253301,-0.723877,0.574707,-0.092041,0.087292,0.029120,-0.000283,0.999940,0.008364,-0.003374,0.006266,0.546626,-0.150949,-0.737546,0.366662
01787,NaN,6.670478,-2.935660,-0.858457,-1.080483,2.501185,-2.998992,1.033511,-0.484361,0.934702,-0.723877,0.579102,-0.094482,0.066862,-0.029000,-0.008573,0.999973,0.005168,-0.002422,0.004673,0.544077,-0.150951,-0.736252,0.372998
01788,NaN,5.879899,-8.056556,-3.784849,2.798608,-0.247013,0.478683,0.723396,-0.572163,0.647209,-0.723877,0.579102,-0.090088,0.059168,-0.080237,-0.037970,0.999984,0.003617,-0.002861,0.003236,0.541274,-0.150322,-0.735953,0.377888
01789,NaN,6.765659,-10.471375,-7.366102,6.175939,0.221240,3.282740,1.030371,-0.727652,0.387142,-0.723877,0.579102,-0.094482,0.068127,-0.104202,-0.073951,0.999978,0.005152,-0.003638,0.001936,0.538674,-0.147491,-0.735782,0.383015
01790,NaN,6.230946,-3.058868,-3.955679,1.833010,3.532062,-2.885001,1.571021,-0.486664,0.186631,-0.723877,0.574707,-0.098633,0.062434,-0.030219,-0.039643,0.999966,0.007855,-0.002433,0.000933,0.537639,-0.143035,-0.733915,0.389683
01791,NaN,4.566352,2.718758,-0.989321,-1.442662,5.060068,-8.573248,1.632071,-0.085089,-0.221288,-0.729980,0.568359,-0.102783,0.045698,0.027216,-0.009652,0.999966,0.008160,-0.000425,-0.001106,0.538850,-0.137345,-0.731273,0.394989
01792,NaN,2.891549,4.623554,-0.008494,-2.164982,4.813475,-11.184278,1.197020,-0.058638,-0.792171,-0.736084,0.555664,-0.109131,0.029098,0.046120,0.000200,0.999974,0.005985,-0.000293,-0.003961,0.540981,-0.131128,-0.729587,0.397301
01793,NaN,1.734708,5.565257,1.089853,-2.989665,4.221449,-12.712653,0.580277,-0.084535,-1.235280,-0.744385,0.551270,-0.106934,0.017686,0.055512,0.011067,0.999977,0.002901,-0.000423,-0.006176,0.543306,-0.124312,-0.729701,0.396107
01794,NaN,1.190207,5.542200,1.065179,-2.789361,3.911176,-13.004664,-0.228003,-0.127096,-1.564427,-0.758789,0.529785,-0.102295,0.012328,0.055339,0.010596,0.999969,-0.001140,-0.000635,-0.007822,0.545754,-0.118992,-0.731443,0.391131
01795,NaN,2.258956,4.093015,0.721934,-2.519305,3.783615,-11.121709,-0.892409,-0.234348,-1.876708,-0.771240,0.517090,-0.091553,0.022964,0.040748,0.007064,0.999945,-0.004462,-0.001172,-0.009383,0.548216,-0.114416,-0.734912,0.382456
01796,NaN,4.312448,2.394241,0.453136,-2.600421,3.955910,-8.355824,-1.262688,-0.103264,-2.336164,-0.783447,0.493408,-0.089111,0.043398,0.023465,0.004405,0.999912,-0.006313,-0.000516,-0.011680,0.551506,-0.109109,-0.738878,0.371478
01797,NaN,1.835786,1.237931,0.089401,-1.053014,1.873371,-9.272435,-1.449062,-0.008455,-2.850490,-0.797607,0.469971,-0.067383,0.018532,0.012122,0.000806,0.999872,-0.007245,-0.000042,-0.014252,0.556122,-0.102885,-0.743060,0.357778
01798,NaN,2.749918,0.106472,0.007134,-1.013531,1.556711,-7.782373,-1.417396,-0.102609,-3.258021,-0.811523,0.437744,-0.060547,0.027512,0.000617,0.000080,0.999842,-0.007087,-0.000513,-0.016289,0.560726,-0.094547,-0.747437,0.343489
01799,NaN,3.109694,-1.006353,-0.053954,-0.789447,0.854900,-6.758077,-1.220367,-0.010195,-3.519633,-0.823486,0.407715,-0.058105,0.030913,-0.010612,-0.000474,0.999827,-0.006101,-0.000051,-0.017597,0.566254,-0.085124,-0.751106,0.328557
01800,NaN,5.298325,-1.511956,-0.125667,-1.310296,1.440597,-4.657286,-0.890904,0.072105,-3.800917,-0.848389,0.377686,-0.053467,0.052683,-0.016128,-0.001205,0.999809,-0.004454,0.000361,-0.019003,0.572257,-0.073500,-0.753840,0.314397
01801,NaN,5.811789,-1.750980,-0.056671,-1.410415,1.261559,-4.045519,-0.548701,0.231671,-4.030245,-0.860107,0.343506,-0.048584,0.057749,-0.018678,-0.000584,0.999793,-0.002743,0.001158,-0.020150,0.579318,-0.060565,-0.755383,0.300197
01802,NaN,5.984136,-1.705294,-0.022171,-1.416096,1.135337,-3.861360,-0.459475,0.346799,-4.229035,-0.869385,0.304932,-0.048096,0.059463,-0.018314,-0.000284,0.999772,-0.002297,0.001734,-0.021144,0.586681,-0.046456,-0.756178,0.286080
01803,NaN,6.495384,-2.306373,0.067363,-1.383449,0.553020,-3.083175,-0.523861,0.421442,-4.442763,-0.881104,0.266357,-0.043457,0.064422,-0.024497,0.000600,0.999748,-0.002619,0.002107,-0.022212,0.594510,-0.032116,-0.756562,0.270445
01804,NaN,7.261074,-2.947633,-0.146403,-1.103683,0.063283,-2.053830,-0.625882,0.385736,-4.659575,-0.903076,0.223633,-0.049316,0.071895,-0.031162,-0.001507,0.999722,-0.003129,0.001929,-0.023296,0.601982,-0.016889,-0.756803,0.254131
01805,NaN,8.638904,-2.778195,-0.032196,-1.477959,0.257087,-0.863731,-0.585699,0.417352,-4.790493,-0.906006,0.178467,-0.052979,0.085690,-0.029841,-0.000416,0.999707,-0.002928,0.002087,-0.023950,0.609546,-0.001365,-0.756512,0.236944
01806,NaN,9.441360,-2.003247,0.277943,-2.013997,0.655491,-0.393288,-0.610214,0.467123,-4.903254,-0.919434,0.135742,-0.045898,0.093891,-0.022331,0.002626,0.999692,-0.003051,0.002335,-0.024514,0.616908,0.014742,-0.755617,0.219658
01807,NaN,10.064677,-1.169016,0.262903,-2.197590,1.126642,0.016514,-0.698294,0.509029,-5.017115,-0.922119,0.090820,-0.045166,0.100318,-0.014201,0.002420,0.999676,-0.003491,0.002545,-0.025083,0.624292,0.030679,-0.754246,0.201076
01808,NaN,10.976693,-1.118084,0.044314,-1.994400,0.952926,0.995994,-0.799486,0.565581,-5.100870,-0.929443,0.047852,-0.053223,0.109435,-0.013974,0.000185,0.999663,-0.003997,0.002828,-0.025501,0.631445,0.046814,-0.752256,0.182200
01809,NaN,12.011354,-1.646298,-0.616014,-1.180162,0.301912,2.263945,-0.892764,0.606833,-5.152888,-0.931641,-0.007812,-0.045898,0.119617,-0.019578,-0.006441,0.999654,-0.004463,0.003034,-0.025761,0.638488,0.062516,-0.749741,0.162215
01810,NaN,12.788854,-2.340994,-0.815379,-0.652953,-0.799688,3.171711,-0.979951,0.649506,-5.203506,-0.936768,-0.050781,-0.049561,0.127194,-0.026766,-0.008442,0.999644,-0.004899,0.003247,-0.026014,0.645204,0.078318,-0.746579,0.142118
01811,NaN,13.181720,-2.820834,-1.284935,0.152845,-1.728241,3.615352,-1.097597,0.647719,-5.228102,-0.937012,-0.102051,-0.055176,0.130977,-0.031711,-0.013107,0.999638,-0.005487,0.003238,-0.026137,0.651582,0.093532,-0.743012,0.120939
01812,NaN,13.746063,-2.809176,-1.747423,0.794293,-2.243314,4.122428,-1.309786,0.614199,-5.247460,-0.935303,-0.153564,-0.056641,0.136605,-0.031799,-0.017694,0.999630,-0.006548,0.003071,-0.026234,0.657391,0.108327,-0.739086,0.099263
01813,NaN,14.349782,-2.546733,-2.306468,1.465365,-2.568766,4.641446,-1.526468,0.615751,-5.262459,-0.929443,-0.198486,-0.064453,0.142687,-0.029406,-0.023290,0.999620,-0.007631,0.003078,-0.026309,0.662875,0.122171,-0.734749,0.076252
01814,NaN,15.579878,-2.920241,-2.607452,2.041132,-3.706450,5.682149,-1.604322,0.651535,-5.293521,-0.918945,-0.252197,-0.065918,0.154864,-0.033520,-0.026323,0.999612,-0.008021,0.003257,-0.026464,0.667995,0.135978,-0.729698,0.053225
01815,NaN,16.558848,-3.351365,-3.240443,3.002682,-4.909743,6.396229,-1.667320,0.688625,-5.337078,-0.904297,-0.299316,-0.080078,0.164499,-0.038185,-0.032667,0.999603,-0.008335,0.003443,-0.026682,0.672791,0.149447,-0.723982,0.029461
01816,NaN,17.310377,-3.677332,-3.834734,3.935020,-6.077590,6.781538,-1.772777,0.706703,-5.368055,-0.885010,-0.354980,-0.089844,0.171892,-0.041740,-0.038601,0.999594,-0.008863,0.003533,-0.026837,0.677179,0.162724,-0.717578,0.005545
01817,NaN,18.057247,-3.571018,-4.790830,5.118071,-6.844331,7.176431,-1.953905,0.672771,-5.373733,-0.865967,-0.406494,-0.099609,0.179356,-0.041010,-0.048130,0.999586,-0.009768,0.003363,-0.026865,0.681029,0.175158,-0.710737,-0.019317
01818,NaN,18.543591,-4.365223,-6.232323,6.970258,-8.374716,7.007756,-2.256176,0.576951,-5.380613,-0.838623,-0.451660,-0.103027,0.183980,-0.049318,-0.062320,0.999570,-0.011279,0.002884,-0.026899,0.684233,0.186551,-0.703556,-0.045099
01819,NaN,19.665926,-8.202539,-8.362713,10.007244,-12.874219,6.247514,-2.305856,0.319709,-5.269574,-0.813721,-0.490234,-0.119629,0.194258,-0.088124,-0.082946,0.999585,-0.011528,0.001598,-0.026344,0.686008,0.197113,-0.696777,-0.070998
01820,NaN,21.204306,-14.129421,-8.705301,11.491303,-19.699380,4.496866,-1.326552,0.159189,-5.103231,-0.779785,-0.537354,-0.123047,0.208268,-0.147215,-0.086256,0.999652,-0.006632,0.000796,-0.025513,0.685813,0.210304,-0.690509,-0.092900
01821,NaN,18.681320,-17.167753,-8.099749,11.403642,-22.078892,-0.237722,-0.031669,0.109601,-4.870409,-0.750732,-0.567383,-0.113770,0.182515,-0.176170,-0.081071,0.999703,-0.000158,0.000548,-0.024350,0.683759,0.227029,-0.684809,-0.109401
01822,NaN,15.264473,-16.400743,-6.261960,9.500725,-20.429915,-4.026521,0.806292,-0.052799,-4.379147,-0.721436,-0.604004,-0.108887,0.149026,-0.167043,-0.063249,0.999752,0.004031,-0.000264,-0.021894,0.680093,0.244668,-0.680312,-0.121604
01823,NaN,12.873516,-16.104814,-6.436209,9.707329,-19.047466,-6.740866,0.965205,-0.317434,-3.697475,-0.701416,-0.625488,-0.097656,0.125835,-0.163080,-0.064945,0.999816,0.004826,-0.001587,-0.018486,0.675520,0.260453,-0.677294,-0.130803
01824,NaN,12.230833,-18.696176,-7.863393,11.713162,-20.575886,-9.196224,1.258012,-0.448846,-2.822483,-0.687744,-0.644775,-0.084473,0.119836,-0.188166,-0.079544,0.999878,0.006290,-0.002244,-0.014112,0.670428,0.273910,-0.675898,-0.136606
01825,NaN,12.560047,-20.165131,-6.459010,10.916145,-22.062457,-10.228890,1.849974,-0.398479,-1.765686,-0.672607,-0.653320,-0.067139,0.123948,-0.202143,-0.066210,0.999916,0.009250,-0.001992,-0.008828,0.665402,0.286060,-0.675932,-0.136109
01826,NaN,11.717943,-17.388620,-2.978865,7.188288,-19.921599,-9.805983,1.725293,-0.357834,-0.597266,-0.670166,-0.657715,-0.052002,0.116715,-0.173971,-0.031080,0.999957,0.008626,-0.001789,-0.002986,0.661284,0.293538,-0.677437,-0.132733
01827,NaN,11.499964,-13.722912,-1.397551,4.992767,-17.155978,-8.005969,0.564349,-0.362046,0.557569,-0.678955,-0.653564,-0.047852,0.115407,-0.136868,-0.014153,0.999990,0.002822,-0.001810,0.002788,0.659757,0.293663,-0.679671,-0.128572
01828,NaN,11.790422,-12.687775,-2.197396,5.482932,-16.322284,-6.925528,-0.607827,-0.362289,1.546591,-0.690186,-0.640625,-0.048096,0.118920,-0.126026,-0.021375,0.999964,-0.003039,-0.001811,0.007733,0.660381,0.286133,-0.682746,-0.126025
01829,NaN,11.310819,-12.617967,-3.113282,6.191536,-15.806880,-6.874562,-1.193547,-0.331843,2.341576,-0.703857,-0.621338,-0.061279,0.114627,-0.125026,-0.030195,0.999912,-0.005968,-0.001659,0.011708,0.662558,0.274435,-0.686210,-0.121727
01830,NaN,10.621285,-12.271680,-2.926446,5.652878,-15.213623,-6.890800,-1.812192,-0.356303,2.972112,-0.715332,-0.601807,-0.063721,0.108074,-0.121377,-0.027969,0.999847,-0.009060,-0.001781,0.014860,0.665522,0.257950,-0.690284,-0.118531
01831,NaN,14.038243,-9.677615,-3.409049,5.382465,-14.637751,-2.126099,-2.304591,-0.471935,3.507420,-0.737793,-0.571777,-0.066650,0.142133,-0.094675,-0.032657,0.999777,-0.011522,-0.002359,0.017536,0.668980,0.238377,-0.694703,-0.114149
01832,NaN,12.362187,5.704936,-0.260225,-0.643297,-0.810651,3.764872,-2.401184,-0.362876,3.248434,-0.755859,-0.548096,-0.082031,0.122679,0.059012,-0.003080,0.999794,-0.012005,-0.001814,0.016241,0.672290,0.218780,-0.698297,-0.111993
01833,NaN,23.622124,49.650085,5.192843,-12.554932,32.767233,32.832128,-1.614777,0.172344,2.335868,-0.762695,-0.535400,-0.088623,0.230440,0.499611,0.047703,0.999899,-0.008074,0.000862,0.011679,0.676063,0.205817,-0.699177,-0.108302
01834,NaN,11.980834,39.175914,24.108357,-29.149848,26.780491,16.503792,-1.362904,0.386674,-0.423683,-0.760498,-0.535400,-0.101562,0.121103,0.393133,0.238174,0.999973,-0.006814,0.001933,-0.002118,0.678562,0.202868,-0.696698,-0.114057
01835,NaN,5.053819,-20.103635,-3.577518,5.715452,-19.865003,-13.702743,-4.368098,-0.831252,1.334629,-0.769775,-0.511719,-0.116943,0.052017,-0.201407,-0.031165,0.999731,-0.021839,-0.004156,0.006673,0.680794,0.183198,-0.698139,-0.124744
01836,NaN,15.237750,-18.622360,-7.774783,8.847934,-22.784132,-3.336068,-3.686060,-0.785791,2.570700,-0.785645,-0.490234,-0.119385,0.155061,-0.185625,-0.073717,0.999740,-0.018429,-0.003929,0.012852,0.682847,0.161115,-0.700707,-0.129505
01837,NaN,21.930154,-16.003944,-4.849810,5.158750,-23.104498,4.332868,-0.909397,-0.766217,2.691819,-0.794922,-0.468750,-0.117676,0.221613,-0.157283,-0.046933,0.999892,-0.004547,-0.003831,0.013459,0.682704,0.148500,-0.704783,-0.123061
01838,NaN,14.051541,-2.273748,3.598953,-3.879806,-7.375192,2.275044,0.405062,-0.613802,2.310900,-0.806396,-0.449463,-0.111572,0.140655,-0.021186,0.036377,0.999926,0.002025,-0.003069,0.011554,0.681606,0.141323,-0.708809,-0.114150
01839,NaN,7.891678,-2.221023,4.549822,-4.705680,-4.961753,-3.398026,-0.000001,-0.650667,1.899453,-0.815186,-0.443115,-0.109619,0.078974,-0.021460,0.045755,0.999950,-0.000000,-0.003253,0.009497,0.680492,0.134715,-0.712280,-0.106952
01840,NaN,9.022064,-2.429097,-0.216718,-0.048703,-5.253811,-2.083693,-0.367402,-0.657732,1.846745,-0.818359,-0.419434,-0.101318,0.090446,-0.023460,-0.001826,0.999950,-0.001837,-0.003289,0.009234,0.679344,0.126502,-0.715548,-0.102371
01841,NaN,7.295694,2.776739,-8.066662,7.579522,0.554487,-1.551260,-0.690414,-0.900486,1.761673,-0.829834,-0.395752,-0.097412,0.073073,0.028133,-0.080434,0.999945,-0.003452,-0.004502,0.008808,0.677553,0.117894,-0.719284,-0.098247
01842,NaN,7.963053,2.339388,-11.857660,11.280204,-0.005895,-0.743936,-1.560519,-1.313206,1.663884,-0.834229,-0.391602,-0.089111,0.080214,0.023136,-0.118232,0.999913,-0.007802,-0.006566,0.008319,0.674502,0.105939,-0.723902,-0.098944
01843,NaN,12.114936,-1.053980,-10.586307,9.689744,-4.418452,2.292432,-1.055840,-1.127987,1.918242,-0.843750,-0.370117,-0.078613,0.121841,-0.009930,-0.105124,0.999924,-0.005279,-0.005640,0.009591,0.671966,0.095348,-0.728144,-0.095794
01844,NaN,9.779904,-3.660072,-3.439860,2.671393,-6.096280,-1.062253,0.198699,-0.482693,2.000361,-0.852783,-0.355225,-0.081055,0.098241,-0.035586,-0.034198,0.999947,0.000993,-0.002413,0.010002,0.671029,0.088467,-0.730791,-0.088531
01845,NaN,7.887079,-3.269008,-1.239714,0.605597,-5.065470,-2.855576,0.577161,-0.478632,1.782054,-0.862061,-0.340088,-0.074951,0.079187,-0.031950,-0.012301,0.999953,0.002886,-0.002393,0.008910,0.669840,0.084158,-0.733418,-0.079558
01846,NaN,9.872151,-1.225991,-1.778748,0.887695,-3.382466,-0.331446,0.558069,-0.637619,1.816800,-0.864502,-0.327393,-0.064453,0.098883,-0.011313,-0.017505,0.999950,0.002790,-0.003188,0.009084,0.667948,0.079077,-0.736518,-0.071646
01847,NaN,10.688955,-2.527035,-2.209969,1.220131,-4.629930,0.316215,0.707203,-0.500204,1.805322,-0.871826,-0.308105,-0.058350,0.107166,-0.024226,-0.021919,0.999950,0.003536,-0.002501,0.009026,0.666475,0.075088,-0.739131,-0.062124
01848,NaN,9.677757,-2.691181,-2.126406,1.215856,-4.409143,-0.620250,1.243942,-0.304677,1.702641,-0.876465,-0.295166,-0.050049,0.097034,-0.025954,-0.021280,0.999943,0.006220,-0.001523,0.008513,0.665364,0.072812,-0.741144,-0.051919
01849,NaN,9.680390,-1.759102,-0.387501,-0.550597,-3.353390,-0.571262,1.521141,-0.240121,1.599719,-0.883545,-0.282227,-0.041504,0.096945,-0.016786,-0.003888,0.999938,0.007606,-0.001201,0.007998,0.664304,0.072358,-0.742878,-0.039965
01850,NaN,9.656924,-0.706033,-0.429824,-0.582010,-2.159220,-0.382070,1.184438,-0.286534,1.492119,-0.884033,-0.267334,-0.039795,0.096624,-0.006315,-0.004199,0.999954,0.005922,-0.001433,0.007460,0.663068,0.070659,-0.744586,-0.030666
01851,NaN,9.468767,0.014074,-0.702514,-0.372662,-1.260430,-0.409386,0.651713,-0.361645,1.387155,-0.884277,-0.256592,-0.037598,0.094696,0.000820,-0.006852,0.999969,0.003259,-0.001808,0.006936,0.661674,0.068069,-0.746350,-0.022711
01852,NaN,9.343695,-0.377690,-1.011647,-0.070898,-1.489801,-0.525877,0.135020,-0.435129,1.262763,-0.889160,-0.243652,-0.035889,0.093480,-0.003180,-0.009915,0.999977,0.000675,-0.002176,0.006314,0.660121,0.063722,-0.748232,-0.018132
01853,NaN,9.263439,-0.797634,-1.312483,0.214571,-1.762838,-0.592311,-0.224572,-0.518518,1.173787,-0.891602,-0.237305,-0.027344,0.092713,-0.007447,-0.012876,0.999979,-0.001123,-0.002593,0.005869,0.658323,0.058997,-0.750285,-0.014244
01854,NaN,9.551677,-1.251525,-0.933493,-0.230255,-2.167543,-0.382957,-0.411778,-0.595483,1.086763,-0.894043,-0.228760,-0.025391,0.095610,-0.012015,-0.009025,0.999979,-0.002059,-0.002977,0.005434,0.656262,0.053490,-0.752533,-0.012341
01855,NaN,9.625776,-1.958141,-1.037803,-0.164502,-2.773008,-0.333815,-0.481784,-0.677913,1.023424,-0.898926,-0.213623,-0.017090,0.096391,-0.019113,-0.010005,0.999978,-0.002409,-0.003390,0.005117,0.653860,0.048463,-0.754996,-0.009987
01856,NaN,9.519170,-1.831828,-1.595185,0.308134,-2.528374,-0.324484,-0.446956,-0.744176,0.949038,-0.899170,-0.207275,-0.012695,0.095336,-0.017901,-0.015557,0.999979,-0.002235,-0.003721,0.004745,0.651181,0.043349,-0.757634,-0.008705
01857,NaN,9.613837,-2.002003,-2.948596,1.558402,-2.563405,-0.008227,-0.291791,-0.710249,0.839638,-0.901367,-0.200928,-0.002197,0.096325,-0.019659,-0.029115,0.999984,-0.001459,-0.003551,0.004198,0.648544,0.039631,-0.760119,-0.006258
01858,NaN,9.535862,-2.159632,-3.108434,1.662093,-2.640316,-0.039029,0.039254,-0.603122,0.753283,-0.901611,-0.194580,-0.002197,0.095532,-0.021231,-0.030801,0.999988,0.000196,-0.003016,0.003766,0.646247,0.036844,-0.762229,-0.003739
01859,NaN,9.381269,-2.254312,-3.013506,1.541653,-2.652155,-0.181484,0.214784,-0.557888,0.645423,-0.906006,-0.194580,0.004150,0.093968,-0.022208,-0.029897,0.999990,0.001074,-0.002789,0.003227,0.644042,0.035507,-0.764165,0.000018
01860,NaN,9.717533,-2.224005,-3.997104,2.402144,-2.528243,0.345588,0.442563,-0.453613,0.559669,-0.899902,-0.181641,0.010498,0.097327,-0.021880,-0.039799,0.999991,0.002213,-0.002268,0.002798,0.642212,0.034761,-0.765730,0.003478
01861,NaN,9.544882,-1.637393,-3.151047,1.532023,-1.898332,0.074866,0.635919,-0.342797,0.496524,-0.906494,-0.179443,0.012451,0.095543,-0.016037,-0.031398,0.999990,0.003180,-0.001714,0.002483,0.640719,0.035342,-0.766916,0.008389
01862,NaN,9.363180,-0.602156,-2.474482,0.799726,-0.838048,-0.178758,0.537426,-0.354620,0.428869,-0.906494,-0.179443,0.012451,0.093688,-0.005754,-0.024594,0.999993,0.002687,-0.001773,0.002144,0.639228,0.035401,-0.768111,0.011808
01863,NaN,9.613029,-0.838208,-2.769242,1.025878,-1.004492,0.123101,0.485116,-0.341516,0.388607,-0.900391,-0.170898,0.016602,0.096193,-0.008128,-0.027548,0.999994,0.002426,-0.001708,0.001943,0.637740,0.035901,-0.769253,0.015770
01864,NaN,9.495185,-0.873711,-2.296576,0.552697,-1.023910,-0.073998,0.379641,-0.339434,0.350246,-0.904785,-0.170898,0.027344,0.095006,-0.008527,-0.022821,0.999995,0.001898,-0.001697,0.001751,0.636322,0.035758,-0.770376,0.018333
01865,NaN,9.522742,-0.937480,-2.252278,0.473937,-1.045947,-0.049726,0.236714,-0.368911,0.329121,-0.906982,-0.164551,0.022949,0.095284,-0.009192,-0.022358,0.999996,0.001184,-0.001845,0.001646,0.634758,0.035687,-0.771598,0.021115
01866,NaN,9.621274,-1.206168,-2.339506,0.524059,-1.276736,0.066187,0.167298,-0.375389,0.303846,-0.907471,-0.158203,0.033447,0.096275,-0.011896,-0.023224,0.999997,0.000836,-0.001877,0.001519,0.633231,0.035051,-0.772835,0.022705
01867,NaN,9.664076,-1.436429,-2.338896,0.497436,-1.469310,0.113119,0.133627,-0.356043,0.286758,-0.905273,-0.158203,0.035645,0.096703,-0.014210,-0.023226,0.999997,0.000668,-0.001780,0.001434,0.631726,0.034806,-0.774009,0.024934
01868,NaN,9.331273,-1.604761,-2.685771,0.880507,-1.573809,-0.137515,0.088818,-0.343638,0.265137,-0.907471,-0.158203,0.042236,0.093380,-0.015912,-0.026704,0.999998,0.000444,-0.001718,0.001326,0.630331,0.034069,-0.775139,0.026103
01869,NaN,9.356603,-1.942319,-3.036189,1.214505,-1.848135,-0.032794,0.101196,-0.308759,0.232379,-0.909668,-0.153809,0.041992,0.093635,-0.019299,-0.030227,0.999998,0.000506,-0.001544,0.001162,0.629011,0.033920,-0.776150,0.028026
01870,NaN,9.300111,-2.044004,-3.189857,1.356044,-1.910702,-0.047675,0.218935,-0.273831,0.212118,-0.901123,-0.153809,0.041992,0.093066,-0.020307,-0.031793,0.999998,0.001095,-0.001369,0.001061,0.627865,0.033789,-0.777027,0.029544
01871,NaN,9.504044,-1.715798,-3.216061,1.286111,-1.547177,0.165584,0.367429,-0.256248,0.210146,-0.903320,-0.149658,0.044189,0.095099,-0.016999,-0.032070,0.999997,0.001837,-0.001281,0.001051,0.626695,0.034551,-0.777822,0.032429
01872,NaN,9.391540,-1.230571,-3.068010,1.096581,-1.044462,0.027765,0.457824,-0.254834,0.212757,-0.905518,-0.147461,0.050537,0.093967,-0.012136,-0.030588,0.999996,0.002289,-0.001274,0.001064,0.625573,0.035165,-0.778592,0.034880
01873,NaN,9.718225,-1.162991,-2.931771,0.862793,-0.951484,0.323478,0.470859,-0.262978,0.236068,-0.903564,-0.145264,0.052734,0.097234,-0.011446,-0.029217,0.999996,0.002354,-0.001315,0.001180,0.624338,0.036144,-0.779381,0.038231
01874,NaN,9.982600,-1.319165,-2.697274,0.568415,-1.096286,0.538287,0.512277,-0.253827,0.264432,-0.912354,-0.141113,0.054688,0.099877,-0.012991,-0.026879,0.999995,0.002561,-0.001269,0.001322,0.623186,0.036726,-0.780131,0.041055
01875,NaN,9.230542,-0.797568,-2.276707,0.243055,-0.575293,-0.292592,0.507351,-0.287927,0.276346,-0.907959,-0.143066,0.054688,0.092349,-0.007791,-0.022654,0.999995,0.002537,-0.001440,0.001382,0.621821,0.037658,-0.780978,0.044651
01876,NaN,9.924039,-1.249971,-2.449695,0.277790,-0.969189,0.435887,0.456870,-0.289500,0.307345,-0.906250,-0.132568,0.065430,0.099295,-0.012291,-0.024381,0.999995,0.002284,-0.001447,0.001537,0.620516,0.037908,-0.781842,0.047384
01877,NaN,9.636954,-1.795395,-2.740129,0.659089,-1.426087,0.243867,0.524534,-0.320309,0.316671,-0.910400,-0.134521,0.067383,0.096441,-0.017730,-0.027294,0.999994,0.002623,-0.001602,0.001583,0.618992,0.038735,-0.782772,0.051148
01878,NaN,9.709612,-1.535486,-3.016703,0.848039,-1.084053,0.377510,0.692881,-0.292422,0.359937,-0.910645,-0.130371,0.067383,0.097167,-0.015076,-0.030078,0.999991,0.003464,-0.001462,0.001800,0.617599,0.039510,-0.783575,0.054965
01879,NaN,9.709632,-1.504414,-3.244413,1.036610,-0.954572,0.438179,0.794057,-0.262919,0.416128,-0.904297,-0.125977,0.071777,0.097170,-0.014713,-0.032375,0.999989,0.003970,-0.001315,0.002081,0.616191,0.040760,-0.784243,0.060089
01880,NaN,9.240347,-1.426108,-3.054581,0.927963,-0.845152,-0.057049,0.853971,-0.290653,0.419268,-0.908691,-0.121826,0.073730,0.092477,-0.013937,-0.030471,0.999988,0.004270,-0.001453,0.002096,0.614725,0.041798,-0.784970,0.064718
01881,NaN,9.361474,-1.308971,-2.731449,0.539556,-0.710423,-0.013951,0.862658,-0.382384,0.379057,-0.913086,-0.117432,0.080078,0.093691,-0.012795,-0.027191,0.999987,0.004313,-0.001912,0.001895,0.612806,0.043435,-0.785932,0.069955
01882,NaN,10.284159,-1.332886,-2.607371,0.162559,-0.675077,0.857657,0.892400,-0.310263,0.486754,-0.906982,-0.113281,0.090820,0.102914,-0.012962,-0.025972,0.999986,0.004462,-0.001551,0.002434,0.611195,0.044328,-0.786677,0.074933
01883,NaN,9.615067,-0.380678,-2.500655,0.036125,0.308829,0.124640,0.904116,-0.262960,0.582264,-0.909668,-0.098145,0.086182,0.096194,-0.003414,-0.024896,0.999985,0.004521,-0.001315,0.002911,0.609618,0.045241,-0.787251,0.080961
01884,NaN,9.819695,-0.235688,-2.804680,0.209783,0.591549,0.383073,0.790890,-0.279254,0.672963,-0.909668,-0.096191,0.090576,0.098243,-0.001916,-0.027918,0.999986,0.003954,-0.001396,0.003365,0.608039,0.045079,-0.787935,0.086110
01885,NaN,10.129420,-0.596207,-2.880668,0.219864,0.356495,0.726886,0.708794,-0.300030,0.743539,-0.910156,-0.085449,0.092529,0.101358,-0.005484,-0.028675,0.999986,0.003544,-0.001500,0.003718,0.606247,0.044761,-0.788689,0.091818
