// Start Time: Unknown
// Update Rate: 100.0Hz
// Filter Profile: human (46.1)
// Firmware Version: 4.4.0
PacketCounter,SampleTimeFine,Acc_X,Acc_Y,Acc_Z,FreeAcc_X,FreeAcc_Y,FreeAcc_Z,Gyr_X,Gyr_Y,Gyr_Z,Mag_X,Mag_Y,Mag_Z,VelInc_X,VelInc_Y,VelInc_Z,OriInc_q0,OriInc_q1,OriInc_q2,OriInc_q3,Quat_q0,Quat_q1,Quat_q2,Quat_q3
29150,NaN,9.541427,-1.358842,1.716875,-0.000000,0.000000,-0.023257,-0.056098,-0.042257,-0.048007,-0.731445,0.146484,-0.516846,0.095407,-0.013607,0.017193,1.000000,-0.000280,-0.000211,-0.000240,0.766676,-0.086843,-0.636118,0.004583
29151,NaN,9.674935,-1.397457,1.769733,-0.016922,-0.034574,0.121482,-0.039732,-0.056726,-0.064315,-0.733887,0.155029,-0.514893,0.096740,-0.014002,0.017728,1.000000,-0.000199,-0.000284,-0.000322,0.767014,-0.087115,-0.635684,0.002475
29152,NaN,9.696458,-1.414160,1.886886,-0.135872,-0.038887,0.165364,-0.021901,-0.059907,-0.076634,-0.731445,0.146484,-0.516846,0.096953,-0.014177,0.018899,1.000000,-0.000110,-0.000300,-0.000383,0.766815,-0.086955,-0.635947,0.002138
29153,NaN,9.592821,-1.409879,1.872488,-0.148726,-0.055567,0.061064,-0.006254,-0.067633,-0.095076,-0.733643,0.146484,-0.516846,0.095915,-0.014144,0.018758,1.000000,-0.000031,-0.000338,-0.000475,0.766597,-0.086682,-0.636249,0.001785
29154,NaN,9.571741,-1.421594,1.821362,-0.112912,-0.085677,0.032941,0.022511,-0.087464,-0.116627,-0.735596,0.144531,-0.522949,0.095701,-0.014274,0.018254,1.000000,0.000113,-0.000437,-0.000583,0.766329,-0.086224,-0.636634,0.001447
29155,NaN,9.612051,-1.371561,1.828237,-0.117027,-0.042835,0.066563,0.043327,-0.102440,-0.138075,-0.733398,0.142334,-0.516846,0.096102,-0.013786,0.018329,1.000000,0.000217,-0.000512,-0.000690,0.766024,-0.085619,-0.637083,0.001102
29156,NaN,9.638597,-1.405005,1.844606,-0.143431,-0.085201,0.099491,0.065566,-0.113319,-0.163203,-0.735840,0.146484,-0.514893,0.096364,-0.014135,0.018496,0.999999,0.000328,-0.000567,-0.000816,0.765692,-0.084847,-0.637587,0.000734
29157,NaN,9.563270,-1.585978,1.965768,-0.307703,-0.272905,0.069949,0.092658,-0.121950,-0.177221,-0.735596,0.140137,-0.512695,0.095607,-0.015954,0.019709,0.999999,0.000463,-0.000610,-0.000886,0.765348,-0.083931,-0.638121,0.000406
29158,NaN,9.437509,-1.538998,2.122683,-0.492278,-0.237906,-0.033020,0.090446,-0.122974,-0.180196,-0.735596,0.144531,-0.514648,0.094348,-0.015485,0.021278,0.999999,0.000452,-0.000615,-0.000901,0.764993,-0.083009,-0.638667,0.000057
29159,NaN,9.171584,-1.622455,2.042511,-0.483835,-0.377393,-0.297142,0.131405,-0.124531,-0.202179,-0.737549,0.137939,-0.514648,0.091687,-0.016331,0.020471,0.999999,0.000657,-0.000623,-0.001011,0.764668,-0.081876,-0.639202,-0.000230
29160,NaN,8.949912,-1.620142,1.922867,-0.419553,-0.434229,-0.535911,0.164017,-0.131904,-0.214913,-0.741699,0.131592,-0.512451,0.089469,-0.016313,0.019274,0.999999,0.000820,-0.000660,-0.001075,0.764313,-0.080562,-0.639793,-0.000474
29161,NaN,8.889151,-1.697333,1.809958,-0.339919,-0.551174,-0.606466,0.193743,-0.153257,-0.211450,-0.741699,0.131592,-0.510498,0.088860,-0.017085,0.018151,0.999999,0.000969,-0.000766,-0.001057,0.763937,-0.079184,-0.640413,-0.000563
29162,NaN,8.879328,-1.692805,1.803625,-0.349073,-0.569677,-0.619501,0.214353,-0.169051,-0.204563,-0.741211,0.123291,-0.508301,0.088761,-0.017038,0.018093,0.999999,0.001072,-0.000845,-0.001023,0.763479,-0.077710,-0.641140,-0.000591
29163,NaN,8.856117,-1.606163,1.938870,-0.490059,-0.488515,-0.631679,0.208780,-0.178268,-0.183452,-0.741211,0.121094,-0.506104,0.088529,-0.016163,0.019451,0.999999,0.001044,-0.000891,-0.000917,0.763041,-0.076401,-0.641818,-0.000481
29164,NaN,8.735951,-1.626833,2.101657,-0.687741,-0.520217,-0.722213,0.213571,-0.177111,-0.167173,-0.739258,0.123291,-0.508301,0.087327,-0.016364,0.021076,0.999999,0.001068,-0.000886,-0.000836,0.762553,-0.075051,-0.642558,-0.000366
29165,NaN,8.455377,-1.746737,2.229735,-0.884586,-0.666573,-0.964560,0.254639,-0.166102,-0.158943,-0.739014,0.121094,-0.506104,0.084521,-0.017563,0.022345,0.999999,0.001273,-0.000831,-0.000795,0.762202,-0.073683,-0.643132,0.000016
29166,NaN,7.938393,-1.661130,2.452832,-1.195005,-0.624040,-1.447502,0.299526,-0.138898,-0.137603,-0.749512,0.112549,-0.506104,0.079355,-0.016703,0.024558,0.999998,0.001498,-0.000694,-0.000688,0.761864,-0.072099,-0.643711,0.000506
29167,NaN,7.249610,-1.405206,2.738891,-1.572478,-0.418260,-2.106501,0.327151,-0.096725,-0.116609,-0.747314,0.110352,-0.506104,0.072475,-0.014139,0.027401,0.999998,0.001636,-0.000484,-0.000583,0.761829,-0.070645,-0.643913,0.001311
29168,NaN,6.487334,-1.155592,3.015987,-1.955634,-0.229389,-2.838454,0.318963,-0.057297,-0.098168,-0.745361,0.114746,-0.508057,0.064859,-0.011636,0.030160,0.999999,0.001595,-0.000286,-0.000491,0.761757,-0.069113,-0.644163,0.001984
29169,NaN,5.738520,-0.955833,3.173812,-2.215043,-0.096023,-3.567556,0.292801,-0.005477,-0.074979,-0.749512,0.112549,-0.510254,0.057381,-0.009626,0.031726,0.999999,0.001464,-0.000027,-0.000375,0.762138,-0.067950,-0.643833,0.002841
29170,NaN,4.941040,-0.917256,3.337481,-2.505911,-0.127577,-4.326511,0.280242,0.059629,-0.047445,-0.747070,0.108398,-0.503906,0.049418,-0.009231,0.033347,0.999999,0.001401,0.000298,-0.000237,0.762425,-0.066730,-0.643617,0.003542
29171,NaN,4.138051,-0.836226,3.297926,-2.584687,-0.132829,-5.122187,0.269833,0.129455,-0.014019,-0.744873,0.104004,-0.510010,0.041401,-0.008410,0.032941,0.999999,0.001349,0.000647,-0.000070,0.763427,-0.065855,-0.642513,0.004538
29172,NaN,3.440137,-0.922971,3.138014,-2.547647,-0.306958,-5.819092,0.298336,0.187251,0.033079,-0.744873,0.102051,-0.514160,0.034432,-0.009271,0.031334,0.999998,0.001492,0.000936,0.000165,0.764124,-0.064827,-0.641779,0.005561
29173,NaN,2.734379,-1.043444,2.733756,-2.266842,-0.533724,-6.554531,0.324694,0.235515,0.107661,-0.744629,0.097656,-0.513916,0.027382,-0.010464,0.027288,0.999998,0.001623,0.001178,0.000538,0.765687,-0.064148,-0.639966,0.007173
29174,NaN,2.430805,-1.126495,2.330830,-1.921555,-0.685457,-6.906086,0.369319,0.246730,0.178525,-0.734131,0.099854,-0.522217,0.024347,-0.011286,0.023257,0.999997,0.001847,0.001234,0.000893,0.766586,-0.063314,-0.638949,0.008959
29175,NaN,2.507321,-1.307481,1.979300,-1.555121,-0.889036,-6.862265,0.420596,0.232578,0.251867,-0.734131,0.097656,-0.520020,0.025113,-0.013085,0.019736,0.999996,0.002103,0.001163,0.001259,0.768304,-0.062779,-0.636896,0.011467
29176,NaN,2.981237,-1.533358,1.696766,-1.189118,-1.090660,-6.419398,0.489138,0.213756,0.313580,-0.736084,0.095703,-0.520020,0.029854,-0.015328,0.016898,0.999995,0.002446,0.001069,0.001568,0.769116,-0.061910,-0.635946,0.014162
29177,NaN,3.510402,-1.745330,1.657279,-1.033110,-1.245064,-5.875920,0.574026,0.203167,0.374026,-0.729980,0.097656,-0.524170,0.035153,-0.017435,0.016487,0.999994,0.002870,0.001016,0.001870,0.770806,-0.061256,-0.633871,0.017712
29178,NaN,4.027939,-1.829697,1.578925,-0.838648,-1.275265,-5.370232,0.669853,0.200383,0.425375,-0.727783,0.095459,-0.524170,0.040334,-0.018264,0.015688,0.999992,0.003349,0.001002,0.002127,0.771602,-0.060040,-0.632904,0.021413
29179,NaN,4.426701,-1.795524,1.653715,-0.793770,-1.179750,-4.961665,0.767810,0.206679,0.477885,-0.727539,0.091309,-0.530273,0.044327,-0.017913,0.016423,0.999989,0.003839,0.001033,0.002389,0.773302,-0.059058,-0.630742,0.026078
29180,NaN,4.662849,-1.615593,1.706319,-0.765330,-0.962972,-4.738171,0.873712,0.220102,0.491814,-0.727539,0.093506,-0.530273,0.046687,-0.016115,0.016941,0.999987,0.004369,0.001101,0.002459,0.774180,-0.057259,-0.629623,0.030670
29181,NaN,4.891811,-1.545265,1.931556,-0.892732,-0.840128,-4.469869,0.976003,0.246791,0.481740,-0.723389,0.091309,-0.536377,0.048979,-0.015429,0.019180,0.999984,0.004880,0.001234,0.002409,0.776088,-0.055607,-0.627135,0.036006
29182,NaN,5.045304,-1.486419,1.896887,-0.795823,-0.760002,-4.330744,1.036656,0.263062,0.440170,-0.714600,0.084961,-0.540283,0.050511,-0.014851,0.018825,0.999983,0.005183,0.001315,0.002201,0.777109,-0.053011,-0.625794,0.040891
29183,NaN,5.299875,-1.333615,1.702390,-0.504882,-0.570667,-4.139531,1.051320,0.250525,0.365823,-0.716553,0.080811,-0.540283,0.053044,-0.013328,0.016887,0.999984,0.005257,0.001253,0.001829,0.778975,-0.050701,-0.623309,0.045969
29184,NaN,5.729399,-1.219317,1.486422,-0.174202,-0.403207,-3.785314,1.021799,0.209878,0.258185,-0.714355,0.076416,-0.542236,0.057325,-0.012195,0.014742,0.999986,0.005109,0.001049,0.001291,0.779818,-0.047573,-0.622182,0.050105
29185,NaN,6.370860,-1.413849,1.302950,0.190355,-0.502693,-3.179775,0.933156,0.120596,0.130241,-0.708008,0.074219,-0.548096,0.063726,-0.014157,0.012925,0.999989,0.004666,0.000603,0.000651,0.781164,-0.044949,-0.620376,0.053822
29186,NaN,7.452291,-1.892230,1.166998,0.596649,-0.831854,-2.103532,0.809147,-0.017475,0.004762,-0.709717,0.065918,-0.548096,0.074522,-0.018968,0.011600,0.999992,0.004046,-0.000087,0.000024,0.781285,-0.041797,-0.620219,0.056354
29187,NaN,8.931115,-2.540323,1.235062,0.911039,-1.270871,-0.576980,0.709580,-0.207647,-0.140445,-0.711914,0.063721,-0.548096,0.089280,-0.025510,0.012353,0.999993,0.003548,-0.001038,-0.000702,0.781471,-0.039113,-0.619978,0.058320
29188,NaN,11.148297,-3.043995,1.829751,0.837660,-1.502279,1.760542,0.632708,-0.398013,-0.318921,-0.707275,0.055176,-0.541748,0.111398,-0.030676,0.018422,0.999992,0.003164,-0.001990,-0.001595,0.780448,-0.035535,-0.621405,0.059112
29189,NaN,13.732559,-3.352900,2.832111,0.423889,-1.522048,4.517304,0.530101,-0.553548,-0.519408,-0.719727,0.051025,-0.537598,0.137159,-0.033961,0.028611,0.999989,0.002650,-0.002768,-0.002597,0.779409,-0.032366,-0.622873,0.059183
29190,NaN,16.640803,-4.153413,3.961377,-0.081018,-2.074292,7.667241,0.469666,-0.669353,-0.710942,-0.721680,0.042480,-0.535400,0.166125,-0.042219,0.040071,0.999985,0.002348,-0.003347,-0.003555,0.777601,-0.028122,-0.625447,0.057983
29191,NaN,19.800909,-5.506079,4.878286,-0.305072,-3.187541,11.066283,0.621727,-0.736349,-0.954718,-0.719238,0.031738,-0.533203,0.197562,-0.056157,0.049337,0.999977,0.003109,-0.003682,-0.004774,0.776164,-0.023433,-0.627520,0.056916
29192,NaN,23.180293,-6.564481,6.008247,-0.764599,-4.171123,14.652040,0.896064,-0.735539,-1.213149,-0.725098,0.017090,-0.524902,0.231176,-0.067319,0.060634,0.999965,0.004480,-0.003678,-0.006066,0.774281,-0.015937,-0.630237,0.055103
29193,NaN,28.475735,-8.040579,7.094478,-0.747475,-5.453865,20.112664,1.293982,-0.758800,-1.261298,-0.728760,0.002197,-0.524658,0.283970,-0.082660,0.071493,0.999952,0.006470,-0.003794,-0.006306,0.772724,-0.007919,-0.632298,0.055089
29194,NaN,34.146782,-9.245919,7.950819,-0.471204,-6.681336,25.821772,1.573523,-0.613356,-1.258305,-0.734375,-0.019043,-0.516113,0.340630,-0.095231,0.079812,0.999945,0.007867,-0.003067,-0.006291,0.771153,0.002310,-0.634246,0.055223
29195,NaN,38.285047,-8.910547,7.174722,1.117133,-6.348378,29.621306,1.813500,-0.315148,-1.177267,-0.729492,-0.036133,-0.517822,0.382202,-0.092006,0.071524,0.999940,0.009067,-0.001576,-0.005886,0.771004,0.011220,-0.634118,0.057628
29196,NaN,39.851306,-7.002646,5.351620,3.136243,-4.695302,30.608840,1.790701,0.109507,-0.959603,-0.731201,-0.052979,-0.521484,0.398198,-0.072412,0.052657,0.999948,0.008953,0.000548,-0.004798,0.771490,0.021136,-0.633090,0.059609
29197,NaN,38.431853,-5.112114,3.524760,4.717440,-2.857442,28.724723,1.470395,0.578205,-0.584572,-0.719971,-0.067871,-0.523193,0.384265,-0.052496,0.033754,0.999965,0.007352,0.002891,-0.002923,0.773709,0.026069,-0.629819,0.063429
29198,NaN,36.022982,-4.012739,2.606535,5.317216,-1.955702,26.082214,1.011669,0.812566,-0.157425,-0.722168,-0.070068,-0.527344,0.360299,-0.040537,0.024397,0.999979,0.005058,0.004063,-0.000787,0.776172,0.030223,-0.626317,0.066110
29199,NaN,35.338007,-2.930043,2.866771,5.074634,-0.732303,25.390713,0.506759,0.940877,0.275277,-0.724365,-0.067871,-0.535645,0.353549,-0.028884,0.026931,0.999985,0.002534,0.004704,0.001376,0.778776,0.028641,-0.622695,0.070275
29200,NaN,35.096623,-2.487451,4.168965,4.025227,-0.256692,25.387525,0.034760,1.011607,0.796260,-0.718018,-0.065918,-0.537598,0.351266,-0.023483,0.039909,0.999979,0.000174,0.005058,0.003981,0.781629,0.025944,-0.618839,0.073627
29201,NaN,34.387920,-3.734946,5.574528,2.947890,-1.079919,25.082387,-0.229612,1.063180,1.390470,-0.709717,-0.057373,-0.545898,0.344417,-0.034894,0.053956,0.999961,-0.001148,0.005316,0.006952,0.784008,0.017664,-0.615287,0.080255
29202,NaN,32.563803,-4.472050,6.537448,2.007775,-1.490062,23.606426,-0.315663,1.179373,1.967420,-0.703857,-0.042480,-0.554443,0.326434,-0.041411,0.063518,0.999933,-0.001578,0.005897,0.009837,0.786826,0.009903,-0.610918,0.087095
29203,NaN,29.820737,-4.646886,6.805987,1.347952,-1.110804,21.075487,-0.233993,1.319759,2.425117,-0.704834,-0.019043,-0.560791,0.299182,-0.042767,0.066139,0.999904,-0.001170,0.006599,0.012125,0.789015,-0.001322,-0.606576,0.097569
29204,NaN,26.899354,-4.399505,6.919484,0.794050,-0.524262,18.291409,-0.139773,1.472590,2.775724,-0.701172,-0.002197,-0.571289,0.270069,-0.040204,0.067238,0.999876,-0.000699,0.007363,0.013878,0.792033,-0.011006,-0.600736,0.108072
29205,NaN,23.679041,-3.176599,7.257191,-0.291367,1.004038,15.133280,-0.097907,1.649755,3.035720,-0.688965,0.014893,-0.577881,0.237824,-0.028126,0.070627,0.999851,-0.000490,0.008248,0.015178,0.794437,-0.023996,-0.594557,0.121643
29206,NaN,20.352599,-1.860694,7.498578,-1.313081,2.275661,11.796682,-0.135976,1.834259,3.213634,-0.679199,0.038086,-0.586426,0.204466,-0.015276,0.073125,0.999829,-0.000680,0.009171,0.016067,0.797786,-0.035198,-0.586861,0.133762
29207,NaN,16.993808,-1.327742,7.070952,-1.693708,2.752861,8.354936,-0.293280,1.934055,3.397378,-0.669434,0.065918,-0.601074,0.170803,-0.010279,0.069077,0.999808,-0.001466,0.009670,0.016986,0.800178,-0.049408,-0.579139,0.147893
29208,NaN,14.362354,-1.083527,5.979259,-1.229407,2.935333,5.453008,-0.454952,1.994563,3.625292,-0.651367,0.091309,-0.607666,0.144374,-0.008089,0.058376,0.999783,-0.002275,0.009972,0.018125,0.802991,-0.063186,-0.570470,0.160553
29209,NaN,12.052126,-0.962747,4.510049,-0.391912,3.008330,2.728915,-0.460255,2.065111,3.823234,-0.641846,0.120850,-0.622314,0.121132,-0.007214,0.043870,0.999761,-0.002301,0.010325,0.019115,0.804802,-0.078920,-0.561499,0.175455
29210,NaN,10.141017,-0.984403,3.317351,0.295704,2.838856,0.514385,-0.377991,2.094435,3.990182,-0.623779,0.152832,-0.633057,0.101919,-0.007753,0.032124,0.999744,-0.001890,0.010471,0.019949,0.806830,-0.093456,-0.551681,0.189577
29211,NaN,8.526680,-0.579741,2.406364,0.655816,3.031739,-1.494306,-0.307031,2.113269,4.142056,-0.607666,0.176025,-0.639404,0.085610,-0.003991,0.023167,0.999729,-0.001535,0.010565,0.020708,0.807694,-0.109274,-0.541642,0.205702
29212,NaN,7.252320,-0.358221,2.027510,0.640437,3.011796,-2.932018,-0.255156,2.128496,4.287767,-0.589600,0.203613,-0.652100,0.072788,-0.001998,0.019505,0.999713,-0.001276,0.010641,0.021437,0.808680,-0.124070,-0.530808,0.221102
29213,NaN,6.295334,-0.463442,1.635649,0.765918,2.773505,-3.961700,-0.242085,2.106996,4.422450,-0.562988,0.229004,-0.658691,0.063203,-0.003219,0.015696,0.999699,-0.001210,0.010534,0.022110,0.808219,-0.139757,-0.520132,0.238146
29214,NaN,5.788731,-0.578743,1.356651,0.937663,2.677297,-4.556223,-0.268900,2.050639,4.536657,-0.542725,0.256592,-0.669189,0.058133,-0.004453,0.012978,0.999689,-0.001344,0.010252,0.022681,0.807713,-0.155035,-0.508832,0.254269
29215,NaN,5.734584,-0.422320,1.164287,1.090946,3.032706,-4.911190,-0.398263,1.936488,4.629068,-0.516113,0.286133,-0.675781,0.057532,-0.002870,0.011093,0.999683,-0.001991,0.009681,0.023143,0.805490,-0.171091,-0.498386,0.271153
29216,NaN,6.284595,0.124444,1.232178,1.115210,4.045866,-4.974466,-0.578425,1.822668,4.707021,-0.489502,0.313721,-0.682373,0.062902,0.002759,0.011742,0.999677,-0.002892,0.009112,0.023533,0.802899,-0.187561,-0.487642,0.287019
29217,NaN,6.569046,0.153921,1.363979,1.102252,4.503981,-4.962354,-0.727034,1.766451,4.794215,-0.465088,0.341309,-0.684570,0.065745,0.003163,0.013050,0.999667,-0.003635,0.008831,0.023968,0.798846,-0.204689,-0.477652,0.302978
29218,NaN,5.989647,-0.425885,0.581987,1.770313,3.893555,-5.558952,-0.341025,1.681975,4.812934,-0.438232,0.362305,-0.688965,0.060022,-0.002806,0.005321,0.999674,-0.001705,0.008409,0.024062,0.794965,-0.220021,-0.466369,0.319564
29219,NaN,4.853501,-1.603503,-1.006597,3.133902,2.389048,-6.405911,1.265003,1.600321,4.694324,-0.411133,0.370850,-0.709473,0.048809,-0.014826,-0.010552,0.999673,0.006324,0.008001,0.023469,0.791987,-0.228181,-0.453540,0.339104
29220,NaN,4.524914,-2.321415,-3.267118,5.259122,1.755870,-7.406891,2.581716,1.589714,4.493468,-0.381348,0.368652,-0.727783,0.045486,-0.021767,-0.033319,0.999633,0.012907,0.007948,0.022465,0.790630,-0.230754,-0.437576,0.360810
29221,NaN,3.423279,1.318928,-5.587138,5.454867,3.247469,-11.901351,3.106800,1.720925,4.220227,-0.357666,0.357910,-0.735596,0.033451,0.014769,-0.055940,0.999620,0.015532,0.008604,0.021098,0.789765,-0.230597,-0.421188,0.381703
29222,NaN,1.207313,6.638442,-6.907231,3.321884,4.594192,-17.627647,3.186161,1.784089,3.926671,-0.333984,0.344971,-0.753662,0.010142,0.067686,-0.068097,0.999641,0.015929,0.008919,0.019631,0.789420,-0.229603,-0.403385,0.401720
29223,NaN,-0.989767,10.209069,-7.041025,0.627153,4.626037,-21.343403,2.847896,1.725617,3.566814,-0.306152,0.336426,-0.775879,-0.012326,0.102873,-0.068850,0.999702,0.014238,0.008627,0.017832,0.788519,-0.228774,-0.387840,0.418904
29224,NaN,-2.112306,10.916876,-6.287256,-1.163626,3.787078,-21.955622,2.228220,1.514200,3.139755,-0.289062,0.330078,-0.775635,-0.023309,0.109504,-0.061483,0.999786,0.011140,0.007570,0.015698,0.787262,-0.229197,-0.373529,0.433779
29225,NaN,-1.669834,10.411508,-5.735387,-1.511076,3.646201,-21.148103,1.470523,1.283584,2.626029,-0.278320,0.325928,-0.781738,-0.018431,0.104298,-0.056473,0.999866,0.007352,0.006418,0.013130,0.785465,-0.230729,-0.363219,0.444839
29226,NaN,-1.344782,11.043567,-6.025930,-1.735786,3.968251,-21.700180,0.635587,1.152741,2.100470,-0.259033,0.321533,-0.789795,-0.014954,0.110474,-0.059825,0.999923,0.003178,0.005764,0.010502,0.783562,-0.234589,-0.354827,0.452876
29227,NaN,-2.359379,12.809714,-7.310044,-2.172227,3.631028,-24.136875,-0.001309,1.050128,1.618767,-0.246826,0.332031,-0.796143,-0.025013,0.127898,-0.072972,0.999953,-0.000007,0.005251,0.008094,0.781772,-0.239374,-0.349537,0.457554
29228,NaN,-3.267671,13.247941,-8.141638,-2.143125,2.734128,-25.317472,-0.353417,0.907102,1.227813,-0.234375,0.340576,-0.794189,-0.033858,0.132130,-0.081498,0.999969,-0.001767,0.004535,0.006139,0.780104,-0.244965,-0.345320,0.460634
29229,NaN,-3.940322,11.591187,-8.821006,-0.937378,1.141506,-24.829572,-0.602780,0.733325,0.944451,-0.225830,0.342529,-0.794189,-0.040273,0.115457,-0.088412,0.999978,-0.003014,0.003667,0.004722,0.778568,-0.250120,-0.343198,0.462047
29230,NaN,-4.062857,8.582148,-9.252040,1.030313,-0.514881,-23.019956,-0.667910,0.540375,0.669706,-0.221924,0.351074,-0.790039,-0.041165,0.085375,-0.092695,0.999985,-0.003340,0.002702,0.003349,0.777104,-0.255111,-0.341794,0.462823
29231,NaN,-3.480460,6.649433,-9.472101,2.488026,-0.959181,-21.599899,-0.535532,0.383941,0.271442,-0.215820,0.355225,-0.783936,-0.035077,0.066193,-0.094831,0.999994,-0.002678,0.001920,0.001357,0.776545,-0.258164,-0.341571,0.462231
29232,NaN,-2.815864,7.022736,-9.258178,2.366330,-0.230701,-21.530580,-0.196302,0.262085,-0.144800,-0.217773,0.355225,-0.788086,-0.028229,0.070157,-0.092614,0.999998,-0.000982,0.001310,-0.000724,0.777076,-0.259281,-0.341194,0.460992
29233,NaN,-2.402342,8.393764,-8.469229,1.161658,0.830685,-21.892205,0.164896,0.119775,-0.445739,-0.217773,0.353271,-0.788086,-0.023887,0.084061,-0.084609,0.999997,0.000824,0.000599,-0.002229,0.778554,-0.257944,-0.341267,0.459191
29234,NaN,-2.459646,9.282759,-7.931053,0.229352,1.281481,-22.199200,0.330792,-0.045314,-0.669499,-0.224121,0.348877,-0.796143,-0.024267,0.093040,-0.079162,0.999993,0.001654,-0.000227,-0.003347,0.780437,-0.255404,-0.341545,0.457202
29235,NaN,-2.643034,9.265099,-7.628954,-0.071837,1.243760,-22.038698,0.391836,-0.239816,-0.904074,-0.225830,0.342529,-0.794189,-0.025919,0.092918,-0.076139,0.999987,0.001959,-0.001199,-0.004520,0.782610,-0.251601,-0.343026,0.454479
29236,NaN,-2.490911,8.380865,-7.105660,0.047508,1.143429,-21.020835,0.405018,-0.442102,-1.146181,-0.231934,0.334229,-0.787842,-0.024271,0.084093,-0.070941,0.999979,0.002025,-0.002210,-0.005731,0.784953,-0.247037,-0.345270,0.451233
29237,NaN,-2.008255,7.496276,-6.484896,0.228230,1.350044,-19.832891,0.332957,-0.644130,-1.361685,-0.240479,0.332031,-0.793945,-0.019362,0.075204,-0.064787,0.999970,0.001665,-0.003221,-0.006808,0.787328,-0.241750,-0.348954,0.447106
29238,NaN,-1.476264,6.678396,-6.036750,0.536050,1.601093,-18.777605,0.248112,-0.819944,-1.554437,-0.254883,0.323730,-0.791748,-0.013995,0.066970,-0.060343,0.999961,0.001241,-0.004100,-0.007772,0.789643,-0.236214,-0.353492,0.442391
29239,NaN,-1.131254,5.849113,-5.678519,0.864785,1.664343,-17.826265,0.154001,-0.980296,-1.731182,-0.267334,0.317383,-0.791748,-0.010527,0.058628,-0.056793,0.999950,0.000770,-0.004901,-0.008656,0.791907,-0.230203,-0.359256,0.436835
29240,NaN,-0.938314,5.238155,-5.410113,1.095972,1.679405,-17.131450,0.089999,-1.120072,-1.910971,-0.281982,0.311035,-0.789795,-0.008579,0.052490,-0.054127,0.999939,0.000450,-0.005600,-0.009555,0.794126,-0.223950,-0.365672,0.430690
29241,NaN,-0.770951,4.904149,-4.805676,0.917730,1.819461,-16.414558,0.014588,-1.224788,-2.092008,-0.296631,0.304688,-0.779541,-0.006902,0.049120,-0.048097,0.999927,0.000073,-0.006124,-0.010460,0.796366,-0.217257,-0.373021,0.423622
29242,NaN,-0.592479,4.609812,-4.026200,0.586032,1.971386,-15.607497,-0.099659,-1.317116,-2.255796,-0.319824,0.298340,-0.783447,-0.005139,0.046139,-0.040321,0.999915,-0.000498,-0.006585,-0.011279,0.798513,-0.210634,-0.380895,0.415847
29243,NaN,-0.321759,4.202296,-3.404428,0.468173,2.106468,-14.782066,-0.264233,-1.400673,-2.375128,-0.334473,0.296387,-0.773193,-0.002480,0.042010,-0.034119,0.999904,-0.001321,-0.007003,-0.011875,0.800441,-0.204074,-0.389696,0.407167
29244,NaN,-0.244743,3.723014,-2.826600,0.341875,2.006108,-14.027842,-0.379641,-1.474057,-2.478031,-0.348877,0.283691,-0.773193,-0.001778,0.037201,-0.028351,0.999894,-0.001898,-0.007370,-0.012390,0.802144,-0.197739,-0.398855,0.397969
29245,NaN,-0.182395,3.140161,-2.259551,0.253785,1.801643,-13.231458,-0.368932,-1.521753,-2.587809,-0.365723,0.281494,-0.760986,-0.001246,0.031378,-0.022664,0.999886,-0.001845,-0.007608,-0.012939,0.803814,-0.190838,-0.408386,0.388182
29246,NaN,-0.250154,2.800967,-1.563267,-0.120676,1.612852,-12.593890,-0.387399,-1.549107,-2.710704,-0.382568,0.277344,-0.752686,-0.002000,0.028009,-0.015704,0.999876,-0.001937,-0.007745,-0.013553,0.805445,-0.183825,-0.417900,0.377925
29247,NaN,-0.095182,2.937227,-1.081143,-0.469364,1.887686,-12.266400,-0.369872,-1.596282,-2.856863,-0.403320,0.266846,-0.752686,-0.000446,0.029361,-0.010871,0.999864,-0.001849,-0.007981,-0.014284,0.807071,-0.176130,-0.427757,0.366933
29248,NaN,0.514028,2.921523,-0.652929,-0.544390,2.384783,-11.613093,-0.396422,-1.639211,-2.980695,-0.424072,0.258301,-0.744385,0.005628,0.029121,-0.006542,0.999853,-0.001982,-0.008196,-0.014903,0.808568,-0.168317,-0.437660,0.355445
29249,NaN,1.072267,2.676657,-0.476738,-0.338486,2.662043,-10.970142,-0.377596,-1.656375,-3.068464,-0.440430,0.239258,-0.731934,0.011171,0.026589,-0.004726,0.999846,-0.001888,-0.008281,-0.015342,0.809974,-0.159966,-0.447678,0.343421
29250,NaN,1.667245,2.350548,-0.035317,-0.319602,2.850176,-10.094936,-0.355758,-1.642515,-3.135416,-0.459229,0.232910,-0.727783,0.017041,0.023240,-0.000256,0.999842,-0.001779,-0.008212,-0.015676,0.811270,-0.151539,-0.457377,0.331185
29251,NaN,2.122123,2.072965,0.173223,-0.189737,2.943007,-9.448625,-0.427957,-1.602855,-3.192762,-0.473633,0.220215,-0.721436,0.021534,0.020391,0.001860,0.999838,-0.002140,-0.008014,-0.015963,0.812461,-0.143076,-0.467054,0.318273
29252,NaN,2.240589,1.681864,0.041665,0.140296,2.716769,-9.142305,-0.534743,-1.585262,-3.173820,-0.492432,0.211914,-0.713135,0.022665,0.016462,0.000551,0.999839,-0.002674,-0.007926,-0.015868,0.813298,-0.135287,-0.476539,0.305213
29253,NaN,2.100777,1.725667,0.083599,0.061375,2.638220,-9.154235,-0.657290,-1.597223,-3.182681,-0.504639,0.197021,-0.700684,0.021272,0.016923,0.000949,0.999836,-0.003286,-0.007986,-0.015913,0.813797,-0.127678,-0.486226,0.291577
29254,NaN,2.067847,2.585142,-0.177150,0.007901,3.310351,-9.637126,-0.910238,-1.725052,-3.228053,-0.523438,0.188477,-0.694580,0.021107,0.025505,-0.001707,0.999822,-0.004551,-0.008625,-0.016139,0.813585,-0.120992,-0.496546,0.277278
29255,NaN,2.482893,3.515094,-1.525312,1.082643,4.411454,-10.272361,-0.953348,-2.165032,-3.473928,-0.539795,0.173828,-0.680176,0.025598,0.034638,-0.015145,0.999779,-0.004766,-0.010824,-0.017368,0.812295,-0.112959,-0.508773,0.261853
29256,NaN,4.121666,4.137221,-3.826471,3.568940,5.993898,-10.079128,-1.157921,-3.327190,-4.001989,-0.577637,0.161133,-0.655518,0.042662,0.040308,-0.037798,0.999645,-0.005789,-0.016634,-0.020008,0.808130,-0.103081,-0.525880,0.244439
29257,NaN,10.444735,5.620342,-2.690002,4.184806,10.165011,-4.614323,-1.936384,-4.974872,-4.849379,-0.614990,0.139893,-0.624512,0.106399,0.053392,-0.024795,0.999350,-0.009680,-0.024869,-0.024242,0.799452,-0.091710,-0.550648,0.221929
29258,NaN,25.549803,8.290010,-1.162780,6.122861,18.399517,8.798974,-3.229357,-6.686754,-6.479208,-0.667236,0.123047,-0.565186,0.258227,0.074453,-0.004270,0.998786,-0.016140,-0.033420,-0.032383,0.785786,-0.079248,-0.583250,0.189947
29259,NaN,76.719021,16.778814,-3.583253,17.190220,42.402049,54.061256,-3.979310,-7.893587,-9.037939,-0.714600,0.084961,-0.513672,0.774401,0.132539,-0.008222,0.998003,-0.019883,-0.039442,-0.045160,0.768145,-0.060409,-0.620668,0.145175
29260,NaN,129.018010,3.216382,8.338614,13.098113,35.019198,113.933494,-5.146781,-5.228743,-9.196607,-0.743408,0.057373,-0.480469,1.287155,-0.024365,0.117219,0.998270,-0.025719,-0.026129,-0.045957,0.755717,-0.047738,-0.646175,0.095237
29261,NaN,81.292901,-8.743648,12.419651,-1.516151,4.029341,72.746192,-6.787036,-4.082520,-8.804669,-0.771973,0.031738,-0.447510,0.805360,-0.118343,0.144362,0.998247,-0.033915,-0.020401,-0.043998,0.743519,-0.041916,-0.666206,0.039889
29262,NaN,76.091469,6.961778,0.642642,6.312937,12.295961,65.308235,-6.951728,-4.019386,-9.178366,-0.791992,-0.006348,-0.424561,0.762744,0.035169,0.020127,0.998142,-0.034737,-0.020084,-0.045863,0.729130,-0.036304,-0.683210,-0.016587
29263,NaN,72.374684,9.683126,-2.254644,6.594403,8.269455,62.450085,-5.201359,-2.958005,-7.963626,-0.803711,-0.036133,-0.401611,0.727072,0.067482,-0.013816,0.998760,-0.025996,-0.014784,-0.039802,0.716218,-0.027270,-0.694417,-0.063823
29264,NaN,52.847884,5.564724,-0.445835,1.908955,1.151342,43.274080,-3.303322,-2.209428,-5.832737,-0.809082,-0.061523,-0.392822,0.529813,0.040189,0.000641,0.999377,-0.016513,-0.011045,-0.029158,0.705790,-0.019531,-0.701637,-0.095833
29265,NaN,46.872738,-7.514363,0.560746,-2.706732,-13.136877,35.723808,-0.887112,-2.496707,-3.503496,-0.821045,-0.082764,-0.376221,0.467194,-0.083294,0.011804,0.999759,-0.004435,-0.012483,-0.017516,0.694733,-0.010625,-0.710414,-0.112006
29266,NaN,55.452182,-11.439162,3.277345,-7.645187,-18.718255,43.173751,1.070840,-1.986642,-1.593324,-0.826904,-0.097656,-0.363770,0.553228,-0.118995,0.037644,0.999905,0.005354,-0.009933,-0.007966,0.686774,-0.002352,-0.717932,-0.113622
29267,NaN,48.749116,-7.939243,4.319522,-8.402157,-14.764890,36.765700,1.931670,-0.512925,-0.840723,-0.834717,-0.114746,-0.357422,0.487039,-0.081861,0.043662,0.999941,0.009658,-0.002565,-0.004204,0.684170,0.007643,-0.720911,-0.110181
29268,NaN,38.240719,-7.584169,3.233646,-6.627209,-13.320284,26.366874,1.933843,0.093103,-0.945761,-0.834229,-0.129639,-0.357178,0.382057,-0.077956,0.031412,0.999942,0.009669,0.000466,-0.004729,0.683870,0.017723,-0.721581,-0.106437
29269,NaN,35.542396,-7.196740,0.407656,-3.527466,-13.307856,23.738189,1.869808,-0.104656,-1.227928,-0.833496,-0.150879,-0.352539,0.354971,-0.074183,0.003576,0.999937,0.009349,-0.000523,-0.006140,0.682500,0.028849,-0.722838,-0.104245
29270,NaN,38.355850,-7.685452,1.148951,-4.386461,-14.659946,26.206487,1.959843,0.157687,-1.124595,-0.831055,-0.165771,-0.350342,0.383126,-0.079115,0.010419,0.999936,0.009799,0.000788,-0.005623,0.682156,0.039688,-0.723114,-0.100971
29271,NaN,36.731844,-6.125848,5.006644,-7.702646,-12.873469,24.636403,1.540832,0.923276,-0.653061,-0.828369,-0.178467,-0.358154,0.367339,-0.062832,0.047891,0.999954,0.007704,0.004616,-0.003265,0.684780,0.047872,-0.720604,-0.097539
29272,NaN,30.580789,-3.816229,9.268464,-10.992820,-9.216179,18.994410,0.126932,1.619443,0.336846,-0.824463,-0.172119,-0.368652,0.306609,-0.037704,0.090180,0.999966,0.000635,0.008097,0.001684,0.690724,0.047887,-0.715178,-0.095539
29273,NaN,22.276740,-2.311272,12.886688,-13.707879,-5.568220,11.369974,-2.048043,1.870803,1.421671,-0.822998,-0.148682,-0.389404,0.224112,-0.020216,0.126992,0.999879,-0.010240,0.009354,0.007108,0.698616,0.036531,-0.707893,-0.097411
29274,NaN,13.991995,-4.588960,13.481762,-14.043168,-5.549906,3.245077,-4.383546,1.871576,2.077512,-0.822021,-0.114502,-0.408447,0.141625,-0.041475,0.134439,0.999662,-0.021915,0.009357,0.010386,0.706815,0.014773,-0.699362,-0.105295
29275,NaN,5.005640,-11.935249,11.309471,-12.999862,-10.680572,-6.315369,-6.164937,1.879446,2.263333,-0.813232,-0.065674,-0.425537,0.052458,-0.115217,0.116204,0.999417,-0.030819,0.009395,0.011314,0.714934,-0.014143,-0.688937,-0.118474
29276,NaN,-1.896887,-20.607633,7.222730,-11.647598,-18.103366,-13.916322,-6.546666,1.726943,2.194257,-0.812744,-0.019043,-0.442871,-0.016062,-0.203749,0.079070,0.999367,-0.032726,0.008633,0.010969,0.721264,-0.044059,-0.678297,-0.133227
29277,NaN,-4.921314,-26.996591,4.734155,-12.288900,-23.917682,-17.033949,-5.278971,1.445380,2.319385,-0.807617,0.017090,-0.449463,-0.045710,-0.269129,0.054792,0.999558,-0.026391,0.007226,0.011595,0.726662,-0.070434,-0.668331,-0.142599
29278,NaN,-5.677575,-29.313696,3.815973,-13.240134,-26.012141,-17.162508,-2.799721,1.332361,2.943638,-0.800293,0.051025,-0.460205,-0.052185,-0.293352,0.042623,0.999772,-0.013998,0.006661,0.014717,0.732060,-0.089470,-0.660307,-0.141698
29279,NaN,-6.531848,-26.868489,3.626921,-12.784583,-23.781334,-16.786580,-0.054600,1.350122,3.826869,-0.784180,0.074463,-0.466797,-0.059915,-0.269856,0.036759,0.999794,-0.000273,0.006750,0.019133,0.739562,-0.102184,-0.652929,-0.127633
29280,NaN,-6.113091,-21.167254,2.974091,-10.118552,-19.001710,-15.354236,2.306225,1.369556,4.582224,-0.780762,0.097900,-0.477295,-0.056061,-0.213323,0.027683,0.999648,0.011530,0.006847,0.022908,0.747874,-0.107699,-0.646767,-0.103819
29281,NaN,-4.659890,-16.510484,2.366165,-7.462820,-15.252860,-13.198595,4.046543,1.455680,5.036889,-0.764160,0.110596,-0.493896,-0.042257,-0.166643,0.020618,0.999452,0.020229,0.007277,0.025180,0.757530,-0.109172,-0.639620,-0.071534
29282,NaN,-2.294401,-10.940109,2.126557,-4.865636,-10.248307,-10.657548,4.874164,1.391933,5.334059,-0.753906,0.121094,-0.510254,-0.019871,-0.110436,0.018728,0.999323,0.024365,0.006958,0.026664,0.766035,-0.107192,-0.632749,-0.036463
29283,NaN,0.785615,-7.331176,2.675401,-3.594695,-6.570410,-7.488980,5.035111,1.452754,5.561293,-0.741455,0.129639,-0.520752,0.010087,-0.073693,0.024834,0.999270,0.025169,0.007262,0.027800,0.774350,-0.106376,-0.623750,0.001201
29284,NaN,3.304723,-5.191960,2.857491,-2.521042,-4.132907,-5.059905,4.743759,1.556301,5.736369,-0.722900,0.144531,-0.545410,0.034745,-0.051593,0.027082,0.999277,0.023713,0.007780,0.028675,0.781132,-0.105827,-0.614197,0.037367
29285,NaN,4.998253,-3.767933,2.272741,-1.084556,-2.332912,-3.671612,4.299266,1.683503,5.810877,-0.704346,0.155029,-0.549561,0.051242,-0.036674,0.021504,0.999312,0.021491,0.008416,0.029048,0.787476,-0.108281,-0.602291,0.073507
29286,NaN,6.095707,-4.058804,1.245567,0.509034,-2.143431,-2.719727,3.882045,1.776342,5.859303,-0.683838,0.171875,-0.572266,0.062218,-0.039002,0.011139,0.999343,0.019406,0.008880,0.029290,0.792256,-0.111217,-0.590304,0.107250
29287,NaN,6.739131,-4.790753,-0.344696,2.587984,-2.291645,-2.295439,3.565421,1.809538,5.927883,-0.665283,0.190918,-0.590820,0.068730,-0.045805,-0.004894,0.999361,0.017823,0.009046,0.029633,0.796322,-0.116524,-0.576485,0.141272
29288,NaN,7.358325,-5.456490,-1.560790,4.319910,-2.201928,-1.887491,3.328964,1.805028,5.937848,-0.648682,0.199463,-0.603271,0.075004,-0.052075,-0.017161,0.999380,0.016641,0.009023,0.029683,0.798777,-0.121582,-0.563132,0.173363
29289,NaN,8.296852,-5.302992,-2.231094,5.541859,-1.051713,-1.441414,3.187576,1.761881,5.902773,-0.625977,0.216553,-0.619873,0.084272,-0.050183,-0.023865,0.999399,0.015935,0.008808,0.029508,0.800389,-0.127920,-0.548351,0.205733
29290,NaN,9.425285,-4.885947,-2.342110,6.182944,0.498578,-0.886829,3.179463,1.699594,5.820858,-0.598877,0.229004,-0.640381,0.095406,-0.045705,-0.024972,0.999414,0.015894,0.008496,0.029099,0.800627,-0.132823,-0.534235,0.236531
29291,NaN,10.897208,-4.571555,-2.521372,6.965616,2.268743,-0.206236,3.235325,1.661717,5.735224,-0.573730,0.239746,-0.656738,0.109996,-0.042145,-0.026826,0.999424,0.016174,0.008307,0.028671,0.800145,-0.138005,-0.518670,0.267778
29292,NaN,12.366306,-4.047852,-2.920938,7.796021,4.305517,0.110144,3.168244,1.695459,5.658195,-0.552979,0.250244,-0.669189,0.124476,-0.036484,-0.030862,0.999438,0.015838,0.008476,0.028286,0.798705,-0.142191,-0.503450,0.297304
29293,NaN,13.030922,-2.813282,-4.400181,8.982727,6.556697,-1.249301,3.136674,1.838788,5.477146,-0.527832,0.256592,-0.689697,0.130587,-0.023852,-0.045598,0.999460,0.015681,0.009192,0.027381,0.797045,-0.146940,-0.486444,0.326344
29294,NaN,12.999367,-1.668784,-5.789498,9.711125,8.190234,-3.192496,3.504547,1.984012,5.256840,-0.496094,0.256592,-0.709961,0.129770,-0.012242,-0.059424,0.999452,0.017520,0.009918,0.026279,0.795433,-0.148912,-0.468692,0.354175
29295,NaN,12.080336,-0.412047,-6.836999,9.643698,9.128978,-5.758041,3.709233,2.130956,5.044026,-0.474609,0.248047,-0.730225,0.120097,0.000199,-0.069675,0.999453,0.018543,0.010653,0.025216,0.793777,-0.150389,-0.449020,0.381682
29296,NaN,10.539631,2.159639,-8.153305,8.779722,10.249072,-9.624192,3.657522,2.291496,4.707729,-0.446777,0.237305,-0.738037,0.103886,0.025554,-0.082286,0.999490,0.018285,0.011456,0.023535,0.792286,-0.150736,-0.429178,0.406655
29297,NaN,8.128858,5.415882,-9.045523,6.672070,10.688385,-14.104435,3.543672,2.376986,4.321250,-0.416992,0.232910,-0.764404,0.078996,0.057485,-0.090404,0.999539,0.017716,0.011883,0.021603,0.790796,-0.151314,-0.408754,0.429728
29298,NaN,6.208521,7.592313,-8.564379,4.006324,10.330934,-16.647461,3.293968,2.297390,3.939927,-0.395508,0.220215,-0.774414,0.059576,0.078518,-0.085059,0.999604,0.016468,0.011485,0.019697,0.789208,-0.151215,-0.389450,0.450127
29299,NaN,5.564250,8.459147,-8.285819,2.590338,10.083916,-17.733725,2.762614,2.086823,3.534141,-0.365479,0.211426,-0.786377,0.053263,0.086686,-0.082234,0.999694,0.013812,0.010433,0.017669,0.787052,-0.152261,-0.372067,0.467901
29300,NaN,5.555798,8.493252,-8.683949,2.410747,9.949349,-18.390877,2.186488,1.869867,3.104016,-0.348389,0.209473,-0.796387,0.053412,0.086719,-0.086404,0.999776,0.010932,0.009349,0.015519,0.784760,-0.153769,-0.357145,0.482654
29301,NaN,4.972198,8.403725,-9.170500,2.283071,9.247846,-19.230183,1.648459,1.667656,2.708327,-0.327148,0.205078,-0.810547,0.047808,0.085448,-0.091409,0.999840,0.008242,0.008338,0.013541,0.782258,-0.156370,-0.344509,0.494907
29302,NaN,3.904272,8.778991,-9.673380,1.792693,8.316449,-20.466214,1.190050,1.477409,2.301482,-0.316162,0.196533,-0.808350,0.037311,0.088801,-0.096487,0.999889,0.005950,0.007387,0.011507,0.779954,-0.159316,-0.333946,0.504748
29303,NaN,2.697993,8.885069,-10.241021,1.548249,7.122296,-21.558679,0.971387,1.247295,1.937878,-0.297119,0.194336,-0.818359,0.025477,0.089599,-0.102138,0.999922,0.004857,0.006236,0.009689,0.777802,-0.161979,-0.325233,0.512845
29304,NaN,2.195677,8.200059,-10.243759,1.693956,6.193819,-21.464200,0.846390,0.968850,1.620689,-0.288574,0.190186,-0.822510,0.020794,0.082605,-0.102191,0.999946,0.004232,0.004844,0.008103,0.775868,-0.163797,-0.317962,0.519711
29305,NaN,2.633700,7.284995,-10.746935,2.625567,6.125849,-21.261743,0.744486,0.680723,1.336530,-0.282227,0.189941,-0.818359,0.025482,0.073422,-0.107284,0.999965,0.003722,0.003404,0.006683,0.774026,-0.164767,-0.312567,0.525393
29306,NaN,3.581465,6.898078,-11.472214,3.469627,6.804721,-21.374556,0.753316,0.436381,1.081828,-0.275879,0.187988,-0.826416,0.035189,0.069604,-0.114538,0.999976,0.003767,0.002182,0.005409,0.772470,-0.164682,-0.307998,0.530384
29307,NaN,3.804873,7.574840,-12.071809,3.289162,7.264831,-22.221758,0.821954,0.305318,0.820884,-0.275635,0.183594,-0.834473,0.037552,0.076399,-0.120463,0.999982,0.004110,0.001527,0.004104,0.771402,-0.163468,-0.304382,0.534386
29308,NaN,2.991644,9.221290,-12.086631,1.754957,7.094391,-23.474912,0.853061,0.189975,0.575462,-0.270996,0.168701,-0.828125,0.029535,0.092813,-0.120499,0.999986,0.004265,0.000950,0.002877,0.770843,-0.161557,-0.300893,0.537740
29309,NaN,1.761053,10.199451,-11.665782,0.343297,6.283652,-24.082131,0.788800,-0.000720,0.332110,-0.266357,0.162354,-0.833984,0.017441,0.102483,-0.116254,0.999991,0.003944,-0.000004,0.001661,0.770569,-0.158800,-0.299066,0.539968
29310,NaN,1.008863,9.951276,-10.960322,-0.206749,5.459215,-23.608622,0.610130,-0.240481,0.047654,-0.268555,0.160156,-0.832031,0.010196,0.099849,-0.109287,0.999995,0.003051,-0.001202,0.000238,0.770563,-0.155868,-0.298304,0.541251
29311,NaN,0.923270,9.189294,-9.940686,-0.349701,5.090456,-22.385561,0.323137,-0.474457,-0.255650,-0.272461,0.153809,-0.829834,0.009586,0.092041,-0.099236,0.999995,0.001616,-0.002372,-0.001278,0.770808,-0.152635,-0.300081,0.540841
29312,NaN,1.119528,8.548183,-9.184214,-0.304297,5.054988,-21.346465,0.021333,-0.657152,-0.589633,-0.276855,0.156006,-0.825928,0.011749,0.085458,-0.091795,0.999990,0.000107,-0.003286,-0.002948,0.771427,-0.149886,-0.303001,0.539096
29313,NaN,1.514604,8.139609,-8.836139,-0.072567,5.361019,-20.669798,-0.300963,-0.832515,-0.899861,-0.289307,0.149658,-0.821777,0.015880,0.081193,-0.088419,0.999980,-0.001505,-0.004163,-0.004499,0.772381,-0.147014,-0.308358,0.535472
29314,NaN,1.858675,7.705989,-8.801570,0.393177,5.637046,-20.222813,-0.488326,-0.972383,-1.187251,-0.297852,0.151855,-0.819824,0.019471,0.076731,-0.088110,0.999968,-0.002442,-0.004862,-0.005936,0.773678,-0.144458,-0.314281,0.530831
29315,NaN,1.958772,7.023640,-8.469545,0.817640,5.581762,-19.460141,-0.568245,-1.056569,-1.441229,-0.310547,0.151855,-0.819824,0.020540,0.069850,-0.084787,0.999956,-0.002841,-0.005283,-0.007206,0.775440,-0.141054,-0.321619,0.524745
29316,NaN,1.706831,6.341950,-8.025480,1.077969,5.168507,-18.738080,-0.619975,-1.142877,-1.681007,-0.316895,0.151855,-0.815674,0.018058,0.063022,-0.080349,0.999944,-0.003100,-0.005714,-0.008405,0.777534,-0.137745,-0.328842,0.518005
29317,NaN,1.652431,5.719277,-7.537115,1.313576,4.958632,-17.932492,-0.635775,-1.271764,-1.896449,-0.331543,0.147705,-0.805420,0.017544,0.056790,-0.075443,0.999930,-0.003179,-0.006359,-0.009482,0.779904,-0.133178,-0.337491,0.510014
29318,NaN,1.826071,5.328377,-7.197217,1.528204,5.042180,-17.280125,-0.680571,-1.407913,-2.118559,-0.342041,0.141357,-0.805420,0.019329,0.052838,-0.072019,0.999913,-0.003403,-0.007039,-0.010592,0.782412,-0.128652,-0.346096,0.501496
29319,NaN,2.018360,5.499204,-6.753654,1.296066,5.394199,-16.822988,-0.748732,-1.537136,-2.369657,-0.356934,0.143555,-0.795410,0.021351,0.054491,-0.067580,0.999893,-0.003744,-0.007685,-0.011848,0.785156,-0.122932,-0.356287,0.491404
29320,NaN,2.337237,5.725629,-5.997722,0.853123,5.817387,-16.108888,-0.849885,-1.657977,-2.610498,-0.375977,0.145752,-0.789307,0.024612,0.056685,-0.060018,0.999871,-0.004249,-0.008290,-0.013052,0.787995,-0.117525,-0.366440,0.480596
29321,NaN,2.487565,5.937032,-5.440475,0.529635,6.130513,-15.571522,-1.009091,-1.759212,-2.862547,-0.392578,0.139404,-0.787109,0.026198,0.058727,-0.054476,0.999846,-0.005045,-0.008796,-0.014312,0.790950,-0.111275,-0.378232,0.467928
29322,NaN,2.298119,6.022306,-4.885059,0.207394,6.080206,-15.141238,-1.228289,-1.853291,-3.108666,-0.409424,0.133057,-0.774902,0.024364,0.059551,-0.048996,0.999817,-0.006141,-0.009266,-0.015542,0.793893,-0.105893,-0.390093,0.454255
29323,NaN,2.048098,5.899768,-4.316039,0.002240,5.875434,-14.619023,-1.447250,-2.047663,-3.399161,-0.426270,0.135254,-0.770996,0.021919,0.058320,-0.043365,0.999777,-0.007236,-0.010238,-0.016995,0.796680,-0.099549,-0.403985,0.438391
29324,NaN,2.753432,5.155752,-4.211298,0.792460,6.103507,-13.555339,-1.695381,-2.426991,-3.785111,-0.453613,0.128906,-0.754639,0.029011,0.050660,-0.042199,0.999711,-0.008476,-0.012134,-0.018924,0.799003,-0.093305,-0.419133,0.420970
29325,NaN,4.761731,4.331084,-4.400193,2.229058,7.216786,-11.743378,-1.844350,-2.976473,-4.363406,-0.476807,0.122803,-0.740234,0.049193,0.041845,-0.043668,0.999609,-0.009221,-0.014880,-0.021814,0.800764,-0.084422,-0.437467,0.400341
29326,NaN,8.019440,3.108137,-4.291114,4.007335,8.641590,-8.541383,-1.917706,-3.666483,-5.168011,-0.514404,0.110107,-0.719727,0.081727,0.028579,-0.041704,0.999452,-0.009587,-0.018329,-0.025835,0.801843,-0.073408,-0.457923,0.376785
29327,NaN,12.824716,2.585187,-3.995982,5.644786,11.057317,-4.077183,-2.466490,-4.619354,-6.238014,-0.545654,0.091064,-0.697021,0.129841,0.021347,-0.037254,0.999171,-0.012329,-0.023090,-0.031181,0.801379,-0.059435,-0.483650,0.346904
29328,NaN,23.667671,5.192931,-1.279761,5.351445,18.003346,5.535422,-2.565594,-5.901466,-7.720114,-0.601807,0.067871,-0.651855,0.238693,0.042630,-0.006359,0.998738,-0.012823,-0.029495,-0.038584,0.798726,-0.040737,-0.513417,0.311095
29329,NaN,45.593293,5.195388,-3.018803,12.518869,27.356708,24.931447,-3.544168,-7.738201,-9.415342,-0.657959,0.033936,-0.600342,0.458421,0.030069,-0.013138,0.997987,-0.017709,-0.038665,-0.047045,0.791004,-0.017701,-0.551341,0.264616
29330,NaN,82.644539,9.838547,-11.589916,26.365711,43.108346,57.243672,-4.938531,-8.141506,-10.885179,-0.700928,-0.008545,-0.556885,0.833920,0.050775,-0.083681,0.997387,-0.024671,-0.040672,-0.054378,0.780467,0.003580,-0.589563,0.208027
29331,NaN,85.496798,3.909297,-11.074077,26.401938,28.257265,67.263146,-5.648639,-7.049420,-11.064809,-0.735840,-0.036133,-0.507568,0.858484,-0.010927,-0.080668,0.997451,-0.028219,-0.035217,-0.055277,0.768833,0.022716,-0.622044,0.146430
29332,NaN,81.047754,0.159002,-11.143270,23.780186,13.356706,67.248725,-5.958001,-7.172229,-11.057380,-0.761475,-0.093506,-0.467773,0.812089,-0.046029,-0.081414,0.997386,-0.029764,-0.035830,-0.055239,0.753300,0.039388,-0.651068,0.084247
29333,NaN,86.726502,2.279710,-10.824995,19.860496,5.118300,75.113886,-5.417579,-6.913888,-10.447726,-0.789551,-0.140137,-0.426270,0.869836,-0.025007,-0.077948,0.997672,-0.027067,-0.034543,-0.052198,0.733675,0.057072,-0.676658,0.024461
29334,NaN,77.169336,0.353828,-9.076092,13.380997,-5.736436,66.470464,-4.841113,-6.153539,-9.098742,-0.801025,-0.178467,-0.390869,0.773028,-0.033429,-0.066470,0.998199,-0.024191,-0.030749,-0.045466,0.714038,0.070745,-0.695997,-0.027067
29335,NaN,68.462073,-2.094643,-5.541187,5.755177,-14.122215,57.164038,-3.983235,-5.410180,-7.696113,-0.818604,-0.220947,-0.359619,0.684268,-0.048137,-0.036115,0.998696,-0.019908,-0.027039,-0.038464,0.693634,0.083576,-0.711898,-0.071340
29336,NaN,58.644607,-4.891485,2.183273,-4.803514,-19.287046,45.604985,-2.730189,-4.392359,-6.229463,-0.819336,-0.259277,-0.334229,0.583873,-0.066708,0.035507,0.999181,-0.013647,-0.021956,-0.031139,0.676352,0.094650,-0.722968,-0.104434
29337,NaN,48.618045,-6.610603,10.514609,-14.693183,-20.680846,33.473419,-1.333593,-3.239827,-4.959065,-0.820312,-0.293213,-0.319336,0.482562,-0.077364,0.113474,0.999539,-0.006667,-0.016197,-0.024792,0.661464,0.107134,-0.731126,-0.128228
29338,NaN,38.165743,-8.473070,11.743625,-16.048923,-20.455858,21.652913,-0.186021,-1.998079,-3.688990,-0.821289,-0.322998,-0.302490,0.378811,-0.091624,0.121313,0.999780,-0.000930,-0.009990,-0.018444,0.651746,0.118706,-0.735478,-0.142153
29339,NaN,25.792806,-8.768528,7.354133,-10.689771,-17.356849,9.697570,0.457449,-1.391184,-2.564431,-0.818604,-0.342041,-0.293945,0.256255,-0.091149,0.075122,0.999891,0.002287,-0.006956,-0.012822,0.643940,0.129848,-0.738927,-0.149889
29340,NaN,19.594446,-7.320045,4.161356,-6.887570,-14.209475,4.521691,1.047649,-1.295242,-1.896336,-0.822266,-0.356934,-0.273438,0.194964,-0.075273,0.042488,0.999920,0.005238,-0.006476,-0.009481,0.636999,0.139254,-0.742594,-0.152956
29341,NaN,18.510870,-5.200436,3.966565,-6.708190,-12.116823,4.101403,1.453238,-1.314899,-1.339828,-0.825928,-0.374023,-0.258789,0.184489,-0.053534,0.040495,0.999930,0.007266,-0.006574,-0.006699,0.629706,0.148260,-0.747077,-0.152854
29342,NaN,20.361561,-2.092537,4.455452,-7.750854,-10.217866,6.750369,1.332587,-1.214513,-0.669815,-0.827637,-0.386719,-0.244141,0.203268,-0.021908,0.045646,0.999954,0.006663,-0.006072,-0.003349,0.623637,0.154031,-0.751390,-0.150881
29343,NaN,20.511032,1.061732,5.069762,-8.701746,-7.481100,7.959266,0.603857,-0.793804,-0.042228,-0.829590,-0.388916,-0.238037,0.204909,0.010419,0.051543,0.999988,0.003019,-0.003969,-0.000211,0.619973,0.155641,-0.754389,-0.149356
29344,NaN,17.394576,2.630551,5.459279,-8.696374,-4.704837,5.728602,-0.308975,-0.352758,0.310939,-0.836182,-0.382568,-0.234131,0.173808,0.026660,0.054858,0.999996,-0.001545,-0.001764,0.001555,0.619109,0.153254,-0.755492,-0.149834
29345,NaN,14.167029,2.670150,5.858831,-8.510355,-3.206111,2.814802,-1.250563,-0.151782,0.425185,-0.838623,-0.378418,-0.242432,0.141568,0.027369,0.058526,0.999978,-0.006253,-0.000759,0.002126,0.619751,0.147733,-0.755368,-0.153304
29346,NaN,11.361796,2.120193,5.614329,-7.702435,-2.413350,0.184908,-2.232244,-0.102366,0.428706,-0.836914,-0.365479,-0.248779,0.113543,0.022071,0.055958,0.999935,-0.011161,-0.000512,0.002143,0.621298,0.139117,-0.754244,-0.160475
29347,NaN,8.860963,1.178258,4.788471,-6.377122,-2.140948,-2.224513,-2.987988,-0.113735,0.386193,-0.845703,-0.354980,-0.259277,0.088559,0.012668,0.047750,0.999886,-0.014939,-0.000569,0.001931,0.623224,0.128263,-0.752366,-0.170545
29348,NaN,6.542402,-0.307692,4.004585,-5.187452,-2.472382,-4.722504,-3.406418,-0.109762,0.326710,-0.848145,-0.344238,-0.265381,0.065406,-0.002287,0.040125,0.999853,-0.017031,-0.000549,0.001633,0.625179,0.116315,-0.749904,-0.182388
29349,NaN,4.802939,-2.116375,3.654924,-4.647095,-3.314887,-6.928294,-3.487990,-0.050941,0.199682,-0.850586,-0.335693,-0.280029,0.048041,-0.020474,0.036923,0.999847,-0.017439,-0.000255,0.000998,0.627174,0.104442,-0.746862,-0.194789
29350,NaN,3.646560,-3.660447,3.579811,-4.573749,-4.126563,-8.563191,-3.270980,-0.005793,0.061673,-0.850830,-0.327148,-0.288330,0.036476,-0.036001,0.036391,0.999866,-0.016354,-0.000029,0.000308,0.628832,0.093942,-0.743628,-0.206789
29351,NaN,2.816416,-4.603018,3.692080,-4.746500,-4.494895,-9.687373,-2.883697,0.032546,-0.040941,-0.851318,-0.316406,-0.298828,0.028161,-0.045497,0.037575,0.999896,-0.014418,0.000163,-0.000205,0.630313,0.084990,-0.740390,-0.217499
29352,NaN,2.113571,-4.814162,3.782149,-4.836830,-4.268079,-10.391259,-2.444129,0.050616,-0.088159,-0.857666,-0.314453,-0.298828,0.021124,-0.047684,0.038401,0.999925,-0.012220,0.000253,-0.000441,0.631391,0.077670,-0.737482,-0.226789
29353,NaN,1.427557,-4.606648,3.588906,-4.569423,-3.759398,-10.873626,-1.978860,0.055772,-0.157876,-0.857910,-0.307861,-0.309082,0.014249,-0.045720,0.036339,0.999951,-0.009894,0.000279,-0.000789,0.632289,0.071953,-0.734903,-0.234415
29354,NaN,1.110629,-4.440891,3.380553,-4.339231,-3.465534,-11.055169,-1.467960,0.046581,-0.255034,-0.851562,-0.303711,-0.309082,0.011058,-0.044173,0.034128,0.999972,-0.007340,0.000233,-0.001275,0.632668,0.068309,-0.732925,-0.240595
29355,NaN,1.040035,-4.272949,3.455142,-4.404098,-3.218886,-11.045661,-0.971498,0.027441,-0.318057,-0.849365,-0.308105,-0.309082,0.010337,-0.042577,0.034757,0.999987,-0.004857,0.000137,-0.001590,0.632865,0.066317,-0.731482,-0.244987
29356,NaN,0.852156,-4.014725,3.111644,-4.006642,-2.979185,-11.076700,-0.516987,0.039600,-0.359629,-0.851562,-0.310059,-0.315186,0.008456,-0.040082,0.031218,0.999995,-0.002585,0.000198,-0.001798,0.632733,0.066051,-0.730602,-0.248004
29357,NaN,0.467922,-3.908145,2.887354,-3.702985,-2.777687,-11.362428,-0.103886,0.045875,-0.402777,-0.851318,-0.312256,-0.312988,0.004607,-0.039076,0.028893,0.999998,-0.000519,0.000229,-0.002014,0.632615,0.067174,-0.730107,-0.249459
29358,NaN,0.242195,-3.764883,2.747862,-3.489649,-2.597639,-11.503346,0.301248,0.065539,-0.450183,-0.853271,-0.320801,-0.306885,0.002346,-0.037695,0.027421,0.999996,0.001506,0.000328,-0.002251,0.632185,0.069859,-0.730123,-0.249763
29359,NaN,0.015042,-3.435943,2.776135,-3.387613,-2.221234,-11.574213,0.611912,0.075746,-0.501873,-0.840088,-0.331299,-0.308594,0.000075,-0.034444,0.027656,0.999992,0.003060,0.000379,-0.002509,0.631809,0.073630,-0.730375,-0.248895
29360,NaN,-0.157005,-3.055608,2.806702,-3.284435,-1.828212,-11.575918,0.826456,0.084997,-0.561464,-0.843994,-0.339844,-0.308594,-0.001644,-0.030667,0.027941,0.999987,0.004132,0.000425,-0.002807,0.631104,0.078404,-0.730921,-0.247619
29361,NaN,-0.257572,-2.756670,2.930147,-3.302582,-1.517180,-11.556914,0.939968,0.083248,-0.600857,-0.843994,-0.346191,-0.308350,-0.002647,-0.027696,0.029173,0.999984,0.004700,0.000416,-0.003004,0.630496,0.083627,-0.731466,-0.245844
29362,NaN,-0.257192,-2.544425,3.003674,-3.311861,-1.338505,-11.486652,0.967485,0.083855,-0.634954,-0.847900,-0.354736,-0.302246,-0.002640,-0.025581,0.029914,0.999983,0.004837,0.000419,-0.003175,0.629603,0.089108,-0.732115,-0.244271
29363,NaN,-0.253871,-2.390325,3.031688,-3.292035,-1.225241,-11.434538,0.977744,0.083624,-0.651991,-0.839111,-0.363281,-0.299805,-0.002604,-0.024043,0.030201,0.999983,0.004889,0.000418,-0.003260,0.628881,0.094613,-0.732629,-0.242511
29364,NaN,-0.328840,-2.204238,2.970927,-3.169014,-1.067864,-11.428277,0.920104,0.066330,-0.661869,-0.838867,-0.367432,-0.299805,-0.003352,-0.022168,0.029609,0.999984,0.004600,0.000332,-0.003309,0.627872,0.100016,-0.733213,-0.241189
29365,NaN,-0.690238,-1.789795,2.288210,-2.358611,-0.719172,-11.496555,0.758120,0.033142,-0.677228,-0.836426,-0.380371,-0.299561,-0.006959,-0.017961,0.022815,0.999987,0.003791,0.000166,-0.003386,0.627012,0.104856,-0.733554,-0.240332
29366,NaN,-1.179024,-1.464275,1.711708,-1.645265,-0.347427,-11.719654,0.628706,-0.046769,-0.694042,-0.829834,-0.386719,-0.291260,-0.011845,-0.014655,0.017068,0.999989,0.003144,-0.000234,-0.003470,0.625666,0.109322,-0.734086,-0.240226
29367,NaN,-1.289256,-1.636161,2.022846,-1.938580,-0.376478,-11.941360,0.544321,-0.183885,-0.731389,-0.831787,-0.393066,-0.289062,-0.012971,-0.016369,0.020172,0.999989,0.002722,-0.000919,-0.003657,0.624031,0.113448,-0.734781,-0.240440
29368,NaN,-0.301226,-2.217159,2.612827,-2.767435,-1.209340,-11.459536,0.510845,-0.356502,-0.825366,-0.827393,-0.395264,-0.282959,-0.003150,-0.022225,0.026066,0.999987,0.002554,-0.001783,-0.004127,0.621427,0.117651,-0.736031,-0.241340
29369,NaN,1.884728,-3.225272,3.273913,-3.958342,-2.975029,-10.204445,0.632318,-0.512120,-0.997240,-0.828857,-0.412109,-0.282715,0.018602,-0.032449,0.032685,0.999979,0.003162,-0.002561,-0.004986,0.618173,0.122600,-0.737664,-0.242246
29370,NaN,5.159007,-4.518492,4.049911,-5.522361,-5.523074,-8.253316,0.989408,-0.614416,-1.236761,-0.824219,-0.427246,-0.266113,0.051184,-0.045702,0.040432,0.999964,0.004947,-0.003072,-0.006184,0.613776,0.129478,-0.739978,-0.242789
29371,NaN,9.393340,-6.080752,5.268652,-7.739392,-8.773885,-5.802181,1.623602,-0.637727,-1.498533,-0.819336,-0.442139,-0.253418,0.093305,-0.061935,0.052485,0.999934,0.008118,-0.003189,-0.007493,0.608751,0.139187,-0.742753,-0.241592
29372,NaN,14.498340,-7.629341,6.691668,-10.303361,-12.580582,-2.831351,2.413172,-0.514477,-1.753439,-0.812500,-0.459229,-0.238770,0.144131,-0.078362,0.066351,0.999885,0.012065,-0.002572,-0.008767,0.602970,0.152414,-0.745930,-0.238299
29373,NaN,19.756841,-8.134346,7.497760,-12.125804,-15.951488,0.732063,3.151158,-0.186443,-2.003444,-0.800781,-0.490967,-0.223877,0.196663,-0.084486,0.073847,0.999825,0.015755,-0.000932,-0.010017,0.597688,0.169076,-0.748438,-0.232430
29374,NaN,22.681933,-6.874020,6.755673,-11.751813,-17.092695,3.492944,3.522361,0.411724,-2.209506,-0.791504,-0.514404,-0.215332,0.226170,-0.072411,0.065837,0.999782,0.017611,0.002058,-0.011047,0.593550,0.188318,-0.749270,-0.225454
