// Start Time: Unknown
// Update Rate: 100.0Hz
// Filter Profile: human (46.1)
// Firmware Version: 4.4.0
PacketCounter,SampleTimeFine,Acc_X,Acc_Y,Acc_Z,FreeAcc_X,FreeAcc_Y,FreeAcc_Z,Gyr_X,Gyr_Y,Gyr_Z,Mag_X,Mag_Y,Mag_Z,VelInc_X,VelInc_Y,VelInc_Z,OriInc_q0,OriInc_q1,OriInc_q2,OriInc_q3,Quat_q0,Quat_q1,Quat_q2,Quat_q3
62047,NaN,8.433292,2.330465,1.701671,0.102856,0.116654,-0.900738,-0.310926,-0.311578,-0.488721,-0.778564,0.419434,-0.106689,0.084363,0.023125,0.017112,0.999995,-0.001555,-0.001558,-0.002444,0.454485,-0.401507,-0.500527,-0.617825
62048,NaN,8.434765,2.542547,1.743798,0.270157,0.161424,-0.837644,-0.286026,-0.332987,-0.551564,-0.782715,0.415283,-0.100342,0.084388,0.025218,0.017542,0.999994,-0.001430,-0.001665,-0.002758,0.451371,-0.401803,-0.501504,-0.619122
62049,NaN,8.395524,2.732620,1.666536,0.414778,0.092948,-0.837809,-0.248778,-0.353594,-0.623057,-0.782715,0.413086,-0.094238,0.084010,0.027085,0.016780,0.999993,-0.001244,-0.001768,-0.003115,0.448316,-0.401612,-0.502689,-0.620504
62050,NaN,8.409511,2.658062,1.618103,0.284875,0.077372,-0.850771,-0.191976,-0.375582,-0.704194,-0.789062,0.410889,-0.090088,0.084157,0.026300,0.016314,0.999992,-0.000960,-0.001878,-0.003521,0.444798,-0.401434,-0.504345,-0.621805
62051,NaN,8.496958,2.424701,1.490961,-0.043256,-0.010633,-0.851773,-0.106166,-0.379505,-0.798303,-0.796875,0.396240,-0.092041,0.085037,0.023916,0.015058,0.999990,-0.000531,-0.001898,-0.003991,0.440856,-0.400315,-0.506627,-0.623476
62052,NaN,8.462555,2.250531,1.312636,-0.279316,-0.129119,-0.963536,-0.004154,-0.376144,-0.893223,-0.796875,0.391846,-0.079590,0.084700,0.022127,0.013285,0.999988,-0.000021,-0.001881,-0.004466,0.437106,-0.399230,-0.509225,-0.624695
62053,NaN,8.227831,2.298967,1.161897,-0.251776,-0.212122,-1.197389,0.076428,-0.358956,-1.002857,-0.798828,0.387695,-0.081543,0.082371,0.022572,0.011775,0.999986,0.000382,-0.001795,-0.005014,0.433137,-0.397589,-0.512323,-0.625972
62054,NaN,8.004723,2.377512,1.122498,-0.197814,-0.191539,-1.391789,0.133851,-0.361853,-1.114902,-0.806885,0.377197,-0.083496,0.080158,0.023321,0.011386,0.999983,0.000669,-0.001809,-0.005574,0.428980,-0.395568,-0.515733,-0.627313
62055,NaN,7.959699,2.249861,1.229492,-0.381556,-0.014582,-1.459032,0.157659,-0.377675,-1.228184,-0.812744,0.362305,-0.075195,0.079710,0.022000,0.012463,0.999979,0.000788,-0.001888,-0.006141,0.424569,-0.394020,-0.519691,-0.628021
62056,NaN,7.978632,2.161384,1.185501,-0.577017,-0.010931,-1.481938,0.113209,-0.392555,-1.326923,-0.814453,0.351562,-0.072754,0.079904,0.021077,0.012024,0.999976,0.000566,-0.001963,-0.006635,0.419595,-0.391555,-0.523481,-0.629756
62057,NaN,7.917448,2.257756,1.198355,-0.537344,0.050042,-1.510457,0.034658,-0.402087,-1.426415,-0.822510,0.338867,-0.068604,0.079308,0.022010,0.012147,0.999973,0.000173,-0.002010,-0.007132,0.415124,-0.390669,-0.526662,-0.630616
62058,NaN,7.945173,2.153863,1.345137,-0.753358,0.243379,-1.509306,-0.065273,-0.425517,-1.533501,-0.824219,0.328369,-0.066406,0.079585,0.020933,0.013614,0.999968,-0.000326,-0.002128,-0.007667,0.409028,-0.388096,-0.530318,-0.633120
62059,NaN,8.040888,1.877534,1.428334,-1.102315,0.383328,-1.514640,-0.160135,-0.442939,-1.625666,-0.830322,0.317627,-0.062012,0.080526,0.018133,0.014447,0.999964,-0.000801,-0.002215,-0.008128,0.404415,-0.387786,-0.532247,-0.634653
62060,NaN,8.145628,1.595967,1.530021,-1.524104,0.547401,-1.529262,-0.234690,-0.446858,-1.703830,-0.840332,0.302734,-0.055664,0.081554,0.015283,0.015464,0.999961,-0.001173,-0.002234,-0.008519,0.397348,-0.385129,-0.535688,-0.637831
62061,NaN,8.099800,1.472979,1.580311,-1.643489,0.633850,-1.617002,-0.311526,-0.437433,-1.779251,-0.842041,0.290039,-0.045410,0.081090,0.014033,0.015958,0.999957,-0.001558,-0.002187,-0.008896,0.393837,-0.385880,-0.535389,-0.639803
62062,NaN,8.000932,1.298726,1.620172,-1.895007,0.747333,-1.801742,-0.377952,-0.436349,-1.838220,-0.847656,0.270996,-0.047119,0.080089,0.012282,0.016353,0.999954,-0.001890,-0.002182,-0.009191,0.386041,-0.383082,-0.538561,-0.643563
62063,NaN,8.084641,0.917864,1.661305,-2.272429,0.830648,-1.868629,-0.422964,-0.446760,-1.882186,-0.855713,0.256104,-0.038574,0.080891,0.008453,0.016775,0.999951,-0.002115,-0.002234,-0.009411,0.383590,-0.384596,-0.536701,-0.645676
62064,NaN,8.210609,0.637707,1.676927,-2.710869,0.923340,-1.911451,-0.459013,-0.453056,-1.909365,-0.861572,0.243408,-0.032471,0.082124,0.005632,0.016942,0.999949,-0.002295,-0.002265,-0.009547,0.375308,-0.381795,-0.539732,-0.649665
62065,NaN,8.283755,0.441270,1.625590,-2.871929,0.881098,-1.911325,-0.473029,-0.455068,-1.925765,-0.864990,0.222168,-0.031982,0.082838,0.003654,0.016435,0.999948,-0.002365,-0.002275,-0.009629,0.375577,-0.384632,-0.536249,-0.650721
62066,NaN,8.335731,0.096638,1.609903,-3.338577,0.969358,-2.066868,-0.475835,-0.468476,-1.922242,-0.866699,0.209473,-0.025635,0.083324,0.000204,0.016293,0.999948,-0.002379,-0.002342,-0.009611,0.367133,-0.381875,-0.539249,-0.654672
62067,NaN,8.473638,-0.263993,1.663554,-3.658124,1.131090,-2.068251,-0.462365,-0.476239,-1.900856,-0.868408,0.196777,-0.019287,0.084666,-0.003406,0.016844,0.999949,-0.002312,-0.002381,-0.009504,0.359829,-0.389683,-0.531648,-0.660319
62068,NaN,8.633478,-0.536416,1.653434,-4.095753,1.229279,-2.113983,-0.435833,-0.483783,-1.861216,-0.874023,0.175537,-0.019043,0.086240,-0.006131,0.016756,0.999951,-0.002179,-0.002419,-0.009306,0.351531,-0.387098,-0.534680,-0.663851
62069,NaN,8.685239,-0.666246,1.759102,-4.131406,1.458234,-2.081281,-0.415821,-0.492123,-1.817443,-0.880127,0.162842,-0.018799,0.086744,-0.007414,0.017819,0.999954,-0.002079,-0.002461,-0.009087,0.343292,-0.396800,-0.526366,-0.669058
62070,NaN,8.890359,-0.725952,1.808254,-4.382004,1.588062,-1.995445,-0.395762,-0.499984,-1.768706,-0.883789,0.145752,-0.002197,0.088789,-0.008009,0.018320,0.999956,-0.001979,-0.002500,-0.008843,0.335259,-0.394480,-0.529386,-0.672114
62071,NaN,9.104964,-0.841433,1.838841,-4.390994,1.681224,-1.757858,-0.387360,-0.512224,-1.713543,-0.883057,0.128662,0.000244,0.090926,-0.009158,0.018639,0.999958,-0.001937,-0.002561,-0.008568,0.334919,-0.405179,-0.520727,-0.672683
62072,NaN,9.382115,-1.063988,1.864179,-4.812107,1.835410,-1.682245,-0.380439,-0.525955,-1.652818,-0.888916,0.113770,0.004639,0.093680,-0.011379,0.018909,0.999961,-0.001902,-0.002630,-0.008264,0.327207,-0.403266,-0.523656,-0.675350
62073,NaN,9.660328,-1.184153,1.933300,-5.082511,1.648764,-1.451504,-0.368910,-0.526537,-1.579716,-0.884277,0.103271,0.006836,0.096455,-0.012568,0.019610,0.999964,-0.001845,-0.002633,-0.007898,0.344249,-0.391689,-0.529809,-0.668861
62074,NaN,9.898276,-1.184465,2.038743,-5.278586,1.826167,-1.307694,-0.359797,-0.527807,-1.513697,-0.890381,0.090576,0.013184,0.098835,-0.012556,0.020671,0.999966,-0.001799,-0.002639,-0.007568,0.337072,-0.390051,-0.532461,-0.671363
62075,NaN,10.012551,-1.013275,2.020920,-5.112228,1.994905,-1.138263,-0.391893,-0.529616,-1.444551,-0.887695,0.077637,0.019531,0.099995,-0.010815,0.020495,0.999968,-0.001959,-0.002648,-0.007223,0.323676,-0.400860,-0.525935,-0.676711
62076,NaN,10.098821,-0.985320,1.959476,-5.232307,2.015953,-1.132035,-0.442046,-0.549013,-1.373331,-0.895752,0.064941,0.027832,0.100863,-0.010502,0.019894,0.999970,-0.002210,-0.002745,-0.006867,0.316690,-0.399810,-0.528065,-0.678975
62077,NaN,10.241367,-1.067665,1.923531,-5.320235,1.988377,-1.011252,-0.487759,-0.573578,-1.302348,-0.895264,0.052246,0.032227,0.102286,-0.011296,0.019556,0.999972,-0.002439,-0.002868,-0.006512,0.319275,-0.401825,-0.527246,-0.677208
62078,NaN,10.275556,-1.207736,1.997447,-5.517683,2.186109,-1.105793,-0.532620,-0.591659,-1.227174,-0.895020,0.041504,0.032227,0.102619,-0.012654,0.020311,0.999973,-0.002663,-0.002958,-0.006136,0.312482,-0.401433,-0.528839,-0.679364
62079,NaN,10.267320,-1.409467,2.036437,-5.558307,2.313880,-1.135057,-0.571929,-0.619533,-1.151737,-0.892578,0.031006,0.042725,0.102526,-0.014626,0.020723,0.999975,-0.002860,-0.003098,-0.005759,0.311786,-0.407915,-0.523485,-0.679970
62080,NaN,10.336703,-1.754222,2.131769,-5.918234,2.594046,-1.285485,-0.586942,-0.663904,-1.074139,-0.892090,0.020264,0.049072,0.103199,-0.018033,0.021713,0.999976,-0.002935,-0.003319,-0.005371,0.305192,-0.408266,-0.524702,-0.681810
62081,NaN,10.641853,-2.161458,2.296089,-6.324194,2.930738,-1.175163,-0.546826,-0.709216,-1.001008,-0.889648,0.011719,0.057373,0.106226,-0.022083,0.023398,0.999977,-0.002734,-0.003546,-0.005005,0.302559,-0.411796,-0.523029,-0.682146
62082,NaN,10.983414,-2.356542,2.623353,-6.607846,3.414573,-0.995306,-0.480002,-0.730709,-0.919773,-0.889160,-0.005127,0.059814,0.109627,-0.024006,0.026692,0.999980,-0.002400,-0.003654,-0.004599,0.296516,-0.412601,-0.524381,-0.683274
62083,NaN,11.375519,-2.350931,2.804289,-6.701986,3.683892,-0.630956,-0.410895,-0.747248,-0.840109,-0.889160,-0.005127,0.065918,0.113549,-0.023928,0.028516,0.999982,-0.002054,-0.003736,-0.004201,0.292571,-0.415964,-0.522344,-0.684494
62084,NaN,11.623025,-2.495443,2.875205,-6.946626,3.913045,-0.537998,-0.338080,-0.734719,-0.750773,-0.897461,-0.009521,0.074219,0.116029,-0.025341,0.029221,0.999985,-0.001690,-0.003674,-0.003754,0.287375,-0.417007,-0.523816,-0.684937
62085,NaN,11.604474,-2.599882,2.919831,-6.836248,4.075857,-0.506749,-0.248811,-0.719928,-0.662007,-0.892822,-0.020020,0.082520,0.115852,-0.026346,0.029648,0.999987,-0.001244,-0.003600,-0.003310,0.285963,-0.425033,-0.518308,-0.684783
62086,NaN,11.570867,-2.663766,2.881744,-6.897053,4.158618,-0.624621,-0.135408,-0.705436,-0.581545,-0.894775,-0.024414,0.088623,0.115528,-0.026954,0.029243,0.999989,-0.000677,-0.003527,-0.002908,0.281852,-0.426131,-0.520084,-0.684459
62087,NaN,11.486048,-2.767378,2.908681,-6.836037,4.167177,-0.650240,-0.021224,-0.693285,-0.494821,-0.888184,-0.030762,0.094971,0.114690,-0.027955,0.029488,0.999991,-0.000106,-0.003466,-0.002474,0.286710,-0.429180,-0.517995,-0.682117
62088,NaN,11.410092,-3.024934,2.810145,-7.050644,4.234116,-0.890958,0.106705,-0.684116,-0.404040,-0.890381,-0.032959,0.101074,0.113943,-0.030495,0.028475,0.999992,0.000534,-0.003421,-0.002020,0.283786,-0.430311,-0.520202,-0.680946
62089,NaN,11.574002,-3.244591,2.720024,-7.239613,4.249244,-0.789678,0.256793,-0.692161,-0.312281,-0.894531,-0.030762,0.109375,0.115594,-0.032662,0.027559,0.999992,0.001284,-0.003461,-0.001561,0.285353,-0.434376,-0.518445,-0.679048
62090,NaN,12.126117,-3.441476,2.722332,-7.658274,4.423300,-0.427475,0.444876,-0.706521,-0.217408,-0.892334,-0.037109,0.119629,0.121127,-0.034608,0.027575,0.999991,0.002224,-0.003533,-0.001087,0.283746,-0.435573,-0.521431,-0.676664
62091,NaN,13.335027,-3.585378,2.917204,-8.169244,4.630868,0.723247,0.683758,-0.700792,-0.124380,-0.890137,-0.037109,0.119629,0.133225,-0.036037,0.029516,0.999988,0.003419,-0.003504,-0.000622,0.292674,-0.437631,-0.522470,-0.670705
62092,NaN,14.189439,-3.471688,3.187503,-8.378146,4.981082,1.525217,0.905850,-0.623804,-0.012859,-0.894287,-0.037109,0.125732,0.141792,-0.034871,0.032160,0.999985,0.004529,-0.003119,-0.000064,0.292978,-0.438359,-0.526441,-0.666982
62093,NaN,14.291452,-3.119409,3.409291,-7.848834,5.111433,1.929053,1.074738,-0.499771,0.126379,-0.892334,-0.030762,0.133789,0.142849,-0.031288,0.034282,0.999982,0.005374,-0.002499,0.000632,0.297986,-0.444403,-0.523788,-0.662840
62094,NaN,13.781973,-2.812446,3.596369,-7.314004,5.199346,1.600402,1.196081,-0.357627,0.273448,-0.885986,-0.037354,0.131836,0.137794,-0.028151,0.036042,0.999980,0.005980,-0.001788,0.001367,0.300605,-0.444514,-0.527668,-0.658491
62095,NaN,12.846178,-2.587812,3.704657,-6.533114,5.145070,0.971200,1.276750,-0.207856,0.427266,-0.894775,-0.022461,0.143799,0.128479,-0.025840,0.037015,0.999977,0.006384,-0.001039,0.002136,0.306619,-0.448807,-0.525351,-0.654647
62096,NaN,11.585578,-2.412817,3.711079,-5.858807,4.999869,-0.091832,1.338605,-0.068067,0.583918,-0.893066,-0.016113,0.149902,0.115913,-0.024038,0.036989,0.999973,0.006693,-0.000340,0.002920,0.311345,-0.448501,-0.528513,-0.650065
62097,NaN,10.467068,-2.339680,3.556666,-5.351841,4.561272,-0.967583,1.390075,0.054052,0.739720,-0.897461,-0.009521,0.141602,0.104766,-0.023256,0.035376,0.999969,0.006950,0.000270,0.003699,0.327180,-0.446120,-0.530582,-0.642194
62098,NaN,9.793026,-2.304592,3.320389,-5.099728,4.240202,-1.551175,1.431899,0.134129,0.902332,-0.889160,-0.003418,0.147705,0.098056,-0.022840,0.032974,0.999964,0.007159,0.000671,0.004512,0.333612,-0.445727,-0.532930,-0.637194
62099,NaN,9.799834,-2.290690,3.146255,-5.037028,3.933514,-1.425903,1.486181,0.203340,1.063987,-0.889648,0.009521,0.147461,0.098151,-0.022617,0.031194,0.999958,0.007431,0.001017,0.005320,0.346155,-0.446324,-0.531914,-0.630903
62100,NaN,10.331922,-2.204206,2.927648,-5.152716,3.653578,-0.852880,1.535909,0.273244,1.233898,-0.894043,0.015869,0.145264,0.103493,-0.021627,0.028968,0.999951,0.007679,0.001366,0.006169,0.354181,-0.446067,-0.533508,-0.625259
62101,NaN,11.151325,-2.066176,2.761739,-5.232839,3.337900,0.072782,1.576519,0.371337,1.405294,-0.890625,0.037109,0.140869,0.111707,-0.020093,0.027250,0.999943,0.007882,0.001857,0.007026,0.367401,-0.445618,-0.533224,-0.618153
62102,NaN,11.971010,-1.837139,2.579344,-5.226834,3.038325,0.993762,1.610941,0.487820,1.581099,-0.897461,0.056152,0.138428,0.119914,-0.017629,0.025357,0.999933,0.008055,0.002439,0.007905,0.377148,-0.445340,-0.533752,-0.611997
62103,NaN,12.670609,-1.590400,2.319109,-5.038443,2.575439,1.867608,1.624127,0.622122,1.749908,-0.900146,0.073242,0.125732,0.126911,-0.014980,0.022672,0.999924,0.008120,0.003111,0.008749,0.391911,-0.445888,-0.531709,-0.604049
62104,NaN,13.276868,-1.177562,2.069147,-4.689812,2.138059,2.652150,1.606064,0.766757,1.922546,-0.892090,0.085938,0.127686,0.132953,-0.010661,0.020093,0.999914,0.008030,0.003834,0.009612,0.403296,-0.445502,-0.530730,-0.597667
62105,NaN,13.623556,-0.675767,1.827565,-4.009243,1.636769,3.250151,1.521231,0.926252,2.092892,-0.892822,0.107178,0.108887,0.136380,-0.005467,0.017599,0.999906,0.007606,0.004631,0.010464,0.418550,-0.447062,-0.525769,-0.590354
62106,NaN,13.664976,-0.270507,1.540499,-3.411234,1.140181,3.462572,1.381640,1.093484,2.252617,-0.893799,0.132812,0.108398,0.136751,-0.001268,0.014645,0.999898,0.006908,0.005467,0.011263,0.431112,-0.446824,-0.522476,-0.584389
62107,NaN,13.410828,-0.030767,1.378817,-2.756241,0.758354,3.361923,1.201443,1.232077,2.398836,-0.881592,0.149658,0.095947,0.134181,0.001222,0.012966,0.999891,0.006007,0.006160,0.011994,0.446171,-0.448933,-0.515234,-0.577862
62108,NaN,13.141243,0.100503,1.230465,-2.290141,0.423738,3.178887,1.001261,1.331026,2.534481,-0.884766,0.177246,0.085205,0.131464,0.002612,0.011440,0.999885,0.005006,0.006655,0.012672,0.459110,-0.449337,-0.509417,-0.572546
62109,NaN,13.059292,0.232737,1.283601,-1.775611,0.281087,3.187427,0.800784,1.386005,2.656928,-0.881348,0.205078,0.068359,0.130632,0.004014,0.011945,0.999880,0.004004,0.006930,0.013284,0.473302,-0.451245,-0.501872,-0.566116
62110,NaN,13.192037,0.368870,1.403125,-1.320294,0.182863,3.391266,0.589140,1.434908,2.783208,-0.873535,0.224121,0.063965,0.131949,0.005485,0.013099,0.999873,0.002946,0.007174,0.013915,0.486039,-0.452722,-0.493810,-0.561213
62111,NaN,13.470553,0.592910,1.635043,-0.688831,0.169696,3.750563,0.362810,1.483512,2.907829,-0.863770,0.247559,0.043213,0.134717,0.007859,0.015364,0.999865,0.001814,0.007417,0.014538,0.500641,-0.455656,-0.483889,-0.554606
62112,NaN,13.692548,0.914366,1.906383,0.012132,0.189391,4.040192,0.110986,1.539350,3.039233,-0.858398,0.275146,0.038574,0.136907,0.011214,0.018016,0.999855,0.000555,0.007696,0.015195,0.512961,-0.458404,-0.473360,-0.550152
62113,NaN,13.576111,1.069539,1.918109,0.645736,-0.003632,3.924023,-0.154343,1.591819,3.172895,-0.851074,0.306885,0.031982,0.135715,0.012863,0.018091,0.999842,-0.000772,0.007959,0.015864,0.525553,-0.463254,-0.460439,-0.545147
62114,NaN,13.245532,1.060640,1.943003,1.078098,-0.156885,3.571513,-0.410073,1.636231,3.304428,-0.843506,0.332275,0.017334,0.132408,0.012833,0.018322,0.999828,-0.002050,0.008181,0.016521,0.537273,-0.467408,-0.447301,-0.541099
62115,NaN,12.724708,1.068076,1.971525,1.589011,-0.272855,3.006275,-0.668511,1.649366,3.420902,-0.833496,0.353516,0.010742,0.127195,0.012920,0.018625,0.999814,-0.003342,0.008246,0.017103,0.550440,-0.473101,-0.431912,-0.535391
62116,NaN,12.175287,0.860483,1.964542,1.791524,-0.392862,2.412429,-0.905141,1.628825,3.515204,-0.822021,0.387451,-0.001953,0.121730,0.010830,0.018608,0.999802,-0.004525,0.008144,0.017575,0.561103,-0.478739,-0.416621,-0.531412
62117,NaN,11.845874,0.554452,1.855022,1.968033,-0.671063,2.008066,-1.090971,1.586136,3.576166,-0.806152,0.419434,-0.006592,0.118475,0.007761,0.017572,0.999794,-0.005454,0.007930,0.017880,0.571953,-0.487017,-0.396952,-0.527365
62118,NaN,11.560279,0.083207,1.766633,1.887908,-0.879227,1.694350,-1.216331,1.531417,3.618933,-0.790039,0.446777,-0.013184,0.115692,0.003029,0.016767,0.999788,-0.006081,0.007657,0.018093,0.581438,-0.493548,-0.380485,-0.523041
62119,NaN,11.412093,-0.296900,1.639040,1.980371,-1.188907,1.485848,-1.278647,1.472484,3.637488,-0.774170,0.472412,-0.017578,0.114265,-0.000790,0.015559,0.999787,-0.006393,0.007362,0.018186,0.590808,-0.502542,-0.359188,-0.519020
62120,NaN,11.228270,-0.622957,1.515792,2.026678,-1.428110,1.259599,-1.284807,1.416434,3.633707,-0.753906,0.501953,-0.020020,0.112474,-0.004093,0.014393,0.999789,-0.006424,0.007082,0.018167,0.599415,-0.509093,-0.342482,-0.514036
62121,NaN,11.004560,-0.938308,1.335248,2.112615,-1.742161,0.969210,-1.233504,1.369918,3.605444,-0.733643,0.531738,-0.028564,0.110278,-0.007317,0.012647,0.999795,-0.006167,0.006849,0.018026,0.607907,-0.517327,-0.321494,-0.509376
62122,NaN,10.741459,-1.212144,1.201249,2.143965,-1.945132,0.670459,-1.127790,1.319548,3.564569,-0.717773,0.559082,-0.026855,0.107683,-0.010138,0.011363,0.999804,-0.005639,0.006597,0.017822,0.616058,-0.523034,-0.305346,-0.503659
62123,NaN,10.427331,-1.467977,0.971737,2.184586,-2.248565,0.286168,-0.971673,1.279617,3.489720,-0.697510,0.588867,-0.029541,0.104567,-0.012812,0.009114,0.999816,-0.004858,0.006398,0.017448,0.624173,-0.529722,-0.285669,-0.498192
62124,NaN,10.142603,-1.710835,0.818062,2.174129,-2.440231,-0.026201,-0.764089,1.245312,3.395312,-0.670654,0.609863,-0.035889,0.101745,-0.015353,0.007609,0.999829,-0.003820,0.006226,0.016976,0.632268,-0.533776,-0.270856,-0.491892
62125,NaN,9.899184,-1.836482,0.574380,2.276941,-2.757955,-0.384254,-0.513069,1.214994,3.273562,-0.656494,0.624756,-0.035889,0.099307,-0.016727,0.005185,0.999844,-0.002565,0.006075,0.016367,0.640429,-0.538195,-0.253283,-0.485845
62126,NaN,9.704682,-1.890196,0.401768,2.404004,-2.990982,-0.692337,-0.240147,1.190676,3.134424,-0.632080,0.652344,-0.048584,0.097349,-0.017373,0.003460,0.999859,-0.001201,0.005953,0.015671,0.648803,-0.539978,-0.240436,-0.479238
62127,NaN,9.465937,-1.850193,0.213699,2.589322,-3.244176,-1.104321,0.043723,1.175577,2.978101,-0.617676,0.671387,-0.046875,0.094931,-0.017090,0.001576,0.999872,0.000219,0.005878,0.014890,0.657223,-0.541787,-0.225388,-0.472996
62128,NaN,9.116374,-1.759419,0.036814,2.704996,-3.412081,-1.612739,0.323928,1.174173,2.810980,-0.586426,0.686035,-0.055176,0.091399,-0.016311,-0.000195,0.999883,0.001620,0.005871,0.014054,0.665984,-0.541063,-0.214675,-0.466509
62129,NaN,8.652565,-1.568585,-0.017338,2.860505,-3.429585,-2.237888,0.572558,1.170396,2.640668,-0.567871,0.700928,-0.067627,0.086720,-0.014540,-0.000723,0.999892,0.002863,0.005852,0.013203,0.674608,-0.540355,-0.202103,-0.460516
62130,NaN,8.180619,-1.353760,-0.012557,2.983065,-3.351881,-2.840084,0.780604,1.162832,2.449124,-0.549316,0.709229,-0.071777,0.081961,-0.012533,-0.000652,0.999901,0.003903,0.005814,0.012245,0.683455,-0.537479,-0.193362,-0.454552
62131,NaN,7.833727,-1.014858,0.057753,3.263166,-3.258912,-3.399548,0.928759,1.133716,2.254845,-0.537109,0.726318,-0.088379,0.078446,-0.009266,0.000089,0.999910,0.004644,0.005668,0.011274,0.691770,-0.534915,-0.183106,-0.449214
62132,NaN,7.690308,-0.720195,0.212122,3.587409,-3.141404,-3.732895,1.018922,1.099442,2.034078,-0.520264,0.732666,-0.096680,0.076981,-0.006429,0.001664,0.999920,0.005094,0.005497,0.010170,0.700006,-0.530754,-0.176157,-0.444139
62133,NaN,7.712550,-0.432056,0.431739,3.996316,-3.034561,-3.924115,1.058189,1.057600,1.790181,-0.501709,0.740967,-0.110840,0.077182,-0.003651,0.003889,0.999932,0.005291,0.005288,0.008951,0.707306,-0.527183,-0.168066,-0.439942
62134,NaN,7.895161,-0.163799,0.590687,4.433648,-3.031280,-3.993601,1.076304,1.026561,1.511432,-0.491211,0.745361,-0.125244,0.078990,-0.001071,0.005495,0.999944,0.005381,0.005133,0.007557,0.714283,-0.522373,-0.162831,-0.436363
62135,NaN,8.065427,-0.050292,0.708078,4.720665,-3.075500,-3.998015,1.084167,1.002224,1.208292,-0.482910,0.747559,-0.143799,0.080690,-0.000052,0.006675,0.999955,0.005421,0.005011,0.006041,0.720182,-0.518069,-0.156946,-0.433947
62136,NaN,8.099174,0.183857,0.774684,4.986673,-3.078047,-4.165704,1.037381,0.974633,0.905405,-0.470215,0.749512,-0.147705,0.081019,0.002166,0.007363,0.999964,0.005187,0.004873,0.004527,0.725566,-0.512924,-0.153358,-0.432371
62137,NaN,8.098782,0.479172,0.824141,5.262421,-3.074282,-4.394733,0.930176,0.933701,0.606167,-0.468262,0.753906,-0.160156,0.081010,0.005000,0.007886,0.999974,0.004651,0.004668,0.003031,0.729641,-0.508630,-0.149399,-0.431972
62138,NaN,8.223133,0.488326,0.843695,5.357776,-3.175038,-4.355293,0.776851,0.868006,0.313687,-0.461670,0.749512,-0.166260,0.082259,0.004980,0.008099,0.999982,0.003884,0.004340,0.001568,0.732922,-0.504159,-0.147131,-0.432436
62139,NaN,8.500490,0.309135,0.750074,5.357174,-3.473649,-4.142538,0.601677,0.787862,0.041795,-0.461670,0.749512,-0.168213,0.085033,0.003087,0.007175,0.999988,0.003008,0.003939,0.000209,0.734826,-0.500782,-0.144890,-0.433883
62140,NaN,8.763964,0.200679,0.667778,5.387430,-3.745640,-3.961303,0.405625,0.706706,-0.221122,-0.465820,0.747559,-0.176270,0.087665,0.001897,0.006372,0.999991,0.002028,0.003534,-0.001106,0.735861,-0.497607,-0.143748,-0.436157
62141,NaN,8.800336,0.135891,0.584415,5.304644,-3.896895,-3.940678,0.183078,0.619484,-0.468567,-0.465820,0.743164,-0.176270,0.088024,0.001148,0.005573,0.999992,0.000915,0.003097,-0.002343,0.735480,-0.495658,-0.142929,-0.439277
62142,NaN,9.028772,0.149002,0.563078,5.389637,-4.079597,-3.798858,-0.053463,0.502189,-0.732391,-0.469971,0.745361,-0.176270,0.090306,0.001161,0.005404,0.999990,-0.000267,0.002511,-0.003662,0.734083,-0.494237,-0.142801,-0.443238
62143,NaN,9.722797,0.032144,0.550301,5.614859,-4.496430,-3.248296,-0.274782,0.370368,-1.011761,-0.474121,0.743164,-0.174316,0.097238,-0.000163,0.005323,0.999985,-0.001374,0.001852,-0.005059,0.731163,-0.494053,-0.143634,-0.447975
62144,NaN,10.432807,-0.141581,0.396578,5.738560,-5.050182,-2.700453,-0.453226,0.266759,-1.275491,-0.484375,0.728516,-0.169922,0.104321,-0.002072,0.003831,0.999976,-0.002266,0.001334,-0.006377,0.727353,-0.494199,-0.144813,-0.453601
62145,NaN,10.638913,-0.214370,0.338395,5.653933,-5.233286,-2.464861,-0.592736,0.199903,-1.515444,-0.496826,0.726318,-0.166016,0.106372,-0.002940,0.003286,0.999966,-0.002964,0.001000,-0.007577,0.722297,-0.495118,-0.147186,-0.459871
62146,NaN,10.576562,-0.192417,0.428699,5.517855,-5.148216,-2.387668,-0.703013,0.119245,-1.727916,-0.509521,0.722168,-0.161865,0.105746,-0.002823,0.004233,0.999956,-0.003515,0.000596,-0.008639,0.716633,-0.496103,-0.149432,-0.466894
62147,NaN,10.360771,-0.264654,0.566146,5.221017,-4.922550,-2.313188,-0.773935,0.046953,-1.911629,-0.526123,0.713623,-0.157715,0.103578,-0.003615,0.005650,0.999947,-0.003870,0.000235,-0.009558,0.709932,-0.497629,-0.153263,-0.474207
62148,NaN,9.718139,-0.478992,0.558175,4.554157,-4.612024,-2.534715,-0.807656,-0.007726,-2.065001,-0.542725,0.705322,-0.151367,0.097125,-0.005770,0.005607,0.999939,-0.004038,-0.000039,-0.010325,0.702969,-0.498916,-0.156525,-0.482097
62149,NaN,8.834627,-0.471734,0.757354,4.015083,-3.955644,-2.951505,-0.820509,-0.093814,-2.182531,-0.554932,0.692627,-0.141113,0.088284,-0.005650,0.007637,0.999932,-0.004102,-0.000469,-0.010912,0.695186,-0.500578,-0.161671,-0.489898
62150,NaN,8.484618,-0.374959,0.827591,3.793214,-3.694848,-3.121583,-0.835528,-0.224957,-2.299609,-0.571777,0.686279,-0.130859,0.084786,-0.004690,0.008390,0.999925,-0.004178,-0.001125,-0.011498,0.687220,-0.502151,-0.166171,-0.497956
62151,NaN,8.792701,-0.358306,0.794990,3.766308,-3.828943,-2.796813,-0.867183,-0.381276,-2.401568,-0.588379,0.673584,-0.126465,0.087860,-0.004603,0.008136,0.999917,-0.004336,-0.001906,-0.012008,0.678309,-0.504291,-0.172894,-0.505664
62152,NaN,9.326868,-0.470504,0.793522,3.719916,-4.050240,-2.223566,-0.877752,-0.538555,-2.499159,-0.598145,0.650146,-0.117920,0.093179,-0.005834,0.008210,0.999909,-0.004389,-0.002693,-0.012495,0.669241,-0.506437,-0.178807,-0.513484
62153,NaN,10.023261,-0.511684,0.924806,3.799146,-4.186246,-1.468895,-0.845862,-0.693283,-2.597508,-0.623291,0.641846,-0.105713,0.100122,-0.006378,0.009620,0.999901,-0.004229,-0.003466,-0.012987,0.659324,-0.508877,-0.187239,-0.520843
62154,NaN,10.815366,-0.612249,1.210890,3.878931,-4.224040,-0.543537,-0.765977,-0.835950,-2.698738,-0.641602,0.624756,-0.091064,0.108006,-0.007533,0.012588,0.999893,-0.003830,-0.004180,-0.013493,0.649485,-0.511013,-0.194866,-0.528264
62155,NaN,11.660952,-0.773851,1.643559,3.910314,-4.079389,0.547654,-0.658737,-0.953010,-2.760468,-0.662354,0.610107,-0.086914,0.116408,-0.009291,0.017020,0.999888,-0.003294,-0.004765,-0.013802,0.639039,-0.513072,-0.205134,-0.535076
62156,NaN,12.238295,-0.903741,2.034088,3.838261,-3.837569,1.379282,-0.529989,-1.032526,-2.795699,-0.676514,0.595215,-0.074463,0.122134,-0.010691,0.020999,0.999885,-0.002650,-0.005162,-0.013978,0.629058,-0.514616,-0.214183,-0.541831
62157,NaN,12.550881,-0.907125,2.352852,3.725588,-3.477387,1.930371,-0.388284,-1.096594,-2.815850,-0.692627,0.569824,-0.067871,0.125233,-0.010789,0.024236,0.999884,-0.001941,-0.005483,-0.014079,0.618671,-0.515807,-0.225818,-0.547901
62158,NaN,12.628314,-0.746274,2.713982,3.707722,-3.016829,2.209637,-0.258024,-1.135746,-2.826981,-0.713379,0.552979,-0.059570,0.126004,-0.009210,0.027867,0.999883,-0.001290,-0.005679,-0.014134,0.608896,-0.516479,-0.235907,-0.553934
62159,NaN,12.323409,-0.566655,2.998627,3.552673,-2.413191,2.133961,-0.147508,-1.156546,-2.839578,-0.731689,0.535889,-0.049072,0.122961,-0.007391,0.030703,0.999882,-0.000738,-0.005783,-0.014197,0.598680,-0.516687,-0.248441,-0.559369
62160,NaN,11.894431,-0.496650,3.287254,3.300354,-1.785111,1.953357,-0.056799,-1.167183,-2.868631,-0.741455,0.510498,-0.040527,0.118662,-0.006660,0.033567,0.999880,-0.000284,-0.005836,-0.014343,0.588977,-0.516511,-0.259175,-0.564934
62161,NaN,11.394027,-0.577943,3.476723,2.847345,-1.159290,1.710474,0.024396,-1.157689,-2.908311,-0.762207,0.493652,-0.030029,0.113636,-0.007438,0.035425,0.999878,0.000122,-0.005788,-0.014541,0.578728,-0.515700,-0.272300,-0.570070
62162,NaN,10.840622,-0.923529,3.420835,2.110482,-0.738520,1.370530,0.103863,-1.143742,-2.928572,-0.773926,0.470215,-0.019531,0.108057,-0.010837,0.034822,0.999876,0.000519,-0.005718,-0.014642,0.569008,-0.514623,-0.283441,-0.575374
62163,NaN,10.306470,-1.380394,3.146934,1.202287,-0.480843,0.973686,0.200843,-1.101431,-2.934021,-0.790039,0.444824,-0.015137,0.102672,-0.015344,0.032021,0.999877,0.001004,-0.005507,-0.014670,0.558953,-0.512682,-0.296812,-0.580199
62164,NaN,9.681682,-1.742423,2.834275,0.410704,-0.297764,0.411713,0.322683,-1.069725,-2.916250,-0.793701,0.429932,-0.004639,0.096395,-0.018878,0.028829,0.999878,0.001613,-0.005348,-0.014581,0.549652,-0.510508,-0.308194,-0.585048
62165,NaN,9.094605,-1.821242,2.460255,-0.116236,-0.238144,-0.220813,0.423245,-1.047724,-2.884856,-0.809814,0.404541,-0.004150,0.090540,-0.019573,0.025037,0.999880,0.002116,-0.005238,-0.014424,0.540123,-0.507515,-0.321678,-0.589253
62166,NaN,8.657653,-1.620680,2.142812,-0.286145,-0.281503,-0.756989,0.469478,-1.043374,-2.837535,-0.819580,0.381104,0.008301,0.086221,-0.017483,0.021839,0.999883,0.002347,-0.005217,-0.014187,0.531199,-0.504712,-0.333058,-0.593435
62167,NaN,8.366254,-1.265168,1.889735,-0.271571,-0.337478,-1.154014,0.453698,-1.055374,-2.785243,-0.835938,0.364258,0.020996,0.083374,-0.013858,0.019307,0.999887,0.002268,-0.005277,-0.013926,0.521769,-0.501536,-0.346097,-0.597023
62168,NaN,8.220197,-1.023963,1.684268,-0.305711,-0.398371,-1.374707,0.402177,-1.066083,-2.738178,-0.841553,0.338623,0.023438,0.081960,-0.011397,0.017258,0.999890,0.002011,-0.005330,-0.013690,0.512687,-0.498890,-0.356923,-0.600722
62169,NaN,8.131391,-0.786366,1.592278,-0.319802,-0.353974,-1.503609,0.322122,-1.075062,-2.689927,-0.849365,0.317627,0.023682,0.081111,-0.008982,0.016345,0.999894,0.001611,-0.005375,-0.013449,0.502938,-0.496027,-0.369083,-0.603977
62170,NaN,8.129142,-0.614138,1.588869,-0.349428,-0.255387,-1.518561,0.238764,-1.085034,-2.661570,-0.858887,0.289795,0.040527,0.081112,-0.007241,0.016321,0.999896,0.001194,-0.005425,-0.013307,0.493422,-0.493754,-0.379111,-0.607467
62171,NaN,8.246657,-0.465095,1.731622,-0.386518,-0.020640,-1.382528,0.148490,-1.094150,-2.627127,-0.866699,0.272949,0.048828,0.082300,-0.005746,0.017763,0.999898,0.000742,-0.005471,-0.013135,0.483183,-0.491267,-0.390347,-0.610590
62172,NaN,8.417123,-0.405302,1.892255,-0.493124,0.226246,-1.193308,0.047153,-1.083490,-2.599890,-0.874512,0.249512,0.057373,0.084005,-0.005150,0.019377,0.999901,0.000236,-0.005417,-0.012999,0.473183,-0.489351,-0.399471,-0.614049
62173,NaN,8.635191,-0.441205,2.030726,-0.722581,0.488817,-0.974185,-0.046977,-1.077806,-2.558994,-0.880127,0.226318,0.065918,0.086175,-0.005511,0.020773,0.999904,-0.000235,-0.005389,-0.012795,0.462521,-0.487192,-0.409610,-0.617201
62174,NaN,8.963018,-0.585666,2.161441,-1.055617,0.741201,-0.664912,-0.141670,-1.064156,-2.515558,-0.881592,0.209229,0.072510,0.089430,-0.006967,0.022095,0.999906,-0.000708,-0.005321,-0.012577,0.452173,-0.485619,-0.417739,-0.620651
62175,NaN,9.317162,-0.637827,2.321370,-1.320440,1.022784,-0.335856,-0.244284,-1.042802,-2.460516,-0.889404,0.190186,0.083008,0.092961,-0.007494,0.023707,0.999910,-0.001221,-0.005214,-0.012302,0.441255,-0.483806,-0.426646,-0.623858
62176,NaN,9.716825,-0.830302,2.380257,-1.737027,1.229834,-0.002658,-0.352091,-1.022717,-2.409747,-0.888428,0.164551,0.093750,0.096936,-0.009429,0.024315,0.999913,-0.001760,-0.005113,-0.012048,0.430649,-0.482603,-0.433611,-0.627389
62177,NaN,10.153809,-1.048700,2.525430,-2.188011,1.550216,0.354978,-0.449640,-0.994895,-2.345070,-0.894043,0.143311,0.098145,0.101279,-0.011618,0.025784,0.999916,-0.002248,-0.004974,-0.011725,0.419573,-0.481169,-0.441182,-0.630709
62178,NaN,10.601619,-1.261499,2.819907,-2.585872,2.008611,0.732965,-0.531047,-0.953987,-2.291655,-0.895508,0.124268,0.112793,0.105727,-0.013752,0.028739,0.999919,-0.002655,-0.004770,-0.011458,0.408912,-0.480210,-0.447001,-0.634334
62179,NaN,10.980559,-1.396165,3.086675,-2.921270,2.450904,1.027202,-0.611254,-0.911431,-2.235294,-0.899170,0.107178,0.114990,0.109499,-0.015091,0.031411,0.999922,-0.003056,-0.004557,-0.011176,0.397883,-0.478963,-0.453300,-0.637811
62180,NaN,11.237087,-1.592231,3.228952,-3.297753,2.791797,1.167240,-0.691238,-0.861093,-2.161526,-0.902832,0.085938,0.127686,0.112050,-0.017022,0.032830,0.999926,-0.003456,-0.004305,-0.010807,0.387335,-0.478163,-0.457966,-0.641560
62181,NaN,11.349408,-1.802918,3.334126,-3.668889,3.124193,1.139464,-0.763183,-0.815697,-2.087154,-0.899902,0.066895,0.136230,0.113161,-0.019083,0.033875,0.999930,-0.003816,-0.004078,-0.010436,0.376570,-0.477147,-0.462907,-0.645169
62182,NaN,11.359140,-1.996534,3.362278,-3.988812,3.369731,1.006316,-0.815583,-0.773709,-1.994778,-0.893066,0.049805,0.140625,0.113254,-0.020958,0.034145,0.999934,-0.004078,-0.003868,-0.009974,0.366354,-0.476543,-0.466475,-0.648916
62183,NaN,11.354750,-2.177207,3.420579,-4.278915,3.646899,0.853043,-0.856829,-0.751875,-1.891204,-0.896729,0.032715,0.149170,0.113206,-0.022696,0.034728,0.999939,-0.004284,-0.003759,-0.009456,0.356111,-0.475889,-0.470202,-0.652399
62184,NaN,11.444876,-2.361724,3.456972,-4.577708,3.892229,0.789430,-0.864896,-0.739533,-1.784808,-0.900146,0.011475,0.153564,0.114104,-0.024486,0.035097,0.999944,-0.004324,-0.003698,-0.008924,0.346453,-0.475631,-0.472931,-0.655806
62185,NaN,11.676176,-2.509368,3.551183,-4.863807,4.187481,0.866531,-0.838134,-0.724408,-1.673246,-0.897705,0.000977,0.161865,0.116417,-0.025918,0.036041,0.999950,-0.004191,-0.003622,-0.008366,0.337018,-0.475346,-0.475841,-0.658817
62186,NaN,11.856599,-2.640238,3.687092,-5.087440,4.510420,0.907164,-0.787034,-0.704731,-1.550694,-0.901367,-0.018066,0.166260,0.118226,-0.027173,0.037394,0.999956,-0.003935,-0.003524,-0.007753,0.328328,-0.475296,-0.478114,-0.661590
62187,NaN,11.930799,-2.712584,3.828761,-5.213102,4.818597,0.862672,-0.708830,-0.683539,-1.418618,-0.896729,-0.028809,0.180908,0.118980,-0.027834,0.038792,0.999963,-0.003544,-0.003418,-0.007093,0.320151,-0.475280,-0.480488,-0.663885
62188,NaN,12.176238,-2.741120,3.986746,-5.338413,5.121633,1.001025,-0.623748,-0.648137,-1.279377,-0.894287,-0.037354,0.178955,0.121454,-0.028063,0.040348,0.999969,-0.003119,-0.003241,-0.006397,0.312835,-0.475354,-0.482493,-0.665863
62189,NaN,12.180159,-2.894564,4.084387,-5.497563,5.394200,0.868808,-0.529637,-0.599040,-1.126955,-0.891846,-0.050049,0.181152,0.121513,-0.029522,0.041286,0.999976,-0.002648,-0.002995,-0.005635,0.306298,-0.475514,-0.484376,-0.667419
62190,NaN,11.978460,-3.001332,4.063924,-5.570612,5.514384,0.558679,-0.411295,-0.554183,-0.975309,-0.885010,-0.060791,0.187500,0.119523,-0.030512,0.041033,0.999982,-0.002056,-0.002771,-0.004877,0.300697,-0.475636,-0.486174,-0.668571
62191,NaN,11.788651,-3.155230,3.946904,-5.706581,5.545471,0.246504,-0.280977,-0.507544,-0.822632,-0.885010,-0.060791,0.193604,0.117655,-0.031981,0.039813,0.999987,-0.001405,-0.002538,-0.004113,0.296053,-0.475913,-0.487793,-0.669266
62192,NaN,11.655878,-3.340433,3.758196,-5.912079,5.509606,-0.023269,-0.144613,-0.464406,-0.664992,-0.882568,-0.069336,0.199951,0.116359,-0.033764,0.037877,0.999992,-0.000723,-0.002322,-0.003325,0.292328,-0.476068,-0.489587,-0.669484
62193,NaN,11.616323,-3.462193,3.565996,-6.083682,5.439388,-0.166788,-0.014452,-0.423199,-0.502401,-0.882568,-0.073486,0.204102,0.116000,-0.034911,0.035908,0.999995,-0.000072,-0.002116,-0.002512,0.289667,-0.476538,-0.491010,-0.669264
62194,NaN,11.518257,-3.420993,3.400755,-6.084744,5.320360,-0.293868,0.084675,-0.376556,-0.317264,-0.882568,-0.069336,0.208252,0.115064,-0.034407,0.034210,0.999997,0.000423,-0.001883,-0.001586,0.287862,-0.476908,-0.492604,-0.668607
62195,NaN,11.262731,-3.380792,3.126123,-6.043729,5.068556,-0.547999,0.150275,-0.331512,-0.126608,-0.882568,-0.073730,0.212402,0.112554,-0.033903,0.031422,0.999998,0.000751,-0.001658,-0.000633,0.287147,-0.477856,-0.493371,-0.667672
62196,NaN,11.168648,-3.372086,2.681770,-6.150632,4.674243,-0.668144,0.216420,-0.332341,0.065262,-0.880615,-0.065186,0.210205,0.111653,-0.033714,0.026967,0.999998,0.001082,-0.001662,0.000326,0.287041,-0.478828,-0.494425,-0.666240
62197,NaN,12.191507,-3.489702,2.566300,-6.641795,4.721353,0.236792,0.382420,-0.356715,0.214267,-0.880615,-0.065186,0.220459,0.121906,-0.034816,0.025814,0.999996,0.001912,-0.001784,0.001071,0.288017,-0.480468,-0.495027,-0.664187
62198,NaN,13.384256,-3.192840,2.871734,-6.694285,5.030937,1.476931,0.580559,-0.277692,0.362608,-0.880859,-0.056641,0.220215,0.133860,-0.031769,0.028811,0.999993,0.002903,-0.001388,0.001813,0.289906,-0.481462,-0.496492,-0.661547
62199,NaN,13.047483,-2.501313,3.405528,-5.731605,5.251662,1.485965,0.682253,-0.094138,0.547927,-0.876953,-0.050293,0.224121,0.130527,-0.024772,0.034032,0.999990,0.003411,-0.000471,0.002740,0.293413,-0.482722,-0.496738,-0.658893
62200,NaN,11.317868,-2.046496,3.817094,-4.534235,5.295874,0.099253,0.679943,0.086907,0.737480,-0.875244,-0.037598,0.223877,0.113270,-0.020177,0.038053,0.999987,0.003400,0.000435,0.003687,0.297676,-0.483276,-0.497076,-0.656314
62201,NaN,9.618497,-1.940668,3.821325,-3.780257,5.062139,-1.388430,0.611304,0.197003,0.918466,-0.879639,-0.031250,0.223877,0.096311,-0.019081,0.038060,0.999984,0.003057,0.000985,0.004592,0.303013,-0.484615,-0.495614,-0.653986
62202,NaN,8.645737,-2.133105,3.417321,-3.706089,4.612674,-2.331745,0.582269,0.239211,1.080731,-0.880371,-0.010010,0.219482,0.086612,-0.020962,0.034008,0.999980,0.002911,0.001196,0.005404,0.308525,-0.485632,-0.494539,-0.651464
62203,NaN,8.928359,-2.576182,2.966924,-4.273740,4.288280,-2.164168,0.647118,0.239149,1.204896,-0.872314,0.002686,0.225342,0.089472,-0.025319,0.029480,0.999976,0.003236,0.001196,0.006024,0.315032,-0.487434,-0.492306,-0.648689
62204,NaN,10.265243,-2.896040,2.598694,-5.049827,4.067523,-0.954440,0.803082,0.234235,1.317129,-0.879150,0.017578,0.222900,0.102871,-0.028387,0.025752,0.999970,0.004015,0.001171,0.006586,0.321809,-0.488650,-0.491328,-0.645180
62205,NaN,12.039771,-2.889272,2.513173,-5.519483,3.999343,0.824898,0.963108,0.284848,1.431232,-0.868896,0.026123,0.218750,0.120636,-0.028150,0.024823,0.999962,0.004815,0.001424,0.007156,0.329941,-0.490313,-0.489335,-0.641314
62206,NaN,13.565765,-2.735196,2.538069,-5.719731,3.946724,2.420769,1.093051,0.392768,1.566649,-0.874023,0.051514,0.216309,0.135916,-0.026425,0.024968,0.999952,0.005465,0.001964,0.007833,0.338571,-0.491073,-0.488340,-0.636978
62207,NaN,14.503603,-2.376376,2.391727,-5.532822,3.583117,3.538939,1.159592,0.552579,1.713386,-0.870117,0.064453,0.211914,0.145298,-0.022656,0.023383,0.999943,0.005798,0.002763,0.008567,0.348717,-0.492181,-0.485634,-0.632704
62208,NaN,14.829028,-1.939131,2.160726,-5.116619,3.070161,4.069548,1.170358,0.733889,1.860927,-0.866943,0.089844,0.201416,0.148541,-0.018134,0.020954,0.999933,0.005852,0.003669,0.009304,0.359224,-0.492318,-0.483456,-0.628372
62209,NaN,14.793799,-1.571358,1.896185,-4.610711,2.488848,4.239350,1.130606,0.900940,2.004726,-0.867676,0.113281,0.196777,0.148169,-0.014333,0.018211,0.999924,0.005653,0.004505,0.010023,0.370990,-0.492970,-0.479101,-0.624347
62210,NaN,14.646193,-1.120876,1.518198,-4.035176,1.775988,4.280773,1.040359,1.047307,2.151565,-0.864258,0.134521,0.188232,0.146648,-0.009708,0.014361,0.999915,0.005202,0.005236,0.010758,0.382730,-0.492897,-0.475074,-0.620383
62211,NaN,14.328547,-0.843796,1.151519,-3.520468,1.088396,4.106934,0.935229,1.187274,2.284918,-0.860840,0.159912,0.183838,0.143435,-0.006851,0.010629,0.999906,0.004676,0.005936,0.011424,0.395438,-0.493521,-0.468651,-0.616792
62212,NaN,13.674826,-0.644208,0.831361,-3.020884,0.492357,3.556210,0.815212,1.282713,2.411910,-0.859375,0.181152,0.169189,0.136862,-0.004823,0.007414,0.999898,0.004076,0.006413,0.012059,0.407836,-0.493569,-0.462642,-0.613206
62213,NaN,12.947231,-0.375994,0.759576,-2.355279,0.120107,2.945685,0.675060,1.349289,2.527001,-0.847656,0.206787,0.158447,0.129554,-0.002147,0.006713,0.999892,0.003375,0.006746,0.012635,0.420832,-0.494559,-0.454271,-0.609876
62214,NaN,12.318911,-0.289573,0.782539,-1.900610,-0.083041,2.386552,0.540015,1.391579,2.643650,-0.844238,0.234375,0.147949,0.123264,-0.001286,0.006963,0.999885,0.002700,0.006958,0.013218,0.433324,-0.495141,-0.446413,-0.606449
62215,NaN,11.716918,-0.332448,0.924849,-1.531480,-0.141115,1.843886,0.419556,1.416343,2.776389,-0.838623,0.257568,0.135254,0.117262,-0.001715,0.008414,0.999876,0.002098,0.007081,0.013881,0.446356,-0.496761,-0.436287,-0.603033
62216,NaN,11.258208,-0.335136,1.114650,-1.167336,-0.140524,1.443802,0.305195,1.413521,2.921853,-0.833252,0.283203,0.126709,0.112690,-0.001722,0.010347,0.999867,0.001526,0.007067,0.014609,0.458932,-0.498140,-0.426750,-0.599268
62217,NaN,11.266642,-0.195170,1.385557,-0.657865,-0.154272,1.519856,0.189099,1.390243,3.075585,-0.821533,0.314941,0.122070,0.112771,-0.000231,0.013071,0.999857,0.000945,0.006951,0.015377,0.471948,-0.500675,-0.415020,-0.595271
62218,NaN,11.550951,0.062303,1.562718,-0.069417,-0.309040,1.838774,0.060658,1.375071,3.216841,-0.813965,0.342529,0.107178,0.115583,0.002477,0.014833,0.999847,0.000303,0.006875,0.016083,0.484441,-0.503053,-0.403853,-0.590896
62219,NaN,11.882427,0.393078,1.616084,0.626451,-0.635001,2.151725,-0.098276,1.371130,3.340953,-0.804443,0.372314,0.094482,0.118843,0.005924,0.015344,0.999837,-0.000491,0.006855,0.016704,0.497147,-0.506482,-0.390422,-0.586423
62220,NaN,11.927232,0.507033,1.595725,1.099159,-0.926439,2.144699,-0.274766,1.374902,3.457435,-0.784180,0.397705,0.092041,0.119267,0.007153,0.015128,0.999826,-0.001374,0.006874,0.017286,0.509173,-0.509809,-0.377389,-0.581735
62221,NaN,11.659678,0.487266,1.588253,1.467095,-1.131692,1.817359,-0.463424,1.360001,3.556469,-0.766113,0.423096,0.085693,0.116589,0.006982,0.015075,0.999816,-0.002317,0.006800,0.017781,0.521163,-0.514149,-0.362156,-0.576961
62222,NaN,11.261532,0.341157,1.546661,1.663794,-1.283357,1.363128,-0.634441,1.323709,3.639906,-0.748047,0.454834,0.081055,0.112627,0.005509,0.014706,0.999807,-0.003172,0.006618,0.018198,0.532316,-0.518490,-0.347464,-0.571907
62223,NaN,10.975288,-0.080403,1.558133,1.622979,-1.357936,1.068348,-0.768925,1.268327,3.699756,-0.727539,0.476074,0.078857,0.109838,0.001286,0.014883,0.999801,-0.003844,0.006341,0.018498,0.543313,-0.523652,-0.331021,-0.566590
62224,NaN,10.892095,-0.611298,1.561764,1.478513,-1.443777,1.011537,-0.834661,1.200656,3.739888,-0.711670,0.510010,0.065918,0.109100,-0.004010,0.014983,0.999798,-0.004173,0.006003,0.018698,0.553588,-0.528617,-0.315550,-0.560831
62225,NaN,11.098740,-0.981230,1.499973,1.548843,-1.713674,1.189237,-0.853992,1.130038,3.763627,-0.695801,0.535400,0.069580,0.111228,-0.007658,0.014407,0.999798,-0.004270,0.005650,0.018817,0.563829,-0.533993,-0.298889,-0.554630
62226,NaN,11.383660,-1.251778,1.390786,1.717701,-2.057035,1.407368,-0.819706,1.067155,3.756176,-0.669189,0.562988,0.071289,0.114116,-0.010321,0.013345,0.999801,-0.004098,0.005335,0.018780,0.573528,-0.538866,-0.283533,-0.547994
62227,NaN,11.538912,-1.456010,1.209855,1.929032,-2.453810,1.455429,-0.755036,1.030310,3.728378,-0.648926,0.592529,0.064697,0.115694,-0.012361,0.011552,0.999806,-0.003775,0.005151,0.018641,0.583288,-0.543684,-0.267365,-0.541016
62228,NaN,11.454406,-1.576875,1.008489,2.128435,-2.786156,1.250653,-0.667594,0.993429,3.684613,-0.622314,0.615723,0.060303,0.114857,-0.013622,0.009563,0.999812,-0.003338,0.004967,0.018422,0.592649,-0.547783,-0.252610,-0.533750
62229,NaN,11.261187,-1.688087,0.782631,2.292080,-3.105794,0.927964,-0.544541,0.954427,3.615292,-0.601807,0.641357,0.058105,0.112928,-0.014821,0.007330,0.999822,-0.002723,0.004772,0.018075,0.602085,-0.551571,-0.237430,-0.526203
62230,NaN,11.148875,-1.829632,0.639927,2.441696,-3.350607,0.715934,-0.380583,0.917736,3.520019,-0.579102,0.658203,0.059814,0.111815,-0.016319,0.005919,0.999833,-0.001903,0.004588,0.017599,0.611277,-0.554404,-0.223933,-0.518489
62231,NaN,11.202786,-1.872251,0.536668,2.742643,-3.641446,0.603658,-0.195036,0.889293,3.394019,-0.554443,0.681396,0.059570,0.112346,-0.016813,0.004885,0.999846,-0.000975,0.004446,0.016969,0.620563,-0.556634,-0.210416,-0.510671
62232,NaN,11.125037,-1.852706,0.431764,3.015826,-3.874273,0.349406,0.018502,0.876673,3.252886,-0.525635,0.700439,0.047119,0.111550,-0.016715,0.003827,0.999858,0.000093,0.004383,0.016264,0.629747,-0.557697,-0.198674,-0.502913
62233,NaN,10.780089,-1.778737,0.259132,3.182629,-4.063820,-0.180073,0.248786,0.888546,3.097208,-0.511230,0.717285,0.044922,0.108069,-0.016118,0.002091,0.999869,0.001244,0.004443,0.015485,0.639104,-0.557889,-0.187097,-0.495279
62234,NaN,10.172919,-1.650617,0.128139,3.240783,-4.085652,-0.923052,0.450568,0.898411,2.932078,-0.484131,0.729980,0.036621,0.101961,-0.015015,0.000789,0.999880,0.002253,0.004492,0.014660,0.648378,-0.556915,-0.177155,-0.487921
62235,NaN,9.533511,-1.465404,0.059228,3.307253,-4.025144,-1.695273,0.635571,0.890148,2.760178,-0.463623,0.749023,0.028076,0.095526,-0.013337,0.000124,0.999890,0.003178,0.004451,0.013800,0.657622,-0.555262,-0.167484,-0.480797
62236,NaN,9.058188,-1.219522,0.043697,3.466345,-3.962543,-2.341582,0.769544,0.861804,2.563807,-0.442871,0.757568,0.017822,0.090729,-0.011033,0.000002,0.999901,0.003848,0.004309,0.012819,0.666573,-0.552767,-0.159381,-0.474054
62237,NaN,8.826529,-1.025344,0.137799,3.706073,-3.889958,-2.734056,0.861600,0.817907,2.354034,-0.421875,0.765869,0.009521,0.088382,-0.009218,0.000976,0.999913,0.004308,0.004089,0.011770,0.675108,-0.549975,-0.151657,-0.467716
62238,NaN,8.657961,-0.765797,0.208695,3.990760,-3.846510,-3.114536,0.906928,0.775451,2.128238,-0.409668,0.776367,0.007568,0.086662,-0.006744,0.001719,0.999926,0.004535,0.003877,0.010641,0.683111,-0.546687,-0.145311,-0.461928
62239,NaN,8.606488,-0.669526,0.323539,4.199415,-3.800958,-3.290443,0.931506,0.727769,1.889501,-0.390869,0.782715,-0.009033,0.086134,-0.005896,0.002893,0.999938,0.004657,0.003639,0.009447,0.690453,-0.543348,-0.139396,-0.456745
62240,NaN,8.734063,-0.686278,0.442899,4.396446,-3.824155,-3.255546,0.952322,0.678373,1.639818,-0.378418,0.791260,-0.025391,0.087407,-0.006166,0.004102,0.999949,0.004762,0.003392,0.008199,0.697218,-0.539641,-0.134782,-0.452226
62241,NaN,8.922011,-0.702926,0.490811,4.592593,-3.937262,-3.198929,0.953722,0.640297,1.393562,-0.367920,0.795410,-0.027344,0.089281,-0.006430,0.004591,0.999959,0.004769,0.003201,0.006968,0.703264,-0.535965,-0.130651,-0.448433
62242,NaN,8.896223,-0.720212,0.595041,4.667515,-3.891997,-3.249066,0.940450,0.613570,1.145918,-0.353271,0.799805,-0.039795,0.089019,-0.006719,0.005645,0.999968,0.004702,0.003068,0.005730,0.708727,-0.532027,-0.127543,-0.445405
62243,NaN,8.868367,-0.700059,0.767255,4.772301,-3.782450,-3.282435,0.919931,0.578832,0.892375,-0.349121,0.799805,-0.045898,0.088735,-0.006639,0.007385,0.999975,0.004600,0.002894,0.004462,0.713407,-0.528211,-0.124992,-0.443194
62244,NaN,8.719703,-0.563138,0.851033,4.851214,-3.678138,-3.487247,0.886287,0.547966,0.640274,-0.342773,0.799805,-0.060059,0.087237,-0.005389,0.008247,0.999981,0.004431,0.002740,0.003201,0.717491,-0.524239,-0.123324,-0.441781
62245,NaN,8.470350,-0.423702,0.933180,4.855015,-3.517003,-3.741735,0.836592,0.516883,0.389907,-0.336426,0.806152,-0.064209,0.084735,-0.004110,0.009095,0.999986,0.004183,0.002584,0.001950,0.720728,-0.520502,-0.122239,-0.441232
62246,NaN,8.026039,-0.116483,0.986626,4.849153,-3.262506,-4.222880,0.778802,0.474826,0.152688,-0.334229,0.801758,-0.074463,0.080284,-0.001141,0.009671,0.999989,0.003894,0.002374,0.000763,0.723370,-0.516750,-0.121864,-0.441423
62247,NaN,7.668727,0.461806,1.018269,5.082337,-3.037720,-4.812534,0.645298,0.391307,-0.091080,-0.332275,0.806152,-0.086914,0.076709,0.004551,0.010047,0.999993,0.003226,0.001957,-0.000455,0.724930,-0.513658,-0.122162,-0.442389
62248,NaN,7.899345,0.806653,0.884413,5.421879,-3.264844,-4.936580,0.468393,0.235501,-0.379967,-0.342773,0.799805,-0.082764,0.079019,0.007896,0.008770,0.999995,0.002342,0.001178,-0.001900,0.725428,-0.511219,-0.123336,-0.444069
62249,NaN,8.776729,0.617267,0.927344,5.754256,-3.710135,-4.209557,0.340813,0.056326,-0.683370,-0.346924,0.799805,-0.088867,0.087790,0.005857,0.009259,0.999993,0.001704,0.000282,-0.003417,0.724663,-0.509581,-0.125800,-0.446502
62250,NaN,9.616611,0.217243,0.905856,5.858111,-4.202745,-3.381070,0.229491,-0.070193,-0.957356,-0.353027,0.793457,-0.090820,0.096172,0.001702,0.009094,0.999988,0.001147,-0.000351,-0.004787,0.723053,-0.508312,-0.129021,-0.449629
62251,NaN,9.848844,-0.122380,0.859819,5.628545,-4.383157,-2.967234,0.133452,-0.155018,-1.183869,-0.361572,0.791504,-0.092773,0.098472,-0.001812,0.008673,0.999982,0.000667,-0.000775,-0.005919,0.720452,-0.507543,-0.133171,-0.453448
62252,NaN,9.504372,-0.362577,0.981175,5.185241,-4.109146,-2.909501,0.069723,-0.234521,-1.373738,-0.373779,0.780762,-0.096680,0.095004,-0.004282,0.009922,0.999976,0.000349,-0.001173,-0.006869,0.717336,-0.506910,-0.137673,-0.457731
62253,NaN,8.814404,-0.355182,1.142430,4.752273,-3.591141,-3.206404,0.024389,-0.342924,-1.545992,-0.384521,0.782959,-0.092773,0.088093,-0.004234,0.011575,0.999969,0.000122,-0.001715,-0.007730,0.713410,-0.506659,-0.143261,-0.462407
62254,NaN,8.285416,-0.079686,1.196519,4.600457,-3.230003,-3.608881,-0.059243,-0.478771,-1.710956,-0.401123,0.772461,-0.092773,0.082814,-0.001502,0.012164,0.999960,-0.000296,-0.002394,-0.008555,0.708927,-0.506746,-0.149177,-0.467308
62255,NaN,8.295988,0.302586,1.380551,4.851275,-3.016871,-3.633506,-0.171216,-0.659669,-1.886239,-0.421875,0.764160,-0.090576,0.082937,0.002256,0.014077,0.999950,-0.000856,-0.003298,-0.009431,0.703348,-0.507578,-0.156356,-0.472460
62256,NaN,8.790370,0.459981,1.577977,5.160172,-3.040361,-3.172055,-0.293207,-0.836469,-2.060576,-0.434082,0.749268,-0.086182,0.087878,0.003718,0.016141,0.999937,-0.001466,-0.004182,-0.010303,0.697032,-0.508957,-0.163841,-0.477771
62257,NaN,9.522828,0.348804,1.846606,5.350146,-3.098055,-2.330062,-0.413124,-0.988523,-2.214485,-0.450928,0.742920,-0.075928,0.095167,0.002473,0.018931,0.999924,-0.002066,-0.004942,-0.011072,0.689601,-0.510994,-0.172472,-0.483310
62258,NaN,10.319161,0.092530,2.172133,5.429535,-3.111479,-1.324753,-0.474323,-1.103979,-2.354401,-0.467529,0.738770,-0.065674,0.103071,-0.000236,0.022290,0.999913,-0.002372,-0.005520,-0.011772,0.681681,-0.513237,-0.181149,-0.488961
62259,NaN,11.003065,-0.327226,2.476442,5.260687,-3.037501,-0.304860,-0.441045,-1.186269,-2.472375,-0.490234,0.721680,-0.055420,0.109830,-0.004575,0.025425,0.999904,-0.002205,-0.005931,-0.012361,0.673118,-0.515406,-0.191072,-0.494734
62260,NaN,11.555381,-0.598525,2.745476,5.116029,-2.902879,0.522367,-0.357026,-1.263861,-2.567354,-0.506836,0.708984,-0.051025,0.115288,-0.007416,0.028196,0.999896,-0.001785,-0.006319,-0.012836,0.664563,-0.517242,-0.201055,-0.500394
62261,NaN,11.939236,-0.581595,2.873738,5.070218,-2.781670,1.035674,-0.255897,-1.314924,-2.641600,-0.531982,0.698486,-0.044922,0.119110,-0.007353,0.029530,0.999890,-0.001279,-0.006574,-0.013208,0.655628,-0.518686,-0.212293,-0.506012
62262,NaN,12.131334,-0.352392,3.026498,5.126627,-2.557899,1.305621,-0.162188,-1.346441,-2.713626,-0.550293,0.677490,-0.038574,0.121043,-0.005143,0.031084,0.999885,-0.000811,-0.006732,-0.013568,0.646830,-0.519699,-0.223326,-0.511517
62263,NaN,12.057234,-0.062482,3.187987,5.113122,-2.195297,1.348361,-0.103208,-1.372211,-2.787700,-0.571045,0.666748,-0.032227,0.120326,-0.002286,0.032707,0.999879,-0.000516,-0.006861,-0.013938,0.637531,-0.520340,-0.235478,-0.517059
62264,NaN,11.800925,0.195632,3.269467,4.997127,-1.842039,1.215160,-0.088197,-1.384984,-2.864158,-0.589355,0.647705,-0.017578,0.117791,0.000283,0.033511,0.999873,-0.000441,-0.006925,-0.014320,0.628177,-0.520778,-0.247103,-0.522612
62265,NaN,11.355328,0.134208,3.247481,4.494929,-1.473004,1.009614,-0.104263,-1.387975,-2.939165,-0.608154,0.635010,-0.013428,0.113328,-0.000307,0.033262,0.999868,-0.000521,-0.006940,-0.014695,0.618122,-0.520951,-0.259624,-0.528328
62266,NaN,10.839973,-0.152524,3.026686,3.741649,-1.257673,0.727553,-0.132901,-1.389084,-3.014243,-0.626465,0.618164,-0.002930,0.108147,-0.003136,0.031020,0.999862,-0.000664,-0.006945,-0.015071,0.607916,-0.521062,-0.271397,-0.534113
62267,NaN,10.386618,-0.592344,2.710617,2.840182,-1.129339,0.493999,-0.126180,-1.388442,-3.072413,-0.640625,0.596924,0.009521,0.103568,-0.007499,0.027830,0.999858,-0.000631,-0.006942,-0.015361,0.597094,-0.520776,-0.284088,-0.539967
62268,NaN,9.996633,-0.972039,2.383249,2.032651,-1.057478,0.251981,-0.083082,-1.377011,-3.118476,-0.661133,0.580078,0.013916,0.099631,-0.011266,0.024524,0.999855,-0.000415,-0.006885,-0.015592,0.586405,-0.520252,-0.296069,-0.545719
62269,NaN,9.666582,-1.160542,2.169320,1.442295,-0.920739,0.013713,-0.027286,-1.366509,-3.146918,-0.677246,0.552490,0.024414,0.096316,-0.013120,0.022354,0.999853,-0.000136,-0.006832,-0.015734,0.575307,-0.519157,-0.308985,-0.551386
62270,NaN,9.518775,-1.123831,2.034016,1.144848,-0.819330,-0.116499,0.025377,-1.348189,-3.156513,-0.697754,0.533447,0.036865,0.094855,-0.012740,0.020979,0.999853,0.000127,-0.006741,-0.015782,0.564491,-0.517863,-0.321097,-0.556834
62271,NaN,9.383079,-0.988033,1.926666,0.945800,-0.707816,-0.256221,0.035333,-1.326868,-3.144853,-0.716064,0.510010,0.041504,0.093529,-0.011356,0.019886,0.999854,0.000177,-0.006634,-0.015723,0.553269,-0.516141,-0.333857,-0.562167
62272,NaN,9.223731,-0.772483,1.858984,0.852989,-0.584225,-0.429055,0.018382,-1.308010,-3.115168,-0.730225,0.495361,0.057861,0.091978,-0.009161,0.019191,0.999857,0.000092,-0.006540,-0.015575,0.542285,-0.514508,-0.345534,-0.567287
62273,NaN,9.111256,-0.488795,1.928904,0.861443,-0.353992,-0.533713,-0.035454,-1.287271,-3.080246,-0.738037,0.471924,0.058350,0.090896,-0.006286,0.019876,0.999861,-0.000177,-0.006436,-0.015401,0.530800,-0.512651,-0.357595,-0.572334
62274,NaN,9.076589,-0.179076,1.950448,0.915889,-0.210835,-0.575261,-0.125518,-1.272678,-3.042844,-0.753906,0.444336,0.068848,0.090598,-0.003158,0.020083,0.999864,-0.000628,-0.006363,-0.015214,0.519409,-0.511131,-0.368380,-0.577283
62275,NaN,9.107517,0.090364,2.017763,0.939449,-0.026919,-0.531744,-0.239437,-1.262635,-3.012009,-0.768311,0.427490,0.077393,0.090945,-0.000442,0.020752,0.999866,-0.001197,-0.006313,-0.015059,0.507345,-0.509547,-0.379383,-0.582264
62276,NaN,9.207619,0.204459,2.159777,0.845465,0.233574,-0.394072,-0.366757,-1.241241,-2.973047,-0.780029,0.401855,0.087891,0.091957,0.000717,0.022167,0.999869,-0.001834,-0.006206,-0.014865,0.495319,-0.508400,-0.389004,-0.587252
62277,NaN,9.242690,0.206889,2.186015,0.607134,0.427796,-0.342185,-0.498638,-1.220098,-2.942698,-0.790039,0.380859,0.096436,0.092309,0.000766,0.022421,0.999870,-0.002493,-0.006100,-0.014713,0.482612,-0.507168,-0.398729,-0.592353
62278,NaN,9.323439,-0.044343,2.296136,0.155838,0.742991,-0.240971,-0.617454,-1.201449,-2.911381,-0.799561,0.355225,0.107178,0.093075,-0.001727,0.023525,0.999871,-0.003087,-0.006007,-0.014556,0.469950,-0.506362,-0.407146,-0.597475
62279,NaN,9.571774,-0.325169,2.402164,-0.343147,1.053713,-0.001464,-0.701940,-1.182700,-2.883255,-0.811768,0.333984,0.121826,0.095514,-0.004544,0.024601,0.999872,-0.003510,-0.005913,-0.014416,0.456736,-0.505330,-0.415776,-0.602631
62280,NaN,9.922268,-0.648046,2.483452,-0.886744,1.344148,0.308512,-0.780355,-1.156216,-2.851568,-0.821533,0.310791,0.132324,0.098972,-0.007794,0.025436,0.999874,-0.003902,-0.005781,-0.014257,0.443694,-0.504619,-0.423233,-0.607758
62281,NaN,10.305174,-0.931721,2.605314,-1.405250,1.685896,0.628955,-0.845290,-1.124748,-2.809981,-0.829346,0.291504,0.138672,0.102759,-0.010651,0.026675,0.999877,-0.004226,-0.005624,-0.014049,0.430250,-0.503614,-0.430840,-0.612891
62282,NaN,10.653319,-1.177174,2.684100,-1.884286,1.988043,0.891182,-0.919563,-1.080273,-2.755976,-0.824219,0.266113,0.147461,0.106211,-0.013111,0.027474,0.999880,-0.004598,-0.005401,-0.013779,0.417092,-0.502920,-0.437248,-0.617997
62283,NaN,10.919075,-1.367685,2.748749,-2.315834,2.287186,1.052413,-0.995112,-1.039108,-2.701050,-0.831787,0.242676,0.159912,0.108849,-0.015010,0.028126,0.999883,-0.004975,-0.005195,-0.013505,0.403619,-0.501962,-0.443641,-0.623144
62284,NaN,11.119181,-1.584705,2.736366,-2.764839,2.526047,1.123601,-1.066559,-1.003746,-2.625823,-0.837402,0.219482,0.164551,0.110833,-0.017156,0.028010,0.999887,-0.005333,-0.005019,-0.013129,0.390470,-0.501375,-0.448898,-0.628209
62285,NaN,11.390302,-1.681273,2.675443,-3.132471,2.693226,1.262078,-1.141076,-0.966890,-2.545159,-0.838867,0.200195,0.179199,0.113547,-0.018104,0.027405,0.999891,-0.005705,-0.004834,-0.012725,0.377142,-0.500617,-0.453998,-0.633271
62286,NaN,11.558474,-1.797071,2.657988,-3.467284,2.910918,1.295423,-1.191132,-0.935330,-2.452349,-0.846436,0.170410,0.185791,0.115228,-0.019224,0.027231,0.999896,-0.005955,-0.004676,-0.012261,0.364213,-0.500221,-0.458096,-0.638181
62287,NaN,11.707209,-1.957477,2.610189,-3.847234,3.121880,1.284582,-1.214588,-0.915040,-2.359820,-0.852051,0.153564,0.198242,0.116710,-0.020792,0.026760,0.999901,-0.006073,-0.004575,-0.011799,0.351301,-0.499679,-0.462112,-0.642931
62288,NaN,12.001187,-2.117063,2.750676,-4.183840,3.513205,1.422208,-1.199986,-0.895763,-2.267693,-0.853271,0.125977,0.207031,0.119638,-0.022361,0.028175,0.999908,-0.006000,-0.004479,-0.011338,0.338891,-0.499396,-0.465464,-0.647379
62289,NaN,12.363591,-2.285366,2.924463,-4.533906,3.950397,1.609450,-1.154615,-0.879986,-2.171032,-0.858887,0.106689,0.213379,0.123249,-0.024022,0.029924,0.999915,-0.005773,-0.004400,-0.010855,0.326741,-0.498929,-0.468874,-0.651512
62290,NaN,12.712001,-2.391324,3.162570,-4.786121,4.428945,1.797068,-1.086630,-0.850326,-2.069427,-0.860596,0.091797,0.223877,0.126728,-0.025052,0.032299,0.999923,-0.005433,-0.004252,-0.010347,0.315250,-0.498599,-0.471862,-0.655257
62291,NaN,13.032055,-2.572151,3.384357,-5.097724,4.920266,1.921982,-1.008642,-0.811926,-1.954474,-0.851562,0.072754,0.230469,0.129923,-0.026820,0.034505,0.999931,-0.005043,-0.004060,-0.009772,0.304284,-0.498071,-0.474865,-0.658665
62292,NaN,13.153555,-2.765866,3.598297,-5.341703,5.390293,1.850046,-0.918975,-0.758408,-1.819271,-0.848877,0.060059,0.234619,0.131140,-0.028686,0.036611,0.999941,-0.004595,-0.003792,-0.009096,0.294164,-0.497633,-0.477508,-0.661676
62293,NaN,13.106623,-2.864356,3.655890,-5.493837,5.654559,1.641257,-0.815227,-0.694726,-1.669698,-0.850342,0.042969,0.234863,0.130694,-0.029585,0.037133,0.999951,-0.004076,-0.003474,-0.008348,0.284882,-0.497027,-0.480073,-0.664332
62294,NaN,12.823159,-3.193109,3.690130,-5.749906,5.942654,1.135657,-0.694538,-0.628379,-1.500535,-0.852051,0.030273,0.247559,0.127871,-0.032762,0.037416,0.999961,-0.003473,-0.003142,-0.007503,0.276630,-0.496497,-0.482383,-0.666538
62295,NaN,12.378240,-3.493152,3.554078,-5.971692,6.023624,0.488111,-0.544210,-0.580160,-1.324153,-0.845215,0.017334,0.249756,0.123444,-0.035652,0.035996,0.999970,-0.002721,-0.002901,-0.006621,0.269451,-0.495919,-0.484688,-0.668236
62296,NaN,12.146125,-3.689538,3.430573,-6.158249,6.081688,0.086643,-0.370133,-0.550275,-1.142008,-0.844971,0.004639,0.254150,0.121153,-0.037524,0.034708,0.999978,-0.001851,-0.002751,-0.005710,0.263356,-0.495492,-0.487025,-0.669281
62297,NaN,11.877712,-3.704999,3.278620,-6.179812,6.018121,-0.265593,-0.208540,-0.503571,-0.948165,-0.849121,0.002686,0.254150,0.118517,-0.037578,0.033124,0.999985,-0.001043,-0.002518,-0.004741,0.258471,-0.495114,-0.489320,-0.669792
62298,NaN,11.459404,-3.739537,3.008998,-6.196127,5.815476,-0.749387,-0.089557,-0.474163,-0.732298,-0.842285,-0.008057,0.254395,0.114384,-0.037801,0.030378,0.999990,-0.000448,-0.002371,-0.003661,0.254613,-0.495036,-0.491452,-0.669766
62299,NaN,11.401861,-3.852195,2.409194,-6.535780,5.377444,-0.923815,0.058828,-0.515997,-0.527146,-0.840088,-0.010254,0.266602,0.113854,-0.038829,0.024374,0.999993,0.000294,-0.002580,-0.002636,0.251792,-0.495398,-0.493552,-0.669020
62300,NaN,13.096178,-4.346963,2.469312,-7.581169,5.952385,0.365613,0.389409,-0.576547,-0.380089,-0.844482,-0.010254,0.262451,0.130807,-0.043767,0.024985,0.999992,0.001947,-0.002883,-0.001900,0.250039,-0.495909,-0.496529,-0.667093
62301,NaN,14.844174,-3.917612,3.217152,-7.600954,6.808311,2.100296,0.741742,-0.484156,-0.213860,-0.846436,-0.012451,0.272705,0.148321,-0.039455,0.032385,0.999990,0.003709,-0.002421,-0.001069,0.250055,-0.496098,-0.500043,-0.664316
62302,NaN,14.707975,-3.280706,3.955419,-6.741943,7.259167,2.211599,0.996951,-0.264175,-0.003128,-0.838135,-0.010254,0.266602,0.147027,-0.033007,0.039584,0.999987,0.004985,-0.001321,-0.000016,0.251832,-0.495730,-0.503697,-0.661153
62303,NaN,13.053715,-2.843112,4.328162,-5.619965,7.163463,0.879201,1.087555,-0.039338,0.234006,-0.838135,-0.006104,0.268555,0.130562,-0.028513,0.043152,0.999985,0.005438,-0.000197,0.001170,0.255323,-0.495127,-0.506631,-0.658016
62304,NaN,11.072814,-2.478985,4.091544,-4.676243,6.462100,-0.764640,1.069553,0.112169,0.474315,-0.842773,0.004639,0.264404,0.110810,-0.024745,0.040721,0.999983,0.005348,0.000561,0.002372,0.259789,-0.494600,-0.508835,-0.654956
62305,NaN,9.976659,-2.473938,3.538637,-4.475903,5.726724,-1.728958,1.047766,0.177523,0.690006,-0.841064,0.015137,0.264160,0.099883,-0.024580,0.035169,0.999980,0.005239,0.000888,0.003450,0.265233,-0.494458,-0.510179,-0.651828
62306,NaN,10.209853,-2.782632,3.098821,-4.980805,5.407466,-1.594585,1.123413,0.186802,0.848523,-0.839111,0.023682,0.260010,0.102245,-0.027566,0.030737,0.999975,0.005617,0.000934,0.004243,0.271224,-0.494526,-0.511493,-0.648272
62307,NaN,11.482618,-2.833771,2.882673,-5.540374,5.347326,-0.384006,1.266202,0.233439,0.985759,-0.843994,0.040771,0.255371,0.114998,-0.027952,0.028515,0.999967,0.006331,0.001167,0.004929,0.278297,-0.494610,-0.512679,-0.644261
62308,NaN,12.540684,-2.613206,2.804600,-5.713212,5.270923,0.748485,1.387259,0.358368,1.144954,-0.840088,0.049316,0.255371,0.125604,-0.025606,0.027642,0.999958,0.006936,0.001792,0.005725,0.286301,-0.494454,-0.513807,-0.639960
62309,NaN,12.737560,-2.264929,2.729988,-5.441349,5.002384,1.150600,1.432835,0.529602,1.323973,-0.840332,0.057861,0.242920,0.127594,-0.021998,0.026803,0.999949,0.007164,0.002648,0.006620,0.295592,-0.494141,-0.514177,-0.635667
62310,NaN,12.624423,-1.930963,2.545539,-5.091564,4.577444,1.264504,1.404322,0.685346,1.515891,-0.840820,0.074707,0.236572,0.126473,-0.018528,0.024890,0.999941,0.007021,0.003427,0.007579,0.305603,-0.493769,-0.513863,-0.631462
62311,NaN,12.788533,-1.515062,2.179673,-4.779294,3.970150,1.675774,1.307116,0.816162,1.715808,-0.839355,0.093994,0.228027,0.128097,-0.014192,0.021179,0.999934,0.006535,0.004081,0.008579,0.316493,-0.493627,-0.512310,-0.627458
62312,NaN,13.186668,-1.014066,1.717018,-4.447191,3.255693,2.331506,1.146285,0.952209,1.918101,-0.844238,0.113037,0.223633,0.132036,-0.008971,0.016488,0.999926,0.005731,0.004761,0.009590,0.327735,-0.493716,-0.509639,-0.623780
62313,NaN,13.301067,-0.582866,1.170581,-4.057962,2.419589,2.689263,0.948168,1.120012,2.117835,-0.842773,0.125732,0.208984,0.133125,-0.004472,0.010937,0.999917,0.004741,0.005600,0.010589,0.339673,-0.494081,-0.505326,-0.620606
62314,NaN,13.013059,-0.395723,0.733406,-3.712558,1.702206,2.570529,0.749691,1.266714,2.298423,-0.841553,0.153564,0.198242,0.130208,-0.002487,0.006498,0.999907,0.003748,0.006333,0.011492,0.351806,-0.494652,-0.499789,-0.617870
62315,NaN,12.568816,-0.231349,0.402201,-3.294175,1.069882,2.277960,0.575101,1.385321,2.460565,-0.837646,0.166260,0.173584,0.125728,-0.000777,0.003148,0.999896,0.002875,0.006926,0.012302,0.364410,-0.495515,-0.492830,-0.615459
62316,NaN,12.010877,-0.084170,0.363763,-2.786687,0.727577,1.853283,0.414379,1.468021,2.610020,-0.834229,0.189697,0.171143,0.120129,0.000720,0.002756,0.999886,0.002072,0.007340,0.013050,0.377024,-0.496631,-0.484921,-0.613239
62317,NaN,11.637562,-0.055560,0.481368,-2.391296,0.576118,1.571793,0.268485,1.512060,2.748923,-0.830811,0.215088,0.154297,0.116401,0.001039,0.003934,0.999876,0.001342,0.007560,0.013744,0.389878,-0.498148,-0.475852,-0.611071
62318,NaN,11.460140,-0.019927,0.637484,-2.019932,0.469966,1.475751,0.119312,1.538835,2.896179,-0.829346,0.234375,0.137695,0.114633,0.001457,0.005493,0.999865,0.000597,0.007694,0.014480,0.402614,-0.500052,-0.465954,-0.608882
62319,NaN,11.492549,0.132276,0.872158,-1.538448,0.402061,1.602889,-0.031660,1.560208,3.057189,-0.821777,0.257568,0.137207,0.114951,0.003081,0.007824,0.999853,-0.000158,0.007801,0.015285,0.415542,-0.502469,-0.454857,-0.606593
62320,NaN,11.546845,0.331407,1.038358,-1.011240,0.250199,1.737985,-0.178481,1.575414,3.219655,-0.820557,0.281006,0.118408,0.115472,0.005182,0.009470,0.999839,-0.000892,0.007877,0.016097,0.428356,-0.505317,-0.442896,-0.604160
62321,NaN,11.505188,0.519261,1.238380,-0.448547,0.129348,1.760515,-0.329056,1.582474,3.371294,-0.802246,0.308594,0.105957,0.115035,0.007151,0.011463,0.999825,-0.001645,0.007912,0.016855,0.441249,-0.508667,-0.429781,-0.601536
62322,NaN,11.356536,0.651257,1.362135,0.065504,-0.041594,1.642788,-0.502981,1.577735,3.517592,-0.794678,0.333984,0.097168,0.113530,0.008542,0.012706,0.999811,-0.002515,0.007888,0.017587,0.453839,-0.512509,-0.415775,-0.598745
62323,NaN,11.123319,0.570808,1.577375,0.412186,-0.061929,1.427928,-0.670454,1.546893,3.643507,-0.787109,0.359619,0.088623,0.111221,0.007785,0.014890,0.999799,-0.003352,0.007734,0.018216,0.466250,-0.516912,-0.400714,-0.595686
62324,NaN,11.133481,0.345956,1.850085,0.629148,-0.017249,1.460410,-0.809558,1.504324,3.753582,-0.773193,0.387207,0.080078,0.111378,0.005622,0.017643,0.999787,-0.004048,0.007521,0.018767,0.478235,-0.521743,-0.385026,-0.592309
62325,NaN,11.448393,0.060000,2.057856,0.797521,-0.076958,1.790851,-0.943735,1.457673,3.845620,-0.759277,0.410400,0.081787,0.114589,0.002897,0.019734,0.999777,-0.004718,0.007288,0.019227,0.489947,-0.527003,-0.368518,-0.588569
62326,NaN,11.730324,-0.231704,2.135096,0.958839,-0.264598,2.070143,-1.042620,1.422060,3.923351,-0.747559,0.442139,0.066895,0.117465,0.000095,0.020520,0.999769,-0.005213,0.007110,0.019615,0.501237,-0.532494,-0.351560,-0.584480
62327,NaN,11.868826,-0.664223,2.039110,0.958772,-0.562598,2.196047,-1.093072,1.391312,3.980228,-0.731689,0.469727,0.062500,0.118926,-0.004168,0.019592,0.999763,-0.005465,0.006956,0.019900,0.512360,-0.538063,-0.334103,-0.579957
62328,NaN,11.774049,-1.051883,1.887764,0.971065,-0.866343,2.086150,-1.105156,1.352386,4.012160,-0.709229,0.497314,0.051758,0.118043,-0.008051,0.018129,0.999761,-0.005525,0.006761,0.020059,0.523143,-0.543560,-0.316577,-0.575015
62329,NaN,11.673001,-1.311662,1.700137,1.089582,-1.226019,1.941369,-1.076692,1.299267,4.006923,-0.697510,0.522705,0.059570,0.117068,-0.010684,0.016303,0.999764,-0.005383,0.006496,0.020033,0.533734,-0.548876,-0.299036,-0.569597
62330,NaN,11.485398,-1.670632,1.410560,1.053902,-1.615964,1.717820,-1.002464,1.251247,3.978341,-0.670898,0.552246,0.051025,0.115241,-0.014348,0.013461,0.999770,-0.005012,0.006256,0.019890,0.544048,-0.553824,-0.281874,-0.563772
62331,NaN,11.464345,-1.965329,1.234649,1.132476,-1.954659,1.663176,-0.870266,1.186885,3.912189,-0.652588,0.571289,0.050781,0.115069,-0.017353,0.011743,0.999782,-0.004351,0.005934,0.019560,0.554272,-0.558256,-0.265228,-0.557483
62332,NaN,11.691726,-2.194266,1.023189,1.308927,-2.413691,1.806260,-0.700841,1.122560,3.820724,-0.630127,0.596680,0.046387,0.117363,-0.019669,0.009646,0.999796,-0.003504,0.005612,0.019102,0.564329,-0.562037,-0.249463,-0.550833
62333,NaN,11.851376,-2.145238,0.729905,1.688264,-2.991272,1.753379,-0.498669,1.080330,3.702781,-0.603271,0.617920,0.040039,0.118921,-0.019236,0.006707,0.999811,-0.002493,0.005401,0.018513,0.574406,-0.564999,-0.234531,-0.543902
62334,NaN,11.695031,-2.082444,0.394053,1.949108,-3.487628,1.380468,-0.278788,1.056937,3.572227,-0.589355,0.643311,0.043701,0.117316,-0.018726,0.003348,0.999826,-0.001394,0.005284,0.017860,0.584461,-0.567030,-0.220624,-0.536850
62335,NaN,11.200364,-1.961572,0.143719,2.142989,-3.774134,0.697605,-0.048524,1.044460,3.432813,-0.570801,0.658203,0.033447,0.112324,-0.017689,0.000856,0.999839,-0.000243,0.005222,0.017163,0.594621,-0.568084,-0.207630,-0.529714
62336,NaN,10.535188,-1.853442,-0.033202,2.237581,-3.894841,-0.105024,0.186859,1.025344,3.270839,-0.545898,0.677246,0.026855,0.105633,-0.016808,-0.000889,0.999853,0.000934,0.005126,0.016353,0.604781,-0.568139,-0.195775,-0.522619
62337,NaN,10.028651,-1.714677,-0.094378,2.406588,-3.952196,-0.751667,0.416064,1.004138,3.099360,-0.520996,0.691895,0.018555,0.100530,-0.015587,-0.001482,0.999865,0.002080,0.005020,0.015496,0.614972,-0.567237,-0.184967,-0.515594
62338,NaN,9.705145,-1.626355,-0.146725,2.565751,-4.043983,-1.215494,0.643044,0.977280,2.911765,-0.506836,0.708984,0.008301,0.097266,-0.014843,-0.001991,0.999877,0.003215,0.004886,0.014558,0.625121,-0.565378,-0.175358,-0.508744
62339,NaN,9.843125,-1.487082,-0.072987,2.976435,-4.215994,-1.300160,0.863234,0.946253,2.694255,-0.481689,0.717285,-0.004150,0.098615,-0.013538,-0.001257,0.999889,0.004316,0.004731,0.013471,0.635171,-0.562599,-0.166948,-0.502164
62340,NaN,10.109340,-1.282084,-0.021688,3.471950,-4.464467,-1.336205,1.069794,0.942471,2.475812,-0.467529,0.734375,-0.016602,0.101239,-0.011565,-0.000758,0.999898,0.005349,0.004712,0.012379,0.645110,-0.558858,-0.159679,-0.495997
62341,NaN,9.964366,-0.937178,-0.039877,3.851315,-4.588346,-1.795352,1.223068,0.961834,2.264786,-0.450928,0.744873,-0.035156,0.099738,-0.008238,-0.000931,0.999906,0.006115,0.004809,0.011324,0.654835,-0.554313,-0.153270,-0.490344
62342,NaN,9.565391,-0.430935,0.069569,4.254692,-4.469251,-2.491031,1.302854,0.968614,2.049221,-0.431885,0.749023,-0.047363,0.095693,-0.003331,0.000208,0.999915,0.006514,0.004843,0.010246,0.664148,-0.549209,-0.147620,-0.485268
62343,NaN,9.380987,0.148574,0.149542,4.776519,-4.449209,-3.072227,1.333861,0.946759,1.801423,-0.421631,0.753418,-0.057617,0.093797,0.002323,0.001065,0.999926,0.006669,0.004734,0.009007,0.672806,-0.543802,-0.142776,-0.480860
62344,NaN,9.374652,0.535634,0.140823,5.175605,-4.552416,-3.434814,1.307347,0.913584,1.532026,-0.411377,0.763916,-0.072021,0.093707,0.006067,0.001018,0.999939,0.006537,0.004568,0.007660,0.680647,-0.538282,-0.138692,-0.477217
62345,NaN,9.468055,0.815016,0.134717,5.519008,-4.679068,-3.650565,1.231386,0.860533,1.258900,-0.398438,0.761719,-0.080078,0.094632,0.008739,0.000993,0.999952,0.006157,0.004303,0.006294,0.687493,-0.532918,-0.135345,-0.474377
62346,NaN,9.532039,1.221097,0.047720,5.905183,-4.848227,-3.983833,1.097857,0.807278,0.999143,-0.392334,0.766113,-0.090576,0.095259,0.012685,0.000161,0.999964,0.005489,0.004036,0.004996,0.693302,-0.527900,-0.132528,-0.472324
62347,NaN,9.287212,1.851956,-0.086651,6.277521,-4.882203,-4.670148,0.829279,0.731398,0.753994,-0.384033,0.768066,-0.104736,0.092798,0.018874,-0.001128,0.999978,0.004146,0.003657,0.003770,0.697696,-0.523820,-0.130014,-0.471093
62348,NaN,9.052003,2.463260,-0.122792,6.652053,-4.819162,-5.279805,0.479384,0.611735,0.481474,-0.382080,0.772461,-0.104736,0.090456,0.024854,-0.001445,0.999990,0.002397,0.003059,0.002407,0.700469,-0.521028,-0.127768,-0.470689
62349,NaN,9.196363,2.507091,-0.205405,6.742813,-4.992735,-5.284142,0.156367,0.430276,0.160661,-0.381592,0.763916,-0.108887,0.091939,0.025146,-0.002232,0.999997,0.000782,0.002151,0.000803,0.701478,-0.519601,-0.126286,-0.471163
62350,NaN,9.879178,1.927243,-0.288964,6.604167,-5.459625,-4.523706,-0.120431,0.234906,-0.173607,-0.384033,0.768311,-0.113037,0.098805,0.019185,-0.003017,0.999999,-0.000602,0.001175,-0.000868,0.700897,-0.519373,-0.125650,-0.472449
62351,NaN,10.521613,1.212236,-0.341711,6.323862,-5.872711,-3.663670,-0.318422,0.060941,-0.491753,-0.381836,0.766113,-0.106689,0.105244,0.011858,-0.003468,0.999996,-0.001592,0.000305,-0.002459,0.698886,-0.520064,-0.126057,-0.474554
62352,NaN,10.916240,0.586890,-0.168448,6.033593,-5.946847,-2.901299,-0.451670,-0.063330,-0.768610,-0.392090,0.759766,-0.102539,0.109184,0.005446,-0.001663,0.999990,-0.002258,-0.000317,-0.003843,0.695833,-0.521316,-0.127226,-0.477346
62353,NaN,10.716949,0.113963,0.258942,5.618699,-5.470614,-2.502786,-0.497065,-0.155214,-1.012038,-0.406982,0.757568,-0.100586,0.107171,0.000604,0.002671,0.999984,-0.002485,-0.000776,-0.005060,0.691946,-0.522798,-0.129319,-0.480801
62354,NaN,10.129036,-0.330198,0.695861,5.022587,-4.763851,-2.378396,-0.456532,-0.240410,-1.220906,-0.410889,0.751221,-0.092285,0.101259,-0.003904,0.007089,0.999978,-0.002283,-0.001202,-0.006104,0.687639,-0.524168,-0.132263,-0.484672
62355,NaN,9.611774,-0.434434,1.143197,4.731582,-4.075087,-2.404173,-0.387705,-0.340565,-1.410035,-0.421387,0.744873,-0.088135,0.096064,-0.004999,0.011605,0.999972,-0.001939,-0.001703,-0.007050,0.682885,-0.525411,-0.136306,-0.488909
62356,NaN,9.434506,-0.266521,1.541039,4.807309,-3.605114,-2.373150,-0.302809,-0.455144,-1.600024,-0.433838,0.742920,-0.083984,0.094284,-0.003396,0.015630,0.999964,-0.001514,-0.002276,-0.008000,0.677835,-0.526462,-0.141339,-0.493356
62357,NaN,9.642746,0.104421,1.840009,5.189484,-3.417958,-2.212466,-0.248073,-0.576221,-1.768867,-0.454834,0.732178,-0.073730,0.096378,0.000215,0.018677,0.999956,-0.001240,-0.002881,-0.008844,0.672303,-0.527484,-0.147447,-0.498024
62358,NaN,10.089894,0.232150,2.058070,5.441826,-3.399107,-1.755101,-0.219728,-0.707092,-1.919783,-0.465088,0.723877,-0.079834,0.100842,0.001376,0.020935,0.999947,-0.001099,-0.003535,-0.009599,0.666378,-0.528554,-0.154353,-0.502739
62359,NaN,10.821824,0.046189,2.185999,5.503358,-3.557646,-0.927637,-0.149544,-0.817838,-2.054643,-0.477295,0.713379,-0.073486,0.108125,-0.000633,0.022302,0.999939,-0.000748,-0.004089,-0.010273,0.660059,-0.529517,-0.162254,-0.507552
62360,NaN,11.523221,-0.185272,2.330749,5.483452,-3.652503,-0.074299,-0.025990,-0.902262,-2.164001,-0.498047,0.700684,-0.069336,0.115096,-0.003096,0.023827,0.999931,-0.000130,-0.004511,-0.010820,0.653712,-0.530114,-0.170904,-0.512281
62361,NaN,12.002211,-0.161583,2.371270,5.515739,-3.720341,0.455241,0.125852,-0.963637,-2.257986,-0.514648,0.689941,-0.067139,0.119877,-0.002985,0.024289,0.999924,0.000629,-0.004818,-0.011290,0.647313,-0.530215,-0.180488,-0.516993
62362,NaN,12.231120,0.048782,2.477810,5.606056,-3.612702,0.735030,0.293822,-1.009209,-2.322824,-0.533203,0.677490,-0.064941,0.122178,-0.000969,0.025394,0.999919,0.001469,-0.005046,-0.011614,0.641114,-0.529748,-0.190678,-0.521519
62363,NaN,12.155960,0.361725,2.439213,5.608605,-3.489457,0.685228,0.424794,-1.061826,-2.388508,-0.547607,0.662598,-0.060791,0.121459,0.002114,0.025043,0.999912,0.002124,-0.005309,-0.011942,0.634859,-0.528837,-0.201650,-0.525950
62364,NaN,11.849424,0.686397,2.467146,5.560305,-3.203200,0.472260,0.500384,-1.119225,-2.445589,-0.562012,0.649902,-0.062500,0.118425,0.005353,0.025349,0.999906,0.002502,-0.005596,-0.012228,0.628552,-0.527691,-0.212987,-0.530190
62365,NaN,11.354031,0.872609,2.557525,5.346566,-2.762178,0.186910,0.532086,-1.167145,-2.520670,-0.586670,0.630859,-0.060303,0.113486,0.007226,0.026258,0.999900,0.002660,-0.005836,-0.012603,0.621884,-0.526378,-0.224846,-0.534445
62366,NaN,10.773915,0.739625,2.774259,4.864683,-2.139337,-0.011150,0.548365,-1.204189,-2.595331,-0.594971,0.622314,-0.045898,0.107653,0.005922,0.028409,0.999894,0.002742,-0.006021,-0.012976,0.614960,-0.524931,-0.236883,-0.538663
62367,NaN,10.037914,0.376334,2.820651,4.084137,-1.580219,-0.343150,0.530775,-1.227165,-2.664318,-0.613525,0.607666,-0.045654,0.100241,0.002351,0.028829,0.999889,0.002654,-0.006136,-0.013321,0.607553,-0.523396,-0.249202,-0.542987
62368,NaN,9.260055,-0.032555,2.615470,3.202347,-1.240604,-0.824408,0.486530,-1.252702,-2.725030,-0.636230,0.588623,-0.037354,0.092418,-0.001650,0.026731,0.999885,0.002433,-0.006263,-0.013625,0.599784,-0.521877,-0.261451,-0.547308
62369,NaN,8.633310,-0.480338,2.387870,2.338595,-0.987472,-1.209422,0.443227,-1.268350,-2.785913,-0.652344,0.569580,-0.032959,0.086101,-0.006058,0.024413,0.999880,0.002216,-0.006341,-0.013929,0.591476,-0.520331,-0.273840,-0.551746
62370,NaN,8.116802,-0.767979,2.101983,1.658756,-0.866343,-1.603984,0.400699,-1.294760,-2.822549,-0.668701,0.546143,-0.026611,0.080910,-0.008866,0.021527,0.999877,0.002003,-0.006474,-0.014112,0.582873,-0.518803,-0.286103,-0.556100
62371,NaN,7.682109,-0.726193,1.906106,1.349660,-0.753056,-2.016437,0.323950,-1.324753,-2.840138,-0.678711,0.535645,-0.020264,0.076579,-0.008382,0.019556,0.999876,0.001620,-0.006623,-0.014200,0.573729,-0.517419,-0.298341,-0.560450
62372,NaN,7.460163,-0.514152,1.746521,1.277061,-0.718155,-2.274965,0.184678,-1.364969,-2.839057,-0.690674,0.512207,-0.013672,0.074397,-0.006215,0.017968,0.999876,0.000923,-0.006825,-0.014195,0.564130,-0.516429,-0.310101,-0.564709
62373,NaN,7.318629,-0.371451,1.573038,1.163470,-0.715714,-2.443541,0.012712,-1.401001,-2.824676,-0.704834,0.489014,0.004883,0.073012,-0.004748,0.016242,0.999876,0.000064,-0.007005,-0.014123,0.553862,-0.515907,-0.321462,-0.568981
62374,NaN,7.248605,-0.334997,1.439758,0.980267,-0.682717,-2.512277,-0.155547,-1.434109,-2.815562,-0.725342,0.474121,0.007080,0.072324,-0.004357,0.014920,0.999875,-0.000778,-0.007170,-0.014077,0.543061,-0.515841,-0.332233,-0.573249
62375,NaN,7.246549,-0.599835,1.400883,0.539949,-0.519266,-2.445929,-0.236840,-1.469019,-2.812713,-0.735352,0.457275,0.015625,0.072266,-0.006999,0.014548,0.999873,-0.001184,-0.007345,-0.014063,0.531764,-0.515968,-0.342875,-0.577443
62376,NaN,7.397847,-0.875777,1.528275,0.142976,-0.227149,-2.213082,-0.251140,-1.500062,-2.803712,-0.747314,0.436035,0.034424,0.073729,-0.009773,0.015848,0.999873,-0.001256,-0.007500,-0.014018,0.520366,-0.516109,-0.353346,-0.581375
62377,NaN,7.587830,-0.953389,1.740642,-0.045985,0.110344,-1.970830,-0.231041,-1.521045,-2.775306,-0.761475,0.414795,0.042725,0.075601,-0.010564,0.017994,0.999874,-0.001155,-0.007605,-0.013876,0.508878,-0.516153,-0.363853,-0.585013
62378,NaN,7.793275,-1.189732,1.905938,-0.404494,0.446269,-1.724726,-0.147624,-1.544467,-2.753943,-0.769287,0.395752,0.055420,0.077609,-0.012953,0.019669,0.999875,-0.000738,-0.007722,-0.013769,0.497552,-0.515986,-0.374430,-0.588220
62379,NaN,8.199433,-1.546551,2.122757,-0.875467,0.836040,-1.288771,0.018069,-1.571799,-2.738986,-0.781250,0.374512,0.059814,0.081602,-0.016587,0.021868,0.999875,0.000090,-0.007859,-0.013694,0.486467,-0.515355,-0.385513,-0.590880
62380,NaN,8.787471,-2.008890,2.413225,-1.453234,1.310859,-0.689014,0.262056,-1.585974,-2.732717,-0.784912,0.353271,0.072510,0.087394,-0.021317,0.024799,0.999874,0.001310,-0.007930,-0.013663,0.475933,-0.514085,-0.397155,-0.592851
62381,NaN,9.561657,-2.539621,2.791043,-2.120457,1.882472,0.067381,0.606760,-1.582739,-2.736835,-0.794922,0.336182,0.084961,0.095032,-0.026785,0.028584,0.999870,0.003034,-0.007913,-0.013684,0.466161,-0.511767,-0.409800,-0.594014
62382,NaN,10.446643,-2.914264,3.206944,-2.683223,2.465182,0.893462,1.021809,-1.555968,-2.736181,-0.804688,0.312988,0.089355,0.103800,-0.030732,0.032724,0.999863,0.005109,-0.007779,-0.013680,0.457379,-0.508344,-0.423423,-0.594225
62383,NaN,11.266927,-3.120232,3.556634,-3.155584,2.972376,1.611973,1.435180,-1.506622,-2.719569,-0.816895,0.298096,0.095703,0.111958,-0.032986,0.036179,0.999853,0.007176,-0.007533,-0.013597,0.449677,-0.503663,-0.438056,-0.593482
62384,NaN,11.822091,-2.962647,3.806864,-3.325122,3.340866,2.053167,1.788045,-1.444445,-2.679109,-0.817871,0.270508,0.098145,0.117529,-0.031548,0.038643,0.999844,0.008940,-0.007222,-0.013395,0.442977,-0.497996,-0.453305,-0.591850
62385,NaN,12.177556,-2.796782,3.918623,-3.532725,3.589417,2.274103,2.090165,-1.383421,-2.639160,-0.828125,0.255615,0.106689,0.121115,-0.029982,0.039719,0.999834,0.010450,-0.006917,-0.013195,0.437166,-0.491324,-0.469117,-0.589421
62386,NaN,12.420045,-2.551565,3.886696,-3.694841,3.687103,2.377947,2.316825,-1.329044,-2.594175,-0.827393,0.234375,0.113037,0.123591,-0.027576,0.039378,0.999827,0.011583,-0.006645,-0.012970,0.431999,-0.484019,-0.485157,-0.586281
62387,NaN,12.594908,-2.273749,3.827144,-3.831817,3.752419,2.421241,2.454010,-1.286060,-2.545287,-0.835205,0.215332,0.113525,0.125394,-0.024810,0.038783,0.999823,0.012269,-0.006430,-0.012726,0.427248,-0.476197,-0.501257,-0.582612
62388,NaN,12.667306,-1.975722,3.802352,-3.927551,3.851306,2.375338,2.510087,-1.257565,-2.484830,-0.836670,0.198242,0.124023,0.126169,-0.021809,0.038553,0.999824,0.012550,-0.006287,-0.012423,0.422739,-0.468199,-0.517099,-0.578524
62389,NaN,12.830243,-1.668817,3.930224,-4.016018,4.102493,2.429553,2.460402,-1.232682,-2.401666,-0.844482,0.174805,0.126465,0.127841,-0.018713,0.039869,0.999833,0.012301,-0.006163,-0.012008,0.418255,-0.460255,-0.532403,-0.574261
62390,NaN,13.011789,-1.447415,4.143262,-4.183874,4.451593,2.484949,2.328760,-1.211776,-2.304175,-0.848145,0.164307,0.126465,0.129682,-0.016457,0.042035,0.999847,0.011643,-0.006059,-0.011520,0.413687,-0.452672,-0.546860,-0.569996
62391,NaN,13.335044,-1.036994,4.401232,-4.202524,4.843643,2.722587,2.114667,-1.179209,-2.197966,-0.845459,0.145264,0.135010,0.132960,-0.012303,0.044674,0.999866,0.010573,-0.005896,-0.010989,0.408896,-0.445565,-0.560262,-0.566023
62392,NaN,13.719269,-0.637556,4.676518,-4.246765,5.268296,3.020524,1.829995,-1.115303,-2.063642,-0.851318,0.128174,0.139404,0.136851,-0.008221,0.047459,0.999889,0.009150,-0.005576,-0.010318,0.403942,-0.439160,-0.572271,-0.562561
62393,NaN,13.713911,-0.497432,5.085007,-4.413667,5.814673,2.870923,1.478519,-1.026293,-1.905159,-0.848877,0.117432,0.151855,0.136818,-0.006658,0.051508,0.999914,0.007392,-0.005131,-0.009526,0.398839,-0.433559,-0.582657,-0.559880
62394,NaN,13.398223,-0.388854,5.287537,-4.487560,6.123347,2.433926,1.112252,-0.932597,-1.731112,-0.850586,0.109131,0.156006,0.133692,-0.005343,0.053472,0.999936,0.005561,-0.004663,-0.008655,0.393639,-0.428891,-0.591360,-0.558027
62395,NaN,13.127968,-0.350048,5.483891,-4.595469,6.409057,2.033774,0.755465,-0.837409,-1.539522,-0.850098,0.096191,0.156250,0.131015,-0.004718,0.055372,0.999954,0.003777,-0.004187,-0.007697,0.388470,-0.425163,-0.598396,-0.557001
62396,NaN,12.807467,-0.445318,5.464022,-4.766337,6.455325,1.575547,0.426988,-0.725963,-1.331065,-0.854004,0.085693,0.164795,0.127841,-0.005422,0.055094,0.999969,0.002135,-0.003630,-0.006655,0.383464,-0.422370,-0.603821,-0.556740
62397,NaN,12.370049,-0.623693,5.332701,-4.924911,6.358961,1.010958,0.137711,-0.616697,-1.110336,-0.851562,0.072998,0.162842,0.123498,-0.006960,0.053703,0.999980,0.000689,-0.003083,-0.005552,0.378816,-0.420448,-0.607709,-0.557146
62398,NaN,12.007048,-0.792357,4.957557,-5.055430,6.012213,0.563684,-0.111299,-0.518787,-0.876009,-0.849121,0.068604,0.171143,0.119905,-0.008421,0.049891,0.999987,-0.000556,-0.002594,-0.004380,0.374537,-0.419446,-0.610230,-0.558038
62399,NaN,11.826684,-1.077022,4.345242,-5.323864,5.433008,0.289283,-0.306994,-0.459048,-0.634941,-0.849121,0.064453,0.167236,0.118132,-0.011078,0.043741,0.999991,-0.001535,-0.002295,-0.003175,0.370755,-0.419348,-0.611537,-0.559205
62400,NaN,12.606964,-1.494320,3.865361,-6.046096,5.077955,0.853529,-0.359516,-0.429021,-0.414091,-0.846924,0.064453,0.177246,0.125955,-0.015134,0.038951,0.999994,-0.001798,-0.002145,-0.002070,0.367507,-0.419955,-0.612205,-0.560162
62401,NaN,13.883811,-1.520623,3.739503,-6.571632,5.133206,1.999171,-0.299425,-0.323586,-0.210078,-0.842773,0.062256,0.175293,0.138761,-0.015296,0.037642,0.999997,-0.001497,-0.001618,-0.001050,0.365355,-0.420758,-0.612365,-0.560792
62402,NaN,14.202537,-1.308613,3.985358,-6.489040,5.449008,2.332609,-0.242901,-0.117833,0.009529,-0.846924,0.064453,0.167236,0.142002,-0.013031,0.039953,0.999999,-0.001215,-0.000589,0.000048,0.364487,-0.421571,-0.611892,-0.561263
62403,NaN,13.441867,-1.209239,4.430188,-6.072300,5.813315,1.637422,-0.229294,0.123519,0.229407,-0.838867,0.074951,0.173096,0.134460,-0.011887,0.044233,0.999998,-0.001146,0.000618,0.001147,0.365101,-0.422340,-0.610488,-0.561814
62404,NaN,11.959420,-1.209867,4.655180,-5.464094,5.857275,0.286702,-0.270497,0.355578,0.464310,-0.843018,0.072998,0.165039,0.119704,-0.011758,0.046355,0.999995,-0.001352,0.001778,0.002322,0.366895,-0.423260,-0.608109,-0.562533
62405,NaN,10.380044,-1.375430,4.475506,-4.973479,5.473050,-1.153787,-0.340801,0.535164,0.690534,-0.836914,0.079346,0.156738,0.103966,-0.013320,0.044500,0.999989,-0.001704,0.002676,0.003453,0.369835,-0.424473,-0.604635,-0.563438
62406,NaN,9.458412,-1.737201,3.984303,-4.916829,4.845733,-2.021888,-0.363796,0.639408,0.888793,-0.837158,0.087646,0.148438,0.094787,-0.016879,0.039571,0.999983,-0.001819,0.003197,0.004444,0.373471,-0.426034,-0.600545,-0.564234
62407,NaN,9.582561,-2.097518,3.301292,-5.237515,4.121128,-1.893925,-0.314209,0.709721,1.055976,-0.837402,0.096191,0.146240,0.096051,-0.020417,0.032705,0.999979,-0.001571,0.003549,0.005280,0.378017,-0.427779,-0.595992,-0.564714
62408,NaN,10.483798,-2.244287,2.912225,-5.606132,3.743222,-0.981759,-0.199515,0.787555,1.207963,-0.833496,0.106934,0.139893,0.105085,-0.021780,0.028731,0.999974,-0.000998,0.003938,0.006040,0.383316,-0.429531,-0.591355,-0.564687
62409,NaN,11.491567,-2.203671,2.544532,-5.801319,3.362001,0.108270,-0.071807,0.911057,1.350831,-0.833984,0.119629,0.127441,0.115175,-0.021250,0.024929,0.999967,-0.000359,0.004555,0.006754,0.389784,-0.431079,-0.586394,-0.564254
62410,NaN,12.247243,-2.098662,2.298340,-5.815090,3.051332,0.983209,0.046214,1.057299,1.497688,-0.832275,0.132324,0.110840,0.122744,-0.020073,0.022330,0.999958,0.000231,0.005286,0.007488,0.397171,-0.432389,-0.581224,-0.563447
62411,NaN,12.869654,-2.009868,2.064275,-5.762335,2.705335,1.737180,0.127803,1.209645,1.647893,-0.820068,0.143066,0.094238,0.128978,-0.019050,0.019851,0.999948,0.000639,0.006048,0.008239,0.405724,-0.433502,-0.575484,-0.562390
62412,NaN,13.389822,-1.896702,1.707275,-5.622725,2.200041,2.407649,0.193354,1.349075,1.788134,-0.824951,0.166504,0.083740,0.134172,-0.017784,0.016151,0.999937,0.000967,0.006745,0.008940,0.415006,-0.434444,-0.569393,-0.561087
62413,NaN,13.845619,-1.703646,1.376648,-5.344237,1.680599,3.036586,0.225443,1.491139,1.915500,-0.810791,0.179199,0.069092,0.138708,-0.015723,0.012715,0.999926,0.001127,0.007456,0.009577,0.425234,-0.435229,-0.562610,-0.559663
62414,NaN,14.263228,-1.274107,1.049210,-4.789848,1.133608,3.675251,0.213616,1.634182,2.031063,-0.806885,0.194092,0.050537,0.142831,-0.011302,0.009313,0.999914,0.001068,0.008171,0.010155,0.435923,-0.435889,-0.555279,-0.558245
62415,NaN,14.415400,-0.859219,0.675826,-4.139481,0.508122,4.028979,0.158409,1.762887,2.159176,-0.797119,0.213135,0.041992,0.144288,-0.007040,0.005481,0.999903,0.000792,0.008814,0.010796,0.447302,-0.436596,-0.546988,-0.556874
62416,NaN,14.083405,-0.645483,0.476615,-3.555972,0.054220,3.837359,0.055968,1.890309,2.268909,-0.791260,0.232422,0.015137,0.140932,-0.004857,0.003433,0.999891,0.000280,0.009451,0.011344,0.458843,-0.437376,-0.537919,-0.555706
62417,NaN,13.343585,-0.567748,0.468667,-3.021028,-0.193506,3.203266,-0.063995,1.974274,2.367766,-0.783447,0.247314,-0.001465,0.133528,-0.004096,0.003370,0.999881,-0.000320,0.009871,0.011838,0.470693,-0.438380,-0.527829,-0.554677
62418,NaN,12.636222,-0.428050,0.726574,-2.456393,-0.153325,2.609643,-0.226324,2.026325,2.455845,-0.773682,0.270508,-0.013916,0.126467,-0.002721,0.005988,0.999873,-0.001132,0.010131,0.012279,0.482277,-0.439730,-0.516998,-0.553859
62419,NaN,11.925359,-0.309392,1.025784,-1.926314,-0.051318,2.004074,-0.396296,2.037028,2.571587,-0.757324,0.287598,-0.026611,0.119376,-0.001541,0.009046,0.999864,-0.001981,0.010185,0.012857,0.493879,-0.441663,-0.505117,-0.553058
62420,NaN,11.478369,-0.272522,1.335087,-1.527505,0.062897,1.644163,-0.570677,2.022961,2.712754,-0.745117,0.304443,-0.041016,0.114933,-0.001131,0.012194,0.999853,-0.002853,0.010114,0.013563,0.505139,-0.444276,-0.492494,-0.552180
62421,NaN,11.248537,-0.189212,1.685659,-1.098229,0.205050,1.507436,-0.757655,1.982242,2.851459,-0.729004,0.325684,-0.057617,0.112656,-0.000226,0.015744,0.999842,-0.003788,0.009911,0.014257,0.516279,-0.447701,-0.478832,-0.551126
62422,NaN,11.320069,-0.143697,2.057517,-0.714825,0.337217,1.665920,-0.924169,1.933454,3.008182,-0.710449,0.346924,-0.062012,0.113396,0.000359,0.019481,0.999829,-0.004621,0.009667,0.015040,0.527024,-0.451896,-0.464495,-0.549800
62423,NaN,11.804078,0.045988,2.436229,-0.159552,0.398196,2.231893,-1.099240,1.896692,3.157700,-0.694336,0.368164,-0.082764,0.118236,0.002455,0.023232,0.999815,-0.005496,0.009483,0.015788,0.537673,-0.456861,-0.449099,-0.548175
62424,NaN,12.296248,0.352937,2.710017,0.565622,0.332531,2.765667,-1.307730,1.880918,3.297377,-0.680176,0.385010,-0.085205,0.123128,0.005731,0.025910,0.999798,-0.006538,0.009404,0.016486,0.547823,-0.462545,-0.432852,-0.546426
62425,NaN,12.436440,0.512099,2.723465,1.181267,0.058617,2.872836,-1.543492,1.874579,3.428661,-0.655518,0.410400,-0.091553,0.124498,0.007459,0.026017,0.999779,-0.007717,0.009372,0.017142,0.557697,-0.468996,-0.415320,-0.544542
62426,NaN,12.079704,0.358442,2.544293,1.458147,-0.285544,2.446601,-1.777268,1.851259,3.553729,-0.628906,0.435791,-0.098145,0.120934,0.005952,0.024278,0.999760,-0.008886,0.009256,0.017767,0.566901,-0.476190,-0.396903,-0.542526
62427,NaN,11.593588,0.046991,2.261104,1.544023,-0.676410,1.877588,-1.969914,1.797125,3.650627,-0.610596,0.454834,-0.100342,0.116096,0.002804,0.021548,0.999745,-0.009849,0.008985,0.018252,0.575668,-0.484043,-0.377521,-0.540173
62428,NaN,11.177949,-0.394863,1.922034,1.467140,-1.098080,1.386337,-2.091255,1.713170,3.711890,-0.583984,0.482422,-0.104736,0.111984,-0.001677,0.018287,0.999736,-0.010455,0.008565,0.018558,0.583701,-0.492326,-0.357876,-0.537432
62429,NaN,10.869240,-0.946899,1.512461,1.261335,-1.578813,1.014250,-2.116306,1.608827,3.745233,-0.559326,0.505615,-0.101074,0.108960,-0.007276,0.014334,0.999736,-0.010581,0.008043,0.018725,0.591404,-0.500769,-0.338035,-0.534045
62430,NaN,10.744654,-1.418287,1.028146,1.125926,-2.155825,0.797878,-2.048532,1.493725,3.750989,-0.538574,0.522461,-0.093018,0.107759,-0.012063,0.009608,0.999744,-0.010242,0.007468,0.018753,0.598651,-0.509061,-0.318688,-0.530011
62431,NaN,10.671503,-1.791151,0.670908,1.096493,-2.615427,0.650625,-1.901164,1.380491,3.733080,-0.511719,0.537109,-0.091064,0.107067,-0.015855,0.006128,0.999757,-0.009505,0.006902,0.018664,0.605872,-0.516936,-0.299799,-0.525183
62432,NaN,10.663901,-2.013155,0.344965,1.210743,-3.061057,0.533325,-1.685756,1.267685,3.687682,-0.478516,0.556152,-0.087158,0.107005,-0.018135,0.002931,0.999774,-0.008428,0.006338,0.018437,0.612951,-0.524137,-0.281951,-0.519688
62433,NaN,10.706823,-2.166373,0.127269,1.412968,-3.421634,0.464833,-1.405757,1.175122,3.623544,-0.451416,0.575195,-0.087402,0.107443,-0.019713,0.000785,0.999794,-0.007028,0.005875,0.018116,0.620310,-0.530413,-0.265011,-0.513465
62434,NaN,10.852172,-2.257514,-0.107859,1.686786,-3.834602,0.449614,-1.088413,1.101827,3.527292,-0.426514,0.589844,-0.087646,0.108890,-0.020664,-0.001562,0.999815,-0.005442,0.005509,0.017635,0.627815,-0.535547,-0.249413,-0.506785
62435,NaN,10.998381,-2.283454,-0.205864,2.043404,-4.129025,0.433469,-0.728217,1.045617,3.402047,-0.399170,0.593994,-0.081299,0.110339,-0.020968,-0.002556,0.999835,-0.003641,0.005228,0.017009,0.635767,-0.539363,-0.235012,-0.499658
62436,NaN,11.043095,-2.339654,-0.345617,2.307034,-4.421080,0.319584,-0.329739,1.020567,3.258373,-0.378662,0.610840,-0.089844,0.110773,-0.021600,-0.003984,0.999853,-0.001649,0.005103,0.016291,0.644115,-0.541623,-0.222140,-0.492356
62437,NaN,10.957610,-2.306707,-0.471408,2.579420,-4.658715,0.048563,0.086281,1.023696,3.094564,-0.351074,0.610840,-0.085449,0.109889,-0.021366,-0.005285,0.999867,0.000431,0.005118,0.015472,0.653080,-0.542220,-0.210534,-0.484932
62438,NaN,10.618492,-2.198193,-0.550421,2.782632,-4.751170,-0.455280,0.508356,1.043243,2.917077,-0.336670,0.623535,-0.091797,0.106459,-0.020415,-0.006112,0.999877,0.002542,0.005216,0.014585,0.662541,-0.541046,-0.200443,-0.477630
62439,NaN,10.138791,-1.972423,-0.578796,2.993652,-4.734137,-1.115654,0.891109,1.064060,2.733448,-0.309082,0.621338,-0.101807,0.101612,-0.018309,-0.006412,0.999883,0.004455,0.005320,0.013667,0.672511,-0.538264,-0.191531,-0.470443
62440,NaN,9.642053,-1.659928,-0.550266,3.235920,-4.639164,-1.810958,1.213981,1.069851,2.537652,-0.283936,0.625488,-0.116211,0.096589,-0.015339,-0.006115,0.999887,0.006070,0.005349,0.012688,0.682688,-0.534047,-0.183955,-0.463563
62441,NaN,9.457513,-1.234593,-0.436623,3.708833,-4.578282,-2.300173,1.450899,1.054772,2.316762,-0.270996,0.623291,-0.122314,0.094684,-0.011215,-0.004949,0.999893,0.007254,0.005274,0.011583,0.692853,-0.528764,-0.177430,-0.457035
62442,NaN,9.320032,-0.808283,-0.342893,4.167051,-4.528019,-2.758448,1.617371,1.034648,2.083570,-0.250000,0.623291,-0.134521,0.093258,-0.007081,-0.003971,0.999900,0.008087,0.005173,0.010418,0.702732,-0.522605,-0.172033,-0.451062
62443,NaN,9.243658,-0.436554,-0.123228,4.611995,-4.370166,-3.083731,1.745649,1.012482,1.816415,-0.237061,0.621094,-0.148682,0.092463,-0.003512,-0.001733,0.999908,0.008728,0.005062,0.009082,0.712203,-0.515748,-0.167588,-0.445741
62444,NaN,9.258863,-0.126155,0.088127,5.024248,-4.245844,-3.295205,1.804596,0.994788,1.533794,-0.224365,0.616943,-0.162842,0.092598,-0.000557,0.000414,0.999918,0.009023,0.004974,0.007669,0.721043,-0.508359,-0.164116,-0.441286
62445,NaN,9.204827,0.267255,0.248328,5.427335,-4.109972,-3.606844,1.787599,0.967024,1.252172,-0.215820,0.614746,-0.170898,0.092040,0.003229,0.002065,0.999929,0.008938,0.004835,0.006261,0.729083,-0.500822,-0.161341,-0.437704
62446,NaN,9.008261,0.579876,0.420393,5.661236,-3.887257,-3.938984,1.693725,0.928426,0.976990,-0.200928,0.610352,-0.183105,0.090071,0.006205,0.003837,0.999941,0.008468,0.004642,0.004885,0.736163,-0.493386,-0.159225,-0.435065
62447,NaN,8.794098,0.843821,0.459913,5.797629,-3.763148,-4.291336,1.519226,0.871090,0.716048,-0.194336,0.608398,-0.191162,0.087929,0.008720,0.004282,0.999955,0.007596,0.004355,0.003580,0.742106,-0.486499,-0.157538,-0.433335
62448,NaN,8.469214,1.089508,0.539406,5.845417,-3.541061,-4.665143,1.269179,0.791465,0.479951,-0.191895,0.597656,-0.201172,0.084686,0.011065,0.005129,0.999969,0.006346,0.003957,0.002400,0.746827,-0.480450,-0.156198,-0.432457
62449,NaN,8.062889,1.433202,0.630114,5.911368,-3.241701,-5.121394,0.956953,0.682930,0.250375,-0.185547,0.595703,-0.203125,0.080632,0.014403,0.006095,0.999982,0.004785,0.003415,0.001252,0.750152,-0.475639,-0.155129,-0.432406
62450,NaN,8.011693,1.571572,0.777483,6.017166,-3.098423,-5.180738,0.595309,0.524411,0.011071,-0.183105,0.587158,-0.207031,0.080136,0.015697,0.007611,0.999992,0.002977,0.002622,0.000055,0.751986,-0.472289,-0.154441,-0.433137
62451,NaN,8.628261,1.461858,0.774615,6.272065,-3.460556,-4.726471,0.223287,0.323640,-0.237292,-0.185303,0.589111,-0.207031,0.086312,0.014508,0.007623,0.999997,0.001116,0.001618,-0.001186,0.752200,-0.470615,-0.154314,-0.434630
62452,NaN,9.718787,1.203601,0.696983,6.650886,-4.152764,-3.904276,-0.118711,0.140416,-0.497383,-0.189453,0.589355,-0.213379,0.097222,0.011798,0.006895,0.999996,-0.000594,0.000702,-0.002487,0.750940,-0.470383,-0.154716,-0.436912
62453,NaN,10.413762,0.967729,0.644853,6.801364,-4.614219,-3.312784,-0.404797,0.001246,-0.740075,-0.191406,0.580811,-0.202881,0.104173,0.009305,0.006429,0.999991,-0.002024,0.000006,-0.003700,0.748304,-0.471374,-0.155646,-0.440025
62454,NaN,10.625608,0.574133,0.606751,6.530877,-4.836526,-2.916590,-0.625256,-0.109378,-0.969455,-0.197754,0.583008,-0.200928,0.106279,0.005245,0.006109,0.999983,-0.003126,-0.000547,-0.004847,0.744594,-0.473204,-0.156981,-0.443864
62455,NaN,10.322972,0.127011,0.561822,5.907507,-4.795155,-2.812529,-0.761690,-0.200000,-1.165997,-0.206055,0.576416,-0.192627,0.103229,0.000690,0.005718,0.999975,-0.003808,-0.001000,-0.005830,0.739948,-0.475609,-0.158903,-0.448356
62456,NaN,9.352225,-0.154564,0.648953,5.071382,-4.261053,-3.176995,-0.826810,-0.272796,-1.322866,-0.214355,0.572266,-0.194824,0.093500,-0.002137,0.006625,0.999969,-0.004134,-0.001364,-0.006614,0.734770,-0.478226,-0.161219,-0.453235
62457,NaN,8.104482,-0.151963,0.860720,4.353147,-3.428271,-3.834181,-0.867926,-0.381555,-1.444870,-0.227295,0.576660,-0.184570,0.081015,-0.002067,0.008770,0.999963,-0.004340,-0.001908,-0.007224,0.728986,-0.481152,-0.164246,-0.458362
62458,NaN,7.520544,-0.077956,1.167837,4.082620,-2.838077,-4.050318,-0.873237,-0.530933,-1.590243,-0.229004,0.568115,-0.176270,0.075165,-0.001326,0.011883,0.999955,-0.004366,-0.002655,-0.007951,0.722766,-0.484236,-0.168017,-0.463568
62459,NaN,7.787433,-0.169431,1.318921,4.080710,-2.817179,-3.662717,-0.853461,-0.698705,-1.731500,-0.243896,0.568115,-0.170166,0.077809,-0.002311,0.013470,0.999947,-0.004267,-0.003493,-0.008657,0.715947,-0.487514,-0.172911,-0.468884
62460,NaN,8.504533,-0.368062,1.488229,4.200400,-2.996182,-2.880543,-0.796195,-0.837424,-1.866011,-0.256348,0.561768,-0.166016,0.084943,-0.004413,0.015255,0.999940,-0.003981,-0.004187,-0.009330,0.708857,-0.490697,-0.178599,-0.474173
62461,NaN,9.386047,-0.571739,1.554756,4.338117,-3.315501,-2.000718,-0.687320,-0.952383,-1.984034,-0.264893,0.561768,-0.164062,0.093722,-0.006593,0.016016,0.999934,-0.003437,-0.004762,-0.009920,0.701440,-0.493638,-0.185386,-0.479516
62462,NaN,10.176159,-0.638447,1.566803,4.502347,-3.602822,-1.259283,-0.560053,-1.044748,-2.085682,-0.283203,0.544922,-0.153564,0.101604,-0.007400,0.016219,0.999928,-0.002800,-0.005224,-0.010428,0.694031,-0.496151,-0.192861,-0.484727
62463,NaN,10.756645,-0.642127,1.546624,4.580990,-3.788313,-0.693072,-0.417688,-1.118521,-2.163788,-0.295898,0.542725,-0.151611,0.107400,-0.007551,0.016082,0.999924,-0.002088,-0.005592,-0.010819,0.686470,-0.498236,-0.201291,-0.489900
62464,NaN,11.126164,-0.686804,1.516203,4.505594,-3.867129,-0.257558,-0.261537,-1.188265,-2.224888,-0.312500,0.534424,-0.151611,0.111083,-0.008084,0.015832,0.999920,-0.001308,-0.005941,-0.011124,0.679109,-0.499778,-0.210274,-0.494790
62465,NaN,11.339397,-0.646535,1.434283,4.403643,-3.897957,0.008902,-0.109880,-1.265570,-2.284014,-0.322754,0.523926,-0.147217,0.113217,-0.007751,0.015064,0.999915,-0.000549,-0.006328,-0.011420,0.671625,-0.500886,-0.220219,-0.499536
62466,NaN,11.461129,-0.565220,1.487121,4.318295,-3.757112,0.242998,0.047678,-1.341791,-2.344334,-0.339355,0.515381,-0.136963,0.114431,-0.006998,0.015638,0.999909,0.000238,-0.006709,-0.011721,0.664341,-0.501464,-0.230714,-0.503941
62467,NaN,11.508148,-0.458892,1.647599,4.230048,-3.470217,0.454644,0.183083,-1.421296,-2.404870,-0.360352,0.507080,-0.147217,0.114894,-0.005987,0.017288,0.999902,0.000915,-0.007106,-0.012024,0.656841,-0.501660,-0.242157,-0.508190
62468,NaN,11.491315,-0.366395,1.776703,4.092841,-3.176185,0.603274,0.280714,-1.492059,-2.473781,-0.366455,0.498535,-0.134766,0.114719,-0.005109,0.018617,0.999895,0.001404,-0.007460,-0.012368,0.649374,-0.501494,-0.253969,-0.512168
62469,NaN,11.246876,-0.374417,1.935260,3.774776,-2.746833,0.607190,0.329582,-1.537154,-2.554000,-0.378662,0.483643,-0.132568,0.112255,-0.005211,0.020208,0.999888,0.001648,-0.007685,-0.012770,0.641418,-0.501104,-0.266453,-0.516218
62470,NaN,10.813111,-0.598204,2.120655,3.201215,-2.213444,0.513086,0.370686,-1.568407,-2.636609,-0.399414,0.473145,-0.130371,0.107869,-0.007446,0.022040,0.999881,0.001853,-0.007842,-0.013183,0.633364,-0.500404,-0.279032,-0.520179
62471,NaN,10.423530,-0.988176,2.140981,2.451823,-1.839955,0.424687,0.423105,-1.592034,-2.705666,-0.413818,0.462646,-0.126221,0.103914,-0.011335,0.022215,0.999875,0.002115,-0.007960,-0.013528,0.624847,-0.499404,-0.292198,-0.524196
62472,NaN,9.981948,-1.289269,2.057684,1.764362,-1.557701,0.186665,0.486427,-1.605140,-2.750622,-0.432373,0.447754,-0.121826,0.099460,-0.014314,0.021342,0.999870,0.002432,-0.008025,-0.013753,0.616414,-0.498022,-0.305337,-0.527993
62473,NaN,9.562296,-1.450836,2.060380,1.234348,-1.215320,-0.077267,0.537752,-1.616809,-2.763525,-0.440430,0.435059,-0.117676,0.095239,-0.015883,0.021333,0.999868,0.002689,-0.008084,-0.013817,0.607654,-0.496380,-0.318878,-0.531677
62474,NaN,9.166994,-1.487313,1.965241,0.838134,-0.997118,-0.410376,0.570048,-1.620681,-2.754949,-0.457031,0.422363,-0.113525,0.091290,-0.016190,0.020348,0.999868,0.002850,-0.008103,-0.013774,0.599068,-0.494512,-0.332132,-0.535037
62475,NaN,8.803624,-1.379963,1.847158,0.600216,-0.828194,-0.770191,0.556826,-1.634768,-2.735511,-0.469482,0.416016,-0.111328,0.087681,-0.015053,0.019149,0.999869,0.002784,-0.008173,-0.013677,0.590066,-0.492638,-0.345538,-0.538270
62476,NaN,8.569657,-1.213290,1.704838,0.468016,-0.740248,-1.035223,0.515423,-1.665056,-2.702120,-0.479492,0.399170,-0.102783,0.085376,-0.013333,0.017727,0.999871,0.002577,-0.008325,-0.013510,0.581096,-0.490879,-0.358467,-0.541172
62477,NaN,8.529841,-1.132147,1.537612,0.290163,-0.724934,-1.107061,0.463551,-1.707309,-2.678965,-0.491699,0.386475,-0.094482,0.085001,-0.012498,0.016075,0.999871,0.002318,-0.008536,-0.013394,0.571571,-0.489311,-0.371509,-0.543932
62478,NaN,8.621566,-1.004524,1.509105,0.200706,-0.615771,-1.026804,0.431328,-1.744815,-2.661286,-0.510254,0.369385,-0.088135,0.085936,-0.011224,0.015818,0.999871,0.002157,-0.008724,-0.013306,0.562059,-0.487830,-0.384150,-0.546389
62479,NaN,8.762012,-1.021785,1.508239,-0.032060,-0.469881,-0.876078,0.419145,-1.771649,-2.652478,-0.516357,0.363037,-0.086182,0.087336,-0.011410,0.015834,0.999871,0.002096,-0.008858,-0.013262,0.552071,-0.486355,-0.396988,-0.548705
62480,NaN,8.902194,-1.094961,1.607188,-0.312113,-0.219581,-0.708937,0.436438,-1.788865,-2.637767,-0.528564,0.346191,-0.073486,0.088719,-0.012157,0.016841,0.999871,0.002182,-0.008944,-0.013188,0.542256,-0.484772,-0.409506,-0.550690
62481,NaN,9.079013,-1.206887,1.903809,-0.624881,0.232043,-0.482217,0.496805,-1.797365,-2.624983,-0.534424,0.331299,-0.075439,0.090445,-0.013306,0.019820,0.999870,0.002484,-0.008986,-0.013124,0.532186,-0.482955,-0.422344,-0.552411
62482,NaN,9.337850,-1.352422,2.370971,-0.962637,0.842511,-0.168965,0.593666,-1.787784,-2.602954,-0.548584,0.316406,-0.069092,0.092975,-0.014808,0.024499,0.999871,0.002968,-0.008939,-0.013014,0.522568,-0.480766,-0.434991,-0.553687
62483,NaN,9.704276,-1.458437,2.960680,-1.276384,1.567582,0.235710,0.714153,-1.745661,-2.571634,-0.558838,0.303711,-0.058594,0.096581,-0.015936,0.030396,0.999873,0.003571,-0.008728,-0.012858,0.513004,-0.478093,-0.447934,-0.554625
62484,NaN,10.101346,-1.501270,3.485136,-1.553411,2.222258,0.631259,0.837446,-1.676747,-2.538471,-0.570801,0.286865,-0.050293,0.100514,-0.016439,0.035629,0.999876,0.004187,-0.008383,-0.012692,0.504128,-0.474862,-0.460588,-0.555175
62485,NaN,10.426766,-1.523692,3.788051,-1.851630,2.674879,0.901549,0.937067,-1.605578,-2.493678,-0.572754,0.276123,-0.052002,0.103757,-0.016713,0.038639,0.999879,0.004685,-0.008028,-0.012468,0.495381,-0.471165,-0.473364,-0.555452
62486,NaN,10.654921,-1.355621,3.806731,-1.978597,2.838939,1.044196,0.973527,-1.540394,-2.433544,-0.582520,0.257080,-0.047607,0.106075,-0.015037,0.038815,0.999884,0.004867,-0.007702,-0.012167,0.487193,-0.467229,-0.485580,-0.555474
62487,NaN,10.870552,-1.114129,3.641859,-2.047816,2.822771,1.164665,0.936918,-1.491645,-2.356702,-0.594727,0.242188,-0.041504,0.108287,-0.012592,0.037171,0.999892,0.004684,-0.007458,-0.011783,0.478883,-0.463319,-0.497514,-0.555416
62488,NaN,11.076971,-0.863612,3.397898,-2.101112,2.725147,1.284194,0.833313,-1.456997,-2.281079,-0.600586,0.227295,-0.032959,0.110409,-0.010040,0.034744,0.999900,0.004166,-0.007285,-0.011405,0.470785,-0.459660,-0.508569,-0.555366
62489,NaN,11.305495,-0.751183,3.189460,-2.291968,2.675594,1.418107,0.676976,-1.435620,-2.206204,-0.608643,0.214600,-0.030762,0.112729,-0.008866,0.032676,0.999908,0.003385,-0.007178,-0.011031,0.462256,-0.456396,-0.519078,-0.555500
62490,NaN,11.597469,-0.687463,3.163134,-2.525974,2.806860,1.620248,0.501505,-1.421008,-2.142868,-0.605957,0.199707,-0.022217,0.115663,-0.008196,0.032434,0.999914,0.002507,-0.007105,-0.010714,0.453698,-0.453594,-0.528619,-0.555853
62491,NaN,11.985032,-0.653713,3.317188,-2.805768,3.128416,1.909281,0.324400,-1.403828,-2.075399,-0.605469,0.182861,-0.015869,0.119537,-0.007833,0.034000,0.999920,0.001622,-0.007019,-0.010377,0.444671,-0.451229,-0.537576,-0.556483
62492,NaN,12.381596,-0.671978,3.603670,-3.130210,3.587271,2.190109,0.154047,-1.375922,-1.999859,-0.617676,0.170166,-0.011719,0.123489,-0.007984,0.036881,0.999926,0.000770,-0.006879,-0.009999,0.435699,-0.449316,-0.545554,-0.557361
62493,NaN,12.786425,-0.634344,3.994419,-3.400284,4.159855,2.474557,-0.018523,-1.334868,-1.911701,-0.615234,0.159424,-0.001221,0.127525,-0.007560,0.040797,0.999932,-0.000093,-0.006674,-0.009558,0.426432,-0.447817,-0.552851,-0.558543
62494,NaN,13.084515,-0.640300,4.425709,-3.671686,4.771619,2.634994,-0.197453,-1.276401,-1.795478,-0.617188,0.155273,0.002930,0.130495,-0.007531,0.045098,0.999939,-0.000987,-0.006382,-0.008977,0.417397,-0.446823,-0.559026,-0.560017
62495,NaN,13.305816,-0.703675,4.782394,-3.966169,5.310233,2.696351,-0.373529,-1.205483,-1.666738,-0.625000,0.138184,0.013428,0.132702,-0.008053,0.048639,0.999945,-0.001868,-0.006027,-0.008334,0.408305,-0.446274,-0.564345,-0.561819
62496,NaN,13.461517,-0.725070,4.974019,-4.180056,5.670716,2.711057,-0.536476,-1.111372,-1.518840,-0.622803,0.129639,0.015625,0.134276,-0.008136,0.050508,0.999952,-0.002682,-0.005557,-0.007594,0.399661,-0.446194,-0.568487,-0.563918
62497,NaN,13.419619,-1.005011,5.023688,-4.568814,5.879543,2.470909,-0.683073,-0.996732,-1.367921,-0.620361,0.123291,0.025879,0.133871,-0.010793,0.050941,0.999958,-0.003415,-0.004984,-0.006840,0.391270,-0.446436,-0.571707,-0.566352
62498,NaN,12.912181,-1.335265,4.907241,-4.842519,5.877129,1.788819,-0.788046,-0.888383,-1.214531,-0.620117,0.116943,0.030273,0.128819,-0.013941,0.049699,0.999964,-0.003940,-0.004442,-0.006073,0.383492,-0.447015,-0.573922,-0.568968
62499,NaN,12.516876,-1.564591,4.772314,-5.025259,5.844065,1.254687,-0.850614,-0.788340,-1.057529,-0.619873,0.108398,0.034424,0.124895,-0.016102,0.048284,0.999969,-0.004253,-0.003942,-0.005288,0.376189,-0.447810,-0.575453,-0.571666
62500,NaN,12.200866,-1.861856,4.453550,-5.283705,5.623961,0.799277,-0.883136,-0.708781,-0.895962,-0.613281,0.102051,0.038574,0.121765,-0.018966,0.045051,0.999974,-0.004416,-0.003544,-0.004480,0.369576,-0.448917,-0.576271,-0.574281
62501,NaN,12.027738,-2.172097,4.173470,-5.579905,5.448260,0.482085,-0.871055,-0.637033,-0.719992,-0.611084,0.099854,0.042725,0.120065,-0.021970,0.042213,0.999979,-0.004355,-0.003185,-0.003600,0.363634,-0.450241,-0.576612,-0.576690
62502,NaN,12.263271,-2.567930,3.685262,-6.097675,5.109156,0.544781,-0.781763,-0.602400,-0.554189,-0.608643,0.087158,0.049072,0.122449,-0.025873,0.037323,0.999984,-0.003909,-0.003012,-0.002771,0.358508,-0.451805,-0.576709,-0.578577
62503,NaN,13.359190,-2.910726,3.582528,-6.810050,5.241618,1.408835,-0.566727,-0.559016,-0.400958,-0.610840,0.089111,0.051270,0.133432,-0.029272,0.036281,0.999990,-0.002834,-0.002795,-0.002005,0.354420,-0.453253,-0.577000,-0.579672
62504,NaN,14.192483,-2.792899,3.752338,-6.969215,5.572546,2.174105,-0.323342,-0.418392,-0.237707,-0.612793,0.087158,0.053223,0.141813,-0.028037,0.037865,0.999996,-0.001617,-0.002092,-0.001189,0.351764,-0.454361,-0.577357,-0.580066
62505,NaN,13.860408,-2.553448,4.036796,-6.597992,5.844965,1.901812,-0.133894,-0.235949,-0.055518,-0.600098,0.086914,0.055420,0.138549,-0.025546,0.040549,0.999999,-0.000669,-0.001180,-0.000278,0.350634,-0.455108,-0.577502,-0.580021
62506,NaN,13.199334,-2.520583,4.339266,-6.295611,6.084425,1.266573,0.033673,-0.070802,0.116096,-0.604492,0.091309,0.053223,0.131993,-0.025137,0.043435,1.000000,0.000168,-0.000354,0.000580,0.350816,-0.455600,-0.577476,-0.579550
62507,NaN,12.452301,-2.376995,4.501048,-5.869879,6.136262,0.620914,0.156287,0.098494,0.298111,-0.598145,0.091309,0.053223,0.124580,-0.023619,0.044931,0.999998,0.000781,0.000492,0.001491,0.352387,-0.455896,-0.577033,-0.578806
62508,NaN,11.460658,-2.275312,4.477617,-5.420034,5.960349,-0.238246,0.247502,0.278871,0.463116,-0.591797,0.093262,0.053223,0.114721,-0.022543,0.044588,0.999996,0.001238,0.001394,0.002316,0.355068,-0.455997,-0.576217,-0.577900
62509,NaN,10.483539,-2.351568,4.131392,-5.177345,5.464283,-1.104127,0.333178,0.424642,0.621079,-0.587646,0.095459,0.047119,0.104995,-0.023258,0.041052,0.999992,0.001666,0.002123,0.003105,0.358957,-0.455961,-0.574927,-0.576808
62510,NaN,9.971341,-2.414389,3.655792,-5.088436,4.884962,-1.514136,0.433045,0.519936,0.763577,-0.583740,0.108154,0.044922,0.099899,-0.023841,0.036247,0.999987,0.002165,0.002600,0.003818,0.363610,-0.455884,-0.573512,-0.575362
62511,NaN,10.192688,-2.454584,3.126285,-5.208840,4.315198,-1.214108,0.541777,0.586553,0.887329,-0.579590,0.110352,0.042725,0.102126,-0.024177,0.030898,0.999982,0.002709,0.002933,0.004437,0.369229,-0.455747,-0.571863,-0.573530
62512,NaN,10.815882,-2.274384,2.656480,-5.222308,3.816202,-0.465193,0.632873,0.660957,1.012212,-0.573486,0.114502,0.042725,0.108359,-0.022279,0.026136,0.999977,0.003164,0.003305,0.005061,0.375430,-0.455577,-0.570155,-0.571336
62513,NaN,11.514335,-2.170053,2.414991,-5.278063,3.531169,0.325951,0.727808,0.763738,1.135614,-0.567383,0.120850,0.036377,0.115355,-0.021133,0.023632,0.999970,0.003639,0.003819,0.005678,0.382689,-0.455258,-0.568060,-0.568856
62514,NaN,11.898052,-2.108540,2.253829,-5.251537,3.282413,0.804919,0.821919,0.890330,1.255188,-0.565430,0.127197,0.030273,0.119209,-0.020429,0.021923,0.999962,0.004110,0.004452,0.006276,0.390619,-0.454710,-0.565833,-0.566117
62515,NaN,12.064519,-1.962173,2.190183,-5.049782,3.082958,1.104780,0.893133,1.022195,1.366478,-0.557373,0.135742,0.023926,0.120885,-0.018892,0.021199,0.999954,0.004466,0.005111,0.006832,0.399614,-0.453929,-0.563066,-0.563217
62516,NaN,12.168118,-1.733649,2.129798,-4.737603,2.867143,1.364742,0.946067,1.147111,1.477128,-0.553223,0.144287,0.017822,0.121924,-0.016535,0.020520,0.999945,0.004730,0.005735,0.007386,0.409104,-0.452952,-0.560073,-0.560167
62517,NaN,12.290798,-1.359461,2.044239,-4.265558,2.602429,1.681573,0.959110,1.266565,1.581169,-0.539062,0.159180,0.009277,0.123137,-0.012717,0.019601,0.999937,0.004795,0.006333,0.007906,0.419475,-0.451858,-0.556359,-0.557072
62518,NaN,12.394584,-0.904987,1.830176,-3.697127,2.201944,1.988630,0.921955,1.384520,1.676666,-0.535156,0.167480,0.005127,0.124139,-0.008091,0.017404,0.999930,0.004610,0.006922,0.008383,0.430027,-0.450711,-0.552214,-0.554072
62519,NaN,12.347696,-0.562266,1.656885,-3.171426,1.827170,2.108887,0.841975,1.498339,1.766506,-0.529053,0.173828,-0.005127,0.123640,-0.004598,0.015622,0.999924,0.004210,0.007492,0.008832,0.441192,-0.449611,-0.547086,-0.551269
62520,NaN,12.177976,-0.278259,1.476552,-2.665128,1.447465,2.076616,0.720223,1.601488,1.853103,-0.525146,0.184570,-0.009521,0.121912,-0.001704,0.013782,0.999919,0.003601,0.008007,0.009265,0.452241,-0.448650,-0.541346,-0.548759
62521,NaN,11.828311,-0.049948,1.457126,-2.160116,1.224655,1.843266,0.551533,1.695959,1.940091,-0.512695,0.190918,-0.019775,0.118399,0.000610,0.013568,0.999913,0.002758,0.008480,0.009700,0.463633,-0.447980,-0.534389,-0.546614
62522,NaN,11.296673,0.077314,1.479721,-1.728877,1.062311,1.398258,0.352917,1.768919,2.030904,-0.506836,0.209961,-0.028076,0.113076,0.001896,0.013800,0.999908,0.001765,0.008844,0.010154,0.474636,-0.447723,-0.526673,-0.544868
62523,NaN,10.831308,0.093432,1.536029,-1.416171,0.937231,0.994433,0.147286,1.806088,2.125605,-0.502930,0.216309,-0.032471,0.108428,0.002075,0.014383,0.999902,0.000736,0.009030,0.010628,0.485752,-0.448022,-0.517728,-0.543396
62524,NaN,10.474946,0.006092,1.598459,-1.230429,0.828913,0.678778,-0.050812,1.833317,2.221820,-0.488525,0.229004,-0.038574,0.104881,0.001229,0.015023,0.999896,-0.000254,0.009166,0.011109,0.496349,-0.448880,-0.508125,-0.542174
62525,NaN,10.236190,0.018055,1.682225,-0.952226,0.737157,0.490310,-0.233293,1.837791,2.329200,-0.478027,0.233398,-0.048828,0.102499,0.001393,0.015880,0.999889,-0.001166,0.009189,0.011646,0.507041,-0.450358,-0.497386,-0.541013
62526,NaN,10.098334,0.111248,1.790629,-0.601622,0.673472,0.403534,-0.445719,1.833134,2.449808,-0.470215,0.250244,-0.055176,0.101118,0.002389,0.016975,0.999880,-0.002229,0.009165,0.012249,0.517143,-0.452579,-0.485975,-0.539967
62527,NaN,10.034065,0.170020,1.882166,-0.271306,0.582240,0.377128,-0.661528,1.819473,2.569739,-0.459961,0.262939,-0.061523,0.100473,0.003051,0.017899,0.999871,-0.003307,0.009097,0.012848,0.527222,-0.455570,-0.473337,-0.538929
62528,NaN,10.052722,0.151452,1.806925,-0.011901,0.321778,0.396713,-0.872889,1.793053,2.678199,-0.445312,0.269287,-0.061768,0.100651,0.002938,0.017156,0.999861,-0.004364,0.008965,0.013390,0.536602,-0.459326,-0.460110,-0.537937
62529,NaN,10.015263,0.098085,1.720619,0.231410,0.055594,0.346496,-1.073152,1.756294,2.775085,-0.441650,0.284180,-0.063965,0.100271,0.002461,0.016315,0.999851,-0.005365,0.008781,0.013875,0.545842,-0.463799,-0.445796,-0.536855
62530,NaN,9.944741,-0.034199,1.566492,0.394228,-0.259843,0.243150,-1.262052,1.703997,2.858494,-0.425049,0.296875,-0.063965,0.099566,0.001176,0.014813,0.999842,-0.006310,0.008520,0.014292,0.554282,-0.468979,-0.431077,-0.535726
62531,NaN,9.868982,-0.251988,1.332644,0.475745,-0.646528,0.116155,-1.424771,1.625605,2.925115,-0.415039,0.309570,-0.068359,0.098816,-0.000984,0.012534,0.999835,-0.007123,0.008128,0.014625,0.562459,-0.474799,-0.415552,-0.534343
62532,NaN,9.834692,-0.624436,1.088775,0.395239,-1.028437,0.039874,-1.519585,1.530973,2.960011,-0.398438,0.320068,-0.066406,0.098504,-0.004708,0.010174,0.999832,-0.007597,0.007654,0.014799,0.569831,-0.481065,-0.400109,-0.532713
62533,NaN,9.902955,-1.014256,0.941515,0.316374,-1.328274,0.092355,-1.544792,1.431796,2.969108,-0.390625,0.336914,-0.068604,0.099229,-0.008601,0.008776,0.999834,-0.007724,0.007159,0.014845,0.577050,-0.487510,-0.384438,-0.530617
62534,NaN,10.082148,-1.462288,0.851426,0.196157,-1.579527,0.285345,-1.494271,1.325817,2.947546,-0.373779,0.341309,-0.068604,0.101076,-0.013074,0.007946,0.999842,-0.007471,0.006629,0.014737,0.583670,-0.493904,-0.369421,-0.528125
62535,NaN,10.415973,-1.985250,0.914628,0.058749,-1.716189,0.690264,-1.344200,1.232496,2.903599,-0.363770,0.358154,-0.068848,0.104487,-0.018278,0.008629,0.999853,-0.006721,0.006162,0.014517,0.590450,-0.499865,-0.354787,-0.525005
62536,NaN,10.925567,-2.474124,1.076072,0.013935,-1.803902,1.295101,-1.099530,1.166702,2.832568,-0.353516,0.366699,-0.067139,0.109652,-0.023133,0.010252,0.999868,-0.005497,0.005833,0.014162,0.597116,-0.505019,-0.341348,-0.521431
62537,NaN,11.469871,-2.747789,1.195613,0.209574,-1.972443,1.874615,-0.784275,1.145804,2.725284,-0.341064,0.379395,-0.073242,0.115125,-0.025866,0.011401,0.999883,-0.003921,0.005729,0.013626,0.604351,-0.508972,-0.328702,-0.517361
62538,NaN,11.664324,-2.756193,1.107223,0.548634,-2.265330,1.995630,-0.451794,1.156935,2.621500,-0.326660,0.389893,-0.069336,0.117053,-0.026005,0.010456,0.999895,-0.002259,0.005784,0.013107,0.611808,-0.511611,-0.317350,-0.513063
62539,NaN,11.471596,-2.519069,0.931143,0.994676,-2.551026,1.646118,-0.145402,1.188379,2.510384,-0.320557,0.396240,-0.065430,0.115073,-0.023741,0.008646,0.999903,-0.000727,0.005942,0.012552,0.619906,-0.512953,-0.306639,-0.508496
62540,NaN,10.851164,-2.338821,0.731699,1.214425,-2.711818,0.907248,0.105842,1.218711,2.390961,-0.312256,0.402588,-0.071533,0.108823,-0.022092,0.006643,0.999910,0.000529,0.006093,0.011954,0.628058,-0.513158,-0.296989,-0.503993
62541,NaN,10.116077,-2.163333,0.474416,1.342402,-2.876607,0.044148,0.331216,1.236721,2.252893,-0.295654,0.413086,-0.071777,0.101423,-0.020499,0.004083,0.999916,0.001656,0.006183,0.011264,0.636547,-0.512319,-0.287900,-0.499450
62542,NaN,9.452351,-2.079930,0.263826,1.362435,-2.994468,-0.706932,0.540538,1.235655,2.107013,-0.285400,0.421631,-0.071777,0.094749,-0.019808,0.001999,0.999922,0.002703,0.006178,0.010535,0.644912,-0.510519,-0.279916,-0.495082
62543,NaN,9.090806,-1.993194,0.111576,1.467377,-3.148180,-1.177886,0.731113,1.204978,1.946514,-0.279053,0.423584,-0.073730,0.091101,-0.019048,0.000497,0.999928,0.003655,0.006025,0.009732,0.653387,-0.507887,-0.272636,-0.490720
62544,NaN,9.374604,-1.748533,0.127176,1.951715,-3.364043,-1.104810,0.893469,1.149811,1.774041,-0.273193,0.436279,-0.082275,0.093901,-0.016657,0.000657,0.999934,0.004467,0.005749,0.008870,0.661523,-0.504544,-0.266566,-0.486584
62545,NaN,10.076132,-1.344865,0.114255,2.733861,-3.756217,-0.770368,0.998483,1.100954,1.595218,-0.264648,0.434082,-0.080078,0.100868,-0.012648,0.000523,0.999941,0.004992,0.005505,0.007976,0.669473,-0.500687,-0.261121,-0.482631
62546,NaN,10.642497,-1.071268,0.116207,3.338889,-4.081154,-0.505881,1.095408,1.080271,1.413393,-0.258545,0.442627,-0.086426,0.106501,-0.009964,0.000531,0.999945,0.005477,0.005401,0.007067,0.676991,-0.496244,-0.256614,-0.479139
62547,NaN,10.855272,-0.877204,0.133959,3.723698,-4.255418,-0.504246,1.158639,1.064849,1.227306,-0.252441,0.444824,-0.088379,0.108609,-0.008111,0.000713,0.999950,0.005793,0.005324,0.006136,0.684229,-0.491356,-0.252567,-0.476035
62548,NaN,10.743084,-0.554076,0.147265,4.067827,-4.285194,-0.822126,1.187617,1.054190,1.061037,-0.246338,0.455322,-0.096680,0.107464,-0.004977,0.000876,0.999954,0.005938,0.005271,0.005305,0.690964,-0.486113,-0.249187,-0.473465
62549,NaN,10.620649,-0.252810,0.177374,4.372927,-4.283624,-1.128226,1.179217,1.022778,0.898794,-0.244141,0.455322,-0.098633,0.106224,-0.002059,0.001217,0.999959,0.005896,0.005114,0.004494,0.697263,-0.480758,-0.246129,-0.471293
62550,NaN,10.555877,0.138567,0.281899,4.770419,-4.215047,-1.386517,1.150688,0.985737,0.731783,-0.240234,0.459717,-0.109131,0.105565,0.001758,0.002308,0.999965,0.005753,0.004929,0.003659,0.702933,-0.475320,-0.243654,-0.469669
62551,NaN,10.438677,0.529592,0.149501,5.104121,-4.321727,-1.779104,1.041607,0.924411,0.564898,-0.236084,0.468018,-0.111328,0.104377,0.005585,0.001041,0.999972,0.005208,0.004622,0.002824,0.707870,-0.470208,-0.241421,-0.468551
62552,NaN,10.279304,1.231375,-0.027318,5.675222,-4.393433,-2.351449,0.806939,0.840188,0.409031,-0.227539,0.466064,-0.119385,0.102765,0.012526,-0.000655,0.999981,0.004035,0.004201,0.002045,0.711718,-0.465880,-0.239389,-0.468087
62553,NaN,10.426331,1.900756,-0.278249,6.334437,-4.651143,-2.696505,0.449302,0.702866,0.244505,-0.229980,0.472412,-0.119385,0.104229,0.019142,-0.003106,0.999991,0.002247,0.003514,0.001223,0.714173,-0.462972,-0.237332,-0.468281
62554,NaN,11.029866,2.095067,-0.648356,6.750286,-5.271538,-2.524898,0.092450,0.527228,0.071818,-0.229980,0.472412,-0.121582,0.110274,0.020993,-0.006765,0.999996,0.000462,0.002636,0.000359,0.715170,-0.461504,-0.235517,-0.469125
62555,NaN,11.574794,2.029154,-1.050432,6.888995,-5.925876,-2.287912,-0.238241,0.375023,-0.094005,-0.232178,0.476562,-0.121582,0.115737,0.020224,-0.010745,0.999997,-0.001191,0.001875,-0.000470,0.714811,-0.461413,-0.233847,-0.470594
62556,NaN,11.619915,2.025810,-1.202782,6.864366,-6.121962,-2.331054,-0.509190,0.240580,-0.266435,-0.230225,0.482910,-0.119629,0.116211,0.020072,-0.012219,0.999995,-0.002546,0.001203,-0.001332,0.713279,-0.462366,-0.232421,-0.472686
62557,NaN,11.433681,2.004463,-1.218190,6.716868,-6.088389,-2.461103,-0.749235,0.108044,-0.420732,-0.232422,0.482910,-0.113525,0.114372,0.019758,-0.012318,0.999991,-0.003746,0.000540,-0.002104,0.710611,-0.464344,-0.231299,-0.475308
62558,NaN,10.917773,1.602987,-1.280533,6.068365,-5.981331,-2.684905,-0.870600,-0.003352,-0.561364,-0.230469,0.487305,-0.109375,0.109222,0.015667,-0.012872,0.999987,-0.004353,-0.000017,-0.002807,0.707234,-0.466802,-0.230560,-0.478287
62559,NaN,10.129514,0.736211,-0.946336,4.925959,-5.428180,-2.719460,-0.823865,-0.141375,-0.705070,-0.239014,0.487305,-0.107422,0.101327,0.006966,-0.009421,0.999985,-0.004119,-0.000707,-0.003525,0.703361,-0.469294,-0.230839,-0.481414
62560,NaN,9.546338,0.247666,-0.316463,4.251363,-4.644996,-2.626355,-0.731973,-0.291858,-0.821960,-0.243164,0.487305,-0.107422,0.095477,0.002073,-0.003033,0.999984,-0.003660,-0.001459,-0.004110,0.699308,-0.471627,-0.232046,-0.484448
62561,NaN,9.311326,0.175235,0.357938,4.105053,-3.923362,-2.422516,-0.631197,-0.443999,-0.943518,-0.247559,0.489502,-0.105469,0.093112,0.001325,0.003781,0.999981,-0.003156,-0.002220,-0.004718,0.694894,-0.473871,-0.234426,-0.487455
62562,NaN,9.432382,0.161859,1.008127,4.156143,-3.366560,-1.976610,-0.556702,-0.577394,-1.065470,-0.255859,0.485107,-0.103516,0.094301,0.001145,0.010350,0.999978,-0.002783,-0.002887,-0.005327,0.690278,-0.475966,-0.237612,-0.490422
62563,NaN,9.857483,0.161916,1.448525,4.301050,-3.113042,-1.380432,-0.477751,-0.706248,-1.187264,-0.264160,0.483154,-0.103516,0.098530,0.001069,0.014830,0.999973,-0.002389,-0.003531,-0.005936,0.685245,-0.477987,-0.241852,-0.493432
62564,NaN,10.394936,0.080134,1.695116,4.373605,-3.069307,-0.736150,-0.379303,-0.816371,-1.275796,-0.274658,0.480957,-0.099365,0.103881,0.000171,0.017375,0.999970,-0.001896,-0.004082,-0.006379,0.680174,-0.479757,-0.246773,-0.496286
62565,NaN,10.825403,0.098324,1.898464,4.467414,-2.989818,-0.226033,-0.261586,-0.901421,-1.344600,-0.283203,0.483154,-0.093262,0.108170,0.000281,0.019472,0.999966,-0.001308,-0.004507,-0.006723,0.674936,-0.481267,-0.252579,-0.499047
62566,NaN,10.956285,0.241309,2.009836,4.537769,-2.847156,-0.043482,-0.116311,-0.962637,-1.393226,-0.291504,0.476807,-0.091064,0.109478,0.001662,0.020624,0.999964,-0.000582,-0.004813,-0.006966,0.669930,-0.482298,-0.258899,-0.501551
62567,NaN,10.848335,0.392327,2.049600,4.508059,-2.658222,-0.083896,0.037963,-1.011655,-1.425554,-0.297607,0.472656,-0.093262,0.108402,0.003146,0.021045,0.999962,0.000190,-0.005058,-0.007128,0.664961,-0.482896,-0.265999,-0.503867
62568,NaN,10.487083,0.628416,2.066504,4.467796,-2.384803,-0.379093,0.192373,-1.045282,-1.450910,-0.303955,0.468262,-0.093018,0.104803,0.005503,0.021218,0.999960,0.000962,-0.005226,-0.007254,0.660343,-0.482954,-0.273470,-0.505882
62569,NaN,10.015033,0.843494,2.026874,4.365626,-2.119829,-0.781342,0.323225,-1.083526,-1.478011,-0.312256,0.464111,-0.097168,0.100097,0.007662,0.020824,0.999957,0.001616,-0.005418,-0.007390,0.655715,-0.482631,-0.281624,-0.507733
