// Start Time: Unknown
// Update Rate: 100.0Hz
// Filter Profile: human (46.1)
// Firmware Version: 4.4.0
PacketCounter,SampleTimeFine,Acc_X,Acc_Y,Acc_Z,FreeAcc_X,FreeAcc_Y,FreeAcc_Z,Gyr_X,Gyr_Y,Gyr_Z,Mag_X,Mag_Y,Mag_Z,VelInc_X,VelInc_Y,VelInc_Z,OriInc_q0,OriInc_q1,OriInc_q2,OriInc_q3,Quat_q0,Quat_q1,Quat_q2,Quat_q3
54816,NaN,21.337553,-0.477255,-9.100804,-0.000000,0.000000,36.590039,0.291965,0.147513,1.497497,-0.600098,0.788818,-0.073242,0.426556,-0.002624,-0.182660,0.999883,0.002920,0.001475,0.014974,0.452365,-0.480125,-0.682862,-0.313921
54817,NaN,19.659069,-2.929815,-10.866571,0.000000,-0.000000,12.839958,0.482968,0.077759,0.657449,-0.587402,0.797363,-0.086182,0.196643,-0.028389,-0.108811,0.999992,0.002415,0.000389,0.003287,0.456635,-0.488523,-0.708180,-0.226518
54818,NaN,17.833466,-3.356629,-11.418614,-1.362686,-3.550665,11.287535,0.486914,0.196523,0.090167,-0.594238,0.810303,-0.092773,0.178237,-0.033208,-0.114442,0.999996,0.002435,0.000983,0.000451,0.454025,-0.481218,-0.692428,-0.287808
54819,NaN,15.390302,-3.809573,-11.325654,-1.469619,-4.685603,9.042799,0.345450,0.310564,-0.478111,-0.598389,0.805908,-0.099365,0.153635,-0.038267,-0.113561,0.999994,0.001727,0.001553,-0.002391,0.455241,-0.478329,-0.693367,-0.288443
54820,NaN,13.320218,-4.248694,-10.624613,-1.850623,-5.176644,6.864747,0.126771,0.475904,-1.123423,-0.611084,0.799561,-0.107910,0.132708,-0.043166,-0.106590,0.999981,0.000634,0.002380,-0.005617,0.456270,-0.473504,-0.695475,-0.289701
54821,NaN,11.602551,-3.714220,-9.771927,-1.558239,-5.115419,4.860520,-0.148390,0.726187,-1.854899,-0.625977,0.797607,-0.107910,0.115318,-0.038287,-0.098111,0.999950,-0.000742,0.003631,-0.009274,0.455734,-0.466317,-0.697960,-0.296153
54822,NaN,9.163271,-3.744174,-9.325468,-1.453039,-5.696688,2.450050,-0.587535,0.951526,-2.605952,-0.649170,0.782471,-0.112061,0.090687,-0.038902,-0.093575,0.999899,-0.002938,0.004757,-0.013029,0.452745,-0.457843,-0.705465,-0.296178
54823,NaN,7.316044,-5.741036,-9.143757,-3.239616,-7.311380,0.489045,-0.652075,1.163719,-3.324405,-0.678955,0.771973,-0.116211,0.071657,-0.058908,-0.091667,0.999840,-0.003260,0.005818,-0.016621,0.450361,-0.445797,-0.709362,-0.308619
54824,NaN,5.573917,-4.464618,-8.379277,-1.933332,-6.652015,-1.256297,-0.937247,1.349747,-4.000114,-0.712646,0.750488,-0.116211,0.054260,-0.046135,-0.083948,0.999766,-0.004686,0.006748,-0.019999,0.443502,-0.433715,-0.726112,-0.296578
54825,NaN,5.316234,-3.750320,-7.944567,-1.605039,-6.350936,-1.905958,-1.150090,1.562734,-4.516695,-0.752441,0.718506,-0.124512,0.051669,-0.039139,-0.079631,0.999698,-0.005750,0.007813,-0.022581,0.439850,-0.417421,-0.730516,-0.314067
54826,NaN,4.975998,-3.308110,-7.131264,-1.286153,-5.348747,-2.310828,-1.535320,1.732404,-5.029036,-0.794434,0.688721,-0.126465,0.048280,-0.034856,-0.071472,0.999617,-0.007676,0.008661,-0.025142,0.430355,-0.400817,-0.754834,-0.290458
54827,NaN,4.658347,-1.760767,-6.604488,-0.299193,-4.572532,-2.927449,-1.734179,1.864770,-5.482064,-0.842529,0.647949,-0.128174,0.045450,-0.019438,-0.066309,0.999543,-0.008670,0.009322,-0.027406,0.425760,-0.380970,-0.758944,-0.312400
54828,NaN,4.740026,0.858973,-5.459448,1.379478,-1.897793,-2.921135,-1.913823,1.933854,-5.784130,-0.888184,0.603027,-0.132080,0.047081,0.006699,-0.055121,0.999489,-0.009567,0.009668,-0.028916,0.416811,-0.358311,-0.784674,-0.286650
54829,NaN,4.943972,1.248729,-5.213664,1.248201,-1.752289,-2.845621,-2.298744,1.891450,-6.058393,-0.935547,0.543213,-0.131348,0.049279,0.010389,-0.052731,0.999430,-0.011492,0.009455,-0.030286,0.411194,-0.336421,-0.787844,-0.311515
54830,NaN,5.105251,0.620227,-5.847913,0.826643,-2.371075,-2.442454,-2.689821,1.813665,-6.349433,-0.974121,0.479004,-0.141357,0.050665,0.003798,-0.059002,0.999365,-0.013446,0.009066,-0.031740,0.401289,-0.311967,-0.807134,-0.300297
54831,NaN,5.391464,-1.115618,-7.345062,-0.201892,-4.906456,-2.059145,-2.849078,1.709837,-6.729177,-1.010498,0.408447,-0.148926,0.052846,-0.013996,-0.073720,0.999296,-0.014242,0.008547,-0.033638,0.393360,-0.287746,-0.809353,-0.327746
54832,NaN,5.735232,-2.291301,-8.364230,-0.764289,-6.304408,-1.582613,-2.429271,1.658348,-7.204740,-1.041992,0.326904,-0.160889,0.055759,-0.025959,-0.083806,0.999243,-0.012143,0.008290,-0.036015,0.384077,-0.257481,-0.827255,-0.319121
54833,NaN,6.156708,-2.759051,-8.385577,-1.517471,-7.058068,-1.833144,-1.886368,1.661108,-7.618289,-1.064453,0.232666,-0.172363,0.059740,-0.030682,-0.084077,0.999196,-0.009429,0.008303,-0.038081,0.376056,-0.226742,-0.830196,-0.343429
54834,NaN,5.101602,-5.522448,-9.450134,-1.721533,-9.866220,-3.069564,-1.631670,1.375821,-7.950981,-1.078369,0.136475,-0.186035,0.048098,-0.057946,-0.094374,0.999153,-0.008156,0.006877,-0.039744,0.369090,-0.190296,-0.849222,-0.326164
54835,NaN,6.911856,-9.749007,-8.853572,-5.465644,-12.798087,-4.574676,-1.061546,1.072312,-8.132033,-1.083252,0.031494,-0.203857,0.064594,-0.100648,-0.088361,0.999145,-0.005306,0.005360,-0.040649,0.359058,-0.155824,-0.852522,-0.346414
54836,NaN,8.968436,-12.492938,-9.420086,-6.744356,-15.508503,-3.560131,-0.656065,0.753172,-8.112424,-1.069580,-0.052246,-0.215332,0.084159,-0.128727,-0.094107,0.999165,-0.003279,0.003765,-0.040551,0.357488,-0.115943,-0.873007,-0.310836
54837,NaN,12.490912,-16.067070,-10.094350,-9.934644,-19.463341,-3.622032,-0.217632,0.453214,-7.857282,-1.057373,-0.150879,-0.226562,0.118240,-0.165514,-0.101038,0.999225,-0.001088,0.002265,-0.039276,0.346854,-0.081249,-0.875736,-0.325848
54838,NaN,15.302780,-21.296970,-9.890753,-11.358335,-24.539905,-2.463423,0.171687,0.185134,-7.595432,-1.030762,-0.238770,-0.227295,0.144707,-0.218486,-0.099230,0.999278,0.000858,0.000925,-0.037968,0.357319,-0.042072,-0.894169,-0.266486
54839,NaN,16.710719,-24.400728,-8.586778,-12.990957,-27.538409,-5.242837,0.840143,0.060910,-7.149537,-1.008789,-0.311523,-0.228271,0.158228,-0.249406,-0.086957,0.999352,0.004200,0.000304,-0.035740,0.348013,-0.008505,-0.896104,-0.275342
54840,NaN,17.342203,-26.040797,-7.238009,-10.375861,-29.413939,-2.190605,1.117120,-0.087098,-6.450951,-0.974365,-0.373779,-0.231445,0.164946,-0.265410,-0.073780,0.999464,0.005585,-0.000435,-0.032249,0.375548,0.028049,-0.907389,-0.186604
54841,NaN,18.656128,-28.506488,-8.302953,-9.557548,-32.989713,-2.765192,1.035921,-0.225820,-5.460758,-0.946777,-0.427490,-0.224121,0.178790,-0.289583,-0.084317,0.999613,0.005179,-0.001129,-0.027300,0.369139,0.054544,-0.907663,-0.192117
54842,NaN,17.993626,-30.531323,-10.213327,-2.106261,-34.247575,3.705484,0.934038,-0.191983,-4.154204,-0.921875,-0.463867,-0.221191,0.173649,-0.308483,-0.103400,0.999773,0.004670,-0.000960,-0.020769,0.408321,0.082315,-0.905312,-0.083115
54843,NaN,15.701657,-30.577085,-7.479969,-1.835629,-33.877869,-0.522922,0.284683,-0.275588,-2.759260,-0.910400,-0.481201,-0.220947,0.152883,-0.307792,-0.075024,0.999903,0.001423,-0.001378,-0.013796,0.405770,0.095263,-0.904770,-0.087564
54844,NaN,12.500710,-30.286900,-5.495382,3.639137,-30.722173,2.296949,-0.933571,-0.475695,-1.295687,-0.899414,-0.489746,-0.218506,0.123168,-0.303922,-0.053242,0.999965,-0.004668,-0.002378,-0.006478,0.442226,0.109386,-0.889753,0.028462
54845,NaN,9.657062,-33.310305,-5.694066,5.867548,-33.344481,-0.381681,-1.630260,-0.604195,0.154634,-0.895752,-0.472656,-0.225342,0.096994,-0.333476,-0.053931,0.999962,-0.008151,-0.003021,0.000773,0.440391,0.105175,-0.891372,0.021220
54846,NaN,7.679250,-35.553797,-5.049334,11.340342,-31.942585,4.313370,-1.718743,-0.746047,1.412740,-0.902832,-0.453369,-0.227783,0.079483,-0.355398,-0.047146,0.999931,-0.008594,-0.003730,0.007064,0.461281,0.108189,-0.869516,0.139489
54847,NaN,13.990330,-31.391008,-4.660315,5.296489,-28.661940,8.980330,-1.611361,-0.961726,2.662734,-0.912598,-0.418945,-0.219727,0.144283,-0.312367,-0.043395,0.999867,-0.008056,-0.004808,0.013313,0.456054,0.093553,-0.874182,0.138086
54848,NaN,10.253918,-28.156416,-0.491668,5.977077,-22.984523,8.464153,-1.436305,-0.835787,3.495220,-0.931152,-0.378174,-0.220459,0.107452,-0.279738,-0.002461,0.999813,-0.007181,-0.004179,0.017475,0.455945,0.090933,-0.847491,0.256133
54849,NaN,39.002405,-28.312183,1.107860,-13.017074,-20.829722,31.661469,-1.595228,-0.541495,5.214612,-0.948486,-0.318115,-0.223633,0.397190,-0.272722,0.014351,0.999625,-0.007975,-0.002707,0.026070,0.447527,0.065862,-0.852821,0.260919
54850,NaN,73.351517,-41.506240,18.961204,-39.736048,-25.985153,62.331060,-1.559058,0.047964,7.708258,-0.972900,-0.234619,-0.222900,0.748786,-0.384901,0.192513,0.999227,-0.007793,0.000240,0.038531,0.432748,0.043029,-0.819898,0.372350
54851,NaN,-11.122660,-20.516960,6.392553,10.024464,-21.939273,-7.956193,-4.567520,-1.716015,7.746058,-0.982178,-0.153076,-0.215576,-0.103782,-0.207768,0.067740,0.998953,-0.022830,-0.008577,0.038717,0.411829,0.004554,-0.832917,0.369628
54852,NaN,-1.035557,-3.757193,-9.437825,8.019066,4.401095,-5.278138,-2.980265,-1.768565,6.268342,-0.993164,-0.084473,-0.201660,-0.008311,-0.039255,-0.093881,0.999359,-0.014898,-0.008841,0.031335,0.386196,-0.009440,-0.798853,0.461084
54853,NaN,-12.506168,-3.567703,-22.255232,23.922769,9.380944,-7.833679,-2.796153,-2.610918,5.899591,-0.999756,-0.022461,-0.168213,-0.120962,-0.042408,-0.223588,0.999382,-0.013978,-0.013052,0.029492,0.361800,-0.032375,-0.809566,0.461146
54854,NaN,3.095245,-16.147787,-36.306479,22.521947,22.587323,14.073483,-3.294869,-3.344241,6.032542,-1.004150,0.041748,-0.145752,0.041955,-0.166268,-0.359711,0.999270,-0.016470,-0.016717,0.030155,0.317497,-0.041097,-0.794639,0.515805
54855,NaN,-2.199835,-36.732802,-6.026172,13.936346,-12.842443,22.296837,-0.329700,-1.893576,4.673771,-0.999512,0.091064,-0.125000,-0.012839,-0.367798,-0.059806,0.999681,-0.001648,-0.009467,0.023366,0.297752,-0.055292,-0.797281,0.522139
54856,NaN,13.889547,-12.502397,6.216762,-12.079828,-4.440557,5.093369,1.390679,-1.185086,4.593894,-0.996582,0.131836,-0.112549,0.141356,-0.122228,0.062144,0.999694,0.006953,-0.005925,0.022967,0.259143,-0.060369,-0.778504,0.568447
54857,NaN,8.385375,-7.964550,2.672905,-7.042734,-1.696065,-0.410653,0.260222,-1.116351,4.188558,-0.991455,0.170166,-0.095947,0.085347,-0.077904,0.027101,0.999764,0.001301,-0.005581,0.020941,0.242911,-0.073148,-0.777763,0.575091
54858,NaN,5.602551,-8.791289,1.579122,-4.297871,-1.601246,-0.319510,-0.770200,-1.243532,3.620763,-0.984131,0.202393,-0.092285,0.057503,-0.086818,0.016481,0.999809,-0.003851,-0.006217,0.018103,0.212193,-0.077348,-0.764277,0.604046
54859,NaN,6.940044,-11.315166,-3.387464,-3.501295,2.690287,3.154718,-1.272843,-1.305223,3.277962,-0.974609,0.236572,-0.073486,0.071461,-0.112202,-0.032697,0.999824,-0.006364,-0.006526,0.016389,0.196776,-0.087269,-0.768104,0.603059
54860,NaN,8.764051,-10.671455,-7.610023,-4.186382,7.836532,3.212132,-0.466709,-1.190530,2.775741,-0.968994,0.264404,-0.062988,0.089562,-0.105657,-0.075324,0.999883,-0.002333,-0.005952,0.013878,0.172634,-0.088816,-0.756247,0.624819
54861,NaN,8.662761,-5.506351,-4.250331,-6.099313,5.791961,-2.555104,-0.395092,-1.256770,2.478085,-0.963135,0.279297,-0.046143,0.087566,-0.054065,-0.041848,0.999902,-0.001975,-0.006284,0.012390,0.159947,-0.094593,-0.757391,0.625962
54862,NaN,10.909281,-13.068309,-5.957160,-7.535740,6.993311,5.005266,-0.044901,-1.169001,2.074702,-0.951172,0.300781,-0.041992,0.110786,-0.129553,-0.058898,0.999929,-0.000224,-0.005845,0.010373,0.142814,-0.094026,-0.747880,0.641435
54863,NaN,10.618095,-8.455291,-3.138737,-8.690544,5.023967,-0.152705,0.329515,-1.031947,1.753389,-0.953857,0.320068,-0.029541,0.107077,-0.083566,-0.030975,0.999947,0.001648,-0.005160,0.008767,0.133478,-0.097033,-0.746695,0.644371
54864,NaN,13.738494,-9.626131,-6.656385,-10.698873,9.272142,1.379662,0.317294,-0.940781,1.521208,-0.945801,0.330811,-0.023193,0.138423,-0.095106,-0.066066,0.999959,0.001586,-0.004704,0.007606,0.123483,-0.093888,-0.738176,0.656532
54865,NaN,18.876790,-8.232508,-11.002940,-14.522316,15.104049,0.489206,0.814933,-0.816452,1.291889,-0.939697,0.343506,-0.019043,0.189740,-0.080654,-0.109587,0.999963,0.004075,-0.004082,0.006459,0.116606,-0.095469,-0.735370,0.660696
54866,NaN,28.415768,-10.258589,-2.187838,-26.279146,9.286699,2.045989,0.991387,-0.583498,1.382215,-0.940430,0.362793,-0.017334,0.284920,-0.100511,-0.021550,0.999960,0.004957,-0.002917,0.006911,0.113860,-0.090044,-0.727166,0.670938
54867,NaN,30.596234,-5.520663,3.453686,-30.220596,4.930179,-3.415217,1.035414,-0.316150,1.543145,-0.927979,0.373535,-0.017334,0.306322,-0.053024,0.034743,0.999956,0.005177,-0.001581,0.007716,0.107994,-0.094001,-0.723145,0.675694
54868,NaN,32.466117,-4.110650,3.196543,-31.908554,5.486301,-4.078685,0.223384,-0.165143,1.852991,-0.915771,0.397217,-0.019775,0.324997,-0.038132,0.032190,0.999956,0.001117,-0.000826,0.009265,0.110702,-0.083032,-0.716734,0.683478
54869,NaN,33.441598,-2.762670,0.691111,-32.294625,8.261219,-5.911278,0.178571,0.008300,2.040083,-0.909912,0.414307,-0.022217,0.334675,-0.024220,0.006875,0.999948,0.000893,0.000041,0.010200,0.103828,-0.090268,-0.715234,0.685209
54870,NaN,31.408139,3.483063,-1.289752,-30.173324,9.363013,-11.272567,0.381093,0.095386,2.165579,-0.906250,0.435791,-0.022461,0.313673,0.038253,-0.012976,0.999939,0.001905,0.000477,0.010828,0.109222,-0.073545,-0.708297,0.693526
54871,NaN,28.167200,5.301525,-3.073011,-26.614158,10.288975,-13.902726,0.611950,-0.027607,2.221306,-0.885498,0.454834,-0.029053,0.281064,0.056233,-0.030523,0.999934,0.003060,-0.000138,0.011106,0.101639,-0.080977,-0.705325,0.696871
54872,NaN,22.355371,6.165453,-3.960281,-21.229370,9.072637,-14.333658,1.471360,-0.298357,1.834192,-0.877441,0.469971,-0.035645,0.223032,0.063989,-0.038805,0.999930,0.007357,-0.001492,0.009171,0.106594,-0.057980,-0.696426,0.707296
54873,NaN,16.879985,6.358649,-2.991351,-16.152698,6.626841,-15.241898,2.767281,-0.619308,1.187038,-0.871338,0.482910,-0.044434,0.168507,0.064988,-0.028499,0.999882,0.013836,-0.003096,0.005935,0.101029,-0.058442,-0.686543,0.717661
54874,NaN,11.906673,6.892427,-1.275517,-12.568512,2.257564,-15.087756,3.480996,-0.834838,0.650764,-0.873779,0.489258,-0.061768,0.118890,0.069514,-0.011052,0.999835,0.017404,-0.004174,0.003254,0.085820,0.011857,-0.676364,0.731455
54875,NaN,10.444863,6.476865,2.657881,-11.457383,-2.101305,-14.546990,3.561909,-0.777530,0.327541,-0.864990,0.489258,-0.072266,0.104236,0.064448,0.028134,0.999833,0.017809,-0.003887,0.001638,0.081767,0.015120,-0.663577,0.743472
54876,NaN,15.488578,-4.067750,-2.188813,-14.383888,4.036383,-3.644735,2.132861,-0.522739,0.478144,-0.865234,0.495850,-0.076660,0.155039,-0.040073,-0.021913,0.999937,0.010664,-0.002614,0.002391,0.084858,0.031561,-0.653483,0.751507
54877,NaN,18.713181,-0.160676,-5.369309,-18.069459,6.902675,-7.603833,1.517021,-0.190512,1.116382,-0.854736,0.506348,-0.076904,0.187186,-0.000156,-0.053520,0.999955,0.007585,-0.000953,0.005582,0.079797,0.029271,-0.648010,0.756874
54878,NaN,17.910252,2.505385,-3.667844,-17.887337,4.532162,-9.849510,0.709357,0.128682,1.616309,-0.842529,0.521484,-0.087646,0.178868,0.026630,-0.036701,0.999961,0.003547,0.000643,0.008081,0.079449,0.037717,-0.643850,0.760081
54879,NaN,18.344170,5.583463,-1.291718,-18.914339,1.718859,-12.750258,-0.707643,0.260295,2.291880,-0.821777,0.547119,-0.087891,0.182769,0.057885,-0.013358,0.999927,-0.003538,0.001301,0.011459,0.071705,0.029066,-0.646820,0.758707
54880,NaN,16.785541,0.768653,-0.237112,-16.679857,1.126177,-8.111139,-1.516620,0.210559,2.942373,-0.803711,0.581299,-0.079834,0.167716,0.010135,-0.002618,0.999862,-0.007583,0.001053,0.014711,0.066143,0.031489,-0.651590,0.755025
54881,NaN,15.848674,-4.158971,-1.099945,-15.162068,2.542985,-4.041718,-1.555428,-0.018166,3.627524,-0.785400,0.613525,-0.071533,0.159208,-0.038790,-0.010676,0.999805,-0.007777,-0.000091,0.018136,0.052623,0.019220,-0.657912,0.751009
54882,NaN,18.646704,-3.529274,-3.275627,-18.080278,4.411516,-4.865309,-0.890991,-0.454986,4.195786,-0.754395,0.649902,-0.067627,0.187228,-0.031514,-0.032185,0.999767,-0.004455,-0.002275,0.020977,0.039455,0.019347,-0.660895,0.749191
54883,NaN,21.116837,5.173839,-1.685659,-21.359528,1.595325,-13.896052,0.200803,-0.754864,4.507382,-0.723145,0.679688,-0.061523,0.209992,0.056496,-0.016007,0.999738,0.001004,-0.003774,0.022535,0.020049,0.007316,-0.660554,0.750475
54884,NaN,21.562915,10.194503,-0.664504,-21.948398,-0.635853,-19.145063,0.961294,-0.790016,4.415661,-0.689941,0.716064,-0.070557,0.213331,0.106700,-0.005294,0.999737,0.004806,-0.003950,0.022076,0.004320,0.008276,-0.656848,0.753965
54885,NaN,21.647573,10.661179,-0.214726,-21.598880,-1.599392,-20.449871,1.712441,-0.941364,4.355683,-0.656494,0.739746,-0.077148,0.214090,0.111299,-0.000196,0.999715,0.008561,-0.004706,0.021776,-0.015262,-0.002444,-0.650406,0.759430
54886,NaN,22.413762,9.601133,1.396582,-22.077787,-3.856735,-19.513284,2.102897,-0.961119,4.343713,-0.627197,0.769531,-0.096680,0.221911,0.100686,0.016078,0.999697,0.010513,-0.004805,0.021716,-0.032006,-0.000103,-0.642200,0.765869
54887,NaN,21.806098,7.462572,-0.794970,-21.226929,-1.851754,-18.628264,2.527360,-0.965426,4.404902,-0.587158,0.788818,-0.111816,0.216378,0.079487,-0.005918,0.999666,0.012635,-0.004827,0.022022,-0.051959,-0.010954,-0.632151,0.773024
54888,NaN,20.971783,6.079182,-2.443718,-20.403192,-0.764668,-17.922341,3.149185,-1.023826,4.413739,-0.551514,0.816650,-0.131348,0.208421,0.065764,-0.022358,0.999619,0.015744,-0.005118,0.022066,-0.069948,-0.008359,-0.619611,0.781741
54889,NaN,20.501584,6.764746,-2.493296,-19.456929,-1.436570,-19.381102,3.533304,-1.068786,4.333823,-0.521973,0.838135,-0.159424,0.203605,0.072483,-0.022590,0.999595,0.017664,-0.005343,0.021666,-0.090019,-0.018838,-0.604996,0.790899
54890,NaN,22.277354,7.791311,-1.355043,-20.674118,-3.971705,-20.560936,3.628243,-1.028212,3.996265,-0.489746,0.844482,-0.182861,0.221215,0.082558,-0.010941,0.999623,0.018139,-0.005140,0.019979,-0.107174,-0.015030,-0.590405,0.799819
54891,NaN,25.061120,8.015357,-2.371715,-22.948759,-4.198533,-22.204334,3.207546,-0.938451,3.571440,-0.455811,0.855225,-0.202148,0.249226,0.084966,-0.021208,0.999701,0.016036,-0.004692,0.017855,-0.123951,-0.023533,-0.576630,0.807205
54892,NaN,24.824063,7.905130,-3.184074,-22.569603,-4.393896,-22.464939,2.936360,-0.837735,3.314661,-0.434326,0.863770,-0.225586,0.247007,0.083598,-0.029599,0.999746,0.014681,-0.004188,0.016572,-0.138621,-0.017677,-0.564768,0.813332
54893,NaN,19.254579,7.986642,-3.117139,-16.721765,-3.904667,-22.032567,2.689068,-0.612455,3.113834,-0.410889,0.868164,-0.253418,0.191359,0.083256,-0.029480,0.999784,0.013444,-0.003062,0.015568,-0.152744,-0.025839,-0.553011,0.818646
54894,NaN,14.289769,7.200871,-1.919381,-11.861489,-4.227607,-19.869792,2.238033,-0.503359,2.571979,-0.389404,0.870361,-0.259766,0.142001,0.074045,-0.018015,0.999852,0.011190,-0.002517,0.012859,-0.164109,-0.018709,-0.544270,0.822489
54895,NaN,12.422086,5.173700,-1.622837,-10.395753,-3.553915,-17.749948,1.312067,-0.414695,1.812922,-0.382812,0.865967,-0.266113,0.123777,0.052964,-0.015627,0.999935,0.006560,-0.002073,0.009064,-0.172558,-0.023012,-0.538329,0.824558
54896,NaN,10.308556,3.689637,-2.428549,-8.975992,-2.017564,-16.226496,0.616802,-0.333202,1.072929,-0.371826,0.861816,-0.268311,0.102926,0.037523,-0.023999,0.999979,0.003084,-0.001666,0.005365,-0.177808,-0.012216,-0.536489,0.824872
54897,NaN,6.201541,1.092899,-3.080768,-5.996319,0.596425,-13.395013,0.069683,-0.246022,0.262708,-0.375977,0.855225,-0.261719,0.062039,0.011021,-0.030728,0.999998,0.000348,-0.001230,0.001314,-0.179546,-0.011967,-0.535965,0.824840
54898,NaN,1.236653,-1.929348,-3.478055,-2.394798,3.407851,-9.807469,-0.173069,-0.187459,-0.817406,-0.384277,0.846680,-0.259521,0.012320,-0.019374,-0.034752,0.999991,-0.000865,-0.000937,-0.004087,-0.176718,0.002692,-0.537528,0.824516
54899,NaN,-2.641935,-3.670231,-4.087866,0.663319,5.714173,-7.795573,-0.512925,-0.054113,-2.023889,-0.398926,0.831787,-0.252930,-0.026779,-0.036537,-0.040792,0.999945,-0.002565,-0.000271,-0.010119,-0.168501,0.008807,-0.539537,0.824881
54900,NaN,-3.324816,-1.643192,-4.001971,1.895193,5.108198,-9.522686,-0.700865,0.022026,-3.119992,-0.428467,0.816650,-0.239990,-0.033505,-0.016051,-0.039959,0.999872,-0.003504,0.000110,-0.015599,-0.155480,0.027340,-0.543058,0.824722
54901,NaN,-2.388737,0.159819,-3.759719,1.505853,3.950646,-11.223938,-1.056062,0.078101,-4.034752,-0.462158,0.793213,-0.233398,-0.023866,0.001881,-0.037597,0.999783,-0.005280,0.000390,-0.020172,-0.138451,0.038788,-0.546802,0.824824
54902,NaN,-1.522915,-0.061389,-4.014363,0.536859,4.013443,-11.241729,-1.319824,0.132299,-4.930147,-0.503906,0.759033,-0.222412,-0.015269,-0.000503,-0.040130,0.999674,-0.006598,0.000661,-0.024648,-0.117357,0.060410,-0.551755,0.823495
54903,NaN,-1.313586,-0.683663,-3.979216,0.295278,4.146327,-10.677335,-1.331869,0.200070,-5.712677,-0.541992,0.737549,-0.211426,-0.013369,-0.006722,-0.039734,0.999569,-0.006658,0.001000,-0.028559,-0.092832,0.076099,-0.555391,0.822880
54904,NaN,0.016328,-0.949315,-3.558556,-0.890116,3.550545,-10.219571,-1.237133,0.204890,-6.341120,-0.585693,0.694824,-0.204590,-0.000179,-0.009711,-0.035526,0.999478,-0.006185,0.001024,-0.031700,-0.065554,0.099890,-0.558155,0.821089
54905,NaN,1.948060,0.393042,-2.742646,-2.553419,1.939431,-10.902543,-1.278150,0.227375,-6.834405,-0.618652,0.654053,-0.193604,0.019564,0.003087,-0.027470,0.999395,-0.006389,0.001137,-0.034165,-0.036186,0.118385,-0.559725,0.819380
54906,NaN,4.304338,1.261249,-2.051646,-4.788120,0.611256,-10.821243,-1.418384,0.293108,-7.264773,-0.668701,0.609131,-0.182373,0.043430,0.010893,-0.020661,0.999314,-0.007090,0.001465,-0.036316,-0.004668,0.143409,-0.560873,0.815373
54907,NaN,6.464869,1.644812,-1.590695,-6.847593,-0.138276,-10.126610,-1.368255,0.421188,-7.554737,-0.705566,0.555664,-0.183838,0.065172,0.013883,-0.016145,0.999261,-0.006840,0.002105,-0.037764,0.028292,0.162800,-0.560629,0.811413
54908,NaN,7.938051,2.668110,-0.613818,-8.273261,-1.417881,-9.689684,-1.413562,0.606213,-7.684081,-0.746826,0.500000,-0.172607,0.080306,0.023562,-0.006555,0.999232,-0.007066,0.003030,-0.038411,0.062342,0.187143,-0.559077,0.805310
54909,NaN,8.376996,2.810262,-0.652890,-8.745835,-1.177792,-9.051780,-2.014668,0.652860,-7.818514,-0.777100,0.446533,-0.171875,0.084758,0.024732,-0.007065,0.999180,-0.010071,0.003263,-0.039082,0.097475,0.205584,-0.559210,0.797194
54910,NaN,8.937742,-0.250248,-1.839314,-8.121415,1.238793,-5.839323,-2.617603,0.633377,-8.044645,-0.811768,0.384277,-0.156250,0.089115,-0.006334,-0.018609,0.999101,-0.013084,0.003166,-0.040211,0.134011,0.229859,-0.559396,0.785036
54911,NaN,9.541873,-1.902488,-2.464852,-7.537066,2.668500,-3.750513,-2.679653,0.739808,-8.310104,-0.835449,0.324463,-0.155518,0.094418,-0.023294,-0.024706,0.999040,-0.013394,0.003698,-0.041537,0.171640,0.248177,-0.559329,0.772074
54912,NaN,10.641009,-2.215401,-2.573463,-7.576816,3.116520,-2.226082,-2.555708,0.860162,-8.618496,-0.850098,0.253662,-0.147949,0.105204,-0.027036,-0.025864,0.998981,-0.012774,0.004299,-0.043078,0.210439,0.272327,-0.555521,0.756935
54913,NaN,12.439389,-0.980058,-2.055375,-8.847634,2.665862,-1.185791,-2.457202,1.050587,-8.863611,-0.873535,0.183105,-0.142822,0.123680,-0.015550,-0.021037,0.998929,-0.012282,0.005251,-0.044302,0.250011,0.290088,-0.551050,0.741409
54914,NaN,13.552580,-5.042116,-6.099517,-6.289844,7.993269,2.131210,-2.988255,0.736180,-9.101154,-0.881836,0.112305,-0.144043,0.132795,-0.057415,-0.060664,0.998846,-0.014936,0.003679,-0.045488,0.289960,0.314232,-0.545157,0.721100
54915,NaN,16.984569,-12.462645,-6.772399,-1.182875,10.872410,9.414596,-2.077051,0.635668,-9.201457,-0.885742,0.037354,-0.142822,0.163642,-0.132950,-0.066899,0.998883,-0.010381,0.003177,-0.045990,0.327796,0.333652,-0.536659,0.702299
54916,NaN,17.848989,-13.998930,-7.531577,1.717732,12.135047,10.698111,-0.853725,0.593302,-9.049015,-0.887451,-0.035645,-0.145996,0.171684,-0.148183,-0.075211,0.998963,-0.004267,0.002965,-0.045229,0.362167,0.359642,-0.520802,0.684294
54917,NaN,18.547842,-16.870173,-9.385657,5.743743,14.759046,11.762989,-0.023499,0.335167,-8.489344,-0.882568,-0.110596,-0.142822,0.177941,-0.176374,-0.094139,0.999098,-0.000117,0.001675,-0.042434,0.391794,0.380230,-0.504542,0.668850
54918,NaN,20.820743,-22.057436,-10.263702,11.644876,16.980886,14.701339,0.241035,-0.019659,-8.023719,-0.884521,-0.179199,-0.126709,0.199153,-0.228563,-0.102889,0.999195,0.001205,-0.000098,-0.040108,0.417304,0.405258,-0.486608,0.651794
54919,NaN,23.443401,-26.164323,-9.409464,16.897108,17.352270,17.308455,0.440315,-0.219117,-7.319052,-0.871826,-0.241455,-0.121338,0.224762,-0.269780,-0.094433,0.999327,0.002201,-0.001095,-0.036587,0.439448,0.424423,-0.470474,0.636714
54920,NaN,25.826836,-29.347098,-9.256216,21.486291,18.044970,18.930499,0.266685,-0.367840,-6.390125,-0.863281,-0.299316,-0.116211,0.248892,-0.301401,-0.092497,0.999487,0.001333,-0.001839,-0.031945,0.457157,0.443884,-0.456768,0.620756
54921,NaN,26.579740,-34.651837,-9.366661,28.295170,19.093164,18.986238,0.201042,-0.269543,-5.231700,-0.855225,-0.348633,-0.111084,0.256742,-0.353220,-0.093669,0.999656,0.001005,-0.001348,-0.026156,0.472176,0.456976,-0.444991,0.608446
54922,NaN,22.302294,-37.195415,-9.850124,32.604221,18.985436,13.729045,0.132297,-0.138738,-3.796799,-0.845459,-0.383057,-0.104248,0.215978,-0.376034,-0.098598,0.999819,0.000661,-0.000694,-0.018983,0.481650,0.466945,-0.438541,0.598045
54923,NaN,16.798070,-37.150337,-8.931633,33.964109,17.009842,7.482831,-0.340890,-0.202682,-2.160959,-0.835938,-0.404297,-0.110352,0.164043,-0.373441,-0.088513,0.999940,-0.001704,-0.001013,-0.010805,0.488435,0.471441,-0.434975,0.591583
54924,NaN,11.340826,-35.250595,-8.673771,33.102432,14.539443,1.988367,-1.173632,-0.391197,-0.547228,-0.842041,-0.412842,-0.107910,0.112609,-0.353315,-0.084445,0.999977,-0.005868,-0.001956,-0.002736,0.494319,0.466564,-0.446033,0.582255
54925,NaN,7.148329,-37.486026,-8.557396,35.833068,13.438813,-1.759434,-1.931731,-0.725548,0.905850,-0.846680,-0.408691,-0.114502,0.073484,-0.375332,-0.081686,0.999937,-0.009658,-0.003628,0.004529,0.494541,0.461853,-0.455533,0.578456
54926,NaN,8.095217,-35.992092,-8.844493,34.449838,12.289103,0.249656,-2.062087,-1.015674,2.251530,-0.860107,-0.391602,-0.108398,0.085439,-0.359859,-0.084308,0.999871,-0.010310,-0.005078,0.011257,0.492049,0.448333,-0.478197,0.572899
54927,NaN,9.188053,-29.963328,-7.684491,28.228546,10.321662,1.923756,-1.906908,-1.205530,3.350354,-0.871826,-0.365723,-0.104492,0.097340,-0.298744,-0.073418,0.999796,-0.009534,-0.006027,0.016751,0.483746,0.438994,-0.494035,0.573763
54928,NaN,11.778748,-23.524416,-6.137435,21.047770,7.894308,5.165735,-1.276801,-1.406671,4.091289,-0.883789,-0.329346,-0.096680,0.122992,-0.233145,-0.059029,0.999746,-0.006383,-0.007033,0.020455,0.471621,0.422670,-0.518785,0.574269
54929,NaN,4.075894,-14.296361,-0.893435,13.066776,1.505791,-2.830236,-0.669414,-1.242712,4.148529,-0.895752,-0.297119,-0.084229,0.043765,-0.142105,-0.008192,0.999760,-0.003347,-0.006213,0.020741,0.457790,0.413799,-0.532278,0.579550
54930,NaN,44.435326,2.612994,-0.212027,-14.738145,4.039875,31.988956,-0.162958,-0.538768,5.253129,-0.907959,-0.252197,-0.084961,0.443466,0.037785,-0.000952,0.999651,-0.000815,-0.002694,0.026263,0.441202,0.393800,-0.552322,0.587540
54931,NaN,84.583650,-36.322090,41.671714,4.966812,-34.216799,85.114975,-0.031029,0.313262,6.965707,-0.931885,-0.183594,-0.079834,0.858448,-0.333400,0.415432,0.999392,-0.000155,0.001566,0.034821,0.421403,0.373341,-0.565098,0.603076
54932,NaN,-33.661317,-31.181236,-6.882224,42.443246,3.533547,-28.194523,-4.250602,-2.470984,6.407613,-0.936035,-0.129883,-0.063477,-0.325538,-0.323786,-0.066093,0.999185,-0.021247,-0.012352,0.032029,0.402613,0.347457,-0.599622,0.598022
54933,NaN,6.269843,-15.722660,-35.135655,13.562062,34.456771,2.409556,-3.079353,-3.112353,6.420739,-0.940430,-0.070068,-0.036377,0.073246,-0.160362,-0.347818,0.999245,-0.015393,-0.015558,0.032096,0.379137,0.331057,-0.625789,0.595856
54934,NaN,-15.269810,1.594277,-21.423842,8.821692,21.035060,-23.009005,-3.611351,-2.672771,5.410115,-0.946533,-0.020752,-0.013672,-0.150102,0.007963,-0.216448,0.999382,-0.018053,-0.013361,0.027045,0.358791,0.308873,-0.655133,0.588785
54935,NaN,4.372481,-29.018988,-9.314914,22.045993,5.725734,10.897728,-1.464655,-2.105928,5.097043,-0.941406,0.021973,0.004883,0.052073,-0.289603,-0.090508,0.999593,-0.007322,-0.010528,0.025482,0.339007,0.295626,-0.670825,0.589639
54936,NaN,13.600451,-26.611571,-1.266247,12.287359,-2.424696,17.348836,0.308010,-1.581398,4.320213,-0.934326,0.064941,0.017334,0.141806,-0.263075,-0.011963,0.999734,0.001540,-0.007906,0.021599,0.318510,0.280131,-0.683403,0.594171
54937,NaN,6.065302,-10.248954,4.426855,3.256723,-5.822325,0.999540,0.061520,-0.834765,3.938887,-0.930908,0.088379,0.023438,0.062470,-0.101285,0.044495,0.999797,0.000308,-0.004174,0.019693,0.303807,0.269195,-0.689927,0.599363
54938,NaN,8.415372,-3.954307,-0.542411,-2.936699,-0.109564,-0.975072,-0.586975,-1.187389,3.399893,-0.929932,0.120605,0.031494,0.084840,-0.038119,-0.004808,0.999834,-0.002935,-0.005937,0.016999,0.288672,0.254085,-0.701721,0.599747
54939,NaN,9.044967,-18.401050,-6.786488,6.937014,3.747522,10.293573,-0.508426,-1.052354,2.940120,-0.926514,0.141846,0.048340,0.093497,-0.182822,-0.066912,0.999875,-0.002542,-0.005262,0.014700,0.276774,0.246160,-0.708412,0.600794
54940,NaN,9.779127,-10.830361,-1.053219,0.064983,-0.873446,4.790738,0.456345,-1.055689,2.285465,-0.922852,0.165527,0.052246,0.099075,-0.107153,-0.010257,0.999918,0.002282,-0.005278,0.011427,0.264027,0.236763,-0.714294,0.603339
54941,NaN,11.888048,-7.754740,-7.595725,-3.288904,6.009298,4.754980,0.741838,-1.058696,1.882747,-0.919189,0.180420,0.056396,0.120003,-0.076140,-0.075608,0.999935,0.003709,-0.005293,0.009414,0.253672,0.234197,-0.715636,0.607180
54942,NaN,11.026541,-8.387960,-3.687896,-2.930381,2.017211,4.075488,0.450456,-1.004613,1.493447,-0.917725,0.199707,0.071045,0.111071,-0.082970,-0.036510,0.999957,0.002252,-0.005023,0.007467,0.243950,0.227944,-0.719855,0.608554
54943,NaN,15.724362,-9.409934,-11.164506,-5.679138,9.050554,8.795741,0.782080,-0.926036,1.123610,-0.911621,0.206055,0.077393,0.158283,-0.092776,-0.111278,0.999966,0.003910,-0.004630,0.005618,0.236300,0.227664,-0.719861,0.611663
54944,NaN,19.470496,-3.167809,-13.457589,-12.695878,12.034493,6.442058,0.853118,-0.841480,0.958025,-0.914062,0.218994,0.079346,0.195416,-0.030171,-0.133886,0.999971,0.004266,-0.004207,0.004790,0.228119,0.224712,-0.721376,0.614071
54945,NaN,35.253677,-8.519194,-5.464327,-22.764515,2.612710,18.826280,1.158939,-0.454307,1.062812,-0.903564,0.223145,0.081543,0.353105,-0.083001,-0.054327,0.999967,0.005795,-0.002272,0.005314,0.221908,0.223588,-0.719506,0.618931
54946,NaN,38.891639,-2.390749,2.559555,-30.091921,-4.645816,14.635263,1.321779,-0.179473,1.242300,-0.899902,0.244629,0.081055,0.389033,-0.021661,0.025797,0.999958,0.006609,-0.000897,0.006211,0.215575,0.219248,-0.718680,0.623664
54947,NaN,41.556535,-0.170673,3.702629,-33.915552,-5.581974,13.835328,0.637428,-0.042559,1.558310,-0.894043,0.257568,0.083252,0.415555,0.001413,0.037116,0.999965,0.003187,-0.000213,0.007791,0.209857,0.214460,-0.718421,0.627565
54948,NaN,38.296141,1.991056,1.556191,-32.727473,-3.051154,10.000217,1.003853,-0.112658,1.654542,-0.885986,0.274658,0.072266,0.382771,0.022998,0.015888,0.999953,0.005019,-0.000563,0.008273,0.203435,0.210448,-0.717802,0.631733
54949,NaN,32.937563,7.261775,-0.952959,-31.434010,0.156260,2.449891,2.230374,-0.469827,1.530233,-0.877441,0.279053,0.072266,0.328827,0.075229,-0.007927,0.999906,0.011152,-0.002349,0.007651,0.194551,0.208689,-0.712778,0.640739
54950,NaN,25.609340,10.027001,0.315430,-26.919443,-1.016380,-4.267087,3.813777,-0.828371,1.005832,-0.880371,0.300293,0.071777,0.255564,0.101458,0.006141,0.999797,0.019068,-0.004142,0.005029,0.184714,0.214448,-0.702134,0.653376
54951,NaN,20.341086,16.418206,6.715798,-25.714033,-7.517573,-13.069071,4.794703,-1.023027,0.228730,-0.874023,0.302490,0.059082,0.202864,0.162725,0.072110,0.999699,0.023971,-0.005115,0.001144,0.175180,0.221350,-0.687451,0.669124
54952,NaN,15.060684,16.007943,11.130736,-20.422665,-12.621191,-15.333901,5.154980,-0.906383,-0.227808,-0.873779,0.300537,0.046143,0.150268,0.156957,0.116062,0.999657,0.025772,-0.004531,-0.001139,0.167608,0.233993,-0.669833,0.684455
54953,NaN,11.874749,13.051712,7.832062,-16.090129,-9.737978,-14.162538,4.805799,-0.665506,-0.379833,-0.871826,0.302490,0.041748,0.118724,0.128354,0.081817,0.999704,0.024027,-0.003327,-0.001899,0.161008,0.241501,-0.653303,0.699248
54954,NaN,7.949915,-1.485126,-0.753367,-5.872140,0.151030,-4.202950,4.587483,-0.295708,0.100423,-0.867432,0.304688,0.031250,0.079518,-0.014635,-0.007753,0.999736,0.022935,-0.001478,0.000502,0.154707,0.250824,-0.636234,0.712994
54955,NaN,12.423627,-0.345566,-4.129269,-10.817629,2.883905,-3.017648,2.998076,0.127310,1.191695,-0.863770,0.322021,0.013672,0.124225,-0.002095,-0.041410,0.999870,0.014990,0.000637,0.005958,0.147085,0.248866,-0.626860,0.723518
54956,NaN,18.917333,0.557886,-5.201823,-17.023276,3.026847,-0.525074,1.231074,0.528241,2.336130,-0.860352,0.345459,0.017822,0.188950,0.008109,-0.052473,0.999909,0.006155,0.002641,0.011680,0.139237,0.245511,-0.623777,0.728862
54957,NaN,20.881753,4.854014,-4.970576,-21.038450,1.858740,-3.631804,-0.620984,0.768453,3.245078,-0.843750,0.366943,0.010986,0.207802,0.051761,-0.050663,0.999856,-0.003105,0.003842,0.016225,0.130552,0.232123,-0.629399,0.730022
54958,NaN,15.799642,4.809769,-2.929096,-16.418940,0.390184,-6.410125,-1.884524,0.808345,3.711648,-0.829834,0.401123,0.012695,0.156950,0.050734,-0.030397,0.999775,-0.009422,0.004041,0.018557,0.122358,0.221978,-0.638867,0.726363
54959,NaN,6.747796,-0.987755,-4.520327,-6.221099,3.868805,-6.169905,-2.982842,0.525479,4.373441,-0.811768,0.435303,0.018799,0.067563,-0.009075,-0.045241,0.999646,-0.014912,0.002627,0.021865,0.111424,0.204199,-0.654005,0.719836
54960,NaN,14.376545,-5.206968,-6.596882,-11.711941,5.491810,0.673305,-0.177595,0.402825,4.095838,-0.791504,0.467529,0.022705,0.144659,-0.049172,-0.066215,0.999788,-0.000888,0.002014,0.020478,0.098947,0.195151,-0.657639,0.720858
54961,NaN,17.702728,-7.563092,-6.972125,-14.347715,5.676489,3.643026,0.587018,-0.164853,4.252473,-0.770996,0.501709,0.022217,0.178636,-0.071639,-0.069789,0.999769,0.002935,-0.000824,0.021261,0.082485,0.182010,-0.659603,0.724564
54962,NaN,18.828575,1.682093,-3.846855,-18.594516,1.074886,-4.795596,1.059571,-0.618875,4.240930,-0.748291,0.529541,0.013428,0.187987,0.021011,-0.037783,0.999756,0.005297,-0.003094,0.021203,0.064884,0.176909,-0.659243,0.727937
54963,NaN,20.923500,5.555390,-1.653533,-21.561321,-2.116067,-8.420088,1.958879,-0.593361,4.313165,-0.721680,0.563721,0.010986,0.208017,0.060203,-0.015342,0.999715,0.009793,-0.002967,0.021564,0.045482,0.165440,-0.655934,0.735059
54964,NaN,22.155740,7.528129,-0.523835,-23.014196,-4.185488,-10.553423,2.122625,-0.431474,4.600145,-0.694580,0.593750,0.006348,0.219757,0.080396,-0.003928,0.999677,0.010612,-0.002157,0.022998,0.026219,0.159374,-0.651506,0.741250
54965,NaN,23.013544,10.732649,-0.287690,-24.369038,-5.385876,-14.492565,1.791972,-0.356332,4.911560,-0.663574,0.632324,-0.004883,0.227411,0.112951,-0.001475,0.999657,0.008959,-0.001781,0.024555,0.005423,0.144879,-0.648602,0.747192
54966,NaN,22.718975,11.266109,-1.131707,-24.057488,-5.144084,-16.056823,1.294495,-0.442116,5.053054,-0.632324,0.657959,-0.009277,0.224269,0.118420,-0.010065,0.999657,0.006472,-0.002210,0.025262,-0.014884,0.138071,-0.647012,0.749727
54967,NaN,22.014490,10.966643,-2.065988,-23.138105,-4.360915,-17.205102,1.025645,-0.581771,5.046959,-0.594482,0.687988,-0.009521,0.217341,0.115277,-0.019443,0.999664,0.005128,-0.002909,0.025232,-0.036383,0.123805,-0.646392,0.752015
54968,NaN,20.445501,10.266595,-2.894147,-21.383659,-3.630105,-17.638493,1.257620,-0.698662,4.908558,-0.560791,0.707031,-0.013916,0.201949,0.107819,-0.027566,0.999673,0.006287,-0.003493,0.024540,-0.056821,0.118946,-0.644370,0.753266
54969,NaN,19.296729,8.098258,-2.379010,-19.584089,-3.835211,-16.540571,1.742303,-0.865419,4.749470,-0.524902,0.726318,-0.020508,0.191067,0.085733,-0.022227,0.999671,0.008711,-0.004327,0.023745,-0.078509,0.106373,-0.640176,0.756767
54970,NaN,19.984876,7.963072,-0.943482,-19.510123,-5.916820,-16.737630,1.901605,-0.889784,4.445981,-0.493408,0.750000,-0.024902,0.198049,0.084126,-0.007765,0.999698,0.009507,-0.004448,0.022228,-0.098168,0.103564,-0.635091,0.759142
54971,NaN,23.421004,10.131003,-1.403205,-22.437042,-7.202663,-19.699796,1.690511,-0.761781,3.896222,-0.465820,0.760498,-0.027100,0.232225,0.105956,-0.012262,0.999767,0.008452,-0.003809,0.019480,-0.116223,0.093233,-0.630171,0.762026
54972,NaN,23.667824,11.494954,-3.002312,-22.670688,-6.598539,-21.801754,1.111076,-0.736057,3.343216,-0.438232,0.773438,-0.029297,0.234818,0.119046,-0.028503,0.999838,0.005555,-0.003680,0.016715,-0.130809,0.093701,-0.627379,0.761908
54973,NaN,19.357661,10.421689,-5.500009,-19.000912,-3.003998,-21.790979,1.066924,-0.740059,2.878966,-0.416992,0.779785,-0.031494,0.192247,0.107280,-0.053720,0.999875,0.005334,-0.003700,0.014394,-0.144577,0.086783,-0.624102,0.762931
54974,NaN,15.078390,8.845530,-5.833738,-15.058935,-1.402733,-20.342293,1.504824,-0.600336,2.277131,-0.397705,0.783936,-0.033691,0.149933,0.090599,-0.057210,0.999902,0.007524,-0.003002,0.011385,-0.154861,0.089628,-0.619373,0.764436
54975,NaN,11.758129,7.356460,-4.377002,-11.436707,-1.502355,-18.670827,1.469889,-0.387719,1.456263,-0.387207,0.790527,-0.044434,0.117124,0.074736,-0.042996,0.999945,0.007349,-0.001939,0.007281,-0.162273,0.085460,-0.614073,0.767644
54976,NaN,7.499716,5.462478,-4.293053,-7.695626,0.109351,-16.541666,0.874185,-0.269896,0.571482,-0.380371,0.781982,-0.041992,0.074898,0.055026,-0.042589,0.999985,0.004371,-0.001349,0.002857,-0.164874,0.092178,-0.611276,0.768545
54977,NaN,2.781932,3.656209,-4.483986,-3.619896,2.320729,-14.579616,0.257072,-0.232367,-0.559558,-0.386963,0.779785,-0.027100,0.027974,0.036542,-0.044760,0.999995,0.001285,-0.001162,-0.002798,-0.163546,0.094573,-0.609836,0.769681
54978,NaN,0.529614,1.070438,-4.869806,-2.099422,3.990181,-12.006342,-0.241678,-0.178052,-1.763444,-0.403564,0.762695,-0.022705,0.005433,0.010598,-0.048706,0.999960,-0.001208,-0.000890,-0.008817,-0.156484,0.107998,-0.610180,0.769109
54979,NaN,-1.534670,-0.591385,-4.757172,-0.328010,4.997690,-10.313743,-0.483844,0.065516,-2.976294,-0.424805,0.753906,-0.009766,-0.015449,-0.005800,-0.047553,0.999886,-0.002419,0.000328,-0.014881,-0.144555,0.117196,-0.610416,0.769910
54980,NaN,-3.759489,-0.450686,-4.341267,1.892581,5.402131,-10.458461,-0.698441,0.306085,-4.327566,-0.454102,0.730469,0.001221,-0.037749,-0.003843,-0.043341,0.999759,-0.003492,0.001530,-0.021636,-0.125935,0.135812,-0.610876,0.769757
54981,NaN,-1.562498,1.720063,-4.066208,-0.009811,3.848849,-12.480943,-0.742995,0.351639,-5.363152,-0.494141,0.707031,0.010010,-0.015231,0.017461,-0.040700,0.999632,-0.003715,0.001758,-0.026812,-0.103665,0.151260,-0.610090,0.770820
54982,NaN,0.775736,1.691056,-3.524072,-2.110769,2.532934,-12.050581,-0.925246,0.424908,-6.202534,-0.540039,0.664062,0.027344,0.008198,0.016497,-0.035335,0.999506,-0.004625,0.002124,-0.031008,-0.077265,0.174071,-0.608882,0.770059
54983,NaN,1.682442,0.924898,-2.969014,-2.739350,1.937603,-10.926577,-0.990796,0.485093,-6.916520,-0.590576,0.627686,0.034180,0.017055,0.008514,-0.029775,0.999387,-0.004953,0.002425,-0.034576,-0.048247,0.193536,-0.606491,0.769665
54984,NaN,2.981481,1.123619,-2.861762,-3.971128,1.420639,-10.552627,-1.099242,0.472039,-7.465704,-0.627686,0.580811,0.043213,0.030135,0.009957,-0.028746,0.999285,-0.005495,0.002360,-0.037320,-0.016638,0.218962,-0.602891,0.767008
54985,NaN,4.924750,2.133706,-2.241912,-5.781296,0.107216,-10.429637,-1.202998,0.467809,-7.857914,-0.679443,0.520752,0.056641,0.049978,0.019247,-0.022655,0.999207,-0.006013,0.002338,-0.039279,0.016235,0.240780,-0.598462,0.763940
54986,NaN,7.207410,3.116310,-1.255214,-7.793296,-1.564174,-9.688166,-1.446820,0.567885,-8.132564,-0.718262,0.465088,0.065918,0.073222,0.028108,-0.012970,0.999143,-0.007232,0.002839,-0.040651,0.051012,0.266666,-0.593048,0.758011
54987,NaN,8.418198,3.672475,-0.679288,-8.855391,-2.322129,-8.836505,-1.916607,0.713621,-8.323414,-0.758789,0.394531,0.075439,0.085585,0.033113,-0.007426,0.999082,-0.009580,0.003567,-0.041604,0.087179,0.287907,-0.588487,0.750461
54988,NaN,9.684265,2.628159,-0.929871,-9.343268,-1.785591,-6.495126,-2.416986,0.866665,-8.527213,-0.790771,0.323730,0.086914,0.097800,0.022006,-0.010004,0.999009,-0.012081,0.004332,-0.042622,0.125416,0.312215,-0.583347,0.739256
54989,NaN,11.178213,1.774657,-1.519068,-9.886551,-0.868370,-4.171725,-2.801641,1.051717,-8.764116,-0.807373,0.242432,0.090332,0.112327,0.012611,-0.015981,0.998928,-0.014003,0.005257,-0.043805,0.165110,0.331796,-0.578736,0.726440
54990,NaN,12.216070,0.289678,-2.147493,-9.256138,0.390760,-1.567484,-2.960450,1.216479,-9.046179,-0.821777,0.158691,0.093506,0.121982,-0.002950,-0.022203,0.998849,-0.014797,0.006080,-0.045214,0.206534,0.354362,-0.571459,0.710778
54991,NaN,13.800673,-1.265526,-1.459541,-8.161726,0.450729,1.466604,-2.626015,1.457459,-9.350126,-0.827393,0.075195,0.088379,0.137098,-0.019279,-0.015373,0.998795,-0.013125,0.007284,-0.046732,0.248322,0.372756,-0.562032,0.695348
54992,NaN,14.110813,-3.394904,-3.097905,-5.862687,3.003244,3.478695,-2.805023,1.589317,-9.594700,-0.828857,-0.010498,0.085449,0.139001,-0.041093,-0.031546,0.998720,-0.014019,0.007943,-0.047953,0.291361,0.393655,-0.549535,0.676872
54993,NaN,16.156030,-13.257498,-8.675354,1.840843,10.982504,9.874748,-2.403984,1.201363,-9.904299,-0.812988,-0.092041,0.080322,0.154184,-0.141372,-0.086030,0.998684,-0.012015,0.006004,-0.049500,0.332518,0.412778,-0.535706,0.657317
54994,NaN,17.587558,-16.147819,-7.802496,6.253431,11.137708,11.804130,-0.300855,1.419316,-9.964035,-0.803955,-0.162598,0.070557,0.166985,-0.170066,-0.078980,0.998733,-0.001504,0.007094,-0.049799,0.369380,0.436807,-0.511393,0.641276
54995,NaN,17.556826,-16.296573,-8.759950,8.325811,12.660968,10.692928,0.708953,1.130835,-9.593013,-0.782227,-0.231445,0.069580,0.166998,-0.170801,-0.089156,0.998828,0.003543,0.005652,-0.047946,0.401043,0.458502,-0.485487,0.627091
54996,NaN,21.485606,-19.295146,-10.500692,11.922273,15.781878,13.691075,0.949265,0.625828,-9.033496,-0.758301,-0.300049,0.079346,0.205538,-0.201874,-0.106604,0.998964,0.004745,0.003128,-0.045152,0.428075,0.482345,-0.458705,0.611298
54997,NaN,27.315362,-23.507496,-10.987170,17.120702,18.161121,18.396926,0.707459,0.203743,-8.267395,-0.730713,-0.357910,0.088867,0.263029,-0.245698,-0.111000,0.999139,0.003536,0.001018,-0.041325,0.451736,0.501780,-0.435775,0.595190
54998,NaN,31.098742,-30.240060,-10.664792,25.748754,20.069913,20.662378,0.440316,-0.028020,-7.226213,-0.712158,-0.394531,0.091553,0.299816,-0.313134,-0.107287,0.999345,0.002201,-0.000140,-0.036123,0.471190,0.520145,-0.415458,0.578639
54999,NaN,32.529979,-36.963232,-10.110552,34.429477,21.425133,19.878560,0.441135,-0.068003,-5.982984,-0.689453,-0.426514,0.103027,0.314091,-0.378917,-0.101826,0.999550,0.002205,-0.000340,-0.029910,0.487003,0.533577,-0.398593,0.565020
55000,NaN,25.972195,-42.104742,-9.439460,40.656339,21.184858,11.028142,0.297682,0.065121,-4.389738,-0.676025,-0.446045,0.099121,0.250370,-0.426470,-0.095109,0.999758,0.001488,0.000326,-0.021947,0.497649,0.543759,-0.386378,0.554423
55001,NaN,17.781414,-42.225948,-8.056909,41.001136,18.806436,1.555638,-0.128792,0.004517,-2.485611,-0.671143,-0.458740,0.105713,0.172546,-0.424478,-0.080300,0.999923,-0.000644,0.000023,-0.012428,0.504865,0.548188,-0.379931,0.547953
55002,NaN,12.096732,-40.223480,-6.964341,38.960029,16.196525,-4.109924,-1.209197,-0.222540,-0.611186,-0.673096,-0.463135,0.103516,0.119812,-0.403013,-0.067075,0.999976,-0.006046,-0.001113,-0.003056,0.508137,0.546869,-0.384241,0.543222
55003,NaN,7.996157,-39.658117,-6.565050,38.262406,14.557967,-7.865989,-1.881147,-0.572345,1.027955,-0.679932,-0.452393,0.112061,0.082181,-0.396755,-0.061686,0.999938,-0.009406,-0.002862,0.005140,0.509364,0.541638,-0.393587,0.540616
55004,NaN,8.617621,-37.719558,-6.915557,36.604474,13.780430,-5.952179,-2.222388,-0.893686,2.619031,-0.697998,-0.433105,0.115967,0.091407,-0.376756,-0.064567,0.999843,-0.011111,-0.004468,0.013094,0.504937,0.532136,-0.412236,0.540307
55005,NaN,18.078797,-29.457379,-7.061012,29.061197,12.927420,5.436784,-2.001828,-1.139159,4.090066,-0.718262,-0.407227,0.111084,0.187157,-0.291470,-0.066628,0.999725,-0.010008,-0.005695,0.020448,0.496734,0.521587,-0.431283,0.543321
55006,NaN,6.382630,-23.548780,-10.410916,22.126227,13.679128,-4.632868,-1.968541,-1.276196,4.651604,-0.743164,-0.370850,0.118896,0.069947,-0.234915,-0.101362,0.999661,-0.009842,-0.006380,0.023255,0.484514,0.508063,-0.455907,0.547052
55007,NaN,73.938025,21.656197,-23.282064,-27.160497,25.038385,61.684376,-1.019783,-0.948241,5.720321,-0.760010,-0.319336,0.131104,0.733903,0.236428,-0.230504,0.999567,-0.005098,-0.004741,0.028597,0.469095,0.494931,-0.475322,0.555933
55008,NaN,71.604657,-65.045940,52.187246,61.477276,-41.598540,71.226695,0.773396,0.204349,7.737423,-0.785889,-0.255127,0.129883,0.741067,-0.624118,0.518676,0.999244,0.003866,0.001021,0.038677,0.443810,0.475933,-0.495245,0.575545
55009,NaN,-37.263150,-28.401567,-9.434496,33.926824,11.351548,-41.482600,-3.659075,-2.665659,7.618033,-0.798340,-0.208008,0.150635,-0.360162,-0.299616,-0.093814,0.999019,-0.018289,-0.013324,0.038078,0.423571,0.456163,-0.529319,0.576476
55010,NaN,-1.187680,1.098342,-37.620785,-3.389112,37.464181,-11.485793,-0.994130,-2.684733,6.942899,-0.808838,-0.154297,0.175537,-0.007155,0.008810,-0.376372,0.999295,-0.004969,-0.013421,0.034706,0.396457,0.439427,-0.557597,0.582075
55011,NaN,-8.758943,-9.333163,-29.719254,9.894304,30.504664,-14.078639,-3.394675,-3.822285,5.899401,-0.812744,-0.109375,0.202637,-0.079010,-0.100791,-0.297089,0.999238,-0.016969,-0.019107,0.029490,0.375798,0.427047,-0.587582,0.575460
55012,NaN,-0.040613,-40.377057,-7.862766,36.766136,8.610273,6.487920,0.148983,-2.063612,5.878594,-0.810059,-0.060059,0.214844,0.012270,-0.403475,-0.078845,0.999515,0.000745,-0.010316,0.029388,0.349751,0.412717,-0.607464,0.581658
55013,NaN,14.409707,-25.759509,10.773195,17.493623,-11.666716,13.531991,1.112421,-1.488692,5.065359,-0.807373,-0.021729,0.235596,0.149768,-0.254448,0.107412,0.999636,0.005561,-0.007443,0.025324,0.328083,0.403461,-0.617062,0.590606
55014,NaN,4.705651,-10.046995,5.969414,6.853921,-6.346495,-1.360001,0.081732,-1.204543,4.649726,-0.806396,0.014648,0.250000,0.049015,-0.099370,0.059945,0.999712,0.000409,-0.006022,0.023246,0.307769,0.388556,-0.632167,0.595539
55015,NaN,9.142628,-4.617176,-0.634212,-0.930575,-0.556635,0.391056,-0.534523,-1.586663,3.926392,-0.798828,0.042480,0.256104,0.092355,-0.044380,-0.005492,0.999772,-0.002672,-0.007933,0.019630,0.292036,0.379964,-0.643684,0.596669
55016,NaN,9.493012,-15.720433,-10.292964,6.817526,8.587691,8.157214,-0.576833,-1.540949,3.375990,-0.795410,0.068359,0.270752,0.098356,-0.155858,-0.101730,0.999824,-0.002884,-0.007704,0.016879,0.275587,0.368700,-0.657575,0.596412
55017,NaN,11.183170,-10.845163,-5.990921,1.673357,3.926011,6.322265,0.626463,-1.259520,2.719066,-0.789795,0.089600,0.281250,0.113666,-0.106728,-0.059533,0.999883,0.003132,-0.006297,0.013595,0.262155,0.364340,-0.662378,0.599822
55018,NaN,11.805193,-6.878017,-8.047147,-2.613838,5.742357,4.733879,1.032499,-1.146812,2.381966,-0.784180,0.111084,0.291504,0.119317,-0.066950,-0.080138,0.999899,0.005162,-0.005734,0.011909,0.246907,0.357314,-0.668378,0.603850
55019,NaN,10.720812,-6.964175,-9.978196,-2.469997,7.729710,4.227908,0.862648,-1.195298,1.856830,-0.780518,0.130371,0.302002,0.108441,-0.068209,-0.099433,0.999930,0.004313,-0.005976,0.009284,0.235751,0.355761,-0.670520,0.606843
55020,NaN,21.035983,-9.257522,-11.747476,-8.088837,7.259825,13.597909,1.134432,-1.124758,1.634679,-0.774658,0.151611,0.303955,0.211762,-0.090184,-0.116803,0.999935,0.005672,-0.005624,0.008173,0.222762,0.351658,-0.674197,0.610059
55021,NaN,31.595241,-6.965291,0.504171,-15.625828,-7.016633,17.639089,1.204832,-0.652422,1.805748,-0.770996,0.164551,0.308105,0.316547,-0.066830,0.005665,0.999936,0.006024,-0.003262,0.009029,0.212926,0.348883,-0.674381,0.614941
55022,NaN,35.389967,-6.378456,4.775567,-18.702863,-12.145463,18.798400,0.989234,-0.299750,1.980958,-0.762939,0.179688,0.301514,0.354438,-0.060513,0.047982,0.999938,0.004946,-0.001499,0.009905,0.202259,0.341616,-0.677410,0.619278
55023,NaN,36.932197,-4.181165,4.142340,-22.006691,-11.890202,17.988441,0.498168,-0.015717,2.223650,-0.761475,0.200928,0.299072,0.369754,-0.037805,0.041355,0.999935,0.002491,-0.000079,0.011118,0.194459,0.334617,-0.679639,0.623143
55024,NaN,37.478328,1.070967,1.207243,-27.231718,-9.141485,14.312572,0.203221,0.092480,2.415870,-0.751221,0.216064,0.292236,0.374623,0.015223,0.011913,0.999926,0.001016,0.000462,0.012079,0.185674,0.324685,-0.684436,0.625821
55025,NaN,34.638319,5.722585,-2.378728,-29.412901,-4.979166,8.848720,0.517794,0.031736,2.391411,-0.745361,0.233154,0.290039,0.345662,0.061423,-0.023687,0.999925,0.002589,0.000159,0.011957,0.177448,0.316861,-0.686619,0.629814
55026,NaN,31.920980,6.823269,-3.407783,-28.718623,-3.485976,5.684394,1.626867,-0.271599,2.086649,-0.743896,0.256836,0.287598,0.318518,0.071830,-0.033070,0.999912,0.008134,-0.001358,0.010433,0.166679,0.311548,-0.685833,0.636230
55027,NaN,22.629891,9.994505,-1.098328,-23.580903,-4.044410,-3.428284,3.219191,-0.593616,1.550887,-0.738037,0.271729,0.278809,0.225542,0.101848,-0.008684,0.999836,0.016095,-0.002968,0.007754,0.154672,0.310753,-0.678393,0.647528
55028,NaN,16.030021,13.901324,4.887534,-19.725703,-9.069857,-11.453641,3.854351,-0.758513,0.462489,-0.738525,0.286865,0.259277,0.159786,0.138399,0.052153,0.999804,0.019271,-0.003792,0.002312,0.144284,0.315118,-0.667492,0.659042
55029,NaN,10.457759,8.992467,8.529049,-11.341217,-11.507632,-11.188089,4.509602,-0.756724,-0.182585,-0.738770,0.293213,0.246338,0.104330,0.087870,0.087682,0.999738,0.022546,-0.003783,-0.000913,0.135220,0.321394,-0.652719,0.672591
55030,NaN,13.017521,2.175981,3.202720,-10.244088,-6.503741,-3.713260,3.866753,-0.512517,-0.568927,-0.745361,0.299805,0.235352,0.130152,0.020761,0.032769,0.999806,0.019333,-0.002562,-0.002844,0.129179,0.328481,-0.639064,0.683381
55031,NaN,14.583703,-2.033575,-2.026132,-10.335368,-1.285712,0.791639,2.798307,-0.096178,-0.010469,-0.745605,0.306152,0.220215,0.145846,-0.020058,-0.020473,0.999902,0.013991,-0.000481,-0.000052,0.124302,0.330621,-0.629487,0.692087
55032,NaN,13.454379,-0.791786,-5.549351,-11.362162,2.131431,-0.935988,1.195656,0.349148,1.280006,-0.743652,0.314697,0.213867,0.134492,-0.006724,-0.055771,0.999960,0.005978,0.001746,0.006400,0.119056,0.327283,-0.627112,0.696737
55033,NaN,19.025470,-1.605497,-7.011253,-15.758994,2.323223,2.834350,-0.289005,0.480499,2.130795,-0.739990,0.332031,0.205078,0.190243,-0.014130,-0.070548,0.999939,-0.001445,0.002402,0.010654,0.113608,0.318740,-0.631284,0.697839
55034,NaN,23.666555,2.823002,-6.267850,-21.818749,-0.286519,1.641328,-1.104086,0.631709,2.510863,-0.733887,0.346924,0.198242,0.236089,0.030847,-0.063590,0.999901,-0.005520,0.003158,0.012554,0.108732,0.309472,-0.638559,0.696166
55035,NaN,11.004138,6.448038,-3.087419,-13.078901,-0.688452,-9.003078,-1.192196,0.735467,3.024852,-0.725830,0.361816,0.198242,0.108936,0.065946,-0.031666,0.999861,-0.005961,0.003677,0.015124,0.102385,0.296567,-0.646902,0.695041
55036,NaN,12.125079,-3.177252,-3.014087,-9.010811,0.351594,-0.600349,-1.387537,0.280318,3.328679,-0.719971,0.381104,0.191406,0.121717,-0.029958,-0.030099,0.999836,-0.006937,0.001402,0.016642,0.094059,0.286006,-0.656168,0.691951
55037,NaN,15.988504,-6.762832,-8.113171,-12.123543,4.584999,4.299561,-0.505005,-0.442313,3.735723,-0.703857,0.406982,0.195557,0.161292,-0.064828,-0.080610,0.999820,-0.002525,-0.002211,0.018677,0.080393,0.274995,-0.663349,0.691290
55038,NaN,18.186711,2.047875,-3.411794,-17.206179,-1.696326,-2.912378,-0.054502,-0.785689,4.017215,-0.685303,0.434814,0.190918,0.181539,0.024118,-0.033411,0.999791,-0.000272,-0.003928,0.020085,0.064310,0.266389,-0.669066,0.690834
55039,NaN,17.777160,9.290026,-0.927481,-19.479439,-4.830701,-10.400752,0.552573,-0.689470,4.209766,-0.666748,0.456055,0.179932,0.175794,0.096639,-0.008403,0.999769,0.002763,-0.003447,0.021047,0.046716,0.254809,-0.672833,0.692954
55040,NaN,18.768919,7.879407,-0.996929,-19.717333,-5.138769,-9.498802,0.927940,-0.932380,4.395626,-0.646240,0.483887,0.186035,0.185939,0.082936,-0.008721,0.999737,0.004639,-0.004661,0.021976,0.027656,0.245844,-0.675056,0.695051
55041,NaN,22.340738,7.775391,-1.108598,-22.794287,-6.366257,-9.058442,2.001530,-1.123105,4.624548,-0.625488,0.509766,0.172852,0.221583,0.082989,-0.009025,0.999667,0.010007,-0.005615,0.023120,0.005330,0.234339,-0.673717,0.700829
55042,NaN,23.756417,7.491486,1.195921,-23.081887,-9.424859,-9.375440,3.214379,-0.875199,4.756050,-0.604980,0.541748,0.151123,0.235638,0.080317,0.014255,0.999579,0.016070,-0.004375,0.023777,-0.017422,0.224238,-0.667554,0.709778
55043,NaN,22.559301,9.275501,0.966731,-22.340224,-9.445961,-12.544073,3.539849,-0.780382,4.564862,-0.578125,0.571777,0.135742,0.223357,0.097669,0.012242,0.999575,0.017697,-0.003901,0.022821,-0.040182,0.211375,-0.659761,0.720015
55044,NaN,20.475972,10.420475,-0.655596,-20.916105,-7.895922,-15.136243,3.413179,-0.790929,4.445173,-0.557373,0.597656,0.109863,0.202394,0.108803,-0.003922,0.999600,0.017064,-0.003954,0.022223,-0.061655,0.202090,-0.651515,0.728619
55045,NaN,18.338508,10.695390,-1.954233,-19.053694,-6.425415,-16.889445,3.218349,-0.933725,4.381000,-0.534180,0.612549,0.092529,0.181063,0.111224,-0.016926,0.999620,0.016090,-0.004668,0.021902,-0.083879,0.190159,-0.643685,0.736528
55046,NaN,18.017353,10.095210,-2.907912,-18.607658,-5.850162,-17.190477,2.958593,-1.064576,4.231362,-0.506836,0.634033,0.079590,0.178124,0.105141,-0.026592,0.999653,0.014791,-0.005322,0.021154,-0.104905,0.182773,-0.635970,0.742382
55047,NaN,17.598948,9.707879,-3.567315,-17.994388,-5.450532,-17.756412,2.673743,-1.147259,4.052275,-0.481689,0.651123,0.057861,0.174164,0.101076,-0.033337,0.999689,0.013367,-0.005736,0.020259,-0.125999,0.172693,-0.628952,0.747476
55048,NaN,17.923302,8.164525,-2.988850,-17.589764,-6.300644,-16.717417,2.176646,-1.285739,3.714917,-0.460449,0.661865,0.053711,0.177855,0.085268,-0.027827,0.999748,0.010882,-0.006428,0.018573,-0.144993,0.168254,-0.622983,0.750040
55049,NaN,22.754717,5.980542,-4.158964,-22.110703,-7.335117,-15.112568,1.552138,-1.290097,3.160860,-0.437012,0.666016,0.049316,0.226821,0.063707,-0.039641,0.999824,0.007760,-0.006450,0.015803,-0.162140,0.162098,-0.618779,0.751363
55050,NaN,24.949846,5.416628,-6.114810,-24.688342,-7.011256,-15.334738,1.467365,-1.063669,2.747378,-0.426270,0.668213,0.038818,0.249038,0.058030,-0.059406,0.999865,0.007336,-0.005318,0.013736,-0.176092,0.160499,-0.614538,0.752047
55051,NaN,18.003044,6.928130,-5.032503,-17.667382,-5.332309,-17.351832,1.528403,-0.674826,2.323050,-0.400635,0.676758,0.023682,0.179374,0.071746,-0.049177,0.999898,0.007642,-0.003374,0.011615,-0.188103,0.154543,-0.610000,0.754078
55052,NaN,11.921500,8.944324,-2.702052,-10.866492,-5.060617,-19.071617,0.856016,-0.481176,1.462958,-0.394043,0.670166,0.025879,0.118620,0.090426,-0.026349,0.999961,0.004280,-0.002406,0.007315,-0.194867,0.155493,-0.607465,0.754212
55053,NaN,9.298229,6.927275,-2.791067,-8.710684,-3.398659,-17.215867,-0.251849,-0.458836,0.557053,-0.385498,0.672363,0.034668,0.092853,0.069496,-0.027785,0.999993,-0.001259,-0.002294,0.002785,-0.198158,0.155783,-0.608398,0.752540
55054,NaN,4.248872,1.232401,-2.586214,-4.826617,-0.105508,-11.531018,-1.045937,-0.177265,-0.504099,-0.391357,0.657471,0.039062,0.042542,0.012081,-0.025888,0.999983,-0.005230,-0.000886,-0.002520,-0.195070,0.163321,-0.611742,0.749030
55055,NaN,-1.083970,-2.480851,-3.220573,-0.817565,3.711430,-8.007622,-1.473925,0.010035,-1.566409,-0.399658,0.646729,0.049805,-0.011036,-0.024959,-0.032022,0.999942,-0.007369,0.000050,-0.007832,-0.187952,0.169511,-0.615959,0.746013
55056,NaN,-2.032151,-1.192951,-3.740238,-0.121106,4.395837,-9.361098,-1.961038,0.029323,-2.449716,-0.412109,0.633789,0.064941,-0.020474,-0.012045,-0.037282,0.999877,-0.009805,0.000147,-0.012248,-0.176137,0.182758,-0.621077,0.741511
55057,NaN,-3.386671,-1.817028,-4.411943,0.771017,5.729518,-8.910536,-2.630651,0.186917,-3.421018,-0.435059,0.608154,0.084473,-0.034219,-0.018165,-0.043849,0.999767,-0.013152,0.000935,-0.017104,-0.160423,0.194969,-0.627725,0.736351
55058,NaN,-4.220810,-1.694775,-5.372125,1.111074,6.929547,-9.271704,-2.489525,0.505365,-4.459484,-0.459961,0.584473,0.093262,-0.042717,-0.016665,-0.053405,0.999671,-0.012446,0.002527,-0.022295,-0.139079,0.212647,-0.632591,0.731619
55059,NaN,-2.890352,-0.744132,-4.576709,0.376002,5.447129,-10.013677,-1.660996,0.831132,-5.384243,-0.489258,0.556641,0.102295,-0.029286,-0.007035,-0.045586,0.999595,-0.008304,0.004155,-0.026918,-0.114928,0.227712,-0.633265,0.730695
55060,NaN,-1.030604,1.888352,-2.873262,-0.771491,2.636896,-12.122347,-1.348518,0.953200,-6.087368,-0.520264,0.518066,0.106934,-0.009866,0.018994,-0.028813,0.999503,-0.006741,0.004765,-0.030432,-0.087334,0.247440,-0.631246,0.729846
55061,NaN,0.642692,3.037955,-2.798369,-2.515456,1.599516,-12.742458,-1.671613,0.926789,-6.696542,-0.551270,0.483887,0.111572,0.007303,0.029909,-0.028268,0.999394,-0.008356,0.004633,-0.033476,-0.057849,0.265778,-0.629084,0.728195
55062,NaN,2.181219,2.536010,-3.111618,-3.988252,1.338545,-11.592391,-1.830023,0.973666,-7.130769,-0.581787,0.434814,0.109863,0.022538,0.024278,-0.031450,0.999311,-0.009148,0.004867,-0.035646,-0.025678,0.288046,-0.625690,0.724488
55063,NaN,3.778501,3.125524,-2.761922,-5.446214,0.328442,-11.188070,-1.862893,1.107183,-7.419524,-0.616943,0.389648,0.112549,0.038748,0.029569,-0.028113,0.999253,-0.009312,0.005535,-0.037088,0.007364,0.307274,-0.621428,0.720664
55064,NaN,5.598145,3.812348,-2.415344,-7.123393,-0.717730,-10.462568,-2.150948,1.213054,-7.665329,-0.636475,0.338379,0.111084,0.057231,0.035680,-0.024891,0.999189,-0.010752,0.006064,-0.038316,0.042688,0.329298,-0.616206,0.714164
55065,NaN,6.983828,3.178088,-2.575999,-7.970423,-0.704802,-8.609965,-2.582427,1.320150,-7.975077,-0.666748,0.280518,0.111816,0.070848,0.028629,-0.026609,0.999100,-0.012908,0.006599,-0.039863,0.079444,0.348310,-0.611461,0.706034
55066,NaN,8.516720,2.163065,-2.428975,-8.314387,-0.826335,-6.173016,-2.642451,1.530548,-8.306387,-0.686523,0.227051,0.112549,0.085768,0.017747,-0.025196,0.999021,-0.013208,0.007650,-0.041518,0.118609,0.369757,-0.604195,0.695816
55067,NaN,9.043708,2.209133,-2.746901,-8.505190,-0.348084,-5.155532,-2.759504,1.702043,-8.571853,-0.703613,0.165039,0.104736,0.091022,0.017809,-0.028508,0.998950,-0.013793,0.008507,-0.042844,0.158545,0.387707,-0.596306,0.684811
55068,NaN,10.196012,-0.747621,-4.708122,-7.296897,2.294287,-1.561490,-2.738172,1.736777,-8.896000,-0.727051,0.094238,0.092773,0.101061,-0.012637,-0.047812,0.998880,-0.013686,0.008681,-0.044463,0.199943,0.408442,-0.585180,0.671389
55069,NaN,12.070828,-4.227850,-5.199519,-4.977598,3.662764,2.527406,-1.824087,1.894657,-9.258911,-0.739746,0.032227,0.083008,0.118069,-0.048265,-0.052700,0.998842,-0.009117,0.009470,-0.046277,0.240055,0.426875,-0.569827,0.659885
55070,NaN,11.924220,-9.144164,-9.877771,-0.913547,9.855021,5.193862,-0.998638,1.597173,-9.640144,-0.737305,-0.040771,0.071289,0.113847,-0.097512,-0.099225,0.998794,-0.004991,0.007983,-0.048181,0.278760,0.449951,-0.548541,0.647256
55071,NaN,13.871333,-9.090688,-6.727797,0.531666,7.183575,6.564309,0.712396,1.538471,-9.648838,-0.732666,-0.113525,0.061768,0.133599,-0.097193,-0.068658,0.998801,0.003561,0.007689,-0.048225,0.312265,0.471886,-0.521734,0.638442
55072,NaN,17.540409,-11.108676,-8.234270,2.221422,9.570618,10.237920,1.236557,1.092084,-9.370038,-0.726074,-0.177734,0.054199,0.169508,-0.118606,-0.083997,0.998869,0.006180,0.005458,-0.046833,0.341977,0.496556,-0.492005,0.628024
55073,NaN,21.159099,-16.679941,-8.763799,7.940961,12.342692,14.412747,1.815557,0.659150,-8.875277,-0.710449,-0.250732,0.053223,0.203646,-0.175147,-0.089883,0.998969,0.009075,0.003295,-0.044361,0.366609,0.518910,-0.462641,0.618299
55074,NaN,25.430354,-21.981596,-7.103354,14.602706,13.254022,18.308629,1.351071,0.227342,-8.323404,-0.682861,-0.306396,0.056152,0.244799,-0.229650,-0.072845,0.999111,0.006753,0.001136,-0.041605,0.388953,0.541452,-0.434852,0.605350
55075,NaN,29.822997,-28.466145,-6.808535,22.435191,15.965010,21.605290,0.627645,-0.018044,-7.486610,-0.650879,-0.355957,0.050781,0.287312,-0.295339,-0.068975,0.999295,0.003137,-0.000090,-0.037424,0.409605,0.558624,-0.412414,0.591674
55076,NaN,31.535949,-36.845051,-6.237713,32.550122,18.947930,21.358746,0.273815,-0.008800,-6.370123,-0.619629,-0.392334,0.044922,0.303419,-0.378157,-0.062877,0.999492,0.001369,-0.000044,-0.031845,0.427073,0.573526,-0.392937,0.578167
55077,NaN,29.382343,-40.219515,-7.013263,37.019447,21.167087,16.854391,-0.229779,0.036375,-4.887703,-0.597168,-0.418213,0.041260,0.283865,-0.409294,-0.069717,0.999701,-0.001149,0.000182,-0.024436,0.441814,0.582365,-0.379387,0.567201
55078,NaN,23.390562,-40.421079,-9.016378,37.126711,22.910739,9.129219,-0.460638,0.122913,-3.120884,-0.586426,-0.418213,0.039062,0.227503,-0.408001,-0.089368,0.999875,-0.002303,0.000615,-0.015604,0.451470,0.587665,-0.371490,0.559303
55079,NaN,14.502147,-39.417269,-6.681049,36.588033,19.544318,-0.434477,-1.391370,-0.067632,-1.308537,-0.573242,-0.424561,0.032715,0.142458,-0.395562,-0.064013,0.999954,-0.006957,-0.000338,-0.006543,0.459081,0.587121,-0.371668,0.553531
55080,NaN,8.908941,-39.507070,-6.564537,36.523304,18.304968,-6.052280,-2.704680,-0.438914,0.388153,-0.577881,-0.416016,0.028320,0.089993,-0.395734,-0.060100,0.999904,-0.013523,-0.002195,0.001941,0.464084,0.581628,-0.382332,0.547866
55081,NaN,7.999332,-37.684568,-7.828922,34.849087,17.838719,-6.273686,-3.439136,-0.716588,1.926590,-0.582764,-0.396729,0.021729,0.083891,-0.377319,-0.071507,0.999799,-0.017195,-0.003583,0.009632,0.467354,0.571816,-0.398937,0.543558
55082,NaN,8.667800,-35.166036,-7.580433,32.975090,15.815658,-4.197960,-3.061564,-0.889992,3.162714,-0.596436,-0.373047,0.012695,0.092556,-0.351329,-0.070021,0.999748,-0.015307,-0.004450,0.015812,0.464374,0.560401,-0.420042,0.542099
55083,NaN,4.334525,-26.918940,-4.265886,25.615112,9.803333,-6.772583,-2.250725,-1.058326,3.858448,-0.605957,-0.349365,0.018799,0.048747,-0.268739,-0.039384,0.999737,-0.011253,-0.005291,0.019291,0.457887,0.549798,-0.439296,0.543213
55084,NaN,1.656092,-14.194459,-2.400444,13.495520,5.015195,-8.178076,-1.339176,-1.034900,4.090702,-0.619873,-0.317383,0.022461,0.019582,-0.141721,-0.022959,0.999755,-0.006695,-0.005174,0.020452,0.446660,0.539749,-0.458614,0.546662
55085,NaN,11.643962,-8.374564,-14.380991,5.304776,15.424975,2.287893,-1.284240,-1.238871,3.978611,-0.633789,-0.289307,0.032715,0.118972,-0.082314,-0.142546,0.999762,-0.006421,-0.006194,0.019891,0.436314,0.531020,-0.475516,0.549119
55086,NaN,109.669197,-17.339580,-0.607154,7.259094,-0.494822,100.965468,1.170447,-0.561771,5.920691,-0.650391,-0.244385,0.038330,1.101195,-0.140811,-0.003870,0.999541,0.005851,-0.002808,0.029599,0.413953,0.520033,-0.491161,0.563000
55087,NaN,7.569415,-52.525622,23.631585,54.162262,-14.492553,5.352142,0.343540,-1.133052,7.464545,-0.660645,-0.199463,0.050537,0.093892,-0.522383,0.235914,0.999286,0.001717,-0.005664,0.037314,0.388984,0.505239,-0.511591,0.575933
55088,NaN,-21.936388,-18.491060,-34.443453,16.516001,38.775719,-25.048784,-3.196622,-3.789232,6.153988,-0.668701,-0.154297,0.066895,-0.206888,-0.196921,-0.345350,0.999219,-0.015979,-0.018941,0.030762,0.369351,0.493802,-0.543310,0.569696
55089,NaN,-17.533860,-4.042825,-31.435483,3.736093,33.723696,-22.475083,-2.571673,-2.461035,6.074471,-0.672363,-0.117920,0.089844,-0.170042,-0.049703,-0.315870,0.999380,-0.012856,-0.012303,0.030366,0.351495,0.479264,-0.569835,0.567490
55090,NaN,12.913306,-40.190236,-0.004874,33.556251,1.638728,15.736629,-1.380703,-2.146609,5.661545,-0.671631,-0.077393,0.093506,0.140408,-0.398015,0.004175,0.999518,-0.006902,-0.010731,0.028303,0.332440,0.466585,-0.590834,0.568065
55091,NaN,10.510681,-28.494952,0.929817,22.542880,-0.576479,10.549818,0.510849,-1.515427,4.552039,-0.674805,-0.045166,0.108154,0.111484,-0.282484,0.009403,0.999709,0.002554,-0.007576,0.022758,0.313756,0.458163,-0.602348,0.573430
55092,NaN,7.572753,-6.693028,5.613744,3.855757,-6.487455,-1.055279,0.537497,-1.174058,4.231936,-0.669189,-0.019531,0.116211,0.076793,-0.065464,0.056409,0.999755,0.002687,-0.005870,0.021158,0.296745,0.449473,-0.612246,0.578853
55093,NaN,11.768224,-7.730564,-1.737593,1.444186,-0.278702,4.296983,0.493773,-1.443300,3.689791,-0.672119,-0.000244,0.124512,0.119203,-0.075074,-0.016707,0.999801,0.002469,-0.007216,0.018448,0.280488,0.443006,-0.621127,0.582471
55094,NaN,6.482520,-14.796603,-7.337450,8.605982,6.656882,4.201417,0.422373,-1.192142,3.049186,-0.666504,0.019043,0.137207,0.067506,-0.146796,-0.073288,0.999864,0.002112,-0.005960,0.015245,0.266900,0.437486,-0.628287,0.585343
55095,NaN,11.540998,-8.540137,-8.840100,0.082258,6.343517,5.808074,1.127556,-1.094826,2.512255,-0.669434,0.040527,0.147461,0.116950,-0.083441,-0.088238,0.999890,0.005638,-0.005474,0.012561,0.253621,0.434263,-0.631873,0.589770
55096,NaN,14.491746,-7.872543,-8.277827,-2.301116,4.892829,7.829796,1.215714,-0.805934,2.079070,-0.667725,0.055420,0.145264,0.146055,-0.076708,-0.082662,0.999919,0.006078,-0.004030,0.010395,0.242233,0.431516,-0.633838,0.594446
55097,NaN,15.225110,-7.970742,-11.731119,-3.750439,7.925216,9.056958,1.267373,-0.783648,1.649347,-0.661621,0.066162,0.153564,0.153357,-0.077703,-0.117208,0.999938,0.006337,-0.003918,0.008247,0.232106,0.430135,-0.634539,0.598724
55098,NaN,26.720195,-5.519775,-9.780383,-11.827363,2.626309,16.517528,1.491544,-0.548964,1.559890,-0.657715,0.076904,0.153564,0.267886,-0.052382,-0.097467,0.999938,0.007458,-0.002745,0.007799,0.222411,0.428501,-0.634096,0.604022
55099,NaN,37.498167,-4.390936,0.586444,-16.606788,-10.492768,22.433463,0.981406,-0.175276,1.825120,-0.654053,0.096191,0.151123,0.375357,-0.040514,0.005989,0.999946,0.004907,-0.000876,0.009125,0.214237,0.424320,-0.635202,0.608747
55100,NaN,41.908878,-2.230607,3.946768,-20.584902,-15.221560,23.674785,0.848346,0.145954,2.121392,-0.648193,0.113281,0.144531,0.419324,-0.018025,0.039079,0.999934,0.004242,0.000730,0.010607,0.206409,0.418061,-0.636944,0.613939
55101,NaN,41.698874,1.367763,3.594618,-24.122556,-15.208653,20.851807,0.487722,0.262609,2.320649,-0.646484,0.126221,0.146484,0.416840,0.018428,0.035440,0.999929,0.002439,0.001313,0.011603,0.199096,0.410347,-0.639981,0.618385
55102,NaN,37.989600,5.379677,0.430944,-26.511433,-11.596533,15.385238,1.014272,0.089258,2.317320,-0.638916,0.154053,0.139648,0.379241,0.058171,0.004428,0.999920,0.005071,0.000446,0.011586,0.190203,0.403789,-0.641377,0.624030
55103,NaN,31.979599,9.364832,-1.017419,-26.721282,-9.149148,7.897469,2.211489,-0.364731,1.958848,-0.635010,0.166748,0.135010,0.318874,0.096875,-0.008533,0.999889,0.011057,-0.001824,0.009794,0.178444,0.400712,-0.638707,0.632172
55104,NaN,23.725233,13.115702,2.368093,-23.520957,-10.922426,-1.570028,3.576258,-0.746303,1.135312,-0.626953,0.181885,0.130615,0.236408,0.132039,0.026920,0.999817,0.017880,-0.003731,0.005676,0.165455,0.402900,-0.630039,0.642921
55105,NaN,18.422835,13.346442,8.255615,-18.196526,-15.582776,-6.395295,4.995082,-0.842076,0.234184,-0.627197,0.188232,0.122070,0.183714,0.131550,0.086632,0.999679,0.024973,-0.004210,0.001171,0.151944,0.408880,-0.614949,0.656938
55106,NaN,12.565497,12.204910,10.624942,-12.288991,-16.390594,-9.848141,4.958007,-0.780153,-0.377637,-0.631836,0.201172,0.106689,0.125458,0.119121,0.109717,0.999683,0.024787,-0.003900,-0.001888,0.140870,0.416724,-0.597996,0.669998
55107,NaN,14.445975,2.422752,1.746617,-9.750360,-6.741813,-1.033161,4.890777,-0.531112,-0.418279,-0.627441,0.203369,0.100342,0.144461,0.023483,0.018430,0.999695,0.024451,-0.002655,-0.002091,0.130460,0.423080,-0.580933,0.683008
55108,NaN,12.629324,2.213219,-1.198348,-9.674114,-3.570738,-2.099452,4.128424,0.063149,0.460802,-0.623535,0.211914,0.083008,0.126238,0.022665,-0.011559,0.999784,0.020641,0.000316,0.002304,0.120631,0.424684,-0.567272,0.695193
55109,NaN,14.338271,3.492441,-4.382672,-13.076381,-1.773242,-1.885030,1.589750,0.437742,1.485353,-0.617432,0.224854,0.083008,0.143020,0.036336,-0.043855,0.999938,0.007949,0.002189,0.007427,0.113336,0.419891,-0.564601,0.701479
55110,NaN,24.989283,-1.142836,-5.558175,-17.575723,-2.577467,8.655676,-0.271307,0.736740,2.505033,-0.607422,0.246338,0.069824,0.249804,-0.008375,-0.056489,0.999914,-0.001356,0.003684,0.012525,0.107538,0.410710,-0.569945,0.703502
55111,NaN,20.536238,4.603489,-3.139621,-17.606813,-5.161152,0.962692,-1.155845,1.117751,3.142538,-0.603760,0.267822,0.058838,0.204427,0.049065,-0.032818,0.999844,-0.005779,0.005588,0.015712,0.102037,0.397147,-0.579773,0.704078
55112,NaN,10.614467,0.687203,-3.931233,-9.286118,-0.031015,-3.305018,-2.051201,1.047769,3.912002,-0.589600,0.293457,0.058350,0.105780,0.008536,-0.039949,0.999742,-0.010255,0.005238,0.019558,0.095764,0.381817,-0.593631,0.701888
55113,NaN,15.273589,-8.906750,-5.046652,-7.683280,1.971770,6.774196,-2.761462,0.590831,4.370956,-0.573486,0.319092,0.064697,0.154496,-0.086394,-0.049716,0.999662,-0.013806,0.002954,0.021852,0.087429,0.365330,-0.611181,0.696669
55114,NaN,16.395343,-4.318849,-9.740226,-13.416146,4.490915,3.683301,-1.458351,-0.024221,4.239181,-0.559326,0.349121,0.057861,0.164841,-0.040409,-0.097081,0.999749,-0.007291,-0.000121,0.021194,0.075676,0.352674,-0.623441,0.693697
55115,NaN,17.810215,1.700073,-4.581496,-16.076039,-2.232254,-1.002856,-0.247559,-0.615497,4.319652,-0.536621,0.379150,0.053223,0.177820,0.020787,-0.045292,0.999761,-0.001238,-0.003077,0.021597,0.059204,0.341176,-0.632000,0.693303
55116,NaN,19.034076,6.235905,-0.929420,-18.108241,-7.107606,-4.959767,0.716308,-0.383468,4.481989,-0.520508,0.411133,0.057129,0.188896,0.066635,-0.008698,0.999741,0.003581,-0.001917,0.022408,0.041703,0.329600,-0.636720,0.695853
55117,NaN,20.020306,7.344025,0.673147,-18.881506,-9.321569,-6.390678,1.391731,-0.356229,4.771073,-0.500000,0.436768,0.037598,0.198363,0.078136,0.007619,0.999690,0.006958,-0.001781,0.023853,0.021675,0.315850,-0.639618,0.700470
55118,NaN,21.945140,7.809730,-0.271327,-21.053357,-9.527288,-6.893113,1.769860,-0.504239,4.971644,-0.470703,0.464600,0.030762,0.217424,0.083536,-0.001440,0.999649,0.008848,-0.002521,0.024855,0.000428,0.303160,-0.640688,0.705417
55119,NaN,23.438899,7.591044,-1.075826,-22.547958,-9.648815,-7.261143,2.253107,-0.567401,5.083872,-0.448242,0.496826,0.013184,0.232385,0.081944,-0.009196,0.999609,0.011264,-0.002837,0.025416,-0.022723,0.288774,-0.640198,0.711505
55120,NaN,22.284521,9.263683,-2.602300,-22.720153,-8.508863,-10.465884,2.874735,-0.569374,5.143815,-0.416748,0.524658,-0.006348,0.220429,0.098682,-0.024004,0.999562,0.014372,-0.002846,0.025715,-0.046305,0.275539,-0.636634,0.718771
55121,NaN,20.737668,10.267399,-1.488469,-20.913709,-9.444431,-13.123876,3.445020,-0.646960,5.038274,-0.389648,0.548340,-0.025635,0.204742,0.108082,-0.012389,0.999529,0.017222,-0.003234,0.025187,-0.071181,0.260913,-0.630746,0.727336
55122,NaN,19.568389,11.169904,0.478259,-18.754450,-11.271675,-15.199646,3.123009,-0.626242,4.899205,-0.360352,0.571777,-0.043213,0.192852,0.116347,0.007182,0.999573,0.015613,-0.003131,0.024493,-0.094264,0.248489,-0.624893,0.734082
55123,NaN,18.581257,11.031870,-1.268033,-18.210447,-9.622782,-16.464469,2.473168,-0.881027,4.783891,-0.333008,0.595459,-0.051758,0.183151,0.114860,-0.010468,0.999628,0.012364,-0.004405,0.023916,-0.117600,0.235531,-0.621113,0.738183
55124,NaN,18.005534,9.180282,-3.559151,-18.150840,-7.387413,-15.897172,2.488739,-1.010310,4.602163,-0.309814,0.610352,-0.073486,0.178046,0.096341,-0.033509,0.999645,0.012442,-0.005051,0.023008,-0.139787,0.225655,-0.616170,0.741535
55125,NaN,17.660485,8.249315,-3.981191,-17.561887,-7.026569,-15.970489,2.760078,-0.953633,4.244473,-0.280518,0.631836,-0.086426,0.174977,0.086749,-0.037797,0.999668,0.013799,-0.004768,0.021220,-0.161516,0.214123,-0.609856,0.745747
55126,NaN,20.675024,8.986726,-3.097107,-19.262512,-9.839112,-16.875055,2.452409,-0.926501,3.689662,-0.263428,0.640381,-0.103516,0.205178,0.094025,-0.028882,0.999744,0.012261,-0.004632,0.018447,-0.179821,0.206788,-0.603462,0.748823
55127,NaN,26.259171,10.221929,-5.286993,-24.675454,-11.528185,-18.764049,1.556627,-0.789283,3.003493,-0.240479,0.657471,-0.110107,0.261217,0.106551,-0.051019,0.999849,0.007783,-0.003946,0.015017,-0.195018,0.199263,-0.599940,0.749889
55128,NaN,21.841414,10.091616,-7.240008,-21.616367,-7.891839,-19.897797,1.267528,-0.568313,2.680184,-0.229980,0.668213,-0.118896,0.217235,0.104286,-0.071128,0.999886,0.006337,-0.002841,0.013400,-0.207058,0.194916,-0.596966,0.750178
55129,NaN,13.128012,8.302981,-5.949837,-13.456769,-3.992299,-18.737326,0.877877,-0.287302,2.149716,-0.215088,0.674561,-0.121094,0.130461,0.084695,-0.058941,0.999932,0.004389,-0.001436,0.010748,-0.216808,0.188668,-0.595431,0.750241
55130,NaN,8.408299,5.602821,-5.789578,-9.596931,-1.059159,-16.323187,-0.246681,-0.241379,1.166723,-0.211182,0.685303,-0.114746,0.083824,0.056446,-0.057864,0.999981,-0.001233,-0.001207,0.005834,-0.220639,0.189424,-0.596952,0.747720
55131,NaN,5.322705,2.077513,-6.187008,-7.598974,1.663661,-13.039725,-1.121120,-0.097201,0.112355,-0.220215,0.696045,-0.104248,0.053246,0.020458,-0.061959,0.999984,-0.005606,-0.000486,0.000562,-0.220270,0.190699,-0.601133,0.744146
55132,NaN,0.391406,-1.400881,-6.178563,-3.852172,5.041371,-9.626911,-1.740043,0.164287,-1.072205,-0.229004,0.700195,-0.089355,0.003786,-0.014566,-0.061664,0.999947,-0.008700,0.000821,-0.005361,-0.213039,0.198333,-0.606511,0.739881
55133,NaN,-4.383902,-1.779688,-7.626067,-0.658281,8.947406,-9.584746,-2.598653,0.337263,-2.404325,-0.252686,0.697998,-0.070068,-0.044185,-0.018255,-0.075951,0.999842,-0.012993,0.001686,-0.012021,-0.200498,0.207126,-0.614003,0.734779
55134,NaN,-4.459180,-0.039784,-8.808607,-1.151060,9.677237,-11.394579,-3.045253,0.327259,-3.462668,-0.282959,0.697998,-0.048828,-0.044749,-0.000964,-0.088001,0.999733,-0.015225,0.001636,-0.017312,-0.182476,0.222589,-0.621524,0.728605
55135,NaN,-4.389356,-2.187005,-9.777282,-1.614588,10.805862,-9.295114,-2.967560,0.536703,-4.523477,-0.323242,0.680908,-0.023193,-0.044657,-0.022312,-0.097325,0.999631,-0.014836,0.002683,-0.022615,-0.160947,0.237329,-0.627559,0.723838
55136,NaN,-3.614536,-3.230001,-10.036811,-2.125560,10.815270,-8.157235,-2.048249,0.872096,-5.574941,-0.369873,0.659668,-0.016602,-0.037482,-0.032292,-0.099876,0.999550,-0.010240,0.004360,-0.027871,-0.134492,0.256163,-0.628477,0.722017
55137,NaN,-1.954224,-1.165627,-8.242099,-2.593931,8.147119,-9.753897,-0.983333,1.052146,-6.346399,-0.414062,0.634033,-0.016357,-0.020340,-0.011424,-0.082259,0.999471,-0.004916,0.005260,-0.031726,-0.106933,0.272845,-0.624273,0.724158
55138,NaN,-0.470906,1.925912,-6.202894,-3.304969,5.077413,-12.200862,-0.798389,1.006708,-6.995729,-0.460449,0.604004,-0.011963,-0.004350,0.019168,-0.062083,0.999368,-0.003991,0.005032,-0.034971,-0.076379,0.294207,-0.617365,0.725582
55139,NaN,1.274321,2.329914,-5.686522,-4.629513,3.712207,-11.855403,-1.019360,0.896445,-7.535540,-0.508545,0.563477,-0.011475,0.013346,0.022513,-0.057040,0.999267,-0.005096,0.004481,-0.037668,-0.044710,0.314399,-0.609868,0.726096
55140,NaN,3.841638,2.593505,-4.452088,-6.198472,1.459943,-10.673161,-1.026842,0.895859,-7.863309,-0.554199,0.518555,-0.009033,0.039190,0.024174,-0.044822,0.999204,-0.005133,0.004478,-0.039306,-0.010938,0.337995,-0.600363,0.724710
55141,NaN,5.458994,2.747585,-3.024362,-6.799598,-0.395495,-9.523914,-1.115780,0.932761,-8.041479,-0.591309,0.469238,-0.008545,0.055488,0.025086,-0.030645,0.999165,-0.005577,0.004663,-0.040196,0.022902,0.358541,-0.590365,0.722767
55142,NaN,6.782342,3.204256,-2.225216,-7.549748,-1.605463,-8.544631,-1.529092,0.911113,-8.187288,-0.628174,0.417969,-0.001465,0.068951,0.029062,-0.022794,0.999123,-0.007643,0.004554,-0.040924,0.058704,0.381813,-0.579749,0.717401
55143,NaN,7.151925,2.526886,-2.401986,-7.415273,-1.144846,-7.172987,-2.099861,0.890106,-8.429489,-0.665039,0.362305,0.003418,0.072383,0.021973,-0.024583,0.999047,-0.010496,0.004449,-0.042134,0.095479,0.402083,-0.570373,0.709851
55144,NaN,7.794903,1.889987,-2.204172,-7.094283,-1.054929,-5.605307,-2.311828,1.000139,-8.695780,-0.690674,0.295898,0.010742,0.078552,0.015233,-0.022624,0.998976,-0.011555,0.004999,-0.043464,0.134544,0.424677,-0.558882,0.699427
55145,NaN,8.481192,0.488192,-2.557424,-6.317266,-0.118534,-3.589392,-2.529774,1.075705,-9.002267,-0.718506,0.229492,0.007324,0.084768,0.000737,-0.026057,0.998893,-0.012644,0.005377,-0.044995,0.174258,0.443905,-0.547269,0.687808
55146,NaN,10.880588,-0.958489,-0.750250,-5.106009,-1.436615,-0.239635,-2.093458,1.360590,-9.305070,-0.735352,0.158691,0.008301,0.108147,-0.014711,-0.008104,0.998840,-0.010463,0.006800,-0.046507,0.215193,0.465138,-0.530524,0.675191
55147,NaN,9.872868,-5.365366,-5.520649,-2.107388,5.134461,1.403597,-2.735921,1.184977,-9.629469,-0.750000,0.079590,0.009277,0.095645,-0.059063,-0.054996,0.998730,-0.013674,0.005922,-0.048127,0.256935,0.483151,-0.515415,0.659467
55148,NaN,14.309395,-14.170758,-4.836178,5.317419,7.329262,8.804849,-1.529027,1.133312,-9.752300,-0.749512,0.008789,0.010498,0.135678,-0.148814,-0.048025,0.998766,-0.007642,0.005664,-0.048741,0.296065,0.504627,-0.493060,0.643885
55149,NaN,15.377163,-15.135507,-4.383774,7.742941,7.817517,9.248126,-0.266217,1.077262,-9.647924,-0.745117,-0.055420,0.000732,0.145998,-0.158584,-0.044430,0.998821,-0.001331,0.005384,-0.048221,0.330109,0.523959,-0.467400,0.630898
55150,NaN,17.300363,-15.350262,-5.438333,8.899956,9.521805,10.043072,-0.003711,0.734575,-9.143199,-0.736328,-0.122070,-0.000488,0.165549,-0.161187,-0.054998,0.998948,-0.000019,0.003672,-0.045700,0.360759,0.544814,-0.439957,0.616010
55151,NaN,22.177341,-18.870297,-7.085798,12.674587,12.859938,14.095074,-0.514657,0.427782,-8.473042,-0.730225,-0.175537,0.004639,0.213362,-0.198045,-0.070819,0.999097,-0.002573,0.002138,-0.042352,0.388884,0.560719,-0.417289,0.600194
55152,NaN,26.722317,-23.785580,-8.105866,18.748804,16.185972,17.231066,-1.158374,0.333049,-7.681143,-0.713379,-0.224854,0.001221,0.257684,-0.248342,-0.080075,0.999244,-0.005790,0.001665,-0.038396,0.415745,0.575156,-0.396565,0.582313
55153,NaN,30.330047,-33.068117,-10.723890,28.709723,22.357067,18.533314,-1.127797,0.294202,-6.776137,-0.707520,-0.271973,-0.000244,0.291699,-0.341296,-0.105769,0.999409,-0.005638,0.001471,-0.033874,0.439069,0.585058,-0.379508,0.566480
55154,NaN,31.699888,-38.701548,-10.416945,36.062981,24.444446,16.878077,-0.259989,0.331695,-5.865314,-0.701904,-0.308350,-0.010254,0.305295,-0.396219,-0.104171,0.999568,-0.001300,0.001658,-0.029322,0.456657,0.596177,-0.360921,0.552968
55155,NaN,27.249928,-39.324369,-9.690590,37.537855,23.982059,10.143056,-0.212168,0.262669,-4.571841,-0.698975,-0.332031,-0.007812,0.263288,-0.399436,-0.096834,0.999737,-0.001061,0.001313,-0.022857,0.470301,0.603066,-0.347175,0.542768
55156,NaN,20.540470,-42.547042,-10.667176,39.763519,25.351634,1.230161,-0.791299,-0.076650,-2.797873,-0.700684,-0.344971,-0.001221,0.199463,-0.428706,-0.104903,0.999894,-0.003956,-0.000383,-0.013989,0.479430,0.607560,-0.340517,0.533916
55157,NaN,13.754349,-44.171719,-9.046498,40.880979,23.238246,-6.520171,-1.383220,-0.375190,-0.837262,-0.715332,-0.353516,-0.001221,0.135857,-0.442899,-0.087149,0.999966,-0.006916,-0.001876,-0.004186,0.485230,0.606657,-0.342542,0.528379
55158,NaN,10.358861,-42.949281,-8.056044,39.716637,20.956661,-9.404551,-1.917934,-0.669306,1.027334,-0.728516,-0.349121,-0.001221,0.106055,-0.429696,-0.076088,0.999935,-0.009589,-0.003346,0.005137,0.486077,0.602936,-0.352690,0.525173
55159,NaN,10.624403,-38.209039,-8.264430,35.669803,19.038257,-7.333320,-2.223372,-0.862944,2.643273,-0.755127,-0.325439,0.000488,0.111632,-0.381523,-0.077927,0.999842,-0.011116,-0.004314,0.013216,0.484259,0.595050,-0.368526,0.524974
55160,NaN,15.423175,-32.076229,-8.813864,30.717892,17.487100,-0.074890,-1.821128,-1.088181,4.090283,-0.775391,-0.303955,0.008545,0.161224,-0.318292,-0.084368,0.999735,-0.009105,-0.005440,0.020450,0.475370,0.586348,-0.389178,0.527976
55161,NaN,12.486825,-31.773368,-9.152109,29.848535,16.928827,-1.360346,-1.213675,-1.273044,4.772883,-0.793945,-0.261230,0.016357,0.132981,-0.315169,-0.088774,0.999677,-0.006068,-0.006365,0.023862,0.463717,0.577357,-0.409262,0.533038
55162,NaN,75.457051,0.093176,-15.686320,0.990046,15.639344,65.634003,-0.201737,-0.910125,6.571386,-0.819580,-0.205322,0.015381,0.754704,0.025575,-0.153446,0.999449,-0.001008,-0.004550,0.032851,0.442892,0.565689,-0.432432,0.544835
55163,NaN,43.322211,-49.694647,44.547703,58.414605,-32.452132,33.351578,0.174303,-0.337460,8.233764,-0.838867,-0.147461,0.031494,0.452439,-0.478969,0.445807,0.999151,0.000871,-0.001687,0.041157,0.418887,0.548727,-0.455611,0.562006
55164,NaN,-28.639164,-23.156785,-11.061366,22.384480,17.326677,-35.827947,-3.131540,-2.804683,6.716704,-0.849121,-0.102539,0.048096,-0.276811,-0.242707,-0.110798,0.999215,-0.015654,-0.014020,0.033575,0.400134,0.533622,-0.490464,0.560880
55165,NaN,-1.594012,-8.899777,-37.817730,1.580137,38.775216,-7.461147,-3.149933,-2.828985,6.958497,-0.859619,-0.051270,0.079346,-0.007359,-0.095297,-0.376854,0.999171,-0.015745,-0.014141,0.034783,0.381776,0.517762,-0.523101,0.559048
55166,NaN,-8.982211,-17.304522,-32.334534,13.214502,35.333043,-11.219494,-3.737083,-3.189328,6.007226,-0.865234,-0.010498,0.093750,-0.079318,-0.181551,-0.321326,0.999247,-0.018681,-0.015943,0.030029,0.363718,0.502833,-0.557131,0.551791
55167,NaN,-1.125073,-33.196147,-2.380422,31.615431,6.316819,-1.492041,0.783942,-1.865088,4.966662,-0.860840,0.041016,0.112305,-0.002775,-0.332004,-0.025158,0.999641,0.003919,-0.009324,0.024830,0.342736,0.495402,-0.570640,0.558103
55168,NaN,13.375318,-17.398322,2.785760,12.762141,-3.367522,7.937327,1.316462,-1.119297,4.822607,-0.862061,0.075195,0.122559,0.137744,-0.170875,0.027489,0.999672,0.006582,-0.005596,0.024110,0.319959,0.485906,-0.583334,0.566783
55169,NaN,10.494002,-13.440172,5.315692,9.794636,-5.859406,3.924868,0.632596,-1.182559,3.976686,-0.852539,0.113770,0.128418,0.107272,-0.132453,0.053366,0.999780,0.003163,-0.005912,0.019882,0.303649,0.478578,-0.592961,0.571977
55170,NaN,5.706418,-12.428454,3.147831,9.689278,-3.089542,-0.143620,-0.516479,-1.000492,3.648190,-0.855469,0.135254,0.138672,0.059158,-0.123136,0.032090,0.999818,-0.002582,-0.005002,0.018240,0.288701,0.468402,-0.607228,0.573170
55171,NaN,12.652533,-13.380740,-8.067009,5.310299,5.904391,8.656579,-0.231777,-1.232490,2.882910,-0.847900,0.160889,0.151367,0.128931,-0.132053,-0.079727,0.999876,-0.001159,-0.006162,0.014414,0.277219,0.462803,-0.616345,0.573657
55172,NaN,12.860561,-9.697457,-10.524149,0.913178,7.571251,7.851229,0.858944,-0.892391,2.291003,-0.841797,0.173584,0.157471,0.130171,-0.095038,-0.105074,0.999915,0.004295,-0.004462,0.011455,0.263115,0.457906,-0.622980,0.577052
55173,NaN,14.872641,-11.467089,-4.944049,2.271778,1.681686,9.400088,0.760668,-0.955202,1.802577,-0.838135,0.190674,0.165771,0.149986,-0.113136,-0.049158,0.999941,0.003803,-0.004776,0.009013,0.253195,0.456035,-0.626129,0.579557
55174,NaN,19.885521,-9.263502,-9.761658,-3.463462,4.442831,13.527982,1.268694,-0.860645,1.257247,-0.834229,0.201416,0.163574,0.199849,-0.090763,-0.097338,0.999951,0.006343,-0.004303,0.006286,0.241148,0.454622,-0.628928,0.582766
55175,NaN,35.175999,-9.685919,-3.347300,-9.281309,-6.256198,25.073756,1.110095,-0.694155,1.358884,-0.832520,0.214355,0.169922,0.352521,-0.094282,-0.032778,0.999955,0.005550,-0.003471,0.006794,0.232484,0.453703,-0.629590,0.586278
55176,NaN,43.093926,-6.010922,4.352404,-15.083338,-16.641352,27.706487,1.219602,-0.244812,1.523687,-0.830566,0.222900,0.165527,0.431328,-0.057090,0.043698,0.999952,0.006098,-0.001224,0.007618,0.221799,0.449581,-0.632087,0.590887
55177,NaN,45.292238,-0.217040,5.344464,-21.338663,-18.947811,25.762379,0.742847,-0.003698,1.862013,-0.822510,0.239990,0.156738,0.452917,0.001848,0.053455,0.999950,0.003714,-0.000018,0.009310,0.214617,0.444522,-0.634050,0.595248
55178,NaN,43.754043,1.569536,1.258551,-23.895134,-15.012345,23.684428,1.038007,-0.031503,1.949755,-0.825195,0.255127,0.147705,0.437358,0.019894,0.012750,0.999939,0.005190,-0.000158,0.009749,0.204221,0.438291,-0.637191,0.600152
55179,NaN,37.972795,8.083270,-1.717538,-27.368039,-11.290282,15.360561,2.360457,-0.321242,1.722589,-0.819092,0.265869,0.141357,0.379038,0.084290,-0.015585,0.999892,0.011802,-0.001606,0.008613,0.192845,0.436143,-0.634142,0.608649
55180,NaN,29.644725,14.959691,-1.133940,-28.307040,-10.604457,3.974139,3.930256,-0.732796,1.135448,-0.817139,0.270020,0.134766,0.295623,0.151447,-0.007291,0.999784,0.019650,-0.003664,0.005677,0.176767,0.437670,-0.626668,0.620069
55181,NaN,22.279142,21.928519,7.265565,-26.491995,-17.986223,-7.682823,5.053399,-0.680096,0.133744,-0.825684,0.270264,0.119629,0.222384,0.217492,0.078923,0.999675,0.025264,-0.003400,0.000669,0.163117,0.443696,-0.611693,0.634317
55182,NaN,17.348976,19.170515,9.768825,-20.050123,-19.019875,-10.065415,4.565712,-0.518512,-0.318425,-0.832031,0.268066,0.098389,0.173531,0.189126,0.102475,0.999735,0.022827,-0.002592,-0.001592,0.151169,0.449608,-0.597764,0.646281
55183,NaN,16.363723,4.743258,-2.592471,-13.505930,-4.484554,-0.093360,3.682103,-0.185284,-0.057807,-0.836426,0.270264,0.087646,0.163674,0.047850,-0.024895,0.999830,0.018409,-0.000926,-0.000289,0.142510,0.453099,-0.585776,0.656703
55184,NaN,15.227611,-6.890876,-10.883386,-8.289963,6.384346,7.167067,1.749923,0.204302,1.489234,-0.834473,0.278809,0.078857,0.152667,-0.066816,-0.109580,0.999933,0.008749,0.001021,0.007446,0.133383,0.449255,-0.583913,0.662891
55185,NaN,20.967455,-2.741944,-11.095587,-14.967912,3.339667,8.491343,-0.296006,0.415414,3.226789,-0.822266,0.302490,0.070068,0.209851,-0.024199,-0.111354,0.999867,-0.001480,0.002077,0.016133,0.124560,0.438213,-0.591788,0.665012
55186,NaN,21.249744,3.548862,-3.698149,-16.741700,-5.173632,3.252804,-1.845191,0.604267,4.269084,-0.814697,0.332520,0.067383,0.211567,0.039664,-0.037975,0.999725,-0.009225,0.003021,0.021343,0.115343,0.422607,-0.607376,0.662717
55187,NaN,16.122253,-7.046586,-6.223445,-8.153873,1.285939,6.924310,-2.050569,0.271576,4.897117,-0.796631,0.368896,0.066895,0.162809,-0.067127,-0.061755,0.999647,-0.010252,0.001358,0.024483,0.104245,0.405519,-0.624147,0.659642
55188,NaN,18.331892,-7.623521,-9.143912,-11.092012,2.791650,8.812016,-0.860316,-0.283094,5.265388,-0.780518,0.400879,0.055908,0.185377,-0.071764,-0.090863,0.999643,-0.004301,-0.001415,0.026324,0.087071,0.390010,-0.638103,0.658130
55189,NaN,22.335863,1.689096,-5.430141,-18.742708,-4.067350,2.964981,0.237379,-0.592882,5.473669,-0.764893,0.446045,0.055176,0.222943,0.023061,-0.053615,0.999620,0.001187,-0.002964,0.027365,0.066684,0.374469,-0.648013,0.659853
55190,NaN,22.980886,6.965794,-3.026099,-21.729453,-7.581884,-2.329235,0.918240,-0.397627,5.348798,-0.740234,0.478027,0.046387,0.227893,0.075907,-0.029468,0.999630,0.004591,-0.001988,0.026741,0.045560,0.359533,-0.655339,0.662715
55191,NaN,23.379607,5.866660,-2.129014,-21.423675,-8.585492,-2.551209,1.559411,-0.308239,5.262412,-0.717529,0.508057,0.031006,0.232174,0.064952,-0.020441,0.999622,0.007796,-0.001541,0.026309,0.024304,0.343548,-0.659457,0.668207
55192,NaN,25.094562,7.480698,-1.960973,-23.709090,-9.915411,-4.434678,2.053381,-0.279963,5.468520,-0.688721,0.544434,0.011230,0.248798,0.081823,-0.018444,0.999573,0.010265,-0.001400,0.027339,0.001471,0.327921,-0.662053,0.673908
55193,NaN,25.601347,10.131546,-2.464958,-25.619047,-10.227905,-8.089446,2.336657,-0.361656,5.837585,-0.659912,0.583008,-0.008301,0.252949,0.109004,-0.022947,0.999504,0.011681,-0.001808,0.029183,-0.023215,0.309690,-0.663428,0.680747
55194,NaN,25.602360,11.174576,-2.544522,-25.964844,-10.565090,-10.686503,2.304063,-0.514212,6.101896,-0.626465,0.617188,-0.023682,0.252513,0.119764,-0.023444,0.999465,0.011518,-0.002571,0.030504,-0.048972,0.292663,-0.664831,0.685529
55195,NaN,25.116821,11.168034,-1.852013,-25.021015,-11.173022,-12.618251,1.974793,-0.697996,6.042719,-0.587158,0.657959,-0.030518,0.247699,0.119370,-0.016498,0.999489,0.009872,-0.003489,0.030208,-0.074856,0.274356,-0.666398,0.689231
55196,NaN,23.931466,9.858984,-2.194628,-23.528444,-10.462370,-13.199090,1.843598,-0.980661,5.871917,-0.549561,0.694336,-0.054443,0.236380,0.105749,-0.019829,0.999515,0.009217,-0.004903,0.029355,-0.100206,0.259796,-0.667580,0.690508
55197,NaN,21.855999,10.006990,-3.091287,-21.856080,-8.930456,-15.267180,2.104502,-1.177439,5.746500,-0.518066,0.715820,-0.065430,0.215732,0.106605,-0.028538,0.999515,0.010521,-0.005886,0.028728,-0.126648,0.243521,-0.666869,0.692780
55198,NaN,19.964506,9.955907,-2.975594,-19.695583,-8.390333,-16.746892,2.535355,-1.282912,5.519617,-0.477783,0.737061,-0.084717,0.196970,0.105376,-0.027175,0.999518,0.012675,-0.006414,0.027594,-0.152131,0.230769,-0.663891,0.694875
55199,NaN,19.130584,10.130949,-2.543436,-18.193432,-8.598279,-18.180227,2.645139,-1.308493,5.216139,-0.446533,0.767090,-0.100098,0.188727,0.106568,-0.022807,0.999551,0.013224,-0.006541,0.026077,-0.177568,0.215907,-0.659431,0.697858
55200,NaN,18.759160,11.604690,-2.763758,-17.422143,-8.614770,-20.598800,2.515659,-1.371345,4.843101,-0.408203,0.784180,-0.119385,0.184880,0.120871,-0.024863,0.999604,0.012577,-0.006856,0.024212,-0.200488,0.205719,-0.654714,0.699166
55201,NaN,18.264964,11.718211,-1.402124,-15.539181,-9.712158,-21.517525,2.059224,-1.547971,4.255162,-0.376709,0.801270,-0.127930,0.180195,0.121160,-0.011386,0.999691,0.010295,-0.007739,0.021274,-0.222475,0.195096,-0.650143,0.699826
55202,NaN,20.533811,10.072820,-2.024221,-17.252642,-10.679838,-20.555704,1.478891,-1.568667,3.428364,-0.357666,0.812012,-0.136719,0.203716,0.104368,-0.017877,0.999795,0.007394,-0.007843,0.017141,-0.239639,0.191372,-0.646812,0.698272
55203,NaN,18.741196,9.136214,-2.628881,-15.712626,-9.321730,-20.194922,1.159721,-1.449087,2.812878,-0.334229,0.818359,-0.134521,0.186282,0.094133,-0.024396,0.999858,0.005798,-0.007245,0.014064,-0.255210,0.185941,-0.643631,0.697161
55204,NaN,12.421849,9.020889,-3.329120,-10.752605,-5.205039,-20.012413,1.384296,-1.160726,2.178874,-0.315186,0.831299,-0.156006,0.123412,0.091781,-0.031942,0.999900,0.006921,-0.005803,0.010894,-0.266288,0.185105,-0.639684,0.696872
55205,NaN,5.557504,8.681440,-1.837761,-4.242274,-2.298622,-19.105012,1.059479,-0.863306,1.135888,-0.309082,0.839844,-0.156006,0.055158,0.087223,-0.017678,0.999961,0.005297,-0.004316,0.005679,-0.273965,0.183086,-0.635872,0.697917
55206,NaN,1.072739,6.117709,-1.763647,-1.038989,0.449533,-16.169252,0.342123,-0.709001,-0.040456,-0.313232,0.839844,-0.156250,0.010802,0.061205,-0.017494,0.999992,0.001711,-0.003545,-0.000202,-0.274830,0.189194,-0.634058,0.697600
55207,NaN,-4.307052,2.895742,-0.826715,3.233157,3.201035,-12.443100,-0.596210,-0.481479,-1.287421,-0.323975,0.833496,-0.141113,-0.042863,0.029209,-0.008457,0.999972,-0.002981,-0.002407,-0.006437,-0.271281,0.195793,-0.634243,0.696999
55208,NaN,-9.465133,3.740751,-0.958578,7.141062,6.511723,-13.143961,-1.749693,-0.292141,-2.648656,-0.347656,0.833496,-0.119873,-0.094131,0.038570,-0.010058,0.999873,-0.008748,-0.001461,-0.013243,-0.259702,0.211349,-0.637582,0.693813
55209,NaN,-7.805730,5.092495,-1.877102,5.226947,6.102227,-14.893828,-2.872752,-0.252497,-3.761330,-0.375244,0.820557,-0.093994,-0.077060,0.052103,-0.019612,0.999719,-0.014362,-0.001262,-0.018805,-0.244337,0.227910,-0.643067,0.689072
55210,NaN,-4.488736,2.972013,-2.938252,1.646454,4.936823,-13.057391,-3.371546,0.014347,-4.901396,-0.411377,0.807617,-0.068359,-0.044151,0.030307,-0.029887,0.999558,-0.016855,0.000072,-0.024503,-0.222014,0.251100,-0.649010,0.682967
55211,NaN,-3.412072,2.212425,-4.423687,-0.255326,5.424598,-12.384237,-2.701987,0.459072,-5.910802,-0.460205,0.786377,-0.051025,-0.033561,0.022522,-0.044462,0.999469,-0.013508,0.002295,-0.029549,-0.196819,0.271602,-0.650982,0.680968
55212,NaN,-2.601568,3.252181,-3.656862,-0.677437,4.176275,-13.392280,-1.958847,0.865747,-6.623147,-0.513184,0.762939,-0.042480,-0.025087,0.033003,-0.036780,0.999394,-0.009792,0.004328,-0.033109,-0.167322,0.295281,-0.649114,0.680781
55213,NaN,-1.147518,3.820045,-3.803771,-2.175263,3.250380,-13.695547,-1.769690,0.995438,-7.142375,-0.565674,0.724365,-0.027100,-0.010300,0.038244,-0.038323,0.999311,-0.008846,0.004976,-0.035704,-0.137041,0.316371,-0.644979,0.682005
55214,NaN,0.745547,3.833165,-4.479501,-4.267964,2.566266,-13.054102,-1.828700,1.120370,-7.578399,-0.615967,0.685791,-0.018311,0.008637,0.037607,-0.045187,0.999225,-0.009141,0.005600,-0.037882,-0.103335,0.341208,-0.639272,0.681344
55215,NaN,2.645103,4.573912,-4.635797,-6.191160,1.435853,-12.812663,-1.845794,1.351673,-7.902000,-0.666016,0.640869,-0.009277,0.027903,0.044224,-0.046956,0.999154,-0.009226,0.006756,-0.039499,-0.068849,0.362545,-0.632237,0.681246
55216,NaN,4.290157,5.599332,-4.231508,-7.748031,-0.016834,-12.569594,-1.979748,1.574850,-8.131066,-0.718018,0.589600,-0.000244,0.044780,0.053773,-0.043203,0.999094,-0.009896,0.007872,-0.040643,-0.031332,0.386432,-0.623714,0.678726
55217,NaN,6.706782,5.635883,-4.002621,-9.478662,-1.398949,-10.766293,-2.205495,1.654977,-8.384394,-0.774414,0.533936,0.008789,0.069001,0.053043,-0.041189,0.999026,-0.011024,0.008272,-0.041908,0.006582,0.406950,-0.614652,0.675686
55218,NaN,8.083859,6.153894,-3.406725,-10.401117,-2.548339,-9.545855,-2.458166,1.773726,-8.625775,-0.821533,0.467529,0.007568,0.083068,0.057557,-0.035521,0.998955,-0.012287,0.008866,-0.043114,0.047360,0.430176,-0.603856,0.669376
55219,NaN,8.176965,3.990401,-3.940545,-9.385291,-1.286434,-6.895988,-2.634017,1.844500,-8.785613,-0.866211,0.390381,0.021240,0.083030,0.035744,-0.040657,0.998906,-0.013165,0.009219,-0.043912,0.087953,0.449451,-0.592678,0.662564
55220,NaN,10.252338,3.150769,-4.135101,-9.761272,-1.385961,-3.910496,-2.447546,1.860562,-9.041698,-0.913086,0.317627,0.020020,0.103399,0.026328,-0.042654,0.998860,-0.012233,0.009299,-0.045191,0.130022,0.471703,-0.577722,0.653321
55221,NaN,11.097548,2.224994,-4.967985,-9.357431,-0.208807,-1.746250,-2.209910,1.757119,-9.287541,-0.944336,0.225586,0.019043,0.111388,0.016525,-0.050861,0.998822,-0.011045,0.008782,-0.046419,0.170501,0.490813,-0.561215,0.644259
55222,NaN,12.237111,0.975115,-5.355712,-8.217391,0.686265,0.734720,-1.609238,1.628505,-9.630920,-0.964355,0.122803,0.016113,0.122196,0.003426,-0.054597,0.998775,-0.008043,0.008139,-0.048135,0.210983,0.513776,-0.539037,0.633213
55223,NaN,14.237608,-0.559049,-6.586669,-7.176838,2.391849,3.934607,-1.133163,1.511568,-9.929308,-0.978027,0.020020,0.015625,0.141350,-0.013004,-0.066878,0.998723,-0.005663,0.007555,-0.049625,0.249142,0.533911,-0.514839,0.622742
55224,NaN,16.934909,-4.258628,-8.501138,-4.060958,5.575653,8.334783,-0.532802,1.221068,-10.157268,-0.974609,-0.080811,0.014893,0.166367,-0.051317,-0.085904,0.998688,-0.002663,0.006103,-0.050764,0.285988,0.557934,-0.485185,0.609521
55225,NaN,22.148570,-5.739875,-7.983171,-1.833669,5.672705,13.665919,0.347979,0.931164,-10.133776,-0.958008,-0.183838,0.025146,0.217831,-0.068361,-0.080964,0.998704,0.001739,0.004654,-0.050647,0.317800,0.579462,-0.453901,0.597663
55226,NaN,28.791890,-8.436435,-6.568513,2.834607,5.745585,20.212550,0.671817,0.543046,-9.948345,-0.933594,-0.271729,0.022217,0.283078,-0.098306,-0.066773,0.998754,0.003358,0.002714,-0.049721,0.347086,0.603615,-0.419430,0.582459
55227,NaN,34.920232,-12.878339,-4.850632,10.213635,6.827642,25.638474,-0.352729,0.105993,-9.639535,-0.896484,-0.348877,0.034424,0.342431,-0.145486,-0.048442,0.998837,-0.001763,0.000530,-0.048179,0.376057,0.622214,-0.390694,0.564614
55228,NaN,43.475862,-23.671179,-6.819436,23.273706,14.085797,32.082506,-0.953901,-0.039214,-8.992804,-0.863770,-0.419678,0.041992,0.423540,-0.256250,-0.066919,0.998978,-0.004768,-0.000196,-0.044949,0.404315,0.639956,-0.362839,0.543446
55229,NaN,41.909502,-34.892091,-9.682301,35.084594,22.735125,26.493959,-0.584772,0.175006,-7.992883,-0.836182,-0.471191,0.044922,0.404620,-0.365569,-0.096129,0.999197,-0.002923,0.000875,-0.039954,0.427917,0.652292,-0.338203,0.526327
55230,NaN,33.345853,-39.777773,-11.123209,39.062539,27.055947,13.830249,-0.409239,0.224536,-6.738040,-0.802246,-0.518311,0.041748,0.319681,-0.408931,-0.110767,0.999430,-0.002046,0.001122,-0.033684,0.446932,0.663864,-0.314905,0.510266
55231,NaN,22.930601,-42.123736,-10.558793,39.308682,27.606736,0.381395,-0.231973,-0.082924,-5.021076,-0.784180,-0.544189,0.052734,0.218678,-0.426939,-0.105003,0.999684,-0.001160,-0.000415,-0.025103,0.460266,0.671261,-0.298906,0.498216
55232,NaN,13.561928,-39.371696,-7.308044,35.327496,23.222674,-9.703417,0.002163,-0.399788,-3.033073,-0.770996,-0.557129,0.055176,0.129774,-0.395714,-0.072821,0.999883,0.000011,-0.001999,-0.015165,0.466315,0.678375,-0.288708,0.488882
55233,NaN,8.660223,-38.634261,-4.304054,34.184016,19.731944,-15.123811,-0.798757,-0.652240,-1.107276,-0.772949,-0.559326,0.061768,0.084597,-0.386982,-0.041218,0.999971,-0.003994,-0.003261,-0.005536,0.470802,0.679693,-0.288405,0.482892
55234,NaN,9.434007,-41.853047,-4.165841,37.470536,20.474934,-15.703847,-1.782626,-0.760472,0.605119,-0.792725,-0.546387,0.061279,0.095755,-0.418589,-0.037565,0.999948,-0.008913,-0.003802,0.003026,0.472978,0.677816,-0.296384,0.478555
55235,NaN,14.887276,-36.154005,-7.692350,33.688376,21.182500,-7.761223,-1.407861,-0.839518,2.245980,-0.800049,-0.524902,0.065430,0.153238,-0.360362,-0.073747,0.999903,-0.007039,-0.004197,0.011230,0.471112,0.673109,-0.309309,0.478858
55236,NaN,47.457888,-15.361553,-43.610992,14.313741,46.997410,34.641247,-1.786485,-1.528931,4.241803,-0.831543,-0.481934,0.068848,0.481057,-0.147324,-0.431114,0.999706,-0.008932,-0.007644,0.021207,0.462728,0.666925,-0.331962,0.480514
55237,NaN,121.945524,-30.775996,52.995890,80.072453,-39.192418,93.491416,0.967840,1.313313,7.391109,-0.866455,-0.411133,0.063232,1.233213,-0.264883,0.520539,0.999284,0.004838,0.006565,0.036947,0.443623,0.653278,-0.350993,0.503221
55238,NaN,-29.648127,-69.038666,-17.326954,51.721451,41.460133,-49.137995,-2.940338,-2.724608,9.373187,-0.895264,-0.323242,0.081055,-0.261337,-0.705671,-0.166688,0.998701,-0.014695,-0.013617,0.046846,0.422368,0.636648,-0.395999,0.509381
55239,NaN,4.505655,-52.419358,-27.757247,42.141370,41.792961,-6.263961,-4.074066,-4.434551,8.939102,-0.919922,-0.237549,0.103271,0.074547,-0.526791,-0.265420,0.998548,-0.020360,-0.022162,0.044674,0.403211,0.620736,-0.443589,0.505308
55240,NaN,7.142973,-9.261489,-11.663257,6.101212,12.376905,-0.741205,0.479509,-2.079090,8.439707,-0.928467,-0.177490,0.125977,0.076451,-0.089180,-0.116072,0.999053,0.002397,-0.010392,0.042185,0.372449,0.607662,-0.474593,0.516517
55241,NaN,-8.023776,-23.742212,-9.897920,20.399766,17.090564,-13.988501,-2.205607,-2.673419,6.991812,-0.935303,-0.109131,0.142090,-0.070543,-0.241081,-0.097320,0.999239,-0.011025,-0.013364,0.034950,0.354495,0.593425,-0.506135,0.515759
55242,NaN,-12.791393,-26.606204,-13.323861,23.120897,21.949330,-15.505688,0.893328,-1.072335,5.742833,-0.937012,-0.055420,0.156250,-0.119497,-0.268973,-0.135092,0.999563,0.004466,-0.005361,0.028710,0.330888,0.582841,-0.524921,0.524659
55243,NaN,11.100791,-13.474515,11.263247,14.434781,-10.581882,0.734190,-0.020909,-0.499309,5.662838,-0.938965,-0.004150,0.164062,0.114481,-0.131524,0.112929,0.999596,-0.000105,-0.002496,0.028310,0.314673,0.569039,-0.542086,0.532277
55244,NaN,15.966949,-10.236405,-6.907066,4.981058,3.833731,9.367101,-0.373783,-0.458548,4.540566,-0.940186,0.032471,0.169922,0.162098,-0.098831,-0.068514,0.999738,-0.001869,-0.002293,0.022701,0.298893,0.556707,-0.559086,0.536807
55245,NaN,13.001891,-4.161784,-4.680271,-0.151984,1.133263,4.572885,-0.929000,-0.608713,3.933814,-0.937256,0.071045,0.173584,0.130948,-0.039264,-0.046219,0.999791,-0.004645,-0.003043,0.019668,0.289177,0.545860,-0.573319,0.538255
55246,NaN,8.802667,-14.220641,-3.833663,10.024575,3.030956,3.777845,-0.852034,-0.735128,3.308051,-0.931396,0.090088,0.186279,0.090503,-0.140884,-0.037405,0.999847,-0.004260,-0.003675,0.016539,0.277036,0.536490,-0.588012,0.538211
55247,NaN,14.871989,-10.051724,-7.559772,3.156063,3.502848,9.084493,0.424743,-0.910064,2.891686,-0.924072,0.122314,0.192139,0.150493,-0.098190,-0.075126,0.999883,0.002124,-0.004550,0.014458,0.265426,0.530983,-0.595816,0.540933
55248,NaN,18.083491,-2.457879,-11.998918,-6.595986,4.930554,10.415233,1.475074,-1.272808,2.587077,-0.914307,0.152344,0.198242,0.181884,-0.021350,-0.118999,0.999869,0.007375,-0.006364,0.012935,0.247251,0.527909,-0.602635,0.544986
55249,NaN,29.076920,-4.890702,-4.935506,-6.623427,-5.627501,18.790420,1.721077,-1.292036,2.602624,-0.915283,0.175781,0.210693,0.291682,-0.044699,-0.047869,0.999857,0.008605,-0.006460,0.013013,0.231706,0.525661,-0.606326,0.549874
55250,NaN,35.615426,-6.828006,2.442697,-5.874678,-15.181055,22.683288,1.908522,-0.977315,2.812866,-0.905762,0.214355,0.212402,0.356947,-0.063504,0.025549,0.999844,0.009542,-0.004886,0.014064,0.212688,0.521287,-0.611611,0.555838
55251,NaN,30.176129,-1.227120,4.126563,-8.987952,-15.797632,14.656090,1.936037,-0.801431,3.067257,-0.891602,0.239990,0.214111,0.301738,-0.008050,0.042383,0.999828,0.009680,-0.004007,0.015335,0.196647,0.516125,-0.614973,0.562808
55252,NaN,30.190838,-2.797909,3.530890,-8.662030,-15.461895,15.039102,1.431928,-0.620300,3.151392,-0.884033,0.270020,0.213623,0.302191,-0.023475,0.036067,0.999845,0.007159,-0.003101,0.015756,0.179309,0.508747,-0.621377,0.568257
55253,NaN,29.429066,0.545745,1.710420,-12.482386,-14.337975,12.722674,1.818903,-0.377076,3.037230,-0.872314,0.306396,0.206787,0.294131,0.009766,0.017735,0.999842,0.009094,-0.001885,0.015185,0.164869,0.501954,-0.624176,0.575556
55254,NaN,27.443623,5.907005,1.048668,-16.856822,-14.083317,7.697307,1.950441,-0.235919,2.828443,-0.862549,0.336426,0.199951,0.273552,0.062835,0.011410,0.999852,0.009752,-0.001180,0.014142,0.148679,0.494572,-0.627245,0.582973
55255,NaN,27.290712,8.865101,0.599258,-19.721997,-14.354155,5.309246,2.269099,-0.272688,2.846701,-0.854980,0.362305,0.195312,0.271600,0.092445,0.007398,0.999833,0.011345,-0.001363,0.014233,0.133906,0.488066,-0.627771,0.591408
55256,NaN,23.135649,11.811281,1.644800,-19.801152,-14.217988,-0.692210,2.732238,-0.332820,2.699452,-0.843018,0.390137,0.177734,0.229707,0.120978,0.018471,0.999814,0.013660,-0.001664,0.013496,0.116275,0.481703,-0.627541,0.600529
55257,NaN,14.248841,11.217352,4.700404,-13.462462,-12.903806,-8.026974,3.161881,-0.274426,1.748734,-0.837158,0.409424,0.162598,0.141438,0.112649,0.048977,0.999836,0.015809,-0.001372,0.008743,0.102544,0.478822,-0.622319,0.610682
55258,NaN,6.975746,2.267295,6.797147,-2.082118,-9.597295,-7.926631,3.460541,0.057132,1.231537,-0.835449,0.426514,0.145264,0.069640,0.021922,0.068335,0.999831,0.017302,0.000286,0.006157,0.089181,0.476041,-0.615458,0.621806
55259,NaN,6.761653,-5.952638,2.387685,1.650000,-3.841353,-1.483593,2.464411,0.242356,0.998639,-0.835938,0.441650,0.129883,0.067942,-0.059475,0.023062,0.999911,0.012322,0.001212,0.004993,0.080963,0.473295,-0.610014,0.630333
55260,NaN,11.221882,0.368332,-1.876317,-7.315568,-3.857932,-1.990738,1.662180,0.442144,1.302654,-0.834229,0.452393,0.114746,0.112149,0.004571,-0.018976,0.999942,0.008311,0.002211,0.006513,0.072960,0.468039,-0.608441,0.636723
55261,NaN,10.517941,6.581976,-5.248951,-12.855810,-2.209161,-6.444705,0.746887,0.679009,1.628694,-0.834717,0.469482,0.105957,0.104459,0.066869,-0.052597,0.999954,0.003734,0.003395,0.008143,0.068103,0.461197,-0.609604,0.641126
55262,NaN,16.592426,3.155553,-1.471341,-12.315293,-7.407980,-0.819671,-0.756593,0.689572,2.142826,-0.820312,0.486572,0.103760,0.165522,0.033273,-0.015408,0.999930,-0.003783,0.003448,0.010714,0.063943,0.451802,-0.617378,0.640804
55263,NaN,22.624106,4.681268,-1.610604,-17.212936,-10.349608,1.716667,-2.017270,1.132170,2.376443,-0.812256,0.501709,0.103516,0.225567,0.049321,-0.017873,0.999863,-0.010086,0.005661,0.011882,0.064385,0.440156,-0.628768,0.637783
55264,NaN,21.700160,10.127484,-1.914420,-20.700705,-10.347504,-3.372925,-3.727325,1.149853,2.911645,-0.800049,0.525146,0.109619,0.215378,0.104022,-0.022307,0.999704,-0.018635,0.005749,0.014557,0.066062,0.425875,-0.647009,0.629003
55265,NaN,12.333573,7.930794,-3.658943,-14.502832,-3.628870,-7.603943,-1.813105,1.343964,3.047182,-0.794434,0.550781,0.100586,0.121859,0.080831,-0.038140,0.999820,-0.009065,0.006719,0.015235,0.064687,0.411141,-0.658645,0.626870
55266,NaN,13.938647,-3.910805,-8.057520,-10.251023,1.097547,3.156884,-1.729811,0.534882,2.866441,-0.778076,0.572266,0.111084,0.139719,-0.037804,-0.080618,0.999856,-0.008649,0.002674,0.014332,0.060469,0.399538,-0.670039,0.622704
55267,NaN,16.959143,1.595576,-7.290982,-15.552795,-1.547370,0.137977,-0.994273,-0.308460,3.102690,-0.770508,0.597900,0.117188,0.169433,0.018223,-0.072735,0.999866,-0.004971,-0.001542,0.015513,0.051764,0.389775,-0.679343,0.619588
55268,NaN,15.545938,5.423165,-1.695213,-14.722830,-6.157752,-5.424163,0.812107,-0.210297,3.004849,-0.756104,0.621582,0.102051,0.154638,0.056627,-0.016563,0.999878,0.004060,-0.001051,0.015024,0.039764,0.380727,-0.682943,0.622138
55269,NaN,14.791921,8.732380,-1.791621,-16.185122,-5.971849,-9.025142,1.503834,-0.226305,2.841774,-0.737549,0.645020,0.097412,0.146677,0.089544,-0.017082,0.999870,0.007519,-0.001131,0.014208,0.027293,0.372003,-0.683637,0.627303
55270,NaN,15.067044,10.766252,-1.869825,-17.471587,-6.280326,-11.114961,1.622364,-0.778796,2.706314,-0.733887,0.664307,0.090820,0.149263,0.109832,-0.017230,0.999868,0.008111,-0.003894,0.013531,0.012975,0.365903,-0.683791,0.631171
55271,NaN,16.335433,11.446449,0.181437,-17.696866,-8.918268,-12.081918,2.057361,-1.016370,2.646925,-0.715088,0.683594,0.077637,0.161805,0.116580,0.003831,0.999847,0.010286,-0.005082,0.013234,-0.002609,0.360165,-0.682109,0.636397
55272,NaN,15.496289,8.637006,-1.985276,-16.557758,-6.661410,-10.148381,1.969455,-0.963461,2.561418,-0.707275,0.707275,0.071045,0.153929,0.088531,-0.018245,0.999858,0.009847,-0.004817,0.012806,-0.017476,0.355164,-0.680446,0.640739
55273,NaN,13.122719,8.338696,-4.088859,-15.555324,-3.863098,-11.053100,2.615883,-1.070568,2.448833,-0.692871,0.726562,0.055664,0.130401,0.085506,-0.039080,0.999825,0.013079,-0.005353,0.012243,-0.033596,0.350000,-0.676209,0.647390
55274,NaN,12.192561,6.202852,-4.258730,-13.926482,-3.358189,-9.950120,3.652555,-1.233057,2.208986,-0.689209,0.743652,0.029785,0.121480,0.064127,-0.040679,0.999753,0.018261,-0.006165,0.011044,-0.050991,0.346770,-0.667937,0.656514
55275,NaN,12.996158,5.717404,-1.463432,-12.758590,-6.395289,-9.982564,4.271244,-1.019383,1.863067,-0.685059,0.754395,0.008301,0.129488,0.058667,-0.012731,0.999716,0.021354,-0.005096,0.009314,-0.067890,0.342736,-0.656704,0.668328
55276,NaN,15.845136,7.202628,-0.821902,-14.914568,-8.969292,-10.656529,3.734394,-0.641912,1.344888,-0.678711,0.754639,-0.019531,0.157984,0.073220,-0.006352,0.999798,0.018671,-0.003209,0.006724,-0.080436,0.340237,-0.646217,0.678360
55277,NaN,15.932111,7.627786,-3.541853,-16.497406,-7.119257,-11.116168,2.562915,-0.649845,0.974929,-0.683105,0.756836,-0.030273,0.159057,0.077495,-0.033914,0.999901,0.012814,-0.003249,0.004874,-0.090183,0.338257,-0.638864,0.685056
55278,NaN,16.643798,8.427991,-6.827580,-19.071800,-5.245030,-11.658921,1.888328,-0.658404,0.600972,-0.693604,0.752441,-0.045410,0.166404,0.085416,-0.066925,0.999945,0.009441,-0.003292,0.003005,-0.096898,0.339013,-0.633053,0.689148
55279,NaN,13.416031,7.086389,-5.991130,-15.683035,-4.073326,-11.696200,1.707008,-0.355414,-0.012349,-0.703857,0.741943,-0.051758,0.134270,0.071362,-0.059065,0.999962,0.008535,-0.001777,-0.000062,-0.100859,0.339467,-0.626960,0.693910
55280,NaN,9.614629,2.711062,-6.026469,-11.571413,-1.168945,-8.893466,0.830105,-0.250367,-0.635857,-0.718506,0.729004,-0.051514,0.096308,0.027054,-0.060032,0.999986,0.004151,-0.001252,-0.003179,-0.100052,0.343407,-0.622794,0.695837
55281,NaN,7.809189,0.318841,-5.195594,-9.019331,-0.346728,-7.241728,0.104922,-0.201094,-1.372410,-0.730469,0.703369,-0.046875,0.078164,0.002679,-0.051876,0.999976,0.000525,-0.001005,-0.006862,-0.096068,0.348350,-0.619963,0.696469
55282,NaN,5.219419,-0.290760,-4.304907,-6.339099,0.550108,-7.495224,-0.363393,0.002856,-2.406613,-0.753418,0.679688,-0.042480,0.052153,-0.003614,-0.043044,0.999926,-0.001817,0.000014,-0.012033,-0.086187,0.357540,-0.616886,0.695837
55283,NaN,2.135640,-1.215488,-5.505780,-4.452776,3.483127,-7.717193,-0.959138,0.008198,-3.442892,-0.773438,0.634766,-0.043945,0.021138,-0.012784,-0.054998,0.999840,-0.004795,0.000041,-0.017214,-0.072442,0.368517,-0.613978,0.694246
55284,NaN,2.250398,-2.964996,-6.356404,-4.296634,4.566451,-5.947175,-1.199775,-0.142027,-4.181811,-0.797852,0.593994,-0.026367,0.021917,-0.030493,-0.063367,0.999763,-0.005998,-0.000710,-0.020907,-0.055298,0.383788,-0.610092,0.690968
55285,NaN,3.305406,-3.282571,-6.124555,-4.575214,3.974785,-5.072096,-1.132399,-0.176899,-4.886876,-0.817871,0.549072,-0.017334,0.032287,-0.033967,-0.061027,0.999685,-0.005661,-0.000884,-0.024432,-0.036751,0.399527,-0.604391,0.688287
55286,NaN,4.503686,-2.385695,-5.796847,-5.338165,2.943382,-5.078770,-0.828939,-0.158934,-5.532847,-0.848389,0.499756,-0.010254,0.044396,-0.025331,-0.057830,0.999608,-0.004144,-0.000795,-0.027661,-0.015751,0.418377,-0.595733,0.685430
55287,NaN,5.698700,-1.095968,-4.752884,-5.877823,1.234515,-5.320312,-0.654622,-0.230421,-6.024701,-0.872070,0.437744,-0.007324,0.056674,-0.012826,-0.047423,0.999540,-0.003273,-0.001152,-0.030119,0.005600,0.436998,-0.585088,0.683135
55288,NaN,7.582641,-0.980076,-3.924849,-6.309759,-0.279715,-3.986237,-0.757467,-0.391339,-6.430529,-0.885010,0.379883,0.001953,0.075532,-0.012381,-0.039057,0.999474,-0.003787,-0.001956,-0.032147,0.028795,0.458480,-0.573053,0.678659
55289,NaN,8.593101,-1.976160,-3.533590,-5.705266,-0.553353,-2.240102,-0.933333,-0.510435,-6.727743,-0.902588,0.322021,0.011475,0.085288,-0.022802,-0.035016,0.999420,-0.004666,-0.002552,-0.033632,0.052298,0.479112,-0.560545,0.673429
55290,NaN,9.375295,-0.854133,-3.015686,-5.998471,-1.526778,-2.107626,-1.127527,-0.522339,-6.928086,-0.913330,0.261963,0.025146,0.093457,-0.011951,-0.029852,0.999381,-0.005636,-0.002611,-0.034633,0.077542,0.501258,-0.547141,0.665856
55291,NaN,10.823400,0.415417,-2.644366,-6.790178,-2.716194,-1.400126,-1.551486,-0.507896,-7.159215,-0.924072,0.197754,0.036621,0.108352,0.000073,-0.026180,0.999326,-0.007756,-0.002539,-0.035788,0.103838,0.521616,-0.534198,0.657090
55292,NaN,12.186436,-0.005561,-2.812253,-6.506495,-2.682227,0.522291,-2.010051,-0.504340,-7.428800,-0.930420,0.135498,0.048340,0.121814,-0.004862,-0.027782,0.999257,-0.010048,-0.002521,-0.037135,0.132790,0.543198,-0.520753,0.645073
55293,NaN,13.718534,-1.203842,-2.992912,-5.475756,-2.241925,2.973588,-2.082726,-0.466182,-7.720564,-0.934326,0.060547,0.055908,0.136646,-0.017630,-0.029446,0.999198,-0.010411,-0.002330,-0.038593,0.162042,0.563004,-0.506399,0.632715
55294,NaN,15.121726,-3.604045,-3.681393,-3.320618,-0.650583,5.795414,-1.795679,-0.478945,-8.074007,-0.929932,-0.003906,0.065430,0.149677,-0.042431,-0.036092,0.999142,-0.008976,-0.002394,-0.040358,0.192025,0.584466,-0.488614,0.618693
55295,NaN,18.004163,-5.212385,-2.407709,-0.750671,-1.284082,9.020515,-0.597593,-0.301135,-8.475925,-0.931641,-0.081055,0.077393,0.177652,-0.059759,-0.023637,0.999097,-0.002987,-0.001505,-0.042367,0.219097,0.605018,-0.465550,0.607629
55296,NaN,19.698507,-4.941265,-3.356742,-0.218340,-0.295006,10.761981,0.049702,-0.427419,-8.769456,-0.918457,-0.149658,0.080566,0.194639,-0.057975,-0.033163,0.999037,0.000248,-0.002136,-0.043833,0.245051,0.627531,-0.438095,0.595170
55297,NaN,22.855519,-11.923247,-5.347463,5.992854,5.026092,15.317649,0.231177,-0.680069,-8.846803,-0.902832,-0.229004,0.098877,0.223169,-0.129124,-0.052855,0.999015,0.001156,-0.003399,-0.044219,0.268938,0.648610,-0.410060,0.582089
55298,NaN,22.286122,-20.828672,-3.721452,16.165284,9.742148,14.426692,0.915201,-0.587538,-8.782626,-0.881104,-0.297607,0.113037,0.213549,-0.217631,-0.037560,0.999021,0.004575,-0.002937,-0.043899,0.290574,0.670114,-0.378472,0.568572
55299,NaN,22.006627,-24.783594,-1.718946,21.872460,11.812578,12.162304,1.911252,-0.726036,-8.343983,-0.853271,-0.357666,0.126709,0.209548,-0.256552,-0.018840,0.999078,0.009553,-0.003629,-0.041707,0.306272,0.690135,-0.345796,0.557079
55300,NaN,20.428074,-23.483024,-0.736147,22.102977,11.999761,8.525230,2.162970,-0.727429,-7.715383,-0.829834,-0.415771,0.142822,0.195057,-0.242382,-0.009235,0.999191,0.010812,-0.003636,-0.038567,0.318957,0.709226,-0.313311,0.545070
55301,NaN,20.136843,-27.057692,-2.916977,24.182019,17.217320,6.450586,1.848058,-0.752362,-6.720663,-0.798096,-0.465088,0.169434,0.192248,-0.276859,-0.030974,0.999386,0.009238,-0.003761,-0.033596,0.329372,0.724325,-0.285453,0.534213
55302,NaN,19.228348,-29.305143,-5.226485,24.525655,21.605124,3.870130,2.031963,-0.942805,-5.818891,-0.775391,-0.503906,0.189453,0.183915,-0.297939,-0.054395,0.999514,0.010158,-0.004713,-0.029090,0.335848,0.738923,-0.259917,0.523108
55303,NaN,18.777110,-30.301248,-4.774267,25.311581,22.870825,1.569665,2.227865,-1.172013,-4.773651,-0.746582,-0.529541,0.211426,0.180766,-0.306834,-0.050074,0.999636,0.011138,-0.005859,-0.023865,0.338488,0.751672,-0.238326,0.513435
55304,NaN,16.082332,-32.236957,-0.821688,27.884245,21.981621,-3.675079,1.767823,-1.192602,-3.550268,-0.722412,-0.544678,0.228760,0.155125,-0.325073,-0.010146,0.999786,0.008838,-0.005963,-0.017750,0.338816,0.762456,-0.222223,0.504461
55305,NaN,11.630001,-34.374460,1.170918,28.509749,22.480183,-9.819219,1.438320,-1.089177,-2.205353,-0.708984,-0.562012,0.248535,0.112443,-0.345074,0.009850,0.999899,0.007191,-0.005446,-0.011026,0.337683,0.770021,-0.212007,0.498088
55306,NaN,7.724183,-31.664309,2.452056,25.548665,20.084717,-13.298911,1.399845,-0.891411,-0.882892,-0.707275,-0.551270,0.263428,0.075739,-0.317143,0.022642,0.999956,0.006999,-0.004457,-0.004414,0.332474,0.776036,-0.206708,0.494471
55307,NaN,3.790753,-23.566371,2.414915,18.372117,14.737775,-14.376957,1.266569,-0.756676,0.198527,-0.711670,-0.549072,0.278320,0.038054,-0.235773,0.022800,0.999972,0.006333,-0.003783,0.000993,0.326310,0.779793,-0.205594,0.493128
55308,NaN,4.092856,-19.634994,3.644385,16.680197,11.256059,-13.073661,0.592019,-0.603607,1.148675,-0.718506,-0.534180,0.286621,0.041947,-0.196218,0.035988,0.999975,0.002960,-0.003018,0.005743,0.319184,0.781469,-0.209892,0.493328
55309,NaN,6.902151,-22.610527,6.366422,21.570019,11.385189,-11.935042,0.220025,-0.542022,1.907827,-0.725830,-0.510498,0.296875,0.071002,-0.225504,0.063607,0.999950,0.001100,-0.002710,0.009539,0.313067,0.781125,-0.217653,0.494429
55310,NaN,-2.787585,-41.275419,-23.772592,10.820082,46.145483,-15.278077,0.041318,-1.561246,3.000735,-0.741699,-0.491455,0.322266,-0.019823,-0.413043,-0.237987,0.999857,0.000207,-0.007806,0.015003,0.302196,0.781977,-0.232135,0.493257
55311,NaN,35.940004,-68.821356,-21.484794,47.204479,60.268702,15.229436,-1.108754,-1.767483,5.689203,-0.777832,-0.444092,0.321289,0.380657,-0.678751,-0.207765,0.999541,-0.005543,-0.008836,0.028442,0.290343,0.777710,-0.259670,0.493396
55312,NaN,43.551959,-48.678254,26.648901,65.947514,7.879960,13.897372,-2.652802,1.120112,8.293847,-0.802979,-0.394775,0.305420,0.456603,-0.464566,0.270232,0.999037,-0.013260,0.005599,0.041456,0.278915,0.759988,-0.297342,0.506174
55313,NaN,54.290978,-13.745834,20.052098,37.427844,-15.950516,33.563005,-1.512163,1.438952,7.650131,-0.839600,-0.332520,0.291504,0.549025,-0.115031,0.197511,0.999214,-0.007559,0.007193,0.038241,0.267253,0.742285,-0.327988,0.519627
55314,NaN,14.229924,27.243469,41.271962,5.722196,-51.114515,-8.502072,-4.245911,1.131304,6.769976,-0.860352,-0.291748,0.275879,0.135084,0.285757,0.405968,0.999186,-0.021224,0.005655,0.033841,0.264523,0.721884,-0.363465,0.526122
55315,NaN,24.044011,3.714078,-5.466766,-2.310166,-4.223130,14.651036,-5.731897,-0.051431,6.704284,-0.878906,-0.250977,0.255859,0.239065,0.043583,-0.055794,0.999028,-0.028650,-0.000257,0.033511,0.267251,0.701574,-0.402443,0.523842
55316,NaN,22.131009,-15.051175,-6.179539,12.096472,5.933139,14.120873,-5.382640,0.209960,5.404097,-0.888672,-0.216553,0.259521,0.225235,-0.146056,-0.058059,0.999272,-0.026907,0.001050,0.027014,0.270101,0.682218,-0.435933,0.521139
55317,NaN,13.319709,-22.986024,-14.736406,14.094811,18.418353,9.806219,-1.338436,-0.442010,4.640905,-0.900635,-0.180176,0.246094,0.138820,-0.227660,-0.145533,0.999706,-0.006692,-0.002210,0.023202,0.261556,0.671265,-0.455720,0.522792
55318,NaN,0.023239,-2.012603,7.330801,5.185359,-5.177958,-11.835626,-0.294022,-0.455539,4.348635,-0.904053,-0.145752,0.256348,0.000501,-0.020009,0.073338,0.999760,-0.001470,-0.002278,0.021741,0.247754,0.661737,-0.472629,0.526635
55319,NaN,2.427961,-7.853662,2.182491,7.937591,0.577669,-6.814257,-0.993068,-0.640182,3.816871,-0.907471,-0.111572,0.257812,0.025700,-0.077945,0.022294,0.999800,-0.004965,-0.003201,0.019083,0.239449,0.653059,-0.488574,0.526758
55320,NaN,6.227429,-8.634958,-7.346045,4.056855,7.022225,0.263275,-0.718984,-0.824659,3.306723,-0.906250,-0.087891,0.263916,0.063995,-0.085564,-0.072890,0.999848,-0.003595,-0.004123,0.016533,0.228744,0.645846,-0.503197,0.526641
55321,NaN,13.142332,-7.571097,-5.281237,3.412619,1.756232,5.781701,0.308650,-1.007365,2.752708,-0.902832,-0.060059,0.270020,0.132712,-0.073809,-0.052261,0.999891,0.001543,-0.005037,0.013763,0.217959,0.641876,-0.512375,0.527220
55322,NaN,11.758981,-7.104967,-2.941068,3.834364,-0.090004,3.703290,0.740985,-0.934046,2.485435,-0.903809,-0.034424,0.282471,0.118596,-0.069472,-0.029118,0.999905,0.003705,-0.004670,0.012427,0.204286,0.638354,-0.520335,0.529171
55323,NaN,12.199549,-5.697072,-3.610266,1.971478,-0.512313,3.977170,0.650045,-0.670102,2.354043,-0.900146,-0.012939,0.288574,0.122774,-0.055412,-0.035874,0.999920,0.003250,-0.003350,0.011770,0.194241,0.634636,-0.526776,0.531050
55324,NaN,11.431581,-1.258034,-5.241007,-2.878466,-0.732436,2.471543,0.468582,-0.627213,2.287325,-0.900879,0.006348,0.292480,0.114612,-0.011148,-0.052078,0.999927,0.002343,-0.003136,0.011436,0.182725,0.630284,-0.534267,0.532835
55325,NaN,15.661741,-5.908255,-8.236528,-1.116682,1.100442,8.776746,0.339561,-0.532105,2.074212,-0.897217,0.021240,0.298828,0.157436,-0.057313,-0.082045,0.999941,0.001698,-0.002660,0.010371,0.174714,0.626454,-0.540359,0.533894
55326,NaN,18.587730,-4.192067,-7.397412,-3.049431,-1.929068,10.306004,0.922086,-0.428896,1.956238,-0.889404,0.044922,0.300537,0.186432,-0.039759,-0.073761,0.999939,0.004610,-0.002144,0.009781,0.163215,0.622693,-0.545198,0.537005
55327,NaN,18.434350,-1.860383,-6.463090,-4.914535,-3.644637,8.831502,1.147485,-0.410992,1.931712,-0.887939,0.066162,0.304688,0.184642,-0.016452,-0.064350,0.999935,0.005737,-0.002055,0.009658,0.153341,0.619448,-0.548437,0.540359
55328,NaN,19.805329,-2.816490,-5.104720,-4.098924,-5.364260,9.697515,1.291734,-0.367160,1.935584,-0.891113,0.092041,0.297852,0.198405,-0.025917,-0.050855,0.999931,0.006459,-0.001836,0.009678,0.141002,0.615695,-0.551929,0.544437
55329,NaN,20.627096,-0.989948,-2.949449,-5.042586,-8.322615,8.638474,1.507290,-0.267527,1.987965,-0.882812,0.102783,0.295410,0.206394,-0.007627,-0.029282,0.999921,0.007536,-0.001338,0.009940,0.130216,0.611973,-0.554098,0.549098
55330,NaN,21.737509,0.801821,-2.181115,-6.758011,-10.397937,8.190410,1.612525,-0.174214,2.088545,-0.872803,0.128418,0.288818,0.217293,0.010462,-0.021544,0.999913,0.008062,-0.000871,0.010442,0.117146,0.607258,-0.556778,0.554539
55331,NaN,21.417852,1.345838,-2.215662,-7.506839,-10.591739,7.417690,1.745875,-0.121474,2.169363,-0.867432,0.158447,0.292725,0.214028,0.015972,-0.021894,0.999903,0.008729,-0.000607,0.010846,0.105495,0.602542,-0.558548,0.560213
55332,NaN,20.923829,3.152119,-2.299035,-9.241570,-11.141622,5.790616,2.015210,-0.104038,2.213276,-0.861816,0.179932,0.275146,0.208883,0.034063,-0.022547,0.999888,0.010076,-0.000520,0.011066,0.091258,0.597228,-0.560109,0.566806
55333,NaN,19.473655,5.994248,-2.581141,-11.491177,-11.338447,2.883215,2.290469,-0.143629,2.177611,-0.853760,0.201172,0.274902,0.194085,0.062347,-0.024967,0.999875,0.011452,-0.000718,0.010888,0.077847,0.592531,-0.560123,0.573680
55334,NaN,18.566177,9.325762,-2.866736,-14.120875,-12.058142,-0.062483,2.122754,-0.158532,2.229925,-0.843750,0.222656,0.263916,0.184627,0.095616,-0.027514,0.999881,0.010613,-0.000793,0.011149,0.063312,0.587091,-0.561072,0.580098
