// Start Time: Unknown
// Update Rate: 100.0Hz
// Filter Profile: human (46.1)
// Firmware Version: 4.4.0
PacketCounter,SampleTimeFine,Acc_X,Acc_Y,Acc_Z,FreeAcc_X,FreeAcc_Y,FreeAcc_Z,Gyr_X,Gyr_Y,Gyr_Z,Mag_X,Mag_Y,Mag_Z,VelInc_X,VelInc_Y,VelInc_Z,OriInc_q0,OriInc_q1,OriInc_q2,OriInc_q3,Quat_q0,Quat_q1,Quat_q2,Quat_q3
55033,NaN,16.876998,11.976404,-0.602430,0.000000,0.000000,10.890251,-1.758235,-0.134922,2.139304,-0.807861,0.286377,0.473145,0.167481,0.121502,-0.006974,0.999904,-0.008791,-0.000675,0.010696,0.120885,-0.499629,-0.516928,-0.684502
55034,NaN,15.771739,6.890768,-4.336254,-0.622141,-2.643873,7.727321,-1.331530,-0.362811,1.677641,-0.797607,0.297119,0.481689,0.157212,0.069938,-0.043540,0.999941,-0.006658,-0.001814,0.008388,0.190234,-0.601249,-0.437494,-0.641022
55035,NaN,17.043998,4.481100,-12.706062,-7.643374,-7.697445,9.011448,-0.887280,-0.432286,1.594328,-0.784912,0.303467,0.490234,0.170353,0.045606,-0.126894,0.999956,-0.004436,-0.002161,0.007972,0.191723,-0.606939,-0.430250,-0.640119
55036,NaN,18.635303,9.015539,-6.062274,-0.172401,-4.490320,11.284952,-1.152614,-0.560442,1.221983,-0.783203,0.316406,0.498535,0.185969,0.090943,-0.060624,0.999961,-0.005763,-0.002802,0.006110,0.188439,-0.615375,-0.424533,-0.636848
55037,NaN,13.958347,-1.818423,-3.543355,-5.929370,2.251989,3.243613,-1.206585,-0.506613,1.001629,-0.772461,0.314209,0.509277,0.139762,-0.017696,-0.034972,0.999966,-0.006033,-0.002533,0.005008,0.186834,-0.620230,-0.418072,-0.636885
55038,NaN,16.340096,-3.425500,-1.249349,-5.859515,5.657861,4.814190,-0.397777,-0.424299,1.004468,-0.759766,0.320557,0.515869,0.163596,-0.033458,-0.012079,0.999983,-0.001989,-0.002121,0.005022,0.188761,-0.625673,-0.416014,-0.632325
55039,NaN,22.739120,-0.568753,7.462411,1.118586,12.341825,10.668953,-0.537435,-0.093413,1.278762,-0.751465,0.329102,0.515625,0.227386,-0.004033,0.074743,0.999976,-0.002687,-0.000467,0.006394,0.190924,-0.629120,-0.410393,-0.631928
55040,NaN,22.202281,3.815627,4.258534,3.108099,6.160128,12.050837,-1.220434,-0.113607,1.600093,-0.749512,0.335449,0.519775,0.221683,0.040190,0.042470,0.999949,-0.006102,-0.000568,0.008000,0.194280,-0.638915,-0.381254,-0.639287
55041,NaN,12.002342,-0.362324,-0.782986,-2.001250,2.486602,1.789441,-1.182354,-0.488051,1.566240,-0.740967,0.335449,0.526367,0.120066,-0.002728,-0.007519,0.999949,-0.005912,-0.002440,0.007831,0.194569,-0.644577,-0.372926,-0.638428
55042,NaN,7.240811,-7.477106,-2.729054,-7.691339,4.625838,-3.877508,-0.690358,-0.673091,1.437623,-0.732422,0.335449,0.537109,0.073034,-0.074341,-0.026788,0.999963,-0.003452,-0.003365,0.007188,0.197459,-0.654442,-0.336488,-0.647682
55043,NaN,8.593872,-7.480264,-2.782738,-7.701536,4.856170,-2.419840,-0.188545,-0.651774,1.271197,-0.728760,0.354736,0.543213,0.086502,-0.074280,-0.027476,0.999974,-0.000943,-0.003259,0.006356,0.199857,-0.658860,-0.332352,-0.644594
55044,NaN,9.267913,-4.324130,-4.320372,-6.301717,1.536854,-0.802533,0.111989,-0.555292,1.062298,-0.720459,0.365479,0.541016,0.093026,-0.042724,-0.042970,0.999982,0.000560,-0.002776,0.005311,0.205898,-0.670277,-0.288883,-0.651829
55045,NaN,9.016096,-3.037970,-4.726530,-5.668168,0.243547,-0.830985,0.109668,-0.456994,0.887060,-0.716309,0.369629,0.543213,0.090402,-0.029953,-0.047075,0.999987,0.000548,-0.002285,0.004435,0.208494,-0.672927,-0.286735,-0.649217
55046,NaN,7.844501,-4.184995,-4.245123,-5.762696,1.154815,-1.905180,0.105650,-0.358461,0.701873,-0.712158,0.371826,0.545166,0.078667,-0.041552,-0.042332,0.999992,0.000528,-0.001792,0.003509,0.214384,-0.682843,-0.251732,-0.651457
55047,NaN,8.427296,-4.532637,-3.055891,-4.985490,2.176993,-1.368287,0.031387,-0.235838,0.520465,-0.714355,0.375977,0.542969,0.084426,-0.045102,-0.030467,0.999996,0.000157,-0.001179,0.002602,0.215888,-0.684230,-0.250309,-0.650052
55048,NaN,9.581849,-5.020785,-2.254977,-4.248764,2.907906,-0.035317,-0.047905,-0.106774,0.376650,-0.705811,0.375977,0.542969,0.095925,-0.050033,-0.022487,0.999998,-0.000240,-0.000534,0.001883,0.219812,-0.693010,-0.219801,-0.650468
55049,NaN,9.504795,-4.685221,-1.813834,-3.674565,2.878322,-0.127896,-0.047024,-0.030471,0.254447,-0.710449,0.382568,0.542969,0.095110,-0.046735,-0.018113,0.999999,-0.000235,-0.000152,0.001272,0.220443,-0.693439,-0.218800,-0.650133
55050,NaN,9.546921,-4.091319,-1.952678,-3.113837,2.039490,0.078724,-0.075650,0.000296,0.167151,-0.708252,0.380371,0.547363,0.095503,-0.040841,-0.019511,1.000000,-0.000378,0.000001,0.000836,0.224418,-0.700505,-0.189121,-0.650510
55051,NaN,9.608727,-4.381508,-1.922475,-3.237339,2.285389,0.163172,-0.000790,0.010055,0.101198,-0.710449,0.384521,0.547119,0.096108,-0.043767,-0.019229,1.000000,-0.000004,0.000050,0.000506,0.224754,-0.700569,-0.188752,-0.650432
55052,NaN,9.415893,-3.919873,-1.872253,-2.656170,1.680216,0.069185,0.121070,0.011450,0.038349,-0.708252,0.384521,0.542969,0.094165,-0.039169,-0.018752,1.000000,0.000605,0.000057,0.000192,0.228908,-0.707242,-0.163320,-0.648642
55053,NaN,9.318884,-3.198968,-1.797413,-2.224962,1.112129,-0.111224,0.168589,0.009695,0.015973,-0.706055,0.382568,0.542969,0.093191,-0.031967,-0.018006,1.000000,0.000843,0.000048,0.000080,0.229564,-0.707030,-0.163799,-0.648520
55054,NaN,9.413975,-2.509532,-1.756375,-1.574012,0.314403,-0.043902,0.168104,-0.015641,0.012090,-0.708252,0.386719,0.544922,0.094143,-0.025075,-0.017577,1.000000,0.000841,-0.000078,0.000060,0.233446,-0.713366,-0.143220,-0.645058
55055,NaN,9.525881,-2.003396,-1.940849,-1.460488,-0.227548,0.002510,0.106870,-0.009108,0.040610,-0.701660,0.382568,0.542969,0.095264,-0.020004,-0.019415,1.000000,0.000534,-0.000046,0.000203,0.233952,-0.713300,-0.143430,-0.644902
55056,NaN,9.243479,-2.272224,-2.246651,-1.686042,-0.275602,-0.182856,0.053169,-0.035063,0.068033,-0.701904,0.384521,0.542969,0.092446,-0.022685,-0.022456,1.000000,0.000266,-0.000175,0.000340,0.237052,-0.719308,-0.129723,-0.639980
55057,NaN,9.353715,-2.804342,-2.167174,-1.854586,0.199053,0.014512,0.122064,-0.076447,0.098128,-0.708496,0.388916,0.547119,0.093559,-0.027984,-0.021653,1.000000,0.000610,-0.000382,0.000491,0.237756,-0.719471,-0.129852,-0.639509
55058,NaN,9.373694,-2.626538,-1.991657,-1.398463,0.021274,0.024760,0.214674,-0.097552,0.139939,-0.706299,0.393311,0.540771,0.093765,-0.026178,-0.019899,0.999999,0.001073,-0.000488,0.000700,0.241605,-0.725360,-0.120707,-0.633174
55059,NaN,9.212889,-2.111194,-2.047831,-1.211740,-0.442101,-0.228103,0.254279,-0.110146,0.193915,-0.706543,0.395264,0.538574,0.092161,-0.020997,-0.020454,0.999999,0.001271,-0.000551,0.000970,0.243074,-0.725518,-0.120942,-0.632386
55060,NaN,9.221134,-1.798194,-2.194107,-0.983531,-0.920854,-0.259598,0.248934,-0.135691,0.273125,-0.704346,0.397461,0.538574,0.092251,-0.017829,-0.021901,0.999998,0.001245,-0.000678,0.001366,0.246774,-0.731237,-0.109358,-0.626447
55061,NaN,9.347958,-1.807449,-2.389808,-1.105738,-1.055346,-0.115996,0.238109,-0.173235,0.353016,-0.700439,0.403809,0.542725,0.093532,-0.017881,-0.023838,0.999997,0.001191,-0.000866,0.001765,0.248655,-0.731677,-0.109027,-0.625247
55062,NaN,9.508957,-1.709132,-2.572704,-0.997352,-1.331977,0.045867,0.266504,-0.210956,0.443292,-0.698242,0.408203,0.540527,0.095154,-0.016846,-0.025649,0.999996,0.001333,-0.001055,0.002216,0.252633,-0.736745,-0.103930,-0.618532
55063,NaN,9.609738,-1.870134,-3.042789,-1.411012,-1.487755,0.232127,0.334760,-0.253435,0.539315,-0.689941,0.414551,0.538330,0.096186,-0.018391,-0.030337,0.999994,0.001674,-0.001267,0.002697,0.255401,-0.737382,-0.103298,-0.616739
55064,NaN,9.449939,-1.621592,-3.461764,-1.530315,-1.955099,0.074166,0.476573,-0.312075,0.643076,-0.685547,0.412354,0.544678,0.094605,-0.015830,-0.034508,0.999991,0.002383,-0.001560,0.003215,0.258808,-0.741586,-0.098174,-0.611090
55065,NaN,9.353106,-1.405142,-3.812719,-1.687314,-2.361419,-0.036814,0.625550,-0.398075,0.723026,-0.675537,0.429688,0.542480,0.093656,-0.013594,-0.037984,0.999987,0.003128,-0.001990,0.003615,0.263138,-0.742338,-0.097919,-0.608363
55066,NaN,9.448217,-1.553290,-4.049786,-1.776250,-2.387802,0.148459,0.791566,-0.432430,0.836688,-0.677979,0.440430,0.533691,0.094633,-0.014977,-0.040353,0.999981,0.003958,-0.002162,0.004183,0.268659,-0.745328,-0.103068,-0.601403
55067,NaN,8.471036,-1.220110,-3.176048,-1.049166,-2.125477,-0.997085,0.946443,-0.434040,0.962562,-0.669678,0.448730,0.542236,0.084836,-0.011643,-0.031632,0.999975,0.004732,-0.002170,0.004813,0.274850,-0.745840,-0.102907,-0.597989
55068,NaN,7.977752,-1.332883,-2.517892,-0.515592,-1.652120,-1.520252,0.876833,-0.524771,1.046902,-0.661377,0.459473,0.537842,0.079911,-0.012801,-0.025026,0.999973,0.004384,-0.002624,0.005234,0.280694,-0.750084,-0.102033,-0.590062
55069,NaN,9.541459,-3.180273,-2.421303,-0.798814,-0.445927,0.491575,0.746292,-0.523351,1.098680,-0.655273,0.470215,0.531250,0.095650,-0.031188,-0.024080,0.999975,0.003731,-0.002617,0.005493,0.286461,-0.751122,-0.100846,-0.586162
55070,NaN,10.209549,-3.833699,-1.907281,-0.345498,0.185341,1.251412,0.899322,-0.481507,1.179469,-0.645020,0.487305,0.526611,0.102365,-0.037648,-0.018997,0.999970,0.004497,-0.002408,0.005897,0.292817,-0.753777,-0.101506,-0.579460
55071,NaN,9.890807,-2.022884,-1.037023,1.253840,-0.838536,0.223178,0.977668,-0.471760,1.274184,-0.638916,0.495850,0.528809,0.099058,-0.019548,-0.010233,0.999965,0.004888,-0.002359,0.006371,0.299943,-0.754333,-0.100224,-0.575301
55072,NaN,10.423659,-1.713937,-1.375736,1.432267,-1.483515,0.638556,0.781021,-0.474403,1.392082,-0.628906,0.513184,0.530762,0.104385,-0.016360,-0.013575,0.999965,0.003905,-0.002372,0.006960,0.304871,-0.756421,-0.095739,-0.570714
55073,NaN,9.808407,-3.448753,-1.247112,0.591273,-0.022468,0.642052,0.669708,-0.425211,1.514130,-0.620605,0.528076,0.524170,0.098368,-0.033702,-0.012376,0.999963,0.003348,-0.002126,0.007571,0.311510,-0.757311,-0.092568,-0.566456
55074,NaN,9.086258,-5.365429,-2.290218,-1.265104,0.930159,0.870223,0.643556,-0.381763,1.555960,-0.610352,0.541016,0.526123,0.091320,-0.052871,-0.022899,0.999963,0.003218,-0.001909,0.007780,0.316781,-0.759989,-0.087423,-0.560735
55075,NaN,9.798133,-6.293260,-2.560760,-1.570922,1.184745,1.947033,0.806014,-0.327827,1.583725,-0.602051,0.551514,0.521729,0.098517,-0.062050,-0.025698,0.999959,0.004030,-0.001639,0.007919,0.324128,-0.760293,-0.084181,-0.556606
55076,NaN,11.563366,-5.816101,-2.684583,-0.602962,0.155317,3.391587,1.113363,-0.312364,1.624947,-0.585449,0.568848,0.512939,0.116142,-0.057069,-0.026984,0.999950,0.005567,-0.001562,0.008125,0.332299,-0.761683,-0.080719,-0.550364
55077,NaN,13.775433,-4.073627,-2.131093,1.664039,-1.608023,4.523881,1.403545,-0.329513,1.743372,-0.579590,0.585938,0.506348,0.138137,-0.039383,-0.021363,0.999936,0.007018,-0.001648,0.008717,0.342288,-0.760912,-0.078484,-0.545611
55078,NaN,12.890103,-0.727803,-0.982215,4.014478,-3.435520,2.007829,1.457190,-0.267081,1.918362,-0.565430,0.609619,0.490967,0.128975,-0.005970,-0.009697,0.999927,0.007286,-0.001335,0.009592,0.351902,-0.760354,-0.073641,-0.540929
55079,NaN,10.195820,-1.614488,-2.438688,1.513555,-3.131031,0.207770,1.073392,-0.272311,2.051688,-0.557129,0.618164,0.490967,0.102149,-0.014967,-0.024330,0.999932,0.005367,-0.001362,0.010258,0.361409,-0.759904,-0.069219,-0.535853
55080,NaN,9.605696,-5.252212,-4.201188,-1.722205,-1.589039,1.676783,0.868180,-0.313649,2.122011,-0.542725,0.637451,0.482178,0.096672,-0.051316,-0.042085,0.999933,0.004341,-0.001568,0.010610,0.369295,-0.760223,-0.063880,-0.530662
55081,NaN,11.477896,-7.086935,-4.703701,-2.025779,-1.393434,4.259842,1.175984,-0.356747,2.131479,-0.530273,0.654541,0.484131,0.115608,-0.069363,-0.047242,0.999924,0.005880,-0.001784,0.010657,0.379280,-0.759619,-0.059553,-0.524957
55082,NaN,15.142208,-5.577616,-4.152291,1.010020,-3.484750,6.449518,1.617523,-0.397333,2.183898,-0.509766,0.682373,0.462402,0.152099,-0.053781,-0.041662,0.999906,0.008087,-0.001987,0.010919,0.390902,-0.759342,-0.058553,-0.516882
55083,NaN,17.326555,-1.189004,-2.345237,5.772977,-6.318697,5.479552,1.748829,-0.466804,2.382199,-0.495117,0.693115,0.455811,0.173443,-0.009622,-0.023138,0.999888,0.008744,-0.002334,0.011911,0.403519,-0.757740,-0.054934,-0.509887
55084,NaN,18.870961,-0.865196,-1.989876,7.209998,-7.032073,6.292080,1.537775,-0.580613,2.612535,-0.469971,0.718750,0.442627,0.188857,-0.006035,-0.019404,0.999881,0.007689,-0.002903,0.013062,0.413329,-0.757614,-0.050527,-0.502621
55085,NaN,21.052672,-3.136243,-2.283001,7.332049,-6.821498,9.106546,1.450065,-0.639694,2.804116,-0.453369,0.738037,0.433838,0.211009,-0.028243,-0.022368,0.999870,0.007250,-0.003198,0.014020,0.425656,-0.756831,-0.044864,-0.493975
55086,NaN,22.377410,-2.172974,-1.802668,9.189816,-7.777902,9.259037,1.482422,-0.630747,2.949003,-0.432617,0.755127,0.425293,0.224116,-0.018296,-0.017464,0.999859,0.007412,-0.003154,0.014744,0.435512,-0.756622,-0.042034,-0.485886
55087,NaN,21.534612,0.708724,-0.939748,11.184079,-8.989072,6.286992,1.378138,-0.606042,3.015345,-0.405029,0.772217,0.416504,0.215233,0.010394,-0.008681,0.999858,0.006890,-0.003030,0.015076,0.447866,-0.755614,-0.035289,-0.476674
55088,NaN,19.238441,1.937099,-0.124015,11.426249,-8.287430,3.401516,1.196714,-0.542031,2.998509,-0.386475,0.795898,0.403320,0.192067,0.022257,-0.000592,0.999866,0.005983,-0.002710,0.014992,0.456050,-0.755832,-0.035601,-0.468474
55089,NaN,15.560001,2.376825,0.038194,9.977666,-7.248857,-0.032760,0.926593,-0.435955,2.871873,-0.363281,0.810791,0.392578,0.155236,0.025996,0.000838,0.999884,0.004633,-0.002180,0.014359,0.466153,-0.755158,-0.027909,-0.460065
55090,NaN,10.930666,2.051083,-0.759562,6.771564,-5.862542,-3.177030,0.891462,-0.179268,2.694583,-0.344482,0.825684,0.385986,0.109024,0.022014,-0.007402,0.999899,0.004457,-0.000896,0.013472,0.470511,-0.755183,-0.027970,-0.455561
55091,NaN,6.278514,1.106962,-2.413113,2.622442,-4.852754,-5.807744,0.611876,-0.106053,2.334661,-0.329834,0.838623,0.377441,0.062662,0.011875,-0.024062,0.999927,0.003059,-0.000530,0.011673,0.478095,-0.754250,-0.020796,-0.449556
55092,NaN,2.732131,0.978530,-4.615777,-0.961325,-5.018322,-7.910184,-0.194163,-0.071907,2.167865,-0.304199,0.840820,0.383789,0.027230,0.010036,-0.046158,0.999941,-0.000971,-0.000360,0.010839,0.476960,-0.756427,-0.019136,-0.447170
55093,NaN,-0.475078,0.789950,-3.550133,-2.284254,-2.848220,-10.162827,-1.637349,-0.135278,1.863397,-0.291504,0.847168,0.392334,-0.004798,0.007564,-0.035567,0.999923,-0.008187,-0.000676,0.009317,0.474890,-0.760747,-0.008749,-0.442343
55094,NaN,-3.217100,-3.469030,-3.390580,-5.715313,0.751659,-9.006780,-0.811872,-0.237500,1.269001,-0.282715,0.840576,0.394775,-0.031909,-0.035031,-0.033802,0.999971,-0.004059,-0.001187,0.006345,0.469650,-0.764771,-0.008520,-0.441001
55095,NaN,-5.706405,-0.694723,-3.525858,-6.143028,0.125062,-12.592025,-0.349094,-0.242383,0.632546,-0.280762,0.844971,0.394775,-0.056999,-0.007189,-0.035315,0.999993,-0.001745,-0.001212,0.003163,0.469701,-0.766139,-0.005900,-0.438608
55096,NaN,-7.165652,1.437052,-2.093388,-5.160985,0.480163,-15.373940,0.690826,-0.106334,-0.300639,-0.282715,0.844971,0.392578,-0.071624,0.014550,-0.020922,0.999993,0.003454,-0.000532,-0.001503,0.467624,-0.766372,-0.013431,-0.440252
55097,NaN,-8.568221,1.353254,-0.734407,-5.103702,2.028259,-16.567102,1.527383,0.088206,-1.298028,-0.295898,0.849365,0.370850,-0.085595,0.014144,-0.007200,0.999950,0.007637,0.000441,-0.006490,0.470607,-0.762474,-0.021560,-0.443506
55098,NaN,-7.088768,0.670792,-1.622774,-4.990622,1.056011,-15.038564,1.921492,0.205762,-2.079185,-0.312988,0.849365,0.353760,-0.070828,0.007599,-0.016085,0.999899,0.009607,0.001029,-0.010396,0.470067,-0.758794,-0.036828,-0.449347
55099,NaN,-4.269679,3.163421,-2.215066,-2.367307,-1.872091,-14.714923,2.177650,0.301719,-2.588273,-0.338867,0.855957,0.329834,-0.042314,0.032422,-0.021736,0.999856,0.010888,0.001509,-0.012941,0.472507,-0.752404,-0.050826,-0.456115
55100,NaN,-2.373875,4.258310,-0.322247,0.685559,-1.774592,-14.312700,2.429904,0.492770,-3.079780,-0.370850,0.849609,0.312744,-0.023086,0.042976,-0.002644,0.999805,0.012149,0.002464,-0.015398,0.471964,-0.746218,-0.069777,-0.464263
55101,NaN,-1.150359,3.029774,1.590833,2.054729,-0.030405,-12.780704,2.451321,0.595509,-3.478718,-0.405029,0.843262,0.286865,-0.010928,0.030293,0.016313,0.999769,0.012256,0.002977,-0.017392,0.473140,-0.737658,-0.087024,-0.473737
55102,NaN,-0.232134,2.159545,2.731038,2.830123,1.058240,-11.557788,2.380469,0.522937,-3.721231,-0.430420,0.834717,0.263428,-0.001851,0.021306,0.027570,0.999753,0.011901,0.002614,-0.018605,0.470785,-0.730315,-0.107936,-0.483065
55103,NaN,0.815378,1.671456,3.283742,3.420262,1.495069,-10.366514,2.096706,0.335574,-3.914277,-0.466553,0.822021,0.241943,0.008530,0.016205,0.032995,0.999752,0.010483,0.001678,-0.019570,0.469058,-0.722268,-0.126476,-0.492258
55104,NaN,1.794005,0.657309,2.667016,2.838005,1.332009,-8.846409,1.723014,0.093656,-4.095222,-0.498291,0.802979,0.233398,0.018079,0.005974,0.026715,0.999753,0.008614,0.000468,-0.020474,0.463036,-0.716048,-0.147721,-0.501051
55105,NaN,2.857748,-0.699620,1.803602,1.812835,1.151702,-7.111867,1.510456,-0.172591,-4.273767,-0.534180,0.785889,0.216309,0.028402,-0.007740,0.018004,0.999743,0.007552,-0.000863,-0.021367,0.457497,-0.709635,-0.167166,-0.509087
55106,NaN,4.022356,-1.666493,1.273861,1.166083,1.079057,-5.563992,1.497899,-0.377995,-4.413930,-0.565430,0.762451,0.205811,0.039817,-0.017642,0.012684,0.999727,0.007489,-0.001890,-0.022068,0.449279,-0.703722,-0.189578,-0.516705
55107,NaN,4.835102,-1.388433,1.323345,1.527957,0.938869,-4.930471,1.540818,-0.505998,-4.461676,-0.603516,0.740967,0.199463,0.047990,-0.015060,0.013242,0.999718,0.007703,-0.002530,-0.022306,0.442575,-0.697133,-0.210340,-0.523345
55108,NaN,5.158984,0.039025,1.007465,2.357909,0.042825,-5.115328,1.222153,-0.609120,-4.405458,-0.624268,0.717529,0.191162,0.051550,-0.000808,0.010229,0.999734,0.006110,-0.003045,-0.022025,0.432903,-0.691392,-0.231978,-0.529866
55109,NaN,5.766590,1.617624,0.193172,3.198693,-1.385580,-4.939270,0.564693,-0.806784,-4.340804,-0.657471,0.687500,0.193604,0.057990,0.014914,0.002209,0.999752,0.002823,-0.004034,-0.021702,0.422320,-0.687093,-0.250168,-0.535691
55110,NaN,8.611644,0.404074,-0.517029,2.490193,-1.415469,-1.665705,-0.083281,-1.030739,-4.470992,-0.682373,0.659668,0.204590,0.086203,0.002112,-0.004727,0.999737,-0.000416,-0.005153,-0.022353,0.406970,-0.684232,-0.269106,-0.542018
55111,NaN,11.335566,-2.739360,-0.254294,0.489854,0.597016,1.825228,-0.338178,-1.191528,-4.658145,-0.711426,0.623291,0.211426,0.112689,-0.030027,-0.001821,0.999710,-0.001691,-0.005957,-0.023288,0.391477,-0.681675,-0.286472,-0.547722
55112,NaN,13.132442,-4.796003,1.531365,-0.297126,3.627303,3.771266,-0.547586,-1.270763,-4.657574,-0.733643,0.586914,0.216309,0.130060,-0.050955,0.016280,0.999705,-0.002738,-0.006353,-0.023286,0.373266,-0.679196,-0.304767,-0.553609
55113,NaN,13.400892,-5.787080,3.551052,-0.439835,6.360523,3.788534,-1.011576,-1.282960,-4.640324,-0.758301,0.548340,0.235840,0.132389,-0.060772,0.036666,0.999697,-0.005057,-0.006414,-0.023199,0.354927,-0.677351,-0.320028,-0.559290
55114,NaN,14.736790,-6.656253,3.951633,-1.153748,7.785635,4.853557,-2.003026,-1.292893,-4.539050,-0.776367,0.511963,0.253418,0.145551,-0.069473,0.041147,0.999671,-0.010014,-0.006464,-0.022693,0.332093,-0.676691,-0.332827,-0.566595
55115,NaN,16.768759,-9.684936,2.519752,-4.525695,9.069160,6.876820,-2.579663,-1.042215,-4.298037,-0.794434,0.473389,0.273193,0.165421,-0.100077,0.027341,0.999672,-0.012897,-0.005211,-0.021488,0.309356,-0.676545,-0.341684,-0.574315
55116,NaN,17.291366,-13.727142,1.593165,-8.657062,11.375939,7.084936,-2.408377,-0.700454,-3.962632,-0.814941,0.438965,0.286621,0.170091,-0.140450,0.018209,0.999725,-0.012041,-0.003502,-0.019811,0.288152,-0.674924,-0.349103,-0.582729
55117,NaN,18.385442,-13.757335,1.074521,-9.237122,11.753111,7.649193,-1.865362,-0.419552,-3.652431,-0.824219,0.400391,0.289307,0.181278,-0.140789,0.012430,0.999788,-0.009326,-0.002098,-0.018261,0.270431,-0.672308,-0.356526,-0.589711
55118,NaN,16.714460,-10.530734,0.802083,-7.236158,9.799989,5.758837,-1.820344,-0.078248,-3.351997,-0.833984,0.372559,0.293945,0.165346,-0.108009,0.009061,0.999818,-0.009101,-0.000391,-0.016759,0.255057,-0.668767,-0.361391,-0.597573
55119,NaN,14.550203,-10.427229,-0.996729,-8.594426,8.363398,3.513564,-2.075502,0.103927,-3.023900,-0.845703,0.338379,0.296387,0.143898,-0.106552,-0.008944,0.999832,-0.010377,0.000520,-0.015119,0.239236,-0.665520,-0.365110,-0.605429
55120,NaN,14.324626,-12.640606,-2.324767,-11.325594,9.013569,2.869582,-2.214244,0.186978,-2.677508,-0.853516,0.314697,0.309570,0.141514,-0.128556,-0.021965,0.999849,-0.011071,0.000935,-0.013387,0.225740,-0.662778,-0.365340,-0.613427
55121,NaN,13.566147,-13.370951,-3.355592,-12.680018,8.920756,1.749948,-2.102375,0.294850,-2.296543,-0.865479,0.284668,0.305664,0.134063,-0.135599,-0.032336,0.999878,-0.010511,0.001474,-0.011482,0.212249,-0.659964,-0.366128,-0.620764
55122,NaN,12.222690,-12.901180,-3.846037,-12.654090,8.236304,0.318768,-2.033865,0.265985,-1.871263,-0.871338,0.269775,0.305908,0.120960,-0.130531,-0.037300,0.999904,-0.010169,0.001330,-0.009356,0.202841,-0.658455,-0.363510,-0.627019
55123,NaN,11.590630,-12.387609,-3.876989,-12.302173,8.038177,-0.492929,-2.094202,0.189030,-1.467351,-0.872803,0.248291,0.310547,0.114955,-0.125119,-0.037573,0.999918,-0.010471,0.000945,-0.007337,0.191680,-0.657259,-0.361558,-0.632887
55124,NaN,11.024026,-12.933767,-4.385330,-12.953546,8.128887,-1.201133,-2.036114,0.132946,-1.083406,-0.876709,0.235596,0.310791,0.109507,-0.130370,-0.042603,0.999933,-0.010180,0.000665,-0.005417,0.185261,-0.657906,-0.356082,-0.637216
55125,NaN,10.345915,-12.615073,-4.476585,-12.706034,7.951597,-1.967971,-1.815899,0.083827,-0.771993,-0.880615,0.224854,0.317383,0.102952,-0.126949,-0.043659,0.999951,-0.009079,0.000419,-0.003860,0.176976,-0.657907,-0.352745,-0.641412
55126,NaN,9.781194,-11.668433,-3.632012,-11.303245,7.880545,-2.386671,-1.500976,0.034160,-0.465755,-0.882568,0.218262,0.317383,0.097533,-0.117180,-0.035459,0.999969,-0.007505,0.000171,-0.002329,0.174799,-0.659820,-0.346792,-0.643287
55127,NaN,9.198111,-10.386077,-2.656720,-9.619191,7.652000,-2.852044,-1.190116,-0.000740,-0.165302,-0.876221,0.218262,0.319580,0.091895,-0.104092,-0.025948,0.999982,-0.005951,-0.000004,-0.000827,0.170344,-0.660558,-0.343508,-0.645484
55128,NaN,8.810416,-8.545427,-2.245711,-7.942918,6.556462,-2.769025,-0.967522,-0.056833,0.136846,-0.880371,0.216309,0.323730,0.088169,-0.085501,-0.022019,0.999988,-0.004838,-0.000284,0.000684,0.172173,-0.663566,-0.337200,-0.645239
55129,NaN,8.366395,-7.177764,-2.097812,-6.832810,5.632200,-2.920066,-0.792264,-0.114238,0.405979,-0.877930,0.211914,0.326172,0.083821,-0.071690,-0.020646,0.999990,-0.003961,-0.000571,0.002030,0.170667,-0.665288,-0.333396,-0.645842
55130,NaN,7.833044,-6.163624,-2.159705,-6.066504,4.699954,-3.095644,-0.503025,-0.182290,0.654325,-0.874023,0.216064,0.330322,0.078551,-0.061433,-0.021371,0.999991,-0.002515,-0.000911,0.003272,0.175668,-0.669220,-0.326936,-0.643738
55131,NaN,7.790943,-4.595463,-1.723506,-4.640928,3.833179,-2.844507,-0.073925,-0.206735,0.850760,-0.872070,0.229004,0.323730,0.078122,-0.045629,-0.017137,0.999990,-0.000370,-0.001034,0.004254,0.177827,-0.671328,-0.324034,-0.642416
55132,NaN,7.717038,-2.675974,-0.441657,-2.294071,3.162360,-2.626261,0.361240,-0.193278,0.992398,-0.865967,0.237549,0.330078,0.077306,-0.026368,-0.004390,0.999986,0.001806,-0.000966,0.004962,0.186764,-0.674982,-0.319281,-0.638418
55133,NaN,8.077143,-11.227877,-1.944716,-9.105203,8.375170,-3.329169,0.910287,-0.345788,1.187259,-0.864502,0.252686,0.333984,0.081470,-0.111707,-0.019816,0.999971,0.004551,-0.001729,0.005936,0.193077,-0.677105,-0.318497,-0.634673
55134,NaN,14.702507,-13.995134,-8.896440,-16.124898,5.938535,4.181998,0.832365,-1.040347,3.011726,-0.845947,0.280273,0.338135,0.149569,-0.137342,-0.088766,0.999864,0.004162,-0.005201,0.015058,0.222533,-0.678858,-0.324309,-0.620044
55135,NaN,10.047452,21.552513,0.517653,15.909112,-13.185923,1.964786,-2.141992,0.636849,2.505781,-0.844238,0.293213,0.340088,0.097774,0.216798,0.002545,0.999859,-0.010709,0.003184,0.012528,0.224041,-0.683228,-0.308412,-0.622806
55136,NaN,20.227312,10.934063,-4.029852,5.944582,-7.814606,11.365416,-3.412983,-0.441349,2.245108,-0.833740,0.297363,0.357178,0.201125,0.110899,-0.041738,0.999789,-0.017064,-0.002207,0.011225,0.233454,-0.688294,-0.300118,-0.617803
55137,NaN,18.003309,14.249357,1.287342,11.893380,-7.305482,8.461936,-3.287367,-0.087944,1.935294,-0.829834,0.305908,0.367676,0.178637,0.144413,0.010589,0.999818,-0.016436,-0.000440,0.009676,0.227953,-0.695175,-0.283354,-0.620065
55138,NaN,14.592929,-3.264698,-2.978449,-3.207049,1.845240,4.978807,-2.211519,-0.231618,1.815006,-0.823486,0.312500,0.374023,0.146254,-0.031646,-0.029262,0.999897,-0.011057,-0.001158,0.009075,0.236322,-0.698807,-0.277562,-0.615451
55139,NaN,13.105340,-3.680768,-6.607000,-6.068513,-0.505979,4.038809,-0.576857,-0.331573,1.664518,-0.817383,0.321045,0.382568,0.131464,-0.035905,-0.065748,0.999960,-0.002884,-0.001658,0.008322,0.238967,-0.702785,-0.270353,-0.613105
55140,NaN,15.278866,6.088346,0.156883,6.018333,-3.067908,5.183978,-0.538195,-0.510409,1.286641,-0.809082,0.329590,0.384766,0.152388,0.061869,0.001792,0.999972,-0.002691,-0.002552,0.006433,0.249122,-0.705466,-0.270131,-0.606040
55141,NaN,11.487246,0.414543,-2.430546,-0.037792,-1.073161,1.886959,-1.008259,-0.414073,1.279793,-0.805176,0.340088,0.390869,0.114893,0.004759,-0.024091,0.999965,-0.005041,-0.002070,0.006399,0.248884,-0.709674,-0.263069,-0.604329
55142,NaN,8.414459,-4.628682,-2.288182,-3.616300,2.407818,-0.947738,-1.187849,-0.339873,0.975926,-0.796631,0.340088,0.393066,0.084408,-0.046010,-0.022465,0.999969,-0.005939,-0.001699,0.004880,0.254217,-0.712622,-0.260674,-0.599661
55143,NaN,6.920389,-7.577237,-1.326790,-5.027634,5.154082,-2.381417,-1.065884,-0.240832,0.768534,-0.794678,0.342285,0.401611,0.069510,-0.075575,-0.012781,0.999978,-0.005329,-0.001204,0.003843,0.252413,-0.715679,-0.255041,-0.599204
55144,NaN,11.617990,-0.716125,-0.950407,0.686602,0.570141,1.831918,-0.995970,-0.075441,0.729986,-0.790527,0.346436,0.407959,0.116209,-0.006784,-0.009426,0.999981,-0.004980,-0.000377,0.003650,0.256949,-0.717751,-0.252525,-0.595854
55145,NaN,47.687401,13.804297,-4.701338,13.628419,-10.833744,36.916703,-1.444937,-0.238297,0.802395,-0.783936,0.344482,0.414551,0.476372,0.139613,-0.047450,0.999965,-0.007225,-0.001191,0.004012,0.253853,-0.721300,-0.245639,-0.595774
55146,NaN,30.176319,11.832796,9.061215,19.844902,-1.436326,17.331746,-0.296100,-0.160185,1.676922,-0.775879,0.359375,0.416504,0.300684,0.120986,0.090675,0.999963,-0.001480,-0.000801,0.008385,0.261709,-0.724173,-0.240787,-0.590850
55147,NaN,-6.222236,-14.296945,-2.524133,-12.413787,8.795566,-14.057976,-0.481040,-1.061599,1.134010,-0.771973,0.367920,0.429199,-0.061276,-0.143379,-0.025224,0.999967,-0.002405,-0.005308,0.005670,0.262040,-0.729274,-0.236642,-0.586085
55148,NaN,8.987382,-7.024350,-0.868220,-3.335538,4.972070,-0.064925,0.045987,-0.705726,1.273843,-0.761475,0.376465,0.435547,0.090349,-0.069667,-0.008380,0.999973,0.000230,-0.003529,0.006369,0.268470,-0.732774,-0.234166,-0.579769
55149,NaN,7.953192,-3.063462,-3.648384,-2.854592,0.101276,-0.992905,0.342194,-0.882519,0.953037,-0.755127,0.382812,0.435547,0.079837,-0.030193,-0.036184,0.999977,0.001711,-0.004413,0.004765,0.271457,-0.735967,-0.232846,-0.574845
55150,NaN,8.276361,-5.758575,-4.831745,-5.258832,1.252765,-0.025996,0.311510,-0.656990,0.735776,-0.744873,0.393555,0.444092,0.083133,-0.057205,-0.048134,0.999987,0.001558,-0.003285,0.003679,0.276540,-0.738575,-0.232034,-0.569379
55151,NaN,7.567492,-4.978594,-3.904344,-4.180726,1.256322,-0.967349,0.309254,-0.532654,0.478804,-0.745117,0.397705,0.439697,0.075897,-0.049544,-0.038918,0.999992,0.001546,-0.002663,0.002394,0.278434,-0.740208,-0.231881,-0.566390
55152,NaN,8.890281,-4.975269,-4.109692,-3.903693,1.088693,0.397879,0.443288,-0.312642,0.287957,-0.745117,0.404297,0.439697,0.089038,-0.049534,-0.041068,0.999995,0.002216,-0.001563,0.001440,0.282977,-0.741195,-0.232455,-0.562600
55153,NaN,9.961620,-2.347172,-2.700533,-0.858050,0.133264,0.736334,0.410566,-0.235018,0.186354,-0.743164,0.408447,0.443848,0.099670,-0.023324,-0.026936,0.999997,0.002053,-0.001175,0.000932,0.284759,-0.741484,-0.233250,-0.560989
55154,NaN,9.943506,-3.453627,-1.602621,-0.770025,1.654564,0.677246,0.335071,-0.223679,0.067052,-0.732422,0.406250,0.439697,0.099465,-0.034476,-0.015973,0.999998,0.001675,-0.001118,0.000335,0.288315,-0.742078,-0.234266,-0.557955
55155,NaN,9.567729,-4.840842,-0.442590,-0.985324,3.445782,0.302983,0.426845,-0.203086,0.031304,-0.740967,0.408447,0.441650,0.095689,-0.048384,-0.004432,0.999997,0.002134,-0.001015,0.000157,0.289758,-0.742058,-0.235632,-0.556657
55156,NaN,9.858275,-2.514505,-0.678280,0.539283,1.585580,0.245319,0.389200,-0.186813,0.056235,-0.736816,0.410645,0.443848,0.098596,-0.025104,-0.006740,0.999998,0.001946,-0.000934,0.000281,0.292797,-0.742666,-0.235832,-0.554166
55157,NaN,9.572493,-1.175157,-2.270387,0.288467,-0.489827,0.078981,0.126425,-0.156663,0.069682,-0.739014,0.408447,0.441650,0.095747,-0.011704,-0.022636,0.999999,0.000632,-0.000783,0.000348,0.293285,-0.742992,-0.236151,-0.553335
55158,NaN,9.410892,-1.681587,-3.539756,-0.916836,-1.037316,0.287108,0.008736,-0.108720,0.082415,-0.741211,0.415039,0.441650,0.094135,-0.016776,-0.035347,1.000000,0.000044,-0.000544,0.000412,0.294310,-0.744173,-0.234264,-0.552004
55159,NaN,9.481683,-1.682802,-3.855488,-1.101694,-1.260040,0.424376,0.123585,-0.010768,0.109658,-0.732666,0.410645,0.446045,0.094828,-0.016752,-0.038560,1.000000,0.000618,-0.000054,0.000548,0.295070,-0.744144,-0.234211,-0.551660
55160,NaN,9.466975,-1.372742,-3.603787,-0.684045,-1.341539,0.298081,0.169373,0.030864,0.126734,-0.734863,0.412842,0.447998,0.094673,-0.013637,-0.036064,0.999999,0.000847,0.000154,0.000634,0.296794,-0.744763,-0.232414,-0.550659
55161,NaN,9.508184,-1.490181,-3.321847,-0.550098,-1.078946,0.296422,0.189512,0.056691,0.159428,-0.732910,0.419189,0.441650,0.095084,-0.014795,-0.033259,0.999999,0.000948,0.000283,0.000797,0.298015,-0.744505,-0.232257,-0.550415
55162,NaN,9.561367,-1.444722,-2.991839,-0.240844,-0.920752,0.264624,0.219477,0.063121,0.194210,-0.735107,0.425537,0.437256,0.095618,-0.014322,-0.029964,0.999999,0.001097,0.000316,0.000971,0.299602,-0.745189,-0.229817,-0.549650
55163,NaN,9.384542,-1.681577,-2.558555,-0.144351,-0.476625,0.046088,0.252751,0.061046,0.226239,-0.737061,0.419189,0.437256,0.093857,-0.016677,-0.025635,0.999999,0.001264,0.000305,0.001131,0.301246,-0.744897,-0.229575,-0.549249
55164,NaN,9.051482,-1.565011,-2.262271,0.079707,-0.398879,-0.361184,0.215337,0.051611,0.275634,-0.735107,0.423584,0.432861,0.090530,-0.015501,-0.022663,0.999998,0.001077,0.000258,0.001378,0.303492,-0.745432,-0.227677,-0.548076
55165,NaN,8.981684,-1.741209,-1.895469,0.207270,-0.042669,-0.471895,0.088963,0.030375,0.330445,-0.739746,0.429932,0.435059,0.089843,-0.017255,-0.018976,0.999999,0.000445,0.000152,0.001652,0.304774,-0.745583,-0.226641,-0.547587
55166,NaN,9.100435,-2.243765,-1.855040,-0.018518,0.303000,-0.262750,0.010169,0.011371,0.388956,-0.724854,0.434326,0.435059,0.091047,-0.022260,-0.018557,0.999998,0.000051,0.000057,0.001945,0.306257,-0.746688,-0.223635,-0.546489
55167,NaN,9.031342,-2.228671,-1.899352,-0.031223,0.233944,-0.321439,-0.000026,-0.014262,0.446548,-0.727051,0.436279,0.439209,0.090364,-0.022085,-0.018987,0.999998,-0.000000,-0.000071,0.002233,0.307472,-0.747220,-0.221987,-0.545752
55168,NaN,9.034033,-2.269124,-2.051613,-0.102383,0.112548,-0.275998,0.032142,-0.048013,0.509009,-0.722900,0.440674,0.434814,0.090403,-0.022458,-0.020498,0.999997,0.000161,-0.000240,0.002545,0.309053,-0.748602,-0.218470,-0.544383
55169,NaN,9.153904,-2.034446,-2.167978,0.052201,-0.172844,-0.189789,0.105844,-0.050966,0.601411,-0.725098,0.444824,0.432617,0.091605,-0.020058,-0.021667,0.999995,0.000529,-0.000255,0.003007,0.311040,-0.749225,-0.216583,-0.543146
55170,NaN,8.868562,-1.470205,-2.256434,0.342832,-0.689203,-0.576267,0.159255,-0.057276,0.708772,-0.720947,0.451416,0.434814,0.088743,-0.014370,-0.022550,0.999993,0.000796,-0.000286,0.003544,0.313818,-0.750487,-0.213068,-0.541192
55171,NaN,8.955869,-1.334380,-2.407669,0.412414,-0.942082,-0.499958,0.149474,-0.094155,0.818310,-0.708252,0.455566,0.438965,0.089624,-0.012959,-0.024044,0.999991,0.000747,-0.000471,0.004092,0.316501,-0.751368,-0.210545,-0.539392
55172,NaN,8.979911,-1.658585,-2.403198,0.292414,-0.775291,-0.406424,0.154801,-0.132790,0.938295,-0.708740,0.468506,0.430176,0.089891,-0.016146,-0.023985,0.999988,0.000774,-0.000664,0.004691,0.319231,-0.753194,-0.205658,-0.537117
55173,NaN,9.141710,-2.213736,-2.461827,0.021442,-0.487135,-0.102208,0.177930,-0.173851,1.045452,-0.704590,0.472656,0.434570,0.091552,-0.021637,-0.024558,0.999986,0.000890,-0.000869,0.005227,0.322537,-0.754436,-0.202470,-0.534604
55174,NaN,9.185714,-2.130173,-2.342775,0.277348,-0.543522,-0.115776,0.299497,-0.204207,1.145107,-0.698486,0.485596,0.429932,0.092001,-0.020740,-0.023365,0.999982,0.001497,-0.001021,0.005726,0.326927,-0.756067,-0.198348,-0.531168
55175,NaN,8.762222,-1.497978,-2.289286,0.664405,-1.004904,-0.712751,0.383144,-0.256113,1.220176,-0.690186,0.491943,0.438477,0.087740,-0.014401,-0.022809,0.999979,0.001916,-0.001281,0.006101,0.331366,-0.757310,-0.195164,-0.527816
55176,NaN,8.254368,-1.718602,-2.068249,0.594687,-0.741678,-1.183610,0.271838,-0.354743,1.266069,-0.675537,0.504883,0.432129,0.082687,-0.016635,-0.020559,0.999977,0.001359,-0.001774,0.006330,0.335444,-0.759502,-0.190386,-0.523820
55177,NaN,9.115095,-3.705213,-3.063886,-0.907715,-0.169736,0.451163,0.189097,-0.420856,1.256682,-0.669678,0.517578,0.434082,0.091445,-0.036449,-0.030481,0.999978,0.000945,-0.002104,0.006283,0.339057,-0.761461,-0.186807,-0.519924
55178,NaN,9.182761,-5.582025,-2.765946,-1.739536,1.266928,1.073064,0.418102,-0.418750,1.239440,-0.663330,0.526367,0.436035,0.092229,-0.055192,-0.027582,0.999976,0.002090,-0.002094,0.006197,0.344061,-0.763234,-0.183478,-0.515200
55179,NaN,9.322916,-4.775265,-2.182508,-0.669530,1.022512,0.816877,0.778221,-0.409539,1.225391,-0.655273,0.541260,0.431641,0.093564,-0.047095,-0.021818,0.999972,0.003891,-0.002048,0.006127,0.349814,-0.764048,-0.181502,-0.510802
55180,NaN,9.273444,-2.759035,-2.001200,0.837622,-0.331979,0.026028,0.886117,-0.428049,1.263643,-0.647217,0.556152,0.431396,0.092949,-0.026915,-0.019933,0.999968,0.004431,-0.002140,0.006318,0.356669,-0.764925,-0.179346,-0.505483
55181,NaN,9.258367,-2.377364,-3.088596,0.492977,-1.470903,0.112025,0.814522,-0.411943,1.378819,-0.641113,0.564697,0.429199,0.092808,-0.023009,-0.030790,0.999966,0.004073,-0.002060,0.006894,0.362899,-0.765719,-0.176855,-0.500701
55182,NaN,9.992246,-3.650434,-4.041522,-0.441908,-1.497331,1.459577,0.899789,-0.436158,1.496191,-0.624512,0.583984,0.426758,0.100279,-0.035573,-0.040358,0.999960,0.004499,-0.002181,0.007481,0.370319,-0.766634,-0.173962,-0.494847
55183,NaN,10.951860,-3.429277,-3.822990,0.435275,-1.713828,2.153400,1.208065,-0.464596,1.599047,-0.612061,0.596924,0.420166,0.109876,-0.033185,-0.038178,0.999947,0.006040,-0.002323,0.007995,0.378494,-0.766892,-0.171668,-0.489029
55184,NaN,12.598403,-2.123686,-4.010986,2.133933,-3.042827,3.051937,1.414194,-0.511254,1.750849,-0.599854,0.616211,0.417969,0.126264,-0.019850,-0.039931,0.999933,0.007071,-0.002556,0.008754,0.388592,-0.766965,-0.169700,-0.481625
55185,NaN,12.742450,-1.409998,-4.063336,2.856943,-3.719442,2.791454,1.484861,-0.495874,1.916392,-0.587402,0.631104,0.404785,0.127650,-0.012577,-0.040414,0.999923,0.007424,-0.002479,0.009582,0.398462,-0.766837,-0.166872,-0.474703
55186,NaN,12.381788,-2.486636,-4.677144,1.899750,-3.656306,3.008422,1.474002,-0.428318,2.068064,-0.571045,0.654785,0.400391,0.124164,-0.023239,-0.046681,0.999917,0.007370,-0.002142,0.010340,0.409343,-0.766614,-0.163697,-0.466845
55187,NaN,13.669834,-3.191328,-2.899573,3.401276,-2.217011,3.933660,1.398918,-0.318089,2.241252,-0.556641,0.674072,0.393555,0.137089,-0.030176,-0.028993,0.999911,0.006994,-0.001590,0.011206,0.419652,-0.766255,-0.159003,-0.459852
55188,NaN,13.472154,-3.970373,-2.131163,3.524259,-1.333681,3.883838,1.312545,-0.293208,2.350732,-0.535645,0.693359,0.391357,0.135206,-0.037976,-0.021367,0.999908,0.006563,-0.001466,0.011753,0.430663,-0.765911,-0.154553,-0.451690
55189,NaN,15.353618,-5.997482,-2.499882,3.367360,-0.988655,6.485181,1.248742,-0.335740,2.436137,-0.519043,0.710449,0.378418,0.154292,-0.057942,-0.025106,0.999905,0.006244,-0.001679,0.012180,0.440657,-0.765784,-0.148746,-0.444151
55190,NaN,18.490574,-6.179347,-1.912726,5.706705,-1.216509,8.886917,1.402639,-0.324651,2.525573,-0.498047,0.727539,0.371826,0.185696,-0.059317,-0.019248,0.999894,0.007013,-0.001623,0.012627,0.451868,-0.765201,-0.143459,-0.435548
55191,NaN,21.905047,-4.631172,-0.730415,9.677144,-2.039722,10.286405,1.510676,-0.261488,2.684641,-0.479492,0.746826,0.360840,0.219655,-0.043310,-0.007352,0.999881,0.007553,-0.001307,0.013423,0.463263,-0.764186,-0.137046,-0.427347
55192,NaN,24.637497,-3.358975,-0.103379,12.884296,-3.059324,11.232292,1.381780,-0.228892,2.913528,-0.454102,0.766113,0.352051,0.246830,-0.029989,-0.000967,0.999869,0.006909,-0.001144,0.014567,0.474957,-0.763296,-0.130038,-0.418192
55193,NaN,25.618066,-1.286290,0.384634,15.480142,-4.306880,10.183549,1.248579,-0.159978,3.164842,-0.431396,0.791748,0.345459,0.256339,-0.008832,0.003988,0.999855,0.006243,-0.000800,0.015823,0.486177,-0.762607,-0.120926,-0.409193
55194,NaN,24.055557,0.890516,0.156087,16.123834,-5.590023,7.163993,0.967495,-0.092599,3.322091,-0.401855,0.806641,0.338867,0.240363,0.012891,0.001728,0.999850,0.004837,-0.000463,0.016610,0.496829,-0.762163,-0.111412,-0.399820
55195,NaN,20.710877,1.797242,-0.077382,14.735776,-5.794589,3.656355,0.696897,-0.015974,3.372624,-0.372314,0.823730,0.332275,0.206766,0.021464,-0.000687,0.999852,0.003484,-0.000080,0.016862,0.506154,-0.762224,-0.099970,-0.390933
55196,NaN,16.168764,2.611753,-0.862834,12.022634,-5.973831,-0.392509,0.525733,0.058873,3.284527,-0.346924,0.838867,0.327881,0.161227,0.028791,-0.008603,0.999862,0.002629,0.000294,0.016422,0.514620,-0.762104,-0.089463,-0.382570
55197,NaN,10.856183,2.448271,-2.097358,7.833050,-5.765129,-4.012169,0.292820,0.130087,3.094024,-0.319092,0.845215,0.321533,0.108152,0.026189,-0.021007,0.999879,0.001464,0.000650,0.015469,0.521660,-0.762387,-0.077882,-0.374928
55198,NaN,6.096720,2.079334,-3.758371,3.552371,-5.811358,-6.775373,0.019097,0.136746,2.635294,-0.302490,0.855957,0.325928,0.060660,0.021598,-0.037623,0.999913,0.000095,0.000684,0.013176,0.526774,-0.762830,-0.069111,-0.368543
55199,NaN,1.852001,1.672276,-6.194597,-0.893142,-6.546912,-8.843455,-0.408173,0.248971,2.267592,-0.283203,0.857910,0.336670,0.018253,0.016804,-0.062003,0.999933,-0.002041,0.001245,0.011338,0.529456,-0.764172,-0.059044,-0.363637
55200,NaN,-3.784227,-0.913965,-4.529300,-5.455059,-2.299425,-10.601985,-1.901340,0.072452,2.015705,-0.263916,0.864258,0.347412,-0.037761,-0.009950,-0.045187,0.999904,-0.009506,0.000362,0.010078,0.525080,-0.769595,-0.047762,-0.360186
55201,NaN,-6.034268,-5.236309,-4.622060,-9.124904,0.304756,-8.457851,-1.074728,-0.229123,1.497006,-0.251221,0.868408,0.362305,-0.059894,-0.053060,-0.046006,0.999957,-0.005374,-0.001146,0.007485,0.523572,-0.773147,-0.040659,-0.355617
55202,NaN,-8.026133,-4.951289,-3.004909,-9.648291,2.192500,-10.069660,-0.562081,-0.274858,0.923292,-0.251221,0.864258,0.366699,-0.079990,-0.049967,-0.030019,0.999984,-0.002810,-0.001374,0.004616,0.522649,-0.775316,-0.037617,-0.352573
55203,NaN,-8.240096,-3.647954,-0.778493,-8.122780,3.550768,-11.608580,0.024911,-0.056859,0.305223,-0.242676,0.868408,0.362305,-0.082343,-0.036604,-0.007813,0.999999,0.000125,-0.000284,0.001526,0.523282,-0.775401,-0.036620,-0.351551
55204,NaN,-9.243769,-0.975025,0.133024,-7.267891,3.410815,-14.498785,0.400200,0.094019,-0.553211,-0.255615,0.872803,0.357910,-0.092464,-0.009497,0.001355,0.999994,0.002001,0.000470,-0.002766,0.523573,-0.774158,-0.039716,-0.353516
55205,NaN,-7.442376,0.643953,-0.165022,-5.332454,1.853741,-14.707425,0.949831,0.197822,-1.407255,-0.268311,0.866455,0.349365,-0.074378,0.006970,-0.001544,0.999963,0.004749,0.000989,-0.007036,0.524791,-0.771008,-0.046316,-0.357765
55206,NaN,-3.704356,4.875940,0.365658,-0.300972,-0.733144,-15.895526,1.454025,0.380132,-1.940496,-0.283691,0.873047,0.332031,-0.036561,0.049087,0.004082,0.999925,0.007270,0.001901,-0.009702,0.527014,-0.766049,-0.056329,-0.363664
55207,NaN,-1.980799,6.811132,1.826489,2.756090,-0.826737,-16.548282,1.520196,0.491662,-2.306053,-0.309326,0.868652,0.325684,-0.018976,0.068192,0.018830,0.999902,0.007601,0.002458,-0.011530,0.528739,-0.760419,-0.066619,-0.371161
55208,NaN,-1.625566,6.295430,3.344382,3.685552,0.623856,-16.096312,1.284150,0.496635,-2.602085,-0.341309,0.864502,0.308350,-0.015353,0.062941,0.033887,0.999892,0.006421,0.002483,-0.013010,0.529022,-0.755154,-0.078652,-0.379068
55209,NaN,-1.495208,4.475797,3.291832,2.955616,1.329258,-14.566637,0.867890,0.418145,-2.920527,-0.364990,0.864502,0.303955,-0.014229,0.044826,0.033143,0.999882,0.004339,0.002091,-0.014602,0.526874,-0.750822,-0.090202,-0.387986
55210,NaN,-0.737746,1.955276,1.682710,1.412726,0.806496,-11.946281,0.631612,0.307884,-3.290118,-0.387939,0.845459,0.299805,-0.007029,0.019617,0.016900,0.999859,0.003158,0.001539,-0.016450,0.522800,-0.746966,-0.103503,-0.397504
55211,NaN,0.366155,0.863608,0.816691,1.138346,0.239390,-10.252690,0.868306,0.269294,-3.634261,-0.422119,0.841064,0.286865,0.003828,0.008532,0.008199,0.999825,0.004341,0.001346,-0.018170,0.518877,-0.742143,-0.118074,-0.407491
55212,NaN,0.813793,0.859623,0.709084,1.377948,0.047683,-9.865197,1.059403,0.285986,-3.909983,-0.460449,0.828369,0.278320,0.008314,0.008397,0.007124,0.999794,0.005297,0.001430,-0.019549,0.514732,-0.736327,-0.134403,-0.418103
55213,NaN,1.121536,0.886241,0.099103,1.290593,-0.550277,-9.522260,0.984687,0.224109,-4.145982,-0.492188,0.811279,0.269775,0.011397,0.008622,0.001021,0.999772,0.004923,0.001120,-0.020728,0.509733,-0.730365,-0.151112,-0.428841
55214,NaN,2.221799,-0.550395,-0.657892,0.590548,-0.794430,-7.646696,0.813921,0.034931,-4.403432,-0.530029,0.790039,0.263428,0.022089,-0.005964,-0.006606,0.999749,0.004069,0.000175,-0.022015,0.503184,-0.724580,-0.169563,-0.439361
55215,NaN,4.264858,-2.431583,-1.279050,0.005482,-0.858492,-4.813020,0.958744,-0.094414,-4.598647,-0.568115,0.772949,0.259277,0.042082,-0.025226,-0.012890,0.999724,0.004793,-0.000472,-0.022991,0.496347,-0.718271,-0.188514,-0.449654
55216,NaN,5.988249,-3.283241,-1.417776,-0.011378,-0.809472,-2.885524,1.301072,-0.195492,-4.746942,-0.608398,0.751709,0.242188,0.059096,-0.034148,-0.014339,0.999697,0.006505,-0.000977,-0.023732,0.489875,-0.710708,-0.209406,-0.459419
55217,NaN,7.270312,-3.753421,-1.262785,0.012719,-0.540652,-1.552204,1.623700,-0.292355,-4.888052,-0.639648,0.728271,0.227539,0.071777,-0.039192,-0.012836,0.999667,0.008118,-0.001462,-0.024438,0.483958,-0.702044,-0.231146,-0.468499
55218,NaN,8.524016,-3.399395,-0.368533,0.854069,0.107387,-0.669764,1.916454,-0.390541,-4.917793,-0.681641,0.698242,0.223389,0.084378,-0.036040,-0.003859,0.999650,0.009581,-0.001952,-0.024586,0.479684,-0.691612,-0.256101,-0.475382
55219,NaN,9.609654,-1.790832,0.034703,2.366634,-0.102772,-0.329892,1.571298,-0.610294,-4.845463,-0.710938,0.672607,0.217285,0.095624,-0.020232,0.000486,0.999671,0.007856,-0.003051,-0.024225,0.472672,-0.682857,-0.277965,-0.482724
55220,NaN,12.179724,-3.605488,0.354990,1.471789,0.999208,2.768036,0.705222,-0.882641,-4.813612,-0.735596,0.642578,0.219727,0.120866,-0.038985,0.003951,0.999694,0.003526,-0.004413,-0.024066,0.462564,-0.675915,-0.299428,-0.489404
55221,NaN,15.988269,-7.138104,0.934770,-0.655323,3.114624,7.428587,0.164842,-0.953782,-4.717294,-0.766602,0.606201,0.228516,0.158093,-0.075132,0.010044,0.999710,0.000824,-0.004768,-0.023584,0.450028,-0.670604,-0.317889,-0.496701
55222,NaN,16.657940,-7.711829,2.554634,-1.080021,5.255227,7.925414,0.029421,-0.873783,-4.552223,-0.795898,0.576172,0.237549,0.164653,-0.080885,0.026257,0.999731,0.000147,-0.004369,-0.022759,0.437759,-0.664747,-0.336274,-0.503386
55223,NaN,16.456295,-5.983467,3.013477,-0.109852,5.433840,7.101859,-0.362346,-0.937125,-4.398703,-0.824951,0.544189,0.246338,0.163051,-0.063376,0.031014,0.999746,-0.001812,-0.004685,-0.021992,0.423808,-0.660330,-0.351944,-0.510380
55224,NaN,17.249818,-5.174099,1.997280,-0.239686,4.655810,7.695334,-0.763500,-0.915223,-4.289934,-0.847168,0.505615,0.259766,0.171242,-0.055344,0.020965,0.999752,-0.003817,-0.004576,-0.021448,0.409049,-0.656025,-0.366928,-0.517373
55225,NaN,17.118918,-6.991114,1.097989,-2.872159,4.984853,7.793841,-0.802485,-0.757824,-4.123601,-0.867432,0.469238,0.266602,0.169656,-0.073373,0.011914,0.999772,-0.004012,-0.003789,-0.020616,0.394277,-0.651907,-0.379842,-0.524674
55226,NaN,16.952511,-8.924826,0.775045,-5.401719,5.843468,7.630589,-0.827229,-0.583981,-3.886847,-0.890137,0.437012,0.277588,0.167724,-0.092485,0.008620,0.999798,-0.004136,-0.002920,-0.019433,0.380812,-0.646888,-0.392361,-0.531574
55227,NaN,16.141891,-10.094291,0.617427,-7.171632,6.451818,6.610995,-0.973329,-0.435985,-3.593981,-0.904053,0.405029,0.288818,0.159556,-0.103789,0.007024,0.999824,-0.004866,-0.002180,-0.017969,0.367200,-0.642731,-0.402158,-0.538822
55228,NaN,15.062409,-10.639069,-0.149022,-8.551125,6.138704,5.328369,-1.109233,-0.234400,-3.203609,-0.919922,0.368408,0.289307,0.148895,-0.108790,-0.000716,0.999856,-0.005546,-0.001172,-0.016017,0.355289,-0.638164,-0.410703,-0.545747
55229,NaN,14.198694,-10.415870,-0.791789,-9.031770,5.616443,4.243680,-1.191517,-0.051982,-2.740172,-0.938232,0.338623,0.304443,0.140544,-0.106135,-0.007253,0.999888,-0.005957,-0.000260,-0.013700,0.343875,-0.634720,-0.416240,-0.552834
55230,NaN,13.349922,-9.680687,-1.038618,-8.805576,5.160945,3.180637,-1.229756,0.089053,-2.409449,-0.943848,0.314941,0.302734,0.132315,-0.098467,-0.009843,0.999908,-0.006149,0.000445,-0.012047,0.334176,-0.631055,-0.420735,-0.559533
55231,NaN,12.201629,-8.556620,-1.906547,-8.419504,3.917781,1.997619,-1.330941,0.159309,-2.086492,-0.951416,0.284912,0.298828,0.121099,-0.086958,-0.018587,0.999923,-0.006655,0.000797,-0.010432,0.324460,-0.628391,-0.423296,-0.566278
55232,NaN,11.279431,-8.368269,-2.534962,-8.715367,3.273284,1.003968,-1.590647,0.185027,-1.721294,-0.959473,0.265625,0.303467,0.112044,-0.084848,-0.024782,0.999931,-0.007953,0.000925,-0.008606,0.315987,-0.626229,-0.424418,-0.572590
55233,NaN,11.185385,-9.532205,-2.690820,-9.954883,3.817223,0.653399,-1.789114,0.202184,-1.311577,-0.965088,0.244141,0.310059,0.111198,-0.096289,-0.026162,0.999938,-0.008945,0.001011,-0.006558,0.307051,-0.625651,-0.423056,-0.579055
55234,NaN,10.997259,-10.685200,-2.619091,-11.005609,4.547625,0.195495,-1.788963,0.222316,-0.864951,-0.964844,0.231445,0.305908,0.109480,-0.107555,-0.025353,0.999950,-0.008945,0.001112,-0.004325,0.300032,-0.625825,-0.420130,-0.584649
55235,NaN,9.890467,-10.370474,-2.981199,-10.886363,4.068021,-0.913734,-1.629113,0.252290,-0.389975,-0.970703,0.218506,0.312500,0.098665,-0.104136,-0.029089,0.999964,-0.008145,0.001261,-0.001950,0.294325,-0.626685,-0.416193,-0.589424
55236,NaN,8.598031,-9.528339,-3.072467,-10.131100,3.483615,-2.106892,-1.521197,0.267153,0.051925,-0.975098,0.220703,0.308350,0.085965,-0.095492,-0.030114,0.999970,-0.007606,0.001336,0.000260,0.291049,-0.628226,-0.411010,-0.593037
55237,NaN,7.844739,-8.113503,-3.298790,-8.963839,2.573612,-2.651954,-1.410788,0.206570,0.438405,-0.974854,0.209961,0.312744,0.078592,-0.081193,-0.032496,0.999972,-0.007054,0.001033,0.002192,0.288345,-0.630546,-0.405137,-0.595930
55238,NaN,7.623540,-8.071263,-2.863068,-8.634892,2.950192,-2.870437,-1.177108,0.115192,0.787972,-0.977295,0.218506,0.308350,0.076537,-0.080578,-0.028200,0.999975,-0.005885,0.000576,0.003940,0.288106,-0.633548,-0.398805,-0.597132
55239,NaN,7.726107,-7.932802,-1.791715,-7.875039,3.848854,-2.812627,-0.927150,0.039871,1.157196,-0.979492,0.220703,0.316895,0.077715,-0.078961,-0.017566,0.999972,-0.004636,0.000199,0.005786,0.288708,-0.637050,-0.392301,-0.597423
55240,NaN,8.058595,-8.531588,-0.553999,-7.607920,5.254401,-2.563973,-0.738169,0.066543,1.518153,-0.984131,0.229248,0.310303,0.081229,-0.084721,-0.005254,0.999964,-0.003691,0.000333,0.007591,0.292005,-0.640982,-0.384961,-0.596389
55241,NaN,8.023646,-8.711921,-0.201335,-7.433197,5.627704,-2.505880,-0.498370,0.108058,1.856209,-0.984375,0.237793,0.316650,0.081039,-0.086374,-0.001841,0.999954,-0.002492,0.000540,0.009281,0.296150,-0.644927,-0.377349,-0.594956
55242,NaN,8.102194,-25.540929,-14.659475,-29.230876,2.535876,-1.330399,0.760277,-0.362249,2.795069,-0.981201,0.270020,0.318115,0.084842,-0.253682,-0.147410,0.999893,0.003801,-0.001811,0.013975,0.307319,-0.650188,-0.370883,-0.587586
55243,NaN,14.311722,25.494740,1.431982,22.887247,-11.052642,4.705239,-0.940443,0.370852,3.614174,-0.985596,0.274170,0.324463,0.138503,0.257541,0.012853,0.999824,-0.004702,0.001854,0.018070,0.315526,-0.657127,-0.355734,-0.584877
55244,NaN,15.748008,16.770518,-2.172238,13.845493,-9.761920,5.901381,-3.219138,-0.111838,2.398611,-0.979492,0.282715,0.339355,0.155470,0.169200,-0.024351,0.999798,-0.016095,-0.000559,0.011992,0.312679,-0.666862,-0.338326,-0.585716
55245,NaN,20.233786,10.847550,-9.353016,5.227298,-12.319333,11.054708,-3.638342,-0.392197,2.541853,-0.973145,0.282715,0.358887,0.201138,0.109316,-0.095119,0.999752,-0.018190,-0.001961,0.012708,0.307264,-0.677828,-0.319723,-0.586442
55246,NaN,17.133003,-3.659439,-6.313367,-4.676290,-1.541000,8.146740,-2.277293,-0.391828,2.075724,-0.968750,0.282715,0.365234,0.171825,-0.035526,-0.062389,0.999879,-0.011386,-0.001959,0.010378,0.305589,-0.685948,-0.306400,-0.584987
55247,NaN,13.452636,-4.486560,-6.660984,-5.746952,-1.575382,4.677163,-0.243318,-0.415209,1.915804,-0.967285,0.295410,0.377930,0.135086,-0.043654,-0.066276,0.999951,-0.001217,-0.002076,0.009579,0.309720,-0.690432,-0.299734,-0.580979
55248,NaN,14.619468,7.796093,-1.675440,7.247577,-5.458015,4.151270,-0.114389,-0.553373,1.536438,-0.960938,0.299805,0.386475,0.145636,0.079072,-0.016396,0.999967,-0.000572,-0.002767,0.007682,0.313525,-0.694784,-0.294745,-0.576284
55249,NaN,11.615647,5.354285,-1.811182,4.962215,-4.257819,1.328074,-0.467911,-0.486599,1.508395,-0.952637,0.308350,0.395020,0.115792,0.054375,-0.017956,0.999966,-0.002340,-0.002433,0.007542,0.315532,-0.699115,-0.288906,-0.572898
55250,NaN,16.929952,2.385824,4.572943,7.787609,2.643193,5.858481,-1.386072,-0.334427,1.470930,-0.937744,0.314697,0.399170,0.169040,0.025420,0.045840,0.999948,-0.006930,-0.001672,0.007355,0.314808,-0.704619,-0.280129,-0.570908
55251,NaN,31.894671,-0.176282,6.063206,10.021830,5.682013,20.540373,-2.274947,-0.126917,1.533879,-0.931641,0.318848,0.416260,0.318906,0.001374,0.060831,0.999906,-0.011374,-0.000635,0.007669,0.310978,-0.710640,-0.268401,-0.571178
55252,NaN,33.046606,1.773072,-0.711382,7.813271,-1.014593,22.337377,-1.449712,-0.219858,1.673740,-0.919189,0.336182,0.416016,0.330310,0.020445,-0.006892,0.999938,-0.007248,-0.001099,0.008369,0.310731,-0.715867,-0.258533,-0.569335
55253,NaN,4.205192,-9.365494,0.068119,-5.762022,6.419855,-4.246462,-0.260449,-0.554667,1.607323,-0.913330,0.353271,0.420166,0.042800,-0.093312,0.000921,0.999963,-0.001302,-0.002773,0.008037,0.313660,-0.719898,-0.252886,-0.565167
55254,NaN,4.063966,-8.900578,-0.523091,-5.754044,5.639124,-4.236001,0.254600,-0.558309,1.363992,-0.894531,0.372559,0.413574,0.041260,-0.088719,-0.005229,0.999972,0.001273,-0.002792,0.006820,0.318191,-0.722878,-0.249480,-0.560323
55255,NaN,8.035348,-2.865616,-2.722048,-1.778842,-0.073061,-1.036748,0.247572,-0.612019,1.289889,-0.890625,0.376709,0.422119,0.080619,-0.028103,-0.027009,0.999974,0.001238,-0.003060,0.006449,0.321942,-0.725785,-0.246473,-0.555734
55256,NaN,10.276891,-2.613393,-4.734320,-2.171346,-1.783707,1.454954,0.404694,-0.705916,1.057184,-0.882568,0.398193,0.424072,0.103071,-0.025494,-0.047032,0.999978,0.002023,-0.003530,0.005286,0.326001,-0.728475,-0.244805,-0.550562
55257,NaN,9.071536,-4.527030,-4.954236,-3.881371,-0.711029,0.758936,0.574194,-0.619780,0.844330,-0.874268,0.404541,0.419678,0.091058,-0.044744,-0.049389,0.999982,0.002871,-0.003099,0.004222,0.329666,-0.730262,-0.244311,-0.546214
55258,NaN,7.128354,-4.789604,-4.672219,-4.342318,-0.381553,-1.061613,0.757158,-0.365531,0.651927,-0.868164,0.413086,0.427979,0.071524,-0.047486,-0.046772,0.999986,0.003786,-0.001828,0.003260,0.334253,-0.730919,-0.244491,-0.542455
55259,NaN,7.424268,-2.960288,-2.954651,-1.806035,-0.342504,-1.492009,0.464338,-0.046478,0.522626,-0.866211,0.419434,0.427979,0.074326,-0.029340,-0.029598,0.999994,0.002322,-0.000232,0.002613,0.337323,-0.730900,-0.243910,-0.540839
55260,NaN,9.373841,-3.476760,-1.420545,-0.602668,1.099470,0.207421,-0.022615,0.109332,0.336611,-0.864014,0.419434,0.423828,0.093789,-0.034611,-0.014253,0.999998,-0.000113,0.000547,0.001683,0.338759,-0.731195,-0.242311,-0.540260
55261,NaN,10.144630,-4.830341,-0.913124,-1.013424,2.338433,1.168396,-0.229555,0.126485,0.183047,-0.866455,0.423828,0.423584,0.101485,-0.048221,-0.009140,0.999999,-0.001148,0.000632,0.000915,0.338582,-0.731460,-0.240801,-0.540688
55262,NaN,10.074137,-3.878734,-1.195892,-0.509215,1.486623,0.934108,-0.251731,0.130243,0.101013,-0.864258,0.423828,0.423584,0.100753,-0.038752,-0.011976,0.999999,-0.001259,0.000651,0.000505,0.338589,-0.731784,-0.239416,-0.540860
55263,NaN,9.974638,-3.293090,-1.966329,-0.604394,0.519183,0.844209,-0.293330,0.114619,0.023007,-0.864014,0.415283,0.423828,0.099739,-0.032948,-0.019672,0.999999,-0.001467,0.000573,0.000115,0.337729,-0.731994,-0.238338,-0.541589
55264,NaN,9.690663,-3.572957,-2.598475,-1.284974,0.227600,0.757274,-0.245824,0.132320,-0.026074,-0.866211,0.421631,0.425781,0.096885,-0.035774,-0.026005,0.999999,-0.001229,0.000662,-0.000130,0.337420,-0.732140,-0.237437,-0.541980
55265,NaN,9.324373,-3.056129,-2.381908,-0.900527,0.055140,0.244317,-0.089680,0.150915,-0.046532,-0.870605,0.419434,0.423584,0.093219,-0.030594,-0.023876,1.000000,-0.000448,0.000755,-0.000233,0.337160,-0.731823,-0.237103,-0.542715
55266,NaN,9.619290,-2.360976,-1.862722,0.011295,-0.031490,0.265683,0.037502,0.127995,-0.027807,-0.865967,0.415283,0.417480,0.096178,-0.023620,-0.018693,1.000000,0.000188,0.000640,-0.000139,0.337866,-0.731504,-0.236982,-0.542760
55267,NaN,9.669565,-1.822522,-1.663120,0.528599,-0.246956,0.149623,0.097321,0.098962,0.001849,-0.872803,0.421631,0.425781,0.096688,-0.018216,-0.016688,1.000000,0.000487,0.000495,0.000009,0.338360,-0.731070,-0.237065,-0.543000
55268,NaN,9.430106,-1.500382,-1.393667,0.864780,-0.265509,-0.205295,0.097466,0.057191,0.050520,-0.872803,0.421631,0.421631,0.094301,-0.014973,-0.013971,1.000000,0.000487,0.000286,0.000253,0.339394,-0.730928,-0.236943,-0.542600
55269,NaN,9.566119,-1.156467,-1.487023,1.096713,-0.574701,-0.141792,0.076765,0.007565,0.125129,-0.868652,0.426025,0.421387,0.095668,-0.011499,-0.014878,1.000000,0.000384,0.000038,0.000626,0.340039,-0.730922,-0.236674,-0.542321
55270,NaN,9.462368,-0.885592,-1.899768,1.020590,-1.077169,-0.235221,0.058778,-0.012388,0.209253,-0.866455,0.426025,0.421387,0.094634,-0.008751,-0.018994,0.999999,0.000294,-0.000062,0.001046,0.341252,-0.731213,-0.235990,-0.541465
55271,NaN,9.137082,-1.031013,-2.251790,0.615401,-1.254053,-0.449548,-0.031854,-0.028904,0.297779,-0.862305,0.430176,0.417236,0.091389,-0.010178,-0.022503,0.999999,-0.000159,-0.000145,0.001489,0.341923,-0.731693,-0.234856,-0.540885
55272,NaN,9.340972,-1.938987,-2.090220,0.166601,-0.564240,-0.064036,-0.009514,-0.037379,0.380650,-0.860352,0.434570,0.425781,0.093450,-0.019213,-0.020884,0.999998,-0.000048,-0.000187,0.001903,0.343276,-0.732366,-0.233403,-0.539745
55273,NaN,9.376857,-1.868618,-1.764703,0.467294,-0.390087,-0.109046,0.060813,-0.053378,0.479327,-0.855957,0.436768,0.423584,0.093818,-0.018456,-0.017628,0.999997,0.000304,-0.000267,0.002397,0.344745,-0.732960,-0.231895,-0.538651
55274,NaN,9.468432,-1.404274,-1.727075,0.902132,-0.701775,-0.153528,0.080978,-0.098847,0.588059,-0.852051,0.447266,0.427734,0.094734,-0.013757,-0.017230,0.999995,0.000405,-0.000494,0.002940,0.346887,-0.733872,-0.230030,-0.536831
55275,NaN,9.572902,-1.216646,-1.713017,1.133284,-0.850538,-0.114908,0.092747,-0.171528,0.709020,-0.845703,0.449463,0.425537,0.095786,-0.011819,-0.017054,0.999993,0.000464,-0.000858,0.003545,0.348948,-0.734980,-0.227965,-0.534858
55276,NaN,9.598859,-0.946742,-1.629208,1.463116,-1.003507,-0.192897,0.128701,-0.240643,0.843196,-0.841797,0.460205,0.423340,0.096047,-0.009052,-0.016182,0.999990,0.000644,-0.001203,0.004216,0.351743,-0.736453,-0.225534,-0.532023
55277,NaN,9.684318,-0.456157,-1.591524,1.945463,-1.338895,-0.275986,0.137662,-0.299376,1.003996,-0.827393,0.481689,0.427246,0.096888,-0.004064,-0.015773,0.999986,0.000688,-0.001497,0.005020,0.354594,-0.738127,-0.222718,-0.528988
55278,NaN,9.214133,0.158793,-1.560121,2.339643,-1.739268,-0.932408,0.074847,-0.364151,1.171264,-0.821533,0.494385,0.429199,0.092158,0.002133,-0.015433,0.999981,0.000374,-0.001821,0.005856,0.357860,-0.740341,-0.219144,-0.525174
55279,NaN,8.901678,-0.914793,-2.632483,0.916528,-1.886834,-0.723940,-0.101524,-0.438230,1.267671,-0.811035,0.505127,0.427002,0.089130,-0.008597,-0.026125,0.999977,-0.000508,-0.002191,0.006338,0.360341,-0.743043,-0.214955,-0.521379
55280,NaN,9.011144,-3.677110,-3.383865,-1.302408,-0.722472,0.383025,-0.041138,-0.446673,1.318470,-0.802979,0.518066,0.435547,0.090427,-0.036183,-0.033629,0.999976,-0.000206,-0.002233,0.006592,0.363387,-0.745773,-0.210658,-0.517103
55281,NaN,9.059845,-4.339621,-2.984135,-1.362199,-0.054913,0.577577,0.341918,-0.398539,1.368745,-0.788330,0.532959,0.433105,0.090952,-0.042724,-0.029734,0.999973,0.001710,-0.001993,0.006844,0.367788,-0.747601,-0.207147,-0.512752
55282,NaN,8.569154,-2.373356,-2.363983,0.312849,-0.891694,-0.660806,0.543692,-0.388159,1.428643,-0.775879,0.543701,0.430908,0.085904,-0.023056,-0.023537,0.999969,0.002718,-0.001941,0.007143,0.373304,-0.749152,-0.203807,-0.507817
55283,NaN,8.293325,-2.347151,-2.497958,0.261846,-1.062503,-0.906005,0.451039,-0.426696,1.463266,-0.763428,0.558594,0.430664,0.083155,-0.022808,-0.024854,0.999968,0.002255,-0.002133,0.007316,0.378279,-0.750858,-0.200251,-0.503008
55284,NaN,7.979668,-4.361174,-3.229429,-1.546552,-0.399986,-0.295844,0.447663,-0.453439,1.486777,-0.751221,0.580078,0.428467,0.080191,-0.042944,-0.032209,0.999967,0.002238,-0.002267,0.007434,0.383437,-0.752715,-0.196540,-0.497764
55285,NaN,7.927545,-5.169483,-3.263201,-2.000811,0.001971,-0.003894,0.651659,-0.496647,1.484478,-0.738770,0.588623,0.434814,0.079737,-0.050998,-0.032601,0.999964,0.003258,-0.002483,0.007422,0.389099,-0.754130,-0.193510,-0.492386
55286,NaN,9.714974,-5.399039,-2.731076,-0.898938,0.290140,1.593175,0.952413,-0.526488,1.483327,-0.722168,0.605713,0.428223,0.097618,-0.053137,-0.027309,0.999958,0.004762,-0.002632,0.007417,0.396009,-0.755082,-0.191157,-0.486299
55287,NaN,10.709515,-4.428357,-2.524626,0.490073,-0.359241,2.032349,1.306169,-0.553522,1.505977,-0.708008,0.631348,0.421387,0.107494,-0.043310,-0.025234,0.999946,0.006531,-0.002768,0.007530,0.404069,-0.755238,-0.189723,-0.479948
55288,NaN,10.922264,-4.038538,-3.108939,0.704143,-1.211283,2.158262,1.579511,-0.600929,1.540698,-0.695557,0.648438,0.416992,0.109622,-0.039296,-0.031074,0.999935,0.007897,-0.003005,0.007703,0.413319,-0.754998,-0.188773,-0.472768
55289,NaN,12.275101,-4.400222,-3.538007,1.076610,-1.635578,3.555818,1.730822,-0.621017,1.628193,-0.679199,0.669922,0.414551,0.123212,-0.042694,-0.035371,0.999925,0.008654,-0.003105,0.008141,0.423100,-0.754366,-0.187977,-0.465384
55290,NaN,14.910741,-4.601483,-3.049739,2.769112,-1.593189,5.762581,1.985163,-0.616496,1.760139,-0.660645,0.699951,0.396973,0.149597,-0.044397,-0.030483,0.999907,0.009926,-0.003082,0.008800,0.434214,-0.753281,-0.187111,-0.457181
55291,NaN,19.433768,-3.582195,-0.538401,7.396472,-0.804196,8.501920,2.200257,-0.543256,2.006050,-0.644287,0.721436,0.384033,0.194698,-0.033812,-0.005235,0.999885,0.011001,-0.002716,0.010030,0.446545,-0.751534,-0.185732,-0.448663
55292,NaN,20.179833,-1.535901,1.764869,10.689660,-0.248074,7.460231,2.180852,-0.430365,2.296555,-0.623535,0.749268,0.366455,0.201920,-0.013235,0.017931,0.999872,0.010904,-0.002152,0.011482,0.459549,-0.749735,-0.182821,-0.439646
55293,NaN,18.823599,-1.045030,1.588109,10.534214,-0.657982,5.888316,1.747198,-0.374482,2.595262,-0.596436,0.772705,0.353516,0.188322,-0.008147,0.016156,0.999876,0.008736,-0.001872,0.012976,0.471420,-0.748820,-0.177760,-0.430621
55294,NaN,17.475488,-2.567483,-0.016692,8.350844,-1.308348,5.695884,1.363557,-0.341598,2.821425,-0.571533,0.802734,0.344482,0.175094,-0.023206,-0.000032,0.999876,0.006818,-0.001708,0.014107,0.482325,-0.748763,-0.170876,-0.421329
55295,NaN,18.443392,-4.517850,-1.953973,7.146635,-2.458003,7.715657,1.172994,-0.340995,2.963267,-0.541992,0.819824,0.329346,0.185108,-0.042325,-0.019478,0.999872,0.005865,-0.001705,0.014816,0.492621,-0.749085,-0.163042,-0.411843
55296,NaN,19.999065,-3.974797,-2.273465,8.776867,-3.530695,8.391598,1.264366,-0.294139,3.034984,-0.512695,0.841309,0.322754,0.200595,-0.036563,-0.022678,0.999864,0.006322,-0.001471,0.015174,0.503342,-0.748930,-0.154983,-0.402158
55297,NaN,20.747102,-1.444249,-1.669380,11.606852,-4.543813,6.917901,1.310156,-0.237361,3.099312,-0.483398,0.866943,0.307617,0.207680,-0.011117,-0.016527,0.999858,0.006550,-0.001187,0.015496,0.514239,-0.748401,-0.146575,-0.392389
55298,NaN,19.747370,0.663689,-1.070988,12.957238,-4.984829,4.286035,1.166422,-0.139640,3.145505,-0.447510,0.884033,0.303223,0.197344,0.009803,-0.010521,0.999859,0.005832,-0.000698,0.015727,0.524567,-0.747846,-0.137474,-0.382958
55299,NaN,17.265209,2.021507,-1.020342,12.487876,-5.225306,1.138947,0.865346,-0.004953,3.153179,-0.411377,0.901123,0.292480,0.172305,0.022977,-0.010104,0.999866,0.004327,-0.000025,0.015765,0.533781,-0.747649,-0.127323,-0.374016
55300,NaN,13.739376,2.912006,-1.367882,10.675186,-5.329649,-2.280066,0.505528,0.164595,3.087252,-0.383789,0.914062,0.283936,0.136911,0.031271,-0.013714,0.999877,0.002528,0.000823,0.015436,0.541366,-0.747825,-0.116367,-0.366251
55301,NaN,8.921224,3.146356,-3.097187,6.808395,-6.023709,-5.758759,0.071099,0.296523,2.931208,-0.358398,0.924561,0.288086,0.088692,0.032777,-0.031092,0.999891,0.000355,0.001483,0.014656,0.547127,-0.748709,-0.104709,-0.359337
55302,NaN,4.928722,2.263149,-5.318874,2.537420,-6.801125,-7.574505,-0.348201,0.166590,2.513190,-0.326416,0.930908,0.292480,0.048954,0.023155,-0.053270,0.999919,-0.001741,0.000833,0.012566,0.550183,-0.750589,-0.094316,-0.353581
55303,NaN,2.625979,2.327953,-7.957540,-0.268702,-8.632115,-8.787269,-0.653929,0.230755,2.276466,-0.305176,0.935303,0.305420,0.025903,0.023315,-0.079682,0.999929,-0.003270,0.001154,0.011382,0.551837,-0.752995,-0.083963,-0.348460
55304,NaN,-3.240771,3.507304,-7.518036,-3.967990,-7.150459,-13.340500,-2.154574,0.138890,1.954523,-0.290039,0.930908,0.324707,-0.032795,0.033941,-0.075527,0.999894,-0.010772,0.000694,0.009772,0.546823,-0.759467,-0.072485,-0.344878
55305,NaN,-5.094385,-0.556655,-4.271201,-6.025254,-2.156015,-11.697446,-1.434428,-0.041400,1.314027,-0.274902,0.930664,0.342041,-0.050896,-0.006207,-0.042680,0.999953,-0.007172,-0.000207,0.006570,0.543614,-0.763895,-0.065119,-0.341625
55306,NaN,-6.610444,1.596457,-3.297166,-5.773353,-1.716766,-14.377603,-1.260967,-0.032246,0.612086,-0.268311,0.926514,0.352783,-0.066147,0.015554,-0.033081,0.999975,-0.006305,-0.000161,0.003060,0.539451,-0.767637,-0.060644,-0.340659
55307,NaN,-7.413013,0.225429,-1.276196,-6.108798,0.831483,-14.128169,-0.300576,0.175331,-0.455322,-0.279053,0.928711,0.350586,-0.074136,0.002404,-0.012701,0.999996,-0.001503,0.000877,-0.002277,0.537586,-0.768002,-0.061394,-0.342644
55308,NaN,-7.982399,-3.548260,-1.670616,-8.448656,2.195569,-11.515050,0.707317,0.268316,-1.368070,-0.294189,0.928711,0.343994,-0.080086,-0.034876,-0.016723,0.999969,0.003537,0.001342,-0.006840,0.537654,-0.765302,-0.067019,-0.347490
55309,NaN,-6.666182,-1.899766,-3.808380,-7.627923,-0.757199,-11.759315,1.465014,0.215553,-1.887445,-0.317871,0.928711,0.326904,-0.066876,-0.018088,-0.038147,0.999928,0.007325,0.001078,-0.009437,0.540027,-0.760297,-0.076190,-0.352866
55310,NaN,-4.514347,4.268063,-2.820232,-2.403970,-3.002834,-15.447382,1.931649,0.259469,-2.311221,-0.341309,0.924561,0.309570,-0.044680,0.043468,-0.027727,0.999886,0.009658,0.001297,-0.011556,0.542975,-0.753793,-0.087513,-0.359604
55311,NaN,-2.902220,5.755299,-1.539780,0.322423,-2.872667,-15.775653,1.806928,0.282763,-2.825950,-0.364990,0.924561,0.296631,-0.028225,0.058091,-0.014834,0.999858,0.009034,0.001414,-0.014129,0.544764,-0.747031,-0.100621,-0.367494
55312,NaN,-0.997133,3.905615,-0.781369,1.170258,-1.949806,-13.231100,1.690433,0.190379,-3.228154,-0.401367,0.920410,0.283691,-0.009346,0.039274,-0.007473,0.999834,0.008452,0.000952,-0.016140,0.544755,-0.740502,-0.115065,-0.376377
55313,NaN,0.466422,2.357557,0.397730,1.892649,-0.639550,-11.206209,1.747845,0.113975,-3.528915,-0.435303,0.907715,0.262207,0.005081,0.023452,0.004180,0.999806,0.008739,0.000570,-0.017643,0.544558,-0.733348,-0.131075,-0.385325
55314,NaN,1.439402,1.378677,0.687992,2.098098,-0.206851,-9.790024,1.706824,-0.000002,-3.818566,-0.473145,0.888428,0.251709,0.014653,0.013449,0.006996,0.999781,0.008533,-0.000000,-0.019091,0.542927,-0.726224,-0.148167,-0.394811
55315,NaN,2.075428,0.781069,0.005338,1.828117,-0.704814,-8.774414,1.574001,-0.210366,-4.100577,-0.507324,0.877930,0.234375,0.020908,0.007382,0.000135,0.999758,0.007869,-0.001052,-0.020501,0.540274,-0.719150,-0.166688,-0.403910
55316,NaN,2.864649,0.604087,0.061543,2.171872,-0.696637,-7.976604,1.557350,-0.401721,-4.327075,-0.549561,0.858643,0.230225,0.028767,0.005414,0.000717,0.999734,0.007786,-0.002008,-0.021633,0.536236,-0.712146,-0.186288,-0.413033
55317,NaN,3.778316,0.752791,-0.205563,2.636104,-1.086396,-7.214074,1.488269,-0.529387,-4.523681,-0.587646,0.841553,0.219482,0.037946,0.006685,-0.001903,0.999713,0.007441,-0.002647,-0.022616,0.531560,-0.704828,-0.206824,-0.421765
55318,NaN,4.903492,-0.182187,-0.347098,2.392493,-0.969404,-5.625832,1.323663,-0.778397,-4.708745,-0.625244,0.809570,0.215576,0.048987,-0.002953,-0.003297,0.999693,0.006618,-0.003892,-0.023541,0.524891,-0.698061,-0.228093,-0.430317
55319,NaN,6.574202,-2.325612,-0.358108,1.391125,-0.331110,-2.978743,1.363151,-0.988462,-4.821539,-0.667480,0.783936,0.211426,0.065174,-0.024808,-0.003424,0.999674,0.006815,-0.004942,-0.024105,0.517991,-0.690882,-0.250364,-0.437818
55320,NaN,9.012861,-3.747222,0.508648,1.387467,0.874836,-0.178246,1.646620,-1.044067,-4.804244,-0.698730,0.758301,0.205322,0.089166,-0.039665,0.005233,0.999664,0.008232,-0.005220,-0.024019,0.511235,-0.682859,-0.273082,-0.444712
55321,NaN,10.563215,-3.252693,2.571381,2.704897,2.740186,0.860716,1.684140,-0.978596,-4.679474,-0.732422,0.732666,0.201172,0.104703,-0.035202,0.025939,0.999679,0.008420,-0.004892,-0.023395,0.505093,-0.674121,-0.295208,-0.450882
55322,NaN,10.889485,-1.478549,3.715411,4.219067,3.498263,0.410218,0.896183,-1.108672,-4.536820,-0.763428,0.698486,0.210205,0.108312,-0.017415,0.037682,0.999717,0.004480,-0.005543,-0.022682,0.495689,-0.667647,-0.315171,-0.457392
55323,NaN,12.470848,-1.655647,3.719851,4.203253,3.807596,2.015564,-0.451116,-1.307709,-4.454516,-0.790039,0.659912,0.229736,0.124053,-0.019239,0.038052,0.999728,-0.002255,-0.006538,-0.022271,0.481814,-0.664554,-0.332157,-0.464645
55324,NaN,15.204135,-5.451869,3.516579,1.201469,5.201615,5.830506,-1.632490,-1.332553,-4.400122,-0.812500,0.621338,0.256104,0.150557,-0.057547,0.036634,0.999702,-0.008162,-0.006662,-0.021998,0.463441,-0.664185,-0.346085,-0.473609
55325,NaN,16.760506,-8.990687,3.907799,-1.931143,7.293051,8.076967,-2.267913,-1.124920,-4.244121,-0.841553,0.586914,0.280029,0.165426,-0.092975,0.041055,0.999695,-0.011338,-0.005624,-0.021218,0.443787,-0.664557,-0.357302,-0.483480
55326,NaN,16.269420,-11.263896,4.867585,-4.352743,9.520018,7.669471,-2.254311,-0.770140,-4.146076,-0.861328,0.539795,0.297607,0.160128,-0.115413,0.050586,0.999714,-0.011270,-0.003850,-0.020728,0.424502,-0.663855,-0.367260,-0.494180
55327,NaN,17.492137,-12.137880,4.966444,-5.326974,10.529156,8.590341,-2.113609,-0.501971,-3.862318,-0.877441,0.505615,0.317383,0.172413,-0.124188,0.051402,0.999755,-0.010567,-0.002510,-0.019310,0.406932,-0.662326,-0.375827,-0.504465
55328,NaN,16.976948,-10.652895,3.780962,-4.999480,9.265074,7.655031,-2.021492,-0.156610,-3.494486,-0.895508,0.467041,0.330811,0.167848,-0.109083,0.039036,0.999796,-0.010107,-0.000783,-0.017471,0.390954,-0.660076,-0.382601,-0.514851
55329,NaN,14.746196,-8.571213,0.733206,-5.081609,5.769739,5.429246,-2.238051,0.214493,-3.119583,-0.913818,0.432617,0.341797,0.146111,-0.087910,0.008150,0.999815,-0.011190,0.001072,-0.015597,0.375889,-0.657809,-0.386639,-0.525837
55330,NaN,13.635637,-9.457375,-1.787766,-7.426936,4.041299,4.576668,-2.436705,0.423129,-2.790418,-0.925537,0.398438,0.344482,0.134981,-0.096674,-0.016995,0.999826,-0.012183,0.002116,-0.013951,0.361338,-0.655659,-0.388622,-0.537140
55331,NaN,14.588337,-11.400562,-2.343216,-9.623210,4.822635,5.431808,-2.387000,0.532424,-2.447255,-0.941895,0.372803,0.351074,0.144411,-0.116051,-0.022441,0.999850,-0.011934,0.002662,-0.012236,0.347935,-0.653688,-0.389209,-0.547859
55332,NaN,13.573021,-12.047117,-2.348385,-10.575787,5.277098,4.157354,-2.260417,0.657038,-2.054911,-0.949463,0.344727,0.353760,0.134406,-0.122115,-0.022553,0.999878,-0.011302,0.003285,-0.010274,0.336298,-0.651644,-0.388595,-0.557905
55333,NaN,12.122150,-11.799200,-2.339026,-10.652260,5.243030,2.461963,-2.215318,0.655853,-1.641126,-0.950684,0.316895,0.352051,0.120172,-0.119233,-0.022469,0.999900,-0.011076,0.003279,-0.008205,0.325757,-0.650286,-0.386615,-0.567044
55334,NaN,10.997977,-11.009404,-3.076300,-10.503357,4.309207,1.265591,-2.286419,0.577838,-1.171814,-0.960938,0.306396,0.347900,0.109244,-0.111080,-0.029813,0.999913,-0.011432,0.002889,-0.005859,0.316347,-0.649974,-0.382997,-0.575127
55335,NaN,10.794896,-10.994236,-4.373932,-11.225807,3.416794,1.088406,-2.333060,0.463612,-0.752231,-0.965088,0.297607,0.358643,0.107433,-0.110849,-0.042699,0.999922,-0.011665,0.002318,-0.003761,0.307479,-0.650841,-0.377965,-0.582242
55336,NaN,10.378204,-11.597898,-4.782211,-11.998579,3.575355,0.595630,-2.196353,0.413175,-0.372789,-0.970947,0.282715,0.356689,0.103468,-0.116689,-0.046757,0.999936,-0.010982,0.002066,-0.001864,0.300352,-0.652235,-0.372126,-0.588133
55337,NaN,9.546893,-11.800669,-4.608541,-12.088688,3.948639,-0.330841,-1.949612,0.315433,-0.027578,-0.979248,0.276367,0.361084,0.095381,-0.118463,-0.045083,0.999951,-0.009748,0.001577,-0.000138,0.294500,-0.654152,-0.365986,-0.592798
55338,NaN,9.243862,-11.394240,-4.025743,-11.379189,4.345282,-0.696012,-1.772919,0.177339,0.319253,-0.970703,0.276367,0.369629,0.092586,-0.114146,-0.039328,0.999959,-0.008864,0.000887,0.001596,0.290386,-0.656813,-0.359382,-0.595917
55339,NaN,9.307213,-11.345221,-2.962441,-10.635547,5.339772,-0.730636,-1.449575,0.031864,0.646458,-0.977295,0.276367,0.363037,0.093434,-0.113361,-0.028817,0.999968,-0.007248,0.000159,0.003232,0.287615,-0.659964,-0.352877,-0.597664
55340,NaN,8.771651,-9.928451,-2.764240,-9.275489,4.689345,-1.144915,-1.079666,-0.010814,1.006076,-0.975342,0.287109,0.369385,0.088216,-0.098989,-0.027103,0.999973,-0.005398,-0.000054,0.005030,0.287551,-0.663359,-0.346289,-0.597790
55341,NaN,7.991949,-6.075698,-2.540652,-5.974449,2.515671,-1.737029,-0.801273,-0.017631,1.329691,-0.969482,0.302002,0.367188,0.080324,-0.060325,-0.025157,0.999970,-0.004006,-0.000088,0.006648,0.288844,-0.666847,-0.339493,-0.597184
55342,NaN,7.177732,-3.597527,-2.387130,-3.847159,1.034142,-2.444557,-0.710690,-0.044730,1.493941,-0.971924,0.312744,0.369141,0.072049,-0.035522,-0.023728,0.999966,-0.003553,-0.000224,0.007470,0.291426,-0.670593,-0.332385,-0.595732
55343,NaN,7.429843,-3.522623,-0.416749,-2.475154,2.524762,-2.377448,-0.509960,-0.043968,1.643850,-0.968262,0.329834,0.364502,0.074586,-0.034624,-0.004062,0.999963,-0.002550,-0.000220,0.008219,0.294545,-0.674174,-0.325400,-0.594010
55344,NaN,7.153470,-23.877934,-14.072200,-26.700333,4.188898,-0.386411,0.414186,-0.516355,2.597982,-0.958496,0.359863,0.366211,0.074989,-0.237528,-0.141024,0.999910,0.002071,-0.002582,0.012990,0.303383,-0.679338,-0.318543,-0.587358
55345,NaN,14.720823,15.388925,3.486362,15.930994,-5.871655,3.504514,-1.843906,0.043214,3.374901,-0.955078,0.379150,0.372559,0.144588,0.156656,0.033396,0.999815,-0.009219,0.000216,0.016873,0.307060,-0.687258,-0.301534,-0.585208
55346,NaN,14.082862,19.566041,-3.428819,14.790414,-14.472721,3.019238,-2.920168,-0.205476,1.994202,-0.948975,0.387695,0.383057,0.138909,0.196525,-0.037010,0.999843,-0.014600,-0.001027,0.009970,0.303063,-0.695364,-0.286323,-0.585355
55347,NaN,22.485595,11.793382,-3.983060,9.734214,-10.000305,11.768781,-3.657558,-0.369939,2.439180,-0.940674,0.398193,0.400146,0.223477,0.119915,-0.041597,0.999757,-0.018286,-0.001850,0.012195,0.296899,-0.705311,-0.267623,-0.585461
55348,NaN,18.232794,2.775326,-4.402607,2.298916,-4.666790,8.420535,-2.154456,-0.250588,1.945394,-0.936768,0.408936,0.412842,0.182105,0.029051,-0.044106,0.999894,-0.010772,-0.001253,0.009727,0.294945,-0.711917,-0.254704,-0.584215
55349,NaN,13.752863,-5.505073,-5.287483,-4.814303,0.259515,5.159138,-0.860448,-0.318666,1.598047,-0.928711,0.421875,0.412598,0.138048,-0.054175,-0.052421,0.999958,-0.004302,-0.001593,0.007990,0.296149,-0.716122,-0.246953,-0.581790
55350,NaN,17.919264,6.379992,-1.342216,7.246264,-5.340238,6.997243,-0.842349,-0.636434,1.399563,-0.928955,0.428223,0.429688,0.178783,0.064996,-0.013125,0.999962,-0.004212,-0.003182,0.006998,0.296674,-0.721086,-0.240312,-0.578160
55351,NaN,12.549781,-0.502436,0.160663,2.559068,0.474622,2.475445,-1.038362,-0.492639,1.387570,-0.929199,0.436768,0.444580,0.125524,-0.004144,0.001939,0.999959,-0.005192,-0.002463,0.006938,0.296355,-0.725688,-0.233020,-0.575545
55352,NaN,13.624388,-1.375717,0.053464,2.324188,0.955434,3.648424,-1.339050,-0.613381,1.217392,-0.918701,0.443115,0.450928,0.136322,-0.012922,0.001041,0.999954,-0.006695,-0.003067,0.006087,0.294484,-0.730971,-0.225545,-0.572791
55353,NaN,12.582371,-5.031135,-0.204318,-0.357619,3.396895,3.302196,-1.100592,-0.484871,1.170849,-0.914795,0.449463,0.459473,0.126119,-0.049583,-0.001463,0.999965,-0.005503,-0.002424,0.005854,0.293275,-0.735275,-0.218810,-0.570510
55354,NaN,9.755580,-2.808420,-0.366142,0.438830,1.665179,0.198594,-1.201785,-0.414646,1.137040,-0.912842,0.456055,0.472168,0.097721,-0.027549,-0.003292,0.999964,-0.006009,-0.002073,0.005685,0.291876,-0.739563,-0.211721,-0.568357
55355,NaN,13.075391,-2.060022,0.362071,2.461491,1.491809,3.112248,-1.338843,-0.307988,1.096388,-0.906250,0.453857,0.482910,0.130858,-0.019857,0.003957,0.999961,-0.006694,-0.001540,0.005482,0.289721,-0.743524,-0.204294,-0.567008
55356,NaN,20.485511,1.470629,-0.998760,5.903480,-2.345835,9.743848,-1.671560,-0.292252,1.180198,-0.902100,0.455811,0.495850,0.204778,0.015832,-0.009818,0.999947,-0.008358,-0.001461,0.005901,0.286794,-0.748046,-0.195521,-0.565639
55357,NaN,23.042547,0.619802,-3.547710,4.411077,-3.563132,12.809683,-1.090411,-0.413759,1.064075,-0.893555,0.460205,0.502197,0.230462,0.007232,-0.035038,0.999969,-0.005452,-0.002069,0.005320,0.285331,-0.751797,-0.189034,-0.563608
55358,NaN,12.084104,-5.080373,-2.183641,-1.068113,2.013361,3.279582,-0.399547,-0.512067,1.043924,-0.885254,0.466553,0.506592,0.121159,-0.050215,-0.021426,0.999981,-0.001998,-0.002560,0.005220,0.286478,-0.754875,-0.184655,-0.560355
55359,NaN,8.291624,-7.394418,-1.743065,-3.157244,4.190114,0.134187,0.094887,-0.513183,0.949215,-0.879395,0.479248,0.510742,0.083310,-0.073541,-0.017252,0.999985,0.000474,-0.002566,0.004746,0.289036,-0.757042,-0.182060,-0.556957
55360,NaN,7.693024,-6.857875,-2.338813,-3.374956,3.379009,-0.385366,0.187420,-0.381308,0.784519,-0.875244,0.485840,0.519043,0.077243,-0.068254,-0.023305,0.999990,0.000937,-0.001907,0.003923,0.291822,-0.758622,-0.180118,-0.553977
55361,NaN,8.497120,-5.769116,-2.503288,-2.524062,2.360418,0.177673,0.200500,-0.285100,0.606660,-0.873291,0.494385,0.525391,0.085181,-0.057408,-0.024969,0.999994,0.001002,-0.001425,0.003033,0.294023,-0.759660,-0.178776,-0.551820
55362,NaN,8.734321,-4.415885,-2.918593,-1.890303,1.007677,0.173187,0.278581,-0.195996,0.452263,-0.866943,0.494385,0.516846,0.087471,-0.043921,-0.029162,0.999996,0.001393,-0.000980,0.002261,0.296437,-0.760271,-0.178079,-0.549910
55363,NaN,8.326373,-3.373478,-3.253053,-1.613674,-0.009789,-0.395308,0.268985,-0.136509,0.314694,-0.864746,0.494385,0.523438,0.083339,-0.033560,-0.032519,0.999998,0.001345,-0.000683,0.001573,0.298221,-0.760526,-0.177813,-0.548677
55364,NaN,8.204103,-3.406819,-3.305368,-1.687251,-0.042555,-0.485819,0.241570,0.026960,0.247365,-0.864990,0.500732,0.519043,0.082079,-0.033927,-0.033106,0.999998,0.001208,0.000135,0.001237,0.300128,-0.760393,-0.177454,-0.547937
55365,NaN,7.437166,-3.440360,-2.239615,-1.183944,0.695993,-1.429537,0.102772,0.137619,0.200136,-0.869629,0.507080,0.514648,0.074391,-0.034318,-0.022465,0.999999,0.000514,0.000688,0.001001,0.301208,-0.760039,-0.176756,-0.548062
55366,NaN,8.960217,-3.955213,-1.350197,-0.327089,1.548068,-0.053143,-0.028266,0.148479,0.138693,-0.869141,0.498535,0.512451,0.089620,-0.039492,-0.013563,0.999999,-0.000141,0.000742,0.000693,0.301898,-0.759883,-0.175884,-0.548180
55367,NaN,10.469880,-2.961354,-1.422299,0.722139,0.635184,1.118277,-0.003262,0.148911,0.112431,-0.865234,0.507080,0.512451,0.104705,-0.029555,-0.014300,1.000000,-0.000016,0.000745,0.000562,0.302344,-0.759578,-0.175211,-0.548571
55368,NaN,10.311346,-2.207107,-1.849273,0.811812,-0.222736,0.860003,-0.034352,0.124270,0.088213,-0.873779,0.507080,0.512451,0.103112,-0.022029,-0.018553,1.000000,-0.000172,0.000621,0.000441,0.302861,-0.759444,-0.174557,-0.548681
55369,NaN,9.729369,-2.618883,-2.197280,0.114162,-0.112292,0.498547,-0.064801,0.100807,0.092632,-0.865234,0.505127,0.512451,0.097295,-0.026151,-0.022013,1.000000,-0.000324,0.000504,0.000463,0.302977,-0.759346,-0.173862,-0.548972
55370,NaN,9.154278,-2.751136,-2.046903,-0.042995,0.110084,-0.037955,-0.022693,0.078857,0.116169,-0.869385,0.502930,0.514648,0.091551,-0.027461,-0.020502,1.000000,-0.000113,0.000394,0.000581,0.303566,-0.759339,-0.173204,-0.548864
55371,NaN,9.131887,-2.608208,-2.178799,-0.059001,-0.095872,-0.069557,0.007755,0.079980,0.133525,-0.869385,0.500732,0.512451,0.091328,-0.026020,-0.021826,1.000000,0.000039,0.000400,0.000668,0.304051,-0.759223,-0.172584,-0.548951
55372,NaN,9.120331,-2.495191,-2.247547,-0.036642,-0.244190,-0.096881,0.019725,0.081633,0.165008,-0.867432,0.509277,0.510254,0.091215,-0.024874,-0.022515,1.000000,0.000099,0.000408,0.000825,0.304931,-0.759185,-0.171851,-0.548747
55373,NaN,9.109988,-2.286230,-2.329927,0.030053,-0.474086,-0.147203,0.044788,0.079590,0.206152,-0.869385,0.505127,0.506104,0.091114,-0.022763,-0.023341,0.999999,0.000224,0.000398,0.001031,0.305756,-0.759075,-0.171057,-0.548688
55374,NaN,8.915746,-2.009803,-2.349628,0.127980,-0.705954,-0.403342,0.055228,0.079186,0.255654,-0.863281,0.511475,0.510254,0.089174,-0.019978,-0.023537,0.999999,0.000276,0.000396,0.001278,0.307004,-0.759065,-0.170078,-0.548309
55375,NaN,8.726412,-2.277146,-2.339998,-0.076616,-0.508558,-0.509640,0.032231,0.066226,0.313681,-0.861328,0.517822,0.512207,0.087292,-0.022631,-0.023433,0.999999,0.000161,0.000331,0.001568,0.308063,-0.759100,-0.168860,-0.548043
55376,NaN,8.849424,-2.508787,-2.251968,-0.086984,-0.317663,-0.348592,0.029131,0.068441,0.370805,-0.861084,0.513672,0.505859,0.088533,-0.024920,-0.022554,0.999998,0.000146,0.000342,0.001854,0.309502,-0.759254,-0.167383,-0.547472
55377,NaN,8.802654,-2.546926,-2.048603,0.042400,-0.185908,-0.424726,0.066556,0.066244,0.446903,-0.861328,0.520020,0.508057,0.088076,-0.025266,-0.020524,0.999997,0.000333,0.000331,0.002235,0.311054,-0.759342,-0.165752,-0.546966
55378,NaN,9.209006,-1.963306,-1.607617,0.881565,-0.413692,-0.310252,0.044028,0.026981,0.545486,-0.857422,0.528564,0.507812,0.092141,-0.019378,-0.016093,0.999996,0.000220,0.000135,0.002727,0.312979,-0.759723,-0.163712,-0.545952
55379,NaN,9.719527,-1.439585,-1.549216,1.448759,-0.861716,-0.009633,0.056844,-0.009615,0.654589,-0.855225,0.532959,0.507812,0.097242,-0.014073,-0.015492,0.999995,0.000284,-0.000048,0.003273,0.314993,-0.760193,-0.161381,-0.544833
55380,NaN,9.760423,-0.984094,-1.749056,1.638842,-1.392184,-0.082887,0.027600,-0.067514,0.787521,-0.849121,0.539307,0.509766,0.097648,-0.009454,-0.017459,0.999992,0.000138,-0.000338,0.003938,0.317416,-0.761032,-0.158522,-0.543091
55381,NaN,9.864633,-0.999756,-2.238856,1.370205,-1.771693,0.102246,0.057490,-0.093806,0.907666,-0.842773,0.543701,0.507812,0.098701,-0.009543,-0.022345,0.999990,0.000287,-0.000469,0.004538,0.320043,-0.761908,-0.155357,-0.541234
55382,NaN,9.091765,-0.688183,-2.510606,1.143049,-2.162544,-0.677425,0.043742,-0.158631,1.018543,-0.841064,0.554199,0.513916,0.090971,-0.006413,-0.025035,0.999987,0.000219,-0.000793,0.005093,0.323037,-0.763116,-0.151796,-0.538756
55383,NaN,9.071167,-1.859064,-2.902810,0.247043,-1.609384,-0.246265,-0.007382,-0.188501,1.099119,-0.826416,0.564941,0.516113,0.090839,-0.018093,-0.028942,0.999984,-0.000037,-0.000943,0.005496,0.325843,-0.764458,-0.147869,-0.536250
55384,NaN,8.530775,-3.326498,-2.820960,-0.657481,-0.467673,-0.265671,0.022573,-0.180086,1.169017,-0.822266,0.571289,0.518066,0.085526,-0.032762,-0.028136,0.999983,0.000113,-0.000900,0.005845,0.329089,-0.765828,-0.143691,-0.533442
55385,NaN,7.980277,-3.439667,-2.462874,-0.594437,-0.148786,-0.801284,0.102632,-0.160012,1.214061,-0.814209,0.584229,0.515869,0.080029,-0.033899,-0.024582,0.999981,0.000513,-0.000800,0.006070,0.332621,-0.766943,-0.139561,-0.530739
55386,NaN,7.296451,-3.262132,-2.204736,-0.496661,-0.089572,-1.537123,0.159535,-0.173092,1.250719,-0.810059,0.592773,0.524170,0.073186,-0.032147,-0.022010,0.999980,0.000798,-0.000865,0.006254,0.336579,-0.768069,-0.135406,-0.527683
55387,NaN,7.522081,-4.397807,-2.577527,-1.230998,0.394295,-0.818571,0.150113,-0.209260,1.248939,-0.799561,0.601318,0.528564,0.075520,-0.043488,-0.025729,0.999980,0.000751,-0.001046,0.006245,0.340324,-0.769198,-0.131340,-0.524656
55388,NaN,8.925612,-5.139031,-2.050238,-0.586927,0.984386,0.625925,0.237888,-0.231986,1.249245,-0.791748,0.618408,0.526123,0.089598,-0.050807,-0.020459,0.999979,0.001189,-0.001160,0.006246,0.344509,-0.770280,-0.127481,-0.521278
55389,NaN,10.750959,-3.334237,-1.411245,1.753855,-0.300091,1.391060,0.382394,-0.321334,1.260084,-0.785400,0.624756,0.526123,0.107739,-0.032637,-0.014002,0.999977,0.001912,-0.001607,0.006300,0.349075,-0.771244,-0.124159,-0.517604
55390,NaN,10.850822,-1.807075,-1.916681,2.404315,-1.858237,0.931783,0.546999,-0.400162,1.303975,-0.770752,0.635498,0.525879,0.108661,-0.017311,-0.018998,0.999973,0.002735,-0.002001,0.006520,0.354454,-0.772179,-0.121176,-0.513242
55391,NaN,9.465859,-2.697064,-3.033293,0.633417,-1.818146,0.305046,0.562559,-0.463225,1.380461,-0.767090,0.652588,0.532227,0.094911,-0.026231,-0.030188,0.999970,0.002813,-0.002316,0.006902,0.359899,-0.773183,-0.118090,-0.508640
55392,NaN,8.743705,-5.559326,-3.438105,-1.419830,-0.028368,1.011350,0.664912,-0.458177,1.418573,-0.752441,0.667725,0.527832,0.087907,-0.054857,-0.034363,0.999967,0.003325,-0.002291,0.007093,0.365917,-0.774028,-0.115045,-0.503735
55393,NaN,9.567855,-6.097056,-2.795723,-0.759504,0.498597,1.836585,0.973708,-0.402630,1.408835,-0.737793,0.680420,0.523438,0.096161,-0.060158,-0.028058,0.999961,0.004868,-0.002013,0.007044,0.373010,-0.774041,-0.112760,-0.499009
55394,NaN,9.974750,-3.800552,-2.101045,1.291222,-0.843180,0.956406,1.118504,-0.354354,1.436703,-0.727783,0.699707,0.518799,0.100054,-0.037170,-0.021043,0.999957,0.005592,-0.001772,0.007183,0.380829,-0.773679,-0.110569,-0.494129
55395,NaN,10.110068,-3.367078,-3.112553,1.031556,-2.008365,1.056441,0.972536,-0.371650,1.502500,-0.717529,0.710449,0.525146,0.101407,-0.032758,-0.031098,0.999958,0.004863,-0.001858,0.007512,0.388104,-0.773543,-0.107845,-0.489261
55396,NaN,11.333582,-5.428255,-4.749046,-0.433188,-2.191677,3.433946,1.025728,-0.369904,1.550035,-0.705078,0.725342,0.516357,0.113839,-0.053158,-0.047555,0.999955,0.005129,-0.001849,0.007750,0.395744,-0.773321,-0.104988,-0.484086
55397,NaN,14.239975,-5.250897,-4.739443,1.331036,-3.153643,5.714252,1.364570,-0.327664,1.619219,-0.692627,0.742676,0.514160,0.142895,-0.051029,-0.047512,0.999943,0.006823,-0.001638,0.008096,0.404766,-0.772218,-0.102655,-0.478859
55398,NaN,18.594995,-3.250535,-2.105132,6.638959,-3.798837,7.572725,1.600005,-0.223000,1.822038,-0.667480,0.763916,0.503174,0.186258,-0.030641,-0.021094,0.999926,0.008000,-0.001115,0.009110,0.415221,-0.770461,-0.099791,-0.473310
55399,NaN,19.806088,-1.202191,-1.549049,9.010732,-5.249096,7.139113,1.416910,-0.160966,2.102705,-0.648682,0.781006,0.496582,0.198184,-0.009829,-0.015406,0.999919,0.007084,-0.000805,0.010513,0.425563,-0.768886,-0.095353,-0.467567
55400,NaN,20.769365,-1.753320,-2.708428,8.794245,-6.309169,8.204202,1.186559,-0.196037,2.392650,-0.627930,0.800293,0.494385,0.207909,-0.014886,-0.026974,0.999910,0.005933,-0.000980,0.011963,0.435584,-0.767949,-0.089239,-0.461040
55401,NaN,22.205763,-2.390019,-3.409329,9.169690,-7.179636,9.546247,1.182609,-0.228431,2.628118,-0.604736,0.815430,0.485596,0.222383,-0.020778,-0.033968,0.999896,0.005913,-0.001142,0.013140,0.446057,-0.766990,-0.082344,-0.453850
55402,NaN,22.502205,-1.666521,-2.849395,10.469686,-7.639843,8.874914,1.219913,-0.243637,2.817453,-0.571045,0.836670,0.476807,0.225260,-0.013320,-0.028308,0.999881,0.006099,-0.001218,0.014087,0.456888,-0.765945,-0.074740,-0.446089
55403,NaN,21.736645,-0.934218,-2.205787,11.193457,-7.704880,7.319866,1.170298,-0.248180,2.934770,-0.547852,0.851807,0.474609,0.217498,-0.006023,-0.021830,0.999874,0.005851,-0.001241,0.014673,0.467785,-0.764823,-0.066651,-0.437927
55404,NaN,19.975597,-1.352500,-1.916975,10.452589,-7.044548,5.859425,1.125529,-0.231729,2.939812,-0.514160,0.870850,0.461670,0.199947,-0.010480,-0.019003,0.999875,0.005627,-0.001159,0.014698,0.478214,-0.763633,-0.058308,-0.429855
55405,NaN,18.284525,-0.702218,-1.062687,10.559225,-6.476031,3.696074,1.194996,-0.182675,2.824480,-0.486328,0.877441,0.455322,0.182929,-0.004376,-0.010491,0.999882,0.005975,-0.000913,0.014122,0.488757,-0.761898,-0.050504,-0.421991
55406,NaN,13.924057,0.879887,-0.643699,9.028640,-5.721353,-0.823506,1.167625,-0.077793,2.696219,-0.458984,0.892334,0.446533,0.139107,0.010712,-0.006324,0.999892,0.005838,-0.000389,0.013481,0.498575,-0.759854,-0.042791,-0.414986
55407,NaN,10.009209,2.411641,-1.238915,6.999042,-5.718761,-4.729485,0.956714,-0.018354,2.354683,-0.435547,0.898682,0.442383,0.099800,0.025351,-0.012261,0.999919,0.004783,-0.000092,0.011773,0.507070,-0.757946,-0.035856,-0.408794
55408,NaN,5.410628,5.591925,-2.885475,4.507037,-6.964283,-10.043302,0.218497,0.296929,2.171552,-0.416260,0.905029,0.440186,0.053452,0.056534,-0.028873,0.999939,0.001092,0.001485,0.010858,0.512059,-0.757174,-0.027233,-0.404650
55409,NaN,-0.706201,3.602506,-0.342201,0.937337,-1.705058,-12.944398,-0.407190,0.509335,1.893302,-0.396729,0.900635,0.453125,-0.007411,0.035949,-0.003477,0.999950,-0.002036,0.002547,0.009466,0.514410,-0.757402,-0.017919,-0.401752
55410,NaN,-5.026860,0.866364,-0.343071,-3.237108,1.280752,-13.556755,-0.426992,0.105214,1.289771,-0.386230,0.902832,0.451172,-0.050325,0.008332,-0.003422,0.999977,-0.002135,0.000526,0.006449,0.515042,-0.758438,-0.011805,-0.399206
55411,NaN,-7.113227,5.516744,-0.867778,-3.012828,-0.473258,-18.326453,-0.367667,-0.020999,0.415333,-0.388184,0.898682,0.457520,-0.071246,0.055003,-0.008786,0.999996,-0.001838,-0.000105,0.002077,0.514491,-0.759444,-0.009533,-0.398062
55412,NaN,-9.402818,4.253402,-0.543603,-4.914174,1.268844,-18.814939,0.303831,-0.072339,-0.582587,-0.394287,0.892090,0.447021,-0.093902,0.042816,-0.005405,0.999995,0.001519,-0.000362,-0.002913,0.514149,-0.758832,-0.012423,-0.399588
55413,NaN,-9.119937,2.727392,-1.257919,-5.737719,1.264491,-17.406931,0.733494,-0.115276,-1.253677,-0.404785,0.885742,0.447021,-0.091019,0.027891,-0.012530,0.999973,0.003667,-0.000576,-0.006268,0.514424,-0.757074,-0.018925,-0.402303
55414,NaN,-4.827181,3.630586,-1.002961,-2.196771,-0.666446,-15.488759,0.849408,-0.101209,-1.654911,-0.421875,0.881592,0.438477,-0.047964,0.036746,-0.009898,0.999957,0.004247,-0.000506,-0.008274,0.513964,-0.754976,-0.027030,-0.406351
55415,NaN,-1.452221,4.315401,-1.042307,0.447518,-2.327032,-13.837826,0.764178,0.026747,-2.167635,-0.445312,0.873047,0.438477,-0.014054,0.043347,-0.010256,0.999934,0.003821,0.000134,-0.010838,0.512432,-0.752612,-0.036679,-0.411878
55416,NaN,-0.566455,3.695573,-0.734126,1.009929,-2.138481,-12.799836,0.823191,0.118914,-2.740799,-0.464111,0.855957,0.423584,-0.005161,0.037059,-0.007186,0.999897,0.004116,0.000595,-0.013704,0.509523,-0.749764,-0.048245,-0.419420
55417,NaN,0.203190,3.232472,-0.195476,1.674247,-1.772830,-11.953095,0.996566,0.179255,-3.247303,-0.502441,0.847412,0.412842,0.002555,0.032295,-0.001796,0.999855,0.004983,0.000896,-0.016236,0.506436,-0.745955,-0.062029,-0.428049
55418,NaN,0.806994,2.488261,0.144968,1.924123,-1.350013,-10.969448,1.116754,0.197956,-3.629042,-0.536133,0.826172,0.410889,0.008521,0.024722,0.001580,0.999819,0.005583,0.000990,-0.018144,0.502448,-0.741541,-0.077311,-0.437820
55419,NaN,1.242248,1.601771,0.015938,1.658386,-1.156404,-9.957724,1.170393,0.162510,-3.943746,-0.567627,0.804688,0.398193,0.012735,0.015767,0.000242,0.999788,0.005852,0.000812,-0.019717,0.498129,-0.736562,-0.094055,-0.447770
55420,NaN,2.061508,0.750798,0.045688,1.647097,-0.942589,-8.711116,1.293828,0.110590,-4.250256,-0.603516,0.785645,0.387451,0.020769,0.007065,0.000492,0.999753,0.006469,0.000553,-0.021250,0.492934,-0.731016,-0.112187,-0.458307
55421,NaN,3.036408,0.198089,0.039507,1.788053,-0.905296,-7.523082,1.490813,0.060447,-4.520898,-0.639160,0.762207,0.379150,0.030399,0.001291,0.000397,0.999717,0.007453,0.000302,-0.022602,0.487936,-0.724460,-0.131932,-0.468690
55422,NaN,3.489333,-0.693137,-0.673317,0.950418,-1.108107,-6.499703,1.511013,-0.112319,-4.827323,-0.676758,0.729980,0.366455,0.034717,-0.007720,-0.006770,0.999680,0.007554,-0.000562,-0.024134,0.481478,-0.717735,-0.153087,-0.479165
55423,NaN,4.522786,-2.830596,-1.368416,-0.548436,-0.803710,-4.391575,1.821645,-0.301956,-5.077781,-0.712158,0.695801,0.358154,0.044513,-0.029316,-0.013881,0.999635,0.009107,-0.001510,-0.025386,0.475462,-0.709926,-0.176330,-0.488722
55424,NaN,5.488690,-5.555953,-2.000456,-2.672705,-0.115873,-2.208229,1.868275,-0.399351,-5.061758,-0.741211,0.667969,0.343506,0.053501,-0.056736,-0.020423,0.999634,0.009340,-0.001997,-0.025306,0.468797,-0.701868,-0.199651,-0.497745
55425,NaN,6.771772,-5.607965,-2.319995,-2.678866,-0.482657,-1.137093,1.707112,-0.638073,-4.960654,-0.770020,0.629639,0.339600,0.066377,-0.057538,-0.023474,0.999651,0.008535,-0.003190,-0.024800,0.461660,-0.694260,-0.222720,-0.505241
55426,NaN,9.151426,-4.637461,-1.100702,-0.775727,-0.059200,0.475271,1.371754,-0.957216,-4.807800,-0.794678,0.599609,0.335693,0.090418,-0.048482,-0.010900,0.999676,0.006858,-0.004786,-0.024036,0.452658,-0.688087,-0.244912,-0.511523
55427,NaN,11.148672,-4.385080,-0.876688,-0.158521,0.074352,2.197085,0.213554,-1.203687,-4.507304,-0.812744,0.558838,0.351318,0.110511,-0.046340,-0.008148,0.999727,0.001068,-0.006018,-0.022534,0.440286,-0.684978,-0.263610,-0.517168
55428,NaN,13.961754,-6.502743,-0.985383,-1.463856,1.169105,5.505142,-0.737039,-1.377816,-4.309866,-0.826416,0.518066,0.364502,0.138235,-0.068050,-0.008651,0.999737,-0.003685,-0.006888,-0.021547,0.424284,-0.684461,-0.279332,-0.522944
55429,NaN,16.607713,-10.033016,-1.393429,-4.301117,2.941499,8.927717,-1.050561,-1.268070,-4.208641,-0.842285,0.479492,0.382324,0.163998,-0.103864,-0.012351,0.999745,-0.005252,-0.006340,-0.021041,0.407823,-0.683957,-0.293596,-0.528853
55430,NaN,16.421389,-10.561685,-0.578205,-4.945516,4.543153,8.528165,-1.017984,-1.029602,-4.110971,-0.854004,0.440918,0.391357,0.162022,-0.108987,-0.004395,0.999763,-0.005090,-0.005148,-0.020553,0.391492,-0.682712,-0.306896,-0.535214
55431,NaN,15.176796,-9.304813,0.228684,-4.289308,5.155095,6.678168,-1.328687,-0.867579,-3.903876,-0.869873,0.402344,0.406738,0.149900,-0.095965,0.003571,0.999778,-0.006643,-0.004338,-0.019518,0.375109,-0.681498,-0.318285,-0.541801
55432,NaN,14.749637,-11.648187,-0.072037,-6.912094,6.622747,6.359915,-1.619539,-0.762560,-3.626962,-0.876953,0.361816,0.411621,0.145351,-0.119129,0.000794,0.999796,-0.008097,-0.003813,-0.018134,0.358172,-0.680827,-0.327533,-0.548552
55433,NaN,14.241857,-14.344158,-1.410755,-10.306702,7.385599,5.991001,-1.388140,-0.679337,-3.238846,-0.882324,0.329590,0.422852,0.140114,-0.145814,-0.012622,0.999839,-0.006940,-0.003397,-0.016193,0.343411,-0.679769,-0.335905,-0.554212
55434,NaN,14.519830,-15.034681,-1.993541,-11.455824,7.717693,5.999050,-0.831369,-0.548292,-2.757967,-0.885986,0.308105,0.436035,0.143159,-0.152410,-0.018910,0.999893,-0.004157,-0.002741,-0.013789,0.331786,-0.678136,-0.343794,-0.558439
55435,NaN,14.924465,-14.322744,-2.238537,-11.217935,7.463858,6.040455,-0.363762,-0.331545,-2.208788,-0.891846,0.291016,0.429688,0.147687,-0.144904,-0.021877,0.999936,-0.001819,-0.001658,-0.011044,0.323811,-0.675832,-0.350786,-0.561558
55436,NaN,13.359632,-13.443617,-2.413736,-11.003329,6.861264,4.218578,-0.146028,-0.183453,-1.827756,-0.893311,0.271729,0.427979,0.132382,-0.135667,-0.023917,0.999958,-0.000730,-0.000917,-0.009139,0.317770,-0.673474,-0.356745,-0.564082
55437,NaN,11.387912,-11.732024,-2.884764,-10.214745,5.416869,2.101934,-0.077382,-0.132901,-1.513733,-0.899170,0.256592,0.434570,0.113006,-0.118189,-0.028727,0.999971,-0.000387,-0.000665,-0.007569,0.313011,-0.671259,-0.361815,-0.566150
55438,NaN,9.474071,-10.358775,-3.305156,-9.589732,4.157255,0.124018,-0.139580,-0.181633,-1.206739,-0.898682,0.241699,0.434814,0.094143,-0.104180,-0.032893,0.999981,-0.000698,-0.000908,-0.006034,0.308810,-0.669927,-0.365650,-0.567569
55439,NaN,8.485539,-10.159246,-3.518834,-9.694988,3.810685,-0.919917,-0.266728,-0.309539,-0.890059,-0.898438,0.235352,0.439209,0.084456,-0.102016,-0.034922,0.999988,-0.001334,-0.001548,-0.004450,0.304838,-0.669589,-0.368339,-0.568376
55440,NaN,9.003903,-10.080755,-2.762057,-9.207399,4.550425,-0.601962,-0.298262,-0.431460,-0.545868,-0.896240,0.228760,0.447754,0.089822,-0.101094,-0.027276,0.999993,-0.001491,-0.002157,-0.002729,0.301577,-0.670407,-0.369863,-0.568161
55441,NaN,9.638782,-9.641906,-1.576250,-8.148812,5.459156,-0.213150,-0.193508,-0.479173,-0.205627,-0.894287,0.237305,0.447754,0.096326,-0.096533,-0.015438,0.999996,-0.000968,-0.002396,-0.001028,0.299474,-0.671685,-0.370714,-0.567209
55442,NaN,9.872969,-8.798729,-0.614888,-6.872708,5.874326,-0.141637,0.006874,-0.473656,0.128311,-0.892090,0.230957,0.454346,0.098800,-0.087924,-0.005918,0.999997,0.000034,-0.002368,0.000642,0.299146,-0.673404,-0.370895,-0.565222
55443,NaN,10.354739,-7.181948,-0.141619,-5.176087,5.475250,0.289318,0.224625,-0.391114,0.432436,-0.894287,0.235107,0.449951,0.103705,-0.071594,-0.001294,0.999995,0.001123,-0.001956,0.002162,0.300415,-0.674980,-0.370646,-0.562827
55444,NaN,10.576554,-6.249351,-0.468939,-4.482486,4.712031,0.620011,0.576701,-0.298704,0.711596,-0.885986,0.241699,0.456299,0.105994,-0.062103,-0.004711,0.999988,0.002883,-0.001494,0.003558,0.304048,-0.676400,-0.370200,-0.559454
55445,NaN,10.333405,-4.522808,-0.664896,-3.083777,3.528134,0.469274,0.792426,-0.211829,0.923207,-0.886475,0.256592,0.462402,0.103548,-0.044724,-0.006717,0.999981,0.003962,-0.001059,0.004616,0.308929,-0.677492,-0.369599,-0.555845
55446,NaN,9.816300,-3.780339,-0.586479,-2.376801,3.048508,-0.012136,0.763046,-0.161366,1.127691,-0.876221,0.271484,0.458008,0.098379,-0.037227,-0.005928,0.999977,0.003815,-0.000807,0.005638,0.314636,-0.678949,-0.368032,-0.551892
55447,NaN,9.192134,-2.699245,-0.683680,-1.481085,2.232337,-0.589337,0.610343,-0.148304,1.372343,-0.872314,0.280029,0.458008,0.092109,-0.026340,-0.006850,0.999972,0.003052,-0.000742,0.006862,0.320230,-0.680912,-0.365269,-0.548078
55448,NaN,5.119145,-20.249758,-10.042553,-21.569431,2.979028,-1.876950,0.675255,-0.635731,1.921784,-0.864502,0.303711,0.468262,0.053452,-0.201651,-0.100940,0.999943,0.003376,-0.003179,0.009609,0.326937,-0.685147,-0.361469,-0.541318
55449,NaN,22.889128,12.542952,1.319458,15.090965,-2.466620,11.379249,0.193712,0.150433,3.240921,-0.860840,0.320801,0.463867,0.226829,0.129104,0.013147,0.999868,0.000969,0.000752,0.016204,0.336618,-0.690199,-0.350586,-0.536101
55450,NaN,12.390944,14.815696,6.489371,18.045606,-1.030704,-0.408902,-1.521896,0.373670,1.374076,-0.854248,0.322998,0.470215,0.123005,0.149491,0.063529,0.999946,-0.007609,0.001868,0.006870,0.336003,-0.694243,-0.341002,-0.537443
55451,NaN,19.921575,5.770264,3.280591,10.474191,1.652359,8.310849,-2.294620,-0.187518,2.288248,-0.846191,0.335693,0.478760,0.198505,0.060349,0.032310,0.999868,-0.011473,-0.000938,0.011441,0.333841,-0.702420,-0.327151,-0.536775
55452,NaN,16.753165,7.226595,1.838299,10.505274,-1.023716,5.182319,-1.888961,-0.022187,1.821147,-0.837891,0.342041,0.493652,0.166861,0.073957,0.017708,0.999914,-0.009445,-0.000111,0.009105,0.332316,-0.708604,-0.315636,-0.536489
55453,NaN,17.716211,-2.322122,-3.178937,0.488270,0.335560,8.325829,-1.961776,-0.072439,1.708955,-0.833496,0.342041,0.493652,0.177365,-0.022016,-0.031505,0.999915,-0.009809,-0.000362,0.008545,0.329825,-0.714703,-0.304399,-0.536430
55454,NaN,17.686722,1.707097,-3.151929,3.882857,-2.157903,7.678234,-1.408389,-0.206372,1.403267,-0.825195,0.348633,0.500000,0.176775,0.018090,-0.031462,0.999950,-0.007042,-0.001032,0.007016,0.328492,-0.719713,-0.295893,-0.535308
55455,NaN,13.930504,-0.339501,-2.755297,1.718920,-0.969414,4.253928,-1.283621,-0.131027,1.279244,-0.822998,0.346436,0.502197,0.139342,-0.002680,-0.027443,0.999959,-0.006418,-0.000655,0.006396,0.327108,-0.724042,-0.288044,-0.534598
55456,NaN,12.961897,-2.722061,-3.942474,-0.922025,-0.533770,3.965082,-0.836000,-0.299397,1.124220,-0.821045,0.350586,0.508545,0.129829,-0.026655,-0.039118,0.999974,-0.004180,-0.001497,0.005621,0.326884,-0.727843,-0.282186,-0.532694
55457,NaN,12.811634,-2.563703,-1.861910,0.522910,0.940364,3.340935,-0.427505,-0.282619,1.097663,-0.814941,0.363525,0.514893,0.128281,-0.024973,-0.018384,0.999982,-0.002138,-0.001413,0.005488,0.327866,-0.730837,-0.277496,-0.530451
55458,NaN,9.830187,-0.255849,0.724041,3.075351,1.263247,-0.530039,-0.813682,-0.264460,1.091730,-0.804199,0.359131,0.519287,0.098304,-0.001992,0.007379,0.999976,-0.004068,-0.001322,0.005459,0.327648,-0.734402,-0.271741,-0.528638
55459,NaN,9.073513,-1.469130,-2.809231,-0.075458,-0.747004,-0.230696,-1.067956,-0.288033,1.006983,-0.806396,0.363525,0.527832,0.090848,-0.014383,-0.027884,0.999972,-0.005340,-0.001440,0.005035,0.326006,-0.738267,-0.265670,-0.527352
55460,NaN,11.914019,-1.384898,-3.869076,0.293157,-1.480354,2.699446,-1.216323,-0.279758,0.979683,-0.797607,0.359131,0.527832,0.119261,-0.013499,-0.038441,0.999969,-0.006082,-0.001399,0.004898,0.323948,-0.742292,-0.259269,-0.526156
55461,NaN,16.144444,-2.270513,-4.347096,0.778787,-1.084239,7.007311,-1.034178,-0.234499,0.852615,-0.789307,0.363281,0.540771,0.161591,-0.022240,-0.043166,0.999977,-0.005171,-0.001172,0.004263,0.322061,-0.745679,-0.253742,-0.525219
55462,NaN,15.806782,-2.842457,-3.083819,1.169241,0.195626,6.497956,-0.495631,-0.229958,0.826800,-0.785156,0.369873,0.538574,0.158219,-0.027847,-0.030587,0.999988,-0.002478,-0.001150,0.004134,0.322298,-0.748152,-0.249696,-0.523493
55463,NaN,13.047911,-4.364761,-1.597323,0.224543,2.176436,3.864380,-0.023378,-0.241422,0.787878,-0.783203,0.376221,0.544922,0.130669,-0.043135,-0.015811,0.999992,-0.000117,-0.001207,0.003939,0.323988,-0.749806,-0.247058,-0.521330
55464,NaN,10.239500,-5.951043,-0.917762,-1.319787,3.605196,1.428513,0.170653,-0.243820,0.736839,-0.774902,0.384766,0.542480,0.102624,-0.059125,-0.009103,0.999992,0.000853,-0.001219,0.003684,0.326463,-0.751091,-0.245112,-0.518850
55465,NaN,8.400699,-6.055166,-0.947190,-1.971417,3.561998,-0.244028,0.284714,-0.247346,0.633153,-0.768799,0.393311,0.542480,0.084210,-0.060272,-0.009454,0.999993,0.001424,-0.001237,0.003166,0.328889,-0.752045,-0.243859,-0.516520
55466,NaN,8.245475,-4.331410,-1.672663,-1.198385,1.832870,-0.606662,0.380467,-0.220620,0.599470,-0.769043,0.397705,0.538086,0.082602,-0.043035,-0.016718,0.999993,0.001902,-0.001103,0.002997,0.331853,-0.752723,-0.242938,-0.514065
55467,NaN,9.357522,-2.154006,-2.664460,0.179497,-0.361243,0.144181,0.390034,-0.138996,0.584593,-0.771484,0.408447,0.542236,0.093656,-0.021214,-0.026621,0.999994,0.001950,-0.000695,0.002923,0.334673,-0.753145,-0.241953,-0.512080
55468,NaN,8.870823,-2.077198,-3.593443,-0.451807,-1.162834,-0.098653,0.305815,-0.073343,0.538292,-0.765381,0.416992,0.542236,0.088777,-0.020478,-0.035933,0.999995,0.001529,-0.000367,0.002691,0.337372,-0.753474,-0.240820,-0.510355
55469,NaN,9.107544,-2.461608,-3.578949,-0.582733,-0.933717,0.217470,0.216491,-0.042961,0.539726,-0.756836,0.416992,0.542236,0.091149,-0.024331,-0.035796,0.999996,0.001082,-0.000215,0.002699,0.339532,-0.753872,-0.239394,-0.509004
55470,NaN,9.599265,-2.654478,-2.897024,-0.077715,-0.326896,0.554168,0.222634,-0.018094,0.527818,-0.759033,0.421143,0.540039,0.096065,-0.026259,-0.028991,0.999996,0.001113,-0.000090,0.002639,0.341935,-0.754181,-0.237983,-0.507598
55471,NaN,9.838809,-1.730651,-2.243748,1.100935,-0.470488,0.355795,0.156973,-0.035357,0.520507,-0.756836,0.423340,0.533447,0.098437,-0.017033,-0.022434,0.999996,0.000785,-0.000177,0.002603,0.343825,-0.754626,-0.236461,-0.506370
55472,NaN,9.898672,-2.024465,-2.236109,0.968001,-0.307332,0.485402,0.088935,-0.071418,0.493767,-0.757080,0.427490,0.539795,0.099044,-0.019990,-0.022335,0.999997,0.000445,-0.000357,0.002469,0.345559,-0.755247,-0.234926,-0.504976
55473,NaN,9.348034,-2.462666,-2.022021,0.622698,0.109760,0.043226,0.116040,-0.108200,0.478201,-0.748779,0.434082,0.539795,0.093550,-0.024391,-0.020184,0.999997,0.000580,-0.000541,0.002391,0.347097,-0.755886,-0.233582,-0.503587
55474,NaN,8.761587,-2.694775,-2.338153,0.091268,-0.006046,-0.353003,0.032978,-0.140723,0.467925,-0.748779,0.438232,0.541992,0.087695,-0.026739,-0.023324,0.999997,0.000165,-0.000704,0.002340,0.348462,-0.756737,-0.232123,-0.502039
55475,NaN,7.772004,-3.666088,-2.401432,-0.968400,0.558875,-0.960524,-0.030722,-0.168893,0.492152,-0.740479,0.446777,0.546143,0.077830,-0.036473,-0.023943,0.999997,-0.000154,-0.000844,0.002461,0.349405,-0.757789,-0.230459,-0.500560
55476,NaN,9.415714,-4.252560,-2.143088,-0.529142,1.116130,0.666187,0.066979,-0.172150,0.460986,-0.742676,0.444824,0.541748,0.094273,-0.042301,-0.021364,0.999997,0.000335,-0.000861,0.002305,0.350839,-0.758641,-0.229162,-0.498859
55477,NaN,9.285557,-3.872625,-1.994847,-0.182377,0.962691,0.397013,0.187965,-0.163256,0.396161,-0.736328,0.448975,0.543945,0.092948,-0.038523,-0.019909,0.999997,0.000940,-0.000816,0.001981,0.352373,-0.759177,-0.228396,-0.497311
55478,NaN,9.139143,-3.099576,-2.288404,0.168247,0.215900,0.101596,0.217299,-0.175588,0.408629,-0.732422,0.457520,0.541748,0.091475,-0.030784,-0.022837,0.999997,0.001086,-0.000878,0.002043,0.354246,-0.759700,-0.227679,-0.495508
55479,NaN,9.345731,-2.884859,-2.469924,0.338190,-0.086216,0.269157,0.279227,-0.157937,0.451298,-0.730225,0.459717,0.541748,0.093542,-0.028603,-0.024665,0.999996,0.001396,-0.000790,0.002256,0.356265,-0.760114,-0.226917,-0.493772
55480,NaN,9.002547,-1.755007,-2.687943,0.906090,-1.009224,-0.351654,0.273454,-0.105910,0.532927,-0.726318,0.468262,0.541504,0.090086,-0.017273,-0.026855,0.999995,0.001367,-0.000530,0.002665,0.358728,-0.760493,-0.225739,-0.491942
55481,NaN,8.953409,-1.295588,-3.064552,1.033539,-1.624948,-0.457229,0.141224,-0.098990,0.614824,-0.724121,0.470459,0.539307,0.089588,-0.012659,-0.030610,0.999995,0.000706,-0.000495,0.003074,0.360685,-0.761179,-0.223907,-0.490284
55482,NaN,9.005152,-1.382984,-2.838825,1.183062,-1.431367,-0.452371,0.035462,-0.117246,0.698800,-0.718018,0.476807,0.545898,0.090116,-0.013510,-0.028338,0.999994,0.000177,-0.000586,0.003494,0.362609,-0.762186,-0.221526,-0.488378
55483,NaN,9.232663,-1.682986,-3.176945,0.934449,-1.537364,-0.069465,-0.049764,-0.138347,0.760178,-0.716064,0.483154,0.539307,0.092412,-0.016487,-0.031701,0.999993,-0.000249,-0.000692,0.003801,0.364141,-0.763457,-0.218737,-0.486507
55484,NaN,9.106190,-2.594560,-3.441056,0.168116,-1.193027,0.189473,-0.044721,-0.135715,0.824024,-0.707764,0.491699,0.545654,0.091191,-0.025578,-0.034343,0.999991,-0.000224,-0.000679,0.004120,0.366012,-0.764772,-0.215706,-0.484386
55485,NaN,8.807510,-3.046510,-3.005716,0.054103,-0.602265,-0.039176,0.034921,-0.140320,0.878446,-0.701416,0.498291,0.547607,0.088229,-0.030073,-0.030001,0.999990,0.000175,-0.000702,0.004392,0.368140,-0.765994,-0.212667,-0.482182
55486,NaN,9.130237,-2.932220,-2.667004,0.553873,-0.472964,0.114084,0.119272,-0.151009,0.961787,-0.697510,0.506836,0.547607,0.091462,-0.028867,-0.026618,0.999988,0.000596,-0.000755,0.004809,0.370925,-0.767164,-0.209520,-0.479557
55487,NaN,8.553098,-2.961209,-2.725337,0.322443,-0.530003,-0.380505,0.140120,-0.186781,0.996586,-0.686768,0.510986,0.549805,0.085702,-0.029166,-0.027194,0.999987,0.000701,-0.000934,0.004983,0.373673,-0.768392,-0.206357,-0.476821
55488,NaN,8.860495,-3.745007,-2.625994,0.085193,-0.021794,0.158299,0.205423,-0.217324,1.059438,-0.682861,0.519531,0.541016,0.088830,-0.036953,-0.026202,0.999985,0.001027,-0.001087,0.005297,0.376924,-0.769620,-0.203152,-0.473648
55489,NaN,9.141555,-3.884611,-2.377949,0.363242,0.184684,0.392490,0.353798,-0.220700,1.088953,-0.679199,0.534668,0.545166,0.091651,-0.038305,-0.023747,0.999983,0.001769,-0.001103,0.005445,0.380655,-0.770575,-0.200192,-0.470361
55490,NaN,9.101179,-2.262963,-2.209621,1.623125,-0.773016,-0.346878,0.434850,-0.214743,1.186422,-0.664062,0.536621,0.542969,0.091167,-0.022041,-0.022047,0.999979,0.002174,-0.001074,0.005932,0.385060,-0.771434,-0.197020,-0.466692
55491,NaN,8.335199,-1.092823,-2.775361,1.805133,-1.968156,-1.372366,0.307632,-0.260515,1.331815,-0.658203,0.551758,0.549316,0.083458,-0.010330,-0.027661,0.999976,0.001538,-0.001303,0.006659,0.389110,-0.772749,-0.193078,-0.462790
55492,NaN,9.041112,-1.655638,-3.267952,1.623125,-2.108822,-0.427649,0.126887,-0.379879,1.462951,-0.643555,0.564453,0.542725,0.090591,-0.015873,-0.032518,0.999971,0.000634,-0.001899,0.007315,0.392749,-0.774781,-0.188424,-0.458213
55493,NaN,9.063661,-3.616350,-4.199755,-0.032970,-1.688730,0.675920,0.201797,-0.374430,1.460507,-0.630859,0.568848,0.547119,0.090976,-0.035458,-0.041863,0.999971,0.001009,-0.001872,0.007302,0.396535,-0.776601,-0.183938,-0.453672
55494,NaN,8.220642,-5.040099,-4.657823,-1.500925,-1.183106,0.724013,0.363339,-0.391548,1.464899,-0.618652,0.590088,0.544678,0.082663,-0.049712,-0.046507,0.999970,0.001817,-0.001958,0.007324,0.401015,-0.778107,-0.179810,-0.448782
55495,NaN,8.625285,-6.174376,-4.230896,-1.627424,-0.277446,1.487342,0.611637,-0.367744,1.439121,-0.612549,0.598633,0.546631,0.086771,-0.060991,-0.042337,0.999968,0.003058,-0.001839,0.007196,0.406301,-0.778979,-0.176294,-0.443882
55496,NaN,9.312375,-5.579340,-3.604766,-0.379271,-0.319367,1.615116,0.870699,-0.359455,1.477576,-0.595947,0.615967,0.540039,0.093597,-0.054946,-0.036120,0.999962,0.004353,-0.001797,0.007388,0.412749,-0.779302,-0.173150,-0.438572
55497,NaN,12.391816,-4.381346,-4.347014,1.863984,-2.046658,3.751279,1.017508,-0.397306,1.576585,-0.585449,0.628662,0.537842,0.124344,-0.042613,-0.043442,0.999954,0.005087,-0.001986,0.007883,0.419829,-0.779407,-0.170029,-0.432850
55498,NaN,15.935668,-3.985784,-5.544738,3.729426,-3.758123,6.695912,1.223109,-0.441456,1.683167,-0.571289,0.650146,0.529053,0.159805,-0.038176,-0.055332,0.999943,0.006115,-0.002207,0.008416,0.427934,-0.779203,-0.166986,-0.426416
55499,NaN,20.604426,-2.281453,-3.573226,8.848064,-3.849743,8.879230,1.449147,-0.386636,2.025138,-0.554688,0.671631,0.520264,0.206328,-0.020469,-0.035488,0.999921,0.007246,-0.001933,0.010125,0.437561,-0.778560,-0.162978,-0.419312
55500,NaN,20.649615,-0.008816,-2.876206,11.012807,-4.806318,7.224658,1.492911,-0.381574,2.441876,-0.531738,0.692871,0.513428,0.206529,0.002646,-0.028355,0.999896,0.007464,-0.001908,0.012209,0.448186,-0.778021,-0.157376,-0.411151
55501,NaN,20.967362,-2.396559,-4.156145,9.532603,-4.872508,8.842072,1.512543,-0.424588,2.771145,-0.508789,0.716553,0.506836,0.210064,-0.020744,-0.041281,0.999873,0.007562,-0.002123,0.013855,0.459395,-0.777590,-0.150616,-0.402026
55502,NaN,21.802721,-3.480144,-4.546977,9.721263,-5.084765,9.878418,1.870128,-0.429745,3.027466,-0.481689,0.742188,0.487305,0.218614,-0.031071,-0.045303,0.999839,0.009350,-0.002149,0.015137,0.472350,-0.776324,-0.143540,-0.391923
55503,NaN,22.089527,-2.175758,-3.771131,11.602110,-5.522395,8.673521,2.228100,-0.449231,3.329560,-0.450684,0.774414,0.474121,0.221296,-0.017658,-0.037426,0.999797,0.011140,-0.002246,0.016647,0.487124,-0.774176,-0.135993,-0.380615
55504,NaN,21.777441,0.842974,-2.352811,14.336383,-6.069099,5.617069,2.487159,-0.442325,3.590588,-0.419189,0.804443,0.450195,0.217624,0.012625,-0.022907,0.999759,0.012435,-0.002211,0.017951,0.503108,-0.771223,-0.127862,-0.368440
55505,NaN,19.289343,3.926643,-1.468305,15.211322,-6.512989,0.948217,2.447304,-0.468496,3.758995,-0.377197,0.836426,0.435059,0.192141,0.043054,-0.013721,0.999746,0.012235,-0.002342,0.018793,0.519060,-0.768139,-0.119001,-0.355498
55506,NaN,16.190750,2.948770,-2.183328,12.518657,-6.277441,-0.899777,2.114795,-0.618902,3.804835,-0.337158,0.855713,0.419922,0.161370,0.032786,-0.020998,0.999758,0.010573,-0.003094,0.019023,0.533336,-0.765833,-0.109748,-0.342064
55507,NaN,14.822700,-0.441248,-3.211454,9.650300,-5.680380,0.424205,1.961728,-0.752584,3.661259,-0.305420,0.875000,0.402588,0.148390,-0.001385,-0.031580,0.999777,0.009808,-0.003763,0.018305,0.546595,-0.763728,-0.101046,-0.328244
55508,NaN,14.699046,-0.488929,-2.213643,10.278986,-4.880122,-0.236581,2.103869,-0.687640,3.446866,-0.267334,0.898438,0.381104,0.147118,-0.002125,-0.021663,0.999790,0.010519,-0.003438,0.017233,0.559662,-0.760701,-0.093239,-0.315308
55509,NaN,12.100003,2.224640,-0.802832,10.376219,-4.092175,-4.561358,2.372208,-0.447242,3.232769,-0.233643,0.917725,0.355225,0.120636,0.024289,-0.007478,0.999797,0.011860,-0.002236,0.016163,0.573475,-0.756120,-0.085896,-0.303367
55510,NaN,8.254057,4.823169,-0.490153,8.768801,-3.790690,-9.210141,2.422343,-0.339556,2.857092,-0.199707,0.937012,0.342285,0.081847,0.049458,-0.004168,0.999823,0.012111,-0.001698,0.014285,0.586529,-0.750802,-0.079801,-0.293106
55511,NaN,6.058898,6.328747,-0.707542,7.634105,-3.837777,-11.874156,2.278795,-0.316282,2.362890,-0.180664,0.947754,0.318604,0.059845,0.064072,-0.006253,0.999864,0.011393,-0.001581,0.011814,0.598356,-0.745422,-0.075168,-0.284017
55512,NaN,4.730052,12.037594,-2.373325,8.501767,-6.532131,-17.425451,0.711149,0.035267,2.051079,-0.155273,0.954102,0.314453,0.046058,0.120936,-0.023312,0.999941,0.003556,0.000176,0.010255,0.603686,-0.743999,-0.068519,-0.278090
55513,NaN,2.170115,13.039568,5.176505,9.203664,0.910281,-20.582979,-0.321441,0.169183,0.632993,-0.153076,0.954102,0.310059,0.021332,0.130547,0.051537,0.999993,-0.001607,0.000846,0.003165,0.603440,-0.744944,-0.065187,-0.276894
55514,NaN,-3.219934,-0.768801,4.023421,-1.680205,4.728831,-11.213403,-0.516330,-0.001671,0.404927,-0.150879,0.956299,0.318604,-0.032184,-0.007649,0.040254,0.999995,-0.002582,-0.000008,0.002025,0.601844,-0.746654,-0.063089,-0.276245
55515,NaN,-5.321563,-5.053765,2.010973,-5.951385,4.495854,-8.305424,0.009621,-0.069360,-0.339672,-0.151123,0.964844,0.314209,-0.053308,-0.050448,0.020089,0.999998,0.000048,-0.000347,-0.001698,0.601403,-0.746610,-0.064560,-0.276982
55516,NaN,-4.000279,-7.940949,-0.235341,-6.874215,2.846198,-4.938269,0.500487,-0.033311,-0.879381,-0.170898,0.973389,0.305420,-0.040351,-0.079226,-0.002559,0.999987,0.002502,-0.000167,-0.004397,0.601844,-0.744865,-0.068760,-0.279700
55517,NaN,-1.519986,-0.290806,-1.087753,-1.754766,-0.586785,-10.205812,0.755038,0.135181,-1.271196,-0.170410,0.962891,0.297119,-0.015225,-0.002770,-0.010878,0.999972,0.003775,0.000676,-0.006356,0.602923,-0.741945,-0.074124,-0.283739
55518,NaN,1.068163,8.678722,0.733430,5.122909,-1.847564,-16.693021,0.242920,0.445112,-1.902409,-0.202881,0.967041,0.305420,0.011523,0.086671,0.007415,0.999952,0.001215,0.002226,-0.009512,0.601078,-0.739847,-0.080292,-0.291351
55519,NaN,2.335219,10.002674,1.605975,7.228112,-1.737566,-17.080010,-0.496315,0.593996,-2.715150,-0.224365,0.965088,0.307373,0.024755,0.099736,0.015740,0.999900,-0.002481,0.002970,-0.013575,0.595480,-0.739308,-0.087802,-0.301856
55520,NaN,3.086044,4.963399,2.252261,5.715290,-0.016928,-12.374596,-1.006087,0.588013,-3.277135,-0.266846,0.952148,0.313965,0.031735,0.049231,0.022182,0.999849,-0.005030,0.002940,-0.016385,0.586777,-0.739862,-0.096762,-0.314538
55521,NaN,3.080158,0.456851,2.152322,3.387893,1.170429,-8.596119,-0.999289,0.562563,-3.671521,-0.301025,0.941650,0.318115,0.030940,0.004109,0.021415,0.999815,-0.004996,0.002813,-0.018356,0.577486,-0.739995,-0.107087,-0.327795
55522,NaN,3.443259,-1.068388,0.593282,2.210235,0.145245,-6.907239,-0.986969,0.459209,-4.026201,-0.339600,0.935303,0.324463,0.034222,-0.011345,0.005909,0.999783,-0.004934,0.002296,-0.020130,0.567143,-0.739749,-0.119161,-0.341936
55523,NaN,3.946993,-1.506177,-1.129258,1.566710,-1.341239,-5.957058,-0.976571,0.304436,-4.339944,-0.384033,0.916016,0.339600,0.039113,-0.015968,-0.011276,0.999751,-0.004882,0.001522,-0.021698,0.556168,-0.739229,-0.132634,-0.355845
55524,NaN,4.717610,-2.466775,-2.501441,0.833482,-2.321689,-4.473472,-0.737499,0.161725,-4.643211,-0.417969,0.898926,0.341797,0.046565,-0.025846,-0.024958,0.999723,-0.003687,0.000809,-0.023214,0.544904,-0.737671,-0.148141,-0.370101
55525,NaN,5.894974,-3.523779,-3.378383,0.379584,-2.822261,-2.709036,-0.330391,-0.029532,-4.934524,-0.475586,0.886230,0.343750,0.058061,-0.036733,-0.033715,0.999694,-0.001652,-0.000148,-0.024670,0.534383,-0.734747,-0.165748,-0.383548
55526,NaN,8.041068,-4.278113,-3.298431,0.949697,-2.652570,-0.545270,0.370767,-0.160760,-5.190172,-0.520020,0.866943,0.333008,0.079292,-0.044787,-0.033002,0.999661,0.001854,-0.000804,-0.025948,0.525211,-0.729483,-0.186032,-0.396737
55527,NaN,9.458330,-2.972185,-1.640029,2.933603,-1.648160,-0.344875,1.042802,-0.232376,-5.318507,-0.564697,0.847656,0.333252,0.093769,-0.032137,-0.016454,0.999632,0.005213,-0.001162,-0.026589,0.518072,-0.721993,-0.208024,-0.408722
55528,NaN,9.814092,-1.172764,-0.145677,4.568402,-0.785034,-1.083251,1.127396,-0.391404,-5.369502,-0.615479,0.828613,0.324707,0.097782,-0.014348,-0.001341,0.999622,0.005636,-0.001957,-0.026844,0.510264,-0.713987,-0.230779,-0.420232
55529,NaN,10.758434,-0.933670,0.247307,4.961593,-0.349006,-0.225869,0.847170,-0.664865,-5.552552,-0.661865,0.798584,0.322754,0.107261,-0.012329,0.002782,0.999600,0.004235,-0.003324,-0.027759,0.500668,-0.706534,-0.253969,-0.430861
55530,NaN,13.098902,-4.225297,-0.993289,2.502036,-0.110448,3.755507,0.597587,-0.979979,-5.791566,-0.710205,0.764404,0.325195,0.129740,-0.045994,-0.009429,0.999564,0.002988,-0.004899,-0.028954,0.488511,-0.699446,-0.278202,-0.441290
55531,NaN,16.360237,-6.596267,-1.589775,1.041477,0.479019,7.859237,1.264707,-1.030274,-5.827043,-0.758301,0.726074,0.319092,0.161671,-0.070593,-0.015498,0.999542,0.006323,-0.005151,-0.029131,0.478437,-0.690210,-0.303744,-0.449942
55532,NaN,16.645858,-4.719539,-0.430243,2.217409,1.306568,7.299824,1.826393,-0.960057,-5.755989,-0.797852,0.691895,0.321533,0.165029,-0.051922,-0.003968,0.999533,0.009131,-0.004800,-0.028775,0.469762,-0.678890,-0.330018,-0.457733
55533,NaN,16.672068,-2.370429,0.267022,3.630324,1.583052,6.554469,1.598100,-1.059886,-5.695619,-0.837402,0.653320,0.326172,0.165939,-0.028463,0.003336,0.999549,0.007989,-0.005299,-0.028474,0.460207,-0.667865,-0.355335,-0.464653
55534,NaN,17.756705,-2.440253,0.009800,2.939441,1.880222,7.765468,1.034072,-1.155366,-5.657486,-0.868164,0.608398,0.330811,0.176778,-0.029415,0.000977,0.999570,0.005170,-0.005776,-0.028283,0.447910,-0.657767,-0.379291,-0.472078
55535,NaN,18.431257,-3.920666,0.603123,0.986153,3.433381,8.696477,0.602668,-1.167270,-5.603394,-0.911865,0.565430,0.344238,0.183079,-0.044368,0.006974,0.999586,0.003013,-0.005836,-0.028013,0.434284,-0.648281,-0.401587,-0.479435
55536,NaN,19.120223,-5.163682,0.623128,-1.023227,4.391861,9.479610,0.163304,-1.245511,-5.578581,-0.944336,0.509766,0.351318,0.189620,-0.056947,0.007370,0.999591,0.000816,-0.006227,-0.027889,0.418410,-0.639356,-0.422760,-0.487270
55537,NaN,20.191900,-7.990153,-0.605589,-4.880272,4.698796,10.824717,0.007413,-1.296012,-5.498775,-0.968262,0.454102,0.362793,0.199655,-0.085412,-0.004760,0.999601,0.000037,-0.006479,-0.027490,0.402147,-0.630628,-0.442887,-0.494406
55538,NaN,20.436248,-8.330004,-1.184440,-6.383720,4.759674,10.800630,0.257112,-1.142639,-5.315798,-0.996582,0.398438,0.384766,0.202117,-0.088678,-0.010797,0.999630,0.001285,-0.005712,-0.026576,0.386819,-0.620819,-0.462565,-0.500988
55539,NaN,18.812013,-6.336405,-0.896624,-5.462063,4.568020,8.736120,0.392604,-0.972987,-5.104584,-1.009766,0.340576,0.394287,0.186463,-0.068121,-0.008187,0.999661,0.001963,-0.004864,-0.025520,0.372886,-0.610489,-0.481108,-0.506749
55540,NaN,17.975328,-6.275210,-1.161560,-6.354531,4.444511,7.612409,0.337183,-0.893700,-4.868918,-1.027588,0.295654,0.409668,0.178205,-0.067084,-0.010928,0.999692,0.001686,-0.004468,-0.024342,0.359041,-0.600102,-0.498471,-0.512340
55541,NaN,17.266511,-8.799660,-1.853119,-9.712567,4.489140,6.449237,0.327365,-0.788351,-4.548132,-1.030029,0.246338,0.412598,0.170677,-0.091863,-0.018004,0.999732,0.001637,-0.003941,-0.022739,0.346328,-0.590047,-0.514230,-0.517175
55542,NaN,16.013823,-10.755956,-2.033786,-12.220893,4.605868,4.527924,0.439247,-0.668917,-4.162827,-1.041504,0.205566,0.419678,0.157922,-0.110818,-0.020048,0.999775,0.002196,-0.003344,-0.020813,0.334843,-0.580057,-0.528797,-0.521333
55543,NaN,16.140579,-11.384576,-2.167643,-13.420595,4.710581,4.061025,0.561361,-0.521171,-3.748706,-1.042236,0.162598,0.428711,0.159291,-0.116784,-0.021585,0.999817,0.002807,-0.002606,-0.018742,0.325275,-0.570467,-0.541900,-0.524507
55544,NaN,15.433150,-9.768148,-1.737145,-12.144712,4.596855,3.147364,0.773161,-0.269431,-3.270760,-1.047363,0.126221,0.427246,0.152731,-0.100120,-0.017549,0.999858,0.003866,-0.001347,-0.016353,0.317983,-0.560867,-0.553695,-0.527007
55545,NaN,12.611783,-8.698926,-1.346236,-10.914186,3.913873,0.291186,0.777282,-0.058403,-2.761892,-1.044434,0.102783,0.431885,0.124905,-0.088667,-0.013768,0.999897,0.003886,-0.000292,-0.013809,0.312705,-0.552090,-0.563518,-0.529018
55546,NaN,11.545394,-10.357163,-1.969079,-12.677273,3.216150,-1.246580,0.752015,-0.048645,-2.160477,-1.045898,0.083496,0.434326,0.114332,-0.104736,-0.020055,0.999935,0.003760,-0.000243,-0.010802,0.308835,-0.544829,-0.571562,-0.530187
55547,NaN,11.027345,-13.245276,-1.786850,-15.427378,3.562384,-2.774816,0.968193,-0.074851,-1.501445,-1.050049,0.074707,0.432129,0.109282,-0.133187,-0.018471,0.999960,0.004841,-0.000374,-0.007507,0.307280,-0.539229,-0.578306,-0.529503
55548,NaN,9.156956,-15.619449,-1.010631,-17.178385,3.911042,-5.518332,1.069779,-0.148097,-0.839818,-1.043213,0.063965,0.432373,0.090921,-0.156520,-0.010875,0.999977,0.005349,-0.000740,-0.004199,0.307506,-0.535476,-0.583639,-0.527324
55549,NaN,8.862126,-16.630839,-0.345759,-17.978434,4.428227,-6.290356,0.948995,-0.261959,-0.109521,-1.047852,0.072754,0.445068,0.088535,-0.166338,-0.004131,0.999988,0.004745,-0.001310,-0.000548,0.309004,-0.534390,-0.586824,-0.524004
55550,NaN,11.746542,-14.887575,-0.816038,-17.093597,4.552160,-2.929968,0.770592,-0.281652,0.666096,-1.039551,0.085449,0.447021,0.117972,-0.148451,-0.008567,0.999986,0.003853,-0.001408,0.003330,0.312070,-0.535862,-0.587478,-0.519937
55551,NaN,10.754527,-14.079814,0.108356,-15.857942,4.987258,-3.684000,0.642540,-0.151182,1.303840,-1.038086,0.102539,0.446777,0.108459,-0.140096,0.000714,0.999973,0.003213,-0.000756,0.006519,0.316742,-0.539077,-0.585869,-0.515585
55552,NaN,11.715679,-9.608011,-1.703912,-11.985017,3.039142,-0.891396,0.472812,-0.034098,1.965802,-1.036621,0.124023,0.444336,0.118096,-0.094882,-0.017244,0.999949,0.002364,-0.000170,0.009829,0.323151,-0.544151,-0.581768,-0.510900
55553,NaN,12.783484,11.464661,-4.778658,7.796586,-1.965078,6.094328,0.830150,0.090124,1.769606,-1.035156,0.139160,0.446289,0.126791,0.115969,-0.047364,0.999952,0.004151,0.000451,0.008848,0.330191,-0.547709,-0.578894,-0.505836
