// Start Time: Unknown
// Update Rate: 100.0Hz
// Filter Profile: human (46.1)
// Firmware Version: 4.4.0
PacketCounter,SampleTimeFine,Acc_X,Acc_Y,Acc_Z,FreeAcc_X,FreeAcc_Y,FreeAcc_Z,Gyr_X,Gyr_Y,Gyr_Z,Mag_X,Mag_Y,Mag_Z,VelInc_X,VelInc_Y,VelInc_Z,OriInc_q0,OriInc_q1,OriInc_q2,OriInc_q3,Quat_q0,Quat_q1,Quat_q2,Quat_q3
32508,NaN,9.646704,-0.387295,-1.928931,-0.007203,-0.058023,0.032426,-0.030621,0.006241,-0.004971,-0.633301,0.150879,0.499756,0.096466,-0.003878,-0.019292,1.000000,-0.000153,0.000031,-0.000025,0.104495,-0.766998,-0.092240,-0.626328
32509,NaN,9.664436,-0.388437,-1.945090,-0.020186,-0.060188,0.052988,-0.030525,0.009517,-0.008319,-0.637451,0.146729,0.503906,0.096643,-0.003891,-0.019455,1.000000,-0.000153,0.000048,-0.000042,0.104356,-0.766980,-0.092171,-0.626383
32510,NaN,9.676810,-0.414861,-1.927677,-0.009664,-0.028810,0.062928,-0.029729,0.009474,-0.006306,-0.641602,0.142334,0.501953,0.096767,-0.004155,-0.019281,1.000000,-0.000149,0.000047,-0.000032,0.104226,-0.766964,-0.092098,-0.626436
32511,NaN,9.653260,-0.456734,-1.980974,-0.077214,-0.002692,0.052013,-0.024506,0.013981,-0.005791,-0.645996,0.144531,0.501709,0.096531,-0.004573,-0.019816,1.000000,-0.000123,0.000070,-0.000029,0.104120,-0.766930,-0.092036,-0.626503
32512,NaN,9.682787,-0.387359,-1.958640,-0.033117,-0.062282,0.073551,-0.024215,0.017293,-0.005716,-0.639648,0.146729,0.501709,0.096826,-0.003879,-0.019594,1.000000,-0.000121,0.000086,-0.000029,0.104016,-0.766887,-0.091975,-0.626582
32513,NaN,9.682012,-0.387739,-1.922501,-0.001235,-0.051514,0.065827,-0.022674,0.018824,-0.005074,-0.637451,0.146729,0.501953,0.096818,-0.003882,-0.019234,1.000000,-0.000113,0.000094,-0.000025,0.103921,-0.766838,-0.091913,-0.626667
32514,NaN,9.652657,-0.357050,-1.920570,0.001296,-0.080590,0.035326,-0.020288,0.018685,0.000965,-0.641846,0.146729,0.499756,0.096525,-0.003572,-0.019214,1.000000,-0.000101,0.000093,0.000005,0.103851,-0.766793,-0.091839,-0.626745
32515,NaN,9.677266,-0.412297,-1.885907,0.022326,-0.017893,0.055204,-0.017934,0.013467,0.002062,-0.639893,0.150879,0.499512,0.096771,-0.004124,-0.018865,1.000000,-0.000090,0.000067,0.000010,0.103795,-0.766761,-0.091768,-0.626804
32516,NaN,9.606481,-0.422648,-1.922002,-0.029731,-0.018616,-0.006773,-0.015793,0.014916,0.001296,-0.644043,0.148926,0.499512,0.096063,-0.004227,-0.019227,1.000000,-0.000079,0.000075,0.000006,0.103739,-0.766725,-0.091711,-0.626865
32517,NaN,9.649273,-0.380422,-1.917417,-0.007045,-0.057667,0.032428,-0.018438,0.016827,0.000125,-0.641602,0.142334,0.499756,0.096491,-0.003806,-0.019182,1.000000,-0.000092,0.000084,0.000001,0.103676,-0.766682,-0.091644,-0.626938
32518,NaN,9.681197,-0.389034,-1.846072,0.062712,-0.029448,0.050381,-0.017789,0.015125,0.002100,-0.633057,0.144531,0.497559,0.096811,-0.003891,-0.018468,1.000000,-0.000089,0.000076,0.000011,0.103613,-0.766649,-0.091580,-0.626999
32519,NaN,9.660765,-0.409183,-1.863752,0.035428,-0.015307,0.034642,-0.012838,0.009617,0.000984,-0.641602,0.142334,0.495361,0.096607,-0.004093,-0.018642,1.000000,-0.000064,0.000048,0.000005,0.103571,-0.766626,-0.091531,-0.627041
32520,NaN,9.622686,-0.427048,-1.865012,0.021099,0.001279,-0.001659,-0.008197,0.007500,0.001353,-0.639648,0.144531,0.495361,0.096226,-0.004271,-0.018654,1.000000,-0.000041,0.000037,0.000007,0.103536,-0.766608,-0.091506,-0.627072
32521,NaN,9.674991,-0.335796,-1.893458,0.028673,-0.094027,0.051071,-0.008149,0.005876,0.004736,-0.639648,0.148926,0.495361,0.096749,-0.003356,-0.018937,1.000000,-0.000041,0.000029,0.000024,0.103522,-0.766596,-0.091459,-0.627096
32522,NaN,9.709123,-0.341902,-1.891735,0.034505,-0.087203,0.084475,-0.014087,0.011402,0.000418,-0.637451,0.148926,0.501709,0.097090,-0.003420,-0.018923,1.000000,-0.000070,0.000057,0.000002,0.103460,-0.766567,-0.091420,-0.627148
32523,NaN,9.666773,-0.383812,-1.894197,0.011819,-0.048156,0.045271,-0.011085,0.004476,0.003487,-0.645996,0.144531,0.493164,0.096667,-0.003837,-0.018944,1.000000,-0.000055,0.000022,0.000017,0.103430,-0.766560,-0.091369,-0.627168
32524,NaN,9.649846,-0.479991,-1.898158,-0.021858,0.043363,0.033660,-0.021569,0.008874,0.005566,-0.637451,0.146729,0.497559,0.096498,-0.004799,-0.018985,1.000000,-0.000108,0.000044,0.000028,0.103347,-0.766544,-0.091294,-0.627212
32525,NaN,9.663338,-0.506369,-1.915221,-0.043225,0.063946,0.051319,-0.029601,0.011331,0.005396,-0.639893,0.150879,0.497559,0.096632,-0.005064,-0.019157,1.000000,-0.000148,0.000057,0.000027,0.103256,-0.766526,-0.091174,-0.627266
32526,NaN,9.676377,-0.434239,-1.910507,-0.018114,-0.003920,0.060029,-0.028417,0.017877,0.004145,-0.643799,0.144531,0.499756,0.096762,-0.004343,-0.019113,1.000000,-0.000142,0.000089,0.000021,0.103154,-0.766487,-0.091072,-0.627345
32527,NaN,9.665831,-0.404997,-1.959699,-0.060512,-0.046038,0.057822,-0.021798,0.022253,0.005277,-0.639648,0.144531,0.497559,0.096656,-0.004050,-0.019607,1.000000,-0.000109,0.000111,0.000026,0.103097,-0.766431,-0.090972,-0.627438
32528,NaN,9.756107,-0.395442,-1.971105,-0.053210,-0.057602,0.148091,-0.022154,0.027272,0.003383,-0.641846,0.150879,0.497559,0.097558,-0.003955,-0.019724,1.000000,-0.000111,0.000136,0.000017,0.103018,-0.766363,-0.090889,-0.627546
32529,NaN,9.729349,-0.442951,-1.919155,-0.025113,0.000813,0.113992,-0.018108,0.037011,0.011678,-0.641602,0.142334,0.497559,0.097290,-0.004426,-0.019209,1.000000,-0.000091,0.000185,0.000058,0.103002,-0.766262,-0.090768,-0.627690
32530,NaN,9.722261,-0.391755,-1.930613,-0.027062,-0.052785,0.106969,-0.013575,0.044851,0.006853,-0.644043,0.146729,0.497559,0.097218,-0.003916,-0.019328,1.000000,-0.000068,0.000224,0.000034,0.102973,-0.766139,-0.090691,-0.627855
32531,NaN,9.786814,-0.428604,-1.925266,-0.023613,-0.017142,0.170860,-0.015547,0.050141,0.012607,-0.648193,0.148926,0.495361,0.097864,-0.004281,-0.019277,1.000000,-0.000078,0.000251,0.000063,0.102976,-0.765996,-0.090568,-0.628048
32532,NaN,9.733297,-0.443666,-1.939548,-0.056581,-0.008858,0.121721,-0.010092,0.066295,0.011411,-0.637207,0.140381,0.493408,0.097327,-0.004432,-0.019428,1.000000,-0.000050,0.000331,0.000057,0.102982,-0.765808,-0.090476,-0.628289
32533,NaN,9.661024,-0.458028,-1.901832,-0.044921,0.011750,0.044288,-0.007761,0.067782,0.014075,-0.645996,0.142334,0.493408,0.096604,-0.004574,-0.019051,1.000000,-0.000039,0.000339,0.000070,0.103027,-0.765605,-0.090363,-0.628545
32534,NaN,9.550257,-0.509979,-1.970598,-0.151221,0.039657,-0.049168,-0.003034,0.075660,0.012683,-0.641602,0.142334,0.493408,0.095495,-0.005094,-0.019742,1.000000,-0.000015,0.000378,0.000063,0.103069,-0.765390,-0.090283,-0.628812
32535,NaN,9.451145,-0.491214,-2.001082,-0.200862,0.009535,-0.141632,-0.001825,0.075514,0.009871,-0.639648,0.144531,0.493408,0.094504,-0.004908,-0.020046,1.000000,-0.000009,0.000378,0.000049,0.103127,-0.765158,-0.090200,-0.629097
32536,NaN,9.500131,-0.504570,-1.906067,-0.111346,0.046536,-0.110852,0.000556,0.076839,0.000866,-0.643799,0.142334,0.491211,0.094994,-0.005045,-0.019097,1.000000,0.000003,0.000384,0.000004,0.103155,-0.764948,-0.090168,-0.629351
32537,NaN,9.718218,-0.469203,-1.888316,-0.050658,0.017033,0.098256,0.003306,0.078222,-0.001294,-0.645996,0.142334,0.497559,0.097175,-0.004692,-0.018921,1.000000,0.000017,0.000391,-0.000006,0.103199,-0.764700,-0.090143,-0.629649
32538,NaN,9.828707,-0.421208,-1.735566,0.120977,0.011604,0.176222,0.023128,0.081198,-0.007730,-0.643799,0.146729,0.493164,0.098280,-0.004214,-0.017396,1.000000,0.000116,0.000406,-0.000039,0.103290,-0.764468,-0.090209,-0.629906
32539,NaN,9.756414,-0.434248,-1.696967,0.132617,0.032205,0.098783,0.040895,0.072758,-0.008210,-0.645996,0.146729,0.490967,0.097558,-0.004343,-0.017006,1.000000,0.000204,0.000364,-0.000041,0.103453,-0.764214,-0.090331,-0.630170
32540,NaN,9.731369,-0.479923,-1.675722,0.129479,0.080000,0.072389,0.052025,0.066654,-0.008273,-0.646240,0.148926,0.490967,0.097308,-0.004799,-0.016791,1.000000,0.000260,0.000333,-0.000041,0.103653,-0.763995,-0.090494,-0.630380
32541,NaN,9.655349,-0.417162,-1.652810,0.147367,0.023757,-0.009153,0.055869,0.059507,-0.014849,-0.646240,0.148926,0.495361,0.096548,-0.004174,-0.016558,1.000000,0.000279,0.000298,-0.000074,0.103846,-0.763772,-0.090696,-0.630589
32542,NaN,9.613092,-0.360118,-1.629830,0.171421,-0.026093,-0.057305,0.044379,0.045600,-0.014663,-0.641846,0.148926,0.495361,0.096127,-0.003605,-0.016321,1.000000,0.000222,0.000228,-0.000073,0.103993,-0.763606,-0.090864,-0.630742
32543,NaN,9.589878,-0.303676,-1.659319,0.150383,-0.088800,-0.077143,0.038252,0.032768,-0.018835,-0.641602,0.142334,0.493408,0.095896,-0.003043,-0.016609,1.000000,0.000191,0.000164,-0.000094,0.104094,-0.763474,-0.091039,-0.630859
32544,NaN,9.558722,-0.393209,-1.713616,0.065818,-0.016983,-0.093859,0.019342,0.021227,-0.020268,-0.645996,0.146729,0.489014,0.095585,-0.003940,-0.017147,1.000000,0.000097,0.000106,-0.000101,0.104103,-0.763381,-0.091174,-0.630951
32545,NaN,9.568364,-0.441645,-1.730871,0.036077,0.026352,-0.079108,0.010726,0.011959,-0.025585,-0.643799,0.146729,0.491211,0.095682,-0.004428,-0.017315,1.000000,0.000054,0.000060,-0.000128,0.104069,-0.763327,-0.091299,-0.631004
32546,NaN,9.509963,-0.477681,-1.751539,-0.006068,0.056897,-0.131149,0.003998,0.004287,-0.023406,-0.645996,0.146729,0.489014,0.095099,-0.004788,-0.017518,1.000000,0.000020,0.000021,-0.000117,0.104006,-0.763283,-0.091407,-0.631052
32547,NaN,9.571884,-0.433947,-1.798803,-0.028222,0.004950,-0.063628,0.001647,-0.000660,-0.034404,-0.650146,0.142334,0.493164,0.095718,-0.004356,-0.017988,1.000000,0.000008,-0.000003,-0.000172,0.103903,-0.763269,-0.091543,-0.631066
32548,NaN,9.654156,-0.369399,-1.827446,-0.023569,-0.060988,0.019630,0.004141,-0.004231,-0.033257,-0.641602,0.142334,0.491211,0.096541,-0.003710,-0.018272,1.000000,0.000021,-0.000021,-0.000166,0.103803,-0.763251,-0.091691,-0.631083
32549,NaN,9.746767,-0.333998,-1.805187,0.023958,-0.084947,0.105071,0.012782,-0.006762,-0.034448,-0.648193,0.148926,0.489014,0.097468,-0.003356,-0.018049,1.000000,0.000064,-0.000034,-0.000172,0.103740,-0.763250,-0.091867,-0.631069
32550,NaN,9.783392,-0.314559,-1.768843,0.069756,-0.090216,0.133644,0.020669,-0.005780,-0.029328,-0.641602,0.144531,0.491211,0.097834,-0.003158,-0.017686,1.000000,0.000103,-0.000029,-0.000147,0.103713,-0.763232,-0.092058,-0.631067
32551,NaN,9.719015,-0.375966,-1.757563,0.051660,-0.026290,0.070949,0.026093,-0.007942,-0.026916,-0.650391,0.148926,0.488770,0.097190,-0.003770,-0.017572,1.000000,0.000130,-0.000040,-0.000135,0.103724,-0.763232,-0.092247,-0.631038
32552,NaN,9.701204,-0.371741,-1.741653,0.064067,-0.023784,0.050387,0.029052,-0.008159,-0.022269,-0.643799,0.142334,0.486816,0.097012,-0.003726,-0.017413,1.000000,0.000145,-0.000041,-0.000111,0.103746,-0.763215,-0.092444,-0.631025
32553,NaN,9.634651,-0.356894,-1.779763,0.020347,-0.047467,-0.008670,0.025117,-0.016089,-0.018860,-0.650391,0.148926,0.490967,0.096348,-0.003576,-0.017790,1.000000,0.000126,-0.000080,-0.000094,0.103775,-0.763244,-0.092604,-0.630962
32554,NaN,9.690354,-0.339925,-1.795410,0.020905,-0.065427,0.048209,0.023900,-0.015928,-0.016049,-0.650391,0.144531,0.489014,0.096905,-0.003405,-0.017947,1.000000,0.000119,-0.000080,-0.000080,0.103788,-0.763252,-0.092770,-0.630926
32555,NaN,9.656133,-0.332857,-1.798182,0.014987,-0.071890,0.014813,0.008969,-0.016106,-0.012556,-0.641602,0.142334,0.489014,0.096563,-0.003334,-0.017974,1.000000,0.000045,-0.000081,-0.000063,0.103775,-0.763293,-0.092855,-0.630867
32556,NaN,9.662617,-0.404878,-1.854112,-0.055773,-0.015822,0.034366,0.008969,-0.016105,-0.012556,-0.641846,0.146729,0.495361,0.096627,-0.004054,-0.018534,1.000000,0.000045,-0.000081,-0.000063,0.103729,-0.763313,-0.092966,-0.630833
32557,NaN,9.709986,-0.436180,-1.871748,-0.071227,0.011236,0.085409,0.007541,-0.009262,-0.011611,-0.650391,0.144531,0.495361,0.097100,-0.004367,-0.018713,1.000000,0.000038,-0.000046,-0.000058,0.103716,-0.763333,-0.093039,-0.630800
32558,NaN,9.625744,-0.419809,-1.892541,-0.102104,-0.009617,0.005784,0.013969,0.000195,-0.008934,-0.643799,0.144531,0.493164,0.096257,-0.004201,-0.018926,1.000000,0.000070,0.000001,-0.000045,0.103710,-0.763321,-0.093135,-0.630802
32559,NaN,9.654620,-0.350721,-1.870884,-0.058048,-0.069229,0.027370,0.015293,0.008413,-0.010150,-0.645752,0.140381,0.493408,0.096545,-0.003511,-0.018713,1.000000,0.000076,0.000042,-0.000051,0.103741,-0.763282,-0.093218,-0.630832
32560,NaN,9.710793,-0.334400,-1.883856,-0.056681,-0.086754,0.084256,0.022185,0.016134,-0.008917,-0.643799,0.144531,0.493164,0.097106,-0.003346,-0.018847,1.000000,0.000111,0.000081,-0.000045,0.103763,-0.763223,-0.093334,-0.630883
32561,NaN,9.724766,-0.360573,-1.899586,-0.078040,-0.066149,0.101900,0.025717,0.022560,-0.004120,-0.648193,0.144531,0.495361,0.097245,-0.003605,-0.019007,1.000000,0.000129,0.000113,-0.000021,0.103858,-0.763137,-0.093419,-0.630959
32562,NaN,9.685579,-0.380091,-1.864893,-0.060167,-0.038158,0.057858,0.027680,0.029077,-0.003357,-0.648193,0.144531,0.486816,0.096853,-0.003800,-0.018664,1.000000,0.000138,0.000145,-0.000017,0.103926,-0.763044,-0.093526,-0.631043
32563,NaN,9.667962,-0.477584,-1.831631,-0.061805,0.063581,0.038434,0.040113,0.032837,-0.007996,-0.650391,0.144531,0.491211,0.096676,-0.004776,-0.018333,1.000000,0.000201,0.000164,-0.000040,0.104068,-0.762917,-0.093666,-0.631153
32564,NaN,9.687448,-0.458717,-1.774587,-0.002738,0.061011,0.046446,0.042891,0.037692,-0.001831,-0.650391,0.144531,0.489014,0.096871,-0.004584,-0.017765,1.000000,0.000214,0.000188,-0.000009,0.104213,-0.762775,-0.093816,-0.631278
32565,NaN,9.681865,-0.406108,-1.820801,-0.036748,-0.003838,0.047200,0.036826,0.041557,-0.006227,-0.650391,0.148926,0.490967,0.096815,-0.004061,-0.018229,1.000000,0.000184,0.000208,-0.000031,0.104353,-0.762622,-0.093934,-0.631422
32566,NaN,9.719248,-0.389320,-1.779512,0.009468,-0.008785,0.075783,0.039256,0.046341,-0.006907,-0.646240,0.148926,0.489014,0.097188,-0.003893,-0.017818,1.000000,0.000196,0.000232,-0.000035,0.104482,-0.762456,-0.094080,-0.631580
32567,NaN,9.650035,-0.300454,-1.826782,-0.027998,-0.109332,0.012680,0.025684,0.047655,-0.006201,-0.652344,0.142578,0.486816,0.096496,-0.003005,-0.018291,1.000000,0.000128,0.000238,-0.000031,0.104583,-0.762289,-0.094160,-0.631753
32568,NaN,9.690717,-0.458862,-1.756613,-0.002685,0.062265,0.046438,0.025826,0.049322,-0.006163,-0.646240,0.148926,0.489014,0.096903,-0.004589,-0.017591,1.000000,0.000129,0.000247,-0.000031,0.104661,-0.762120,-0.094262,-0.631928
32569,NaN,9.651489,-0.400021,-1.802956,-0.042622,-0.009066,0.013808,0.029464,0.059050,-0.004716,-0.652344,0.142578,0.486816,0.096509,-0.004000,-0.018059,1.000000,0.000147,0.000295,-0.000024,0.104785,-0.761916,-0.094343,-0.632142
32570,NaN,9.678286,-0.453642,-1.797691,-0.053325,0.043472,0.041345,0.019699,0.061539,-0.012407,-0.652344,0.144531,0.486816,0.096777,-0.004541,-0.018007,1.000000,0.000098,0.000308,-0.000062,0.104829,-0.761713,-0.094438,-0.632365
32571,NaN,9.717554,-0.434936,-1.789224,-0.039030,0.027220,0.077666,0.017112,0.060211,-0.006827,-0.652344,0.142578,0.484619,0.097170,-0.004351,-0.017922,1.000000,0.000086,0.000301,-0.000034,0.104900,-0.761510,-0.094486,-0.632590
32572,NaN,9.700905,-0.432271,-1.766306,-0.026202,0.030061,0.057098,0.013961,0.070596,-0.005037,-0.646240,0.148926,0.486816,0.097003,-0.004324,-0.017698,1.000000,0.000070,0.000353,-0.000025,0.104939,-0.761276,-0.094532,-0.632859
32573,NaN,9.680168,-0.453719,-1.743961,-0.021622,0.054952,0.033603,0.017355,0.070283,-0.005204,-0.648193,0.146729,0.486816,0.096795,-0.004538,-0.017474,1.000000,0.000087,0.000351,-0.000026,0.105021,-0.761042,-0.094571,-0.633121
32574,NaN,9.729169,-0.485966,-1.752747,-0.036398,0.082043,0.084633,0.024099,0.076374,-0.003994,-0.654541,0.146729,0.484619,0.097285,-0.004859,-0.017565,1.000000,0.000120,0.000382,-0.000020,0.105144,-0.760806,-0.094624,-0.633376
32575,NaN,9.788914,-0.447422,-1.723416,0.005177,0.051673,0.136709,0.027777,0.079389,-0.004087,-0.650391,0.144531,0.484619,0.097882,-0.004474,-0.017274,1.000000,0.000139,0.000397,-0.000020,0.105274,-0.760538,-0.094686,-0.633667
32576,NaN,9.772397,-0.445290,-1.699078,0.018234,0.054010,0.116141,0.027940,0.079446,-0.000661,-0.654541,0.146729,0.486816,0.097717,-0.004451,-0.017030,1.000000,0.000140,0.000397,-0.000003,0.105408,-0.760274,-0.094740,-0.633953
32577,NaN,9.742029,-0.417330,-1.657473,0.052561,0.035550,0.077939,0.028754,0.076180,0.008137,-0.652588,0.146729,0.480225,0.097414,-0.004167,-0.016612,1.000000,0.000144,0.000381,0.000041,0.105578,-0.760021,-0.094760,-0.634225
32578,NaN,9.727566,-0.393642,-1.598279,0.105763,0.025695,0.052561,0.028648,0.071289,0.014880,-0.656738,0.142578,0.482422,0.097270,-0.003927,-0.016018,1.000000,0.000143,0.000356,0.000074,0.105770,-0.759785,-0.094759,-0.634476
32579,NaN,9.647317,-0.257937,-1.591907,0.129899,-0.107456,-0.032964,0.021528,0.055362,0.023722,-0.650391,0.146729,0.480225,0.096469,-0.002566,-0.015946,1.000000,0.000108,0.000277,0.000119,0.105952,-0.759608,-0.094708,-0.634665
32580,NaN,9.604094,-0.225891,-1.640228,0.081103,-0.155722,-0.068501,0.011738,0.044578,0.024581,-0.652588,0.146729,0.486816,0.096038,-0.002246,-0.016424,1.000000,0.000059,0.000223,0.000123,0.106077,-0.759459,-0.094638,-0.634833
32581,NaN,9.612957,-0.180595,-1.634616,0.097835,-0.201192,-0.062638,0.013389,0.029410,0.028932,-0.645996,0.148926,0.478271,0.096127,-0.001791,-0.016360,1.000000,0.000067,0.000147,0.000145,0.106233,-0.759371,-0.094556,-0.634925
32582,NaN,9.654663,-0.263403,-1.684207,0.033872,-0.139092,-0.009731,0.001100,0.024074,0.040320,-0.654541,0.144531,0.482422,0.096545,-0.002614,-0.016854,1.000000,0.000006,0.000120,0.000202,0.106369,-0.759319,-0.094404,-0.634987
32583,NaN,9.688553,-0.295450,-1.750353,-0.032388,-0.131363,0.036210,0.007770,0.018523,0.046745,-0.650391,0.146729,0.484619,0.096885,-0.002931,-0.017513,1.000000,0.000039,0.000093,0.000234,0.106554,-0.759277,-0.094242,-0.635030
32584,NaN,9.634837,-0.293127,-1.699681,0.006455,-0.123922,-0.025475,0.013050,0.013095,0.052549,-0.652588,0.146729,0.480225,0.096348,-0.002905,-0.017003,1.000000,0.000065,0.000065,0.000263,0.106725,-0.759257,-0.094098,-0.635046
32585,NaN,9.628739,-0.324046,-1.664975,0.029926,-0.090407,-0.036150,0.002575,0.012645,0.064661,-0.654785,0.148926,0.480225,0.096287,-0.003209,-0.016656,1.000000,0.000013,0.000063,0.000323,0.106945,-0.759245,-0.093854,-0.635060
32586,NaN,9.616859,-0.302698,-1.681370,0.018772,-0.120937,-0.046029,-0.003836,0.001543,0.065358,-0.650391,0.151123,0.484619,0.096169,-0.002996,-0.016814,1.000000,-0.000019,0.000008,0.000327,0.107104,-0.759257,-0.093626,-0.635053
32587,NaN,9.573206,-0.450763,-1.671637,-0.018578,0.017659,-0.084215,-0.014395,-0.012423,0.070968,-0.656982,0.155273,0.480225,0.095735,-0.004475,-0.016710,1.000000,-0.000072,-0.000062,0.000355,0.107268,-0.759336,-0.093318,-0.634976
32588,NaN,9.656070,-0.693241,-1.727972,-0.121311,0.229171,0.017822,-0.007273,-0.018104,0.072571,-0.654785,0.153076,0.482422,0.096565,-0.006898,-0.017271,1.000000,-0.000036,-0.000091,0.000363,0.107464,-0.759425,-0.093052,-0.634874
32589,NaN,9.722299,-0.614184,-1.705612,-0.062999,0.153337,0.075788,0.009202,-0.012883,0.078146,-0.648438,0.151123,0.482422,0.097226,-0.006103,-0.017050,1.000000,0.000046,-0.000064,0.000391,0.107741,-0.759497,-0.092792,-0.634781
32590,NaN,9.680544,-0.366625,-1.718427,-0.009781,-0.095543,0.025560,0.016173,-0.018334,0.091422,-0.648438,0.151123,0.480225,0.096809,-0.003621,-0.017176,1.000000,0.000081,-0.000092,0.000457,0.108085,-0.759592,-0.092517,-0.634648
32591,NaN,9.611381,-0.088818,-1.767137,0.013882,-0.384545,-0.047380,0.007582,-0.027351,0.101187,-0.646240,0.153076,0.482422,0.096117,-0.000839,-0.017658,1.000000,0.000038,-0.000137,0.000506,0.108422,-0.759720,-0.092172,-0.634487
32592,NaN,9.621312,-0.049874,-1.802635,-0.000893,-0.440230,-0.033740,0.014556,-0.036305,0.106148,-0.646240,0.155273,0.482422,0.096217,-0.000446,-0.018009,1.000000,0.000073,-0.000182,0.000531,0.108784,-0.759889,-0.091858,-0.634268
32593,NaN,9.679707,-0.121065,-1.804725,-0.005859,-0.381753,0.027162,0.025042,-0.035579,0.109132,-0.650635,0.155273,0.486572,0.096801,-0.001156,-0.018030,1.000000,0.000125,-0.000178,0.000546,0.109208,-0.760038,-0.091542,-0.634063
32594,NaN,9.731974,-0.316462,-1.793858,-0.033186,-0.199906,0.086217,0.033689,-0.039718,0.111392,-0.648438,0.153076,0.486572,0.097325,-0.003107,-0.017920,1.000000,0.000168,-0.000199,0.000557,0.109639,-0.760222,-0.091283,-0.633806
32595,NaN,9.690302,-0.467590,-1.855611,-0.134296,-0.082852,0.063494,0.044328,-0.032200,0.119336,-0.648682,0.159668,0.486572,0.096909,-0.004614,-0.018542,1.000000,0.000222,-0.000161,0.000597,0.110171,-0.760353,-0.090987,-0.633598
32596,NaN,9.499374,-0.566729,-1.905664,-0.236811,-0.011030,-0.110387,0.050781,-0.024612,0.110316,-0.648682,0.157471,0.490967,0.094999,-0.005610,-0.019046,1.000000,0.000254,-0.000123,0.000552,0.110648,-0.760491,-0.090776,-0.633380
32597,NaN,9.450292,-0.566597,-1.961714,-0.293519,-0.036918,-0.148845,0.048605,-0.021206,0.100897,-0.650879,0.159668,0.484375,0.094508,-0.005614,-0.019608,1.000000,0.000243,-0.000106,0.000504,0.111142,-0.760577,-0.090558,-0.633222
32598,NaN,9.458483,-0.430088,-1.941162,-0.229073,-0.169886,-0.151702,0.047972,-0.016273,0.092128,-0.644287,0.159668,0.486572,0.094588,-0.004253,-0.019405,1.000000,0.000240,-0.000081,0.000461,0.111554,-0.760690,-0.090396,-0.633036
32599,NaN,9.461485,-0.295377,-1.817087,-0.070138,-0.271947,-0.177862,0.031761,-0.014875,0.079865,-0.646484,0.161865,0.482178,0.094617,-0.002913,-0.018164,1.000000,0.000159,-0.000074,0.000399,0.111921,-0.760756,-0.090201,-0.632920
32600,NaN,9.623996,-0.360276,-1.776616,-0.015692,-0.204818,-0.021607,0.008314,-0.012627,0.072752,-0.648682,0.159668,0.482422,0.096242,-0.003567,-0.017760,1.000000,0.000042,-0.000063,0.000364,0.112149,-0.760872,-0.089996,-0.632769
32601,NaN,9.581397,-0.386233,-1.711526,0.033770,-0.167097,-0.073458,-0.014832,-0.013795,0.064174,-0.653076,0.161865,0.484375,0.095816,-0.003833,-0.017108,1.000000,-0.000074,-0.000069,0.000321,0.112290,-0.760953,-0.089712,-0.632687
32602,NaN,9.600082,-0.274104,-1.639287,0.139591,-0.257754,-0.074204,-0.031172,-0.012118,0.063588,-0.646729,0.163818,0.486572,0.096003,-0.002713,-0.016387,1.000000,-0.000156,-0.000061,0.000318,0.112312,-0.761050,-0.089432,-0.632606
32603,NaN,9.641355,-0.140774,-1.582573,0.240702,-0.374806,-0.051454,-0.050437,-0.015037,0.068520,-0.651123,0.166016,0.482178,0.096415,-0.001379,-0.015818,1.000000,-0.000252,-0.000075,0.000343,0.112330,-0.761157,-0.089020,-0.632533
32604,NaN,9.453576,0.140580,-1.655427,0.219717,-0.668278,-0.240048,-0.061541,-0.028726,0.079001,-0.650879,0.161865,0.484375,0.094538,0.001438,-0.016541,1.000000,-0.000308,-0.000144,0.000395,0.112312,-0.761333,-0.088593,-0.632383
32605,NaN,9.326629,0.284877,-1.712562,0.187161,-0.827466,-0.363862,-0.085438,-0.039405,0.088769,-0.640137,0.161621,0.488770,0.093268,0.002883,-0.017108,1.000000,-0.000427,-0.000197,0.000444,0.112252,-0.761545,-0.088007,-0.632221
32606,NaN,9.408371,-0.055159,-1.860806,-0.024982,-0.546234,-0.237507,-0.110445,-0.048539,0.086276,-0.644531,0.161865,0.482178,0.094088,-0.000521,-0.018585,1.000000,-0.000552,-0.000243,0.000431,0.111982,-0.761837,-0.087435,-0.631997
32607,NaN,9.454804,-0.367376,-1.907185,-0.139687,-0.264576,-0.165091,-0.105961,-0.043966,0.084820,-0.646484,0.159668,0.490967,0.094554,-0.003644,-0.019049,1.000000,-0.000530,-0.000220,0.000424,0.111829,-0.762073,-0.086801,-0.631827
32608,NaN,9.554440,-0.491909,-1.926750,-0.167975,-0.153060,-0.056150,-0.099258,-0.022888,0.082311,-0.646729,0.163818,0.488770,0.095549,-0.004889,-0.019254,1.000000,-0.000496,-0.000114,0.000412,0.111579,-0.762268,-0.086280,-0.631706
32609,NaN,9.867763,-0.511186,-1.912144,-0.097756,-0.139678,0.250179,-0.088138,0.008096,0.094967,-0.642090,0.159668,0.488770,0.098679,-0.005073,-0.019123,1.000000,-0.000441,0.000040,0.000475,0.111547,-0.762333,-0.085635,-0.631721
32610,NaN,9.885430,-0.599295,-1.878077,-0.084014,-0.051161,0.266914,-0.076138,0.027217,0.106594,-0.644531,0.163818,0.488770,0.098855,-0.005947,-0.018792,1.000000,-0.000381,0.000136,0.000533,0.111489,-0.762388,-0.085053,-0.631745
32611,NaN,9.736302,-0.689381,-1.660714,0.068890,0.086659,0.087642,-0.049015,0.043164,0.124991,-0.644531,0.161621,0.486572,0.097364,-0.006837,-0.016626,1.000000,-0.000245,0.000216,0.000625,0.111716,-0.762333,-0.084397,-0.631859
32612,NaN,9.730080,-0.823661,-1.678271,0.014798,0.200815,0.093316,-0.043982,0.054625,0.135381,-0.637939,0.159668,0.482422,0.097302,-0.008174,-0.016807,1.000000,-0.000220,0.000273,0.000677,0.111902,-0.762283,-0.083787,-0.631967
32613,NaN,9.749138,-0.915782,-1.674954,-0.004374,0.275556,0.117763,-0.027111,0.056591,0.154580,-0.650879,0.163818,0.484375,0.097494,-0.009085,-0.016776,1.000000,-0.000136,0.000283,0.000773,0.112313,-0.762185,-0.083080,-0.632106
32614,NaN,9.833004,-0.830292,-1.523280,0.176798,0.220356,0.168189,0.001382,0.050278,0.160662,-0.648682,0.159668,0.488770,0.098333,-0.008224,-0.015258,1.000000,0.000007,0.000251,0.000803,0.112766,-0.762099,-0.082534,-0.632200
32615,NaN,9.948358,-0.795827,-1.510448,0.219831,0.171843,0.277246,0.020148,0.043329,0.165806,-0.638184,0.170410,0.484375,0.099487,-0.007874,-0.015127,1.000000,0.000101,0.000217,0.000829,0.113386,-0.762020,-0.081941,-0.632262
32616,NaN,9.918802,-0.878890,-1.562006,0.144637,0.222618,0.263247,0.035978,0.038198,0.162897,-0.644531,0.163818,0.482178,0.099192,-0.008705,-0.015641,1.000000,0.000180,0.000191,0.000814,0.113977,-0.761981,-0.081464,-0.632264
32617,NaN,9.801535,-1.043205,-1.621904,0.023300,0.349188,0.170620,0.034346,0.028398,0.164088,-0.646973,0.172363,0.488525,0.098022,-0.010349,-0.016235,1.000000,0.000172,0.000142,0.000820,0.114639,-0.761940,-0.080931,-0.632262
32618,NaN,9.815196,-1.140255,-1.551635,0.067909,0.446883,0.179384,0.028760,0.027085,0.149892,-0.644775,0.170410,0.482178,0.098158,-0.011327,-0.015531,1.000000,0.000144,0.000135,0.000749,0.115175,-0.761909,-0.080476,-0.632260
32619,NaN,9.798133,-1.205854,-1.447342,0.146815,0.524544,0.150022,0.031693,0.029753,0.132671,-0.646729,0.168213,0.482178,0.097987,-0.011991,-0.014490,1.000000,0.000158,0.000149,0.000663,0.115729,-0.761852,-0.080053,-0.632282
32620,NaN,9.754603,-1.354927,-1.537693,0.013031,0.631686,0.134845,0.007013,0.030564,0.116630,-0.638428,0.172363,0.490723,0.097552,-0.013492,-0.015392,1.000000,0.000035,0.000153,0.000583,0.116109,-0.761777,-0.079658,-0.632352
32621,NaN,9.773541,-1.367379,-1.584593,-0.031764,0.618857,0.163221,-0.006790,0.050266,0.099930,-0.646729,0.168213,0.486572,0.097738,-0.013625,-0.015870,1.000000,-0.000034,0.000251,0.000500,0.116420,-0.761663,-0.079226,-0.632486
32622,NaN,9.693088,-1.030240,-1.658422,-0.027614,0.267697,0.071405,-0.008158,0.065100,0.080480,-0.640625,0.174561,0.488525,0.096930,-0.010264,-0.016615,1.000000,-0.000041,0.000326,0.000402,0.116610,-0.761551,-0.078833,-0.632635
32623,NaN,9.634528,-1.079876,-2.072829,-0.447104,0.193918,0.089300,-0.008618,0.054678,0.063727,-0.649414,0.178955,0.488525,0.096343,-0.010769,-0.020754,1.000000,-0.000043,0.000273,0.000319,0.116801,-0.761411,-0.078531,-0.632807
32624,NaN,9.784572,-1.361578,-1.669149,-0.115572,0.564038,0.189628,0.022640,0.074371,0.055354,-0.644775,0.172363,0.486328,0.097843,-0.013587,-0.016729,1.000000,0.000113,0.000372,0.000277,0.117109,-0.761238,-0.078294,-0.632987
32625,NaN,9.700461,-1.133958,-1.433353,0.146340,0.406151,0.049002,0.047403,0.081183,0.039359,-0.649170,0.174561,0.482178,0.097001,-0.011317,-0.014376,1.000000,0.000237,0.000406,0.000197,0.117447,-0.760971,-0.078246,-0.633251
32626,NaN,9.805483,-0.888538,-1.358599,0.295687,0.181827,0.120202,0.052151,0.078684,0.028099,-0.640381,0.172363,0.484375,0.098051,-0.008868,-0.013627,1.000000,0.000261,0.000393,0.000140,0.117759,-0.760714,-0.078231,-0.633503
32627,NaN,9.794168,-0.733443,-1.467656,0.225598,-0.002015,0.115393,0.047238,0.068925,0.017739,-0.649170,0.172363,0.482178,0.097937,-0.007322,-0.014712,1.000000,0.000236,0.000345,0.000089,0.118023,-0.760478,-0.078272,-0.633733
32628,NaN,9.727010,-0.818188,-1.519512,0.135906,0.063082,0.065097,0.060125,0.063871,0.010194,-0.642822,0.176758,0.486328,0.097266,-0.008172,-0.015229,1.000000,0.000301,0.000319,0.000051,0.118287,-0.760266,-0.078364,-0.633926
32629,NaN,9.797737,-1.018444,-1.324191,0.273492,0.304263,0.118022,0.091893,0.063249,-0.000761,-0.647217,0.178955,0.481934,0.097973,-0.010179,-0.013278,1.000000,0.000459,0.000316,-0.000004,0.118659,-0.760015,-0.078621,-0.634127
32630,NaN,9.535944,-1.280798,-1.445283,0.034380,0.527006,-0.097514,0.057489,0.070168,-0.019763,-0.640381,0.172363,0.484375,0.095353,-0.012813,-0.014490,1.000000,0.000287,0.000351,-0.000099,0.118882,-0.759786,-0.078781,-0.634339
32631,NaN,9.570402,-1.337893,-1.940737,-0.449838,0.442920,0.023495,-0.006241,0.051553,-0.051300,-0.649414,0.178955,0.477783,0.095696,-0.013404,-0.019432,1.000000,-0.000031,0.000258,-0.000256,0.118717,-0.759610,-0.078924,-0.634563
32632,NaN,9.546424,-1.323068,-1.452442,0.005678,0.569369,-0.082832,-0.003528,0.055975,-0.063658,-0.651123,0.172607,0.473633,0.095456,-0.013261,-0.014551,1.000000,-0.000018,0.000280,-0.000318,0.118564,-0.759433,-0.079078,-0.634785
32633,NaN,9.642056,-0.734243,-1.493260,0.137313,-0.004310,-0.029063,-0.018605,0.043803,-0.081911,-0.649170,0.176758,0.473389,0.096414,-0.007383,-0.014953,1.000000,-0.000093,0.000219,-0.000410,0.118251,-0.759277,-0.079303,-0.635001
32634,NaN,9.776981,-0.700679,-1.566881,0.093374,-0.055236,0.113221,-0.037389,0.032283,-0.091757,-0.651123,0.172607,0.471436,0.097764,-0.007055,-0.015683,1.000000,-0.000187,0.000161,-0.000459,0.117915,-0.759084,-0.079507,-0.635268
32635,NaN,9.685121,-0.893029,-1.628640,-0.038728,0.123413,0.048084,-0.026835,0.024180,-0.098571,-0.649170,0.172363,0.484131,0.096845,-0.008980,-0.016297,1.000000,-0.000134,0.000121,-0.000493,0.117511,-0.758988,-0.079781,-0.635424
32636,NaN,9.707711,-0.939048,-1.592294,-0.018235,0.185237,0.067707,-0.022827,0.023704,-0.100112,-0.649170,0.172363,0.482178,0.097071,-0.009441,-0.015933,1.000000,-0.000114,0.000119,-0.000501,0.117148,-0.758862,-0.080045,-0.635608
32637,NaN,9.653341,-0.789705,-1.641546,-0.038908,0.039038,0.010868,-0.018690,0.019729,-0.106558,-0.649170,0.172363,0.482178,0.096528,-0.007950,-0.016424,1.000000,-0.000093,0.000099,-0.000533,0.116747,-0.758771,-0.080378,-0.635749
32638,NaN,9.738421,-0.872997,-1.602345,-0.013182,0.136679,0.094260,-0.021670,0.026673,-0.113115,-0.648926,0.170410,0.475830,0.097377,-0.008787,-0.016035,1.000000,-0.000108,0.000133,-0.000566,0.116342,-0.758686,-0.080664,-0.635888
32639,NaN,9.658616,-0.744736,-1.601449,0.002591,0.026044,0.006042,-0.016104,0.027734,-0.113987,-0.648926,0.170410,0.475830,0.096580,-0.007504,-0.016027,1.000000,-0.000081,0.000139,-0.000570,0.115931,-0.758565,-0.081028,-0.636061
32640,NaN,9.693373,-0.512220,-1.675994,-0.004982,-0.210192,0.035591,-0.023499,0.028643,-0.112289,-0.653320,0.168213,0.479980,0.096928,-0.005179,-0.016773,1.000000,-0.000117,0.000143,-0.000561,0.115568,-0.758419,-0.081336,-0.636262
32641,NaN,9.771007,-0.641571,-1.672681,-0.028898,-0.076857,0.120857,-0.030555,0.032879,-0.110516,-0.655273,0.168213,0.479980,0.097704,-0.006472,-0.016742,1.000000,-0.000153,0.000164,-0.000553,0.115116,-0.758291,-0.081638,-0.636458
32642,NaN,9.702537,-0.748606,-1.504669,0.082402,0.083358,0.033627,-0.024001,0.042338,-0.107763,-0.655273,0.166016,0.475830,0.097018,-0.007540,-0.015066,1.000000,-0.000120,0.000212,-0.000539,0.114703,-0.758118,-0.081907,-0.636703
32643,NaN,9.718309,-0.687441,-1.567805,0.035543,0.016405,0.055168,-0.035319,0.033463,-0.110988,-0.653320,0.168213,0.479980,0.097177,-0.006931,-0.015693,1.000000,-0.000177,0.000167,-0.000555,0.114231,-0.757990,-0.082195,-0.636903
32644,NaN,9.791853,-0.687549,-1.629048,-0.016755,0.007093,0.137517,-0.043856,0.044534,-0.111716,-0.653320,0.168213,0.477783,0.097911,-0.006934,-0.016311,1.000000,-0.000219,0.000223,-0.000559,0.113757,-0.757807,-0.082421,-0.637177
32645,NaN,9.694593,-0.632417,-1.595181,0.005736,-0.024571,0.032567,-0.039009,0.052423,-0.113050,-0.648682,0.163818,0.479980,0.096938,-0.006382,-0.015976,1.000000,-0.000195,0.000262,-0.000565,0.113272,-0.757619,-0.082694,-0.637451
32646,NaN,9.755083,-0.627186,-1.707471,-0.096005,-0.053404,0.109932,-0.035605,0.057237,-0.108234,-0.655029,0.161865,0.475830,0.097543,-0.006328,-0.017102,1.000000,-0.000178,0.000286,-0.000541,0.112861,-0.757434,-0.082919,-0.637714
32647,NaN,9.856778,-0.560748,-1.709968,-0.071748,-0.110630,0.206150,-0.035832,0.069081,-0.108571,-0.655029,0.159668,0.480225,0.098559,-0.005664,-0.017133,1.000000,-0.000179,0.000345,-0.000543,0.112409,-0.757193,-0.083176,-0.638047
32648,NaN,9.754690,-0.802791,-1.701453,-0.157065,0.135189,0.119605,-0.024586,0.087993,-0.113946,-0.650879,0.159668,0.475830,0.097535,-0.008086,-0.017056,1.000000,-0.000123,0.000440,-0.000570,0.111960,-0.756880,-0.083458,-0.638461
32649,NaN,9.656628,-0.945025,-1.705210,-0.227546,0.281255,0.032128,0.002030,0.096768,-0.122236,-0.653076,0.161865,0.478027,0.096552,-0.009509,-0.017099,1.000000,0.000010,0.000484,-0.000611,0.111619,-0.756523,-0.083872,-0.638890
32650,NaN,9.741838,-0.775874,-1.666177,-0.142901,0.136694,0.099043,0.024094,0.110984,-0.137737,-0.655273,0.163818,0.478027,0.097404,-0.007824,-0.016717,1.000000,0.000120,0.000555,-0.000689,0.111337,-0.756129,-0.084376,-0.639338
32651,NaN,9.785042,-0.700804,-1.545851,-0.016024,0.107225,0.117874,0.009242,0.117519,-0.147972,-0.657227,0.159668,0.478027,0.097836,-0.007080,-0.015516,1.000000,0.000046,0.000588,-0.000740,0.110949,-0.755690,-0.084899,-0.639855
32652,NaN,9.801337,-0.810985,-1.571869,-0.082427,0.215599,0.144289,0.003823,0.129775,-0.159076,-0.657227,0.157471,0.473633,0.097997,-0.008188,-0.015782,0.999999,0.000019,0.000649,-0.000795,0.110554,-0.755245,-0.085390,-0.640384
32653,NaN,9.728004,-0.731193,-1.545134,-0.064510,0.159132,0.062870,0.015197,0.131795,-0.172436,-0.659180,0.155273,0.467285,0.097263,-0.007395,-0.015516,0.999999,0.000076,0.000659,-0.000862,0.110116,-0.754745,-0.086016,-0.640964
32654,NaN,9.806180,-0.702113,-1.560279,-0.076633,0.138042,0.140384,0.023152,0.139351,-0.180708,-0.655029,0.157471,0.467285,0.098044,-0.007108,-0.015672,0.999999,0.000116,0.000697,-0.000904,0.109707,-0.754185,-0.086675,-0.641605
32655,NaN,9.743236,-0.725964,-1.466200,-0.022531,0.200547,0.064896,0.054070,0.142857,-0.188496,-0.656982,0.155273,0.471680,0.097415,-0.007347,-0.014734,0.999999,0.000270,0.000714,-0.000942,0.109368,-0.753620,-0.087480,-0.642218
32656,NaN,9.787830,-0.546673,-1.355861,0.119603,0.070102,0.082744,0.093465,0.148922,-0.195784,-0.663330,0.151123,0.469482,0.097863,-0.005556,-0.013634,0.999999,0.000467,0.000745,-0.000979,0.109226,-0.753021,-0.088401,-0.642818
32657,NaN,9.838249,-0.385647,-1.384294,0.125234,-0.079176,0.128849,0.096693,0.143489,-0.207665,-0.659180,0.155273,0.471680,0.098368,-0.003952,-0.013915,0.999999,0.000483,0.000717,-0.001038,0.108987,-0.752419,-0.089414,-0.643423
32658,NaN,9.962073,-0.858589,-1.376607,0.002636,0.391559,0.273032,0.066440,0.142960,-0.229996,-0.665527,0.153320,0.469482,0.099601,-0.008696,-0.013840,0.999999,0.000332,0.000715,-0.001150,0.108572,-0.751844,-0.090382,-0.644029
32659,NaN,9.737399,-1.108857,-1.545011,-0.282494,0.602927,0.086311,0.104793,0.159173,-0.254713,-0.663574,0.155273,0.467285,0.097347,-0.011204,-0.015533,0.999999,0.000524,0.000796,-0.001274,0.108218,-0.751164,-0.091589,-0.644712
32660,NaN,9.596624,-0.613390,-1.508106,-0.153686,0.154762,-0.081388,0.112509,0.161648,-0.278142,-0.665527,0.148926,0.463135,0.095945,-0.006259,-0.015162,0.999999,0.000563,0.000808,-0.001391,0.107898,-0.750471,-0.092855,-0.645391
32661,NaN,9.900879,-0.763446,-1.453535,-0.122666,0.335822,0.217023,0.070883,0.177150,-0.316214,-0.667480,0.148926,0.463135,0.098984,-0.007786,-0.014626,0.999998,0.000354,0.000886,-0.001581,0.107227,-0.749718,-0.094173,-0.646186
32662,NaN,9.830336,-0.845228,-1.392920,-0.125774,0.454529,0.140583,0.081004,0.191367,-0.338696,-0.669678,0.148926,0.465332,0.098275,-0.008613,-0.014027,0.999998,0.000405,0.000957,-0.001693,0.106576,-0.748888,-0.095560,-0.647052
32663,NaN,9.803673,-0.583947,-1.369134,-0.062125,0.236815,0.100307,0.097729,0.194888,-0.362982,-0.673828,0.144775,0.460938,0.098013,-0.006011,-0.013790,0.999998,0.000489,0.000974,-0.001815,0.105862,-0.748035,-0.097130,-0.647921
32664,NaN,9.898176,-0.461193,-1.407675,-0.079920,0.135740,0.194469,0.080498,0.201611,-0.386258,-0.673584,0.138428,0.450439,0.098958,-0.004797,-0.014178,0.999998,0.000402,0.001008,-0.001931,0.105076,-0.747155,-0.098674,-0.648831
32665,NaN,9.922209,-0.501872,-1.352861,-0.067054,0.221205,0.211221,0.101527,0.206660,-0.408511,-0.671387,0.138184,0.456787,0.099198,-0.005214,-0.013634,0.999997,0.000508,0.001033,-0.002043,0.104233,-0.746233,-0.100420,-0.649759
32666,NaN,9.696186,-0.253976,-1.330588,-0.038684,0.017539,-0.022436,0.126534,0.208170,-0.425439,-0.673584,0.134033,0.456787,0.096942,-0.002738,-0.013408,0.999997,0.000633,0.001041,-0.002127,0.103450,-0.745225,-0.102276,-0.650751
32667,NaN,9.581720,0.203388,-1.431572,-0.048857,-0.419742,-0.131706,0.126425,0.207054,-0.425373,-0.675781,0.136230,0.452393,0.095806,0.001839,-0.014414,0.999997,0.000632,0.001035,-0.002127,0.102644,-0.744271,-0.104164,-0.651671
32668,NaN,9.763075,-0.202166,-1.405939,-0.149297,0.011581,0.052025,0.126205,0.210775,-0.445730,-0.677490,0.127686,0.454834,0.097611,-0.002230,-0.014164,0.999997,0.000631,0.001054,-0.002229,0.101798,-0.743288,-0.106088,-0.652614
32669,NaN,9.781857,-0.293102,-1.196253,-0.006808,0.194123,0.044479,0.185114,0.206553,-0.459998,-0.675537,0.131836,0.452637,0.097799,-0.003145,-0.012066,0.999996,0.000926,0.001033,-0.002300,0.101095,-0.742278,-0.108295,-0.653510
32670,NaN,9.620164,0.239221,-1.129470,0.162471,-0.264570,-0.128478,0.177364,0.188984,-0.478583,-0.683838,0.125488,0.452637,0.096196,0.002172,-0.011384,0.999996,0.000887,0.000945,-0.002393,0.100299,-0.741347,-0.110520,-0.654317
32671,NaN,9.926373,-0.413847,-1.234380,-0.125326,0.378089,0.190759,0.105358,0.199614,-0.521331,-0.681641,0.121094,0.450684,0.099240,-0.004391,-0.012445,0.999996,0.000527,0.000998,-0.002607,0.099094,-0.740355,-0.112696,-0.655252
32672,NaN,9.786065,-0.764280,-1.151864,-0.202530,0.775417,0.037968,0.122791,0.207190,-0.563803,-0.686035,0.125488,0.441895,0.097827,-0.007911,-0.011625,0.999995,0.000614,0.001036,-0.002819,0.097792,-0.739317,-0.115056,-0.656209
32673,NaN,9.530936,0.011226,-1.143605,-0.027619,0.073560,-0.213717,0.059295,0.196822,-0.599015,-0.687988,0.116943,0.444092,0.095298,-0.000170,-0.011530,0.999995,0.000296,0.000984,-0.002995,0.096158,-0.738299,-0.117367,-0.657186
32674,NaN,9.857738,-0.185201,-1.162560,-0.107755,0.319650,0.109342,-0.042213,0.229471,-0.644461,-0.691895,0.106201,0.442139,0.098557,-0.002172,-0.011738,0.999994,-0.000211,0.001147,-0.003222,0.094109,-0.737140,-0.119443,-0.658408
32675,NaN,9.917742,-0.354431,-0.930474,0.026134,0.608286,0.136278,-0.012989,0.235403,-0.672698,-0.694092,0.106201,0.437988,0.099154,-0.003878,-0.009421,0.999994,-0.000065,0.001177,-0.003363,0.091987,-0.735970,-0.121767,-0.659590
32676,NaN,9.883303,0.183485,-0.917053,0.152527,0.154196,0.112375,0.000452,0.235781,-0.686424,-0.689697,0.106201,0.437988,0.098828,0.001496,-0.009287,0.999993,0.000002,0.001179,-0.003432,0.089842,-0.734706,-0.124155,-0.660848
32677,NaN,9.865748,0.086461,-1.022640,-0.020562,0.272578,0.102508,-0.002416,0.221909,-0.696093,-0.693848,0.099854,0.437988,0.098648,0.000521,-0.010336,0.999993,-0.000012,0.001110,-0.003480,0.087670,-0.733541,-0.126603,-0.661969
32678,NaN,9.705277,0.094218,-1.005179,-0.056631,0.314699,-0.060302,0.048294,0.206998,-0.683219,-0.695801,0.095459,0.433838,0.097045,0.000613,-0.010152,0.999994,0.000241,0.001035,-0.003416,0.085815,-0.732387,-0.129117,-0.663004
32679,NaN,9.350468,1.017344,-0.936954,0.220363,-0.515008,-0.377117,0.088483,0.184211,-0.670336,-0.697754,0.091309,0.437988,0.093529,0.009864,-0.009451,0.999994,0.000442,0.000921,-0.003352,0.084035,-0.731305,-0.131784,-0.663901
32680,NaN,9.104595,1.494426,-1.132083,0.128176,-0.994934,-0.571371,0.077112,0.150202,-0.657094,-0.699707,0.082764,0.433838,0.091086,0.014649,-0.011384,0.999994,0.000386,0.000751,-0.003285,0.082313,-0.730321,-0.134326,-0.664689
32681,NaN,9.494053,1.184980,-1.150519,0.018981,-0.620174,-0.196053,0.126741,0.133877,-0.620915,-0.701660,0.080566,0.438232,0.094969,0.011562,-0.011561,0.999995,0.000634,0.000669,-0.003105,0.080802,-0.729407,-0.136958,-0.665341
32682,NaN,9.651498,1.055516,-1.003684,0.104622,-0.387830,-0.060185,0.205286,0.102935,-0.589320,-0.701416,0.076172,0.434082,0.096540,0.010281,-0.010076,0.999995,0.001026,0.000515,-0.002947,0.079651,-0.728572,-0.139730,-0.665818
32683,NaN,9.674481,0.734800,-0.829066,0.150347,0.020027,-0.076177,0.278576,0.075777,-0.553462,-0.703613,0.076172,0.431885,0.096762,0.007092,-0.008317,0.999995,0.001393,0.000379,-0.002767,0.078876,-0.727822,-0.142641,-0.666113
32684,NaN,9.912131,0.188671,-0.893339,-0.086030,0.587169,0.123691,0.360728,0.077537,-0.526749,-0.703613,0.074219,0.431885,0.099122,0.001642,-0.008969,0.999995,0.001804,0.000388,-0.002634,0.078499,-0.727026,-0.145707,-0.666364
32685,NaN,9.677526,0.760925,-0.925070,0.029238,0.055539,-0.061526,0.425842,0.059830,-0.528802,-0.697266,0.076172,0.431885,0.096792,0.007373,-0.009264,0.999994,0.002129,0.000299,-0.002644,0.078328,-0.726273,-0.149023,-0.666471
32686,NaN,9.392099,1.454121,-0.984893,0.162210,-0.606390,-0.278443,0.392674,0.036199,-0.521261,-0.705566,0.067627,0.427734,0.093957,0.014316,-0.009838,0.999995,0.001963,0.000181,-0.002606,0.078120,-0.725625,-0.152170,-0.666491
32687,NaN,9.731582,0.588424,-1.195789,-0.311043,0.224744,0.002220,0.385583,0.062887,-0.519575,-0.707764,0.069824,0.427734,0.097327,0.005654,-0.011977,0.999995,0.001928,0.000314,-0.002598,0.077835,-0.724869,-0.155314,-0.666621
32688,NaN,10.022064,-0.083517,-1.036171,-0.387060,0.982376,0.207658,0.474942,0.108438,-0.513025,-0.707764,0.072021,0.425537,0.100212,-0.001068,-0.010418,0.999994,0.002375,0.000542,-0.002565,0.077961,-0.723869,-0.158682,-0.666900
32689,NaN,9.849002,0.503403,-0.942200,-0.136887,0.481845,0.081397,0.541520,0.090184,-0.527833,-0.707520,0.063477,0.425537,0.098499,0.004800,-0.009453,0.999993,0.002708,0.000451,-0.002639,0.078232,-0.722936,-0.162360,-0.666995
32690,NaN,9.642379,1.041925,-1.050934,-0.088711,-0.044089,-0.057916,0.555058,0.084694,-0.538135,-0.705566,0.067627,0.419189,0.096447,0.010189,-0.010522,0.999992,0.002775,0.000423,-0.002691,0.078595,-0.721952,-0.166070,-0.667105
32691,NaN,9.782142,1.061597,-1.219931,-0.251403,-0.057835,0.098861,0.528560,0.103304,-0.535946,-0.709717,0.067627,0.421143,0.097843,0.010386,-0.012222,0.999993,0.002643,0.000517,-0.002680,0.078801,-0.720952,-0.169725,-0.667242
32692,NaN,9.657267,1.304817,-1.093434,-0.075896,-0.219427,-0.009277,0.491059,0.116622,-0.539214,-0.707275,0.059082,0.423584,0.096601,0.012815,-0.010959,0.999993,0.002455,0.000583,-0.002696,0.079008,-0.719848,-0.173184,-0.667521
32693,NaN,9.682206,1.208229,-0.926115,0.026259,-0.024902,-0.011610,0.450762,0.102425,-0.550554,-0.711670,0.057129,0.423584,0.096850,0.011837,-0.009284,0.999994,0.002254,0.000512,-0.002753,0.078882,-0.718849,-0.176628,-0.667710
32694,NaN,9.765210,1.112769,-0.925014,-0.025348,0.121853,0.058357,0.435711,0.089822,-0.574965,-0.711670,0.057129,0.423584,0.097679,0.010867,-0.009270,0.999993,0.002179,0.000449,-0.002875,0.078616,-0.717854,-0.180090,-0.667887
32695,NaN,9.655988,1.287213,-0.816296,0.113246,0.029596,-0.037850,0.425599,0.082604,-0.557808,-0.713623,0.057129,0.423584,0.096592,0.012620,-0.008176,0.999994,0.002128,0.000413,-0.002789,0.078356,-0.716906,-0.183479,-0.668014
32696,NaN,9.544391,1.699732,-0.872961,0.189574,-0.343102,-0.086810,0.410121,0.064961,-0.543227,-0.705078,0.052734,0.419434,0.095487,0.016756,-0.008726,0.999994,0.002051,0.000325,-0.002716,0.078145,-0.716027,-0.186740,-0.668077
32697,NaN,9.665231,2.044630,-0.862965,0.314124,-0.590282,0.081482,0.266894,0.061779,-0.529187,-0.707031,0.048340,0.417236,0.096703,0.020202,-0.008632,0.999996,0.001334,0.000309,-0.002646,0.077392,-0.715221,-0.189500,-0.668251
32698,NaN,9.608677,1.706061,-0.683868,0.333617,-0.179593,-0.037144,0.216086,0.039565,-0.504849,-0.715576,0.046387,0.419434,0.096128,0.016825,-0.006839,0.999996,0.001080,0.000198,-0.002524,0.076531,-0.714532,-0.191983,-0.668378
32699,NaN,9.526117,1.769410,-0.783380,0.247442,-0.245384,-0.098275,0.230290,0.012023,-0.463471,-0.711182,0.046387,0.421631,0.095301,0.017482,-0.007819,0.999997,0.001151,0.000060,-0.002317,0.075818,-0.713959,-0.194402,-0.668373
32700,NaN,9.544298,1.881216,-0.873142,0.195886,-0.338096,-0.053478,0.230739,-0.007480,-0.429005,-0.711182,0.046387,0.419434,0.095483,0.018617,-0.008706,0.999997,0.001154,-0.000037,-0.002145,0.075241,-0.713470,-0.196690,-0.668291
32701,NaN,9.579493,1.946914,-0.820652,0.261096,-0.335068,-0.012174,0.217820,-0.005259,-0.389451,-0.710938,0.039795,0.419434,0.095833,0.019291,-0.008183,0.999998,0.001089,-0.000026,-0.001947,0.074713,-0.713023,-0.198808,-0.668201
32702,NaN,9.658329,2.004502,-0.953277,0.154203,-0.388855,0.088575,0.167390,-0.006225,-0.363410,-0.710938,0.041992,0.419434,0.096620,0.019877,-0.009513,0.999998,0.000837,-0.000031,-0.001817,0.074136,-0.712620,-0.200645,-0.668145
32703,NaN,9.650787,1.833715,-1.124283,-0.078146,-0.267165,0.070968,0.157933,-0.007649,-0.337434,-0.710938,0.037842,0.419434,0.096539,0.018183,-0.011225,0.999998,0.000790,-0.000038,-0.001687,0.073566,-0.712249,-0.202377,-0.668082
32704,NaN,9.698641,2.034735,-1.212507,-0.089758,-0.444523,0.160688,0.076342,0.006796,-0.325321,-0.717285,0.037842,0.421631,0.097019,0.020194,-0.012121,0.999999,0.000382,0.000034,-0.001627,0.072808,-0.711874,-0.203771,-0.668141
32705,NaN,9.670004,2.115129,-1.196639,-0.059974,-0.487896,0.145874,-0.110706,0.054303,-0.333566,-0.712891,0.035645,0.421631,0.096732,0.020983,-0.012004,0.999998,-0.000554,0.000272,-0.001668,0.071357,-0.711393,-0.204567,-0.668566
32706,NaN,9.628089,1.613022,-1.052647,-0.141265,0.039535,0.005072,-0.084482,0.069416,-0.318936,-0.712646,0.029053,0.421875,0.096303,0.015972,-0.010567,0.999999,-0.000422,0.000347,-0.001595,0.070134,-0.710873,-0.205390,-0.668996
32707,NaN,9.710075,1.672237,-1.051413,-0.133798,0.027452,0.095323,-0.011364,0.069522,-0.284215,-0.710449,0.024902,0.417480,0.097121,0.016584,-0.010549,0.999999,-0.000057,0.000348,-0.001421,0.069217,-0.710354,-0.206336,-0.669352
32708,NaN,9.693323,1.893126,-1.053679,-0.066349,-0.153837,0.118403,0.051614,0.065749,-0.259613,-0.714844,0.027100,0.419678,0.096954,0.018808,-0.010564,0.999999,0.000258,0.000329,-0.001298,0.068575,-0.709862,-0.207426,-0.669602
32709,NaN,9.684369,1.989103,-1.051684,-0.041115,-0.222116,0.127057,0.107370,0.073679,-0.231824,-0.721191,0.027100,0.419678,0.096863,0.019784,-0.010542,0.999999,0.000537,0.000368,-0.001159,0.068259,-0.709340,-0.208581,-0.669829
32710,NaN,9.661450,1.936479,-0.995323,-0.021277,-0.141610,0.090025,0.145911,0.065516,-0.205703,-0.714600,0.022705,0.417480,0.096631,0.019273,-0.009971,0.999999,0.000730,0.000328,-0.001029,0.068203,-0.708852,-0.209778,-0.669977
32711,NaN,9.596822,1.922802,-1.035151,-0.073422,-0.142552,0.028144,0.166726,0.056533,-0.185011,-0.717041,0.027100,0.415283,0.095983,0.019148,-0.010363,0.999999,0.000834,0.000283,-0.000925,0.068236,-0.708414,-0.210971,-0.670063
32712,NaN,9.574004,2.008739,-1.056538,-0.067223,-0.219949,0.023976,0.181346,0.048976,-0.165708,-0.714844,0.027100,0.413330,0.095754,0.020018,-0.010571,0.999999,0.000907,0.000245,-0.000829,0.068405,-0.708006,-0.212140,-0.670109
32713,NaN,9.564054,2.118557,-1.060775,-0.033592,-0.310979,0.035501,0.200541,0.046842,-0.139012,-0.714844,0.024902,0.411133,0.095653,0.021130,-0.010609,0.999999,0.001003,0.000234,-0.000695,0.068701,-0.707634,-0.213287,-0.670107
32714,NaN,9.582733,2.111202,-0.952775,0.059163,-0.250904,0.042629,0.228921,0.036678,-0.112774,-0.718994,0.024902,0.415283,0.095837,0.021069,-0.009521,0.999999,0.001145,0.000183,-0.000564,0.069225,-0.707290,-0.214399,-0.670061
32715,NaN,9.572198,2.042964,-0.970180,0.015137,-0.191328,0.021187,0.260570,0.030226,-0.079786,-0.716797,0.020508,0.415527,0.095729,0.020404,-0.009690,0.999999,0.001303,0.000151,-0.000399,0.069915,-0.707014,-0.215542,-0.669914
32716,NaN,9.569161,2.070970,-0.974839,0.023157,-0.213932,0.024069,0.303206,0.022686,-0.054941,-0.712402,0.022705,0.413330,0.095696,0.020698,-0.009728,0.999999,0.001516,0.000113,-0.000275,0.070822,-0.706758,-0.216754,-0.669697
32717,NaN,9.488110,2.282989,-1.036389,0.054917,-0.442334,-0.009030,0.313397,0.023731,-0.031066,-0.717041,0.031250,0.415283,0.094883,0.022831,-0.010339,0.999999,0.001567,0.000119,-0.000155,0.071854,-0.706535,-0.217903,-0.669450
32718,NaN,9.661994,2.248480,-1.013046,0.068493,-0.365077,0.152154,0.311470,0.037734,-0.015131,-0.719238,0.029297,0.406738,0.096620,0.022493,-0.010114,0.999999,0.001557,0.000189,-0.000076,0.072977,-0.706290,-0.218983,-0.669235
32719,NaN,9.746348,2.112486,-0.908597,0.112825,-0.185663,0.198918,0.303662,0.044661,0.006474,-0.719238,0.029297,0.413086,0.097461,0.021142,-0.009076,0.999999,0.001518,0.000223,0.000032,0.074123,-0.706037,-0.219958,-0.669055
32720,NaN,9.716923,2.056532,-0.911945,0.088693,-0.147790,0.159767,0.287941,0.044303,0.027627,-0.723633,0.033447,0.410889,0.097164,0.020592,-0.009111,0.999999,0.001440,0.000222,0.000138,0.075305,-0.705762,-0.220770,-0.668947
32721,NaN,9.490246,2.206428,-0.886573,0.175383,-0.324089,-0.036016,0.255458,0.053148,0.043635,-0.721436,0.033447,0.413086,0.094895,0.022096,-0.008863,0.999999,0.001277,0.000266,0.000218,0.076415,-0.705537,-0.221448,-0.668834
32722,NaN,9.428810,2.317172,-0.885752,0.223574,-0.443351,-0.075658,0.189612,0.058399,0.065164,-0.717041,0.031250,0.415283,0.094278,0.023211,-0.008863,0.999999,0.000948,0.000292,0.000326,0.077421,-0.705305,-0.221804,-0.668845
32723,NaN,9.474347,2.316869,-0.825561,0.280389,-0.417639,-0.037226,0.126159,0.055061,0.079495,-0.717285,0.037842,0.413086,0.094732,0.023212,-0.008267,1.000000,0.000631,0.000275,0.000397,0.078197,-0.705161,-0.221922,-0.668867
32724,NaN,9.556126,2.167812,-0.801563,0.242802,-0.268099,0.012312,0.061501,0.046697,0.103577,-0.715088,0.037842,0.408691,0.095548,0.021730,-0.008031,1.000000,0.000308,0.000233,0.000518,0.078837,-0.705116,-0.221773,-0.668889
32725,NaN,9.514919,2.087782,-0.695184,0.307307,-0.174035,-0.053023,0.001616,0.038579,0.124918,-0.721680,0.035645,0.408691,0.095135,0.020937,-0.006970,1.000000,0.000008,0.000193,0.000625,0.079309,-0.705126,-0.221321,-0.668972
32726,NaN,9.420233,2.078744,-0.864528,0.150668,-0.268355,-0.132055,-0.036751,0.021458,0.145297,-0.719238,0.033447,0.410889,0.094186,0.020854,-0.008659,1.000000,-0.000184,0.000107,0.000726,0.079703,-0.705202,-0.220660,-0.669064
32727,NaN,9.385986,2.180509,-0.910330,0.154857,-0.399372,-0.143326,-0.070011,0.013358,0.171480,-0.721680,0.037842,0.406494,0.093841,0.021882,-0.009117,1.000000,-0.000350,0.000067,0.000857,0.080050,-0.705375,-0.219814,-0.669119
32728,NaN,9.383330,2.472728,-1.033971,0.166911,-0.727132,-0.082643,-0.120400,0.006168,0.200985,-0.721680,0.041992,0.410889,0.093808,0.024815,-0.010358,0.999999,-0.000602,0.000031,0.001005,0.080267,-0.705578,-0.218703,-0.669243
32729,NaN,9.523758,2.629965,-1.090761,0.185842,-0.882322,0.086574,-0.184709,0.005412,0.240440,-0.717529,0.041992,0.413086,0.095206,0.026404,-0.010935,0.999999,-0.000924,0.000027,0.001202,0.080431,-0.705897,-0.217232,-0.669366
32730,NaN,9.708575,2.428516,-1.010865,0.180748,-0.657788,0.222777,-0.253327,0.011430,0.277570,-0.713379,0.044189,0.410889,0.097051,0.024407,-0.010145,0.999998,-0.001267,0.000057,0.001388,0.080517,-0.706262,-0.215413,-0.669559
32731,NaN,9.995551,1.914644,-0.878196,0.097071,-0.115938,0.401283,-0.269297,0.018267,0.298429,-0.715332,0.044189,0.408691,0.099926,0.019284,-0.008817,0.999998,-0.001346,0.000091,0.001492,0.080590,-0.706630,-0.213447,-0.669791
32732,NaN,10.048710,1.425001,-0.854047,-0.074863,0.313779,0.367315,-0.227215,0.027594,0.302313,-0.717529,0.041992,0.408691,0.100464,0.014392,-0.008571,0.999998,-0.001136,0.000138,0.001512,0.080861,-0.706961,-0.211615,-0.669990
32733,NaN,9.871837,1.143530,-0.808601,-0.143800,0.521986,0.143288,-0.150216,0.034873,0.301617,-0.719727,0.041992,0.415039,0.098700,0.011578,-0.008112,0.999999,-0.000751,0.000174,0.001508,0.081383,-0.707224,-0.210028,-0.670148
32734,NaN,9.703702,1.223681,-0.871259,-0.163821,0.366509,-0.001617,-0.075011,0.033268,0.298496,-0.717773,0.048584,0.408691,0.097017,0.012378,-0.008733,0.999999,-0.000375,0.000166,0.001492,0.082115,-0.707449,-0.208753,-0.670220
32735,NaN,9.665920,1.355915,-1.005155,-0.225478,0.159822,-0.004405,-0.014337,0.039322,0.289623,-0.721924,0.046387,0.408691,0.096637,0.013698,-0.010072,0.999999,-0.000072,0.000197,0.001448,0.083081,-0.707626,-0.207662,-0.670253
32736,NaN,9.696210,1.500554,-1.006311,-0.161637,0.007004,0.049086,-0.000443,0.058814,0.284251,-0.722168,0.054932,0.406250,0.096938,0.015143,-0.010092,0.999999,-0.000002,0.000294,0.001421,0.084082,-0.707693,-0.206629,-0.670377
32737,NaN,9.720681,1.456257,-0.891210,-0.068419,0.068407,0.056312,-0.010208,0.067306,0.289392,-0.720215,0.057129,0.410645,0.097183,0.014703,-0.008946,0.999999,-0.000051,0.000337,0.001447,0.085091,-0.707771,-0.205540,-0.670502
32738,NaN,9.643749,1.501818,-0.831084,0.008348,0.007515,-0.017390,-0.014395,0.072454,0.287149,-0.715576,0.052734,0.406494,0.096413,0.015156,-0.008347,0.999999,-0.000072,0.000362,0.001436,0.086139,-0.707811,-0.204412,-0.670671
32739,NaN,9.662704,1.619428,-0.847831,0.045827,-0.131257,0.020410,-0.018519,0.071158,0.302187,-0.719971,0.054932,0.410645,0.096599,0.016339,-0.008514,0.999999,-0.000093,0.000356,0.001511,0.087166,-0.707889,-0.203247,-0.670811
32740,NaN,9.651166,1.661311,-0.864996,0.051876,-0.207109,0.016225,-0.027386,0.069558,0.309698,-0.720215,0.059326,0.408447,0.096483,0.016761,-0.008686,0.999999,-0.000137,0.000348,0.001548,0.088142,-0.707977,-0.202064,-0.670947
32741,NaN,9.764527,1.633438,-0.876449,0.037947,-0.198755,0.124175,-0.026011,0.066705,0.320713,-0.713867,0.063477,0.406250,0.097616,0.016490,-0.008799,0.999999,-0.000130,0.000334,0.001604,0.089200,-0.708088,-0.200810,-0.671066
32742,NaN,9.765069,1.604021,-0.835371,0.070156,-0.187955,0.116409,-0.022652,0.068967,0.327478,-0.724609,0.061279,0.401855,0.097621,0.016199,-0.008389,0.999999,-0.000113,0.000345,0.001637,0.090303,-0.708202,-0.199556,-0.671172
32743,NaN,9.810220,1.571552,-0.857255,0.044304,-0.192445,0.157568,-0.033474,0.063741,0.325527,-0.716309,0.067871,0.414795,0.098074,0.015874,-0.008606,0.999999,-0.000167,0.000319,0.001628,0.091347,-0.708328,-0.198259,-0.671283
32744,NaN,9.817639,1.225810,-0.796448,-0.032914,0.114537,0.112468,-0.043592,0.060043,0.315335,-0.720459,0.067871,0.408203,0.098155,0.012411,-0.007997,0.999999,-0.000218,0.000300,0.001577,0.092305,-0.708460,-0.196999,-0.671383
32745,NaN,9.833906,0.852824,-0.802572,-0.182324,0.422028,0.080023,-0.025062,0.062074,0.298994,-0.722900,0.072021,0.408203,0.098324,0.008674,-0.008057,0.999999,-0.000125,0.000310,0.001495,0.093288,-0.708558,-0.195824,-0.671488
32746,NaN,9.758331,0.802271,-0.737362,-0.138667,0.453651,-0.005176,0.011247,0.062738,0.281453,-0.718506,0.074219,0.401855,0.097570,0.008160,-0.007404,0.999999,0.000056,0.000314,0.001407,0.094348,-0.708622,-0.194857,-0.671553
32747,NaN,9.682670,0.844162,-0.800189,-0.176128,0.353062,-0.068392,0.034656,0.067718,0.248679,-0.714355,0.078369,0.408203,0.096813,0.008563,-0.008033,0.999999,0.000173,0.000339,0.001243,0.095378,-0.708621,-0.194057,-0.671641
32748,NaN,9.717620,0.967340,-0.797972,-0.118881,0.222370,-0.017738,0.059349,0.068018,0.233822,-0.720947,0.078613,0.406006,0.097162,0.009789,-0.008010,0.999999,0.000297,0.000340,0.001169,0.096492,-0.708612,-0.193389,-0.671683
32749,NaN,9.705064,1.041104,-0.817745,-0.104131,0.122666,-0.019070,0.056748,0.070994,0.215271,-0.718750,0.076416,0.397461,0.097036,0.010518,-0.008209,0.999999,0.000284,0.000355,0.001076,0.097491,-0.708555,-0.192780,-0.671775
