// Start Time: Unknown
// Update Rate: 100.0Hz
// Filter Profile: human (46.1)
// Firmware Version: 4.4.0
PacketCounter,SampleTimeFine,Acc_X,Acc_Y,Acc_Z,FreeAcc_X,FreeAcc_Y,FreeAcc_Z,Gyr_X,Gyr_Y,Gyr_Z,Mag_X,Mag_Y,Mag_Z,VelInc_X,VelInc_Y,VelInc_Z,OriInc_q0,OriInc_q1,OriInc_q2,OriInc_q3,Quat_q0,Quat_q1,Quat_q2,Quat_q3
22527,NaN,12.565274,7.143317,-1.009299,-4.599423,-3.475007,3.480197,0.968208,-0.138849,-0.168842,-0.744873,0.162598,0.222412,0.125720,0.071375,-0.009660,0.999988,0.004841,-0.000694,-0.000844,0.132282,-0.404581,-0.425178,-0.798774
22528,NaN,9.970682,7.205701,-3.554902,-4.224944,-5.811593,0.786785,0.349393,-0.291354,0.277312,-0.745117,0.171143,0.218018,0.099658,0.072257,-0.035278,0.999996,0.001747,-0.001457,0.001387,0.133476,-0.406101,-0.426203,-0.797256
22529,NaN,13.208029,6.809876,-1.109498,-4.864061,-2.952523,3.959750,-1.028447,-0.517902,0.797677,-0.734619,0.175293,0.228760,0.131836,0.068568,-0.011105,0.999975,-0.005142,-0.002589,0.003988,0.133567,-0.419110,-0.428362,-0.789312
22530,NaN,13.138097,3.882914,1.548598,-4.943738,0.813788,3.031790,-1.376411,-0.503449,0.769091,-0.738770,0.175293,0.226562,0.131191,0.039441,0.015546,0.999966,-0.006882,-0.002517,0.003845,0.132635,-0.423649,-0.421639,-0.790664
22531,NaN,11.741837,7.520826,-0.584372,-2.532422,-3.020490,3.575283,-1.137447,-0.396990,0.684505,-0.734619,0.175293,0.233154,0.117172,0.075576,-0.006040,0.999976,-0.005687,-0.001985,0.003422,0.136979,-0.446830,-0.422965,-0.776324
22532,NaN,8.378375,7.228940,-2.967423,-2.161514,-5.340873,0.089963,-1.658881,-0.533892,0.948593,-0.732666,0.181885,0.237305,0.083520,0.072438,-0.030051,0.999951,-0.008294,-0.002669,0.004743,0.135819,-0.452023,-0.414752,-0.777952
22533,NaN,9.874930,3.746007,-3.248882,-4.682111,-2.743235,-0.186972,-2.028695,-0.718803,1.049801,-0.730713,0.186035,0.247803,0.098669,0.037648,-0.032515,0.999928,-0.010143,-0.003594,0.005249,0.133855,-0.481022,-0.422297,-0.756548
22534,NaN,10.414817,5.072813,-4.200144,-4.708938,-4.209250,0.768000,-2.015193,-0.677532,1.118526,-0.724365,0.188232,0.250000,0.104007,0.050886,-0.042161,0.999928,-0.010076,-0.003388,0.005592,0.131799,-0.487261,-0.412407,-0.758371
22535,NaN,9.702367,2.952163,-4.679189,-5.264669,-2.881406,-0.393201,-1.998336,-0.582579,1.180270,-0.719971,0.186035,0.258789,0.096985,0.029626,-0.046805,0.999928,-0.009991,-0.002913,0.005901,0.130674,-0.522632,-0.421859,-0.729257
22536,NaN,10.881843,0.088474,-2.048038,-5.798021,1.118642,-0.445335,-1.735234,-0.473338,1.273170,-0.709473,0.194580,0.267090,0.108859,0.001401,-0.020233,0.999939,-0.008676,-0.002367,0.006366,0.129776,-0.528145,-0.412488,-0.730804
22537,NaN,13.515358,-2.360382,-0.491717,-6.357874,4.869821,1.337987,-1.441874,-0.182164,1.323659,-0.716309,0.207520,0.269043,0.135310,-0.022743,-0.004628,0.999952,-0.007209,-0.000911,0.006618,0.136479,-0.564547,-0.414692,-0.700493
22538,NaN,18.924697,-0.538500,2.740159,-4.550412,7.502914,7.185401,-1.026237,-0.059158,1.447798,-0.714355,0.211670,0.271240,0.189271,-0.003874,0.027480,0.999961,-0.005131,-0.000296,0.007239,0.138525,-0.568434,-0.407035,-0.701438
22539,NaN,18.159597,2.744113,2.038083,-0.928187,4.243436,8.147806,-0.917508,-0.010636,1.508915,-0.708008,0.216064,0.275391,0.181381,0.028903,0.020260,0.999961,-0.004587,-0.000053,0.007544,0.161956,-0.600231,-0.387394,-0.680749
22540,NaN,14.265535,2.494560,0.203473,-1.306849,1.942754,4.480083,-1.060992,-0.177503,1.549616,-0.704102,0.224609,0.275391,0.142455,0.026061,0.002025,0.999956,-0.005305,-0.000888,0.007748,0.163695,-0.604669,-0.379259,-0.680986
22541,NaN,11.258450,-0.719968,-0.387759,-2.525719,2.525128,0.895399,-0.931255,-0.363502,1.592191,-0.700195,0.235107,0.288086,0.112644,-0.006320,-0.003642,0.999956,-0.004656,-0.001817,0.007961,0.184183,-0.625811,-0.357893,-0.668094
22542,NaN,7.875207,-3.781189,-0.344362,-3.988180,3.887302,-3.073494,-0.835212,-0.222684,1.419549,-0.698242,0.239502,0.290039,0.079022,-0.037265,-0.003199,0.999965,-0.004176,-0.001113,0.007098,0.185907,-0.629843,-0.350854,-0.667562
22543,NaN,6.307684,-5.851765,-0.871025,-5.259932,4.440404,-4.577837,-0.731211,-0.110695,1.166320,-0.694092,0.243652,0.290039,0.063422,-0.058180,-0.008462,0.999976,-0.003656,-0.000553,0.005832,0.206703,-0.645279,-0.330683,-0.656915
22544,NaN,7.467762,-3.616291,-1.760366,-4.359928,2.425503,-2.953288,-0.565656,0.061956,1.045144,-0.692139,0.254395,0.283447,0.074860,-0.035822,-0.017525,0.999982,-0.002828,0.000310,0.005226,0.208410,-0.647377,-0.325383,-0.656958
22545,NaN,8.282812,0.481482,-3.814594,-2.586081,-2.097201,-1.309663,-0.500497,0.224686,1.038622,-0.690186,0.254395,0.290039,0.082759,0.005149,-0.038252,0.999983,-0.002502,0.001123,0.005193,0.229780,-0.660400,-0.304869,-0.646628
22546,NaN,10.080947,2.483793,-6.409972,-3.046899,-5.211968,0.790778,-0.551891,0.233595,1.131175,-0.679688,0.267334,0.289795,0.100592,0.025230,-0.064287,0.999980,-0.002759,0.001168,0.005656,0.231966,-0.661989,-0.299075,-0.646928
22547,NaN,12.416291,0.409541,-4.316754,-2.480316,-2.234954,2.908081,-0.385979,0.172927,1.170159,-0.679932,0.269531,0.289795,0.124099,0.004738,-0.043284,0.999981,-0.001930,0.000865,0.005851,0.243310,-0.674744,-0.288428,-0.634294
22548,NaN,12.586422,-1.355543,-1.640649,-1.714282,0.783530,2.812395,-0.214936,0.237593,1.185737,-0.677979,0.278076,0.289551,0.125922,-0.012827,-0.016542,0.999981,-0.001075,0.001188,0.005929,0.246684,-0.675949,-0.283452,-0.633951
22549,NaN,11.272406,-1.800627,-1.434783,-1.505090,1.009227,1.548764,-0.109891,0.277426,1.198557,-0.678223,0.284424,0.287354,0.112809,-0.017338,-0.014495,0.999981,-0.000549,0.001387,0.005993,0.256030,-0.685842,-0.275043,-0.623233
22550,NaN,10.677355,-1.217483,-1.229087,-0.922280,0.585902,0.948515,-0.023648,0.254870,1.215890,-0.671875,0.286621,0.281006,0.106829,-0.011527,-0.012426,0.999981,-0.000118,0.001274,0.006079,0.260084,-0.686737,-0.270469,-0.622571
22551,NaN,11.377553,0.151208,-1.125902,0.477877,-0.444305,1.602725,0.030476,0.238912,1.267036,-0.672363,0.299561,0.280762,0.113749,0.002234,-0.011395,0.999979,0.000152,0.001195,0.006335,0.268638,-0.693690,-0.262450,-0.614612
22552,NaN,11.840680,1.233539,-2.047800,0.708532,-1.975308,2.083139,0.020007,0.222209,1.359031,-0.668457,0.312256,0.278564,0.118296,0.013142,-0.020608,0.999976,0.000100,0.001111,0.006795,0.273169,-0.694747,-0.257493,-0.613517
22553,NaN,12.718018,1.448890,-2.556510,0.862379,-2.599296,2.949751,0.085832,0.164478,1.484857,-0.666504,0.320801,0.280518,0.127047,0.015443,-0.025663,0.999972,0.000429,0.000822,0.007424,0.275161,-0.702878,-0.245475,-0.608269
22554,NaN,13.367951,1.788779,-3.424968,0.685367,-3.594742,3.612519,0.204496,0.079499,1.601973,-0.658203,0.329346,0.276123,0.133517,0.018993,-0.034284,0.999967,0.001022,0.000397,0.008010,0.280841,-0.704298,-0.240350,-0.606073
22555,NaN,14.831610,2.858211,-5.336116,0.557615,-5.766569,5.122146,0.388945,-0.018159,1.737167,-0.650391,0.350830,0.282227,0.148065,0.029973,-0.053290,0.999960,0.001945,-0.000091,0.008686,0.286146,-0.709524,-0.236165,-0.599102
22556,NaN,16.049317,5.004907,-5.666105,2.209341,-7.763720,5.984994,0.574091,-0.140998,1.981668,-0.644287,0.359375,0.277832,0.160026,0.051798,-0.056401,0.999947,0.002870,-0.000705,0.009908,0.293937,-0.711427,-0.231043,-0.595057
22557,NaN,18.670288,5.138853,-4.029333,4.123915,-6.768871,8.308589,0.837598,-0.265096,2.200366,-0.636475,0.380859,0.281982,0.186174,0.053606,-0.039825,0.999930,0.004188,-0.001325,0.011002,0.286584,-0.721762,-0.219922,-0.590393
22558,NaN,20.074491,5.628874,-1.579059,6.884853,-5.785331,9.062345,0.944826,-0.393636,2.474405,-0.632568,0.395752,0.281738,0.200058,0.058839,-0.015122,0.999910,0.004724,-0.001968,0.012372,0.296840,-0.724226,-0.214326,-0.584335
22559,NaN,21.273673,7.652928,-1.694337,8.159511,-7.639804,9.910980,1.072214,-0.694062,2.831242,-0.614258,0.421387,0.283447,0.211680,0.079618,-0.015786,0.999879,0.005361,-0.003470,0.014156,0.269298,-0.740630,-0.188859,-0.585899
22560,NaN,22.075036,7.263452,-1.579992,8.747419,-7.654452,10.371474,1.020081,-0.883648,3.181464,-0.602051,0.447266,0.287598,0.219623,0.076210,-0.014445,0.999851,0.005100,-0.004418,0.015907,0.281520,-0.744739,-0.181228,-0.577293
22561,NaN,22.396498,7.399884,-1.361573,8.857963,-7.896746,10.615825,1.218074,-1.167117,3.512967,-0.583740,0.477051,0.297852,0.222691,0.077994,-0.011847,0.999810,0.006090,-0.005835,0.017564,0.261162,-0.755430,-0.161166,-0.578918
22562,NaN,21.272790,10.432366,-0.549092,11.497022,-10.230842,8.207717,1.445744,-1.236024,3.752413,-0.569824,0.504883,0.299805,0.210746,0.108320,-0.003411,0.999779,0.007228,-0.006180,0.018761,0.276429,-0.759976,-0.152757,-0.568057
22563,NaN,16.121277,9.691495,-0.730629,8.970468,-9.634075,3.641622,2.017069,-0.779411,3.756448,-0.542725,0.530518,0.292969,0.159378,0.099983,-0.005685,0.999765,0.010085,-0.003897,0.018781,0.256182,-0.765782,-0.137675,-0.573580
22564,NaN,9.529938,8.023306,-1.061262,6.250067,-8.088532,-2.614730,3.205854,-0.264150,3.148854,-0.532959,0.564941,0.279785,0.094032,0.081875,-0.009184,0.999747,0.016028,-0.001321,0.015743,0.277239,-0.764407,-0.135117,-0.566184
22565,NaN,-0.738238,6.737276,-1.128563,2.488066,-6.037327,-11.949066,3.139189,-0.019922,2.237840,-0.520752,0.584229,0.268799,-0.008136,0.067451,-0.010228,0.999814,0.015695,-0.000100,0.011189,0.281785,-0.760832,-0.147858,-0.565570
22566,NaN,-8.105821,7.045269,1.841750,2.712985,-3.619564,-19.725466,2.902528,0.128535,1.556369,-0.517090,0.601318,0.253418,-0.081589,0.069542,0.019483,0.999864,0.014512,0.000643,0.007781,0.297284,-0.757427,-0.149944,-0.561644
22567,NaN,-15.022548,9.781938,3.065368,3.411139,-4.446506,-27.113997,3.566446,0.334349,0.659963,-0.521729,0.616455,0.227539,-0.150492,0.096753,0.032637,0.999834,0.017831,0.001672,0.003300,0.297640,-0.750142,-0.166052,-0.566679
22568,NaN,-20.445511,10.730179,5.333739,4.278828,-2.866243,-32.944063,4.138610,0.168252,-0.677229,-0.524170,0.625244,0.199463,-0.204047,0.106857,0.055724,0.999780,0.020692,0.000841,-0.003386,0.311317,-0.742779,-0.180030,-0.564757
22569,NaN,-15.631881,10.638714,0.438968,2.803087,-6.652949,-27.294141,3.062465,-0.364430,-1.272937,-0.532715,0.625244,0.186768,-0.155647,0.107298,0.005744,0.999861,0.015312,-0.001822,-0.006364,0.311258,-0.735655,-0.207334,-0.564751
22570,NaN,-11.457231,17.153341,-4.251279,5.331584,-14.814240,-23.800854,1.592569,-0.754250,-2.019842,-0.543213,0.616699,0.182373,-0.112672,0.173011,-0.041566,0.999910,0.007963,-0.003771,-0.010099,0.310602,-0.733146,-0.220415,-0.563418
22571,NaN,-5.097523,17.473152,1.423064,11.737098,-11.309360,-18.037026,0.686890,-1.086144,-2.767730,-0.557861,0.608154,0.176025,-0.048630,0.175366,0.014564,0.999884,0.003434,-0.005431,-0.013838,0.299423,-0.729659,-0.244874,-0.563898
22572,NaN,-4.214845,10.920855,2.224002,8.145739,-6.199216,-15.910375,0.102715,-0.746977,-3.241453,-0.578857,0.591064,0.182617,-0.040454,0.109862,0.022143,0.999862,0.000514,-0.003735,-0.016207,0.289703,-0.727541,-0.258073,-0.565822
22573,NaN,-2.820957,10.241138,2.850213,8.682776,-5.266484,-14.034593,-0.300658,-0.976404,-3.677880,-0.599609,0.571777,0.180664,-0.026458,0.102951,0.028216,0.999818,-0.001503,-0.004882,-0.018388,0.272187,-0.722113,-0.284297,-0.568895
22574,NaN,1.919437,7.038775,-0.148795,5.324567,-4.736437,-8.245016,-0.582147,-0.519085,-4.286529,-0.622559,0.548096,0.185303,0.020701,0.069950,-0.001640,0.999763,-0.002911,-0.002595,-0.021431,0.257091,-0.718118,-0.298755,-0.573547
22575,NaN,1.476765,2.530113,-3.041390,0.028161,-3.634651,-7.663582,-0.579679,-0.676486,-4.663387,-0.644775,0.509766,0.185547,0.015454,0.024858,-0.030435,0.999718,-0.002898,-0.003382,-0.023315,0.235500,-0.708816,-0.326638,-0.579161
22576,NaN,4.456680,1.447119,-1.293005,0.652833,-0.952902,-5.091576,-0.521441,-1.035824,-4.881986,-0.674316,0.490479,0.198730,0.044968,0.013343,-0.012734,0.999685,-0.002607,-0.005179,-0.024407,0.217752,-0.704234,-0.343545,-0.581907
22577,NaN,8.773357,-1.095158,1.415032,0.607842,4.063064,-1.857880,-0.573826,-0.921890,-5.013338,-0.692383,0.454102,0.201172,0.087356,-0.013103,0.014589,0.999671,-0.002869,-0.004609,-0.025064,0.194747,-0.693992,-0.371033,-0.585477
22578,NaN,12.596696,-7.471128,2.065955,-3.885455,10.090304,0.277261,-0.099187,-0.615399,-4.930280,-0.708496,0.421875,0.199463,0.124010,-0.077774,0.021081,0.999691,-0.000496,-0.003077,-0.024649,0.178771,-0.686530,-0.388333,-0.588145
22579,NaN,15.638145,-9.329039,2.227042,-5.843333,12.809211,1.945650,0.147138,-0.624875,-4.709938,-0.720459,0.394043,0.201904,0.154056,-0.096953,0.022684,0.999718,0.000736,-0.003124,-0.023547,0.160348,-0.674565,-0.412822,-0.590617
22580,NaN,18.716730,-12.762317,0.691002,-10.059043,15.283837,3.559207,0.321485,-0.545195,-4.369872,-0.732422,0.361816,0.206787,0.184300,-0.131683,0.007206,0.999756,0.001607,-0.002726,-0.021848,0.147365,-0.666734,-0.428845,-0.591473
22581,NaN,21.934573,-14.748818,-0.348742,-13.209169,17.332652,5.146222,0.636516,-0.530340,-4.212337,-0.742188,0.338379,0.200684,0.216184,-0.152053,-0.003390,0.999770,0.003182,-0.002651,-0.021060,0.133683,-0.655917,-0.448346,-0.592358
22582,NaN,20.842989,-13.739993,-0.691588,-13.153877,16.305096,3.778962,0.682414,-0.456453,-4.003837,-0.752197,0.314697,0.203125,0.205640,-0.141512,-0.006923,0.999791,0.003412,-0.002282,-0.020018,0.123013,-0.647701,-0.463708,-0.591883
22583,NaN,22.251369,-14.834091,0.456090,-13.949805,18.545352,3.482902,0.281634,-0.255616,-3.698725,-0.758057,0.297607,0.203125,0.219714,-0.152428,0.004630,0.999827,0.001408,-0.001278,-0.018493,0.112200,-0.639255,-0.475950,-0.593495
22584,NaN,23.894395,-18.730890,1.364124,-17.004062,22.160481,2.159681,0.036699,-0.123601,-3.350872,-0.766113,0.282715,0.199219,0.235753,-0.191279,0.013753,0.999859,0.000183,-0.000618,-0.016754,0.102065,-0.631537,-0.486771,-0.594809
22585,NaN,22.023752,-21.052818,1.194006,-18.715196,22.406780,-1.020188,-0.130906,-0.061768,-2.831601,-0.778564,0.269775,0.207764,0.217224,-0.213610,0.012147,0.999900,-0.000655,-0.000309,-0.014158,0.094933,-0.627030,-0.490853,-0.597398
22586,NaN,20.017683,-20.080394,-0.013157,-18.680953,20.087798,-2.643617,-0.120849,0.037892,-2.343832,-0.778076,0.252686,0.203857,0.197805,-0.203131,-0.000047,0.999931,-0.000604,0.000189,-0.011719,0.087641,-0.621179,-0.497788,-0.598884
22587,NaN,18.968441,-16.336634,-1.719396,-16.836470,16.572711,-1.356657,-0.133606,0.129564,-1.832916,-0.786377,0.248535,0.201660,0.188165,-0.165107,-0.017206,0.999958,-0.000668,0.000648,-0.009164,0.085928,-0.621059,-0.495274,-0.601337
22588,NaN,17.953177,-12.703165,-2.932022,-14.980547,13.424102,-0.450388,-0.339002,0.315549,-1.325083,-0.788330,0.239990,0.195312,0.178638,-0.128267,-0.029386,0.999975,-0.001695,0.001578,-0.006625,0.081671,-0.616960,-0.498221,-0.603710
22589,NaN,17.026186,-11.464270,-2.671223,-13.561348,12.541060,-0.471127,-0.583227,0.500468,-0.796376,-0.790527,0.239990,0.193115,0.169736,-0.115397,-0.026802,0.999985,-0.002916,0.002502,-0.003982,0.083819,-0.620117,-0.489283,-0.607479
22590,NaN,16.203169,-12.203312,-1.806878,-13.390331,13.111944,-1.843754,-0.719522,0.557188,-0.251809,-0.797119,0.246338,0.190918,0.161827,-0.122302,-0.018080,0.999989,-0.003598,0.002786,-0.001259,0.082186,-0.618104,-0.487639,-0.611065
22591,NaN,14.281446,-12.204781,-1.098590,-12.220727,12.685898,-3.191136,-0.685887,0.505881,0.263166,-0.788574,0.246338,0.184570,0.142947,-0.121897,-0.010929,0.999990,-0.003429,0.002529,0.001316,0.087913,-0.624791,-0.473974,-0.614211
22592,NaN,12.969309,-10.475267,-0.796274,-10.498625,11.329888,-3.489746,-0.580388,0.461610,0.745467,-0.789062,0.263428,0.177979,0.130064,-0.104291,-0.007960,0.999986,-0.002902,0.002308,0.003727,0.089483,-0.625387,-0.469654,-0.616692
22593,NaN,11.554577,-8.719836,-0.249772,-8.306902,10.051780,-3.522933,-0.468099,0.377318,1.151642,-0.785156,0.278564,0.175537,0.116041,-0.086537,-0.002513,0.999979,-0.002340,0.001887,0.005758,0.098634,-0.634756,-0.453018,-0.618168
22594,NaN,11.250501,-6.929087,0.308730,-6.530452,9.234675,-2.975148,-0.547713,0.339722,1.505502,-0.775146,0.300049,0.168945,0.113028,-0.068433,0.003084,0.999966,-0.002739,0.001699,0.007527,0.102315,-0.637365,-0.446364,-0.619723
22595,NaN,10.878834,-6.095214,1.013168,-5.032630,8.935598,-2.646788,-0.698389,0.324720,1.855457,-0.769531,0.323486,0.166260,0.109364,-0.059904,0.010165,0.999950,-0.003492,0.001624,0.009277,0.112662,-0.648125,-0.426286,-0.620903
22596,NaN,10.281916,-9.244697,-5.745753,-11.797558,6.054008,-2.858598,-1.181404,-0.048359,1.442650,-0.757324,0.340576,0.164062,0.103498,-0.092039,-0.056888,0.999957,-0.005907,-0.000242,0.007213,0.113205,-0.651988,-0.417951,-0.622425
22597,NaN,11.172373,-3.480210,-1.855847,-4.832143,5.356644,-0.414069,-2.366968,-0.040082,0.530084,-0.753418,0.351318,0.172363,0.111819,-0.034722,-0.018125,0.999926,-0.011835,-0.000200,0.002650,0.113049,-0.661664,-0.397112,-0.625878
22598,NaN,14.137950,8.680471,7.562574,9.961649,4.467871,4.789428,-2.364650,0.036377,0.071402,-0.742920,0.362061,0.172363,0.141362,0.087741,0.074566,0.999930,-0.011823,0.000182,0.000357,0.105515,-0.662983,-0.389427,-0.630609
22599,NaN,2.596047,14.062646,11.682480,17.720769,-1.607095,-4.877107,-1.719001,0.266825,0.669234,-0.728760,0.387695,0.182861,0.025642,0.141710,0.115576,0.999957,-0.008595,0.001334,0.003346,0.107549,-0.670412,-0.370443,-0.633840
22600,NaN,4.532373,6.186866,3.632129,6.344985,-0.567841,-4.206594,-1.917220,0.269275,0.815086,-0.720947,0.406982,0.191162,0.045118,0.062397,0.035664,0.999945,-0.009586,0.001346,0.004075,0.104200,-0.672062,-0.361469,-0.637820
22601,NaN,11.157178,-12.234514,-4.984222,-12.059253,9.778924,-2.199989,-1.101731,-0.084174,0.640611,-0.717529,0.434814,0.188477,0.111984,-0.122259,-0.049122,0.999980,-0.005509,-0.000421,0.003203,0.106140,-0.678331,-0.345993,-0.639445
22602,NaN,10.368159,-3.284722,-9.877792,-10.393344,0.098718,0.571285,0.067640,-0.493070,0.359286,-0.706055,0.473389,0.192383,0.103983,-0.032627,-0.098533,0.999995,0.000338,-0.002465,0.001796,0.106665,-0.680490,-0.345250,-0.637462
22603,NaN,10.917618,11.227073,-8.225030,-0.250840,-9.715950,4.966676,-1.267479,-0.701444,0.720389,-0.696533,0.507568,0.213379,0.109061,0.112141,-0.082579,0.999967,-0.006337,-0.003507,0.003602,0.107521,-0.689245,-0.329646,-0.636172
22604,NaN,15.076692,12.834381,-9.553761,-0.544762,-10.402816,9.546717,-1.462788,-0.819490,0.868087,-0.695557,0.541748,0.223389,0.150602,0.128297,-0.095859,0.999955,-0.007314,-0.004097,0.004340,0.103887,-0.694038,-0.322426,-0.635264
22605,NaN,13.862973,12.497885,-17.801087,-7.406873,-15.256492,9.620137,-0.992829,-0.862489,0.703735,-0.700928,0.567627,0.229492,0.138959,0.124584,-0.178031,0.999972,-0.004964,-0.004312,0.003519,0.104785,-0.702389,-0.310036,-0.632098
22606,NaN,14.091157,7.750182,-14.917871,-7.743761,-9.806663,8.215928,-1.107288,-1.052731,0.740536,-0.703857,0.593262,0.241943,0.141409,0.077200,-0.148863,0.999964,-0.005536,-0.005264,0.003703,0.101603,-0.707419,-0.304475,-0.629707
22607,NaN,15.701234,4.484629,-2.243481,1.258043,-0.148879,6.621015,-0.910538,-1.068566,0.852759,-0.715088,0.606201,0.246094,0.156937,0.045415,-0.021802,0.999966,-0.004553,-0.005343,0.004264,0.102670,-0.716443,-0.294109,-0.624234
22608,NaN,11.658158,2.454596,0.862771,2.686106,1.851959,1.677982,-0.206716,-0.675364,0.979293,-0.726318,0.621094,0.239258,0.116430,0.025125,0.008995,0.999982,-0.001034,-0.003377,0.004896,0.103993,-0.720084,-0.290296,-0.621605
22609,NaN,8.294530,2.932381,3.260362,4.929971,1.561013,-1.984166,-0.136503,-0.239348,1.101317,-0.730957,0.629639,0.239258,0.082743,0.029802,0.032682,0.999984,-0.000683,-0.001197,0.005507,0.109394,-0.725770,-0.281397,-0.618147
22610,NaN,15.752277,4.151953,8.308442,10.492118,4.974975,4.313872,-1.499718,-0.250247,1.191652,-0.743896,0.631836,0.256104,0.157165,0.043079,0.082962,0.999953,-0.007498,-0.001251,0.005958,0.107279,-0.729007,-0.272560,-0.618669
22611,NaN,24.563593,11.397432,7.772422,14.911565,0.285788,14.087166,-3.040626,-0.224895,1.575331,-0.746094,0.625488,0.273438,0.244636,0.117071,0.076235,0.999853,-0.015202,-0.001124,0.007876,0.102991,-0.735800,-0.253006,-0.619661
22612,NaN,24.572338,11.347448,3.625120,11.368113,-2.282229,14.910319,-3.295675,-0.532929,1.832369,-0.738770,0.601807,0.301758,0.244572,0.116302,0.035003,0.999819,-0.016477,-0.002664,0.009161,0.095852,-0.741333,-0.236282,-0.620814
22613,NaN,14.476248,-0.540880,-0.563493,1.140111,3.391350,4.235931,-2.257554,-0.816817,1.878618,-0.725586,0.588867,0.314697,0.144826,-0.004107,-0.004992,0.999884,-0.011287,-0.004084,0.009393,0.093886,-0.748418,-0.218784,-0.619022
22614,NaN,7.436911,-7.490789,-4.558708,-6.235975,6.361959,-2.543943,-1.500481,-0.748303,1.712761,-0.718506,0.575928,0.325684,0.075177,-0.074604,-0.044746,0.999928,-0.007502,-0.003741,0.008564,0.092749,-0.753259,-0.208065,-0.617015
22615,NaN,2.520419,-9.231011,-6.592942,-9.347469,6.237102,-6.854454,-1.103452,-0.446944,1.364995,-0.716553,0.578125,0.332031,0.025982,-0.092496,-0.065362,0.999959,-0.005517,-0.002235,0.006825,0.093932,-0.757833,-0.195730,-0.615269
22616,NaN,3.148440,-7.742056,-5.819283,-7.844996,5.382295,-6.179231,-0.833254,-0.245326,0.945613,-0.712158,0.573730,0.340820,0.031922,-0.077512,-0.057831,0.999979,-0.004166,-0.001227,0.004728,0.093444,-0.759889,-0.189693,-0.614698
22617,NaN,11.562258,-2.777584,-4.679249,-3.238580,2.689857,2.252640,-0.591766,-0.056875,0.674872,-0.711914,0.569336,0.340820,0.115729,-0.027524,-0.046678,0.999990,-0.002959,-0.000284,0.003374,0.095017,-0.762569,-0.181165,-0.613709
22618,NaN,13.366909,-0.341426,-1.718194,0.758419,1.775209,3.529567,-0.407236,-0.036036,0.743122,-0.714111,0.567383,0.338623,0.133684,-0.002953,-0.017152,0.999991,-0.002036,-0.000180,0.003716,0.095713,-0.763540,-0.177095,-0.613582
22619,NaN,13.134714,0.780309,0.669372,3.412258,1.378140,2.837755,-0.335017,0.033254,0.881617,-0.709961,0.573730,0.340820,0.131312,0.008393,0.006658,0.999989,-0.001675,0.000166,0.004408,0.098880,-0.765831,-0.168705,-0.612588
22620,NaN,11.772418,0.702527,-1.046310,1.602531,0.536292,1.905730,-0.351157,0.075365,1.013145,-0.703369,0.571533,0.338623,0.117683,0.007603,-0.010520,0.999986,-0.001756,0.000377,0.005066,0.100703,-0.766618,-0.163708,-0.612663
22621,NaN,9.080351,1.670662,-2.372943,0.290400,-1.342940,-0.379447,-0.425834,0.119269,1.210149,-0.705566,0.571533,0.345215,0.090686,0.017205,-0.023820,0.999979,-0.002129,0.000596,0.006051,0.104397,-0.768585,-0.154022,-0.612091
22622,NaN,9.453826,-2.142926,-4.487139,-2.922113,1.413099,0.364001,-0.476697,0.199993,1.243245,-0.697021,0.573730,0.336670,0.094625,-0.020948,-0.044916,0.999977,-0.002383,0.001000,0.006216,0.106524,-0.769162,-0.147675,-0.612564
22623,NaN,9.847104,-5.191921,-2.694103,-2.218981,4.767441,0.362092,-0.176469,0.398092,1.119819,-0.692627,0.571533,0.336670,0.098706,-0.051391,-0.027092,0.999982,-0.000882,0.001990,0.005599,0.110966,-0.769905,-0.139256,-0.612814
22624,NaN,9.505721,-3.638024,-2.291537,-1.366145,3.317072,-0.016018,-0.010000,0.418911,1.067822,-0.688721,0.580078,0.330078,0.095201,-0.035873,-0.023113,0.999984,-0.000050,0.002095,0.005339,0.114492,-0.769358,-0.134878,-0.613831
22625,NaN,10.745439,-2.038652,-1.979395,-0.215863,1.827592,1.148631,0.170482,0.426275,1.069589,-0.684570,0.584473,0.323730,0.107519,-0.019795,-0.020040,0.999983,0.000852,0.002131,0.005348,0.120104,-0.769639,-0.127656,-0.613950
22626,NaN,11.392153,-0.750426,-1.372089,0.916297,0.721641,1.626928,0.350774,0.489892,1.125655,-0.680176,0.584473,0.321533,0.113927,-0.006839,-0.014012,0.999980,0.001754,0.002449,0.005628,0.125223,-0.768627,-0.124101,-0.614923
22627,NaN,11.322878,-0.454627,-0.924565,1.439651,0.380420,1.458944,0.425524,0.568132,1.233934,-0.674072,0.595215,0.306396,0.113227,-0.003828,-0.009576,0.999975,0.002128,0.002841,0.006170,0.132238,-0.768149,-0.117238,-0.615398
22628,NaN,11.376749,-0.376695,-0.152132,2.172456,0.412519,1.354375,0.399388,0.625250,1.356509,-0.665527,0.601562,0.302002,0.113784,-0.002992,-0.001884,0.999970,0.001997,0.003126,0.006782,0.138311,-0.766733,-0.112838,-0.616651
22629,NaN,11.914633,-0.999160,-0.377974,1.883367,0.677139,1.980991,0.426667,0.671063,1.471349,-0.655029,0.603760,0.293457,0.119202,-0.009106,-0.004200,0.999965,0.002133,0.003355,0.007357,0.145859,-0.765706,-0.105491,-0.617488
22630,NaN,12.945918,-1.110997,-1.126737,1.370118,0.284067,3.154126,0.554060,0.668372,1.593796,-0.653076,0.612305,0.284912,0.129503,-0.010046,-0.011729,0.999959,0.002770,0.003342,0.007969,0.153250,-0.764047,-0.100605,-0.618567
22631,NaN,15.049609,-0.190244,-2.305433,1.084294,-1.391997,5.310847,0.729057,0.573419,1.764070,-0.642334,0.614502,0.278320,0.150438,-0.000490,-0.023489,0.999950,0.003645,0.002867,0.008820,0.162556,-0.762884,-0.093644,-0.618720
22632,NaN,18.478867,2.663881,-3.547279,1.728531,-5.032605,8.430653,0.771952,0.295720,2.001203,-0.623291,0.625244,0.269775,0.184456,0.028623,-0.035638,0.999941,0.003860,0.001479,0.010006,0.171823,-0.762233,-0.088150,-0.617824
22633,NaN,20.133228,2.941943,-1.575472,4.123753,-5.159678,9.496244,0.828079,0.168333,2.434954,-0.612793,0.629395,0.267578,0.200940,0.031933,-0.015795,0.999917,0.004140,0.000842,0.012174,0.183102,-0.762197,-0.079881,-0.615750
22634,NaN,20.401722,3.560282,-1.813596,4.369113,-6.316591,9.505174,0.798528,-0.132866,2.656597,-0.595703,0.633789,0.263428,0.203532,0.038380,-0.017851,0.999904,0.003993,-0.000664,0.013283,0.194257,-0.762862,-0.072326,-0.612433
22635,NaN,19.677165,2.079161,-1.293006,4.397743,-5.195181,8.810539,0.795581,-0.271001,3.011180,-0.578613,0.637939,0.259033,0.196446,0.023801,-0.012573,0.999878,0.003978,-0.001355,0.015055,0.206698,-0.763954,-0.062757,-0.608039
22636,NaN,19.635731,4.229235,-2.130916,4.665102,-7.985343,8.143393,0.837448,-0.503652,3.283586,-0.557373,0.646484,0.261230,0.195679,0.045596,-0.020629,0.999853,0.004187,-0.002518,0.016417,0.219693,-0.765537,-0.053269,-0.602370
22637,NaN,18.902512,4.144364,-2.073526,4.815563,-8.285197,7.125550,0.724969,-0.651883,3.528210,-0.542480,0.650635,0.261230,0.188320,0.044843,-0.019962,0.999833,0.003625,-0.003259,0.017640,0.233014,-0.767475,-0.042354,-0.595729
22638,NaN,17.801764,4.295384,-2.880776,4.174214,-9.021408,5.833385,0.787526,-0.833145,3.679398,-0.521240,0.661377,0.265381,0.177303,0.046331,-0.027890,0.999814,0.003937,-0.004165,0.018396,0.246778,-0.769675,-0.031540,-0.587968
22639,NaN,16.790812,5.285620,-3.680292,3.840357,-10.441831,4.315027,0.735715,-1.018635,3.722248,-0.500000,0.663574,0.269775,0.167068,0.056104,-0.035748,0.999807,0.003678,-0.005093,0.018610,0.260322,-0.772147,-0.020711,-0.579304
22640,NaN,16.191678,4.768030,-4.457936,3.147477,-10.583951,3.708142,0.582490,-1.277178,3.696067,-0.478760,0.674072,0.282715,0.161277,0.050792,-0.043403,0.999805,0.002912,-0.006385,0.018479,0.273096,-0.775319,-0.009784,-0.569389
22641,NaN,16.123131,5.078586,-5.431302,2.749876,-11.614653,3.330731,0.260868,-1.582208,3.526319,-0.464111,0.687012,0.293213,0.160724,0.053692,-0.052971,0.999812,0.001304,-0.007911,0.017630,0.283863,-0.779487,0.000621,-0.558410
22642,NaN,15.101012,7.299577,-5.000203,3.771689,-13.260085,0.969067,-0.460852,-1.635924,3.299111,-0.440674,0.686768,0.308350,0.150183,0.075364,-0.048943,0.999828,-0.002304,-0.008179,0.016495,0.291236,-0.784563,0.012447,-0.547255
22643,NaN,13.153626,6.034431,-0.829186,6.458617,-9.913034,-1.438976,-0.202161,-1.397335,3.099968,-0.423828,0.701904,0.321045,0.130634,0.062366,-0.007439,0.999855,-0.001011,-0.006986,0.015499,0.298692,-0.788431,0.022552,-0.537262
22644,NaN,6.914834,3.858916,0.339830,4.366845,-5.504719,-6.145880,1.375598,-1.064626,2.644150,-0.407227,0.716797,0.321045,0.068610,0.039472,0.004034,0.999875,0.006878,-0.005323,0.013220,0.311302,-0.788839,0.027691,-0.529204
22645,NaN,-3.689217,10.789059,2.434932,3.565006,-6.047730,-19.121256,2.102576,-0.720040,2.016274,-0.398926,0.725342,0.310059,-0.038066,0.107248,0.025343,0.999887,0.010512,-0.003600,0.010081,0.324691,-0.787155,0.028325,-0.523604
22646,NaN,-10.769951,15.310175,3.304621,2.538940,-6.111092,-27.631320,2.637264,-0.317240,1.206405,-0.395020,0.738281,0.294922,-0.108673,0.151996,0.034884,0.999894,0.013186,-0.001586,0.006032,0.338241,-0.783449,0.025654,-0.520714
22647,NaN,-14.670653,17.116357,4.122205,2.289064,-5.151362,-32.024965,3.194511,0.078097,0.292521,-0.401855,0.749023,0.273438,-0.146939,0.170261,0.044004,0.999871,0.015972,0.000390,0.001463,0.351160,-0.777765,0.017993,-0.521003
22648,NaN,-17.987125,15.202019,4.393573,0.815084,-1.931128,-33.677290,3.226800,0.406122,-0.938722,-0.412598,0.753418,0.256104,-0.179064,0.152123,0.046754,0.999857,0.016133,0.002031,-0.004693,0.361178,-0.771014,0.006651,-0.524445
22649,NaN,-17.177951,10.326819,1.269512,-2.644120,-0.330284,-29.717881,2.783323,0.219278,-1.940315,-0.432129,0.757812,0.236572,-0.170753,0.104736,0.014334,0.999856,0.013916,0.001096,-0.009701,0.366484,-0.765422,-0.008287,-0.528914
22650,NaN,-10.872342,12.629092,-1.346720,-0.573381,-6.038435,-25.391522,2.012352,-0.097063,-2.748204,-0.455322,0.747070,0.228027,-0.106967,0.127896,-0.012238,0.999855,0.010061,-0.000485,-0.013740,0.366863,-0.761766,-0.024300,-0.533417
22651,NaN,-5.823414,15.261507,1.395781,5.392315,-8.369075,-22.836664,1.398961,-0.124350,-3.597708,-0.480957,0.740723,0.223877,-0.055487,0.153527,0.014995,0.999814,0.006994,-0.000622,-0.017987,0.362253,-0.759022,-0.042424,-0.539313
22652,NaN,-4.807171,12.404331,1.807290,5.263422,-6.577419,-20.265006,0.870190,-0.145780,-4.156208,-0.508301,0.723633,0.219482,-0.045495,0.124927,0.018581,0.999774,0.004351,-0.000729,-0.020779,0.354239,-0.756786,-0.060794,-0.545980
22653,NaN,-2.160753,8.916380,1.787611,4.946171,-4.975782,-15.987442,0.732414,-0.063531,-4.711865,-0.546387,0.704346,0.213379,-0.019506,0.089574,0.018197,0.999716,0.003662,-0.000318,-0.023557,0.343747,-0.754043,-0.081233,-0.553768
22654,NaN,0.639643,5.941860,0.553451,3.721540,-4.299819,-11.729670,0.635335,-0.057511,-5.152000,-0.579834,0.676758,0.209229,0.007922,0.059210,0.005725,0.999663,0.003176,-0.000288,-0.025757,0.331742,-0.750764,-0.102482,-0.561960
22655,NaN,3.658930,4.424740,-0.369554,3.316582,-4.321625,-7.963870,0.526315,-0.257342,-5.500499,-0.619629,0.648926,0.202881,0.037792,0.043228,-0.003533,0.999618,0.002631,-0.001287,-0.027499,0.317727,-0.747489,-0.125502,-0.569701
22656,NaN,6.715607,3.006488,-1.476338,2.591419,-4.246223,-4.195101,0.114709,-0.415250,-5.694862,-0.648682,0.614502,0.218262,0.068006,0.028145,-0.014606,0.999592,0.000573,-0.002076,-0.028470,0.301548,-0.744611,-0.147716,-0.576891
22657,NaN,10.293281,-0.319549,-2.076997,1.060730,-2.097884,0.425089,-0.349249,-0.571784,-5.663065,-0.688477,0.586914,0.225098,0.102845,-0.006145,-0.020467,0.999594,-0.001746,-0.002859,-0.028311,0.283094,-0.742248,-0.169077,-0.583385
22658,NaN,15.594020,-5.304698,-1.016522,-0.016099,2.672579,6.470250,-0.399671,-0.693330,-5.483782,-0.713135,0.550537,0.229736,0.154441,-0.057315,-0.009516,0.999616,-0.001998,-0.003466,-0.027415,0.264925,-0.739916,-0.189174,-0.588687
22659,NaN,20.090166,-10.837382,0.228677,-1.817982,8.520770,11.284503,-0.408839,-0.710124,-5.101444,-0.741699,0.507568,0.236572,0.198041,-0.113444,0.003222,0.999666,-0.002044,-0.003550,-0.025504,0.247399,-0.737403,-0.208119,-0.593058
22660,NaN,21.358283,-14.782294,0.578719,-4.214858,12.784333,12.406682,-0.493246,-0.780094,-4.580984,-0.764648,0.484131,0.247559,0.210097,-0.152646,0.006984,0.999727,-0.002466,-0.003900,-0.022903,0.231121,-0.735358,-0.224450,-0.596199
22661,NaN,20.339547,-16.642978,0.338830,-6.240656,14.898494,10.918433,-0.422798,-0.750166,-4.295216,-0.782959,0.451904,0.258789,0.199744,-0.170737,0.004500,0.999760,-0.002114,-0.003751,-0.021474,0.215743,-0.733013,-0.240003,-0.598786
22662,NaN,17.771633,-17.578218,0.143667,-7.832333,15.958448,7.758462,-0.293607,-0.737310,-3.912363,-0.799072,0.421875,0.269775,0.174225,-0.179210,0.002345,0.999801,-0.001468,-0.003686,-0.019561,0.202030,-0.730697,-0.254208,-0.600537
22663,NaN,19.149739,-16.651361,0.591845,-7.069432,16.238567,8.369636,-0.372784,-0.735738,-3.403184,-0.809082,0.396240,0.272217,0.188603,-0.169727,0.006930,0.999847,-0.001864,-0.003678,-0.017015,0.189503,-0.728813,-0.266215,-0.601706
22664,NaN,19.535280,-17.987048,-0.063056,-8.638840,17.477896,8.215181,-0.601986,-0.529419,-2.942042,-0.825684,0.376953,0.283203,0.192679,-0.182718,0.000429,0.999884,-0.003010,-0.002647,-0.014710,0.177734,-0.726976,-0.275593,-0.603296
22665,NaN,19.851865,-19.272276,-0.336066,-9.820193,18.828945,7.924909,-0.683223,-0.427913,-2.454684,-0.829102,0.355469,0.287842,0.196139,-0.195149,-0.002275,0.999917,-0.003416,-0.002140,-0.012273,0.167398,-0.725450,-0.282608,-0.604842
22666,NaN,18.615819,-19.418038,-0.912789,-10.648863,18.727107,6.321438,-0.780441,-0.264673,-2.062067,-0.839355,0.338379,0.292236,0.184154,-0.196119,-0.008121,0.999938,-0.003902,-0.001323,-0.010310,0.157949,-0.723945,-0.287929,-0.606673
22667,NaN,16.410864,-19.179587,-0.594926,-10.546469,18.504713,3.746760,-0.851939,-0.057542,-1.579538,-0.843262,0.327637,0.294434,0.162589,-0.193107,-0.005082,0.999960,-0.004260,-0.000288,-0.007898,0.150279,-0.722580,-0.290703,-0.608923
22668,NaN,14.339216,-18.653826,0.065887,-9.922149,18.169409,1.367621,-0.793922,0.145765,-1.102791,-0.849365,0.314697,0.305420,0.142362,-0.187321,0.001297,0.999977,-0.003970,0.000729,-0.005514,0.144264,-0.721113,-0.292151,-0.611418
22669,NaN,13.142391,-16.501701,0.106114,-8.691420,16.307646,0.363656,-0.709487,0.320135,-0.597529,-0.847168,0.316895,0.294678,0.130932,-0.165404,0.001438,0.999988,-0.003547,0.001601,-0.002988,0.140756,-0.719920,-0.291350,-0.614018
22670,NaN,12.900068,-14.616983,-0.333880,-7.937006,14.564538,0.437066,-0.626017,0.466600,-0.129554,-0.849365,0.319092,0.290283,0.128898,-0.146263,-0.003182,0.999992,-0.003130,0.002333,-0.000648,0.138787,-0.718734,-0.289561,-0.616696
22671,NaN,12.456157,-13.493953,-0.756843,-7.617536,13.325668,0.297456,-0.603775,0.593794,0.271588,-0.853760,0.319092,0.283936,0.124722,-0.134793,-0.007531,0.999990,-0.003019,0.002969,0.001358,0.138802,-0.717904,-0.285647,-0.619478
22672,NaN,12.282859,-12.403368,-0.324268,-6.607825,12.625747,0.274113,-0.581176,0.600667,0.626143,-0.847412,0.325439,0.285889,0.123206,-0.123658,-0.003253,0.999986,-0.002906,0.003003,0.003131,0.139515,-0.717332,-0.281176,-0.622022
22673,NaN,12.564055,-12.183420,-0.185611,-6.269235,12.527830,0.678925,-0.639636,0.488632,0.860992,-0.847656,0.333984,0.287842,0.126159,-0.121298,-0.001775,0.999983,-0.003198,0.002443,0.004305,0.141124,-0.717676,-0.275018,-0.624011
22674,NaN,15.875166,-19.257648,-12.231243,-19.783126,12.518764,5.166589,-1.289159,-0.487714,0.286616,-0.843506,0.333984,0.288086,0.159324,-0.193130,-0.120681,0.999975,-0.006446,-0.002439,0.001433,0.136721,-0.720484,-0.270302,-0.623816
22675,NaN,15.755344,-13.270571,-6.023438,-11.099270,11.182744,4.760027,-2.152796,-0.113849,-0.018980,-0.845459,0.329834,0.296631,0.157575,-0.133358,-0.058712,0.999942,-0.010764,-0.000569,-0.000095,0.129337,-0.722552,-0.262895,-0.626160
22676,NaN,10.850251,-11.526563,3.494131,-2.423849,13.720753,-1.526350,-1.511420,0.720976,0.012654,-0.845459,0.327637,0.292236,0.108637,-0.114992,0.035420,0.999965,-0.007557,0.003605,0.000063,0.124863,-0.721264,-0.257639,-0.630721
22677,NaN,11.085647,-0.453431,8.064490,7.392829,6.753785,-0.439086,-0.346542,0.498560,0.651208,-0.841553,0.338379,0.285889,0.111071,-0.004033,0.080375,0.999990,-0.001733,0.002493,0.003256,0.126937,-0.721068,-0.253003,-0.632406
22678,NaN,12.727309,13.254203,0.121171,7.995311,-8.451372,4.411312,0.441212,0.186361,-0.128050,-0.834717,0.332031,0.277344,0.127359,0.132458,0.001385,0.999997,0.002206,0.000932,-0.000640,0.128363,-0.720035,-0.254737,-0.632599
22679,NaN,12.051528,22.937963,-8.504140,5.785507,-21.091978,6.477377,-0.135027,-0.077483,0.105890,-0.839355,0.342773,0.281494,0.120427,0.229386,-0.085150,1.000000,-0.000675,-0.000387,0.000529,0.128682,-0.720727,-0.253223,-0.632354
22680,NaN,13.546436,16.110536,-8.739680,1.997637,-15.231122,7.023482,-1.451473,-0.446700,0.737788,-0.833252,0.346924,0.292236,0.135067,0.160966,-0.088263,0.999964,-0.007257,-0.002233,0.003689,0.125219,-0.723982,-0.246250,-0.632085
22681,NaN,17.141577,6.660230,-11.454240,-4.970348,-7.910555,9.734965,-1.218534,-0.468942,0.849370,-0.829102,0.351074,0.291992,0.171401,0.066632,-0.114546,0.999970,-0.006093,-0.002345,0.004247,0.123292,-0.727446,-0.239087,-0.631236
22682,NaN,17.377229,9.125159,-10.374438,-2.782278,-9.474992,10.070695,-0.617556,-0.212749,0.514921,-0.829102,0.355469,0.300537,0.173648,0.091378,-0.103842,0.999991,-0.003088,-0.001064,0.002575,0.122420,-0.729108,-0.235390,-0.630877
22683,NaN,13.614982,6.147539,-2.643198,2.048027,-4.013423,4.673308,-1.670841,-0.418081,0.645212,-0.824707,0.351074,0.307129,0.136007,0.061692,-0.026662,0.999958,-0.008354,-0.002090,0.003226,0.118148,-0.732406,-0.227582,-0.630737
22684,NaN,13.461106,-1.823037,3.312891,3.454687,5.557608,2.543478,-2.111839,-0.770219,0.539060,-0.820557,0.351074,0.328613,0.134530,-0.017513,0.033835,0.999933,-0.010559,-0.003851,0.002695,0.111235,-0.736648,-0.219384,-0.629959
22685,NaN,10.858749,-1.813823,6.471443,6.133312,6.375967,-0.603538,-1.590743,-0.743768,0.449463,-0.816162,0.346680,0.341553,0.108385,-0.017377,0.065258,0.999959,-0.007954,-0.003719,0.002247,0.106238,-0.740524,-0.212736,-0.628556
22686,NaN,9.683992,3.715768,5.688746,7.892534,0.796606,-1.036636,-1.565851,-0.544455,0.830293,-0.816162,0.351074,0.343506,0.096529,0.038004,0.056855,0.999957,-0.007829,-0.002722,0.004151,0.102470,-0.743918,-0.205016,-0.627737
22687,NaN,14.507563,5.475527,2.380335,6.366138,-1.484431,4.448508,-2.689246,-0.573128,0.901040,-0.805176,0.342285,0.365234,0.144758,0.055725,0.023474,0.999895,-0.013446,-0.002866,0.004505,0.094980,-0.748045,-0.193148,-0.627775
22688,NaN,18.539803,7.254201,0.286571,5.747028,-3.449282,8.935610,-3.099633,-0.589482,1.082225,-0.801025,0.344482,0.377930,0.184994,0.073582,0.002276,0.999861,-0.015497,-0.002947,0.005411,0.086207,-0.752308,-0.179620,-0.627963
22689,NaN,19.623172,6.374608,-1.637179,3.810520,-3.383457,10.247565,-2.771192,-0.678802,1.169132,-0.794434,0.340088,0.395264,0.195912,0.064663,-0.016598,0.999881,-0.013855,-0.003394,0.005845,0.079084,-0.756641,-0.166520,-0.627304
22690,NaN,15.030227,-2.279203,-1.837693,-0.028264,3.779418,5.026145,-1.763892,-0.785324,1.152921,-0.786133,0.344482,0.406006,0.150501,-0.022082,-0.017589,0.999937,-0.008819,-0.003927,0.005764,0.075373,-0.760714,-0.156922,-0.625307
22691,NaN,12.181601,-7.058828,-3.767287,-4.526075,6.699183,2.313429,-0.940283,-0.691295,1.159952,-0.786133,0.348633,0.414551,0.122352,-0.070054,-0.036920,0.999966,-0.004701,-0.003456,0.005800,0.112355,-0.753791,-0.195152,-0.617326
22692,NaN,7.978931,-2.366003,-4.836795,-3.977691,1.360053,-1.153412,-0.430512,-0.541404,1.297008,-0.771484,0.354980,0.416504,0.080071,-0.023245,-0.048101,0.999973,-0.002153,-0.002707,0.006485,0.114210,-0.756949,-0.189229,-0.614961
22693,NaN,5.451081,-0.186225,-3.550046,-2.206621,-0.726031,-3.733609,-0.191358,-0.395519,1.122919,-0.778076,0.363525,0.422852,0.054590,-0.001590,-0.035391,0.999982,-0.000957,-0.001978,0.005615,0.147721,-0.749079,-0.222564,-0.606238
22694,NaN,7.351709,1.596147,-2.684948,-0.195904,-1.576683,-1.984566,-0.147876,-0.388107,1.009345,-0.763428,0.370117,0.425049,0.073487,0.016313,-0.026719,0.999985,-0.000739,-0.001941,0.005047,0.149798,-0.751477,-0.218614,-0.604194
22695,NaN,9.591615,-2.236505,-2.938596,-2.048710,1.701565,0.114195,-0.236392,-0.351280,0.987291,-0.759033,0.372070,0.431396,0.096076,-0.021926,-0.029191,0.999986,-0.001182,-0.001756,0.004936,0.177019,-0.744163,-0.245811,-0.595367
22696,NaN,11.568949,-4.072011,-1.489466,-1.520279,4.259117,1.684609,-0.208439,-0.227225,0.958646,-0.755127,0.382812,0.431396,0.115900,-0.040180,-0.014721,0.999987,-0.001042,-0.001136,0.004793,0.178821,-0.746194,-0.241817,-0.593922
22697,NaN,11.336209,-2.355564,-0.829699,-0.171389,3.108356,1.370093,-0.233988,-0.125512,0.886303,-0.750977,0.382812,0.433350,0.113470,-0.023063,-0.008199,0.999989,-0.001170,-0.000628,0.004431,0.200934,-0.739333,-0.263209,-0.586288
22698,NaN,11.319752,-1.911051,-1.488102,-0.320652,2.297906,1.528361,-0.193269,-0.097080,0.861857,-0.746826,0.391357,0.433350,0.113286,-0.018637,-0.014808,0.999990,-0.000966,-0.000485,0.004309,0.202622,-0.740939,-0.259546,-0.585311
22699,NaN,11.147821,-0.442920,-2.051402,0.167374,0.716552,1.507031,-0.089726,-0.031407,0.928318,-0.745117,0.397705,0.435303,0.111500,-0.003921,-0.020495,0.999989,-0.000449,-0.000157,0.004642,0.221712,-0.734865,-0.276556,-0.578217
22700,NaN,10.054065,-0.199689,-2.732657,-0.295857,-0.144025,0.602803,-0.001677,0.049413,0.965633,-0.742920,0.402100,0.435303,0.100542,-0.001512,-0.027351,0.999988,-0.000008,0.000247,0.004828,0.224569,-0.736051,-0.272940,-0.577323
22701,NaN,9.868269,-0.537182,-3.238919,-0.839802,-0.370808,0.546763,0.054736,0.131764,1.040744,-0.739258,0.415039,0.437256,0.098687,-0.004849,-0.032456,0.999986,0.000274,0.000659,0.005204,0.241530,-0.730668,-0.285910,-0.571002
22702,NaN,9.615042,-0.390806,-2.891670,-0.483813,-0.365805,0.217000,0.119462,0.266559,1.072409,-0.739258,0.419189,0.435059,0.096131,-0.003375,-0.029047,0.999985,0.000597,0.001333,0.005362,0.245412,-0.731285,-0.282001,-0.570500
22703,NaN,9.626077,-1.617257,-3.147600,-1.458151,0.186049,0.337303,0.115483,0.364255,1.113093,-0.735352,0.429932,0.428467,0.096291,-0.015618,-0.031660,0.999983,0.000577,0.001821,0.005565,0.260376,-0.726438,-0.291207,-0.565412
22704,NaN,10.393739,-1.622234,-2.619764,-0.901951,0.550248,0.976510,0.175560,0.413729,1.190090,-0.733398,0.434326,0.426270,0.103977,-0.015581,-0.026427,0.999980,0.000878,0.002069,0.005950,0.264981,-0.726759,-0.286831,-0.565097
22705,NaN,10.778200,-2.011937,-1.910826,-0.599041,1.217068,1.233882,0.278362,0.490949,1.250373,-0.727295,0.449219,0.417480,0.107857,-0.019418,-0.019400,0.999976,0.001392,0.002455,0.006252,0.279149,-0.722433,-0.293379,-0.560442
22706,NaN,11.321027,-1.587262,-1.101897,0.415853,1.438470,1.573910,0.411215,0.567866,1.350906,-0.725586,0.459961,0.415283,0.113282,-0.015084,-0.011372,0.999971,0.002056,0.002839,0.006754,0.285251,-0.722229,-0.288845,-0.559987
22707,NaN,10.906554,0.405044,-0.074200,2.521085,0.719979,0.781917,0.439879,0.663945,1.481170,-0.717285,0.470703,0.410889,0.109028,0.004860,-0.001094,0.999965,0.002199,0.003320,0.007406,0.299398,-0.718211,-0.292871,-0.555663
22708,NaN,11.297926,-0.494417,-1.042409,1.402778,0.434183,1.448504,0.417212,0.765923,1.582925,-0.711426,0.485596,0.402100,0.112973,-0.004028,-0.010866,0.999959,0.002086,0.003830,0.007915,0.306409,-0.717748,-0.287181,-0.555408
22709,NaN,11.757260,-1.465406,-0.839251,0.971712,1.067271,1.977025,0.501943,0.796820,1.687319,-0.711914,0.498535,0.391113,0.117656,-0.013640,-0.008896,0.999953,0.002510,0.003984,0.008436,0.319649,-0.714444,-0.288049,-0.551744
22710,NaN,11.793752,-1.694991,-1.284265,0.639026,0.661574,2.135710,0.519127,0.762353,1.762078,-0.703613,0.511475,0.380371,0.118030,-0.015876,-0.013335,0.999951,0.002596,0.003812,0.008810,0.327452,-0.714015,-0.281949,-0.550874
22711,NaN,13.830010,-1.655894,-2.298471,0.678134,-0.284482,4.285069,0.464980,0.581158,1.852095,-0.695557,0.528564,0.382324,0.138378,-0.015224,-0.023423,0.999950,0.002325,0.002906,0.009260,0.340004,-0.711853,-0.281643,-0.546205
22712,NaN,16.520823,-1.317106,-1.274809,2.391553,0.149421,6.635575,0.515919,0.399780,2.037991,-0.687500,0.541504,0.373535,0.165305,-0.011453,-0.013109,0.999943,0.002580,0.001999,0.010190,0.347956,-0.712714,-0.275097,-0.543404
22713,NaN,19.129967,3.142146,-0.362228,7.334449,-1.970691,8.027341,0.761626,0.089637,2.213627,-0.675049,0.558594,0.366943,0.190935,0.033550,-0.003583,0.999931,0.003808,0.000448,0.011068,0.360298,-0.712504,-0.273292,-0.536503
22714,NaN,20.954292,3.697784,-0.625433,8.484716,-2.773664,9.511858,0.621332,-0.086253,2.572540,-0.656494,0.577881,0.366699,0.209047,0.039688,-0.006044,0.999912,0.003107,-0.000431,0.012862,0.369269,-0.715069,-0.265919,-0.530663
22715,NaN,20.902781,4.628511,-1.458687,9.227768,-4.196079,9.099788,0.731137,-0.306807,3.018948,-0.644287,0.597168,0.370850,0.208319,0.049485,-0.014090,0.999878,0.003656,-0.001534,0.015094,0.382244,-0.717116,-0.261116,-0.521011
22716,NaN,19.044920,3.742999,-2.501873,7.901236,-4.778928,7.440483,0.786394,-0.509471,3.366876,-0.617188,0.625000,0.372559,0.189845,0.040726,-0.024379,0.999847,0.003932,-0.002547,0.016834,0.393117,-0.721227,-0.252020,-0.511641
22717,NaN,18.335580,1.569085,-3.311540,6.138256,-4.427835,7.284001,0.901398,-0.775300,3.570805,-0.589844,0.646240,0.368164,0.183161,0.019109,-0.032324,0.999823,0.004507,-0.003876,0.017853,0.405744,-0.725151,-0.244644,-0.499677
22718,NaN,19.368596,2.192590,-3.121370,7.741530,-4.886294,7.675433,1.078329,-1.180392,3.659382,-0.567139,0.671875,0.376465,0.193419,0.025630,-0.029940,0.999801,0.005391,-0.005902,0.018296,0.417277,-0.730244,-0.236410,-0.486553
22719,NaN,21.012130,5.684797,-2.438470,12.118318,-6.408150,7.268956,1.155944,-1.591723,3.773542,-0.531494,0.699707,0.378418,0.209181,0.060934,-0.022373,0.999774,0.005779,-0.007958,0.018866,0.429355,-0.735597,-0.229757,-0.470916
22720,NaN,20.849138,9.536547,-1.766829,15.938855,-7.914731,4.746882,0.945643,-1.660959,3.893718,-0.508789,0.725342,0.384521,0.206716,0.099478,-0.015483,0.999765,0.004728,-0.008304,0.019467,0.439997,-0.741778,-0.221169,-0.455250
22721,NaN,16.977610,11.989190,-2.767045,15.881072,-9.789578,-0.245159,0.340086,-1.402908,3.721461,-0.472656,0.738037,0.391113,0.167693,0.123071,-0.026282,0.999801,0.001700,-0.007014,0.018606,0.448091,-0.748010,-0.211540,-0.441528
22722,NaN,10.610588,8.449029,-2.060161,10.648330,-6.952054,-4.666978,-0.108217,-0.906290,3.523045,-0.453613,0.746582,0.399658,0.104688,0.086332,-0.020171,0.999834,-0.000541,-0.004531,0.017614,0.454436,-0.753855,-0.200114,-0.430284
22723,NaN,3.644037,1.608964,1.913264,4.035485,0.483541,-8.078293,0.492578,-1.012978,2.864618,-0.428467,0.765869,0.397217,0.036108,0.016561,0.019356,0.999882,0.002463,-0.005065,0.014323,0.460405,-0.757894,-0.191602,-0.420610
22724,NaN,-2.770537,11.183364,2.615502,7.118705,-3.019256,-18.744928,1.258190,-0.822704,2.143271,-0.418457,0.785156,0.392822,-0.029010,0.111360,0.026739,0.999914,0.006291,-0.004113,0.010716,0.468858,-0.758716,-0.187997,-0.411315
22725,NaN,-9.553841,12.445711,4.570993,4.674803,-1.041909,-25.436908,1.728876,-0.456181,1.471848,-0.412354,0.795898,0.379639,-0.096554,0.123349,0.046560,0.999933,0.008644,-0.002281,0.007359,0.477800,-0.756748,-0.187503,-0.404825
22726,NaN,-14.906552,15.843706,4.331083,3.511163,-1.999830,-31.622070,2.089129,-0.273898,0.484045,-0.410400,0.804443,0.364502,-0.149508,0.157613,0.044756,0.999942,0.010445,-0.001369,0.002420,0.486404,-0.752721,-0.190537,-0.400648
22727,NaN,-15.137252,16.359320,4.108179,3.753360,-2.088190,-32.065325,2.154138,0.140584,-0.676614,-0.425293,0.802490,0.355957,-0.150789,0.163648,0.042950,0.999936,0.010770,0.000703,-0.003383,0.493053,-0.746311,-0.197568,-0.401105
22728,NaN,-14.079320,12.941535,0.621359,0.928174,-3.632047,-28.575169,1.438066,0.202586,-1.732352,-0.442383,0.800293,0.343018,-0.139658,0.130578,0.007292,0.999936,0.007190,0.001013,-0.008662,0.495117,-0.740601,-0.206398,-0.404683
22729,NaN,-8.300735,13.728966,0.044137,5.060225,-5.007196,-24.189619,0.866128,0.092429,-2.489847,-0.463867,0.793945,0.336670,-0.081289,0.138305,0.001077,0.999913,0.004331,0.000462,-0.012449,0.493089,-0.735443,-0.217669,-0.410618
22730,NaN,-4.323151,15.130198,1.474929,9.281034,-4.638641,-21.733841,0.631540,0.053783,-3.016784,-0.493408,0.783447,0.334473,-0.040939,0.151883,0.015240,0.999881,0.003158,0.000269,-0.015083,0.489222,-0.730405,-0.229894,-0.417515
22731,NaN,-2.280240,9.844601,1.017984,6.620299,-3.005921,-16.903325,0.496768,0.424137,-3.498929,-0.520752,0.766357,0.330322,-0.021054,0.098799,0.010471,0.999842,0.002484,0.002121,-0.017494,0.483814,-0.723945,-0.243262,-0.427377
22732,NaN,-0.523728,4.806304,-0.985559,3.095879,-2.846900,-12.392189,0.599280,0.642589,-4.013624,-0.554688,0.747070,0.326172,-0.004302,0.048185,-0.009696,0.999789,0.002996,0.003213,-0.020067,0.478091,-0.716088,-0.257459,-0.438591
22733,NaN,0.361965,1.841545,-2.385240,0.735122,-2.942167,-9.933319,0.795599,0.716075,-4.504247,-0.592529,0.725586,0.317627,0.003949,0.018424,-0.023793,0.999732,0.003978,0.003580,-0.022519,0.471475,-0.706365,-0.274223,-0.451179
22734,NaN,0.826977,1.029516,-2.632151,0.206483,-2.847990,-9.092827,0.847906,0.572142,-4.928550,-0.628174,0.702148,0.307129,0.008447,0.010200,-0.026302,0.999683,0.004239,0.002860,-0.024640,0.463992,-0.696095,-0.292100,-0.463509
22735,NaN,4.493528,0.886935,-1.410502,1.914363,-1.703565,-5.763445,0.608652,0.165392,-5.367873,-0.672363,0.672363,0.305176,0.045141,0.007702,-0.014118,0.999635,0.003043,0.000827,-0.026836,0.453311,-0.685940,-0.312367,-0.475838
22736,NaN,9.127905,0.152665,-1.027622,2.733546,-0.941984,-1.093999,0.159159,0.332075,-5.741651,-0.707764,0.635986,0.301270,0.091256,-0.001085,-0.010428,0.999586,0.000796,0.001660,-0.028704,0.440533,-0.675540,-0.331549,-0.489542
22737,NaN,11.516978,-1.740079,-1.069462,1.206315,0.020667,1.819963,-0.278045,0.212777,-5.784599,-0.738525,0.591064,0.303955,0.114591,-0.020736,-0.010789,0.999580,-0.001390,0.001064,-0.028919,0.425140,-0.665447,-0.350464,-0.503597
22738,NaN,14.481120,-4.349423,-1.998642,-1.437659,0.599676,5.357329,-0.686438,-0.096304,-5.475324,-0.769287,0.552490,0.308594,0.143557,-0.047504,-0.019759,0.999619,-0.003432,-0.000481,-0.027373,0.408745,-0.657303,-0.367019,-0.515924
22739,NaN,17.229783,-8.482002,-1.919677,-5.445310,2.876221,8.476232,-0.592962,-0.309351,-5.232151,-0.793945,0.516113,0.313477,0.170029,-0.089344,-0.018672,0.999652,-0.002964,-0.001547,-0.026158,0.392123,-0.649139,-0.383818,-0.526823
22740,NaN,18.433372,-11.628064,-2.112508,-9.060750,4.486655,9.607424,-0.533236,-0.451090,-4.853784,-0.820801,0.486084,0.328613,0.181486,-0.120763,-0.020396,0.999699,-0.002666,-0.002255,-0.024266,0.376628,-0.641864,-0.398932,-0.535739
22741,NaN,17.778628,-13.572737,-1.497400,-11.468280,6.192989,8.424173,-0.777216,-0.560913,-4.358828,-0.837158,0.456055,0.339844,0.174812,-0.139615,-0.013943,0.999751,-0.003886,-0.002804,-0.021792,0.360844,-0.635664,-0.412301,-0.543812
22742,NaN,19.030458,-15.094838,-0.788240,-13.142272,8.059010,8.972597,-1.111634,-0.593532,-3.845895,-0.851074,0.421875,0.355225,0.187375,-0.154609,-0.006471,0.999795,-0.005558,-0.002967,-0.019228,0.345560,-0.631225,-0.422485,-0.551044
22743,NaN,22.015304,-18.055328,0.006712,-16.020416,10.917260,11.037774,-1.197052,-0.506573,-3.387479,-0.863037,0.395996,0.359863,0.217050,-0.184240,0.001715,0.999835,-0.005985,-0.002533,-0.016936,0.331057,-0.627195,-0.431010,-0.557905
22744,NaN,22.660153,-21.753026,-0.077855,-19.935647,12.917524,10.737593,-0.937956,-0.323097,-2.913666,-0.879639,0.381104,0.364258,0.223400,-0.220800,0.000615,0.999882,-0.004690,-0.001615,-0.014568,0.319255,-0.623296,-0.438012,-0.563670
22745,NaN,21.226553,-22.191696,-1.528247,-21.354722,11.890202,8.839934,-0.703742,-0.246952,-2.469620,-0.889648,0.355469,0.375244,0.209521,-0.224567,-0.014236,0.999917,-0.003519,-0.001235,-0.012348,0.309493,-0.619547,-0.444164,-0.568414
22746,NaN,18.224273,-20.158809,-4.014673,-20.790101,8.513824,5.994759,-0.746637,-0.124466,-2.068725,-0.899902,0.340332,0.377686,0.180168,-0.203607,-0.039277,0.999939,-0.003733,-0.000622,-0.010343,0.301009,-0.616424,-0.448614,-0.572853
22747,NaN,16.274982,-17.123757,-5.650324,-18.893612,5.613594,4.383308,-0.918712,0.070102,-1.637798,-0.912354,0.329590,0.379883,0.161319,-0.172820,-0.055769,0.999956,-0.004593,0.000351,-0.008189,0.293803,-0.613990,-0.450739,-0.577521
22748,NaN,14.825947,-17.598494,-5.591868,-19.341374,5.740416,2.586300,-0.994699,0.241149,-1.056798,-0.916504,0.323242,0.382080,0.147259,-0.177041,-0.055218,0.999973,-0.004973,0.001206,-0.005284,0.288237,-0.612357,-0.450742,-0.582040
22749,NaN,13.745363,-17.727482,-4.596993,-18.974863,6.592210,1.179332,-1.063594,0.386256,-0.532186,-0.922607,0.314697,0.384277,0.136893,-0.177882,-0.045290,0.999980,-0.005318,0.001931,-0.002661,0.284613,-0.611846,-0.448352,-0.586191
22750,NaN,12.706746,-17.562598,-2.766002,-17.895579,8.021352,-0.170999,-0.901124,0.413605,-0.025020,-0.922607,0.314697,0.382080,0.126989,-0.175765,-0.027131,0.999988,-0.004506,0.002068,-0.000125,0.282710,-0.611853,-0.445191,-0.589505
22751,NaN,12.078142,-16.662340,-1.665470,-16.475079,8.509480,-0.732558,-0.421357,0.300498,0.423294,-0.925049,0.323242,0.382080,0.121109,-0.166402,-0.016486,0.999994,-0.002107,0.001502,0.002116,0.283809,-0.612976,-0.441673,-0.590456
22752,NaN,12.490890,-14.988274,-1.384733,-14.854237,8.075606,0.022066,0.129186,0.083473,0.790823,-0.921387,0.338379,0.388184,0.125494,-0.149378,-0.013996,0.999992,0.000646,0.000417,0.003954,0.286725,-0.614289,-0.439505,-0.589299
22753,NaN,18.577917,-20.500024,-15.295923,-26.618339,-0.293847,7.238033,0.302420,-1.046111,0.249995,-0.915283,0.348877,0.403076,0.186833,-0.204537,-0.152293,0.999984,0.001512,-0.005231,0.001250,0.286724,-0.618077,-0.440389,-0.584660
22754,NaN,12.715527,-5.361487,-6.771755,-8.810485,-0.760895,2.760368,-0.435604,-0.719001,-0.238898,-0.908936,0.353271,0.409424,0.127333,-0.053914,-0.067143,0.999990,-0.002178,-0.003595,-0.001194,0.283098,-0.620273,-0.440878,-0.583733
22755,NaN,13.259561,-5.553855,2.155628,-4.704947,7.236099,1.883883,-0.554931,-0.049109,0.454244,-0.909668,0.368164,0.415771,0.132716,-0.055177,0.021742,0.999994,-0.002775,-0.000246,0.002271,0.283275,-0.623022,-0.437058,-0.583591
22756,NaN,12.190506,-2.158701,9.837697,2.114721,12.050348,0.205492,-0.082640,0.166772,1.101314,-0.905762,0.385254,0.411133,0.122103,-0.020874,0.098284,0.999984,-0.000413,0.000834,0.005507,0.286597,-0.625051,-0.433139,-0.582721
22757,NaN,14.858623,11.020409,4.516742,11.085542,1.946383,5.547953,1.474376,0.051452,0.376268,-0.900146,0.406738,0.406494,0.148391,0.110147,0.045941,0.999971,0.007372,0.000257,0.001881,0.293210,-0.624321,-0.435244,-0.578631
22758,NaN,10.747633,24.219559,-1.339244,20.320388,-9.784677,4.159716,0.878668,-0.063688,0.575352,-0.890137,0.428223,0.414795,0.106783,0.242559,-0.012293,0.999986,0.004393,-0.000318,0.002877,0.297480,-0.624462,-0.436073,-0.575668
22759,NaN,13.441806,20.161780,-1.243424,16.783853,-7.466175,6.038943,-1.463988,-0.620067,1.194358,-0.885986,0.434570,0.429932,0.133252,0.202320,-0.013499,0.999951,-0.007320,-0.003100,0.005972,0.295655,-0.631534,-0.428281,-0.574741
22760,NaN,16.714403,4.429716,-2.320322,2.396935,-0.724854,7.453035,-1.860626,-0.321362,1.050876,-0.881836,0.436768,0.440430,0.166946,0.044958,-0.023351,0.999942,-0.009303,-0.001607,0.005254,0.292101,-0.637424,-0.420062,-0.576122
22761,NaN,13.858980,1.141654,-2.513794,-0.417322,0.021062,4.312426,-1.654066,0.022509,0.789048,-0.884277,0.443115,0.451172,0.138541,0.011755,-0.025250,0.999958,-0.008270,0.000113,0.003945,0.289697,-0.641840,-0.412112,-0.578171
22762,NaN,11.115535,-0.522803,-0.662981,-0.833468,1.854607,1.147837,-2.433324,-0.320308,0.798136,-0.875488,0.438721,0.468506,0.111186,-0.004863,-0.006391,0.999917,-0.012166,-0.001601,0.003991,0.283518,-0.647883,-0.402940,-0.580951
22763,NaN,10.169782,-5.658095,-0.912871,-5.208861,4.169596,-0.234015,-2.287241,-0.531164,0.639700,-0.881836,0.434326,0.479248,0.101901,-0.056353,-0.008213,0.999926,-0.011436,-0.002656,0.003198,0.277430,-0.654342,-0.394335,-0.582554
22764,NaN,8.281646,-1.531594,-3.080268,-2.857934,-0.092481,-1.313108,-1.675741,-0.377788,0.656895,-0.877930,0.440918,0.489746,0.082925,-0.015300,-0.030518,0.999958,-0.008379,-0.001889,0.003284,0.273111,-0.659036,-0.387807,-0.583684
22765,NaN,8.335952,10.307952,-5.188210,5.785634,-8.339895,0.168834,-1.424443,-0.378963,0.641358,-0.873779,0.442871,0.504883,0.083128,0.102974,-0.052458,0.999968,-0.007122,-0.001895,0.003207,0.270124,-0.663772,-0.381398,-0.583931
22766,NaN,22.993359,9.834607,0.194099,8.901644,-1.011971,13.536520,-1.637801,-1.051532,0.660765,-0.865234,0.445068,0.513428,0.229595,0.099123,0.002339,0.999947,-0.008189,-0.005258,0.003304,0.264606,-0.670281,-0.375817,-0.582639
22767,NaN,29.662974,9.346553,4.017863,11.296530,3.405556,19.241826,-1.867310,-0.534110,1.290133,-0.863037,0.445068,0.524170,0.295910,0.095750,0.040083,0.999932,-0.009336,-0.002670,0.006451,0.261556,-0.677076,-0.366205,-0.582280
22768,NaN,18.465764,5.275580,0.183154,5.440989,0.443092,8.600384,-1.633742,-0.506443,1.580372,-0.858887,0.445068,0.536865,0.184228,0.054228,0.001859,0.999932,-0.008169,-0.002532,0.007902,0.259689,-0.683537,-0.356730,-0.581449
22769,NaN,10.045408,-5.251765,-1.915006,-4.503579,3.624393,0.123900,-1.808750,-0.700498,1.562403,-0.839355,0.438477,0.554199,0.100926,-0.051899,-0.018326,0.999922,-0.009044,-0.003502,0.007812,0.257243,-0.690914,-0.346555,-0.579968
22770,NaN,10.358494,-8.204420,-1.850465,-6.521716,5.652019,0.363365,-1.043946,-0.799745,1.377959,-0.837158,0.442627,0.558594,0.104219,-0.081421,-0.017663,0.999955,-0.005220,-0.003999,0.006890,0.256244,-0.696934,-0.339773,-0.577214
22771,NaN,4.919787,-3.229155,-2.344665,-3.421914,1.176661,-4.613188,-0.512543,-0.367455,1.034802,-0.833252,0.447021,0.562744,0.049407,-0.032096,-0.023274,0.999982,-0.002563,-0.001837,0.005174,0.257350,-0.700683,-0.334628,-0.575185
22772,NaN,4.139764,-3.415362,-2.115870,-3.461304,1.342223,-5.397161,-0.421772,-0.318185,0.744056,-0.826904,0.451172,0.560547,0.041558,-0.034044,-0.021021,0.999990,-0.002109,-0.001591,0.003720,0.257486,-0.703381,-0.331207,-0.573811
22773,NaN,9.336503,-2.892365,-2.134216,-2.372576,1.866896,-0.274549,-0.219010,-0.280170,0.689116,-0.826904,0.451172,0.562744,0.093494,-0.028625,-0.021180,0.999992,-0.001095,-0.001401,0.003446,0.258775,-0.705913,-0.327963,-0.571981
22774,NaN,9.852463,-3.230878,-3.800407,-3.560614,0.919347,0.600243,-0.015751,-0.103400,0.657260,-0.818604,0.461914,0.564697,0.098650,-0.031988,-0.037951,0.999994,-0.000079,-0.000517,0.003286,0.260437,-0.707305,-0.325722,-0.570787
22775,NaN,9.318187,-1.930374,-3.826754,-2.594269,-0.081808,0.110099,0.155550,-0.013005,0.650770,-0.820801,0.464111,0.562500,0.093246,-0.018971,-0.038276,0.999994,0.000778,-0.000065,0.003254,0.263385,-0.708521,-0.323305,-0.569298
22776,NaN,10.871467,-0.279097,-3.041402,-0.569965,-0.378132,1.458894,0.095161,0.055393,0.636076,-0.812500,0.470459,0.560303,0.108714,-0.002431,-0.030445,0.999995,0.000476,0.000277,0.003180,0.265631,-0.709265,-0.321239,-0.568498
22777,NaN,11.946921,0.041913,-1.206850,1.068619,0.870141,2.115746,0.042904,0.093765,0.674077,-0.812256,0.468506,0.558350,0.119461,0.000824,-0.012124,0.999994,0.000215,0.000469,0.003370,0.268389,-0.710350,-0.318274,-0.567514
22778,NaN,11.744330,0.600042,-1.193833,1.524190,0.419116,1.901196,-0.052309,0.122166,0.767804,-0.814941,0.481201,0.558105,0.117412,0.006448,-0.012012,0.999992,-0.000262,0.000611,0.003839,0.270585,-0.711292,-0.315223,-0.566994
22779,NaN,11.766039,-0.145728,-2.142982,0.438686,0.116603,2.139145,-0.023614,0.178560,0.894827,-0.810791,0.487793,0.553711,0.117646,-0.000933,-0.021535,0.999990,-0.000118,0.000893,0.004474,0.273832,-0.712508,-0.311195,-0.566133
22780,NaN,11.577284,0.207297,-2.579753,0.464924,-0.562056,2.027840,0.189773,0.292055,1.057517,-0.804688,0.494141,0.551514,0.115722,0.002710,-0.025964,0.999985,0.000949,0.001460,0.005288,0.277962,-0.713058,-0.307550,-0.565419
22781,NaN,10.940159,1.562598,-2.644630,1.425114,-1.706830,1.330774,0.373985,0.391336,1.222622,-0.800781,0.504883,0.547119,0.109251,0.016344,-0.026630,0.999978,0.001870,0.001957,0.006113,0.283818,-0.713550,-0.303203,-0.564235
22782,NaN,11.607204,0.983318,-3.561271,0.615351,-2.079139,2.173654,0.553476,0.497586,1.350667,-0.796875,0.519775,0.536133,0.115913,0.010715,-0.035872,0.999970,0.002767,0.002488,0.006753,0.290360,-0.713390,-0.299221,-0.563235
22783,NaN,11.908550,0.857336,-4.198921,0.292653,-2.625101,2.564661,0.792000,0.536974,1.463445,-0.799561,0.532715,0.527344,0.118904,0.009611,-0.042272,0.999962,0.003960,0.002685,0.007317,0.298495,-0.713114,-0.295001,-0.561554
22784,NaN,12.730086,0.990675,-5.133733,0.103444,-3.542826,3.484820,1.074088,0.484973,1.563242,-0.789062,0.547852,0.514404,0.127092,0.011177,-0.051588,0.999952,0.005370,0.002425,0.007816,0.307426,-0.712423,-0.291695,-0.559336
22785,NaN,13.323385,2.079217,-5.245106,1.167385,-4.495332,3.890198,1.173332,0.357742,1.668246,-0.781006,0.564941,0.499023,0.132959,0.022210,-0.052562,0.999946,0.005867,0.001789,0.008341,0.317090,-0.712225,-0.288083,-0.556056
22786,NaN,15.860630,0.741592,-3.106190,2.204007,-2.068273,6.081136,1.241632,0.275727,1.803500,-0.777344,0.584229,0.490234,0.158487,0.009039,-0.031228,0.999939,0.006208,0.001379,0.009017,0.326915,-0.712046,-0.284647,-0.552353
22787,NaN,18.094742,2.375119,0.053691,6.121348,-0.759522,7.363025,1.292888,0.151747,1.983380,-0.760742,0.599121,0.483643,0.180700,0.025540,0.000561,0.999930,0.006464,0.000759,0.009917,0.337422,-0.712469,-0.280568,-0.547555
22788,NaN,19.837885,3.753714,-0.221806,7.756614,-1.995396,8.721522,1.396980,-0.053231,2.244503,-0.752930,0.625000,0.470459,0.197941,0.039774,-0.001893,0.999913,0.006985,-0.000266,0.011222,0.348451,-0.713346,-0.276451,-0.541567
22789,NaN,23.296722,7.132053,-0.091279,11.810038,-4.106551,11.097379,1.393091,-0.435494,2.720463,-0.731934,0.639893,0.459717,0.231969,0.074482,0.000105,0.999881,0.006965,-0.002177,0.013602,0.360325,-0.715871,-0.271018,-0.533145
22790,NaN,24.805629,11.826231,0.724567,16.951317,-6.441737,10.846079,1.362491,-0.703748,3.283098,-0.709229,0.667725,0.450928,0.246042,0.122255,0.008938,0.999836,0.006812,-0.003519,0.016415,0.372952,-0.719625,-0.264111,-0.522774
22791,NaN,23.990101,14.224163,-0.533468,18.555043,-9.065471,8.937234,1.166875,-0.838648,3.779815,-0.682129,0.691162,0.454834,0.237173,0.146765,-0.003489,0.999796,0.005834,-0.004193,0.018898,0.385933,-0.724479,-0.255004,-0.511038
22792,NaN,20.728050,12.197060,-1.522767,16.015170,-8.873479,5.853304,0.944605,-0.768021,4.179687,-0.661377,0.712646,0.452637,0.204726,0.126335,-0.013848,0.999763,0.004723,-0.003840,0.020897,0.398974,-0.729777,-0.243687,-0.498861
22793,NaN,16.773630,10.876150,-1.459887,14.093293,-8.127739,1.893337,1.252019,-0.606398,4.183742,-0.638428,0.731934,0.443848,0.165453,0.112325,-0.013399,0.999757,0.006260,-0.003032,0.020917,0.413107,-0.733633,-0.232806,-0.486751
22794,NaN,10.783806,12.229251,-4.313746,11.463969,-11.007048,-4.169713,1.161203,-0.280732,3.530734,-0.615479,0.755371,0.435059,0.105714,0.124418,-0.042270,0.999826,0.005806,-0.001404,0.017653,0.425571,-0.735901,-0.223209,-0.476988
22795,NaN,1.553440,7.851823,0.776846,6.855549,-3.632969,-11.925760,1.756228,-0.197839,2.760902,-0.594482,0.772705,0.419922,0.014441,0.078650,0.008473,0.999866,0.008781,-0.000989,0.013804,0.438205,-0.735528,-0.217859,-0.468522
22796,NaN,-7.247555,12.147138,0.852380,5.891433,-4.752368,-21.791652,2.844192,-0.079819,2.007585,-0.588623,0.794189,0.400391,-0.073693,0.120598,0.010214,0.999848,0.014220,-0.000399,0.010037,0.453224,-0.731559,-0.217268,-0.460655
22797,NaN,-15.360561,17.123483,3.187248,6.748003,-3.857295,-31.695679,3.441238,0.181310,0.972080,-0.586914,0.806885,0.376465,-0.154403,0.169902,0.034943,0.999840,0.017205,0.000907,0.004860,0.468012,-0.724197,-0.221460,-0.455476
22798,NaN,-21.082718,15.340371,1.987600,2.231491,-2.844058,-35.709681,3.692380,0.422992,-0.160709,-0.597900,0.815674,0.337646,-0.210657,0.153166,0.023151,0.999827,0.018461,0.002115,-0.000803,0.481413,-0.714292,-0.229411,-0.453211
22799,NaN,-21.482525,13.115876,-1.651048,-0.813833,-4.657576,-34.589027,3.327831,0.255514,-1.088606,-0.619141,0.809326,0.318359,-0.214125,0.132573,-0.014038,0.999846,0.016638,0.001278,-0.005443,0.490871,-0.704267,-0.240471,-0.453020
22800,NaN,-6.865795,10.241981,-1.943890,4.168580,-5.102005,-20.414388,2.423826,-0.095401,-2.204722,-0.637939,0.796631,0.303467,-0.067513,0.103394,-0.018222,0.999866,0.012119,-0.000477,-0.011023,0.494241,-0.695790,-0.253915,-0.455115
22801,NaN,-7.111584,13.341530,-1.883353,6.992583,-6.093281,-21.898640,2.176866,-0.337795,-2.870322,-0.669922,0.785889,0.292725,-0.069159,0.134612,-0.017491,0.999836,0.010884,-0.001689,-0.014351,0.494566,-0.687373,-0.269920,-0.458330
22802,NaN,-4.107609,13.469502,0.233792,9.601579,-4.309017,-19.170729,1.768157,-0.721696,-3.506793,-0.692627,0.758057,0.291016,-0.038717,0.135361,0.003390,0.999801,0.008840,-0.003608,-0.017533,0.491544,-0.679787,-0.287743,-0.462037
22803,NaN,-2.223018,9.313411,1.115134,7.477469,-2.064804,-15.534309,1.265809,-0.601934,-3.916708,-0.728516,0.739014,0.286865,-0.020436,0.093473,0.011679,0.999784,0.006329,-0.003009,-0.019582,0.485585,-0.672219,-0.305707,-0.467839
22804,NaN,0.548425,6.793616,-0.154898,6.083878,-2.468977,-11.646085,0.624248,-0.698633,-4.248906,-0.761475,0.700439,0.291504,0.006931,0.067804,-0.001315,0.999763,0.003121,-0.003493,-0.021243,0.476571,-0.665686,-0.323060,-0.474735
22805,NaN,3.799133,5.219738,-1.268021,5.458346,-2.994032,-7.686243,0.034629,-0.807255,-4.471918,-0.783447,0.651123,0.302734,0.039196,0.051332,-0.012515,0.999742,0.000173,-0.004036,-0.022358,0.464396,-0.660029,-0.340186,-0.482671
22806,NaN,5.452386,1.846384,-1.948706,2.585651,-2.391738,-4.860652,-0.476891,-0.839432,-4.538796,-0.807617,0.601807,0.312012,0.055005,0.017173,-0.019299,0.999731,-0.002384,-0.004197,-0.022692,0.450327,-0.655267,-0.355861,-0.491115
22807,NaN,8.475053,-3.587957,-2.813527,-2.116481,-1.099213,-0.489983,-0.702179,-0.891641,-4.421901,-0.830078,0.565430,0.325195,0.084052,-0.037841,-0.027629,0.999739,-0.003511,-0.004458,-0.022108,0.435209,-0.650892,-0.370847,-0.499405
22808,NaN,11.549576,-8.426114,-2.080439,-6.039519,1.676195,3.202779,-0.687243,-0.905306,-4.214529,-0.845459,0.511963,0.336670,0.113777,-0.086741,-0.019992,0.999762,-0.003436,-0.004526,-0.021071,0.420677,-0.646682,-0.384718,-0.506780
22809,NaN,15.748014,-13.277595,-1.261813,-10.001312,4.790078,7.590083,-0.632786,-0.864697,-3.952024,-0.854736,0.471191,0.343750,0.154867,-0.135891,-0.011518,0.999790,-0.003164,-0.004323,-0.019759,0.406641,-0.642382,-0.397875,-0.513502
22810,NaN,17.994937,-18.893672,-0.649658,-15.281146,7.929540,9.802069,-0.511650,-0.712390,-3.682194,-0.870850,0.434814,0.354980,0.176451,-0.192222,-0.005375,0.999821,-0.002558,-0.003562,-0.018410,0.394064,-0.637814,-0.409756,-0.519621
22811,NaN,20.054878,-20.904995,-3.044702,-18.392402,7.009983,11.657625,-0.160877,-0.741272,-3.626922,-0.878174,0.398193,0.359619,0.196824,-0.212666,-0.029543,0.999828,-0.000804,-0.003706,-0.018134,0.382405,-0.632479,-0.422427,-0.524683
22812,NaN,21.226909,-20.948179,-4.734713,-19.588836,5.928832,12.387950,0.033558,-0.738572,-3.404422,-0.887695,0.359619,0.360107,0.208836,-0.213048,-0.046607,0.999848,0.000168,-0.003693,-0.017021,0.371973,-0.627069,-0.434620,-0.528702
22813,NaN,19.708742,-20.602983,-4.674487,-19.965499,5.929187,10.210326,-0.240588,-0.670833,-3.219241,-0.886475,0.327637,0.364990,0.193892,-0.209223,-0.045841,0.999864,-0.001203,-0.003354,-0.016095,0.361159,-0.622255,-0.445274,-0.533004
22814,NaN,18.306997,-19.182269,-3.413620,-18.762940,6.671634,8.023937,-0.712125,-0.549893,-2.903867,-0.895752,0.286865,0.367676,0.180350,-0.194573,-0.032948,0.999884,-0.003560,-0.002749,-0.014519,0.349949,-0.618473,-0.453344,-0.538057
22815,NaN,17.607699,-18.848758,-1.778259,-18.267122,8.253337,6.515932,-1.125577,-0.346712,-2.424202,-0.899414,0.265381,0.372314,0.173804,-0.190698,-0.016411,0.999909,-0.005628,-0.001734,-0.012121,0.339176,-0.615954,-0.458282,-0.543634
22816,NaN,16.757827,-17.682436,-0.140656,-16.848226,9.473926,5.015354,-1.252209,-0.130676,-1.972792,-0.900635,0.241943,0.370605,0.165824,-0.178470,-0.000184,0.999932,-0.006261,-0.000653,-0.009864,0.329645,-0.613874,-0.461136,-0.549405
22817,NaN,17.201105,-15.353301,0.470289,-14.641648,9.534299,5.238219,-1.238330,-0.030497,-1.469735,-0.910889,0.224609,0.372803,0.170876,-0.154758,0.005685,0.999954,-0.006192,-0.000152,-0.007349,0.321859,-0.612769,-0.462092,-0.554430
22818,NaN,17.669211,-13.879658,-0.997611,-13.975000,7.971488,5.903215,-1.301061,0.008159,-0.885867,-0.916992,0.211914,0.366455,0.176074,-0.139638,-0.009077,0.999969,-0.006505,0.000041,-0.004429,0.315437,-0.612778,-0.461164,-0.558865
22819,NaN,17.669651,-12.120630,-2.660721,-13.052136,6.004567,6.305279,-1.412338,-0.054231,-0.368489,-0.916504,0.198975,0.371094,0.176480,-0.121715,-0.025701,0.999973,-0.007062,-0.000271,-0.001842,0.310156,-0.614515,-0.458172,-0.562364
22820,NaN,16.168445,-11.153354,-3.869099,-12.577567,4.421996,5.121602,-1.572381,-0.150294,0.019541,-0.911865,0.188232,0.379883,0.161724,-0.111817,-0.037691,0.999969,-0.007862,-0.000751,0.000098,0.305036,-0.617406,-0.453901,-0.565452
22821,NaN,14.995635,-10.080399,-4.170050,-11.607370,3.655477,4.179324,-1.538986,-0.169681,0.411361,-0.916016,0.184082,0.373535,0.150199,-0.100811,-0.040797,0.999968,-0.007695,-0.000848,0.002057,0.301302,-0.621408,-0.448235,-0.567587
22822,NaN,13.852483,-10.924347,-2.266925,-11.373876,5.595813,2.664875,-1.392520,-0.145361,0.845694,-0.913818,0.186035,0.371338,0.139002,-0.108810,-0.021810,0.999967,-0.006963,-0.000727,0.004228,0.299050,-0.625797,-0.441851,-0.568960
22823,NaN,12.915424,-11.897773,-0.636934,-11.285094,7.363310,1.465295,-1.179307,-0.156189,1.298510,-0.912109,0.196777,0.375488,0.129928,-0.118170,-0.005570,0.999961,-0.005896,-0.000781,0.006492,0.298972,-0.631138,-0.434325,-0.568896
22824,NaN,11.467334,-11.346078,0.811160,-9.876039,8.150839,0.031664,-0.783832,-0.155826,1.732677,-0.910400,0.209717,0.370850,0.115644,-0.112429,0.008643,0.999954,-0.003919,-0.000779,0.008663,0.301086,-0.636491,-0.426832,-0.567487
22825,NaN,14.920959,-20.033311,-4.860060,-19.973299,7.989247,3.781919,-0.704942,-0.682195,1.331794,-0.914551,0.207520,0.377441,0.150703,-0.199501,-0.047384,0.999966,-0.003525,-0.003411,0.006659,0.301474,-0.642602,-0.421242,-0.564563
22826,NaN,5.193886,-0.133010,-4.229653,-2.099066,-2.512003,-3.967412,-1.420903,-0.535223,-0.330289,-0.912109,0.196777,0.379639,0.052049,-0.001716,-0.042146,0.999970,-0.007104,-0.002676,-0.001651,0.294851,-0.645544,-0.419077,-0.566313
22827,NaN,15.045516,6.875623,12.710552,12.395923,10.613702,3.182835,-2.331268,-0.604628,-0.193190,-0.916260,0.190430,0.381836,0.150139,0.070090,0.126748,0.999927,-0.011656,-0.003023,-0.000966,0.285820,-0.650569,-0.413580,-0.569226
22828,NaN,0.241594,10.479155,15.995982,17.209932,8.143669,-11.608085,-2.213783,-0.516033,0.990651,-0.911865,0.188232,0.381836,0.001480,0.106562,0.158791,0.999923,-0.011069,-0.002580,0.004953,0.280362,-0.657205,-0.404753,-0.570661
22829,NaN,7.041757,2.681025,7.122928,6.272776,5.922121,-4.060844,-2.859617,-0.420152,1.193314,-0.907715,0.194580,0.390381,0.070103,0.028245,0.070980,0.999878,-0.014298,-0.002101,0.005966,0.273823,-0.664946,-0.392890,-0.573153
22830,NaN,14.246535,-5.692645,0.569944,-3.845346,6.548372,3.529802,-2.207440,-0.314976,1.053395,-0.910156,0.198975,0.388184,0.142752,-0.056106,0.006546,0.999924,-0.011037,-0.001575,0.005267,0.268876,-0.670894,-0.383453,-0.574953
22831,NaN,12.847413,3.953903,4.337702,6.397696,3.742739,2.210447,-2.627914,0.046357,1.715360,-0.910400,0.205322,0.390381,0.128135,0.041204,0.042813,0.999877,-0.013139,0.000232,0.008576,0.265398,-0.677664,-0.369723,-0.577616
22832,NaN,17.224821,5.537135,4.895654,8.510747,3.761064,6.457623,-2.913493,-0.204992,1.863165,-0.906250,0.216064,0.394531,0.171668,0.057679,0.048304,0.999850,-0.014567,-0.001025,0.009315,0.260501,-0.685468,-0.355202,-0.579745
22833,NaN,15.179520,9.787375,-5.674635,5.419806,-7.647046,6.635932,-1.677429,-0.289526,1.351517,-0.904541,0.222412,0.396484,0.151214,0.098418,-0.057351,0.999941,-0.008387,-0.001448,0.006757,0.258482,-0.690958,-0.345788,-0.579823
22834,NaN,11.856284,6.286590,-11.141977,-1.044092,-10.305597,4.220835,-1.612214,-0.112675,1.185517,-0.902588,0.229004,0.402832,0.118254,0.062667,-0.111859,0.999950,-0.008061,-0.000563,0.005927,0.256154,-0.695387,-0.337136,-0.580656
22835,NaN,12.903760,2.366861,-4.606834,0.212632,-2.751978,3.814955,-1.441978,-0.788674,1.008765,-0.902588,0.230957,0.413574,0.129098,0.023989,-0.045732,0.999954,-0.007210,-0.003943,0.005044,0.252989,-0.701307,-0.330208,-0.578902
22836,NaN,15.781941,2.129929,-1.492772,2.504110,0.175115,5.983839,-1.445014,-0.834065,1.182779,-0.905273,0.241699,0.415527,0.157751,0.022127,-0.014428,0.999948,-0.007225,-0.004170,0.005914,0.249969,-0.707468,-0.322904,-0.576834
22837,NaN,12.011560,0.830900,-3.027347,0.212241,-0.751827,2.577686,-1.475717,-0.494749,1.260458,-0.898682,0.243896,0.417725,0.120135,0.008844,-0.030040,0.999950,-0.007378,-0.002474,0.006302,0.247809,-0.712845,-0.314584,-0.575743
22838,NaN,8.143902,3.504196,-8.789374,-2.163912,-7.341227,0.050339,-1.494875,-0.266799,1.187800,-0.896729,0.248047,0.426025,0.081349,0.034868,-0.088046,0.999954,-0.007474,-0.001334,0.005939,0.245483,-0.717303,-0.306351,-0.575641
22839,NaN,6.553734,5.914932,-9.760265,-1.400168,-9.951901,-1.315724,-1.638319,-0.156773,1.175640,-0.898926,0.246094,0.426270,0.065268,0.058732,-0.098034,0.999949,-0.008191,-0.000784,0.005878,0.242935,-0.721645,-0.297407,-0.575986
22840,NaN,14.317839,1.690831,-4.764479,0.233123,-2.390846,5.180265,-1.699829,-0.092711,1.124229,-0.900879,0.243896,0.434814,0.143104,0.017307,-0.047724,0.999948,-0.008499,-0.000464,0.005621,0.239903,-0.725614,-0.288540,-0.576780
22841,NaN,29.837672,-5.203065,3.096336,3.690575,9.895050,18.742476,-1.263122,0.577685,1.270448,-0.901123,0.248047,0.419678,0.298787,-0.049940,0.030421,0.999956,-0.006316,0.002888,0.006352,0.239950,-0.727394,-0.279415,-0.579008
22842,NaN,24.460150,0.219309,7.441526,9.742794,7.750172,12.519209,-0.484604,0.931880,1.741237,-0.905762,0.260986,0.415283,0.244912,0.004503,0.073266,0.999948,-0.002423,0.004659,0.008706,0.244531,-0.727675,-0.270534,-0.580952
22843,NaN,15.438457,2.022376,3.489645,6.690360,2.394326,4.474058,-0.191377,0.604583,1.956725,-0.897705,0.271729,0.410889,0.154281,0.021767,0.034410,0.999947,-0.000957,0.003023,0.009783,0.250514,-0.728826,-0.261944,-0.580896
22844,NaN,14.699407,-1.122661,0.455133,2.429074,2.344200,4.544758,-0.332023,0.206812,2.102768,-0.893799,0.284668,0.414795,0.147106,-0.009673,0.004416,0.999943,-0.001660,0.001034,0.010514,0.255682,-0.731356,-0.253031,-0.579414
22845,NaN,13.368909,-0.823710,-0.445116,1.919884,1.183550,3.397528,0.135768,-0.021707,2.280633,-0.883545,0.303955,0.414551,0.133772,-0.006709,-0.004442,0.999935,0.000679,-0.000109,0.011403,0.262937,-0.734112,-0.244950,-0.576144
22846,NaN,10.873785,1.407631,-2.760176,1.383532,-2.362508,1.157202,0.331425,-0.011660,2.176986,-0.875488,0.318848,0.418701,0.108577,0.015304,-0.027571,0.999939,0.001657,-0.000058,0.010885,0.270409,-0.736334,-0.237902,-0.572795
22847,NaN,11.979880,-3.488403,-6.640944,-4.184004,-1.500676,3.604583,0.515903,-0.036025,2.141592,-0.863525,0.340332,0.414307,0.120174,-0.033427,-0.066475,0.999939,0.002579,-0.000180,0.010708,0.278565,-0.738261,-0.231396,-0.569059
22848,NaN,15.270189,-2.975561,-4.739073,-1.438245,-0.765116,6.368282,0.949396,-0.304817,2.303405,-0.855469,0.357422,0.422607,0.153101,-0.027769,-0.047293,0.999921,0.004747,-0.001524,0.011517,0.288263,-0.740414,-0.225988,-0.563579
22849,NaN,16.609408,-0.233332,-1.747180,3.148688,-0.987627,6.560309,1.161232,-0.493925,2.374592,-0.841309,0.383057,0.424316,0.166148,-0.000261,-0.017067,0.999910,0.005806,-0.002470,0.011873,0.298836,-0.742778,-0.221024,-0.556890
22850,NaN,17.686991,1.278063,-1.787326,4.798875,-2.356507,7.188912,1.340806,-0.767736,2.559726,-0.827148,0.408691,0.437012,0.176753,0.015160,-0.017098,0.999888,0.006704,-0.003839,0.012798,0.310075,-0.745659,-0.216360,-0.548666
22851,NaN,20.110436,6.441833,0.502384,11.006188,-4.703418,7.590797,1.351583,-1.108748,2.940272,-0.810791,0.434326,0.438721,0.200095,0.067324,0.006583,0.999854,0.006758,-0.005543,0.014701,0.322084,-0.749686,-0.210680,-0.538375
22852,NaN,14.585237,5.325404,-0.068671,8.511424,-4.330357,2.429619,1.096513,-1.033223,3.133209,-0.786133,0.462158,0.455566,0.144994,0.055530,0.000364,0.999849,0.005482,-0.005166,0.015665,0.333505,-0.753889,-0.203505,-0.528215
22853,NaN,12.472715,-0.987419,-2.155931,2.594724,-1.527617,2.520581,0.969715,-1.143761,3.141910,-0.763184,0.485596,0.457520,0.124981,-0.007810,-0.020886,0.999849,0.004848,-0.005719,0.015709,0.344354,-0.758350,-0.196042,-0.517584
22854,NaN,12.058162,-2.420776,-1.843126,2.080281,-0.480472,2.438143,1.055525,-1.279512,3.121870,-0.742676,0.511230,0.472168,0.121054,-0.022226,-0.017779,0.999844,0.005277,-0.006397,0.015609,0.355140,-0.762786,-0.189094,-0.506238
22855,NaN,12.155962,-0.715601,-1.310901,3.941627,-1.413938,1.695898,1.214983,-1.426129,3.040705,-0.715576,0.536865,0.476318,0.121738,-0.005230,-0.012277,0.999841,0.006075,-0.007130,0.015203,0.366165,-0.766957,-0.183033,-0.494165
22856,NaN,14.276291,2.814408,-1.364944,7.517415,-4.091736,2.032951,1.350743,-1.590483,3.058227,-0.684326,0.566895,0.484619,0.142411,0.030410,-0.012316,0.999829,0.006753,-0.007952,0.015290,0.377395,-0.771082,-0.177509,-0.481141
22857,NaN,15.265232,5.040898,-1.339307,9.849333,-5.697326,1.621157,1.339276,-1.600666,3.120643,-0.653076,0.592529,0.492920,0.151939,0.052866,-0.011827,0.999824,0.006696,-0.008003,0.015602,0.388654,-0.774990,-0.171681,-0.467829
22858,NaN,14.502990,4.666830,-2.458255,8.985014,-6.315190,1.028022,1.260959,-1.450341,3.076244,-0.621338,0.609619,0.510010,0.144459,0.049043,-0.023229,0.999836,0.006304,-0.007251,0.015380,0.399439,-0.778446,-0.165485,-0.455067
22859,NaN,14.381340,4.656651,-3.207624,8.882489,-6.953730,0.747458,1.382600,-1.477088,3.047781,-0.596436,0.637451,0.507568,0.143309,0.048968,-0.030684,0.999833,0.006913,-0.007385,0.015238,0.410496,-0.781375,-0.159740,-0.442074
22860,NaN,12.821127,8.324801,-4.666132,9.787253,-10.214620,-2.375865,0.844945,-1.398913,2.847580,-0.566895,0.652344,0.518311,0.127327,0.085259,-0.045411,0.999865,0.004225,-0.006994,0.014237,0.418930,-0.784902,-0.153317,-0.430025
22861,NaN,9.002959,7.379118,-2.086455,8.620855,-7.155095,-6.026731,0.997308,-1.256078,2.488937,-0.543945,0.671631,0.522461,0.089228,0.075006,-0.019930,0.999890,0.004986,-0.006280,0.012444,0.427153,-0.787276,-0.148416,-0.419177
22862,NaN,4.609890,6.603035,-4.086972,4.597716,-7.700697,-8.760185,2.275711,-1.167592,2.031319,-0.512451,0.692871,0.513672,0.045657,0.066953,-0.039844,0.999867,0.011378,-0.005838,0.010156,0.439456,-0.786265,-0.147648,-0.408493
22863,NaN,-2.588938,8.383905,-3.672698,1.507403,-7.353757,-15.654405,2.911992,-0.775777,1.615479,-0.502441,0.716553,0.494141,-0.026429,0.084151,-0.035605,0.999854,0.014559,-0.003879,0.008077,0.453479,-0.782482,-0.149078,-0.399819
22864,NaN,-9.646010,10.585997,-1.372643,-0.436219,-5.476153,-23.109340,3.984250,-0.295447,0.805026,-0.494629,0.744385,0.465820,-0.096867,0.105718,-0.011762,0.999792,0.019920,-0.001477,0.004025,0.470372,-0.774476,-0.154516,-0.393779
22865,NaN,-14.237138,10.791956,0.497469,-2.191402,-2.976628,-27.297572,5.080685,0.080726,-0.147986,-0.495117,0.761719,0.431152,-0.142289,0.107851,0.007773,0.999677,0.025401,0.000404,-0.000740,0.489531,-0.761991,-0.165014,-0.390512
22866,NaN,-13.207838,6.797527,-0.966968,-4.417430,-2.175606,-23.860034,5.353849,-0.076201,-0.967039,-0.497559,0.772461,0.390381,-0.131744,0.068840,-0.007885,0.999630,0.026766,-0.000381,-0.004835,0.507805,-0.747957,-0.179260,-0.388020
22867,NaN,-7.193203,7.256915,-0.749945,0.117759,-2.700183,-19.694367,5.206986,-0.246632,-1.884374,-0.517334,0.789795,0.349365,-0.071235,0.073406,-0.005684,0.999616,0.026032,-0.001233,-0.009421,0.523057,-0.733257,-0.197112,-0.387160
22868,NaN,-3.649622,15.467303,0.981103,9.094027,-4.168247,-22.197525,4.826421,-0.267005,-2.714223,-0.531982,0.781250,0.308594,-0.034412,0.154853,0.013500,0.999616,0.024129,-0.001335,-0.013569,0.535042,-0.718198,-0.217011,-0.388366
22869,NaN,-2.371484,17.014318,3.482479,12.316786,-1.857909,-22.142418,4.071063,-0.379258,-3.096027,-0.555664,0.779297,0.287109,-0.021155,0.169729,0.038241,0.999671,0.020353,-0.001896,-0.015478,0.542888,-0.704468,-0.237155,-0.390839
22870,NaN,-1.018327,14.976254,4.545708,12.261892,0.148824,-19.589008,2.940550,-0.530946,-3.386151,-0.578857,0.768555,0.267822,-0.007778,0.149218,0.047631,0.999745,0.014702,-0.002655,-0.016929,0.545870,-0.693331,-0.256194,-0.394565
22871,NaN,0.428128,12.216815,3.168854,10.808706,-0.225913,-16.337791,1.793446,-0.632824,-3.615779,-0.601807,0.749512,0.259521,0.006383,0.121775,0.032800,0.999791,0.008967,-0.003164,-0.018078,0.543837,-0.684881,-0.274195,-0.399996
22872,NaN,1.591190,9.304077,0.796170,8.657935,-1.684706,-13.265573,0.847119,-0.834327,-3.803054,-0.629150,0.728027,0.259521,0.017642,0.092681,0.008426,0.999802,0.004235,-0.004171,-0.019014,0.537891,-0.678899,-0.291112,-0.406230
22873,NaN,3.142134,8.063914,-1.695042,7.917796,-3.770581,-10.736075,0.116838,-1.020771,-4.080455,-0.658447,0.704590,0.257568,0.033144,0.079984,-0.016737,0.999779,0.000584,-0.005103,-0.020401,0.528178,-0.674497,-0.308188,-0.413644
22874,NaN,5.276656,6.359898,-3.899787,6.955034,-5.442738,-7.469753,-0.451276,-1.150793,-4.474534,-0.674805,0.678711,0.277344,0.054394,0.062306,-0.038830,0.999731,-0.002256,-0.005753,-0.022371,0.515498,-0.670996,-0.325287,-0.422155
22875,NaN,9.123284,3.708270,-5.657210,5.709033,-6.299116,-2.283261,-0.626508,-1.186543,-4.929171,-0.699219,0.642334,0.284180,0.092441,0.034638,-0.056137,0.999674,-0.003132,-0.005932,-0.024643,0.500629,-0.666786,-0.343797,-0.431938
22876,NaN,11.934015,2.047416,-6.721900,4.669574,-6.560543,1.452678,-0.530238,-1.095815,-5.393284,-0.734619,0.605957,0.288818,0.120197,0.017063,-0.066610,0.999618,-0.002651,-0.005478,-0.026963,0.485151,-0.660958,-0.363230,-0.442523
22877,NaN,13.591619,1.005200,-6.860965,3.655552,-5.990415,3.733847,-0.390267,-1.129982,-5.793577,-0.765625,0.571777,0.295654,0.136513,0.005970,-0.067854,0.999563,-0.001951,-0.005649,-0.028964,0.468454,-0.653494,-0.384460,-0.453528
22878,NaN,16.463789,0.363366,-5.738474,3.394948,-4.094971,6.792587,-0.280810,-1.292156,-6.014397,-0.794678,0.535400,0.304443,0.165012,-0.001405,-0.056320,0.999526,-0.001404,-0.006460,-0.030067,0.451206,-0.645215,-0.406305,-0.463710
22879,NaN,18.656273,0.523736,-3.887739,3.537781,-1.605129,8.848382,-0.338102,-1.333030,-6.138388,-0.821045,0.490479,0.322266,0.186858,-0.000560,-0.037635,0.999505,-0.001690,-0.006664,-0.030687,0.432586,-0.636170,-0.428497,-0.473865
22880,NaN,21.941940,-0.605760,-1.778873,2.436894,1.740034,12.001496,-0.258481,-1.407765,-6.037153,-0.849854,0.451904,0.333252,0.219221,-0.012699,-0.016231,0.999519,-0.001292,-0.007038,-0.030181,0.414250,-0.626829,-0.449913,-0.482763
22881,NaN,25.694038,-2.886978,1.225386,0.107109,6.437891,15.254649,0.150232,-1.199351,-5.715808,-0.874268,0.411133,0.340332,0.255896,-0.036204,0.013765,0.999573,0.000751,-0.005996,-0.028575,0.397682,-0.616149,-0.470833,-0.490435
22882,NaN,24.987240,-5.393861,2.063815,-3.517430,8.238396,14.214506,0.656063,-0.963167,-5.389785,-0.898926,0.376953,0.342773,0.248194,-0.060713,0.021644,0.999620,0.003280,-0.004815,-0.026946,0.384080,-0.604290,-0.490770,-0.496448
22883,NaN,25.046345,-7.335297,2.602612,-6.561121,9.564253,13.708186,1.562764,-0.815561,-4.866725,-0.919189,0.344727,0.345215,0.248469,-0.079621,0.026436,0.999665,0.007813,-0.004077,-0.024331,0.374283,-0.591002,-0.511053,-0.499454
22884,NaN,24.676730,-6.507045,1.086089,-7.188638,8.097389,13.319760,2.154797,-0.812392,-4.354337,-0.933594,0.321289,0.345459,0.245226,-0.070540,0.011119,0.999697,0.010773,-0.004062,-0.021769,0.367599,-0.577699,-0.530655,-0.499540
22885,NaN,24.156207,-4.707149,-0.463975,-6.685563,6.367783,13.003269,2.170170,-0.687969,-4.054818,-0.951904,0.293457,0.343750,0.240558,-0.051907,-0.004357,0.999730,0.010850,-0.003440,-0.020272,0.361588,-0.564352,-0.549129,-0.499217
22886,NaN,26.288330,-8.628963,-2.552363,-12.014960,5.557263,14.615165,2.126854,-0.759140,-3.910644,-0.966309,0.271973,0.352539,0.261230,-0.091137,-0.025482,0.999745,0.010633,-0.003795,-0.019552,0.355663,-0.551527,-0.566696,-0.498174
22887,NaN,24.688221,-13.410003,-3.594970,-17.437322,4.609241,12.025187,1.941938,-0.893721,-3.344473,-0.976318,0.252686,0.354980,0.244759,-0.137854,-0.036179,0.999803,0.009709,-0.004468,-0.016721,0.349930,-0.540586,-0.582381,-0.496133
22888,NaN,20.561210,-17.918204,-4.586666,-21.826318,2.659094,6.961026,1.829101,-0.735199,-2.971524,-0.986572,0.237793,0.361572,0.203095,-0.181787,-0.046772,0.999841,0.009145,-0.003676,-0.014857,0.345317,-0.530477,-0.596136,-0.493935
22889,NaN,16.934160,-19.753436,-4.267598,-23.227918,1.679639,2.547709,1.741815,-0.635488,-2.750862,-0.994385,0.216309,0.366211,0.166745,-0.199461,-0.043875,0.999862,0.008709,-0.003177,-0.013754,0.341141,-0.520736,-0.608799,-0.491752
22890,NaN,15.716828,-17.817137,-4.517203,-21.360439,0.693538,1.505402,1.592434,-0.572524,-2.465220,-1.002441,0.194824,0.372803,0.155090,-0.179727,-0.046153,0.999888,0.007962,-0.002863,-0.012326,0.337456,-0.511871,-0.620034,-0.489560
22891,NaN,14.226636,-14.193946,-4.316132,-17.663822,0.139342,0.696893,1.591844,-0.309294,-2.021673,-1.010498,0.184082,0.368652,0.140892,-0.143020,-0.044078,0.999916,0.007959,-0.001546,-0.010108,0.335624,-0.503714,-0.629537,-0.487147
22892,NaN,12.451786,-11.919054,-3.421800,-15.056832,0.227208,-0.754406,1.902766,-0.108668,-1.447441,-1.017090,0.184326,0.366455,0.123671,-0.119755,-0.035288,0.999928,0.009514,-0.000543,-0.007237,0.336535,-0.496200,-0.637947,-0.483273
22893,NaN,10.720985,-9.749289,-1.438963,-12.443312,1.433356,-2.385419,2.116736,-0.068748,-0.735979,-1.021240,0.184326,0.364258,0.106856,-0.097727,-0.015386,0.999937,0.010583,-0.000344,-0.003680,0.339859,-0.490583,-0.644870,-0.477458
22894,NaN,9.141444,-11.371644,0.008998,-13.509355,2.007313,-4.680082,2.131636,-0.079685,0.305036,-1.026367,0.203613,0.370361,0.091588,-0.113569,-0.001085,0.999942,0.010658,-0.000398,0.001525,0.345550,-0.488112,-0.649302,-0.469839
22895,NaN,9.410273,-13.521133,0.340559,-15.605508,2.003803,-4.920737,2.480218,-0.131896,1.232980,-1.024902,0.227051,0.361572,0.094932,-0.134657,0.001796,0.999904,0.012401,-0.000659,0.006165,0.354181,-0.488290,-0.652146,-0.459167
22896,NaN,9.669951,-14.002907,0.410407,-16.058141,1.846696,-4.477688,2.809488,-0.014782,1.926114,-1.024170,0.263428,0.358887,0.098042,-0.139129,0.002153,0.999855,0.014047,-0.000074,0.009630,0.365372,-0.489566,-0.653818,-0.446488
22897,NaN,17.347917,-19.670530,-3.855403,-23.060311,-0.680919,3.243058,2.561546,-0.425247,2.150148,-1.016357,0.287109,0.358398,0.175662,-0.194313,-0.040681,0.999858,0.012807,-0.002126,0.010750,0.375202,-0.493034,-0.654761,-0.432930
22898,NaN,14.474129,-19.471860,-15.152948,-21.101107,-12.432622,4.966123,2.819634,-0.821283,-0.548551,-1.018555,0.289307,0.364990,0.144839,-0.192959,-0.153664,0.999888,0.014098,-0.004106,-0.002743,0.378245,-0.487679,-0.663677,-0.422650
22899,NaN,17.215012,14.674524,5.435737,9.595970,13.250756,6.727410,1.344627,-0.312435,0.183697,-1.019043,0.306396,0.360352,0.171929,0.146532,0.055612,0.999976,0.006723,-0.001562,0.000918,0.381112,-0.486733,-0.666397,-0.416845
22900,NaN,5.469957,18.921161,2.752939,16.824397,7.657332,-2.477863,-0.431989,-0.343295,2.047366,-1.013184,0.319336,0.370850,0.052712,0.189817,0.027211,0.999944,-0.002160,-0.001716,0.010237,0.383172,-0.495073,-0.661123,-0.413518
22901,NaN,8.609236,32.237476,-2.577113,29.866449,5.234636,4.345098,-4.193900,-0.926318,1.967522,-1.006836,0.321289,0.405273,0.083059,0.322572,-0.032145,0.999721,-0.020968,-0.004631,0.009837,0.373908,-0.511602,-0.648972,-0.421060
22902,NaN,14.266177,10.418855,4.283445,7.497615,9.946360,3.424149,-6.545239,-0.773090,2.393011,-1.000244,0.310547,0.435303,0.141233,0.107222,0.039906,0.999386,-0.032719,-0.003865,0.011963,0.359477,-0.532921,-0.630113,-0.435579
22903,NaN,13.764723,-13.364825,7.525671,-15.170971,11.613435,-2.091400,-4.691690,-0.388513,1.850967,-0.991699,0.314697,0.454590,0.138715,-0.130550,0.078612,0.999680,-0.023456,-0.001942,0.009254,0.349833,-0.547956,-0.615328,-0.445796
22904,NaN,13.569515,-9.365460,8.141993,-10.732014,12.586076,-1.778946,-1.171014,-0.544600,1.263230,-0.992188,0.325439,0.458740,0.136058,-0.092316,0.082333,0.999959,-0.005855,-0.002723,0.006316,0.347760,-0.555090,-0.610175,-0.445673
22905,NaN,7.441524,-2.202362,10.471440,-2.338106,12.530105,-7.092504,-1.640764,-0.530844,1.740667,-0.977295,0.333984,0.473633,0.074320,-0.020515,0.105084,0.999925,-0.008204,-0.002654,0.008703,0.345686,-0.564495,-0.602378,-0.446081
22906,NaN,13.896179,-0.647402,13.635504,-0.927272,17.854741,-2.081035,-1.938214,-0.517427,1.528606,-0.977783,0.342529,0.482178,0.138646,-0.004089,0.136761,0.999920,-0.009691,-0.002587,0.007643,0.342049,-0.573565,-0.594578,-0.447775
22907,NaN,22.879519,17.192395,-6.849466,13.913911,0.995014,16.097825,-2.719891,-0.368210,1.866983,-0.973633,0.348877,0.501465,0.227311,0.173102,-0.070424,0.999862,-0.013599,-0.001841,0.009334,0.337590,-0.584563,-0.583476,-0.451525
22908,NaN,41.175619,26.255466,0.366163,22.763033,12.955217,31.403342,-3.364758,-0.261257,2.337202,-0.965332,0.355225,0.518555,0.408649,0.267360,-0.000274,0.999789,-0.016823,-0.001306,0.011685,0.332210,-0.597534,-0.569358,-0.456531
22909,NaN,22.810988,0.192973,7.643348,0.405550,15.564580,8.526331,-2.183640,-0.569601,2.908238,-0.948730,0.372314,0.533203,0.227823,0.006083,0.077031,0.999831,-0.010918,-0.002848,0.014540,0.330911,-0.610593,-0.556389,-0.456184
22910,NaN,14.270435,-9.077117,4.068421,-8.382868,10.679576,1.060936,-1.818597,-0.526802,2.924996,-0.936523,0.389404,0.541748,0.143899,-0.088295,0.041873,0.999848,-0.009093,-0.002634,0.014624,0.330526,-0.622855,-0.544089,-0.454721
22911,NaN,11.294536,-5.422233,-2.888146,-5.812450,2.716126,1.328976,-1.716542,-0.194711,2.932042,-0.926270,0.404297,0.547852,0.113754,-0.052803,-0.028314,0.999855,-0.008582,-0.000974,0.014660,0.331593,-0.633953,-0.531129,-0.453929
22912,NaN,-1.558201,-2.352247,-7.554644,-4.083753,-6.853462,-8.635967,-1.586071,0.590818,1.940369,-0.926514,0.410889,0.550049,-0.015572,-0.024271,-0.075310,0.999917,-0.007930,0.002954,0.009702,0.332522,-0.640349,-0.520345,-0.456754
22913,NaN,3.301976,-0.591547,-12.374114,-3.405865,-9.837477,-2.329688,-0.610011,0.679433,1.587947,-0.924805,0.421387,0.545654,0.032647,-0.006033,-0.123834,0.999958,-0.003050,0.003397,0.007940,0.336254,-0.643879,-0.512543,-0.457879
22914,NaN,10.501517,-7.377014,-9.368429,-8.780874,-2.959714,3.094797,-0.163248,0.678244,1.706060,-0.918701,0.438721,0.536865,0.105321,-0.072949,-0.093981,0.999958,-0.000816,0.003391,0.008530,0.341369,-0.646952,-0.505503,-0.457588
22915,NaN,7.235372,-7.068142,-4.407307,-7.358668,0.262170,-1.596056,0.293652,0.531039,1.384756,-0.923828,0.458008,0.534180,0.072723,-0.070114,-0.044369,0.999971,0.001468,0.002655,0.006924,0.347087,-0.648723,-0.500602,-0.456165
22916,NaN,8.476194,-6.246893,-1.714167,-5.712701,2.853519,-1.266975,0.259383,0.367251,1.036633,-0.913086,0.462158,0.523682,0.085052,-0.062006,-0.017378,0.999984,0.001297,0.001836,0.005183,0.351219,-0.650026,-0.497174,-0.454895
22917,NaN,10.105766,-3.352914,0.174317,-2.233727,4.307689,-0.333620,-0.132381,0.309324,0.677114,-0.913330,0.464355,0.525635,0.101173,-0.033186,0.001609,0.999993,-0.000662,0.001547,0.003386,0.353367,-0.651257,-0.493938,-0.454995
22918,NaN,9.743922,-2.038105,-1.996960,-1.485512,1.842460,0.060723,-0.324130,0.238443,0.372238,-0.913086,0.462158,0.525635,0.097453,-0.020232,-0.020053,0.999996,-0.001621,0.001192,0.001861,0.353758,-0.652211,-0.491554,-0.455907
22919,NaN,10.556308,-2.234302,-3.406764,-1.913907,0.853534,1.306764,-0.220139,0.036298,0.241621,-0.909180,0.468750,0.527832,0.105584,-0.022253,-0.034062,0.999999,-0.001101,0.000181,0.001208,0.353955,-0.653131,-0.490011,-0.456098
22920,NaN,10.987286,-2.017231,-3.114563,-1.567797,1.196707,1.615350,-0.025175,-0.044089,0.183155,-0.911133,0.464355,0.527832,0.109898,-0.020076,-0.031119,1.000000,-0.000126,-0.000220,0.000916,0.354195,-0.653730,-0.489421,-0.455686
22921,NaN,11.123910,-1.605778,-2.563651,-0.991724,1.631110,1.556046,0.177319,-0.178353,0.150857,-0.909424,0.475098,0.527588,0.111274,-0.015951,-0.025551,0.999999,0.000887,-0.000892,0.000754,0.354950,-0.654213,-0.489462,-0.454359
22922,NaN,11.105768,-1.190734,-2.049114,-0.437185,1.999867,1.357096,0.321890,-0.322534,0.168055,-0.902832,0.477295,0.534180,0.111100,-0.011781,-0.020331,0.999997,0.001609,-0.001613,0.000840,0.355607,-0.654791,-0.490202,-0.452211
22923,NaN,11.162131,-0.960715,-2.137216,-0.188725,1.904391,1.431033,0.457251,-0.480213,0.169217,-0.903076,0.479248,0.531982,0.111680,-0.009464,-0.021126,0.999994,0.002286,-0.002401,0.000846,0.356573,-0.655491,-0.491353,-0.449176
22924,NaN,11.377685,-0.435984,-2.065538,0.403692,1.948947,1.586718,0.535209,-0.588130,0.186214,-0.894531,0.485840,0.533936,0.113841,-0.004199,-0.020332,0.999992,0.002676,-0.002941,0.000931,0.357310,-0.656316,-0.492977,-0.445592
22925,NaN,11.510191,-0.223805,-2.327134,0.618925,1.752186,1.784569,0.552132,-0.631418,0.208047,-0.896973,0.492188,0.540283,0.115177,-0.002055,-0.022914,0.999991,0.002761,-0.003157,0.001040,0.358287,-0.657252,-0.494475,-0.441752
22926,NaN,11.577473,-0.694183,-2.541558,0.180389,1.759975,1.928209,0.572159,-0.654417,0.233244,-0.886230,0.494385,0.540283,0.115865,-0.006735,-0.025056,0.999990,0.002861,-0.003272,0.001166,0.359073,-0.658249,-0.496127,-0.437758
22927,NaN,11.952483,-0.382811,-2.922032,0.512142,1.517755,2.393054,0.670445,-0.609388,0.262037,-0.882324,0.498535,0.546875,0.119618,-0.003574,-0.028868,0.999989,0.003352,-0.003047,0.001310,0.360593,-0.659022,-0.497657,-0.433590
22928,NaN,11.814577,0.473633,-3.041694,1.366334,1.204573,2.259679,0.652410,-0.494667,0.296442,-0.874023,0.507080,0.548828,0.118213,0.005010,-0.030109,0.999991,0.003262,-0.002473,0.001482,0.362165,-0.659656,-0.498968,-0.429792
22929,NaN,11.728791,0.172605,-3.248899,1.094669,1.095381,2.260049,0.639611,-0.423331,0.347220,-0.869629,0.509277,0.542480,0.117353,0.002033,-0.032234,0.999991,0.003198,-0.002117,0.001736,0.364206,-0.660260,-0.499807,-0.426151
22930,NaN,11.936532,1.152950,-4.111573,1.982230,0.190468,2.707252,0.672944,-0.385593,0.402884,-0.867920,0.517822,0.540039,0.119421,0.011908,-0.040846,0.999990,0.003365,-0.001928,0.002014,0.366332,-0.660863,-0.500595,-0.422452
22931,NaN,10.697471,1.799755,-4.680648,2.415615,-0.884834,1.718342,0.609326,-0.336521,0.472948,-0.863770,0.524170,0.544434,0.107010,0.018393,-0.046571,0.999991,0.003047,-0.001683,0.002365,0.368729,-0.661619,-0.500792,-0.418935
22932,NaN,10.293974,1.816696,-4.965481,2.409964,-1.265927,1.435024,0.505044,-0.326277,0.595683,-0.861816,0.530762,0.546387,0.102966,0.018599,-0.049440,0.999991,0.002525,-0.001631,0.002978,0.370840,-0.662864,-0.500462,-0.415483
22933,NaN,10.031884,0.338631,-4.721687,1.082164,-0.791829,1.198605,0.622106,-0.363177,0.751387,-0.851318,0.541260,0.546387,0.100390,0.003910,-0.047023,0.999986,0.003111,-0.001816,0.003757,0.373754,-0.664315,-0.499810,-0.411319
22934,NaN,9.543375,1.704575,-4.253960,2.528615,-0.828819,0.434047,0.774716,-0.318399,0.912409,-0.841309,0.558594,0.543945,0.095422,0.017645,-0.042320,0.999981,0.003874,-0.001592,0.004562,0.377414,-0.665797,-0.498944,-0.406606
22935,NaN,10.032386,2.212944,-4.175052,3.254644,-0.688048,0.766017,0.748254,-0.265509,1.098328,-0.834961,0.560547,0.543945,0.100255,0.022836,-0.041533,0.999977,0.003741,-0.001328,0.005492,0.381650,-0.667624,-0.497192,-0.401772
22936,NaN,11.651142,2.291629,-4.458871,3.748594,-0.386155,2.298375,0.815466,-0.233623,1.339375,-0.826904,0.579834,0.537354,0.116406,0.023877,-0.044357,0.999969,0.004077,-0.001168,0.006697,0.386483,-0.669853,-0.494775,-0.396390
22937,NaN,12.707472,2.966333,-4.827175,4.773641,-0.498342,3.246372,0.913123,-0.281481,1.605994,-0.810303,0.594971,0.537109,0.126898,0.030902,-0.047954,0.999956,0.004566,-0.001407,0.008030,0.392172,-0.672556,-0.491640,-0.390075
22938,NaN,13.062693,2.917913,-4.184506,5.153968,0.218742,3.227228,1.025980,-0.376215,1.885649,-0.802490,0.618408,0.532471,0.130421,0.030623,-0.041445,0.999941,0.005130,-0.001881,0.009428,0.398365,-0.675880,-0.487994,-0.382560
22939,NaN,13.439182,3.241277,-3.003620,6.003650,1.361801,2.924300,1.155123,-0.492154,2.176024,-0.783691,0.639893,0.530029,0.134100,0.034044,-0.029512,0.999921,0.005775,-0.002461,0.010880,0.405338,-0.679730,-0.483727,-0.373734
22940,NaN,14.125082,2.932861,-2.125525,6.319302,2.481113,3.092140,1.343855,-0.603394,2.461367,-0.759033,0.667725,0.525635,0.140937,0.031204,-0.020624,0.999897,0.006719,-0.003017,0.012306,0.413016,-0.684023,-0.479031,-0.363399
22941,NaN,15.342743,3.881523,-2.068583,7.959760,2.798546,3.734821,1.604542,-0.720097,2.745636,-0.733887,0.691162,0.523193,0.152946,0.041078,-0.019811,0.999867,0.008022,-0.003600,0.013728,0.421838,-0.688434,-0.473939,-0.351415
22942,NaN,16.983743,4.958001,-2.582665,9.901331,2.751826,4.818053,1.856877,-0.843160,3.009566,-0.713379,0.721191,0.520752,0.169169,0.052361,-0.024635,0.999835,0.009284,-0.004216,0.015047,0.431462,-0.693024,-0.468527,-0.337700
22943,NaN,19.265827,5.501853,-3.316187,11.683182,2.866664,6.548129,2.151698,-0.909349,3.215634,-0.682373,0.757568,0.507568,0.191883,0.058454,-0.031672,0.999803,0.010758,-0.004546,0.016077,0.442242,-0.697216,-0.462879,-0.322574
22944,NaN,20.751573,5.933341,-3.578627,13.273372,3.201057,7.279384,2.650161,-1.093502,3.498316,-0.649170,0.793945,0.494141,0.206619,0.063410,-0.033833,0.999744,0.013250,-0.005467,0.017490,0.454490,-0.701044,-0.457242,-0.304804
22945,NaN,22.432508,8.433880,-4.480637,16.963714,2.734935,7.480949,3.140063,-1.038823,3.737157,-0.614014,0.832520,0.474609,0.222913,0.089190,-0.042271,0.999689,0.015699,-0.005194,0.018684,0.468765,-0.703689,-0.451187,-0.285503
22946,NaN,21.442638,9.447125,-5.897756,18.270477,1.135208,5.954017,3.529704,-1.048472,4.033528,-0.578613,0.871094,0.452637,0.212749,0.099781,-0.056129,0.999627,0.017646,-0.005242,0.020165,0.484411,-0.705755,-0.444307,-0.264286
22947,NaN,24.533831,11.033355,-7.393115,22.018048,0.912034,7.290114,3.024673,-0.907887,4.198970,-0.534668,0.905273,0.437500,0.243262,0.116545,-0.071092,0.999655,0.015122,-0.004539,0.020992,0.498506,-0.708554,-0.435640,-0.244256
22948,NaN,22.855722,7.643619,-5.345818,18.880089,2.744510,5.848719,2.361838,-0.880779,4.206049,-0.494873,0.937500,0.424316,0.227104,0.081839,-0.051511,0.999699,0.011808,-0.004403,0.021028,0.509951,-0.712696,-0.425672,-0.225427
22949,NaN,19.553357,-0.249610,-4.893494,11.209901,2.978350,6.671524,3.018427,-1.357712,4.084843,-0.448242,0.960938,0.396484,0.195846,0.002227,-0.047596,0.999655,0.015090,-0.006788,0.020422,0.522267,-0.714795,-0.418018,-0.203878
22950,NaN,17.930425,0.021872,-4.791011,11.243392,2.608003,4.718816,3.459705,-1.658413,4.052850,-0.408447,0.993164,0.372559,0.179628,0.004668,-0.046366,0.999611,0.017296,-0.008291,0.020262,0.535102,-0.715648,-0.411211,-0.180052
22951,NaN,14.995328,-2.489396,-3.313080,7.876790,3.227860,3.207688,3.358326,-1.963474,3.561499,-0.365723,1.008057,0.353271,0.150676,-0.021671,-0.032036,0.999652,0.016790,-0.009816,0.017805,0.546111,-0.715319,-0.406828,-0.156757
22952,NaN,11.566733,-5.178689,-5.328968,4.692174,0.353947,3.103927,3.256220,-2.098990,2.693869,-0.334229,1.031738,0.329346,0.116900,-0.049355,-0.052884,0.999722,0.016280,-0.010494,0.013468,0.555454,-0.713358,-0.405346,-0.135221
22953,NaN,6.661391,-3.301589,-6.680071,3.733365,-2.955571,-1.025784,3.652388,-2.031897,1.926175,-0.311035,1.042480,0.295166,0.067598,-0.031149,-0.066697,0.999735,0.018260,-0.010159,0.009630,0.565516,-0.708127,-0.406727,-0.115414
22954,NaN,-0.856222,4.701893,-10.125278,5.947793,-9.465800,-10.416830,4.192829,-2.117060,0.926774,-0.300537,1.053223,0.262939,-0.007721,0.049092,-0.100323,0.999714,0.020962,-0.010584,0.004633,0.576436,-0.699181,-0.411717,-0.096731
22955,NaN,3.776338,8.545258,-4.111214,9.709802,-1.608651,-12.513114,4.725385,-2.263477,-0.344982,-0.302734,1.063965,0.219971,0.038359,0.086319,-0.038647,0.999655,0.023624,-0.011316,-0.001725,0.587882,-0.685566,-0.421843,-0.080263
22956,NaN,6.439371,15.836523,-5.406993,16.781272,-0.386986,-16.110036,4.659574,-2.612912,-1.041197,-0.311523,1.066162,0.185547,0.065888,0.159214,-0.049513,0.999630,0.023295,-0.013063,-0.005205,0.597714,-0.670476,-0.434787,-0.064502
22957,NaN,3.186951,18.898900,-1.082553,14.816738,2.892854,-21.666865,4.133803,-2.462106,-1.650796,-0.328857,1.072754,0.148926,0.033527,0.188881,-0.006515,0.999677,0.020667,-0.012309,-0.008253,0.605402,-0.654976,-0.449165,-0.052397
22958,NaN,0.429851,16.327559,2.834520,9.456779,5.161394,-22.410243,3.625720,-2.433553,-2.329612,-0.355957,1.053711,0.127686,0.005826,0.162663,0.031363,0.999694,0.018127,-0.012167,-0.011647,0.611021,-0.639214,-0.464955,-0.043312
22959,NaN,3.230269,15.557585,4.955563,9.227250,8.886523,-20.437322,2.838786,-2.736584,-2.802442,-0.384033,1.053711,0.110352,0.033769,0.154381,0.052208,0.999707,0.014193,-0.013682,-0.014011,0.612828,-0.624282,-0.483076,-0.036752
22960,NaN,6.393507,14.058823,6.954536,8.537218,12.409181,-17.557996,1.894429,-2.863050,-3.186185,-0.413818,1.042969,0.121094,0.065140,0.138884,0.071793,0.999726,0.009471,-0.014314,-0.015929,0.611080,-0.611145,-0.501992,-0.032984
22961,NaN,5.879180,10.142180,7.385013,5.153643,11.794156,-14.939933,1.195823,-2.961426,-3.533568,-0.454102,1.028076,0.123291,0.059458,0.099928,0.075328,0.999716,0.005979,-0.014806,-0.017666,0.606426,-0.598747,-0.522233,-0.031978
22962,NaN,6.739433,8.223227,6.702012,4.367697,11.441540,-12.633744,0.657298,-3.051169,-3.869062,-0.487793,1.008789,0.127686,0.067930,0.080698,0.068321,0.999691,0.003286,-0.015254,-0.019343,0.599628,-0.586963,-0.542994,-0.032840
22963,NaN,8.339271,7.119725,6.127190,4.280514,11.793987,-10.393265,0.175829,-3.055429,-4.284574,-0.532471,0.987549,0.155518,0.083942,0.069348,0.062613,0.999653,0.000879,-0.015275,-0.021420,0.590827,-0.574871,-0.564902,-0.036508
22964,NaN,9.087036,6.689371,5.950035,3.978921,12.107239,-9.276460,-0.397494,-3.009315,-4.707908,-0.574463,0.959717,0.185791,0.091505,0.064864,0.060744,0.999608,-0.001987,-0.015045,-0.023536,0.580103,-0.563081,-0.587012,-0.042865
22965,NaN,10.078660,6.302702,6.243431,3.401015,12.877451,-8.120264,-0.922328,-2.878242,-5.144153,-0.625000,0.925293,0.220215,0.101458,0.060714,0.063608,0.999555,-0.004611,-0.014389,-0.025717,0.567596,-0.550751,-0.609700,-0.052673
22966,NaN,11.348092,5.952521,6.887821,2.581807,14.014950,-6.890471,-1.370210,-2.701204,-5.552027,-0.668945,0.888916,0.257080,0.114143,0.056840,0.070021,0.999500,-0.006850,-0.013504,-0.027756,0.553853,-0.538161,-0.631971,-0.065132
22967,NaN,13.172906,5.190772,7.163088,1.612925,14.987495,-4.861799,-1.698512,-2.416312,-5.892040,-0.721436,0.841797,0.296143,0.132319,0.048630,0.072805,0.999457,-0.008491,-0.012079,-0.029455,0.539341,-0.524421,-0.653908,-0.080610
22968,NaN,14.683775,3.743076,6.918210,0.163453,15.005521,-2.585098,-1.741477,-2.069196,-6.083150,-0.769287,0.794678,0.333008,0.147174,0.033567,0.070400,0.999446,-0.008706,-0.010344,-0.030410,0.525271,-0.509784,-0.674357,-0.097228
22969,NaN,15.670538,2.653985,6.417428,-1.117808,14.555016,-0.833425,-1.709514,-1.711276,-6.260296,-0.814453,0.732422,0.363525,0.156890,0.022185,0.065314,0.999437,-0.008546,-0.008555,-0.031296,0.511741,-0.493343,-0.693845,-0.115381
22970,NaN,16.768327,2.448587,5.018409,-1.310704,13.867999,1.060674,-1.527106,-1.348838,-6.438863,-0.868408,0.670410,0.387939,0.168021,0.019468,0.051155,0.999430,-0.007634,-0.006743,-0.032188,0.499302,-0.475422,-0.711886,-0.133751
22971,NaN,17.931766,0.917132,3.874814,-2.916524,12.539578,3.285007,-1.129683,-0.858701,-6.506155,-0.911133,0.601807,0.405762,0.179326,0.003559,0.039487,0.999446,-0.005647,-0.004293,-0.032525,0.488893,-0.454990,-0.728544,-0.152289
22972,NaN,19.008863,-0.421354,2.634961,-4.419153,10.975003,5.298615,-0.785097,-0.301725,-6.576740,-0.949707,0.533203,0.425781,0.189775,-0.010354,0.026669,0.999451,-0.003925,-0.001508,-0.032878,0.480745,-0.432945,-0.743230,-0.170446
22973,NaN,18.288023,-1.309824,2.015196,-5.655330,8.979660,5.270085,-0.383018,0.306984,-6.620872,-0.994385,0.458252,0.426758,0.182345,-0.019103,0.019905,0.999449,-0.001915,0.001535,-0.033098,0.475131,-0.408332,-0.756232,-0.188755
22974,NaN,17.715338,-1.718787,2.402102,-6.958814,7.940084,4.712086,0.033698,0.654521,-6.670160,-1.026123,0.381348,0.419189,0.176526,-0.023087,0.023439,0.999439,0.000168,0.003272,-0.033345,0.471128,-0.382199,-0.767888,-0.205695
22975,NaN,18.928604,-1.738110,2.565142,-8.239174,7.585713,5.754171,0.454461,1.040933,-6.657258,-1.049072,0.297852,0.407471,0.188697,-0.023726,0.024619,0.999430,0.002272,0.005204,-0.033280,0.468876,-0.353846,-0.778273,-0.221900
22976,NaN,20.397985,-2.657765,1.911279,-9.825969,5.968329,7.347091,0.961578,1.486264,-6.598953,-1.072021,0.218506,0.387207,0.203087,-0.033376,0.017452,0.999417,0.004807,0.007430,-0.032988,0.468781,-0.324072,-0.787064,-0.236119
22977,NaN,21.243578,-4.616046,1.110099,-11.798476,3.050455,8.218692,1.614614,1.846190,-6.541847,-1.093018,0.141602,0.364502,0.210861,-0.053153,0.008739,0.999390,0.008071,0.009229,-0.032703,0.470670,-0.291743,-0.794789,-0.248326
22978,NaN,21.243778,-7.435026,-0.690189,-13.170606,-1.579613,8.377494,2.431366,2.023308,-6.584882,-1.101074,0.066650,0.335693,0.209749,-0.081178,-0.009993,0.999333,0.012154,0.010114,-0.032917,0.473783,-0.257162,-0.802110,-0.256937
22979,NaN,20.726372,-9.864673,-3.094895,-13.223546,-6.592785,8.017371,3.198635,2.203244,-6.737923,-1.098633,-0.004150,0.311035,0.203427,-0.105008,-0.034850,0.999244,0.015989,0.011013,-0.033681,0.477748,-0.219160,-0.809030,-0.263053
22980,NaN,21.575304,-10.518899,-4.430079,-13.013417,-9.440109,8.546188,3.785551,2.216924,-6.697264,-1.095947,-0.074707,0.281982,0.211567,-0.111427,-0.048732,0.999199,0.018923,0.011082,-0.033477,0.481688,-0.179953,-0.815393,-0.265948
22981,NaN,22.978690,-10.575973,-6.860108,-11.748167,-12.440397,10.034981,3.898362,1.741911,-6.251062,-1.087158,-0.143311,0.270264,0.225740,-0.111468,-0.072715,0.999284,0.019487,0.008707,-0.031248,0.483676,-0.142334,-0.821359,-0.266772
22982,NaN,20.201375,-11.130979,-6.356722,-10.658052,-13.790704,6.572619,3.713234,1.012180,-5.790424,-1.065918,-0.192627,0.266846,0.198370,-0.115870,-0.066701,0.999396,0.018562,0.005060,-0.028946,0.482477,-0.108153,-0.827480,-0.266075
22983,NaN,18.215702,-15.118034,-3.313493,-13.158489,-16.336891,1.639866,3.770584,0.473540,-5.185345,-1.049072,-0.246338,0.269775,0.178084,-0.155167,-0.036460,0.999483,0.018850,0.002367,-0.025922,0.479371,-0.076705,-0.833655,-0.263324
22984,NaN,17.753100,-19.885930,1.014354,-17.320320,-19.080771,-2.927333,3.920792,0.252639,-4.363422,-1.028809,-0.276367,0.272461,0.173144,-0.202813,0.005972,0.999569,0.019601,0.001263,-0.021814,0.475994,-0.048767,-0.839518,-0.257413
22985,NaN,17.354274,-22.789707,3.878763,-19.399355,-21.115537,-6.177302,3.935951,0.247200,-3.420919,-1.012939,-0.295654,0.277344,0.169647,-0.231522,0.034043,0.999659,0.019678,0.001236,-0.017103,0.473504,-0.024602,-0.844459,-0.249154
22986,NaN,16.986521,-23.357491,5.604062,-19.832420,-21.638757,-7.852402,3.512796,0.249777,-2.373837,-1.001709,-0.310791,0.281738,0.167136,-0.236503,0.051694,0.999775,0.017563,0.001249,-0.011868,0.471943,-0.005956,-0.848339,-0.239906
22987,NaN,16.450565,-24.226599,5.742647,-19.112899,-22.896959,-8.867105,2.725229,0.308912,-1.230533,-0.993164,-0.310791,0.283936,0.163093,-0.244022,0.053857,0.999887,0.013626,0.001545,-0.006152,0.471944,0.006048,-0.850724,-0.231303
22988,NaN,15.473843,-21.884051,5.073426,-17.065216,-21.230913,-8.362482,1.667425,0.297900,-0.045905,-0.982666,-0.304443,0.288330,0.154762,-0.219288,0.048677,0.999964,0.008337,0.001489,-0.000230,0.473108,0.010512,-0.851911,-0.224289
22989,NaN,15.029893,-18.592547,4.850175,-15.860791,-18.335894,-7.105581,0.218492,0.202439,1.128387,-0.989502,-0.293701,0.285889,0.151394,-0.185126,0.048146,0.999983,0.001092,0.001012,0.005642,0.475413,0.006321,-0.851615,-0.220667
22990,NaN,21.094606,-11.391556,-1.608862,-12.628342,-15.295931,3.747062,-0.878382,-0.507112,2.430215,-0.989990,-0.276367,0.287842,0.212349,-0.111409,-0.015058,0.999913,-0.004392,-0.002535,0.012151,0.475938,-0.006685,-0.851849,-0.218615
22991,NaN,7.750743,-4.052732,-0.722280,-4.597672,-5.362918,-4.605415,-2.329268,-0.280092,2.681491,-0.990723,-0.255127,0.285400,0.078052,-0.039563,-0.006649,0.999841,-0.011646,-0.001400,0.013407,0.477755,-0.024162,-0.849626,-0.222040
22992,NaN,2.475436,21.301478,-14.261048,15.786416,12.757317,6.037769,-3.234615,-1.104496,2.474155,-0.984619,-0.244385,0.289551,0.022936,0.210964,-0.145904,0.999777,-0.016172,-0.005522,0.012370,0.475329,-0.043629,-0.848179,-0.229676
22993,NaN,6.051397,32.437679,-8.177971,13.168559,24.216959,10.079730,-3.519833,-1.138491,1.906042,-0.982666,-0.237793,0.289307,0.057914,0.323435,-0.087143,0.999784,-0.017598,-0.005692,0.009530,0.472013,-0.061549,-0.846141,-0.239710
22994,NaN,20.000603,27.096878,5.073474,-5.149166,23.695119,14.100556,-4.446188,0.262900,2.036050,-0.978760,-0.227051,0.265625,0.197288,0.274021,0.044405,0.999700,-0.022229,0.001314,0.010179,0.474072,-0.080331,-0.839305,-0.253712
22995,NaN,36.187176,-13.610716,9.070191,-31.306028,-10.258548,12.356855,-3.032526,0.670330,3.625577,-0.982178,-0.192871,0.258789,0.364549,-0.128131,0.091466,0.999715,-0.015161,0.003351,0.018126,0.480311,-0.101943,-0.832055,-0.258057
22996,NaN,24.811154,-25.632739,4.828695,-27.285298,-20.595910,1.459739,-0.929266,0.034658,4.207289,-0.985352,-0.158447,0.260254,0.253435,-0.250805,0.049417,0.999768,-0.004646,0.000173,0.021035,0.485315,-0.121618,-0.828428,-0.251766
22997,NaN,17.289049,-8.413689,-3.736295,-9.588170,-9.575366,4.329666,-0.339131,-0.457360,3.315484,-0.984375,-0.126465,0.257812,0.174339,-0.081317,-0.036826,0.999859,-0.001696,-0.002287,0.016577,0.487583,-0.136925,-0.826805,-0.244761
22998,NaN,8.752987,0.387849,-3.841937,-1.198356,-1.735557,-0.481432,-0.837455,-0.437214,3.177246,-0.985352,-0.096436,0.261475,0.087539,0.005109,-0.038248,0.999863,-0.004187,-0.002186,0.015886,0.489040,-0.152628,-0.824549,-0.240133
22999,NaN,6.391791,-5.427968,-0.754712,-5.137622,-4.758825,-5.139266,-0.724806,-0.323761,2.856040,-0.990479,-0.074951,0.263428,0.064696,-0.053386,-0.007248,0.999890,-0.003624,-0.001619,0.014280,0.490787,-0.166756,-0.822025,-0.235786
23000,NaN,11.880556,-8.178269,3.667629,-12.283916,-4.163270,-2.515608,-0.013401,-0.197024,2.223960,-0.984619,-0.055664,0.263184,0.119669,-0.080453,0.036799,0.999938,-0.000067,-0.000985,0.011120,0.492574,-0.176162,-0.820578,-0.230194
23001,NaN,9.369986,1.325138,-2.267749,-1.858847,0.526464,-0.275411,-0.070893,-0.349004,2.069985,-0.987305,-0.040527,0.267090,0.093595,0.014212,-0.022519,0.999945,-0.000354,-0.001745,0.010350,0.493705,-0.185450,-0.819300,-0.224968
23002,NaN,8.050481,-5.161149,-6.561840,-1.541747,-7.174462,-0.831999,-0.379271,-0.459133,1.826078,-0.979492,-0.023438,0.275391,0.081123,-0.050997,-0.065336,0.999954,-0.001896,-0.002296,0.009130,0.493520,-0.194386,-0.818267,-0.221567
23003,NaN,11.454319,-7.712542,-5.698055,-5.023442,-8.302305,1.544479,0.168513,-0.357724,1.451300,-0.982422,0.000000,0.275146,0.115200,-0.076243,-0.056839,0.999972,0.000843,-0.001789,0.007256,0.494070,-0.200527,-0.817721,-0.216832
23004,NaN,10.045873,-1.803465,-2.220406,-3.690565,-1.516949,-0.159733,0.422529,-0.281515,1.109857,-0.980469,0.008545,0.277100,0.100588,-0.017430,-0.022100,0.999981,0.002113,-0.001408,0.005549,0.494553,-0.204333,-0.817737,-0.212066
23005,NaN,10.195104,-1.445467,-1.237975,-4.230287,-0.557195,-0.359881,0.211640,-0.277362,0.862043,-0.978760,0.021484,0.270508,0.102029,-0.014002,-0.012253,0.999989,0.001058,-0.001387,0.004310,0.494795,-0.207865,-0.817577,-0.208657
23006,NaN,11.225945,-2.240337,-4.635080,-2.623217,-2.843497,1.915798,0.266497,-0.237373,0.708040,-0.976807,0.025635,0.283203,0.112393,-0.021944,-0.046247,0.999992,0.001332,-0.001187,0.003540,0.494853,-0.210358,-0.817690,-0.205557
23007,NaN,9.939401,-0.171037,-5.115705,-0.566874,-1.492392,1.252680,0.309972,-0.129034,0.566873,-0.977051,0.027832,0.281250,0.099431,-0.001349,-0.051095,0.999995,0.001550,-0.000645,0.002834,0.495480,-0.212277,-0.817547,-0.202622
23008,NaN,9.803870,1.021241,-4.062207,-0.593843,0.103350,0.831408,0.203611,-0.067483,0.452927,-0.975098,0.036377,0.278809,0.098029,0.010476,-0.040578,0.999997,0.001018,-0.000337,0.002265,0.495893,-0.213704,-0.817427,-0.200584
23009,NaN,9.734469,0.988760,-2.947365,-1.361294,0.712607,0.289957,0.106566,-0.024842,0.391219,-0.972900,0.038574,0.278809,0.097329,0.010094,-0.029456,0.999998,0.000533,-0.000124,0.001956,0.496533,-0.215290,-0.817003,-0.199025
23010,NaN,9.794066,0.796631,-3.137672,-1.334024,0.493109,0.403988,0.014177,-0.038435,0.342638,-0.979736,0.047119,0.276611,0.097933,0.008136,-0.031357,0.999999,0.000071,-0.000192,0.001713,0.496747,-0.216705,-0.816733,-0.198063
23011,NaN,10.027675,0.610643,-3.684623,-1.111766,0.113142,0.829431,0.041638,-0.016907,0.315062,-0.975586,0.049316,0.278809,0.100270,0.006272,-0.036836,0.999999,0.000208,-0.000085,0.001575,0.497264,-0.218122,-0.816304,-0.196973
23012,NaN,9.907350,0.830661,-4.702407,-0.182296,-0.241654,1.181241,0.213473,0.003049,0.289001,-0.979980,0.053711,0.280762,0.099061,0.008500,-0.047017,0.999998,0.001067,0.000015,0.001445,0.497809,-0.218780,-0.816181,-0.195374
23013,NaN,9.637446,1.081798,-4.783633,0.156651,-0.081297,0.999456,0.480357,0.019319,0.279037,-0.977783,0.055664,0.278564,0.096355,0.011067,-0.047819,0.999996,0.002402,0.000097,0.001395,0.498905,-0.218911,-0.816130,-0.192625
23014,NaN,9.620631,0.762807,-4.073573,-0.501917,0.074880,0.650325,0.683336,0.015396,0.288604,-0.978027,0.062256,0.271973,0.096192,0.007906,-0.040716,0.999993,0.003417,0.000077,0.001443,0.500005,-0.218381,-0.816418,-0.189120
23015,NaN,9.853012,0.690874,-4.070087,-0.600949,0.109673,0.852736,0.862700,0.006705,0.285336,-0.973877,0.064209,0.278564,0.098519,0.007225,-0.040673,0.999990,0.004313,0.000034,0.001427,0.501452,-0.217576,-0.816739,-0.184781
23016,NaN,9.367098,1.051614,-4.106480,-0.153172,0.368362,0.461166,0.972382,-0.010685,0.280267,-0.971924,0.072998,0.276123,0.093658,0.010847,-0.041008,0.999987,0.004862,-0.000053,0.001401,0.502733,-0.216304,-0.817339,-0.180081
23017,NaN,9.001404,1.009949,-4.026729,-0.055174,0.374883,0.092658,1.007488,-0.037784,0.284772,-0.979004,0.085693,0.275879,0.090007,0.010430,-0.040198,0.999986,0.005037,-0.000189,0.001424,0.504123,-0.215152,-0.817868,-0.175101
23018,NaN,9.177031,0.671946,-3.878296,-0.387923,0.256311,0.161983,1.006982,-0.030326,0.295753,-0.976562,0.081543,0.273926,0.091766,0.007050,-0.038734,0.999986,0.005035,-0.000152,0.001479,0.505349,-0.213860,-0.818487,-0.170190
23019,NaN,9.265201,1.011169,-3.830749,-0.248330,0.646543,0.240223,0.962823,-0.005591,0.303751,-0.974854,0.092285,0.273682,0.092637,0.010437,-0.038255,0.999987,0.004814,-0.000028,0.001519,0.506807,-0.212848,-0.818837,-0.165376
23020,NaN,9.051216,1.078536,-3.962418,-0.000381,0.660953,0.104534,0.899668,0.019163,0.324113,-0.968506,0.098633,0.271484,0.090491,0.011110,-0.039583,0.999989,0.004498,0.000096,0.001621,0.508119,-0.211891,-0.819168,-0.160877
23021,NaN,8.882352,1.040167,-4.410079,0.424764,0.444995,0.139602,0.873997,0.025016,0.351180,-0.972900,0.100830,0.273682,0.088799,0.010750,-0.044065,0.999989,0.004370,0.000125,0.001756,0.509616,-0.211252,-0.819282,-0.156338
23022,NaN,8.601065,1.134414,-4.476342,0.666465,0.504081,-0.086219,0.818338,0.049709,0.371873,-0.971191,0.109375,0.273438,0.085978,0.011687,-0.044737,0.999990,0.004092,0.000249,0.001859,0.510984,-0.210663,-0.819384,-0.152075
23023,NaN,8.539051,1.142674,-4.362972,0.645913,0.613492,-0.196937,0.764054,0.063166,0.407061,-0.969238,0.117920,0.267090,0.085353,0.011767,-0.043612,0.999991,0.003820,0.000316,0.002035,0.512536,-0.210483,-0.819228,-0.147884
23024,NaN,8.573621,1.302182,-4.130636,0.565260,0.924857,-0.268604,0.715188,0.052882,0.453756,-0.979980,0.120117,0.264648,0.085695,0.013364,-0.041282,0.999991,0.003576,0.000264,0.002269,0.513849,-0.210483,-0.819127,-0.143832
23025,NaN,8.716702,1.067217,-3.748180,0.133620,0.983779,-0.316235,0.683298,0.025580,0.501672,-0.971680,0.128662,0.262451,0.087135,0.011019,-0.037456,0.999991,0.003416,0.000128,0.002508,0.515205,-0.210905,-0.818883,-0.139690
23026,NaN,8.680961,0.938066,-2.809072,-0.622620,1.343655,-0.760809,0.602200,-0.023585,0.558272,-0.969971,0.137207,0.262451,0.086786,0.009707,-0.028052,0.999992,0.003011,-0.000118,0.002791,0.516142,-0.211670,-0.818759,-0.135746
23027,NaN,8.710120,0.562116,-2.294293,-1.190663,1.310240,-0.963328,0.492912,-0.066159,0.634913,-0.966064,0.147949,0.260010,0.087090,0.005954,-0.022900,0.999992,0.002465,-0.000331,0.003175,0.516990,-0.213173,-0.818455,-0.131944
23028,NaN,8.960278,0.553372,-2.415945,-1.164129,1.368515,-0.691224,0.418200,-0.082699,0.727065,-0.966064,0.152100,0.260010,0.089592,0.005910,-0.024110,0.999991,0.002091,-0.000413,0.003635,0.517585,-0.215136,-0.818153,-0.128250
23029,NaN,8.894041,0.797093,-2.919251,-0.587865,1.424026,-0.545145,0.345491,-0.110521,0.815482,-0.966553,0.167236,0.259766,0.088923,0.008384,-0.029129,0.999990,0.001727,-0.000553,0.004077,0.518191,-0.217771,-0.817645,-0.124537
23030,NaN,9.347983,0.822756,-3.598510,-0.169971,1.341725,0.146283,0.317728,-0.136763,0.907875,-0.962402,0.169434,0.259766,0.093466,0.008709,-0.035908,0.999988,0.001589,-0.000684,0.004539,0.518550,-0.220757,-0.817189,-0.120722
23031,NaN,10.160991,1.178260,-4.302435,0.308850,1.645650,1.157283,0.370917,-0.175243,1.002967,-0.956543,0.182129,0.263916,0.101586,0.012372,-0.042913,0.999985,0.001855,-0.000876,0.005015,0.519005,-0.224110,-0.816622,-0.116347
23032,NaN,11.087632,1.604505,-5.056099,0.828139,2.054457,2.277207,0.492209,-0.219953,1.147424,-0.963379,0.197266,0.263672,0.110837,0.016805,-0.050398,0.999980,0.002461,-0.001100,0.005737,0.519328,-0.227657,-0.816167,-0.111097
23033,NaN,12.129516,1.730892,-4.716708,0.306465,2.737962,3.023782,0.656286,-0.307284,1.300075,-0.953125,0.209961,0.263428,0.121251,0.018251,-0.046922,0.999972,0.003281,-0.001536,0.006500,0.519685,-0.231522,-0.815706,-0.104635
23034,NaN,13.578729,2.182202,-4.109871,-0.411327,3.975278,3.973465,0.775738,-0.402789,1.470415,-0.951660,0.231445,0.267578,0.135703,0.022978,-0.040738,0.999963,0.003879,-0.002014,0.007352,0.519702,-0.235722,-0.815416,-0.097166
23035,NaN,13.741562,2.273144,-3.976250,-0.458261,4.397064,3.980703,0.887038,-0.429548,1.680767,-0.941650,0.255127,0.267334,0.137302,0.024061,-0.039363,0.999953,0.004435,-0.002148,0.008404,0.519941,-0.240549,-0.814827,-0.088627
23036,NaN,13.036855,2.244131,-3.918761,-0.201241,4.448234,3.245558,1.024909,-0.476831,1.867759,-0.937988,0.270020,0.264893,0.130243,0.023857,-0.038757,0.999940,0.005124,-0.002384,0.009339,0.520039,-0.245707,-0.814215,-0.079003
23037,NaN,13.031384,2.452019,-3.623674,-0.256634,5.024688,2.979425,1.136643,-0.579445,2.050147,-0.930176,0.293457,0.270996,0.130156,0.026059,-0.035714,0.999927,0.005683,-0.002897,0.010250,0.520001,-0.251370,-0.813479,-0.068297
23038,NaN,13.483314,2.483382,-3.637025,-0.303304,5.514349,3.251903,1.231390,-0.655901,2.244618,-0.924805,0.323486,0.264160,0.134659,0.026567,-0.035768,0.999913,0.006157,-0.003279,0.011223,0.519613,-0.257517,-0.812701,-0.056608
23039,NaN,13.976406,2.412548,-3.879498,-0.211602,5.897385,3.654764,1.410407,-0.726145,2.437966,-0.902100,0.351318,0.263916,0.139593,0.026098,-0.038109,0.999894,0.007052,-0.003631,0.012189,0.519266,-0.263977,-0.811652,-0.043588
23040,NaN,14.741859,2.962530,-4.434726,0.347857,6.874991,4.271320,1.699727,-0.800025,2.596866,-0.892334,0.377197,0.267822,0.147189,0.031910,-0.043493,0.999872,0.008498,-0.004000,0.012984,0.518772,-0.270260,-0.810556,-0.028872
23041,NaN,16.063661,3.933459,-4.975671,0.926731,8.533075,5.172945,2.098154,-0.876719,2.740611,-0.884766,0.413574,0.262939,0.160288,0.042047,-0.048622,0.999841,0.010490,-0.004383,0.013702,0.518521,-0.276022,-0.809198,-0.012076
23042,NaN,18.008837,4.820453,-4.829206,0.686976,10.726314,6.165640,2.638922,-0.992290,2.892294,-0.864502,0.443604,0.262695,0.179595,0.051428,-0.046736,0.999796,0.013194,-0.004961,0.014460,0.518227,-0.280903,-0.807761,0.007485
23043,NaN,20.402363,6.453820,-4.140742,0.155527,14.032735,6.862053,3.251937,-1.050397,3.066290,-0.848389,0.477783,0.251465,0.203206,0.068308,-0.039248,0.999737,0.016258,-0.005252,0.015330,0.518457,-0.284725,-0.805751,0.030002
23044,NaN,21.467324,7.409496,-4.946943,0.930187,15.874463,7.136193,3.914414,-1.080181,3.211571,-0.823730,0.514160,0.233887,0.213694,0.078465,-0.046806,0.999665,0.019570,-0.005400,0.016056,0.519031,-0.287277,-0.803109,0.055637
23045,NaN,21.714714,8.255450,-5.775951,1.865192,17.325711,6.596494,4.579570,-1.145460,3.451749,-0.805908,0.561279,0.216309,0.215983,0.087563,-0.054553,0.999573,0.022895,-0.005726,0.017256,0.519991,-0.288738,-0.799434,0.084526
23046,NaN,20.691226,8.756770,-6.277663,2.669738,17.928250,4.868087,5.140260,-1.186693,3.650158,-0.774902,0.595703,0.192383,0.205608,0.092881,-0.059212,0.999486,0.025697,-0.005932,0.018248,0.520866,-0.289332,-0.794653,0.116241
23047,NaN,18.633059,7.439375,-5.793413,2.202160,16.515298,2.771780,5.248363,-1.455527,3.809753,-0.748291,0.638428,0.161865,0.185255,0.079391,-0.054543,0.999448,0.026237,-0.007276,0.019045,0.520341,-0.289666,-0.789405,0.148926
