// Start Time: Unknown
// Update Rate: 100.0Hz
// Filter Profile: human (46.1)
// Firmware Version: 4.4.0
PacketCounter,SampleTimeFine,Acc_X,Acc_Y,Acc_Z,FreeAcc_X,FreeAcc_Y,FreeAcc_Z,Gyr_X,Gyr_Y,Gyr_Z,Mag_X,Mag_Y,Mag_Z,VelInc_X,VelInc_Y,VelInc_Z,OriInc_q0,OriInc_q1,OriInc_q2,OriInc_q3,Quat_q0,Quat_q1,Quat_q2,Quat_q3
22527,NaN,10.296102,-0.406393,1.412066,0.218868,0.598375,0.568140,0.250816,-1.194786,-0.050095,-1.017334,-0.122559,0.025146,0.102873,-0.004108,0.014730,0.999981,0.001254,-0.005974,-0.000250,-0.210401,-0.632974,0.168735,-0.725675
22528,NaN,11.840106,-0.163471,1.351033,-0.013188,0.504319,2.094619,-0.123804,-1.178488,-0.094297,-1.021240,-0.128906,0.033691,0.118318,-0.001682,0.014209,0.999982,-0.000619,-0.005892,-0.000471,-0.210222,-0.637110,0.170148,-0.721766
22529,NaN,13.542606,-0.406684,0.525391,-0.649331,1.229555,3.674690,-0.626023,-0.714411,-0.100029,-1.019287,-0.126953,0.035889,0.135404,-0.004117,0.005750,0.999989,-0.003130,-0.003572,-0.000500,-0.211967,-0.639108,0.172838,-0.718845
22530,NaN,12.771860,-1.036428,-0.090515,-0.688335,2.015784,2.823185,-0.939045,-0.412914,-0.028395,-1.021240,-0.133301,0.035889,0.127719,-0.010386,-0.000593,0.999987,-0.004695,-0.002065,-0.000142,-0.215983,-0.639344,0.176091,-0.716647
22531,NaN,12.933791,-2.045593,-0.379054,-0.347111,3.007343,2.932748,-1.345333,-0.299245,-0.054303,-1.021240,-0.128906,0.033691,0.129338,-0.020515,-0.003459,0.999976,-0.006727,-0.001496,-0.000272,-0.220209,-0.638996,0.181057,-0.714430
22532,NaN,12.055943,-1.945170,0.978204,0.863076,2.087058,2.228308,-2.091100,0.129620,-0.129736,-1.019043,-0.131104,0.037842,0.120553,-0.019427,0.009907,0.999945,-0.010455,0.000648,-0.000649,-0.229094,-0.636151,0.189518,-0.711977
22533,NaN,10.527334,-1.289633,3.744308,2.870195,-0.170515,1.061143,-2.591041,0.428291,-0.224716,-1.016846,-0.141846,0.016846,0.105339,-0.012530,0.037381,0.999913,-0.012955,0.002141,-0.001124,-0.238521,-0.631816,0.197520,-0.710564
22534,NaN,8.871809,-1.715094,6.193306,5.127771,-1.521090,-0.252465,-2.728744,0.805923,-0.275882,-1.016846,-0.143799,0.006348,0.088944,-0.016430,0.061802,0.999898,-0.013643,0.004029,-0.001379,-0.250636,-0.624837,0.208075,-0.709552
22535,NaN,8.708575,-2.393196,7.107429,6.162540,-1.644585,-0.252417,-2.286203,1.021395,-0.348766,-1.019043,-0.143799,-0.008545,0.087407,-0.023273,0.070897,0.999920,-0.011431,0.005107,-0.001744,-0.260058,-0.618662,0.213800,-0.709871
22536,NaN,7.680079,-3.416696,5.881954,5.816178,-0.231220,-1.364453,-1.335094,1.276295,-0.370283,-1.014648,-0.150146,-0.019043,0.077112,-0.033918,0.058555,0.999956,-0.006675,0.006381,-0.001851,-0.267405,-0.609784,0.216792,-0.713904
22537,NaN,6.449804,-5.903634,5.312862,7.068044,1.905334,-2.664868,-0.386630,1.261052,-0.283919,-1.014404,-0.156738,-0.035889,0.064748,-0.059026,0.052835,0.999977,-0.001933,0.006305,-0.001420,-0.270958,-0.605060,0.215616,-0.716934
22538,NaN,7.530276,-5.442381,6.462373,7.351772,0.973455,-1.263416,-0.128527,0.978900,-0.148044,-1.020752,-0.158691,-0.040039,0.075578,-0.054438,0.064289,0.999988,-0.000643,0.004894,-0.000740,-0.273365,-0.596757,0.217271,-0.722458
22539,NaN,11.484833,-3.430619,6.370924,5.346316,0.094524,2.663939,-0.539321,0.929604,-0.039895,-1.010254,-0.158691,-0.054932,0.115136,-0.034158,0.063267,0.999986,-0.002697,0.004648,-0.000199,-0.276124,-0.592697,0.217827,-0.724581
22540,NaN,16.402811,-1.193950,7.734495,3.748320,-1.753417,7.883990,-0.894936,1.067216,0.066748,-1.010498,-0.154297,-0.073975,0.164442,-0.011541,0.076520,0.999976,-0.004475,0.005336,0.000334,-0.280049,-0.581362,0.223972,-0.730361
22541,NaN,19.156008,3.683942,5.845117,-1.579768,-3.607608,10.166530,-0.711582,1.572094,0.023960,-1.012207,-0.165039,-0.088623,0.192007,0.037066,0.056811,0.999963,-0.003558,0.007860,0.000120,-0.283780,-0.574576,0.224430,-0.734140
22542,NaN,14.724127,6.925316,3.410140,-5.153026,-4.860771,5.227280,-0.108905,1.941178,-0.064754,-1.010498,-0.158447,-0.107910,0.147585,0.069223,0.032632,0.999953,-0.000545,0.009706,-0.000324,-0.285130,-0.562220,0.221497,-0.744008
22543,NaN,7.435828,6.751600,0.738672,-5.587491,-4.132822,-2.524340,0.257815,1.700992,0.039020,-1.008301,-0.160645,-0.120361,0.074405,0.067521,0.006841,0.999963,0.001289,0.008505,0.000195,-0.286134,-0.556196,0.218214,-0.749104
22544,NaN,3.719849,3.630480,-3.261375,-5.582913,0.008179,-7.266109,0.784421,1.022963,0.091135,-1.012695,-0.160645,-0.131104,0.037015,0.036450,-0.032661,0.999979,0.003922,0.005115,0.000456,-0.279174,-0.551851,0.205958,-0.758356
22545,NaN,2.581705,1.239087,-2.927641,-3.530730,1.386604,-8.269045,-0.066598,0.703099,0.007250,-1.003906,-0.164795,-0.139404,0.025713,0.012382,-0.029371,0.999994,-0.000333,0.003515,0.000036,-0.280053,-0.549081,0.205247,-0.760233
22546,NaN,2.725374,0.691150,1.053800,-0.353260,-0.616079,-6.895248,-1.815185,0.255784,-0.225155,-1.010498,-0.160645,-0.141602,0.027275,0.006976,0.010440,0.999957,-0.009076,0.001279,-0.001126,-0.282541,-0.545773,0.205240,-0.761695
22547,NaN,5.610299,-0.973535,7.604889,4.668009,-2.915932,-2.069201,-2.518562,-0.441566,-0.201032,-1.004150,-0.158447,-0.143799,0.055926,-0.008832,0.076288,0.999918,-0.012592,-0.002208,-0.001005,-0.289703,-0.544058,0.214890,-0.757559
22548,NaN,11.604835,-1.170661,10.431218,5.294712,-3.321233,4.532513,-1.861237,-0.429531,-0.030665,-1.001953,-0.162842,-0.137451,0.115822,-0.010751,0.104664,0.999954,-0.009306,-0.002148,-0.000153,-0.288644,-0.543005,0.214572,-0.758808
22549,NaN,14.468449,-1.184385,8.094931,2.928081,-1.361246,6.491904,-0.737843,-0.128373,0.002743,-1.004395,-0.152100,-0.145996,0.144633,-0.011543,0.081085,0.999993,-0.003689,-0.000642,0.000014,-0.290497,-0.542420,0.217563,-0.757666
22550,NaN,13.203705,-0.959569,5.722164,1.354249,-0.123031,4.545328,-0.219131,-0.050345,0.020560,-1.008545,-0.158447,-0.137451,0.132024,-0.009519,0.057265,0.999999,-0.001096,-0.000252,0.000103,-0.283060,-0.541770,0.208551,-0.763458
22551,NaN,10.286069,-1.641344,4.550056,1.701436,0.516571,1.413999,0.227596,0.093235,0.118217,-1.006348,-0.158447,-0.145752,0.102892,-0.016404,0.045434,0.999999,0.001138,0.000466,0.000591,-0.282090,-0.541612,0.207870,-0.764115
22552,NaN,8.514151,-2.686161,4.430759,2.658793,1.155038,-0.276734,0.564801,0.266726,0.264691,-1.000000,-0.156250,-0.145996,0.085236,-0.026874,0.044118,0.999994,0.002824,0.001334,0.001323,-0.273535,-0.540097,0.198642,-0.770724
22553,NaN,8.036518,-2.428307,4.619328,2.727116,0.768064,-0.658821,0.645001,0.212557,0.433994,-1.002197,-0.154053,-0.143799,0.080467,-0.024257,0.046030,0.999992,0.003225,0.001063,0.002170,-0.270330,-0.539724,0.197036,-0.772526
22554,NaN,9.231302,-0.828745,3.813019,0.717507,0.304928,0.179058,0.581063,0.098550,0.562032,-1.002441,-0.147705,-0.145996,0.092355,-0.008139,0.038061,0.999992,0.002905,0.000493,0.002810,-0.263022,-0.537914,0.192372,-0.777471
22555,NaN,10.970351,1.688356,2.167835,-2.567272,-0.391372,1.194329,0.427510,0.157508,0.509380,-1.002441,-0.145508,-0.150146,0.109677,0.017117,0.021628,0.999994,0.002138,0.000788,0.002547,-0.260042,-0.537371,0.191872,-0.778971
22556,NaN,11.752125,2.973152,0.019821,-5.249105,-0.024818,1.114277,0.559712,0.521851,0.181617,-1.000488,-0.141357,-0.156494,0.117494,0.029838,-0.000025,0.999992,0.002799,0.002609,0.000908,-0.255796,-0.534436,0.186645,-0.783652
22557,NaN,9.834279,-0.232265,1.357116,-1.815426,1.424700,-0.154396,0.342037,0.857258,0.018591,-0.998535,-0.139160,-0.165039,0.098400,-0.002336,0.013145,0.999989,0.001710,0.004286,0.000093,-0.255607,-0.531491,0.184256,-0.786277
22558,NaN,9.715144,-4.303714,5.186199,3.375106,2.623067,1.211363,-0.075612,1.076541,0.044700,-0.992188,-0.141113,-0.177734,0.097438,-0.042996,0.051354,0.999985,-0.000378,0.005383,0.000224,-0.254674,-0.526560,0.180765,-0.790695
22559,NaN,10.194247,-5.785703,6.647193,5.050040,3.199473,2.263689,0.306428,1.571870,0.234114,-0.996582,-0.138916,-0.194580,0.102528,-0.057838,0.065579,0.999967,0.001532,0.007859,0.001171,-0.254354,-0.520507,0.178163,-0.795383
22560,NaN,10.420788,-5.216357,6.059164,3.976698,3.217626,2.284466,1.045931,2.123861,0.471945,-0.988281,-0.134521,-0.211670,0.104965,-0.052229,0.059207,0.999927,0.005230,0.010619,0.002360,-0.254118,-0.510894,0.175746,-0.802200
22561,NaN,11.285220,-4.367865,4.658317,1.881631,3.705684,2.469390,1.635784,2.533394,0.489323,-0.988281,-0.136719,-0.237061,0.113534,-0.043773,0.044790,0.999883,0.008179,0.012666,0.002447,-0.250173,-0.502321,0.167196,-0.810637
22562,NaN,12.439858,-4.865730,4.035607,0.976257,4.897749,3.216234,2.159708,2.704191,0.362316,-0.979980,-0.136719,-0.253906,0.125013,-0.048851,0.038142,0.999849,0.010798,0.013520,0.001811,-0.250572,-0.490920,0.162648,-0.818386
22563,NaN,12.056577,-5.741103,4.455557,1.590191,5.605478,3.001584,1.652761,2.833608,0.112083,-0.973633,-0.138672,-0.281494,0.121209,-0.057699,0.042365,0.999865,0.008263,0.014167,0.000560,-0.248327,-0.481239,0.152589,-0.826716
22564,NaN,12.714166,-5.181965,3.232107,-0.113094,6.091841,2.907775,0.629102,3.076262,-0.038973,-0.971436,-0.140869,-0.311035,0.127607,-0.051942,0.030197,0.999877,0.003145,0.015381,-0.000195,-0.257352,-0.466518,0.155925,-0.831757
22565,NaN,13.207202,-2.202604,0.894773,-3.970447,5.214069,1.896935,0.124529,3.286946,-0.226694,-0.958740,-0.142822,-0.338623,0.132170,-0.022180,0.006762,0.999864,0.000623,0.016434,-0.001133,-0.260531,-0.453122,0.150627,-0.839116
22566,NaN,13.316511,-0.702960,-5.517855,-9.290663,7.576112,-1.779233,-0.593943,3.406310,-0.163879,-0.942139,-0.140625,-0.376709,0.132194,-0.007306,-0.057414,0.999850,-0.002970,0.017031,-0.000819,-0.275200,-0.436000,0.159977,-0.841770
22567,NaN,9.510519,5.280889,-11.102864,-14.807025,4.619644,-8.825057,-1.364276,4.662131,0.201416,-0.929688,-0.136230,-0.425537,0.092425,0.052134,-0.113561,0.999705,-0.006821,0.023308,0.001007,-0.280974,-0.414213,0.159696,-0.850869
22568,NaN,1.775431,7.805272,-6.228517,-9.520167,-1.954165,-12.710901,-0.789274,6.004313,0.529822,-0.902588,-0.127441,-0.474121,0.015662,0.077848,-0.063084,0.999538,-0.003946,0.030017,0.002649,-0.301760,-0.386357,0.171083,-0.854634
22569,NaN,-13.979527,5.086414,8.797018,8.957671,-13.910862,-14.802032,-0.347225,4.419138,0.689108,-0.892334,-0.116699,-0.508057,-0.137982,0.050543,0.090945,0.999748,-0.001736,0.022094,0.003445,-0.303191,-0.366264,0.167187,-0.863698
22570,NaN,-16.194482,-2.193535,13.396418,17.180238,-12.004909,-12.505673,-1.591468,1.091392,1.290981,-0.888916,-0.095215,-0.512695,-0.161068,-0.021905,0.135019,0.999933,-0.007957,0.005457,0.006455,-0.309131,-0.359300,0.179090,-0.862130
22571,NaN,0.946188,5.545415,1.986860,-3.179370,-4.812967,-8.289185,-0.476429,0.754114,1.307244,-0.885010,-0.082275,-0.516846,0.009173,0.055562,0.019701,0.999969,-0.002382,0.003771,0.006536,-0.305017,-0.354131,0.182321,-0.865052
22572,NaN,2.691485,4.780565,3.827153,-2.805370,-4.498096,-5.733271,-0.488716,0.593609,1.062405,-0.883057,-0.077881,-0.525391,0.026773,0.048041,0.038075,0.999979,-0.002444,0.002968,0.005312,-0.309488,-0.350473,0.186972,-0.863960
22573,NaN,3.528813,1.444503,3.870821,-1.068768,-1.745953,-4.779640,-0.335528,0.247754,0.898172,-0.881104,-0.071533,-0.525391,0.035270,0.014668,0.038640,0.999988,-0.001678,0.001239,0.004491,-0.306424,-0.348040,0.189610,-0.865460
22574,NaN,6.104894,2.255158,5.039877,-2.555567,-1.920008,-2.227292,-0.034701,-0.269811,0.680160,-0.883545,-0.062988,-0.519287,0.060904,0.022768,0.050477,0.999993,-0.000174,-0.001349,0.003401,-0.313833,-0.346844,0.194348,-0.862228
22575,NaN,8.140265,2.163331,5.513675,-3.414108,-1.353945,-0.439604,-0.146787,-0.510002,0.608734,-0.887939,-0.052246,-0.517090,0.081195,0.021921,0.055328,0.999992,-0.000734,-0.002550,0.003044,-0.310964,-0.348219,0.196836,-0.862149
22576,NaN,9.052377,-1.121012,5.196711,-1.769420,1.544075,0.419233,-0.278188,-0.807035,0.378889,-0.894287,-0.050049,-0.506592,0.090334,-0.010966,0.052347,0.999989,-0.001391,-0.004035,0.001894,-0.321943,-0.349704,0.204599,-0.855686
22577,NaN,8.263524,-5.361510,5.311016,1.701306,4.079056,0.468585,0.135917,-1.110480,0.180178,-0.898682,-0.050293,-0.500244,0.082387,-0.053577,0.053532,0.999984,0.000680,-0.005552,0.000901,-0.319793,-0.354486,0.206118,-0.854159
22578,NaN,9.384013,-6.068241,3.974850,1.279276,5.658872,0.532451,0.466236,-1.491674,-0.055092,-0.902588,-0.052490,-0.476807,0.093524,-0.060802,0.040305,0.999969,0.002331,-0.007458,-0.000275,-0.333198,-0.359812,0.213600,-0.844920
22579,NaN,10.573103,-6.265105,3.830727,0.867550,6.281333,1.390243,0.650026,-1.901459,-0.285000,-0.912842,-0.063232,-0.464111,0.105272,-0.062928,0.039105,0.999949,0.003250,-0.009507,-0.001425,-0.331184,-0.369216,0.213498,-0.841674
22580,NaN,9.152508,-4.923908,5.256190,1.698898,3.680901,1.105263,0.367555,-1.984520,-0.455634,-0.916992,-0.063232,-0.449219,0.090886,-0.049544,0.053375,0.999946,0.001838,-0.009922,-0.002278,-0.349448,-0.375538,0.225631,-0.828220
22581,NaN,6.011139,-6.342232,5.239793,4.413276,3.222592,-1.213401,0.150254,-2.092306,-0.692997,-0.923096,-0.071777,-0.427979,0.059339,-0.063668,0.052974,0.999939,0.000751,-0.010461,-0.003465,-0.349653,-0.385226,0.227350,-0.823198
22582,NaN,3.420998,-7.801354,5.631980,7.073161,2.674297,-2.949886,0.531068,-2.481305,-0.863560,-0.929199,-0.076172,-0.400391,0.033172,-0.078308,0.056528,0.999910,0.002655,-0.012406,-0.004318,-0.353671,-0.396163,0.232375,-0.814846
22583,NaN,2.069242,-6.216326,7.067576,7.316096,0.126562,-3.541521,1.118832,-3.059473,-0.683353,-0.943604,-0.091309,-0.368652,0.019398,-0.062626,0.070630,0.999862,0.005594,-0.015297,-0.003417,-0.350634,-0.411347,0.231842,-0.808764
22584,NaN,1.890092,-2.252761,7.667551,4.843190,-3.045637,-3.922208,1.661052,-3.733234,-0.209968,-0.956055,-0.095703,-0.330566,0.017444,-0.023184,0.076819,0.999791,0.008305,-0.018665,-0.001050,-0.348349,-0.428267,0.236751,-0.799493
22585,NaN,3.933195,1.862997,9.921150,2.429804,-6.602760,-1.575840,2.230830,-4.418823,0.102316,-0.959717,-0.104492,-0.288086,0.037115,0.017535,0.100248,0.999694,0.011153,-0.022092,0.000512,-0.337825,-0.449566,0.235677,-0.792604
22586,NaN,7.251005,5.907778,11.301253,-0.617152,-9.371905,1.454431,2.080317,-3.962096,0.260104,-0.968262,-0.100342,-0.252197,0.070169,0.057981,0.115025,0.999749,0.010401,-0.019809,0.001300,-0.328486,-0.467255,0.236971,-0.785885
22587,NaN,11.592799,9.572269,8.874387,-5.734273,-9.211731,3.862558,1.464676,-2.851697,0.312658,-0.974365,-0.104492,-0.226807,0.114491,0.095241,0.091082,0.999870,0.007323,-0.014258,0.001563,-0.320413,-0.480438,0.236601,-0.781368
22588,NaN,13.699520,9.272948,6.579420,-7.076975,-7.326765,4.787700,0.867799,-2.431277,0.112298,-0.983154,-0.093994,-0.205566,0.136127,0.092515,0.067854,0.999917,0.004339,-0.012156,0.000561,-0.305841,-0.492277,0.230928,-0.781535
22589,NaN,13.232154,5.654780,6.575320,-4.052865,-5.128533,4.594362,0.924815,-2.059496,-0.074897,-0.978516,-0.102539,-0.186523,0.131654,0.056189,0.067372,0.999936,0.004624,-0.010297,-0.000374,-0.301459,-0.501797,0.230267,-0.777367
22590,NaN,12.260849,2.205782,5.560173,-1.647536,-2.381944,3.518245,1.097246,-1.955061,-0.388380,-0.982422,-0.109131,-0.156982,0.122099,0.021511,0.056916,0.999935,0.005486,-0.009775,-0.001942,-0.287690,-0.513498,0.219134,-0.778161
22591,NaN,13.442325,-1.216991,4.241528,-0.292679,1.149705,4.285216,1.601427,-2.224377,-0.641948,-0.986328,-0.113525,-0.137939,0.133900,-0.012947,0.043805,0.999901,0.008007,-0.011122,-0.003210,-0.283609,-0.525111,0.214435,-0.773203
22592,NaN,13.506708,-4.690811,4.506720,2.430907,3.620163,4.530326,1.624616,-2.342967,-0.642580,-0.983887,-0.119873,-0.114502,0.134377,-0.047713,0.046259,0.999893,0.008123,-0.011714,-0.003213,-0.274139,-0.538018,0.203883,-0.770595
22593,NaN,12.294994,-5.919432,6.062754,4.955165,3.308423,3.878814,0.915013,-2.135614,-0.533751,-0.983643,-0.126465,-0.099609,0.122136,-0.059802,0.061662,0.999929,0.004575,-0.010678,-0.002669,-0.271535,-0.548009,0.201837,-0.764995
22594,NaN,9.508755,-4.889366,6.668510,5.629200,1.641645,1.341015,0.456680,-1.680512,-0.383029,-0.981689,-0.120117,-0.082764,0.094429,-0.049228,0.067368,0.999960,0.002283,-0.008402,-0.001915,-0.266179,-0.555624,0.197216,-0.762585
22595,NaN,6.967208,-3.221901,6.301149,5.059729,0.034875,-1.267283,0.210491,-1.221202,-0.124610,-0.981445,-0.128662,-0.076416,0.069266,-0.032329,0.063401,0.999981,0.001052,-0.006106,-0.000623,-0.264858,-0.560674,0.197691,-0.759219
22596,NaN,7.286548,-0.984748,4.474319,2.289531,-0.562479,-1.534748,0.072904,-0.799687,-0.237957,-0.975098,-0.130859,-0.070068,0.072674,-0.009950,0.045030,0.999991,0.000365,-0.003998,-0.001190,-0.262196,-0.563627,0.195011,-0.758649
22597,NaN,5.368895,-0.186621,3.080650,1.225828,-0.719575,-3.785268,-0.149063,-0.268801,-0.331213,-0.974854,-0.135010,-0.065918,0.053644,-0.001932,0.030880,0.999997,-0.000745,-0.001344,-0.001656,-0.263608,-0.564774,0.194998,-0.757309
22598,NaN,5.471895,-0.154238,1.189903,-0.232624,0.407983,-4.230512,-0.689335,-0.231318,-0.456452,-0.979004,-0.139404,-0.065674,0.054701,-0.001626,0.011968,0.999991,-0.003447,-0.001157,-0.002282,-0.265424,-0.564633,0.194551,-0.756894
22599,NaN,6.327986,-0.350245,-1.117412,-2.001733,2.098293,-4.067713,-0.762017,-0.375158,-0.481799,-0.977051,-0.128662,-0.059570,0.063292,-0.003697,-0.011042,0.999988,-0.003810,-0.001876,-0.002409,-0.269028,-0.565504,0.196574,-0.754445
22600,NaN,6.021563,-1.820758,-2.904338,-2.322260,4.270424,-4.875103,-0.677424,-0.571584,-0.520736,-0.976807,-0.139404,-0.057373,0.060250,-0.018462,-0.028809,0.999987,-0.003387,-0.002858,-0.002604,-0.270807,-0.566851,0.196693,-0.752765
22601,NaN,4.802486,-1.975241,-1.957150,-1.188873,3.600378,-5.760626,-1.338116,-0.784849,-0.482260,-0.972412,-0.143799,-0.051025,0.048053,-0.019998,-0.019250,0.999967,-0.006691,-0.003924,-0.002411,-0.275632,-0.568449,0.201422,-0.748547
22602,NaN,5.991122,-1.308272,-0.411823,-0.640300,2.339506,-4.165513,-2.230909,-1.136000,-0.373828,-0.972412,-0.143799,-0.044678,0.059908,-0.013237,-0.003631,0.999920,-0.011154,-0.005680,-0.001869,-0.281450,-0.569609,0.209764,-0.743189
22603,NaN,8.486278,-1.967522,-0.654930,-0.743297,3.374989,-1.789523,-2.411697,-1.553109,-0.213394,-0.972168,-0.147949,-0.031982,0.084888,-0.019838,-0.005652,0.999897,-0.012058,-0.007765,-0.001067,-0.287451,-0.572152,0.220285,-0.735859
22604,NaN,10.870182,-0.448377,-2.788425,-3.589981,3.960148,0.064733,-1.798793,-1.614591,0.193750,-0.974609,-0.139648,-0.019287,0.108926,-0.004624,-0.026964,0.999926,-0.008994,-0.008073,0.000969,-0.289770,-0.574911,0.230011,-0.729798
22605,NaN,13.206845,-0.658519,-3.542795,-4.263439,4.862136,2.253177,-0.303504,-1.411180,0.495763,-0.974609,-0.137451,-0.010742,0.132330,-0.006310,-0.034485,0.999971,-0.001518,-0.007056,0.002479,-0.287200,-0.579034,0.234584,-0.726090
22606,NaN,16.653855,-1.903670,-2.009607,-2.834099,5.058642,6.042563,-0.132402,-0.794554,0.628473,-0.974854,-0.126709,-0.002441,0.166675,-0.018526,-0.019422,0.999987,-0.000662,-0.003973,0.003142,-0.284669,-0.580746,0.239194,-0.724213
22607,NaN,20.431967,-6.147154,4.197468,3.843111,4.257038,11.162922,-1.160179,-0.203607,0.573462,-0.972656,-0.128906,-0.002441,0.204451,-0.060640,0.042536,0.999979,-0.005801,-0.001018,0.002867,-0.285709,-0.579134,0.245348,-0.723034
22608,NaN,19.923561,-10.894510,12.953438,13.246231,1.193617,12.693494,-2.387384,0.354473,0.284877,-0.974609,-0.131104,-0.012939,0.199620,-0.107107,0.130467,0.999926,-0.011937,0.001772,0.001424,-0.292857,-0.573621,0.256406,-0.720729
22609,NaN,12.100697,-9.037492,21.415499,18.675897,-7.412579,7.008572,-2.582312,2.005554,-0.255472,-0.975098,-0.124512,-0.049072,0.123041,-0.087767,0.214072,0.999866,-0.012911,0.010027,-0.001277,-0.303713,-0.562863,0.262011,-0.722699
22610,NaN,4.796629,-6.229199,15.243286,13.531330,-6.051208,-1.185154,-0.484641,3.323828,-0.580585,-0.968506,-0.133057,-0.072266,0.050312,-0.062067,0.151760,0.999855,-0.002423,0.016618,-0.002903,-0.311804,-0.549649,0.258720,-0.730567
22611,NaN,8.739708,-2.248739,-0.433735,-0.450848,3.412379,-1.459579,2.244098,2.341748,-0.229626,-0.970947,-0.128662,-0.089111,0.087310,-0.022529,-0.005613,0.999868,0.011220,0.011708,-0.001148,-0.309460,-0.544818,0.246211,-0.739451
22612,NaN,14.964411,6.798168,-3.556140,-10.560059,0.641378,3.258940,2.372360,1.412016,0.061418,-0.973145,-0.126465,-0.093262,0.149371,0.068451,-0.035807,0.999905,0.011861,0.007060,0.000307,-0.304460,-0.541833,0.236727,-0.746780
22613,NaN,18.922493,10.932039,7.517159,-7.062842,-9.034634,10.251433,0.707503,0.462682,-0.095009,-0.968506,-0.135010,-0.093262,0.189451,0.108965,0.075119,0.999991,0.003538,0.002313,-0.000475,-0.303440,-0.541291,0.233125,-0.748720
22614,NaN,16.657798,13.136918,13.796374,-3.910189,-15.180653,10.053215,0.583650,0.996578,-0.330572,-0.968506,-0.137207,-0.110352,0.167480,0.130691,0.137513,0.999982,0.002918,0.004983,-0.001653,-0.303680,-0.538208,0.228595,-0.752233
22615,NaN,9.416685,5.389738,2.288479,-4.497917,-3.299462,-0.229363,1.585866,2.233315,-0.577237,-0.966309,-0.147705,-0.129150,0.094572,0.053447,0.022255,0.999902,0.007929,0.011166,-0.002886,-0.304104,-0.532824,0.217667,-0.759105
22616,NaN,3.729663,2.274467,-5.907482,-6.516247,3.065299,-8.355288,0.236467,1.173416,-0.624582,-0.970459,-0.149902,-0.133301,0.037020,0.022699,-0.059266,0.999977,0.001182,0.005867,-0.003123,-0.305571,-0.529201,0.211556,-0.762769
22617,NaN,2.106617,5.270927,-0.066068,-4.263948,-3.201665,-7.865649,-2.760270,0.129567,-0.792478,-0.966064,-0.152100,-0.135498,0.021274,0.052609,-0.001401,0.999897,-0.013801,0.000648,-0.003962,-0.316000,-0.525274,0.219770,-0.758902
22618,NaN,4.388062,4.371385,6.346602,-0.060315,-6.241745,-3.513675,-2.673274,-1.199392,-0.209406,-0.964111,-0.145752,-0.125000,0.043548,0.044514,0.063136,0.999892,-0.013366,-0.005997,-0.001047,-0.320971,-0.525917,0.229442,-0.753489
22619,NaN,10.887451,1.211779,4.063748,-0.862908,-1.043940,1.792607,-0.833709,-1.134007,0.386797,-0.970703,-0.143555,-0.120850,0.108618,0.012499,0.041202,0.999973,-0.004169,-0.005670,0.001934,-0.320393,-0.528393,0.235418,-0.750151
22620,NaN,13.291153,1.144209,1.669626,-2.913428,1.113621,3.264884,-0.033501,-0.448990,0.382243,-0.968506,-0.139160,-0.118652,0.132851,0.011699,0.016993,0.999996,-0.000168,-0.002245,0.001911,-0.316696,-0.529845,0.234951,-0.750844
22621,NaN,12.247139,0.724661,3.010218,-1.491806,0.194200,2.729869,-0.091716,-0.114264,0.082011,-0.968750,-0.135010,-0.112305,0.122451,0.007311,0.030169,1.000000,-0.000459,-0.000571,0.000410,-0.316494,-0.530032,0.235697,-0.750563
22622,NaN,9.479452,-2.679403,5.469909,3.229967,0.241599,0.979348,-0.110685,-0.119064,-0.124370,-0.968506,-0.137207,-0.114502,0.094745,-0.026823,0.054770,0.999999,-0.000553,-0.000595,-0.000622,-0.315518,-0.530783,0.233906,-0.751003
22623,NaN,9.128772,-3.978296,6.785927,5.126530,0.144215,1.091804,-0.079929,-0.239218,-0.115687,-0.977051,-0.143555,-0.118652,0.091183,-0.039809,0.067984,0.999999,-0.000400,-0.001196,-0.000578,-0.315881,-0.531690,0.234280,-0.750092
22624,NaN,9.307688,-3.124026,6.402193,4.244212,-0.135840,1.111990,-0.210980,-0.468097,-0.120082,-0.974854,-0.139160,-0.108154,0.092908,-0.031228,0.064272,0.999997,-0.001055,-0.002340,-0.000600,-0.314867,-0.533380,0.233722,-0.749492
22625,NaN,9.365212,-2.112031,5.395688,2.898110,-0.186973,0.810238,0.067293,-0.897087,-0.014624,-0.977051,-0.137207,-0.095459,0.093407,-0.021145,0.054369,0.999990,0.000336,-0.004485,-0.000073,-0.313688,-0.536859,0.234845,-0.747148
22626,NaN,10.684733,-2.713152,4.726057,2.632737,1.005284,1.845652,0.234603,-1.217485,0.063214,-0.972900,-0.130859,-0.086914,0.106566,-0.027154,0.047878,0.999981,0.001173,-0.006087,0.000316,-0.298600,-0.545184,0.226188,-0.749968
22627,NaN,11.346172,-1.877510,4.682235,1.976561,0.459620,2.437361,-0.172770,-1.314470,0.042865,-0.974854,-0.137207,-0.070068,0.113155,-0.018710,0.047583,0.999978,-0.000864,-0.006572,0.000214,-0.297414,-0.549795,0.228914,-0.746236
22628,NaN,10.348868,0.629222,3.715740,-0.097412,-0.991542,1.155794,-0.596066,-1.234803,-0.034936,-0.981201,-0.135010,-0.061523,0.103258,0.006386,0.037776,0.999976,-0.002980,-0.006174,-0.000175,-0.286651,-0.556434,0.224213,-0.746955
22629,NaN,8.819894,1.875270,1.718390,-1.941919,-0.951257,-0.891725,-0.178918,-0.920636,-0.083769,-0.979004,-0.137207,-0.057373,0.088126,0.018731,0.017573,0.999989,-0.000895,-0.004603,-0.000419,-0.286423,-0.559704,0.225969,-0.744064
22630,NaN,7.551121,1.196604,0.738278,-1.857809,-0.106990,-2.360629,0.502010,-0.661285,-0.006674,-0.979004,-0.137207,-0.044678,0.075487,0.011945,0.007662,0.999991,0.002510,-0.003306,-0.000033,-0.275734,-0.564982,0.218096,-0.746458
22631,NaN,7.731407,0.591432,-0.489586,-2.353393,1.127921,-2.494672,0.911729,-0.418312,0.086755,-0.980957,-0.137207,-0.044678,0.077321,0.005970,-0.004707,0.999987,0.004559,-0.002092,0.000434,-0.272372,-0.567699,0.215516,-0.746381
22632,NaN,7.627548,-0.589229,-0.479436,-1.599917,1.954335,-2.575470,1.321276,0.011326,0.250636,-0.983398,-0.133057,-0.044678,0.076282,-0.005765,-0.004837,0.999977,0.006606,0.000057,0.001253,-0.260715,-0.570778,0.205551,-0.750992
22633,NaN,8.793908,-1.963411,-0.425145,-0.994667,3.167911,-1.425610,1.606594,0.288151,0.454477,-0.979248,-0.128662,-0.044678,0.087977,-0.019399,-0.004535,0.999964,0.008033,0.001441,0.002272,-0.254708,-0.571304,0.200436,-0.754030
22634,NaN,11.275138,-3.073100,2.285986,1.064184,2.873899,1.694062,1.616380,0.642764,0.481895,-0.985840,-0.122314,-0.042725,0.112897,-0.030641,0.022249,0.999959,0.008082,0.003214,0.002409,-0.243341,-0.571597,0.190486,-0.760116
22635,NaN,12.320281,-3.446751,5.990306,3.791725,1.315022,3.731460,0.671995,1.152503,0.325376,-0.988037,-0.117920,-0.057373,0.123601,-0.034466,0.059076,0.999976,0.003360,0.005762,0.001627,-0.241273,-0.567712,0.187460,-0.764427
22636,NaN,12.109496,-3.766543,7.312760,4.851879,0.997057,3.962759,-0.000608,1.774401,0.161441,-0.986084,-0.117920,-0.076416,0.121768,-0.037567,0.072049,0.999960,-0.000003,0.008872,0.000807,-0.236182,-0.561906,0.181311,-0.771755
22637,NaN,11.150023,-3.597471,5.945265,3.701141,1.582739,2.693320,-0.188393,2.360056,0.106867,-0.981934,-0.113525,-0.099854,0.112211,-0.035860,0.058165,0.999930,-0.000942,0.011800,0.000534,-0.238419,-0.552441,0.179543,-0.778286
22638,NaN,10.252091,-3.297581,2.714364,0.977177,3.096118,0.808003,0.060619,2.748336,0.197397,-0.984131,-0.113525,-0.127197,0.102913,-0.032882,0.025721,0.999905,0.000303,0.013741,0.000987,-0.235236,-0.542197,0.173488,-0.787774
22639,NaN,9.390095,-1.856814,2.258950,-0.169276,2.123571,-0.211653,-0.078131,2.857651,0.310443,-0.982422,-0.104736,-0.154785,0.094240,-0.018414,0.021252,0.999897,-0.000391,0.014288,0.001552,-0.236677,-0.530524,0.171262,-0.795737
22640,NaN,9.679769,-1.098393,2.179030,-1.038127,1.702929,-0.031737,-0.545846,3.093282,0.483606,-0.980469,-0.104736,-0.188721,0.097146,-0.010693,0.020319,0.999874,-0.002729,0.015466,0.002418,-0.234335,-0.517630,0.168480,-0.805457
22641,NaN,9.544600,0.590714,0.921275,-3.173805,1.044473,-0.805950,-1.277346,3.794221,0.542505,-0.970459,-0.095947,-0.230957,0.095581,0.006217,0.007361,0.999796,-0.006386,0.018970,0.002712,-0.238601,-0.500292,0.170552,-0.814671
22642,NaN,11.755317,0.549862,1.627698,-3.894998,1.361642,1.326807,-1.411045,4.587392,0.438758,-0.972656,-0.091553,-0.262695,0.117872,0.005859,0.013535,0.999710,-0.007055,0.022935,0.002194,-0.241839,-0.479591,0.170865,-0.826021
22643,NaN,9.469395,-0.076576,3.239290,-1.839547,0.735494,-0.003059,-0.232089,4.179043,0.197351,-0.960205,-0.089355,-0.311523,0.095344,-0.000636,0.030406,0.999781,-0.001160,0.020894,0.000987,-0.245094,-0.461779,0.167210,-0.835901
22644,NaN,8.416784,-1.893825,3.514219,-0.511190,2.002090,-0.729912,-1.122731,4.289889,0.350764,-0.946045,-0.078613,-0.349609,0.084930,-0.018599,0.033431,0.999753,-0.005613,0.021448,0.001754,-0.246962,-0.442447,0.166303,-0.845928
22645,NaN,9.462067,-2.237463,3.429060,-1.244966,2.757419,0.042653,-1.862293,4.330416,0.470126,-0.933594,-0.069824,-0.392090,0.095388,-0.021843,0.032436,0.999719,-0.009311,0.021650,0.002350,-0.252621,-0.421319,0.169829,-0.854301
22646,NaN,8.367795,-1.206477,5.582045,-0.328526,0.657125,0.290590,-1.372339,4.617246,0.711564,-0.919189,-0.056885,-0.421875,0.084979,-0.011389,0.053948,0.999704,-0.006861,0.023084,0.003557,-0.253811,-0.399523,0.170584,-0.864212
22647,NaN,8.757700,1.152168,4.167840,-3.147051,-0.289411,-0.571700,-0.779898,3.787410,0.598677,-0.911133,-0.050293,-0.462158,0.088309,0.011943,0.039965,0.999809,-0.003899,0.018936,0.002993,-0.255959,-0.381583,0.170314,-0.871707
22648,NaN,5.779743,3.253984,3.144310,-3.472609,-2.351018,-3.788541,-0.657531,3.005204,0.542007,-0.894531,-0.041748,-0.481201,0.058171,0.032798,0.030463,0.999878,-0.003288,0.015025,0.002710,-0.253783,-0.367804,0.169219,-0.878453
22649,NaN,1.599503,3.515353,4.550651,-0.475843,-4.540689,-5.968337,-0.974564,2.256849,0.551233,-0.892822,-0.031006,-0.498291,0.016408,0.035419,0.045151,0.999921,-0.004873,0.011284,0.002756,-0.255040,-0.356160,0.171640,-0.882408
22650,NaN,5.319733,2.677873,3.552505,-2.906836,-2.177328,-3.905085,-0.872771,0.884610,0.266416,-0.884277,-0.028809,-0.506836,0.053318,0.027004,0.035172,0.999980,-0.004364,0.004423,0.001332,-0.251678,-0.351796,0.173204,-0.884815
22651,NaN,7.658541,1.205010,5.166314,-2.739584,-0.981769,-0.962462,-0.439423,0.703005,-0.242041,-0.877930,-0.032959,-0.513184,0.076781,0.012070,0.051367,0.999991,-0.002197,0.003515,-0.001210,-0.254124,-0.348340,0.173839,-0.885359
22652,NaN,6.995627,-0.819606,4.031757,-1.815025,1.008381,-1.967028,-0.492138,0.499779,-0.230052,-0.878174,-0.028809,-0.515137,0.070047,-0.008178,0.040163,0.999993,-0.002461,0.002499,-0.001150,-0.254018,-0.346251,0.174072,-0.886163
22653,NaN,6.264544,-3.191546,3.559972,-0.263451,2.932578,-2.502800,-0.190931,0.251169,-0.230536,-0.884277,-0.030762,-0.517334,0.062653,-0.031954,0.035552,0.999998,-0.000955,0.001256,-0.001153,-0.255583,-0.345097,0.174203,-0.886137
22654,NaN,7.110685,-4.384516,4.361508,0.294652,3.795999,-1.192240,0.014396,-0.149861,-0.199546,-0.882324,-0.026611,-0.513184,0.071030,-0.043919,0.043665,0.999999,0.000072,-0.000749,-0.000998,-0.253577,-0.346612,0.173035,-0.886351
22655,NaN,6.658619,-4.853569,4.523038,0.969968,3.956523,-1.341734,0.418715,-0.517473,-0.282826,-0.886230,-0.035156,-0.508789,0.066400,-0.048724,0.045300,0.999993,0.002094,-0.002587,-0.001414,-0.253651,-0.349679,0.171347,-0.885452
22656,NaN,5.344545,-4.549608,4.446048,1.618913,3.338539,-2.378765,0.866517,-0.865971,-0.334000,-0.892334,-0.043701,-0.502441,0.053177,-0.045778,0.044493,0.999980,0.004333,-0.004330,-0.001670,-0.249761,-0.355609,0.167065,-0.885015
22657,NaN,4.276609,-3.272383,4.238197,1.528804,2.070040,-3.461529,1.133149,-1.205245,-0.339544,-0.894287,-0.050293,-0.487549,0.042454,-0.033036,0.042452,0.999964,0.005666,-0.006026,-0.001698,-0.248229,-0.362629,0.162949,-0.883363
22658,NaN,2.339444,-2.375876,4.349106,2.358054,0.689766,-4.914156,1.223666,-1.401361,-0.333186,-0.906738,-0.058838,-0.466309,0.023050,-0.024064,0.043507,0.999955,0.006118,-0.007007,-0.001666,-0.244524,-0.371014,0.158315,-0.881756
22659,NaN,1.710400,-1.404032,4.170420,2.178689,-0.210632,-5.629685,1.109235,-1.542929,-0.266280,-0.912842,-0.067383,-0.459961,0.016763,-0.014294,0.041756,0.999954,0.005546,-0.007715,-0.001331,-0.242404,-0.379367,0.154814,-0.879405
22660,NaN,1.472299,-0.290765,3.666346,1.490614,-0.968645,-6.272391,0.886923,-1.525058,-0.168533,-0.912598,-0.071777,-0.449219,0.014440,-0.003083,0.036761,0.999961,0.004435,-0.007625,-0.000843,-0.237834,-0.387711,0.151769,-0.877543
22661,NaN,1.287530,0.474004,3.046214,0.870280,-1.391449,-6.902696,0.492024,-1.624938,-0.111324,-0.929443,-0.069580,-0.430176,0.012630,0.004658,0.030577,0.999964,0.002460,-0.008125,-0.000557,-0.236123,-0.395497,0.151325,-0.874602
22662,NaN,1.585653,1.870366,2.415506,-0.381451,-2.217128,-7.207719,0.008099,-1.751427,0.009429,-0.935791,-0.073975,-0.415283,0.015643,0.018703,0.024293,0.999962,0.000040,-0.008757,0.000047,-0.232858,-0.403450,0.152849,-0.871575
22663,NaN,2.927510,3.317050,4.121164,-0.764249,-3.876549,-5.236180,-0.050276,-2.116015,0.133737,-0.948486,-0.069824,-0.392090,0.028815,0.033200,0.041510,0.999944,-0.000251,-0.010580,0.000669,-0.230742,-0.412489,0.155797,-0.867375
22664,NaN,4.429466,4.356372,6.168680,-0.679125,-5.376540,-2.936714,-0.025858,-2.559910,0.182017,-0.950439,-0.069824,-0.362305,0.043461,0.043612,0.062241,0.999918,-0.000129,-0.012799,0.000910,-0.225826,-0.423756,0.158357,-0.862761
22665,NaN,5.502982,4.522737,7.015318,-0.586594,-5.748598,-1.654514,0.285412,-2.996678,0.029702,-0.967529,-0.067871,-0.336914,0.053963,0.045134,0.071032,0.999887,0.001427,-0.014983,0.000149,-0.222691,-0.436934,0.160558,-0.856574
22666,NaN,5.924246,2.043040,7.565763,1.145245,-3.904271,-0.871291,0.524136,-3.134918,-0.162983,-0.971436,-0.072266,-0.307373,0.058063,0.020183,0.076627,0.999873,0.002621,-0.015674,-0.000815,-0.217023,-0.451481,0.159963,-0.850575
22667,NaN,6.583474,-1.218007,8.199930,3.227504,-1.366150,0.175896,0.644641,-3.191630,-0.192529,-0.983887,-0.074463,-0.277588,0.064504,-0.012509,0.082996,0.999867,0.003223,-0.015957,-0.000963,-0.213801,-0.465848,0.160233,-0.843564
22668,NaN,7.891991,-2.988340,8.531990,4.053676,0.191460,1.480201,0.580349,-3.075612,-0.059432,-0.985596,-0.085205,-0.250000,0.077587,-0.030156,0.086433,0.999878,0.002902,-0.015377,-0.000297,-0.208108,-0.479724,0.159581,-0.837311
22669,NaN,10.490501,-3.512709,8.941040,3.780181,0.833165,3.874332,0.685426,-3.038387,0.079359,-0.996338,-0.076660,-0.216309,0.103546,-0.035396,0.090869,0.999879,0.003427,-0.015191,0.000397,-0.203678,-0.493036,0.160048,-0.830551
22670,NaN,13.206590,-3.456354,11.985992,5.289083,-0.287652,7.563865,0.702095,-2.995029,0.032837,-1.004639,-0.083252,-0.190918,0.130258,-0.034967,0.121697,0.999882,0.003510,-0.014975,0.000164,-0.198738,-0.506037,0.159768,-0.823957
22671,NaN,13.232899,-1.006426,13.949507,6.036609,-3.462165,8.139097,0.429331,-2.325869,-0.308552,-1.002197,-0.085449,-0.169678,0.130679,-0.010568,0.140999,0.999929,0.002147,-0.011629,-0.001543,-0.197047,-0.516256,0.159523,-0.818049
22672,NaN,11.640315,1.801760,9.454544,2.088488,-4.105105,4.571803,0.717193,-1.225803,-0.564319,-1.006104,-0.098389,-0.163330,0.115870,0.017349,0.095320,0.999971,0.003586,-0.006129,-0.002822,-0.196272,-0.522137,0.156074,-0.815163
22673,NaN,9.028012,1.727704,5.432518,0.111954,-2.555640,0.553441,1.206251,-0.638057,-0.612804,-1.006104,-0.096191,-0.150635,0.090158,0.016671,0.054715,0.999972,0.006031,-0.003190,-0.003064,-0.195113,-0.526386,0.150184,-0.813814
22674,NaN,6.710062,1.224557,2.680555,-0.890487,-1.185084,-2.635518,1.024427,-0.544855,-0.738106,-1.009766,-0.111328,-0.144043,0.067071,0.011860,0.027050,0.999976,0.005122,-0.002724,-0.003691,-0.195221,-0.529764,0.144521,-0.812621
22675,NaN,6.122479,0.707503,0.887455,-1.795807,-0.005622,-3.850534,0.711440,-1.119748,-0.709657,-1.011963,-0.113525,-0.131348,0.061198,0.006825,0.009242,0.999972,0.003557,-0.005599,-0.003548,-0.195402,-0.535506,0.140844,-0.809453
22676,NaN,7.374583,0.260480,0.923884,-1.904385,0.575482,-2.647012,1.061948,-1.462402,-0.312628,-1.009521,-0.117920,-0.110107,0.073679,0.002439,0.009791,0.999958,0.005310,-0.007312,-0.001563,-0.191989,-0.542503,0.136355,-0.806373
22677,NaN,10.646056,0.184174,-0.997413,-4.439332,1.949104,-0.280712,1.497081,-1.438046,-0.063818,-1.017822,-0.124268,-0.097412,0.106529,0.001879,-0.009194,0.999946,0.007485,-0.007190,-0.000319,-0.187191,-0.549753,0.131524,-0.803388
22678,NaN,12.799622,-0.902076,-1.654441,-5.113319,3.458471,1.557138,2.032610,-1.092110,-0.206388,-1.009033,-0.126465,-0.082764,0.128075,-0.008989,-0.015937,0.999933,0.010163,-0.005460,-0.001032,-0.180514,-0.556123,0.122775,-0.801915
22679,NaN,7.812207,-3.165965,-2.097564,-2.903935,4.875129,-3.235925,1.726929,-0.897849,0.004147,-1.015381,-0.126465,-0.065674,0.078217,-0.031477,-0.020897,0.999953,0.008635,-0.004489,0.000021,-0.175132,-0.561254,0.116671,-0.800444
22680,NaN,11.883737,-3.684166,-1.594668,-3.465252,5.689358,0.815540,-0.099489,-1.583178,0.285378,-1.013428,-0.117920,-0.053223,0.119011,-0.036680,-0.014987,0.999968,-0.000497,-0.007916,0.001427,-0.172441,-0.567363,0.118546,-0.796436
22681,NaN,15.834819,-3.812857,0.343351,-2.712302,5.494322,5.281846,-1.258897,-1.669836,0.127061,-1.017578,-0.122314,-0.040283,0.158335,-0.038000,0.004995,0.999945,-0.006294,-0.008349,0.000635,-0.174503,-0.572821,0.125358,-0.791018
22682,NaN,17.691199,-4.533257,2.256129,-1.032406,5.475616,7.724763,-1.921408,-1.312727,-0.103990,-1.017578,-0.122314,-0.027588,0.176733,-0.045198,0.024156,0.999932,-0.009607,-0.006563,-0.000520,-0.178574,-0.576529,0.133180,-0.786123
22683,NaN,18.348762,-5.504817,4.901901,1.726651,5.168918,9.195292,-1.952535,-0.858280,-0.174511,-1.012939,-0.130859,-0.029785,0.183226,-0.054721,0.050341,0.999943,-0.009762,-0.004291,-0.000873,-0.184303,-0.578242,0.141115,-0.782148
22684,NaN,16.609802,-5.117617,5.638862,2.791390,4.105743,7.771996,-2.265886,-0.085031,-0.169547,-1.019531,-0.130859,-0.036133,0.166031,-0.050673,0.057035,0.999935,-0.011329,-0.000425,-0.000848,-0.192627,-0.576344,0.150734,-0.779745
22685,NaN,12.432702,-4.214365,7.234601,4.794631,1.907556,4.260085,-2.479632,0.691749,-0.183721,-1.015381,-0.128662,-0.051025,0.124539,-0.041360,0.072432,0.999917,-0.012398,0.003459,-0.000919,-0.200991,-0.571350,0.159197,-0.779627
22686,NaN,7.061849,-2.926010,10.917287,8.497996,-1.923608,0.271702,-2.739775,1.095537,-0.343008,-1.015137,-0.135010,-0.065674,0.071168,-0.027886,0.109172,0.999890,-0.013698,0.005477,-0.001715,-0.213451,-0.563939,0.169963,-0.779438
22687,NaN,5.489629,-4.225416,10.234054,8.898335,-0.860818,-1.280394,-1.889051,1.760382,-0.422942,-1.017334,-0.139404,-0.084717,0.055708,-0.041405,0.102246,0.999914,-0.009445,0.008802,-0.002115,-0.221899,-0.555374,0.174244,-0.782278
22688,NaN,5.985718,-4.668736,5.946485,5.496763,1.740796,-2.083467,-0.116142,1.406815,-0.223440,-1.012939,-0.139404,-0.093018,0.060221,-0.046720,0.059069,0.999974,-0.000581,0.007034,-0.001117,-0.227168,-0.549060,0.174913,-0.785069
22689,NaN,9.429460,-2.789548,4.134634,1.979953,1.740259,0.523778,0.336286,0.437284,-0.094843,-1.012939,-0.141357,-0.095215,0.094371,-0.028009,0.041093,0.999996,0.001681,0.002186,-0.000474,-0.226995,-0.547806,0.172840,-0.786453
22690,NaN,16.079894,1.514514,9.741559,1.976330,-3.656500,8.585101,-0.101220,0.254758,0.069625,-1.017334,-0.137207,-0.101562,0.160918,0.015250,0.097203,0.999999,-0.000506,0.001274,0.000348,-0.228498,-0.546067,0.174493,-0.786862
22691,NaN,18.272279,4.950204,10.078423,-0.380200,-6.259266,10.696579,0.499802,0.844485,-0.058026,-1.015137,-0.143555,-0.107910,0.183161,0.049198,0.100135,0.999988,0.002499,0.004222,-0.000290,-0.228091,-0.543360,0.171407,-0.789528
22692,NaN,13.981716,6.107791,1.076658,-6.801302,-3.200388,3.508431,2.032583,1.226674,-0.040909,-1.017334,-0.145752,-0.114258,0.139895,0.060941,0.010529,0.999930,0.010163,0.006133,-0.000205,-0.224699,-0.540338,0.162787,-0.794384
22693,NaN,8.916467,5.613848,-4.148753,-9.064148,-1.106076,-3.115847,2.201492,1.022766,0.021407,-1.019287,-0.152100,-0.122559,0.088947,0.056603,-0.041321,0.999926,0.011007,0.005114,0.000107,-0.219478,-0.538692,0.152945,-0.798904
22694,NaN,4.963206,3.554471,-3.807767,-6.467926,-0.283212,-6.673842,0.684921,0.811828,-0.081279,-1.017090,-0.149902,-0.126953,0.049492,0.035655,-0.038157,0.999986,0.003425,0.004059,-0.000406,-0.219598,-0.535917,0.149932,-0.801305
22695,NaN,4.242023,3.158331,2.019827,-1.430241,-2.858333,-5.140026,-1.148696,-0.106142,-0.257878,-1.017090,-0.149902,-0.131104,0.042450,0.031644,0.020039,0.999983,-0.005743,-0.000531,-0.001289,-0.223622,-0.535265,0.153962,-0.799863
22696,NaN,5.330405,4.036171,9.434596,3.536329,-7.067324,-1.371112,-1.801242,-1.023130,-0.293379,-1.021240,-0.152100,-0.122559,0.052882,0.041133,0.094249,0.999945,-0.009006,-0.005116,-0.001467,-0.229053,-0.537413,0.161754,-0.795335
22697,NaN,10.201705,3.523036,9.774988,2.504237,-6.013038,3.210651,-1.116940,-0.919908,-0.053309,-1.014893,-0.152100,-0.112061,0.101576,0.035750,0.098019,0.999974,-0.005585,-0.004599,-0.000267,-0.231512,-0.539821,0.167107,-0.791878
22698,NaN,12.119434,3.483269,3.786407,-2.726772,-2.621999,2.798435,-0.427943,-0.210970,0.169089,-1.023193,-0.156250,-0.116211,0.121125,0.035016,0.037917,0.999997,-0.002140,-0.001055,0.000845,-0.231963,-0.539839,0.169507,-0.791223
22699,NaN,12.185546,3.296996,0.245699,-5.408998,-0.640374,1.578127,-0.813494,-0.026200,0.155243,-1.019287,-0.149902,-0.118408,0.121829,0.033074,0.002339,0.999991,-0.004067,-0.000131,0.000776,-0.233517,-0.538863,0.173178,-0.790636
22700,NaN,11.112344,1.547848,1.393841,-3.246635,0.026759,1.016967,-1.451894,0.005322,-0.063789,-1.021240,-0.149902,-0.120605,0.111129,0.015544,0.013823,0.999974,-0.007259,0.000027,-0.000319,-0.239178,-0.536768,0.179592,-0.788936
22701,NaN,9.323137,-0.926705,4.044753,0.715695,0.271377,0.363441,-1.609220,-0.039234,-0.162123,-1.019287,-0.152100,-0.131104,0.093216,-0.009017,0.040539,0.999967,-0.008046,-0.000196,-0.000811,-0.244090,-0.535126,0.185551,-0.787167
22702,NaN,7.811787,-2.814724,5.464035,3.354216,0.662098,-0.479268,-1.177396,-0.294929,-0.193323,-1.014893,-0.149902,-0.120605,0.078010,-0.027900,0.054920,0.999981,-0.005887,-0.001475,-0.000967,-0.249644,-0.534495,0.191177,-0.784503
22703,NaN,7.271478,-3.081824,5.927101,4.056505,0.438628,-0.820789,-0.702541,-0.691352,-0.177460,-1.023438,-0.152100,-0.112061,0.072482,-0.030674,0.059630,0.999987,-0.003513,-0.003457,-0.000887,-0.251550,-0.536492,0.194324,-0.781752
22704,NaN,7.161571,-1.715529,5.777973,3.208503,-0.663518,-1.044534,-0.608789,-0.960211,-0.120314,-1.021240,-0.154297,-0.107910,0.071327,-0.017022,0.058175,0.999984,-0.003044,-0.004801,-0.000602,-0.253293,-0.539337,0.197884,-0.778332
22705,NaN,7.974617,-0.280348,4.650323,1.326598,-1.075891,-0.736321,-0.571072,-1.011553,-0.042207,-1.023438,-0.149902,-0.095215,0.079509,-0.002687,0.046914,0.999983,-0.002855,-0.005058,-0.000211,-0.253989,-0.542582,0.201275,-0.774973
22706,NaN,9.502382,-0.081569,3.285485,-0.168688,-0.231447,0.237856,-0.407940,-1.024425,-0.083075,-1.023193,-0.152100,-0.088867,0.094854,-0.000787,0.033343,0.999985,-0.002040,-0.005122,-0.000415,-0.254978,-0.545810,0.204247,-0.771596
22707,NaN,10.133387,-0.598653,2.826959,-0.269984,0.497927,0.709370,0.264357,-1.066269,-0.208513,-1.020996,-0.154297,-0.084473,0.101175,-0.006130,0.028801,0.999984,0.001322,-0.005331,-0.001043,-0.253964,-0.550464,0.204019,-0.768679
22708,NaN,9.508649,-1.342733,3.215885,0.731565,0.715613,0.262601,0.373541,-0.781676,-0.168174,-1.023193,-0.156494,-0.073975,0.094949,-0.013568,0.032505,0.999990,0.001868,-0.003908,-0.000841,-0.253953,-0.553661,0.203859,-0.766426
22709,NaN,8.905417,-1.392314,2.587895,0.515405,1.005052,-0.503224,0.223997,-0.657506,-0.108102,-1.024902,-0.160889,-0.059082,0.088961,-0.014000,0.026156,0.999994,0.001120,-0.003288,-0.000541,-0.253072,-0.556571,0.203540,-0.764693
22710,NaN,8.372606,-0.780054,2.692222,0.396738,0.351843,-0.999304,-0.036926,-0.493643,-0.058223,-1.025146,-0.154297,-0.065430,0.083657,-0.007820,0.027130,0.999997,-0.000185,-0.002468,-0.000291,-0.253761,-0.558107,0.204709,-0.763031
22711,NaN,8.739033,-0.378318,1.908238,-0.497778,0.543557,-0.890137,0.149673,-0.281921,-0.041202,-1.025146,-0.156494,-0.057129,0.087363,-0.003816,0.019203,0.999999,0.000748,-0.001410,-0.000206,-0.253208,-0.559413,0.204385,-0.762345
22712,NaN,8.616838,-0.578437,3.012451,0.503872,0.025347,-0.680067,0.647825,-0.193256,-0.023521,-1.022949,-0.158691,-0.054932,0.086139,-0.005892,0.030189,0.999994,0.003239,-0.000966,-0.000118,-0.251758,-0.560730,0.202397,-0.762388
22713,NaN,8.857948,-1.800706,3.850658,1.845083,0.546359,-0.177831,0.825769,-0.229853,0.091698,-1.027344,-0.154297,-0.054932,0.088543,-0.018126,0.038534,0.999991,0.004129,-0.001149,0.000458,-0.248855,-0.562546,0.199798,-0.762688
22714,NaN,10.269458,-2.855712,2.738927,1.287115,2.275198,0.877740,1.087653,0.112502,0.306302,-1.022949,-0.158691,-0.052734,0.102754,-0.028548,0.027176,0.999984,0.005438,0.000563,0.001532,-0.245193,-0.562897,0.196673,-0.764426
22715,NaN,11.090215,-3.895896,2.763487,1.644319,3.268334,1.694714,1.103305,0.820886,0.437310,-1.027588,-0.147949,-0.061279,0.111099,-0.038866,0.026965,0.999974,0.005516,0.004104,0.002187,-0.241214,-0.560666,0.192681,-0.768339
22716,NaN,10.923845,-4.494473,3.578957,2.520081,3.340914,1.798680,0.753414,1.365606,0.470561,-1.023438,-0.143555,-0.076172,0.109584,-0.044820,0.034873,0.999967,0.003767,0.006828,0.002353,-0.239487,-0.555490,0.190125,-0.773259
22717,NaN,10.752884,-4.760890,4.379920,3.137675,3.187424,1.911827,0.603638,1.850852,0.551738,-1.030029,-0.139404,-0.095215,0.108058,-0.047441,0.042657,0.999949,0.003018,0.009254,0.002759,-0.237421,-0.548503,0.187103,-0.779595
22718,NaN,9.529791,-4.323866,4.460970,3.054964,2.698835,0.807545,0.552787,2.407669,0.735992,-1.034668,-0.128418,-0.118408,0.095983,-0.043007,0.043338,0.999917,0.002764,0.012038,0.003680,-0.235866,-0.538711,0.184636,-0.787443
22719,NaN,9.475009,-4.321101,3.652033,2.187271,3.249272,0.504082,0.750635,2.436643,0.893782,-1.028320,-0.130615,-0.143799,0.095377,-0.042919,0.035199,0.999909,0.003753,0.012183,0.004469,-0.232550,-0.529128,0.181203,-0.795682
22720,NaN,10.390969,-3.098233,1.340602,-0.817683,3.732595,0.422624,0.355467,2.293824,0.849147,-1.029053,-0.113281,-0.165039,0.104184,-0.030563,0.012158,0.999924,0.001777,0.011469,0.004246,-0.230942,-0.519252,0.179978,-0.802901
22721,NaN,11.912978,-3.027371,3.398149,-0.157154,2.979043,2.585674,0.447440,2.936080,0.743000,-1.031250,-0.111084,-0.198975,0.119722,-0.029903,0.032160,0.999883,0.002237,0.014680,0.003715,-0.229409,-0.507252,0.176704,-0.811691
22722,NaN,12.909468,-1.829814,3.516740,-1.522302,2.283757,3.409095,-0.366522,3.752606,0.657035,-1.021240,-0.098145,-0.239258,0.129784,-0.017811,0.032769,0.999817,-0.001832,0.018762,0.003285,-0.231189,-0.490693,0.175926,-0.821475
22723,NaN,11.939434,0.010142,2.492830,-3.354195,1.297656,1.840788,-0.408678,4.563086,0.590758,-1.008789,-0.097900,-0.279541,0.119920,0.000502,0.022195,0.999733,-0.002043,0.022813,0.002954,-0.233713,-0.470828,0.173737,-0.832775
22724,NaN,12.721900,1.968072,-0.002221,-6.969282,1.361459,0.923861,0.014682,4.045479,0.216682,-1.002686,-0.091553,-0.321777,0.127162,0.019819,-0.002593,0.999795,0.000073,0.020226,0.001083,-0.236692,-0.453491,0.169928,-0.842287
22725,NaN,10.595830,5.364322,-0.599410,-8.583488,-1.452560,-1.713219,0.153544,4.602766,0.124881,-0.986084,-0.089111,-0.364258,0.105750,0.053715,-0.008388,0.999735,0.000768,0.023012,0.000624,-0.239661,-0.434063,0.164078,-0.852778
22726,NaN,11.748069,5.637839,-3.399368,-11.446506,0.242113,-2.723676,-1.520006,3.582477,-0.107070,-0.977783,-0.086914,-0.398193,0.116872,0.056045,-0.036518,0.999811,-0.007600,0.017911,-0.000535,-0.246574,-0.416908,0.166337,-0.858907
22727,NaN,9.744587,6.058660,-2.962824,-10.560966,-0.633213,-4.475308,-1.378070,4.017243,-0.117081,-0.961182,-0.078125,-0.438477,0.096854,0.060315,-0.031994,0.999774,-0.006890,0.020085,-0.000585,-0.253229,-0.397959,0.167025,-0.865798
22728,NaN,-0.635941,2.394174,20.641084,11.186723,-12.280641,2.684836,-1.193006,3.403267,0.109404,-0.955078,-0.069580,-0.461670,-0.002861,0.025171,0.206332,0.999837,-0.005965,0.017015,0.000547,-0.258244,-0.381647,0.168340,-0.871388
22729,NaN,2.517943,1.415675,6.095519,1.168230,-3.338624,-4.069374,-1.994969,1.820072,-0.069343,-0.948975,-0.069580,-0.478760,0.025737,0.014753,0.060577,0.999909,-0.009975,0.009100,-0.000347,-0.263856,-0.371164,0.174539,-0.873014
22730,NaN,7.165270,2.317855,1.839602,-4.582236,-0.368744,-3.570610,-1.196309,1.309965,-0.229069,-0.944824,-0.065186,-0.489258,0.071797,0.023204,0.017787,0.999960,-0.005981,0.006550,-0.001145,-0.268242,-0.364073,0.177629,-0.874039
22731,NaN,5.272485,2.032147,4.903193,-1.738088,-2.291314,-2.906336,-1.391633,1.162945,-0.181476,-0.934814,-0.050049,-0.502197,0.053027,0.020613,0.048581,0.999958,-0.006958,0.005815,-0.000907,-0.272585,-0.357269,0.181817,-0.874642
22732,NaN,3.547690,0.662571,4.151775,-0.368881,-1.428154,-4.513048,-1.577715,0.678810,-0.150899,-0.936768,-0.054443,-0.506348,0.035623,0.006925,0.041343,0.999963,-0.007888,0.003394,-0.000754,-0.276677,-0.352338,0.187491,-0.874160
22733,NaN,3.960239,-1.682531,3.016809,0.207219,1.104369,-4.679184,-1.321223,0.050918,-0.230841,-0.936768,-0.054443,-0.508545,0.039591,-0.016671,0.030268,0.999977,-0.006606,0.000255,-0.001154,-0.280049,-0.350494,0.192789,-0.872673
22734,NaN,3.959388,-3.350149,2.555931,1.029796,2.597899,-4.750743,-0.654731,-0.483827,-0.360215,-0.938965,-0.052246,-0.506348,0.039471,-0.033489,0.025765,0.999990,-0.003274,-0.002419,-0.001801,-0.282302,-0.352095,0.195661,-0.870662
22735,NaN,5.243051,-4.178660,2.666709,0.898215,3.599784,-3.624275,0.171557,-1.013675,-0.496064,-0.945068,-0.060791,-0.493652,0.052191,-0.041939,0.026896,0.999984,0.000858,-0.005068,-0.002480,-0.283158,-0.357228,0.195473,-0.868332
22736,NaN,5.559115,-2.560127,2.392391,-0.378869,2.613540,-3.795458,0.603131,-0.970790,-0.467631,-0.951172,-0.065186,-0.482910,0.055414,-0.025804,0.024116,0.999981,0.003016,-0.004854,-0.002338,-0.283243,-0.362785,0.193454,-0.866450
22737,NaN,3.413878,-4.939784,4.643097,3.605168,2.481126,-3.611072,1.254450,-1.344347,-0.502883,-0.955078,-0.073975,-0.463867,0.033702,-0.049774,0.046347,0.999955,0.006272,-0.006722,-0.002514,-0.281828,-0.370854,0.189007,-0.864475
22738,NaN,2.608226,-4.496477,5.936210,4.589376,1.200111,-3.507577,1.404867,-1.925912,-0.728028,-0.963135,-0.086670,-0.442627,0.025346,-0.045475,0.059290,0.999922,0.007024,-0.009629,-0.003640,-0.280671,-0.381828,0.184428,-0.861056
22739,NaN,2.673184,-2.802224,5.123854,3.186952,0.361433,-4.248274,1.142053,-2.213586,-0.933086,-0.971191,-0.097656,-0.425537,0.026032,-0.028438,0.051368,0.999912,0.005710,-0.011068,-0.004665,-0.280437,-0.393786,0.180824,-0.856499
22740,NaN,2.492016,-1.987422,4.755052,2.697921,-0.140230,-4.765866,0.958618,-2.109473,-0.930209,-0.979004,-0.116943,-0.406250,0.024324,-0.020217,0.047713,0.999922,0.004793,-0.010547,-0.004651,-0.280741,-0.404937,0.178008,-0.851777
22741,NaN,3.003748,-0.284379,3.761885,0.903671,-0.779135,-5.140377,0.744054,-1.991231,-0.780384,-0.985107,-0.119141,-0.385254,0.029649,-0.003101,0.037904,0.999936,0.003720,-0.009956,-0.003902,-0.280763,-0.415129,0.176048,-0.847259
22742,NaN,2.990808,2.686699,1.955366,-1.937012,-2.164085,-6.414047,0.766687,-2.080355,-0.530288,-0.991455,-0.121338,-0.364014,0.029773,0.026712,0.019966,0.999935,0.003833,-0.010402,-0.002651,-0.279677,-0.425403,0.174773,-0.842774
22743,NaN,2.819828,3.165202,2.897242,-1.465714,-3.130863,-6.016384,1.235236,-2.378403,-0.243021,-0.999512,-0.132080,-0.338623,0.027888,0.031437,0.029500,0.999909,0.006176,-0.011892,-0.001215,-0.275965,-0.437325,0.172367,-0.838380
22744,NaN,3.019463,4.656418,4.293472,-1.435873,-5.036722,-5.143624,1.400906,-2.394763,0.129549,-1.007812,-0.132080,-0.306641,0.029645,0.046280,0.043617,0.999904,0.007004,-0.011973,0.000648,-0.270312,-0.449115,0.170144,-0.834433
22745,NaN,3.475262,4.129761,1.746472,-2.849075,-3.215233,-6.107880,0.737738,-3.146767,0.249422,-1.016357,-0.127930,-0.272949,0.034419,0.041275,0.018160,0.999869,0.003689,-0.015733,0.001247,-0.264897,-0.462967,0.171862,-0.828223
22746,NaN,7.934497,2.885134,3.196468,-2.848421,-1.894971,-1.459073,0.165115,-4.037315,0.226705,-1.026855,-0.125977,-0.232666,0.078645,0.028913,0.033581,0.999795,0.000826,-0.020185,0.001133,-0.260009,-0.479622,0.176964,-0.819172
22747,NaN,8.969222,1.744203,5.599024,-0.599291,-2.249305,0.646886,0.783309,-4.136148,0.354670,-1.032715,-0.132568,-0.188232,0.088477,0.017375,0.057897,0.999777,0.003916,-0.020679,0.001773,-0.252956,-0.497157,0.179949,-0.810226
22748,NaN,10.409598,-0.067588,10.134565,3.559278,-3.135511,3.918838,1.506143,-3.242300,0.636377,-1.043701,-0.122070,-0.154541,0.102438,-0.001120,0.103008,0.999835,0.007530,-0.016211,0.003182,-0.243598,-0.511573,0.179384,-0.804223
22749,NaN,13.743468,-1.481941,10.399605,3.791667,-1.636050,6.984847,1.312350,-2.976070,0.675446,-1.043701,-0.113525,-0.125000,0.135919,-0.015050,0.105928,0.999862,0.006561,-0.014880,0.003377,-0.234818,-0.524460,0.179440,-0.798501
22750,NaN,15.204584,-2.507466,9.050605,3.244832,-0.016706,7.761044,1.119063,-2.565126,0.540203,-1.049805,-0.115723,-0.095215,0.150938,-0.025179,0.092306,0.999898,0.005595,-0.012825,0.002701,-0.227270,-0.535476,0.179204,-0.793410
22751,NaN,15.337423,-3.915318,8.424110,3.792705,1.352279,7.660528,0.886526,-1.620887,0.205501,-1.049805,-0.117920,-0.088867,0.152726,-0.039373,0.085306,0.999957,0.004433,-0.008104,0.001027,-0.222615,-0.542705,0.178077,-0.790065
22752,NaN,13.778263,-3.001192,7.295939,3.063342,0.890883,5.740442,0.484152,-0.555287,-0.195860,-1.047852,-0.111572,-0.084717,0.137550,-0.030324,0.073268,0.999993,0.002421,-0.002776,-0.000979,-0.221456,-0.545569,0.176105,-0.788859
22753,NaN,10.156274,-1.706208,5.913490,2.443897,-0.005064,1.808728,0.406207,0.234583,-0.429009,-1.045166,-0.126465,-0.086670,0.101595,-0.017400,0.058981,0.999995,0.002031,0.001173,-0.002145,-0.222241,-0.545467,0.173077,-0.789379
22754,NaN,8.399627,-0.633499,3.348887,0.389691,0.199301,-0.758506,0.396437,0.445241,-0.394474,-1.055908,-0.122070,-0.088867,0.084058,-0.006567,0.033289,0.999994,0.001982,0.002226,-0.001972,-0.222982,-0.544420,0.169822,-0.790599
22755,NaN,8.865181,0.238492,2.105435,-1.195542,0.218069,-0.779180,0.354978,-0.035313,-0.189524,-1.053955,-0.120117,-0.086670,0.088650,0.002264,0.021074,0.999998,0.001775,-0.000177,-0.000948,-0.222730,-0.545113,0.167947,-0.790592
22756,NaN,10.078902,0.653984,0.275847,-3.205054,0.999901,-0.282961,0.503455,-0.438067,0.009706,-1.056152,-0.117920,-0.076172,0.100782,0.006537,0.002996,0.999994,0.002517,-0.002190,0.000049,-0.220841,-0.547332,0.166360,-0.789925
22757,NaN,10.955500,0.309191,-0.215438,-3.637373,1.658978,0.394274,0.654917,-0.473254,0.021054,-1.055908,-0.124268,-0.072021,0.109559,0.003110,-0.001885,0.999992,0.003275,-0.002366,0.000105,-0.218566,-0.549900,0.164358,-0.789193
22758,NaN,11.015157,-0.868476,1.042008,-1.998379,2.022088,0.915371,0.224859,-0.349067,-0.071721,-1.055908,-0.122314,-0.065674,0.110130,-0.008736,0.010603,0.999998,0.001124,-0.001745,-0.000359,-0.217874,-0.551551,0.163580,-0.788393
22759,NaN,11.801489,-2.236226,2.280782,-0.470288,2.667684,2.109536,-0.170488,-0.731068,-0.012315,-1.053711,-0.124512,-0.054932,0.117929,-0.022350,0.023258,0.999993,-0.000852,-0.003655,-0.000062,-0.217789,-0.554252,0.165018,-0.786220
22760,NaN,13.144153,-2.455308,2.697593,-0.321648,2.788678,3.536186,-0.340796,-0.997103,0.090890,-1.057861,-0.126465,-0.050781,0.131316,-0.024447,0.027673,0.999986,-0.001704,-0.004985,0.000454,-0.217528,-0.557695,0.167685,-0.783288
22761,NaN,15.113163,-2.582204,1.778902,-1.449560,3.573199,5.132867,-0.309897,-0.781383,0.139241,-1.060059,-0.120117,-0.040283,0.151078,-0.025689,0.018419,0.999991,-0.001549,-0.003907,0.000696,-0.217186,-0.560295,0.170141,-0.780994
22762,NaN,14.733945,-2.726913,1.687052,-1.272460,3.613359,4.771391,-0.873357,-0.329203,0.045706,-1.060059,-0.120117,-0.046631,0.147317,-0.027161,0.017232,0.999989,-0.004367,-0.001646,0.000229,-0.219205,-0.560566,0.174114,-0.779358
22763,NaN,12.043699,-2.132457,3.219170,0.391546,1.878653,2.688446,-1.684741,0.161727,-0.159637,-1.057861,-0.126465,-0.046631,0.120446,-0.021149,0.032273,0.999964,-0.008424,0.000809,-0.000798,-0.224678,-0.558206,0.180054,-0.778143
22764,NaN,9.105241,-2.200147,3.526446,1.467219,1.293595,0.003400,-1.927819,0.381472,-0.236534,-1.057861,-0.124512,-0.050781,0.091094,-0.021769,0.035301,0.999951,-0.009639,0.001907,-0.001183,-0.231389,-0.554717,0.186606,-0.777127
22765,NaN,6.304768,-3.101376,5.540869,4.298023,0.446620,-1.977074,-1.586613,0.231367,-0.221675,-1.062012,-0.130859,-0.052734,0.063078,-0.030643,0.055580,0.999967,-0.007933,0.001157,-0.001108,-0.236855,-0.552170,0.191888,-0.776007
22766,NaN,8.331327,-5.046374,8.588406,7.190241,0.555763,0.986785,-0.816830,-0.128388,-0.079931,-1.062012,-0.130859,-0.059082,0.083238,-0.050146,0.086143,0.999991,-0.004084,-0.000642,-0.000400,-0.239374,-0.551720,0.195159,-0.774738
22767,NaN,15.065479,-5.992805,6.466634,4.251210,3.518593,6.747695,-0.339766,0.212268,0.114372,-1.060059,-0.128662,-0.059326,0.150758,-0.059732,0.064608,0.999998,-0.001699,0.001061,0.000572,-0.240071,-0.550376,0.196542,-0.775128
22768,NaN,21.112970,-4.342167,6.803910,1.782567,2.891960,12.533749,-0.412959,0.227544,0.321056,-1.064453,-0.122314,-0.063477,0.211276,-0.042942,0.067888,0.999996,-0.002065,0.001138,0.001605,-0.240275,-0.548571,0.198984,-0.775721
22769,NaN,22.494588,-0.029110,12.673916,3.098001,-3.807974,15.535492,-1.242331,0.612812,0.382685,-1.064453,-0.122314,-0.076172,0.225332,0.000924,0.126046,0.999974,-0.006212,0.003064,0.001913,-0.242797,-0.544305,0.204117,-0.776607
22770,NaN,16.555364,4.351436,11.603174,1.120131,-7.606403,9.384443,-0.154213,1.386874,0.286084,-1.064941,-0.111328,-0.091064,0.166290,0.043841,0.114847,0.999975,-0.000771,0.006934,0.001430,-0.243587,-0.538299,0.204023,-0.780560
22771,NaN,10.868219,3.480734,-3.242720,-7.851725,0.852889,-0.960115,2.555874,2.399195,0.162267,-1.068848,-0.119873,-0.112061,0.108258,0.035317,-0.033278,0.999846,0.012779,0.011995,0.000811,-0.238481,-0.531798,0.191537,-0.789703
22772,NaN,3.037572,2.320522,-8.567584,-8.762915,3.317457,-10.277054,2.171233,1.992953,0.001346,-1.069092,-0.117676,-0.122803,0.029522,0.024136,-0.085714,0.999891,0.010856,0.009964,0.000007,-0.234617,-0.526374,0.180688,-0.797017
22773,NaN,-0.122570,2.376368,-4.057548,-4.359766,0.191192,-11.568173,-0.106966,-0.006900,0.029845,-1.066895,-0.117676,-0.118408,-0.001228,0.023742,-0.040588,1.000000,-0.000535,-0.000035,0.000149,-0.234769,-0.526247,0.181207,-0.796939
22774,NaN,2.435744,4.956185,6.477679,1.242788,-7.146977,-5.359418,-1.305103,-1.456763,0.116780,-1.066895,-0.117920,-0.105713,0.023857,0.049998,0.064626,0.999952,-0.006525,-0.007284,0.000584,-0.236480,-0.530362,0.188557,-0.791984
22775,NaN,7.561079,5.230179,7.043881,-0.175148,-6.874200,-0.493119,-0.887405,-1.044823,0.264809,-1.075684,-0.104980,-0.099609,0.075173,0.052715,0.070599,0.999976,-0.004437,-0.005224,0.001324,-0.236790,-0.533186,0.194009,-0.788672
22776,NaN,11.512103,4.603614,2.050830,-4.800200,-3.001184,1.406860,-0.444922,-0.620006,0.277197,-1.075439,-0.113525,-0.088867,0.114993,0.046242,0.020762,0.999992,-0.002225,-0.003100,0.001386,-0.236245,-0.534816,0.197205,-0.786938
22777,NaN,13.000146,2.235343,2.464583,-3.545997,-1.148700,3.078409,-0.580675,-0.744678,0.175952,-1.079834,-0.107178,-0.086670,0.129889,0.022540,0.025064,0.999988,-0.002903,-0.003723,0.000880,-0.236364,-0.536878,0.200844,-0.784574
22778,NaN,13.340075,-0.118042,5.082370,-0.267109,-0.779945,4.439370,-0.974783,-0.713233,0.100935,-1.077637,-0.109375,-0.078369,0.133219,-0.000864,0.051304,0.999982,-0.004874,-0.003566,0.000505,-0.237814,-0.538440,0.205690,-0.781805
22779,NaN,12.934528,-0.916372,6.170419,1.177574,-0.938977,4.468294,-0.982983,-0.554253,0.074056,-1.077637,-0.104980,-0.078369,0.129177,-0.008811,0.062106,0.999984,-0.004915,-0.002771,0.000370,-0.239592,-0.539351,0.210394,-0.779379
22780,NaN,11.316745,-0.690114,4.146382,0.066015,-0.258155,2.256527,-0.861830,-0.533025,0.012122,-1.075439,-0.107178,-0.072021,0.113057,-0.006715,0.041794,0.999987,-0.004309,-0.002665,0.000061,-0.241245,-0.540401,0.214318,-0.777069
22781,NaN,9.400636,-0.682293,3.375215,0.092262,-0.137941,0.197400,-0.584050,-0.354116,0.032026,-1.079834,-0.104980,-0.072021,0.093947,-0.006709,0.033938,0.999994,-0.002920,-0.001771,0.000160,-0.242313,-0.541032,0.217105,-0.775522
22782,NaN,7.910969,-1.086849,3.452733,0.847163,-0.108062,-1.154939,-0.329926,-0.138371,0.117969,-1.084229,-0.100830,-0.067871,0.079092,-0.010765,0.034600,0.999998,-0.001650,-0.000692,0.000590,-0.242536,-0.541065,0.218767,-0.774962
22783,NaN,7.465328,-1.711343,3.671146,1.520932,0.169910,-1.458346,-0.126726,-0.075778,0.093301,-1.077637,-0.104980,-0.065674,0.074647,-0.017055,0.036751,1.000000,-0.000634,-0.000379,0.000467,-0.242431,-0.541100,0.219608,-0.774732
22784,NaN,7.779547,-1.487358,4.562995,1.961196,-0.510611,-0.899362,0.257187,-0.434698,-0.038905,-1.086182,-0.107178,-0.063477,0.077693,-0.014948,0.045780,0.999997,0.001286,-0.002173,-0.000195,-0.241346,-0.543151,0.218936,-0.773826
22785,NaN,8.112739,-2.597999,5.411080,3.193903,-0.097140,-0.240049,0.665969,-0.249644,0.149769,-1.088135,-0.105225,-0.057129,0.081079,-0.026099,0.054125,0.999993,0.003330,-0.001248,0.000749,-0.238679,-0.544750,0.217072,-0.774054
22786,NaN,9.359609,-2.140980,4.700545,2.039925,0.144728,0.680117,0.965764,-0.218494,0.348175,-1.086182,-0.105225,-0.052979,0.093582,-0.021474,0.047004,0.999986,0.004829,-0.001092,0.001741,-0.234391,-0.546355,0.214446,-0.774964
22787,NaN,11.244930,-1.081306,3.252762,-0.225368,0.397020,1.934215,1.195445,-0.095063,0.405311,-1.086426,-0.096436,-0.057129,0.112456,-0.010780,0.032517,0.999980,0.005977,-0.000475,0.002027,-0.229444,-0.547677,0.211034,-0.776447
22788,NaN,11.655968,-1.131255,2.490909,-0.922433,0.947110,2.086796,1.242342,0.429988,0.285603,-1.088623,-0.094482,-0.059326,0.116629,-0.011299,0.024588,0.999977,0.006212,0.002150,0.001428,-0.225315,-0.547103,0.206412,-0.779298
22789,NaN,10.944720,-0.812557,3.871312,0.084313,-0.129517,1.823858,0.738223,0.945646,0.158035,-1.090820,-0.092285,-0.065674,0.109635,-0.008181,0.038165,0.999982,0.003691,0.004728,0.000790,-0.223648,-0.544074,0.202904,-0.782812
22790,NaN,9.870482,-1.267470,5.360409,1.704419,-0.646070,1.342692,0.289448,1.322783,0.042891,-1.090820,-0.096436,-0.078369,0.099059,-0.012730,0.052931,0.999977,0.001447,0.006614,0.000214,-0.223971,-0.539150,0.200332,-0.786779
22791,NaN,10.839622,-2.618698,6.425301,2.822928,0.093305,2.743519,-0.358042,1.686403,0.007920,-1.090820,-0.094238,-0.110107,0.108934,-0.026069,0.063383,0.999963,-0.001790,0.008432,0.000040,-0.226581,-0.532085,0.199872,-0.790947
22792,NaN,11.995363,-4.029525,5.476870,2.291902,2.085812,3.622638,-0.478254,2.836091,-0.087911,-1.086670,-0.098389,-0.145996,0.120697,-0.040220,0.053157,0.999897,-0.002391,0.014180,-0.000440,-0.230945,-0.520328,0.198227,-0.797891
22793,NaN,9.926563,-3.657873,4.369813,1.652639,2.264126,1.284124,-0.908695,4.201356,0.013497,-1.080566,-0.093994,-0.190430,0.100159,-0.036379,0.041766,0.999769,-0.004543,0.021005,0.000067,-0.237361,-0.502383,0.196996,-0.807752
22794,NaN,9.053843,-3.556789,0.277547,-1.332486,4.486396,-1.281154,-1.531947,4.305629,0.361606,-1.076660,-0.091797,-0.234863,0.090638,-0.035391,0.001096,0.999737,-0.007659,0.021526,0.001808,-0.243884,-0.482634,0.198915,-0.817324
22795,NaN,7.417887,-0.892840,-2.709214,-4.524738,3.839822,-4.527460,-0.870904,4.693312,0.657957,-1.066650,-0.085205,-0.291992,0.073546,-0.008809,-0.028785,0.999710,-0.004354,0.023464,0.003289,-0.247889,-0.461597,0.198286,-0.828349
22796,NaN,6.763704,1.354938,-2.592159,-5.680679,1.955852,-5.547078,-0.380316,5.009972,1.086377,-1.056396,-0.072021,-0.336670,0.066884,0.013863,-0.027630,0.999670,-0.001901,0.025047,0.005431,-0.249173,-0.439111,0.196152,-0.840606
22797,NaN,9.837954,3.057118,-4.578836,-9.641885,2.563762,-4.564426,-0.835267,3.475146,0.658653,-1.050781,-0.059082,-0.372803,0.097462,0.030697,-0.047615,0.999835,-0.004176,0.017375,0.003293,-0.251601,-0.422744,0.196752,-0.848100
22798,NaN,9.578449,1.129937,-2.918403,-7.514453,3.257317,-3.943287,0.759943,4.066442,0.294419,-1.033936,-0.059082,-0.408691,0.095149,0.011555,-0.031079,0.999785,0.003799,0.020331,0.001472,-0.252762,-0.406104,0.189072,-0.857579
22799,NaN,2.001019,0.227984,-3.003901,-3.006927,1.983453,-10.131377,-1.071512,4.410027,0.340858,-1.012939,-0.052490,-0.457520,0.019338,0.002151,-0.030482,0.999741,-0.005357,0.022048,0.001704,-0.257575,-0.385412,0.188741,-0.865731
22800,NaN,-9.214290,0.897331,-2.590883,3.381018,-2.189931,-18.541064,-1.339004,3.533176,0.410212,-1.006836,-0.050293,-0.480713,-0.092600,0.008617,-0.024334,0.999819,-0.006695,0.017665,0.002051,-0.261786,-0.368008,0.190845,-0.871560
22801,NaN,-14.999182,-2.674274,6.412279,13.981717,-6.004171,-16.270514,-0.367082,0.944615,0.452443,-1.009277,-0.041748,-0.485107,-0.149626,-0.026963,0.064879,0.999985,-0.001835,0.004723,0.002262,-0.261382,-0.362971,0.192043,-0.873528
22802,NaN,1.304257,-2.206973,4.014860,2.671647,0.054162,-5.869306,0.367762,0.022048,0.596693,-1.011230,-0.041748,-0.482910,0.013113,-0.022104,0.040107,0.999994,0.001839,0.000110,0.002983,-0.258167,-0.362778,0.191541,-0.874674
22803,NaN,11.006848,1.210932,5.114953,-4.612023,-0.200802,1.477515,0.816249,-0.076790,0.452556,-1.011230,-0.041748,-0.485107,0.110021,0.012149,0.051241,0.999989,0.004081,-0.000384,0.002263,-0.254625,-0.363728,0.188894,-0.875892
22804,NaN,9.465535,2.020110,5.445034,-3.966480,-1.505602,0.450148,0.453967,0.074132,0.304623,-1.011475,-0.039551,-0.487061,0.094645,0.020222,0.054461,0.999996,0.002270,0.000371,0.001523,-0.252572,-0.363699,0.187412,-0.876817
22805,NaN,8.391882,2.864725,5.548936,-3.745185,-2.574554,-0.391102,0.070068,-0.055551,0.150820,-1.009277,-0.035156,-0.480957,0.083882,0.028691,0.055523,1.000000,0.000350,-0.000278,0.000754,-0.251726,-0.363887,0.187454,-0.876973
22806,NaN,6.645804,3.055628,6.187120,-2.447930,-3.601784,-1.279295,-0.267887,-0.087774,0.034536,-1.013672,-0.037354,-0.482910,0.066426,0.030651,0.061859,0.999999,-0.001339,-0.000439,0.000173,-0.251993,-0.363944,0.188804,-0.876583
22807,NaN,4.878612,3.353396,5.598685,-1.880651,-4.098658,-3.026276,-0.708338,-0.225223,0.018486,-1.018066,-0.031006,-0.482910,0.048720,0.033737,0.055922,0.999993,-0.003542,-0.001126,0.000092,-0.252982,-0.364016,0.192230,-0.875523
22808,NaN,4.336929,2.369266,4.487100,-1.589666,-2.934074,-4.031647,-0.828165,-0.601303,0.009795,-1.024170,-0.033203,-0.474365,0.043233,0.023881,0.044902,0.999987,-0.004141,-0.003007,0.000049,-0.253830,-0.365652,0.196566,-0.873631
22809,NaN,4.136316,-0.043778,4.314750,-0.120580,-1.036334,-3.927189,-0.430129,-1.231369,-0.043911,-1.021973,-0.035156,-0.461670,0.041096,-0.000354,0.043402,0.999979,-0.002151,-0.006157,-0.000220,-0.253587,-0.370518,0.199928,-0.870884
22810,NaN,5.223542,-0.815551,4.436681,-0.162739,-0.235356,-2.916951,0.062816,-2.005908,-0.194409,-1.038818,-0.037598,-0.429932,0.051779,-0.008220,0.044885,0.999949,0.000314,-0.010029,-0.000972,-0.252242,-0.379580,0.201730,-0.866947
22811,NaN,6.595314,-2.049918,5.470816,0.509576,0.494543,-1.030816,0.569430,-2.672487,-0.509719,-1.049072,-0.050537,-0.412842,0.065162,-0.020823,0.055523,0.999903,0.002847,-0.013362,-0.002549,-0.250646,-0.392358,0.201650,-0.861724
22812,NaN,7.396340,-4.642641,6.734823,2.585290,2.002613,0.718894,0.715749,-3.061573,-0.927028,-1.061035,-0.065430,-0.376953,0.072706,-0.047009,0.068300,0.999866,0.003579,-0.015307,-0.004635,-0.250064,-0.407396,0.200464,-0.855167
22813,NaN,7.548174,-7.846399,8.234208,5.646731,3.698477,2.051688,0.862114,-3.208101,-1.194974,-1.064697,-0.080566,-0.342773,0.073680,-0.079265,0.083193,0.999844,0.004310,-0.016040,-0.005975,-0.250158,-0.423322,0.198329,-0.847871
22814,NaN,7.151973,-8.579745,10.327015,7.990550,2.990216,2.780903,1.092858,-3.261165,-1.217856,-1.074707,-0.095703,-0.304688,0.069302,-0.086791,0.103940,0.999834,0.005464,-0.016305,-0.006089,-0.249712,-0.439680,0.195128,-0.840387
22815,NaN,8.524823,-7.905497,10.727120,7.613911,2.541820,3.817669,1.253604,-3.297596,-0.894766,-1.084717,-0.110840,-0.274902,0.083113,-0.080106,0.108153,0.999834,0.006268,-0.016487,-0.004474,-0.247452,-0.455898,0.191984,-0.833106
22816,NaN,10.635656,-4.942601,11.638919,5.981917,0.135022,5.588096,1.836966,-3.299496,-0.466563,-1.094971,-0.117432,-0.234619,0.104305,-0.050748,0.117659,0.999819,0.009184,-0.016496,-0.002333,-0.241994,-0.472243,0.187345,-0.826636
22817,NaN,11.875886,0.043780,13.711546,4.531439,-4.796750,7.083262,1.920854,-2.926686,0.016736,-1.096924,-0.119629,-0.207031,0.116736,-0.000880,0.138829,0.999847,0.009604,-0.014633,0.000084,-0.234607,-0.486573,0.182964,-0.821420
22818,NaN,11.675120,4.440515,12.217081,1.552018,-7.764336,5.762097,1.115166,-2.266194,0.293004,-1.105225,-0.121826,-0.183838,0.115291,0.043888,0.123728,0.999919,0.005576,-0.011331,0.001465,-0.228565,-0.496808,0.181741,-0.817258
22819,NaN,11.211450,8.952561,5.366453,-5.435801,-8.131954,1.975495,0.496160,-1.819799,-0.110628,-1.109375,-0.124023,-0.164795,0.111668,0.089329,0.054904,0.999955,0.002481,-0.009099,-0.000553,-0.226116,-0.504888,0.181516,-0.813027
22820,NaN,12.446411,7.133301,1.967243,-7.194268,-4.684874,1.847338,0.414931,-1.634556,-0.765223,-1.104736,-0.134766,-0.149902,0.124569,0.070814,0.020838,0.999957,0.002075,-0.008173,-0.003826,-0.226582,-0.512627,0.179601,-0.808467
22821,NaN,12.217163,4.498029,1.188393,-6.063377,-2.116341,1.574059,-0.268666,-0.966289,-0.994743,-1.104492,-0.145508,-0.143555,0.122334,0.044389,0.012415,0.999975,-0.001343,-0.004831,-0.004974,-0.230414,-0.517107,0.179233,-0.804603
22822,NaN,9.131345,1.644308,1.729609,-2.857668,-0.569940,-0.835769,-0.221940,-0.658988,-0.729707,-1.102051,-0.154053,-0.128662,0.091315,0.016129,0.017579,0.999987,-0.001110,-0.003295,-0.003649,-0.233210,-0.520155,0.178793,-0.801926
22823,NaN,10.364171,-2.067318,-0.262091,-2.579575,3.764776,-0.277102,-0.997602,-1.696218,-0.436055,-1.101807,-0.158447,-0.120117,0.103613,-0.020909,-0.001638,0.999949,-0.004988,-0.008481,-0.002180,-0.236020,-0.526154,0.183632,-0.796075
22824,NaN,9.812225,-1.609505,2.580264,-0.343465,1.674694,0.316582,-0.916616,-1.795730,-0.544235,-1.101318,-0.169189,-0.098877,0.097841,-0.016240,0.026756,0.999945,-0.004583,-0.008978,-0.002721,-0.238842,-0.532715,0.187780,-0.789879
22825,NaN,7.350930,-1.636857,6.651995,3.690675,-1.061262,-0.527540,-0.076668,-1.847532,-0.626986,-1.101074,-0.179932,-0.083984,0.072839,-0.016572,0.067201,0.999952,-0.000383,-0.009238,-0.003135,-0.239773,-0.540481,0.188615,-0.784101
22826,NaN,5.614964,-1.707937,4.054727,2.424225,0.086773,-3.104477,-0.199625,-1.565568,-0.584869,-1.101074,-0.177979,-0.069336,0.055780,-0.017202,0.041002,0.999965,-0.000998,-0.007828,-0.002924,-0.241034,-0.546922,0.189521,-0.779013
22827,NaN,5.763342,-0.781140,2.452736,0.715799,0.213353,-3.545021,-0.153495,-1.382732,-0.327510,-1.104980,-0.184326,-0.054443,0.057449,-0.007887,0.024931,0.999974,-0.000767,-0.006914,-0.001638,-0.241409,-0.552417,0.190890,-0.774673
22828,NaN,4.906119,0.147595,1.670686,-0.135348,-0.266184,-4.636423,-0.336258,-0.661906,-0.207161,-1.098389,-0.195068,-0.056396,0.049007,0.001453,0.016867,0.999993,-0.001681,-0.003310,-0.001036,-0.242425,-0.554768,0.192263,-0.772333
22829,NaN,2.238151,1.477106,0.535576,-1.059707,-1.133398,-7.560926,-0.591434,-0.016975,-0.220630,-1.098145,-0.201416,-0.058594,0.022397,0.014762,0.005314,0.999995,-0.002957,-0.000085,-0.001103,-0.244896,-0.554323,0.193960,-0.771448
22830,NaN,1.344484,2.032369,0.479955,-1.204292,-1.685076,-8.442036,-0.909750,-0.010532,-0.323076,-1.098145,-0.201660,-0.054199,0.013477,0.020323,0.004708,0.999988,-0.004549,-0.000053,-0.001615,-0.248568,-0.553560,0.196422,-0.770197
22831,NaN,4.830936,-0.190985,1.835553,0.249613,-0.125187,-4.648829,-1.117902,-1.030786,-0.435979,-1.097900,-0.208008,-0.045654,0.048210,-0.001911,0.018615,0.999969,-0.005589,-0.005154,-0.002180,-0.252317,-0.556549,0.200800,-0.765682
22832,NaN,9.221900,-3.010113,4.933040,3.307383,0.869468,0.518629,-2.202574,-2.318369,-0.521089,-1.095459,-0.212402,-0.024658,0.091559,-0.029787,0.050724,0.999869,-0.011012,-0.011591,-0.002605,-0.257998,-0.563105,0.210507,-0.756331
22833,NaN,12.157289,-3.408712,4.853007,3.033904,1.407100,3.293561,-3.072630,-2.078474,-0.515712,-1.093262,-0.216553,-0.018311,0.120969,-0.033636,0.050308,0.999825,-0.015362,-0.010392,-0.002578,-0.266363,-0.567442,0.223323,-0.746450
22834,NaN,18.005544,-2.824067,1.263774,-0.992605,3.852684,8.018109,-1.537422,-1.286217,-0.174667,-1.091064,-0.218750,-0.009766,0.179944,-0.028294,0.014013,0.999949,-0.007687,-0.006431,-0.000873,-0.269854,-0.570349,0.230125,-0.740893
22835,NaN,22.840674,-4.436369,0.673357,-1.156134,5.967762,12.656791,-0.562264,-0.698038,-0.103822,-1.090820,-0.223145,-0.005615,0.228358,-0.044462,0.007656,0.999990,-0.002811,-0.003490,-0.000519,-0.271033,-0.572287,0.232856,-0.738110
22836,NaN,21.393039,-8.450522,1.793859,2.654617,8.000798,11.663606,-0.592756,0.567527,-0.016952,-1.086670,-0.223145,-0.020264,0.213973,-0.084471,0.017582,0.999992,-0.002964,0.002838,-0.000085,-0.273413,-0.569394,0.234160,-0.739057
22837,NaN,12.464758,-7.796825,0.435232,2.967585,7.267025,2.626418,-0.472558,1.679594,-0.171205,-1.090820,-0.233643,-0.039307,0.124613,-0.078066,0.003490,0.999962,-0.002363,0.008398,-0.000856,-0.277343,-0.562717,0.233118,-0.743025
22838,NaN,5.071622,-5.494966,4.516003,5.803605,1.857862,-3.553570,-0.136350,1.027932,-0.326162,-1.088623,-0.231689,-0.045654,0.050858,-0.055002,0.044936,0.999985,-0.000682,0.005140,-0.001631,-0.280140,-0.559042,0.231339,-0.745302
22839,NaN,4.411318,-3.079462,9.345550,7.702768,-3.180829,-2.969311,-0.044620,-0.033016,-0.305705,-1.082031,-0.242188,-0.047607,0.044051,-0.030841,0.093470,0.999999,-0.000223,-0.000165,-0.001529,-0.281362,-0.559453,0.230701,-0.744731
22840,NaN,7.157284,0.437939,0.233335,-1.683014,0.697318,-2.873379,0.630754,0.559529,-0.308792,-1.082275,-0.235840,-0.049805,0.071586,0.004262,0.002147,0.999990,0.003154,0.002798,-0.001544,-0.281383,-0.558526,0.226768,-0.746625
22841,NaN,10.080099,4.681798,2.396330,-3.614491,-3.357151,0.431060,0.506164,-0.588990,-0.198998,-1.084229,-0.240234,-0.043457,0.100776,0.046656,0.024378,0.999992,0.002531,-0.002945,-0.000995,-0.280039,-0.561655,0.225154,-0.745270
22842,NaN,18.971488,7.253961,5.264009,-4.991170,-5.802738,9.723187,0.868404,-1.693409,0.067873,-1.075439,-0.242432,-0.020264,0.189234,0.072370,0.054558,0.999955,0.004342,-0.008467,0.000339,-0.275417,-0.569019,0.224509,-0.741592
22843,NaN,23.782826,9.320411,5.998189,-6.436427,-7.299101,14.554287,2.048151,-1.013168,-0.036062,-1.075439,-0.240234,-0.005371,0.237534,0.092532,0.062136,0.999935,0.010241,-0.005066,-0.000180,-0.268565,-0.575596,0.218198,-0.740913
22844,NaN,19.780834,6.028781,4.391632,-4.476353,-4.377889,10.379088,0.423913,0.385084,-0.699918,-1.077393,-0.248779,-0.026611,0.198102,0.059502,0.043662,0.999990,0.002120,0.001925,-0.003500,-0.270316,-0.575479,0.214021,-0.741585
22845,NaN,11.909616,-1.371709,2.837201,0.698412,1.166069,2.431553,-2.628256,1.019571,-1.398872,-1.066162,-0.270264,-0.039062,0.119141,-0.014181,0.027949,0.999876,-0.013141,0.005098,-0.006994,-0.284119,-0.569570,0.218342,-0.739726
22846,NaN,6.552360,-1.007539,3.289735,1.789166,-0.277045,-2.636836,-3.776962,0.213645,-1.236817,-1.063965,-0.278809,-0.049561,0.065497,-0.009858,0.033015,0.999802,-0.018884,0.001068,-0.006184,-0.299581,-0.564647,0.228345,-0.734359
22847,NaN,5.289548,1.647852,6.260725,2.176675,-4.460090,-3.085110,-1.973931,-0.152894,-0.544798,-1.063965,-0.276611,-0.060303,0.052893,0.016952,0.062482,0.999947,-0.009869,-0.000764,-0.002724,-0.306961,-0.562841,0.234276,-0.730821
22848,NaN,4.803669,-1.332367,5.149154,3.557397,-1.710277,-3.830749,-0.465435,1.009809,0.267921,-1.064209,-0.272217,-0.072998,0.048314,-0.013140,0.051279,0.999984,-0.002327,0.005049,0.001340,-0.308412,-0.558098,0.235057,-0.733592
22849,NaN,6.517283,-3.449405,3.039234,3.243913,1.592633,-2.702875,1.558470,0.884893,1.092806,-1.066650,-0.259277,-0.070801,0.065494,-0.034371,0.029835,0.999945,0.007792,0.004424,0.005464,-0.301075,-0.555937,0.231017,-0.739540
22850,NaN,10.997637,-2.659267,2.673319,1.388016,2.170410,1.524235,2.653298,0.666093,1.740700,-1.075684,-0.242188,-0.077393,0.110292,-0.025982,0.026019,0.999869,0.013266,0.003330,0.008703,-0.287931,-0.555347,0.224903,-0.747063
22851,NaN,13.699366,-2.635233,0.670875,-0.901200,3.975814,3.545319,3.691681,1.385570,1.858666,-1.074219,-0.222900,-0.077393,0.137271,-0.025184,0.005286,0.999762,0.018457,0.006927,0.009293,-0.272225,-0.553261,0.214232,-0.757562
22852,NaN,13.814902,-5.300047,5.125363,3.670614,3.367654,5.032632,3.689696,1.286503,1.474704,-1.076660,-0.212158,-0.077637,0.138861,-0.052901,0.049385,0.999782,0.018447,0.006432,0.007373,-0.257708,-0.551668,0.202474,-0.766977
22853,NaN,12.272182,-6.469003,12.524410,10.006130,-0.127060,5.972246,1.675159,1.429703,1.095903,-1.083740,-0.195068,-0.098877,0.123966,-0.065054,0.123817,0.999924,0.008376,0.007148,0.005479,-0.250310,-0.547189,0.197219,-0.773972
22854,NaN,10.799352,-2.033252,9.879996,5.511726,-2.151928,3.728165,1.144798,2.137914,0.994550,-1.071289,-0.188477,-0.117920,0.109142,-0.020352,0.097521,0.999914,0.005724,0.010689,0.004973,-0.245375,-0.539233,0.192793,-0.782208
22855,NaN,8.345844,1.800437,2.397237,-1.838647,-1.304761,-1.236221,1.918971,2.431610,1.043370,-1.077881,-0.177734,-0.141113,0.083648,0.018216,0.023130,0.999866,0.009594,0.012158,0.005217,-0.238428,-0.530996,0.185097,-0.791792
22856,NaN,5.713959,1.404596,-2.797210,-4.809210,1.394667,-5.644850,1.455236,2.159945,0.992000,-1.078125,-0.171143,-0.158203,0.056763,0.014534,-0.028482,0.999903,0.007276,0.010799,0.004960,-0.232563,-0.523110,0.179333,-0.800069
22857,NaN,4.797046,1.591605,-4.318740,-5.832629,1.844204,-7.210032,0.441790,1.997836,1.005454,-1.076416,-0.162598,-0.173096,0.047455,0.016252,-0.043628,0.999935,0.002209,0.009989,0.005027,-0.229158,-0.514693,0.177865,-0.806810
22858,NaN,5.134352,0.403259,2.691704,-0.137620,-0.774033,-4.055053,-0.245135,1.782331,0.735282,-1.074707,-0.151855,-0.202637,0.051565,0.004255,0.026453,0.999953,-0.001226,0.008912,0.003676,-0.228360,-0.506479,0.178663,-0.812041
22859,NaN,3.916919,0.783478,4.635999,1.429919,-2.324724,-4.335680,-1.067020,2.150014,0.729669,-1.070801,-0.143066,-0.221924,0.039635,0.008224,0.045892,0.999921,-0.005335,0.010750,0.003648,-0.229999,-0.495836,0.182379,-0.817304
22860,NaN,5.777220,-0.026030,2.420383,-0.643858,-0.111555,-3.583291,-1.061970,2.639661,0.962710,-1.069336,-0.128174,-0.253662,0.058085,0.000145,0.023439,0.999887,-0.005310,0.013198,0.004813,-0.231031,-0.482826,0.186000,-0.823959
22861,NaN,7.964445,2.476284,-2.946746,-6.938744,1.175588,-4.454065,-1.870901,2.212292,0.610269,-1.067627,-0.121582,-0.281250,0.079235,0.024722,-0.030577,0.999890,-0.009354,0.011061,0.003051,-0.235062,-0.470927,0.192609,-0.828176
22862,NaN,9.714677,-2.046070,0.763229,-2.757817,3.310827,-0.836558,-1.956047,2.949470,0.768721,-1.059814,-0.102051,-0.321533,0.097325,-0.020020,0.006395,0.999836,-0.009780,0.014747,0.003843,-0.239244,-0.455556,0.198973,-0.834051
22863,NaN,9.328112,-3.329076,2.765211,-0.761175,3.222178,-0.077502,-1.753588,3.163870,0.853946,-1.049561,-0.093506,-0.347168,0.093846,-0.032655,0.026459,0.999827,-0.008767,0.015818,0.004269,-0.242780,-0.439332,0.204415,-0.840393
22864,NaN,10.007551,-3.042596,2.606902,-1.660241,3.313183,0.309669,-1.096787,3.186253,0.796735,-1.039551,-0.080566,-0.385254,0.100595,-0.029888,0.024634,0.999850,-0.005484,0.015930,0.003983,-0.245041,-0.423702,0.206865,-0.847135
22865,NaN,8.232664,-2.454904,0.545865,-2.598845,3.667308,-2.471490,-0.894703,3.122723,0.624004,-1.031250,-0.071777,-0.415039,0.082476,-0.024271,0.004281,0.999863,-0.004473,0.015613,0.003120,-0.247486,-0.408672,0.208126,-0.853476
22866,NaN,6.640113,-3.072640,1.076278,-1.215688,3.536228,-3.432589,-0.965774,2.682870,0.457506,-1.020996,-0.067383,-0.436279,0.066609,-0.030525,0.010018,0.999896,-0.004829,0.013414,0.002287,-0.250278,-0.395492,0.209866,-0.858431
22867,NaN,4.634405,-2.507983,3.872900,1.052713,1.048453,-3.444149,-0.533168,1.945551,0.513922,-1.008545,-0.056641,-0.455322,0.046782,-0.024857,0.038342,0.999946,-0.002666,0.009728,0.002570,-0.251150,-0.385909,0.210728,-0.862317
22868,NaN,4.831845,-1.708435,4.481627,0.698413,0.158265,-3.042389,-0.193275,1.165563,0.624515,-1.004639,-0.052490,-0.466064,0.048632,-0.016890,0.044550,0.999978,-0.000966,0.005828,0.003123,-0.250073,-0.379957,0.211348,-0.865118
22869,NaN,6.025236,-1.353509,5.974330,0.526025,-0.618118,-1.258815,-0.147388,0.718103,0.666861,-1.004883,-0.039551,-0.466064,0.060511,-0.013290,0.059536,0.999988,-0.000737,0.003591,0.003334,-0.248220,-0.375952,0.212355,-0.867152
22870,NaN,8.400184,-1.187642,5.250685,-1.459601,0.296028,0.052639,0.026355,0.613471,0.577454,-1.007324,-0.033203,-0.474609,0.084196,-0.011640,0.052247,0.999991,0.000132,0.003067,0.002887,-0.246334,-0.372687,0.212611,-0.869034
22871,NaN,8.057569,-1.785404,4.543419,-1.361931,1.073812,-0.552754,0.152965,0.622712,0.489703,-1.005127,-0.032959,-0.478760,0.080760,-0.017691,0.045169,0.999992,0.000765,0.003114,0.002449,-0.244576,-0.369641,0.212094,-0.870956
22872,NaN,6.860865,-2.831921,5.291026,0.313279,1.178671,-0.779499,0.297157,0.424165,0.613218,-0.994629,-0.028809,-0.478760,0.068807,-0.028187,0.052723,0.999992,0.001486,0.002121,0.003066,-0.241827,-0.367492,0.211463,-0.872784
22873,NaN,6.679849,-2.754308,6.247662,0.859309,0.563211,-0.316152,0.829322,-0.039718,0.581580,-0.996826,-0.028809,-0.476807,0.066866,-0.027607,0.062376,0.999987,0.004147,-0.000199,0.002908,-0.237716,-0.368044,0.208961,-0.874282
22874,NaN,7.348371,-4.815994,5.904282,1.446289,2.608541,0.343903,1.300443,-0.600416,0.279663,-1.000977,-0.033203,-0.472412,0.073374,-0.048441,0.058949,0.999973,0.006502,-0.003002,0.001398,-0.233493,-0.371896,0.204560,-0.874831
22875,NaN,7.625625,-6.978392,5.960106,2.575588,4.471937,0.945444,1.844322,-1.031790,-0.080137,-1.007080,-0.041748,-0.457520,0.075922,-0.070362,0.059346,0.999944,0.009221,-0.005159,-0.000401,-0.229341,-0.378620,0.197540,-0.874659
22876,NaN,8.769024,-7.641007,6.630413,2.736750,5.086401,2.265269,2.566907,-1.441127,-0.308370,-1.014893,-0.054688,-0.438477,0.087095,-0.077393,0.065944,0.999890,0.012834,-0.007205,-0.001542,-0.224427,-0.388098,0.187465,-0.873996
22877,NaN,8.761608,-7.608618,6.243536,2.639767,5.442985,1.893587,3.270449,-1.748496,-0.422171,-1.016357,-0.076172,-0.419189,0.086911,-0.077286,0.061940,0.999826,0.016351,-0.008742,-0.002111,-0.218244,-0.399732,0.174288,-0.873045
22878,NaN,8.039757,-6.834405,5.215541,2.163698,5.308505,0.467431,3.426489,-1.863127,-0.494428,-1.026611,-0.089111,-0.395752,0.079744,-0.069430,0.051717,0.999807,0.017131,-0.009315,-0.002472,-0.211960,-0.411910,0.160509,-0.871573
22879,NaN,7.792526,-4.909206,3.763225,0.523737,4.407733,-0.908720,2.962865,-1.841283,-0.485933,-1.028076,-0.106201,-0.370361,0.077458,-0.049838,0.037612,0.999845,0.014814,-0.009206,-0.002430,-0.206460,-0.423396,0.148528,-0.869511
22880,NaN,7.043552,-1.887731,3.014165,-0.902787,1.993883,-2.231906,2.074282,-1.713742,-0.378094,-1.036377,-0.110596,-0.353271,0.070139,-0.019326,0.030545,0.999908,0.010371,-0.008568,-0.001890,-0.202513,-0.433177,0.140686,-0.866922
22881,NaN,5.825766,1.698896,2.803821,-1.953052,-1.343582,-3.562409,1.193894,-1.763888,-0.204120,-1.040283,-0.117188,-0.332031,0.058024,0.016760,0.028651,0.999943,0.005969,-0.008819,-0.001021,-0.199555,-0.442147,0.136852,-0.863687
22882,NaN,4.672149,4.326434,4.513822,-1.213623,-4.660553,-3.670547,0.777761,-1.956743,0.039166,-1.044434,-0.114990,-0.311035,0.046267,0.043096,0.045760,0.999945,0.003889,-0.009784,0.000196,-0.196401,-0.451281,0.135744,-0.859852
22883,NaN,3.558483,4.518624,6.116671,0.596545,-5.766376,-3.739428,0.959033,-2.102257,0.237639,-1.048584,-0.115234,-0.285645,0.034884,0.044933,0.061752,0.999933,0.004795,-0.010511,0.001188,-0.191771,-0.461065,0.134217,-0.855937
22884,NaN,2.701740,3.938291,7.086285,2.215358,-5.833551,-3.974782,1.709836,-2.549083,0.308189,-1.059082,-0.113037,-0.262207,0.026048,0.038814,0.071532,0.999881,0.008549,-0.012745,0.001541,-0.184830,-0.473314,0.130196,-0.851388
22885,NaN,2.870109,4.157676,7.042189,2.284818,-5.963130,-3.953686,2.315363,-3.028970,0.258717,-1.062988,-0.121826,-0.222168,0.027572,0.040791,0.071320,0.999817,0.011576,-0.015144,0.001294,-0.176239,-0.488088,0.123733,-0.845813
22886,NaN,4.524482,4.164746,6.613806,1.535039,-5.493538,-2.811987,2.702167,-3.511842,0.196777,-1.069336,-0.119629,-0.173340,0.044027,0.040786,0.067473,0.999754,0.013510,-0.017558,0.000984,-0.166621,-0.505025,0.115945,-0.838894
22887,NaN,6.660573,4.336604,6.277035,0.700254,-5.180843,-1.139736,2.779891,-3.806634,0.028162,-1.075439,-0.122070,-0.137451,0.065381,0.042486,0.064617,0.999722,0.013898,-0.019031,0.000141,-0.157226,-0.523146,0.107502,-0.830687
22888,NaN,9.375449,2.671467,6.502256,0.899375,-3.317462,1.389103,2.471768,-3.604110,-0.162212,-1.072754,-0.128662,-0.097168,0.092580,0.025819,0.067021,0.999761,0.012358,-0.018019,-0.000811,-0.149455,-0.539965,0.099654,-0.822296
22889,NaN,10.991063,-0.328152,10.295499,5.153376,-1.463899,4.264786,2.812237,-3.655195,-0.223511,-1.070557,-0.130859,-0.050781,0.108001,-0.004869,0.104880,0.999734,0.014060,-0.018274,-0.001117,-0.140916,-0.557057,0.090199,-0.813446
22890,NaN,12.818070,-2.515732,13.546079,8.722743,0.028862,6.860456,2.816282,-3.512717,-0.398874,-1.070068,-0.137451,-0.010498,0.125727,-0.027335,0.137309,0.999745,0.014080,-0.017562,-0.001994,-0.133080,-0.573286,0.080103,-0.804498
22891,NaN,13.767352,-2.259903,14.966499,10.230106,-0.267087,7.903904,2.046278,-2.868422,-0.613705,-1.070068,-0.137451,0.017090,0.135437,-0.024560,0.151374,0.999840,0.010231,-0.014341,-0.003068,-0.128508,-0.586336,0.072015,-0.796561
22892,NaN,14.111109,-1.085040,13.546541,8.950227,-0.780352,7.596454,1.103860,-1.777536,-0.813551,-1.067627,-0.144043,0.033936,0.139852,-0.012173,0.136647,0.999937,0.005519,-0.008887,-0.004068,-0.127866,-0.594244,0.066401,-0.791275
22893,NaN,12.792519,-0.483131,11.639756,7.650453,-0.888736,5.680565,0.483148,-1.086250,-0.976906,-1.062744,-0.158936,0.044678,0.127264,-0.005736,0.117077,0.999970,0.002416,-0.005431,-0.004884,-0.129927,-0.599153,0.062286,-0.787563
22894,NaN,11.374277,0.058860,10.361590,6.834461,-1.150153,3.924285,0.275615,-0.752475,-1.091366,-1.060547,-0.165527,0.051025,0.113352,-0.000174,0.104043,0.999977,0.001378,-0.003762,-0.005457,-0.133181,-0.602422,0.058463,-0.784814
22895,NaN,9.272326,1.914525,9.380269,5.993795,-2.855081,1.743806,0.219807,-0.034083,-1.103710,-1.062256,-0.176270,0.051025,0.092811,0.018530,0.093839,0.999984,0.001099,-0.000170,-0.005519,-0.136834,-0.603011,0.054305,-0.784031
22896,NaN,7.333991,1.999335,7.559558,4.749116,-2.647192,-0.573177,0.510380,0.331784,-1.114620,-1.057617,-0.188965,0.049072,0.073574,0.019391,0.075524,0.999980,0.002552,0.001659,-0.005573,-0.139755,-0.602108,0.048743,-0.784575
22897,NaN,5.396162,2.328724,5.556850,3.276928,-2.655823,-2.911468,1.343406,0.226866,-1.082298,-1.057373,-0.199707,0.053467,0.054148,0.022621,0.055661,0.999962,0.006717,0.001134,-0.005411,-0.140002,-0.602394,0.040062,-0.784803
22898,NaN,4.955554,1.021692,4.034693,2.361720,-1.010478,-3.872987,1.989562,-0.363783,-0.763961,-1.052979,-0.199707,0.059814,0.049519,0.009625,0.040535,0.999942,0.009948,-0.001819,-0.003820,-0.136925,-0.605083,0.030207,-0.783718
22899,NaN,5.302969,-0.137019,2.881182,1.543824,0.486288,-3.997086,1.646957,-0.545457,-0.219654,-1.052979,-0.204102,0.063965,0.052949,-0.001666,0.028943,0.999962,0.008235,-0.002727,-0.001098,-0.132711,-0.608354,0.023468,-0.782140
22900,NaN,7.572820,-0.228145,0.776912,-0.895322,1.425966,-2.385165,0.749787,-0.574730,-0.157241,-1.050781,-0.201904,0.078857,0.075704,-0.002371,0.007978,0.999989,0.003749,-0.002874,-0.000786,-0.130891,-0.610841,0.020398,-0.780593
22901,NaN,7.975623,-2.437095,-1.270592,-2.388420,4.031783,-2.798092,0.397274,-0.288397,-0.246353,-1.048584,-0.201904,0.070312,0.079744,-0.024444,-0.012639,0.999996,0.001986,-0.001442,-0.001232,-0.130603,-0.612245,0.018291,-0.779593
22902,NaN,6.801451,-3.953067,-1.495202,-1.995324,5.332763,-4.182199,0.051047,-0.201089,-0.154285,-1.052979,-0.201904,0.080811,0.067999,-0.039579,-0.014894,0.999999,0.000255,-0.001005,-0.000771,-0.130912,-0.612815,0.017720,-0.779106
22903,NaN,8.491437,-3.476303,-0.175153,-1.174863,4.936830,-2.166317,-0.407683,-0.511406,-0.164665,-1.050781,-0.201904,0.078857,0.084890,-0.034836,-0.001463,0.999994,-0.002038,-0.002557,-0.000823,-0.132751,-0.614546,0.019146,-0.777395
22904,NaN,10.655848,-2.535748,1.015476,-0.645017,4.192477,0.336926,-0.914944,-0.647433,-0.219830,-1.054688,-0.208496,0.093506,0.106497,-0.025427,0.010616,0.999984,-0.004575,-0.003237,-0.001099,-0.136164,-0.616212,0.022442,-0.775396
22905,NaN,10.110055,-1.693995,5.715255,3.839429,2.273534,1.042467,-1.574609,-1.128736,-0.226377,-1.048340,-0.208496,0.097900,0.100756,-0.016600,0.057853,0.999952,-0.007873,-0.005644,-0.001132,-0.141754,-0.619506,0.028625,-0.771556
22906,NaN,10.197012,0.479757,4.392437,2.082381,0.425434,1.095351,-1.315575,-0.277609,-0.287034,-1.052490,-0.214844,0.093750,0.101916,0.004941,0.044034,0.999976,-0.006578,-0.001388,-0.001435,-0.146675,-0.619458,0.033009,-0.770499
22907,NaN,9.902213,1.977260,-0.910859,-3.254422,0.165157,-0.211935,-0.394006,-0.260405,-0.166202,-1.041992,-0.210693,0.106201,0.099050,0.019672,-0.009018,0.999997,-0.001970,-0.001302,-0.000831,-0.148485,-0.620191,0.034211,-0.769509
22908,NaN,22.487011,5.139407,1.859633,-3.698310,-1.248648,12.997198,0.234647,-1.410983,0.422339,-1.041992,-0.204346,0.121094,0.224622,0.051845,0.020242,0.999972,0.001173,-0.007055,0.002112,-0.145681,-0.625493,0.035676,-0.765678
22909,NaN,33.710557,4.459090,0.034575,-6.947417,1.577404,23.436627,0.258253,-0.897182,0.816811,-1.046387,-0.202148,0.118896,0.336913,0.045965,0.001916,0.999981,0.001291,-0.004486,0.004084,-0.141576,-0.628951,0.037904,-0.763505
22910,NaN,33.401952,4.836959,4.770861,-2.329112,-0.218705,24.192767,-0.800658,-0.640994,0.277725,-1.048340,-0.202148,0.127441,0.333797,0.049027,0.048583,0.999986,-0.004003,-0.003205,0.001389,-0.142796,-0.630592,0.042339,-0.761689
22911,NaN,19.080478,0.328549,6.623715,3.038753,1.169415,10.123313,-2.926743,0.132457,-0.646223,-1.046143,-0.210693,0.110596,0.190860,0.003636,0.066059,0.999887,-0.014633,0.000662,-0.003231,-0.154490,-0.628057,0.051358,-0.760947
22912,NaN,6.976838,-1.801865,-2.049422,-2.496228,3.517269,-3.687411,-3.693685,0.741998,-0.943920,-1.047852,-0.227783,0.091553,0.069605,-0.018725,-0.020411,0.999811,-0.018467,0.003710,-0.004719,-0.169977,-0.622286,0.062070,-0.761588
22913,NaN,1.660934,0.503476,-8.892772,-8.667657,2.619224,-10.132800,-1.597149,0.955049,-0.473791,-1.043457,-0.229736,0.083252,0.016195,0.004285,-0.089042,0.999954,-0.007986,0.004775,-0.002369,-0.177032,-0.617402,0.065872,-0.763633
22914,NaN,-2.058002,2.301641,-7.872714,-7.686775,-0.025731,-13.337640,0.334142,0.164374,-0.111418,-1.047852,-0.225586,0.081055,-0.020632,0.023159,-0.078672,0.999998,0.001671,0.000822,-0.000557,-0.176610,-0.616917,0.064322,-0.764254
22915,NaN,-0.831687,1.282070,-5.149722,-5.046634,0.245587,-11.636359,1.349611,-0.321291,0.063314,-1.047852,-0.225586,0.095947,-0.008238,0.013165,-0.051422,0.999976,0.006748,-0.001606,0.000317,-0.172091,-0.619293,0.059652,-0.763742
22916,NaN,4.142338,-1.080656,-2.345237,-2.539249,2.469436,-6.454047,2.600527,-0.821720,0.409848,-1.045898,-0.217041,0.114746,0.041541,-0.010417,-0.023419,0.999905,0.013002,-0.004108,0.002049,-0.162117,-0.624389,0.051766,-0.762350
22917,NaN,12.296799,-3.104634,-4.322931,-5.145645,6.251154,0.863230,4.087764,-1.746907,0.828302,-1.048584,-0.193604,0.146240,0.123468,-0.029658,-0.042768,0.999744,0.020437,-0.008734,0.004141,-0.145698,-0.633978,0.040184,-0.758438
22918,NaN,17.267372,-9.908080,-5.062331,-4.927674,13.448820,4.910871,5.317700,-2.067962,1.081461,-1.044678,-0.178711,0.182129,0.173730,-0.096783,-0.051424,0.999578,0.026585,-0.010338,0.005407,-0.124088,-0.645174,0.024993,-0.753478
22919,NaN,19.548057,-15.068959,-2.465715,-1.933181,17.971046,7.174459,5.221108,-2.632174,1.132043,-1.047363,-0.150879,0.224121,0.196663,-0.148912,-0.025977,0.999557,0.026102,-0.013159,0.005659,-0.102593,-0.657893,0.010610,-0.746016
22920,NaN,18.951101,-11.799862,2.816200,2.630838,13.665230,7.869158,5.052404,-3.842358,1.646031,-1.031006,-0.123291,0.268311,0.189928,-0.117159,0.028842,0.999463,0.025257,-0.019208,0.008229,-0.079473,-0.674361,-0.000618,-0.734112
22921,NaN,17.109591,-6.068685,1.359042,0.845022,7.745696,6.640086,4.046529,-3.088129,1.527635,-1.029541,-0.097656,0.297852,0.171330,-0.059673,0.015021,0.999647,0.020230,-0.015439,0.007637,-0.060198,-0.687063,-0.009080,-0.724043
22922,NaN,14.449273,-4.077384,-2.220609,-2.596884,5.589900,4.056199,1.735455,-0.713430,0.371257,-1.021484,-0.084717,0.308105,0.144647,-0.040314,-0.022041,0.999954,0.008677,-0.003567,0.001856,-0.052908,-0.690116,-0.013481,-0.721636
22923,NaN,10.622758,-1.585151,-7.033287,-7.296578,2.947283,0.330952,0.453079,-1.481101,-0.016060,-1.019043,-0.093506,0.327393,0.106743,-0.015702,-0.069579,0.999970,0.002265,-0.007405,-0.000080,-0.051494,-0.695552,-0.014767,-0.716476
22924,NaN,10.494687,3.329299,-11.366391,-11.625915,-1.751762,0.777969,0.657921,-3.369726,-0.425992,-1.008301,-0.089355,0.350586,0.106912,0.033436,-0.111764,0.999850,0.003289,-0.016848,-0.002130,-0.050949,-0.707649,-0.017318,-0.704512
22925,NaN,7.069475,2.019137,0.172185,0.165284,-1.340742,-2.583679,1.727710,-0.678532,0.153313,-1.008301,-0.087158,0.352539,0.070672,0.020228,0.002136,0.999957,0.008638,-0.003393,0.000767,-0.044344,-0.710456,-0.022675,-0.701977
22926,NaN,9.132731,3.958222,0.522384,0.453249,-3.110491,-0.354101,-0.401024,1.370216,0.307836,-1.012939,-0.082764,0.335693,0.091299,0.039732,0.004519,0.999973,-0.002005,0.006851,0.001539,-0.044515,-0.705586,-0.020083,-0.706939
22927,NaN,8.301975,2.392014,-0.176674,-0.260737,-1.628877,-1.330090,0.379763,0.067196,0.277485,-1.010986,-0.074219,0.348389,0.082986,0.024039,-0.001749,0.999997,0.001899,0.000336,0.001387,-0.042180,-0.705453,-0.020448,-0.707204
22928,NaN,9.633607,-0.204369,5.881278,5.995751,0.888716,-0.289468,1.653597,-2.546857,0.391015,-1.000488,-0.061523,0.384033,0.095581,-0.002349,0.060015,0.999883,0.008268,-0.012734,0.001955,-0.035182,-0.714780,-0.024023,-0.698051
22929,NaN,10.155448,0.322452,9.183435,9.542658,0.405148,0.002416,1.606968,-2.395209,0.598471,-0.992432,-0.050781,0.390381,0.100436,0.002782,0.093065,0.999892,0.008035,-0.011976,0.002992,-0.027626,-0.723411,-0.027055,-0.689334
22930,NaN,10.587301,2.737173,1.725394,2.346478,-1.941664,0.830596,1.586084,-1.728837,0.592178,-0.990479,-0.038086,0.417725,0.105636,0.027542,0.018386,0.999927,0.007930,-0.008644,0.002961,-0.020032,-0.729594,-0.029782,-0.682938
22931,NaN,10.215434,2.820410,1.160411,1.999276,-2.092511,0.447666,1.488448,-2.119595,0.499244,-0.975830,-0.029541,0.440918,0.101952,0.028366,0.012896,0.999913,0.007442,-0.010598,0.002496,-0.013204,-0.736987,-0.032813,-0.674981
22932,NaN,9.146906,2.262371,3.308297,4.266300,-1.567935,-0.920882,1.447610,-2.193508,0.380519,-0.965332,-0.020996,0.457520,0.091055,0.022552,0.034247,0.999912,0.007238,-0.010967,0.001903,-0.006903,-0.744448,-0.035812,-0.666683
22933,NaN,9.103922,2.323237,3.939456,5.108680,-1.583044,-1.141557,1.312325,-2.144965,0.231128,-0.957031,-0.010254,0.474365,0.090582,0.023074,0.040519,0.999920,0.006561,-0.010725,0.001156,-0.001624,-0.751621,-0.039233,-0.658425
22934,NaN,8.842172,2.858737,4.479637,5.841428,-2.066172,-1.564816,1.428691,-1.975116,0.130629,-0.946777,0.004639,0.497559,0.087954,0.028320,0.045869,0.999926,0.007143,-0.009875,0.000653,0.003821,-0.758048,-0.043100,-0.650762
22935,NaN,9.619639,4.653649,4.851504,6.648336,-3.717871,-0.885027,1.618759,-1.506609,0.140319,-0.936523,0.015137,0.505859,0.095793,0.046205,0.049613,0.999939,0.008094,-0.007533,0.000702,0.010095,-0.762899,-0.047844,-0.644666
22936,NaN,9.558133,3.551790,4.139385,6.006438,-2.612568,-0.969469,1.749068,-0.910944,0.109655,-0.940918,0.021729,0.512207,0.095371,0.035204,0.042137,0.999951,0.008745,-0.004555,0.000548,0.016939,-0.765652,-0.052815,-0.640859
22937,NaN,10.577778,3.257445,4.978999,7.092979,-2.104096,-0.192320,1.627820,-0.624747,0.073647,-0.932617,0.034424,0.522705,0.105609,0.032205,0.050383,0.999962,0.008139,-0.003124,0.000368,0.023248,-0.767503,-0.057782,-0.638012
22938,NaN,11.730545,0.831460,5.118465,7.209456,0.459066,0.784865,1.364990,-0.236000,-0.029745,-0.932861,0.038818,0.518311,0.117246,0.007947,0.051378,0.999976,0.006825,-0.001180,-0.000149,0.028340,-0.767960,-0.061999,-0.636860
22939,NaN,11.581909,-0.004150,3.802014,5.790734,1.185217,0.848374,1.567366,0.147665,-0.034584,-0.930908,0.047363,0.520508,0.115847,-0.000359,0.037933,0.999969,0.007837,0.000738,-0.000173,0.034301,-0.767229,-0.067082,-0.636932
22940,NaN,11.243530,0.579730,2.968028,4.965914,0.523446,0.705275,1.826931,0.427745,-0.039974,-0.933594,0.062500,0.511963,0.112500,0.005505,0.029491,0.999956,0.009135,0.002139,-0.000200,0.041333,-0.765370,-0.072692,-0.638135
22941,NaN,10.960355,0.844814,2.784598,4.728435,0.271209,0.490942,2.044249,0.676697,-0.079731,-0.940430,0.073242,0.501221,0.109700,0.008122,0.027559,0.999942,0.010221,0.003383,-0.000399,0.049152,-0.762712,-0.079357,-0.639966
22942,NaN,11.096703,0.878110,3.220089,5.095765,0.380503,0.587503,2.175321,0.934758,-0.150308,-0.949219,0.083984,0.490723,0.111123,0.008350,0.031774,0.999930,0.010876,0.004674,-0.000752,0.057336,-0.758917,-0.086373,-0.642882
22943,NaN,11.309755,0.756738,3.203645,4.971809,0.581225,0.849742,2.182681,1.289737,-0.290443,-0.958008,0.092529,0.477783,0.113312,0.007058,0.031385,0.999919,0.010913,0.006449,-0.001452,0.065245,-0.753955,-0.094095,-0.646870
22944,NaN,11.836751,-0.651324,2.475119,3.840125,1.883377,1.516946,2.141978,1.673347,-0.472799,-0.964600,0.094727,0.463135,0.118552,-0.007051,0.023686,0.999905,0.010710,0.008366,-0.002364,0.072558,-0.747373,-0.101966,-0.652512
22945,NaN,12.268047,-3.038754,1.620744,2.207504,4.055857,2.063063,2.093336,2.062817,-0.593555,-0.979736,0.103271,0.441895,0.122746,-0.030910,0.014620,0.999888,0.010466,0.010314,-0.002968,0.079496,-0.739495,-0.110234,-0.659300
22946,NaN,11.957265,-4.384661,-1.345972,-1.394154,4.534556,2.082435,1.673322,2.642191,-0.681034,-0.990479,0.103516,0.416504,0.119228,-0.044130,-0.015405,0.999872,0.008366,0.013210,-0.003405,0.084861,-0.729460,-0.116901,-0.668596
22947,NaN,12.147225,-6.917007,-2.526067,-3.651707,6.563672,2.243247,1.310574,3.026568,-0.585957,-1.007568,0.105713,0.382812,0.120864,-0.069349,-0.027547,0.999860,0.006553,0.015132,-0.002930,0.089448,-0.718340,-0.122098,-0.679028
22948,NaN,12.804663,-6.867326,-1.721788,-3.311975,6.669443,2.781449,1.426828,3.113084,-0.419340,-1.018311,0.105713,0.351074,0.127609,-0.068806,-0.019697,0.999851,0.007134,0.015565,-0.002097,0.095016,-0.706590,-0.126701,-0.689673
22949,NaN,13.440270,-4.847598,-2.902203,-4.291789,4.245709,3.457262,2.339081,3.214058,-0.221538,-1.029541,0.116699,0.317383,0.133854,-0.048264,-0.031741,0.999802,0.011695,0.016069,-0.001108,0.104544,-0.694113,-0.133976,-0.699520
22950,NaN,12.800613,-3.868910,-3.020941,-4.575539,3.001692,2.756156,3.446697,3.410767,-0.094582,-1.042725,0.127441,0.279297,0.127441,-0.038196,-0.033047,0.999706,0.017232,0.017052,-0.000473,0.118409,-0.679951,-0.144171,-0.709126
22951,NaN,13.483642,-6.677165,-2.998793,-6.158246,5.315933,3.193482,3.827651,3.278881,-0.104617,-1.047607,0.140381,0.239014,0.134272,-0.066224,-0.033463,0.999682,0.019136,0.016393,-0.000523,0.133387,-0.665768,-0.156088,-0.717355
22952,NaN,14.747400,-9.271159,-0.714904,-5.845563,8.271979,4.375561,3.199081,3.166999,0.003546,-1.060547,0.146973,0.211426,0.147322,-0.092554,-0.010964,0.999747,0.015994,0.015834,0.000018,0.146470,-0.651968,-0.165017,-0.725433
22953,NaN,15.963660,-8.174350,0.588630,-4.979828,7.525024,5.696721,2.667085,2.890490,0.102747,-1.069336,0.153564,0.175537,0.159731,-0.081710,0.002488,0.999807,0.013335,0.014452,0.000514,0.157905,-0.639489,-0.172185,-0.732443
22954,NaN,17.751919,-7.417636,1.839196,-4.384362,7.075886,7.628735,2.589874,2.826331,0.270770,-1.072021,0.164307,0.145752,0.177847,-0.074144,0.014920,0.999815,0.012949,0.014131,0.001354,0.169574,-0.627090,-0.178111,-0.739107
22955,NaN,19.431532,-4.728955,2.783101,-3.173618,4.777018,9.545999,2.272648,3.090278,0.349332,-1.074463,0.168701,0.107666,0.194791,-0.047239,0.024287,0.999815,0.011363,0.015450,0.001747,0.180724,-0.613938,-0.182739,-0.746341
22956,NaN,18.871277,-1.591916,1.580801,-3.189802,1.076336,8.889502,1.889935,4.044853,0.387377,-1.083252,0.173096,0.054932,0.189009,-0.015678,0.011838,0.999749,0.009449,0.020223,0.001937,0.191613,-0.597230,-0.184440,-0.756692
22957,NaN,15.078318,-0.791285,1.223115,-2.866673,0.048887,5.060763,2.105594,4.336495,0.589080,-1.086182,0.188232,0.014648,0.151023,-0.007573,0.008877,0.999705,0.010527,0.021680,0.002945,0.204085,-0.579175,-0.186415,-0.766913
22958,NaN,12.615606,-1.463614,2.129303,-2.331439,0.974186,2.813735,2.647413,3.345286,0.801623,-1.078125,0.198975,-0.015137,0.126545,-0.014391,0.018987,0.999764,0.013236,0.016725,0.004008,0.217881,-0.564158,-0.190337,-0.773321
22959,NaN,12.398726,-1.341977,4.143898,-0.954735,1.739691,3.177752,2.767112,2.560040,0.853238,-1.082520,0.203369,-0.051025,0.124560,-0.013446,0.039661,0.999813,0.013835,0.012799,0.004266,0.231396,-0.551953,-0.195782,-0.776836
22960,NaN,11.452962,0.599201,3.809543,-0.106197,-0.106688,2.270818,2.052601,2.711331,0.829521,-1.078613,0.212158,-0.087158,0.115007,0.006088,0.036601,0.999847,0.010262,0.013556,0.004147,0.242885,-0.539678,-0.197852,-0.781415
22961,NaN,9.785728,2.322648,2.942660,0.563480,-1.896251,0.477908,0.975183,2.565952,0.689225,-1.076904,0.218750,-0.108398,0.098145,0.023425,0.028283,0.999900,0.004876,0.012829,0.003446,0.250739,-0.529098,-0.196643,-0.786459
22962,NaN,9.689004,1.631017,1.352347,-1.146844,-2.428419,-0.265525,0.108692,2.479667,0.631008,-1.070801,0.225098,-0.137939,0.096996,0.016609,0.012330,0.999918,0.000543,0.012398,0.003155,0.255903,-0.519686,-0.191850,-0.792234
22963,NaN,8.941937,1.334181,-0.399867,-2.482228,-3.231800,-1.732674,-0.297658,2.674414,0.957687,-1.067139,0.238037,-0.167725,0.089290,0.013762,-0.005214,0.999898,-0.001488,0.013372,0.004788,0.261479,-0.510340,-0.184717,-0.798161
22964,NaN,8.193073,3.845394,-2.373305,-2.245951,-6.361370,-3.329907,-1.200018,2.935574,1.158503,-1.056885,0.249023,-0.191162,0.081344,0.038778,-0.025162,0.999858,-0.006000,0.014677,0.005792,0.265692,-0.501093,-0.172711,-0.805285
22965,NaN,8.544588,1.539381,-3.872285,-4.950054,-5.569012,-3.909125,-1.532711,2.392986,0.859812,-1.055176,0.259766,-0.212402,0.084907,0.015457,-0.039859,0.999890,-0.007663,0.011964,0.004299,0.267369,-0.494183,-0.161164,-0.811371
22966,NaN,7.392430,1.456902,-3.613039,-4.498822,-5.141065,-5.001145,-1.025091,2.372234,0.542543,-1.047119,0.270508,-0.235596,0.073449,0.014580,-0.037078,0.999913,-0.005125,0.011861,0.002713,0.268911,-0.486243,-0.152132,-0.817380
22967,NaN,7.365125,2.214621,-1.635425,-2.749733,-4.835989,-4.256507,-0.031346,3.286504,0.315288,-1.034424,0.266357,-0.269531,0.073334,0.022259,-0.017565,0.999864,-0.000157,0.016432,0.001576,0.272605,-0.473029,-0.146774,-0.824856
22968,NaN,5.411214,-1.470443,4.608664,0.066433,1.737469,-2.766115,0.139514,3.719416,-0.211971,-1.032471,0.266357,-0.299072,0.054941,-0.014794,0.045060,0.999826,0.000698,0.018596,-0.001060,0.274731,-0.457202,-0.142451,-0.833785
22969,NaN,-3.022808,-1.616987,10.339466,7.384640,7.345480,-6.624741,0.241974,2.079078,0.511575,-1.026367,0.275146,-0.320312,-0.029110,-0.016371,0.103681,0.999942,0.001210,0.010395,0.002558,0.278901,-0.448541,-0.139402,-0.837611
22970,NaN,1.599942,0.934024,2.585469,1.572505,-0.065992,-7.048711,0.318984,1.741565,0.865166,-1.016113,0.279297,-0.343750,0.016183,0.009369,0.025729,0.999951,0.001595,0.008708,0.004326,0.284417,-0.441298,-0.136034,-0.840153
22971,NaN,3.306747,0.895332,0.788989,-0.436408,-1.544704,-6.685090,0.539804,1.718304,0.798405,-1.010010,0.288086,-0.358643,0.033098,0.009065,0.007630,0.999951,0.002699,0.008591,0.003992,0.290137,-0.433836,-0.134066,-0.842397
22972,NaN,3.357210,1.387608,1.113325,0.027323,-1.841728,-6.489596,0.578717,1.450466,0.638662,-1.005859,0.292236,-0.373535,0.033607,0.013952,0.010930,0.999964,0.002894,0.007252,0.003193,0.295020,-0.427210,-0.132696,-0.844303
22973,NaN,2.968573,1.569562,0.680186,0.024090,-2.069918,-7.082596,0.425999,1.091350,0.462413,-1.001709,0.294434,-0.379883,0.029686,0.015750,0.006673,0.999980,0.002130,0.005457,0.002312,0.298621,-0.422274,-0.131870,-0.845648
22974,NaN,1.631551,1.499546,0.520424,0.494408,-1.578995,-8.249433,0.239776,0.703868,0.288488,-0.999756,0.298828,-0.386230,0.016312,0.015013,0.005165,0.999992,0.001199,0.003519,0.001442,0.300787,-0.419039,-0.130930,-0.846635
22975,NaN,1.055697,0.901657,0.378396,0.303323,-0.950038,-8.775341,0.262187,0.167046,0.123518,-0.993408,0.298828,-0.386230,0.010555,0.009018,0.003787,0.999999,0.001311,0.000835,0.000618,0.301989,-0.418020,-0.131506,-0.846622
22976,NaN,0.245834,1.204162,1.190773,1.382581,-0.473888,-8.922588,0.197562,-0.424064,-0.005992,-0.999512,0.292480,-0.388184,0.002433,0.012030,0.011925,0.999997,0.000988,-0.002120,-0.000030,0.302078,-0.419425,-0.132716,-0.845706
22977,NaN,0.568031,1.385221,1.476281,1.531257,-0.598478,-8.501981,0.229019,-1.080477,-0.145217,-1.005859,0.294434,-0.369141,0.005610,0.013831,0.014809,0.999984,0.001145,-0.005402,-0.000726,0.301244,-0.423547,-0.135595,-0.843489
22978,NaN,1.609568,1.681556,2.196979,1.712330,-0.866135,-7.250934,0.389104,-1.744806,-0.254038,-1.011963,0.285889,-0.356445,0.015924,0.016752,0.022142,0.999959,0.001945,-0.008724,-0.001270,0.299786,-0.430041,-0.140128,-0.839975
22979,NaN,2.813951,2.220280,3.690369,2.506765,-0.944087,-5.420594,0.631524,-2.330683,-0.370505,-1.014160,0.287842,-0.331055,0.027747,0.022034,0.037298,0.999925,0.003158,-0.011653,-0.001852,0.297954,-0.438593,-0.147035,-0.835009
22980,NaN,2.880251,1.989600,5.999853,3.896716,0.506814,-4.084851,0.966981,-2.734233,-0.485586,-1.024170,0.274902,-0.309814,0.028026,0.019536,0.060480,0.999892,0.004835,-0.013671,-0.002428,0.295992,-0.448070,-0.155937,-0.829039
22981,NaN,3.323877,1.729252,8.268804,5.109206,1.949910,-2.567145,1.409415,-3.003369,-0.688290,-1.034424,0.261963,-0.282227,0.032049,0.016595,0.083294,0.999856,0.007047,-0.015016,-0.003441,0.293934,-0.457836,-0.167717,-0.822107
22982,NaN,3.925239,0.406902,10.607253,5.626960,4.350572,-1.010350,1.947828,-3.146349,-1.033824,-1.042236,0.247070,-0.250244,0.037594,0.002835,0.106704,0.999815,0.009739,-0.015731,-0.005169,0.291435,-0.466846,-0.182424,-0.814765
22983,NaN,5.295298,0.785073,12.320078,6.498067,5.062061,0.796893,2.516882,-3.296405,-1.351184,-1.050049,0.227539,-0.224854,0.050956,0.005944,0.124134,0.999762,0.012583,-0.016481,-0.006755,0.288751,-0.475268,-0.200563,-0.806547
22984,NaN,10.040694,3.092294,14.803964,7.851953,4.148409,6.018166,2.922494,-3.160645,-1.472634,-1.060059,0.206055,-0.203369,0.098260,0.028011,0.150027,0.999741,0.014611,-0.015802,-0.007363,0.286489,-0.482065,-0.220075,-0.798188
22985,NaN,12.787388,2.640650,19.182131,9.280124,7.357571,10.140472,3.046151,-1.838491,-1.137064,-1.063721,0.193115,-0.197021,0.126237,0.022748,0.193352,0.999826,0.015230,-0.009192,-0.005685,0.287241,-0.483710,-0.237540,-0.791892
22986,NaN,14.355742,2.106401,19.304167,8.120185,8.078876,11.446179,2.599692,0.146025,-0.673137,-1.057373,0.188965,-0.209717,0.143763,0.018070,0.193185,0.999910,0.012998,0.000730,-0.003366,0.290966,-0.478391,-0.248921,-0.790265
22987,NaN,15.401745,1.189461,13.997266,3.435863,5.118748,10.100379,1.263431,1.735859,-0.389724,-1.057129,0.176270,-0.228516,0.155247,0.010714,0.138699,0.999940,0.006317,0.008679,-0.001949,0.294612,-0.469188,-0.252277,-0.793361
22988,NaN,12.710545,-1.092550,8.010120,-1.038167,3.134944,4.884200,-0.010250,2.247167,-0.222511,-1.052979,0.180420,-0.256104,0.127982,-0.011064,0.078667,0.999936,-0.000051,0.011236,-0.001113,0.296461,-0.459785,-0.249091,-0.799163
22989,NaN,7.409862,-2.923081,4.931931,-2.181052,3.472772,-1.389216,-0.827043,2.113024,-0.116349,-1.048828,0.182617,-0.270996,0.074598,-0.029072,0.048653,0.999935,-0.004135,0.010565,-0.000582,0.296730,-0.452401,-0.242878,-0.805168
22990,NaN,3.194190,-3.214911,3.462375,-1.542549,3.705356,-5.760881,-1.057930,1.320339,-0.009871,-1.044678,0.184814,-0.279541,0.032169,-0.031968,0.034581,0.999964,-0.005290,0.006602,-0.000049,0.295835,-0.448439,-0.236314,-0.809654
22991,NaN,2.435309,-2.750466,3.716725,-0.741341,3.706089,-6.203674,-0.881575,0.617612,0.149234,-1.034424,0.189209,-0.281738,0.024488,-0.027322,0.037212,0.999985,-0.004408,0.003088,0.000746,0.295211,-0.447419,-0.231465,-0.811844
22992,NaN,3.328138,-2.350968,3.313304,-1.063109,2.894242,-5.561262,-0.525271,-0.023398,0.333096,-1.036621,0.195557,-0.279541,0.033316,-0.023367,0.033198,0.999995,-0.002626,-0.000117,0.001665,0.295315,-0.448489,-0.228242,-0.812128
22993,NaN,4.408938,-3.158620,2.681882,-2.418202,2.774612,-5.010416,-0.089727,-0.669629,0.411419,-1.036621,0.195557,-0.269043,0.044064,-0.031483,0.026981,0.999992,-0.000449,-0.003348,0.002057,0.296041,-0.451814,-0.227913,-0.810111
22994,NaN,7.442061,-5.520939,0.838476,-6.373217,2.473448,-3.501415,0.720421,-0.845622,0.352149,-1.041016,0.204102,-0.269043,0.074482,-0.055109,0.008501,0.999983,0.003602,-0.004228,0.001761,0.298094,-0.454394,-0.230891,-0.807066
22995,NaN,13.284337,-7.976502,2.036206,-9.766009,3.391310,1.907715,1.882768,-0.509126,0.197284,-1.047119,0.195557,-0.262695,0.132871,-0.079823,0.019949,0.999952,0.009414,-0.002546,0.000986,0.302589,-0.453856,-0.238758,-0.803399
22996,NaN,23.558839,-6.632434,10.526450,-8.110649,5.270303,15.011763,1.779329,-0.315658,0.140275,-1.042725,0.191406,-0.270996,0.235469,-0.067094,0.105042,0.999959,0.008897,-0.001578,0.000701,0.306791,-0.452450,-0.245650,-0.800515
22997,NaN,31.854671,-4.999101,13.327293,-8.811980,3.788440,23.733133,0.555640,0.400811,0.070991,-1.036621,0.193359,-0.273193,0.318831,-0.050247,0.132495,0.999994,0.002778,0.002004,0.000355,0.308847,-0.450086,-0.247067,-0.800621
22998,NaN,28.552724,-1.935780,7.960241,-8.546612,-1.171655,18.611672,-0.026760,1.064974,-0.388386,-1.031982,0.182861,-0.290039,0.285907,-0.019902,0.078083,0.999984,-0.000134,0.005325,-0.001942,0.308555,-0.445287,-0.245753,-0.803815
22999,NaN,15.303920,1.302052,11.543066,1.032677,2.527658,9.205410,-0.968042,1.067096,-0.948071,-1.031982,0.178467,-0.296387,0.153713,0.012849,0.114549,0.999963,-0.004840,0.005335,-0.004740,0.303914,-0.441319,-0.242287,-0.808808
23000,NaN,10.714374,1.150670,3.024110,-2.150494,-1.826061,1.017964,-0.715696,1.817957,-1.280084,-1.027588,0.169922,-0.321777,0.107484,0.010925,0.029225,0.999932,-0.003578,0.009090,-0.006400,0.299358,-0.433405,-0.239005,-0.815734
23001,NaN,-1.142767,-2.759016,-15.006258,-9.706565,-7.571991,-18.897710,2.195990,1.542548,-1.182238,-1.027100,0.150635,-0.327881,-0.012742,-0.025868,-0.150258,0.999893,0.010980,0.007712,-0.005911,0.301132,-0.422377,-0.248158,-0.818129
23002,NaN,-9.098698,-5.499932,-16.729776,-8.601454,-4.949471,-26.970774,3.499402,-0.777541,-0.373688,-1.026611,0.142090,-0.315186,-0.090432,-0.051888,-0.168576,0.999838,0.017496,-0.003887,-0.001868,0.306011,-0.419723,-0.263996,-0.812709
23003,NaN,-2.613647,-3.455701,-1.996607,-2.361830,1.616705,-13.629187,1.613451,-2.785964,0.369486,-1.035156,0.144287,-0.283447,-0.025789,-0.034440,-0.020605,0.999869,0.008067,-0.013929,0.001847,0.307207,-0.429018,-0.273974,-0.804056
23004,NaN,6.647238,-1.791591,8.805038,0.499640,5.765507,-0.251319,0.093968,-3.788491,1.026303,-1.039551,0.156982,-0.245361,0.064880,-0.017622,0.089281,0.999807,0.000470,-0.018941,0.005131,0.306344,-0.445422,-0.277536,-0.794182
23005,NaN,16.555806,0.688891,7.644271,-1.981227,1.132824,8.291612,-0.643697,-2.833444,1.536198,-1.046387,0.176270,-0.230713,0.164393,0.008406,0.078752,0.999865,-0.003218,-0.014167,0.007681,0.307063,-0.459743,-0.275829,-0.786300
23006,NaN,20.604262,3.630885,-1.802262,-6.133835,-8.394256,8.431877,0.591958,-1.459936,1.336515,-1.046631,0.188965,-0.207520,0.205917,0.037735,-0.016409,0.999947,0.002960,-0.007300,0.006682,0.311719,-0.466388,-0.276916,-0.780148
23007,NaN,16.570769,0.904357,-3.809587,-7.381364,-7.055449,3.812114,2.201130,-2.525659,1.037852,-1.046631,0.193115,-0.184326,0.166119,0.010308,-0.035891,0.999846,0.011005,-0.012628,0.005189,0.317380,-0.474187,-0.286942,-0.769468
23008,NaN,14.500501,-2.437180,-0.162595,-6.828204,-1.560299,3.115955,1.727478,-3.779548,0.628074,-1.050781,0.195312,-0.150391,0.145079,-0.023917,0.000907,0.999779,0.008637,-0.018896,0.003140,0.318493,-0.486813,-0.297690,-0.756939
23009,NaN,13.655354,-4.275574,7.319108,-3.642857,5.765654,4.740425,2.332037,-2.937252,0.317111,-1.048584,0.192871,-0.127197,0.135532,-0.043405,0.074683,0.999823,0.011659,-0.014685,0.001585,0.320964,-0.494615,-0.310335,-0.745674
23010,NaN,12.674819,3.711921,2.034302,0.240390,-2.686603,3.274811,1.843402,-2.097425,0.121445,-1.050537,0.190674,-0.108154,0.126501,0.036998,0.022012,0.999902,0.009217,-0.010487,0.000607,0.322806,-0.499669,-0.319894,-0.737425
23011,NaN,11.558775,2.255095,-3.322508,-3.188894,-5.717043,0.524861,5.270861,-1.523173,0.349419,-1.054932,0.190674,-0.108154,0.115793,0.023603,-0.031731,0.999622,0.026351,-0.007615,0.001747,0.334726,-0.497165,-0.340756,-0.724342
23012,NaN,2.299893,-4.386927,-4.668623,-6.505762,-1.979704,-9.540651,5.706294,-2.257676,1.175767,-1.052979,0.207764,-0.083008,0.023785,-0.042381,-0.047644,0.999512,0.028527,-0.011287,0.005878,0.349278,-0.497608,-0.361794,-0.706751
23013,NaN,7.674671,-5.565504,-6.523483,-9.551148,-3.937881,-4.745634,3.686568,-4.314026,1.736750,-1.049316,0.227051,-0.040771,0.078617,-0.053783,-0.064555,0.999560,0.018430,-0.021567,0.008682,0.356650,-0.509354,-0.377839,-0.686001
23014,NaN,9.504814,-3.178895,-5.092470,-6.938587,-3.986872,-1.918440,3.455530,-4.098464,1.712144,-1.047607,0.246338,-0.015625,0.096335,-0.030104,-0.049489,0.999604,0.017275,-0.020490,0.008560,0.363589,-0.520363,-0.392195,-0.665739
23015,NaN,8.819563,0.283933,-3.125232,-2.564046,-3.542132,-1.536311,4.087588,-2.949407,1.634589,-1.043701,0.263184,0.005371,0.088612,0.004182,-0.029871,0.999649,0.020436,-0.014745,0.008172,0.373773,-0.525793,-0.406737,-0.646839
23016,NaN,8.931122,-0.743419,-2.548503,-2.972721,-2.504993,-1.345717,5.017025,-2.894301,1.609069,-1.035645,0.282471,0.024170,0.089722,-0.006093,-0.024353,0.999548,0.025081,-0.014469,0.008044,0.386274,-0.528905,-0.423687,-0.625733
23017,NaN,15.404515,-2.115496,-0.058500,-4.027507,0.297127,5.202336,4.879208,-3.422932,1.167546,-1.029541,0.288818,0.041016,0.154151,-0.020276,0.001551,0.999539,0.024392,-0.017112,0.005837,0.395418,-0.532443,-0.442244,-0.603797
23018,NaN,12.415892,1.012326,-5.803711,-2.208417,-5.829830,2.434512,0.885181,-1.589145,-0.442803,-1.027100,0.282471,0.053711,0.124637,0.010101,-0.057003,0.999956,0.004426,-0.007946,-0.002214,0.393082,-0.534588,-0.448960,-0.598445
23019,NaN,8.954866,0.547327,-5.264498,-2.013731,-5.077863,-0.960406,1.517236,-0.974221,-0.066789,-1.027100,0.284668,0.058105,0.089805,0.005840,-0.052165,0.999959,0.007586,-0.004871,-0.000334,0.394751,-0.534375,-0.455541,-0.592534
23020,NaN,5.955696,-1.863804,-0.948943,-2.724105,-0.283651,-4.125570,0.889772,-0.624519,0.152554,-1.025146,0.288818,0.066406,0.059601,-0.018551,-0.009386,0.999985,0.004449,-0.003123,0.000763,0.396324,-0.534916,-0.458769,-0.588492
23021,NaN,7.392258,0.205398,1.065212,-0.349900,1.174859,-2.442517,1.436449,-0.617660,0.293676,-1.023193,0.295166,0.066406,0.073886,0.002085,0.010895,0.999968,0.007182,-0.003088,0.001468,0.399616,-0.534570,-0.463386,-0.582937
23022,NaN,8.140310,3.235587,-0.949958,2.016345,-1.474789,-1.363131,1.289649,-0.133248,0.444089,-1.027588,0.297363,0.060059,0.081337,0.032597,-0.009236,0.999977,0.006448,-0.000666,0.002220,0.404215,-0.533506,-0.465987,-0.578651
23023,NaN,8.753695,2.413884,-1.194863,1.138023,-1.494995,-0.848787,0.459356,0.447465,0.153902,-1.023193,0.297363,0.055908,0.087491,0.024234,-0.012089,0.999995,0.002297,0.002237,0.000770,0.406941,-0.531666,-0.465966,-0.578452
23024,NaN,7.494678,2.409801,-0.606105,1.440736,-0.917522,-2.103867,1.013410,-1.244726,0.299160,-1.021484,0.305908,0.068359,0.074946,0.024239,-0.005472,0.999967,0.005067,-0.006224,0.001496,0.407752,-0.533986,-0.470406,-0.572115
23025,NaN,9.418946,3.621605,2.240227,3.128448,1.787453,-0.124225,0.936907,-1.492696,0.303215,-1.023438,0.308105,0.081055,0.093963,0.036251,0.023274,0.999960,0.004684,-0.007463,0.001516,0.407609,-0.537065,-0.475268,-0.565276
23026,NaN,9.247213,2.723524,1.677824,2.201476,1.573847,-0.409589,0.827192,-1.342246,0.292678,-1.019287,0.314453,0.091553,0.092316,0.027299,0.017511,0.999968,0.004136,-0.006711,0.001463,0.407613,-0.539944,-0.479334,-0.559063
23027,NaN,9.000435,2.261922,2.096493,1.911731,2.222957,-0.761723,1.187363,-1.814422,0.353307,-1.012939,0.312256,0.108643,0.089768,0.022650,0.021914,0.999940,0.005937,-0.009072,0.001766,0.407447,-0.543438,-0.485335,-0.550556
23028,NaN,8.916897,3.833842,2.430324,3.574834,2.401115,-0.781167,0.990372,-1.505230,0.415012,-1.008789,0.318604,0.125488,0.088902,0.038400,0.025163,0.999957,0.004952,-0.007526,0.002075,0.407767,-0.546631,-0.489772,-0.543179
23029,NaN,8.978342,3.072348,2.468126,2.876641,2.731302,-0.845813,0.787927,-1.252407,0.291602,-1.002686,0.329346,0.131592,0.089581,0.030755,0.025364,0.999972,0.003940,-0.006262,0.001458,0.407647,-0.549154,-0.493622,-0.537207
23030,NaN,8.265198,1.772958,3.454253,1.860275,3.971305,-1.802968,1.168878,-1.120998,0.317811,-1.004883,0.333496,0.135742,0.082428,0.017657,0.035108,0.999966,0.005844,-0.005605,0.001589,0.409081,-0.550619,-0.497946,-0.530585
23031,NaN,8.999234,0.450990,1.851352,0.248237,2.802684,-1.054840,1.299066,-0.835436,0.280921,-1.005127,0.340088,0.133545,0.089908,0.004514,0.018919,0.999969,0.006495,-0.004177,0.001405,0.411322,-0.550891,-0.502280,-0.524450
23032,NaN,10.765629,-0.269198,1.987516,-0.515982,3.335136,0.605163,1.168476,-0.722245,0.226440,-0.998779,0.342041,0.144287,0.107587,-0.002688,0.020248,0.999976,0.005842,-0.003611,0.001132,0.413465,-0.551001,-0.505974,-0.519070
23033,NaN,11.778070,-1.757938,3.214327,-1.840978,4.940721,1.338326,0.950704,-0.478637,0.192591,-0.996582,0.342041,0.139893,0.117720,-0.017619,0.032341,0.999985,0.004753,-0.002393,0.000963,0.415379,-0.550788,-0.508861,-0.514931
23034,NaN,12.807411,-1.410486,1.519762,-1.781879,3.388917,2.583644,1.227162,-0.272162,0.210306,-0.996826,0.348633,0.137695,0.128068,-0.014064,0.015286,0.999980,0.006136,-0.001361,0.001052,0.418763,-0.549527,-0.511762,-0.510643
23035,NaN,13.628887,0.267720,1.601292,-0.132810,3.391975,3.486152,1.548268,-0.203676,0.259192,-0.992920,0.359375,0.133545,0.136269,0.002729,0.016173,0.999969,0.007741,-0.001018,0.001296,0.423156,-0.547483,-0.515382,-0.505552
23036,NaN,12.837227,-0.565956,2.833468,-0.781776,4.589893,2.494419,1.654931,0.093437,0.178532,-0.999268,0.354980,0.129395,0.128391,-0.005779,0.028227,0.999965,0.008275,0.000467,0.000893,0.428536,-0.544247,-0.518616,-0.501188
23037,NaN,11.742498,-0.774779,2.843455,-0.978059,4.437756,1.408771,1.776364,0.355245,0.103323,-0.990967,0.363525,0.120850,0.117479,-0.007938,0.028156,0.999959,0.008882,0.001776,0.000517,0.434542,-0.539829,-0.521972,-0.497295
23038,NaN,11.107366,-0.295671,1.813649,-0.596355,3.238852,0.953188,1.925356,0.540471,0.034902,-0.989014,0.365723,0.112305,0.111123,-0.003110,0.017807,0.999950,0.009627,0.002702,0.000175,0.441396,-0.534423,-0.525206,-0.493681
23039,NaN,10.734580,0.221159,1.524248,-0.121756,2.812034,0.660162,2.162114,0.679808,-0.024748,-0.997559,0.370117,0.097412,0.107397,0.002036,0.014900,0.999936,0.010810,0.003399,-0.000124,0.448879,-0.527908,-0.529044,-0.489831
23040,NaN,10.416163,0.312067,1.883068,-0.048174,3.053034,0.327118,2.610352,0.820044,-0.078533,-0.997803,0.370117,0.078369,0.104239,0.002837,0.018442,0.999906,0.013051,0.004100,-0.000393,0.457887,-0.519835,-0.533488,-0.485285
23041,NaN,10.494240,0.226801,3.282394,-0.198071,4.368906,0.278207,2.937142,1.010948,-0.112335,-0.995850,0.370361,0.055176,0.105108,0.001732,0.032321,0.999879,0.014685,0.005055,-0.000562,0.467900,-0.510331,-0.538497,-0.480264
23042,NaN,10.854646,-0.152130,3.865920,-0.712974,4.853387,0.614427,2.944116,1.306722,-0.151526,-1.000244,0.374756,0.033936,0.108794,-0.002166,0.037920,0.999870,0.014720,0.006533,-0.000758,0.478691,-0.499875,-0.542551,-0.476044
23043,NaN,11.550391,-1.048455,2.026596,-1.653134,2.854580,1.489149,2.612560,1.728165,-0.219232,-1.008789,0.372559,0.008789,0.115661,-0.010866,0.019127,0.999877,0.013062,0.008640,-0.001096,0.489337,-0.488889,-0.545085,-0.473728
23044,NaN,11.512648,-2.329457,0.378546,-2.845163,0.850870,1.557644,2.727291,2.014239,-0.207323,-1.009033,0.376953,-0.023193,0.115130,-0.023452,0.002307,0.999856,0.013636,0.010071,-0.001037,0.501120,-0.476848,-0.546759,-0.471751
23045,NaN,10.890507,-2.361079,0.722926,-2.890854,0.850285,0.939601,2.851702,2.326902,-0.204997,-1.006836,0.370605,-0.052734,0.108952,-0.023810,0.005623,0.999830,0.014258,0.011634,-0.001025,0.513721,-0.463611,-0.548023,-0.469922
23046,NaN,11.944527,-3.234702,-0.489181,-3.634315,-0.803355,1.998635,2.665039,2.609621,-0.410624,-1.002441,0.362061,-0.086426,0.119297,-0.032509,-0.006882,0.999824,0.013324,0.013047,-0.002053,0.526183,-0.449466,-0.548148,-0.469729
23047,NaN,12.236659,-4.855077,-3.256781,-4.755129,-4.224386,2.163821,2.327506,3.030073,-0.479162,-1.004883,0.362305,-0.130859,0.121733,-0.048445,-0.034980,0.999815,0.011637,0.015149,-0.002396,0.538504,-0.434869,-0.546592,-0.471317
23048,NaN,11.679738,-8.666737,-2.753984,-8.408161,-4.961070,1.312128,3.350802,3.494645,-0.184017,-1.006836,0.355957,-0.173096,0.116196,-0.086274,-0.031022,0.999707,0.016752,0.017472,-0.000920,0.554934,-0.417027,-0.545035,-0.470185
