// Start Time: Unknown
// Update Rate: 100.0Hz
// Filter Profile: human (46.1)
// Firmware Version: 4.4.0
PacketCounter,SampleTimeFine,Acc_X,Acc_Y,Acc_Z,FreeAcc_X,FreeAcc_Y,FreeAcc_Z,Gyr_X,Gyr_Y,Gyr_Z,Mag_X,Mag_Y,Mag_Z,VelInc_X,VelInc_Y,VelInc_Z,OriInc_q0,OriInc_q1,OriInc_q2,OriInc_q3,Quat_q0,Quat_q1,Quat_q2,Quat_q3
10476,NaN,13.869298,0.082053,5.341942,-0.000000,0.000000,5.050024,-0.821397,0.247482,0.041229,-1.017090,-0.120605,0.063232,0.138759,0.001068,0.053244,0.999991,-0.004107,0.001237,0.000206,-0.118067,-0.561228,0.076840,-0.815585
10477,NaN,12.354299,0.227254,4.924854,0.000000,-0.000000,3.488967,-0.320944,0.584574,0.014320,-1.021484,-0.120361,0.050537,0.123686,0.002360,0.048883,0.999994,-0.001605,0.002923,0.000072,-0.112418,-0.558497,0.065812,-0.819214
10478,NaN,11.331479,-0.742292,1.394593,-2.509306,1.621950,1.231308,-0.043805,1.019709,0.079032,-1.017090,-0.122559,0.044189,0.113387,-0.007375,0.013370,0.999987,-0.000219,0.005099,0.000395,-0.115655,-0.556358,0.070633,-0.819817
10479,NaN,10.428432,-1.385303,-4.449289,-7.351284,3.584815,-1.839360,-0.149171,1.083731,0.192148,-1.019531,-0.118164,0.031494,0.104054,-0.013786,-0.045047,0.999985,-0.000746,0.005419,0.000961,-0.115663,-0.551753,0.071152,-0.822878
10480,NaN,9.651959,-0.570268,-3.879867,-6.822734,2.589164,-2.377313,-0.211202,0.827313,0.243329,-1.023926,-0.114014,0.025146,0.096365,-0.005627,-0.039192,0.999990,-0.001056,0.004137,0.001217,-0.116261,-0.549652,0.072237,-0.824104
10481,NaN,8.081483,-1.026625,-0.546772,-3.212733,2.031848,-2.586833,-0.404226,0.721276,0.148200,-1.025879,-0.115967,0.020996,0.080802,-0.010218,-0.005738,0.999991,-0.002021,0.003606,0.000741,-0.117020,-0.546386,0.073890,-0.826020
10482,NaN,7.407737,-0.892963,0.702570,-1.879297,1.493482,-2.713165,-0.517604,0.503466,0.115185,-1.021729,-0.118164,0.016602,0.074100,-0.008869,0.006862,0.999993,-0.002588,0.002517,0.000576,-0.118783,-0.546819,0.078333,-0.825072
10483,NaN,8.875868,-1.062671,0.301803,-2.760879,1.917549,-1.524026,-0.177694,0.212097,0.124487,-1.021729,-0.118164,0.012451,0.088768,-0.010569,0.002933,0.999999,-0.000888,0.001060,0.000622,-0.118838,-0.545789,0.079280,-0.825655
10484,NaN,10.700961,-0.542649,0.877280,-3.008272,1.437102,0.407862,0.087909,-0.206798,0.123305,-1.021729,-0.115967,0.016602,0.107004,-0.005364,0.008881,0.999999,0.000440,-0.001034,0.000617,-0.120780,-0.549222,0.083443,-0.822681
10485,NaN,12.111896,0.587221,1.998649,-2.821455,0.182023,2.147381,0.265684,-0.607300,0.087477,-1.025879,-0.120361,0.027344,0.121055,0.005898,0.020362,0.999994,0.001328,-0.003036,0.000437,-0.119436,-0.551841,0.082956,-0.821173
10486,NaN,12.186283,0.550334,2.506862,-2.208645,0.021967,2.443466,0.279010,-0.786311,-0.014063,-1.021729,-0.116211,0.029297,0.121763,0.005459,0.025555,0.999991,0.001395,-0.003932,-0.000070,-0.121929,-0.558265,0.087387,-0.815988
10487,NaN,11.667192,-0.101010,2.441692,-1.793906,0.589619,1.957136,0.191978,-0.884874,-0.067198,-1.025879,-0.114014,0.044189,0.116562,-0.001073,0.024932,0.999990,0.000960,-0.004424,-0.000336,-0.121280,-0.562016,0.086954,-0.813553
10488,NaN,10.783197,-0.944878,3.298073,-0.270051,0.989400,1.456493,0.340745,-1.048248,-0.078108,-1.023682,-0.116211,0.052734,0.107653,-0.009548,0.033529,0.999985,0.001704,-0.005241,-0.000391,-0.123497,-0.569562,0.091189,-0.807485
10489,NaN,9.165844,-0.923939,3.432511,0.468032,0.763431,-0.022598,0.512758,-0.993223,-0.024124,-1.019287,-0.118408,0.063232,0.091485,-0.009339,0.034756,0.999984,0.002564,-0.004966,-0.000121,-0.121680,-0.573891,0.089662,-0.804863
10490,NaN,8.418839,0.351973,1.948126,-0.889409,-0.165515,-1.211697,0.310757,-0.829980,0.077035,-1.019531,-0.114014,0.073730,0.084105,0.003521,0.019836,0.999990,0.001554,-0.004150,0.000385,-0.124133,-0.579479,0.095833,-0.799757
10491,NaN,8.643867,1.803979,2.089416,-1.214609,-1.595756,-0.963148,0.171401,-0.695205,0.180292,-1.023682,-0.116211,0.077881,0.086349,0.018100,0.021210,0.999993,0.000857,-0.003476,0.000901,-0.122581,-0.582275,0.096101,-0.797931
10492,NaN,8.872061,1.946362,3.977794,0.473376,-2.332486,-0.186689,0.208788,-0.450644,0.231366,-1.021729,-0.103516,0.086426,0.088608,0.019524,0.039998,0.999996,0.001044,-0.002253,0.001157,-0.123155,-0.586160,0.099207,-0.794612
10493,NaN,8.822615,1.634033,4.624468,1.209490,-2.261669,-0.049689,0.161721,-0.373627,0.253274,-1.017334,-0.107666,0.090576,0.088119,0.016414,0.046423,0.999997,0.000809,-0.001868,0.001266,-0.121489,-0.587616,0.099537,-0.793750
10494,NaN,8.917185,1.721473,4.623444,1.238933,-2.320115,0.033014,0.076780,-0.355122,0.238443,-1.019531,-0.105469,0.090576,0.089069,0.017303,0.046399,0.999998,0.000384,-0.001776,0.001192,-0.118810,-0.590525,0.096511,-0.792370
10495,NaN,8.734993,1.343508,4.509042,1.323552,-1.967326,-0.178669,-0.041515,-0.271717,0.206116,-1.023926,-0.103516,0.092773,0.087275,0.013534,0.045206,0.999999,-0.000208,-0.001359,0.001031,-0.117985,-0.591476,0.097446,-0.791669
10496,NaN,8.488968,1.172258,4.302188,1.315260,-1.683083,-0.464808,-0.054777,-0.220311,0.181581,-1.021729,-0.103516,0.094727,0.084832,0.011811,0.043112,0.999999,-0.000274,-0.001102,0.000908,-0.113737,-0.593211,0.090031,-0.791871
10497,NaN,8.503243,1.184858,3.951600,1.001557,-1.617312,-0.554972,0.024405,-0.226166,0.157590,-1.023926,-0.099121,0.096924,0.084978,0.011911,0.039614,0.999999,0.000122,-0.001131,0.000788,-0.112938,-0.594049,0.090530,-0.791300
10498,NaN,8.704434,1.554406,3.882468,0.842600,-1.840141,-0.370191,0.074507,-0.292781,0.134425,-1.019775,-0.099121,0.098877,0.086977,0.015588,0.038958,0.999999,0.000373,-0.001464,0.000672,-0.107333,-0.595688,0.080706,-0.791910
10499,NaN,8.775647,1.877789,4.237207,1.092445,-2.252160,-0.209238,0.051542,-0.292410,0.090568,-1.021729,-0.101318,0.103271,0.087686,0.018807,0.042505,0.999999,0.000258,-0.001462,0.000453,-0.106703,-0.596836,0.080928,-0.791108
10500,NaN,8.824369,2.203492,4.590936,1.408586,-2.512566,-0.040053,-0.023952,-0.283294,0.059372,-1.019775,-0.101318,0.103271,0.088172,0.022067,0.046032,0.999999,-0.000120,-0.001416,0.000297,-0.100516,-0.598150,0.069222,-0.792036
10501,NaN,8.811390,2.407161,4.720026,1.506728,-2.753361,-0.021754,-0.096082,-0.268812,0.021665,-1.017334,-0.105713,0.103271,0.088048,0.024104,0.047307,0.999999,-0.000480,-0.001344,0.000108,-0.100624,-0.599158,0.069802,-0.791209
10502,NaN,8.748432,2.062035,4.875535,1.834752,-2.274291,-0.013751,-0.312586,-0.162962,0.001898,-1.015381,-0.105713,0.107422,0.087444,0.020697,0.048794,0.999998,-0.001563,-0.000815,0.000009,-0.094656,-0.599838,0.056515,-0.792490
10503,NaN,8.692882,1.878309,4.581984,1.609428,-2.063417,-0.156561,-0.695344,-0.055838,0.000388,-1.017334,-0.105713,0.105469,0.086916,0.018942,0.045778,0.999994,-0.003477,-0.000279,0.000002,-0.096724,-0.599727,0.059298,-0.792121
10504,NaN,8.826540,2.018145,4.167269,1.186336,-1.958749,-0.112041,-1.124205,-0.002440,-0.027048,-1.015381,-0.105713,0.103271,0.088268,0.020403,0.041559,0.999984,-0.005621,-0.000012,-0.000135,-0.092676,-0.599076,0.048892,-0.793807
10505,NaN,9.144616,2.410711,2.903352,-0.200737,-2.104958,-0.148645,-1.318631,-0.038742,-0.148752,-1.015137,-0.114258,0.103271,0.091459,0.024230,0.028892,0.999978,-0.006593,-0.000194,-0.000744,-0.097205,-0.598641,0.053697,-0.793282
10506,NaN,9.074375,1.320444,3.611340,0.706335,-1.038954,-0.037668,-1.189823,0.406659,-0.245293,-1.019287,-0.118408,0.096924,0.090833,0.013307,0.035850,0.999979,-0.005949,0.002033,-0.001226,-0.094536,-0.596427,0.042834,-0.795929
10507,NaN,8.440312,-0.113895,3.642004,1.142875,0.282362,-0.695126,-1.366013,0.487562,-0.262112,-1.021240,-0.122803,0.080078,0.084490,-0.001002,0.036221,0.999973,-0.006830,0.002438,-0.001311,-0.099755,-0.593881,0.047257,-0.796945
10508,NaN,7.972144,-0.817999,3.481543,1.223878,1.083320,-1.229346,-1.424250,0.489359,-0.279297,-1.014893,-0.122803,0.082275,0.079795,-0.008044,0.034678,0.999971,-0.007121,0.002447,-0.001396,-0.101583,-0.591586,0.040053,-0.798813
10509,NaN,7.330095,-1.116601,2.934659,0.920148,1.384603,-2.013622,-1.376826,0.546407,-0.266099,-1.014893,-0.129150,0.065430,0.073366,-0.011062,0.029223,0.999972,-0.006884,0.002732,-0.001330,-0.106825,-0.588741,0.044486,-0.799996
10510,NaN,6.965269,-1.430042,3.241795,1.312952,1.669830,-2.292251,-1.108976,0.556723,-0.245467,-1.020996,-0.137695,0.059082,0.069725,-0.014207,0.032303,0.999980,-0.005545,0.002784,-0.001227,-0.107304,-0.585295,0.039063,-0.802739
10511,NaN,7.066928,-1.533551,3.874278,1.865896,1.649203,-1.995927,-0.998371,0.493362,-0.200313,-1.014648,-0.137695,0.056885,0.070749,-0.015213,0.038644,0.999984,-0.004992,0.002467,-0.001002,-0.111125,-0.582808,0.042218,-0.803868
10512,NaN,7.343594,-1.261999,4.011966,1.823141,1.433966,-1.674096,-0.891092,0.465574,-0.174123,-1.018799,-0.137695,0.050537,0.073518,-0.012506,0.040004,0.999987,-0.004455,0.002328,-0.000871,-0.114018,-0.580798,0.041056,-0.804977
10513,NaN,7.945465,-1.053759,3.552972,1.139250,1.396226,-1.232651,-0.585506,0.404967,-0.152371,-1.014404,-0.141846,0.044434,0.079518,-0.010494,0.035400,0.999993,-0.002928,0.002025,-0.000762,-0.116414,-0.578861,0.042739,-0.805941
10514,NaN,8.461812,-0.950785,2.506545,-0.051523,1.601236,-1.082144,-0.344425,0.244570,-0.162415,-1.018555,-0.148193,0.046387,0.084641,-0.009534,0.024978,0.999997,-0.001722,0.001223,-0.000812,-0.117567,-0.576876,0.042104,-0.807229
10515,NaN,8.374480,-0.929183,0.928916,-1.489636,1.899329,-1.686698,-0.571690,0.052168,-0.204935,-1.014404,-0.150391,0.035889,0.083738,-0.009351,0.009294,0.999995,-0.002858,0.000261,-0.001025,-0.120055,-0.576369,0.043789,-0.807136
10516,NaN,7.572930,-0.320462,0.031511,-2.195082,1.397609,-2.693613,-0.928295,-0.085597,-0.268958,-1.010010,-0.154785,0.040283,0.075725,-0.003305,0.000363,0.999988,-0.004641,-0.000428,-0.001345,-0.125554,-0.576529,0.049020,-0.805883
10517,NaN,7.305138,0.065098,-0.153032,-2.369345,1.047985,-2.980368,-1.158590,-0.106621,-0.313098,-1.009766,-0.158936,0.040283,0.073053,0.000528,-0.001495,0.999982,-0.005793,-0.000533,-0.001565,-0.130128,-0.576297,0.052851,-0.805081
10518,NaN,6.918667,-0.293822,0.693588,-1.362488,1.140972,-3.083858,-1.026203,0.151550,-0.323617,-1.011719,-0.165527,0.036133,0.069187,-0.003015,0.006899,0.999985,-0.005131,0.000758,-0.001618,-0.135542,-0.575668,0.058573,-0.804241
10519,NaN,6.165848,-1.237046,1.868545,0.184584,1.649032,-3.465566,-0.554039,0.645372,-0.175154,-1.005371,-0.165283,0.023438,0.061708,-0.012373,0.018521,0.999991,-0.002770,0.003227,-0.000876,-0.138031,-0.572742,0.059858,-0.805811
10520,NaN,6.954173,-0.543563,2.574861,0.352211,0.919632,-2.442754,-0.336487,0.692594,-0.086765,-1.011719,-0.169678,0.014893,0.069628,-0.005423,0.025517,0.999992,-0.001682,0.003463,-0.000434,-0.140837,-0.570101,0.062816,-0.806972
10521,NaN,7.824452,0.343804,2.736513,-0.088920,0.182971,-1.518890,-0.179602,0.695948,-0.074939,-1.005371,-0.169678,0.004395,0.078340,0.003433,0.027090,0.999993,-0.000898,0.003480,-0.000375,-0.141871,-0.567185,0.062835,-0.808842
10522,NaN,8.798259,0.435441,2.536595,-0.656552,0.310541,-0.674552,0.013709,0.615656,-0.022047,-1.011719,-0.169678,0.002197,0.088061,0.004343,0.025095,0.999995,0.000069,0.003078,-0.000110,-0.143149,-0.564738,0.063828,-0.810250
10523,NaN,9.056713,0.450464,1.807356,-1.446359,0.548161,-0.696718,0.062222,0.508502,-0.007690,-1.011719,-0.171631,-0.004150,0.090613,0.004496,0.017845,0.999997,0.000311,0.002543,-0.000038,-0.143169,-0.562721,0.063188,-0.811699
10524,NaN,9.264158,0.761583,1.197352,-2.192545,0.448828,-0.711617,-0.036794,0.374319,0.035967,-1.007568,-0.171631,-0.010498,0.092662,0.007635,0.011799,0.999998,-0.000184,0.001872,0.000180,-0.144735,-0.561078,0.065534,-0.812372
10525,NaN,9.685518,0.942329,2.657157,-1.115064,-0.048546,0.212876,-0.463501,0.207852,0.054993,-1.005371,-0.173828,-0.010498,0.096880,0.009511,0.026449,0.999997,-0.002318,0.001039,0.000275,-0.145883,-0.559876,0.067418,-0.812842
10526,NaN,9.562417,0.949689,3.356775,-0.486469,-0.295017,0.350279,-0.572120,0.232503,-0.007899,-1.000977,-0.176025,-0.014648,0.095663,0.009589,0.033429,0.999995,-0.002861,0.001163,-0.000039,-0.148912,-0.558489,0.071754,-0.812876
10527,NaN,9.117589,0.670637,3.113045,-0.499385,-0.036427,-0.167978,-0.380208,0.337048,-0.045073,-1.007568,-0.169434,-0.023193,0.091230,0.006745,0.030964,0.999997,-0.001901,0.001685,-0.000225,-0.150282,-0.556848,0.072920,-0.813645
10528,NaN,8.664701,-0.037265,3.029754,-0.226896,0.570551,-0.654046,-0.117135,0.411745,0.032325,-1.003418,-0.167236,-0.031738,0.086709,-0.000341,0.030119,0.999998,-0.000586,0.002059,0.000162,-0.151896,-0.554965,0.075195,-0.814425
10529,NaN,8.666494,-0.211697,2.282882,-0.867373,0.956061,-0.941500,-0.052718,0.438416,0.139237,-1.003418,-0.169434,-0.033691,0.086716,-0.002051,0.022639,0.999997,-0.000264,0.002192,0.000696,-0.151644,-0.553083,0.075460,-0.815726
10530,NaN,8.403135,-0.106424,2.055983,-1.049927,0.862236,-1.268384,-0.012623,0.427175,0.255652,-1.001465,-0.163086,-0.040039,0.084076,-0.000955,0.020380,0.999997,-0.000063,0.002136,0.001278,-0.152131,-0.551172,0.078069,-0.816683
10531,NaN,8.713197,-0.021958,1.967150,-1.308060,0.847459,-1.017203,0.083276,0.448767,0.365388,-1.005859,-0.160889,-0.042236,0.087176,-0.000068,0.019476,0.999996,0.000416,0.002244,0.001827,-0.150589,-0.549255,0.078392,-0.818228
10532,NaN,9.037422,-0.103017,1.470691,-1.871988,1.093062,-0.916109,0.274087,0.508515,0.461009,-1.003906,-0.154541,-0.046631,0.090413,-0.000842,0.014476,0.999993,0.001370,0.002543,0.002305,-0.149743,-0.547301,0.080555,-0.819481
10533,NaN,10.137810,-0.467628,1.047183,-2.574673,1.710884,-0.089832,0.440777,0.551280,0.529295,-1.006104,-0.154297,-0.054932,0.101418,-0.004431,0.010182,0.999990,0.002204,0.002756,0.002646,-0.146593,-0.545151,0.079781,-0.821557
10534,NaN,11.539213,-0.827099,1.768349,-2.396292,2.017481,1.463450,0.448712,0.719721,0.511976,-1.004150,-0.145752,-0.063477,0.115475,-0.008014,0.017250,0.999988,0.002244,0.003599,0.002560,-0.145494,-0.542645,0.081540,-0.823237
10535,NaN,12.026032,-1.247978,2.404574,-2.002640,2.292973,2.132811,0.362859,1.036446,0.437253,-1.004395,-0.143555,-0.069824,0.120410,-0.012259,0.023400,0.999983,0.001814,0.005182,0.002186,-0.143134,-0.538453,0.080475,-0.826502
10536,NaN,12.093938,-2.092093,3.358175,-1.046242,2.811215,2.553285,0.410937,1.333229,0.346899,-1.006592,-0.141357,-0.082520,0.121196,-0.020779,0.032732,0.999974,0.002055,0.006666,0.001734,-0.143480,-0.533608,0.082014,-0.829427
10537,NaN,12.915504,-2.111475,4.348161,-0.702003,2.706095,3.691210,0.341289,1.543913,0.303177,-1.004639,-0.135010,-0.103760,0.129517,-0.020992,0.042447,0.999968,0.001706,0.007719,0.001516,-0.141946,-0.527306,0.080295,-0.833878
10538,NaN,13.931546,-1.808634,4.021143,-1.676970,2.679269,4.453784,0.154396,1.786734,0.222098,-0.998535,-0.135010,-0.116455,0.139687,-0.017962,0.038951,0.999959,0.000772,0.008934,0.001110,-0.144215,-0.520412,0.082894,-0.837557
10539,NaN,14.766203,-1.240858,3.971533,-2.522602,2.356427,5.134877,-0.006282,1.968051,0.133078,-0.994385,-0.132812,-0.135498,0.148052,-0.012309,0.038260,0.999951,-0.000031,0.009840,0.000665,-0.144487,-0.512083,0.081841,-0.842732
10540,NaN,15.432658,-0.012563,4.829350,-2.776986,1.110226,6.078599,-0.145894,2.390439,0.051610,-0.994385,-0.136963,-0.163086,0.154889,-0.000051,0.046445,0.999928,-0.000729,0.011952,0.000258,-0.148997,-0.502530,0.085175,-0.847354
10541,NaN,16.105564,-0.312994,4.375849,-3.764173,1.766854,6.352831,-0.449853,2.974397,0.010248,-0.988037,-0.136719,-0.194824,0.161683,-0.003027,0.041364,0.999887,-0.002249,0.014871,0.000051,-0.151339,-0.489530,0.084878,-0.854548
10542,NaN,15.393803,-0.696235,3.440270,-4.480214,2.399952,5.134920,-0.742720,3.582135,0.136134,-0.984375,-0.128174,-0.232910,0.154526,-0.006736,0.031664,0.999832,-0.003713,0.017910,0.000681,-0.157556,-0.474443,0.089699,-0.861414
10543,NaN,12.776707,-0.614463,1.532916,-5.190426,2.532408,1.702340,-1.232564,4.010402,0.513141,-0.974121,-0.121582,-0.268799,0.128056,-0.005732,0.012799,0.999777,-0.006162,0.020051,0.002566,-0.160038,-0.455862,0.093044,-0.870587
10544,NaN,13.180208,0.716159,2.834832,-5.278208,1.056441,2.567676,-0.869204,3.361891,0.428303,-0.966064,-0.110840,-0.298584,0.132237,0.007561,0.026096,0.999847,-0.004346,0.016809,0.002141,-0.165663,-0.441586,0.099266,-0.876187
10545,NaN,12.070053,-2.619578,6.741680,-0.911162,2.791172,3.948218,0.448319,2.995796,0.254639,-0.959717,-0.112793,-0.326172,0.121725,-0.026190,0.065540,0.999884,0.002242,0.014978,0.001273,-0.165031,-0.428654,0.095370,-0.883134
10546,NaN,9.295670,-3.543901,9.781401,2.928596,2.133808,3.659558,-0.568038,2.888345,0.437454,-0.951660,-0.104248,-0.355713,0.094434,-0.034958,0.096557,0.999889,-0.002840,0.014441,0.002187,-0.169989,-0.416678,0.100557,-0.887340
10547,NaN,10.155573,-1.213243,4.529287,-2.508800,1.896378,0.921640,-0.277169,2.306816,0.603535,-0.949707,-0.102051,-0.379150,0.102105,-0.011763,0.044134,0.999928,-0.001386,0.011534,0.003018,-0.169042,-0.405872,0.101074,-0.892456
10548,NaN,7.989847,1.677556,5.713099,-1.688475,-1.608913,-0.125165,0.081379,2.180949,0.502496,-0.941406,-0.095459,-0.387695,0.080473,0.016954,0.056262,0.999937,0.000407,0.010905,0.002512,-0.172025,-0.397254,0.103899,-0.895434
10549,NaN,9.542866,0.970189,4.063195,-3.675568,-0.012401,-0.065664,-0.159998,1.708557,-0.160635,-0.937012,-0.097656,-0.402344,0.095779,0.009657,0.039807,0.999963,-0.000800,0.008543,-0.000803,-0.173948,-0.389533,0.102821,-0.898573
10550,NaN,4.633599,-0.148580,5.955098,1.039748,-0.716259,-2.372222,-0.260782,1.365171,-0.202442,-0.928711,-0.097656,-0.417236,0.046740,-0.001456,0.059235,0.999975,-0.001304,0.006826,-0.001012,-0.180372,-0.384733,0.105847,-0.899023
10551,NaN,3.330394,-1.245694,5.302820,1.824422,0.208808,-3.697877,-0.209233,0.769161,-0.343953,-0.926514,-0.099609,-0.421387,0.033486,-0.012459,0.052913,0.999991,-0.001046,0.003846,-0.001720,-0.182731,-0.381263,0.105429,-0.900074
10552,NaN,4.091430,-2.079166,5.450879,1.782153,1.079264,-2.998443,-0.255819,0.181073,-0.330425,-0.926514,-0.099609,-0.419434,0.040929,-0.020790,0.054498,0.999997,-0.001279,0.000905,-0.001652,-0.188400,-0.381563,0.108693,-0.898388
10553,NaN,5.584749,-1.164973,4.973877,0.140026,0.792236,-2.286813,-0.367443,-0.081993,-0.294661,-0.924316,-0.099609,-0.417236,0.055810,-0.011641,0.049783,0.999997,-0.001837,-0.000410,-0.001473,-0.190385,-0.381742,0.109857,-0.897752
10554,NaN,5.525400,-0.813035,4.251912,-0.396166,0.685064,-2.838196,-0.231758,-0.200401,-0.365918,-0.926514,-0.099609,-0.417236,0.055196,-0.008182,0.042584,0.999997,-0.001159,-0.001002,-0.001830,-0.196249,-0.383607,0.113467,-0.895241
10555,NaN,4.403259,-1.061043,3.795699,0.148991,0.776214,-3.956318,0.016273,-0.341232,-0.383354,-0.928223,-0.108398,-0.415039,0.043947,-0.010698,0.038031,0.999997,0.000081,-0.001706,-0.001917,-0.197745,-0.385366,0.112992,-0.894217
10556,NaN,3.667540,-0.729398,3.512386,0.326626,0.372555,-4.706403,0.295940,-0.519512,-0.349662,-0.928467,-0.104004,-0.410889,0.036571,-0.007410,0.035208,0.999994,0.001480,-0.002598,-0.001748,-0.201800,-0.389089,0.114288,-0.891530
10557,NaN,3.206344,-0.508091,2.998166,0.213952,0.244830,-5.405652,0.538368,-0.687419,-0.271340,-0.925781,-0.116943,-0.398193,0.031953,-0.005205,0.030078,0.999990,0.002692,-0.003437,-0.001357,-0.201572,-0.392846,0.112051,-0.890217
10558,NaN,2.765923,0.002001,2.435672,-0.068968,-0.131335,-6.130202,0.664541,-0.863671,-0.219304,-0.932129,-0.116943,-0.393799,0.027554,-0.000091,0.024476,0.999985,0.003323,-0.004318,-0.001097,-0.203631,-0.398256,0.112066,-0.887338
10559,NaN,1.837318,0.362648,2.045251,0.104790,-0.560599,-7.098845,0.697928,-1.093896,-0.244707,-0.932129,-0.121338,-0.381104,0.018265,0.003532,0.020565,0.999978,0.003490,-0.005469,-0.001224,-0.202715,-0.403947,0.109592,-0.885282
10560,NaN,1.027221,0.778968,1.705287,0.201224,-1.034913,-7.953023,0.624130,-1.445697,-0.267503,-0.938232,-0.123535,-0.366211,0.010159,0.007723,0.017151,0.999968,0.003121,-0.007228,-0.001338,-0.204051,-0.411815,0.109845,-0.881309
10561,NaN,0.919072,0.774967,1.723127,0.311739,-1.070277,-8.031776,0.485040,-1.822163,-0.281638,-0.942139,-0.129883,-0.344971,0.009044,0.007695,0.017333,0.999955,0.002425,-0.009111,-0.001408,-0.203288,-0.420474,0.108981,-0.877496
10562,NaN,1.066651,0.704946,1.681508,0.267230,-0.966133,-7.953338,0.408119,-2.129249,-0.273867,-0.948486,-0.134277,-0.319580,0.010496,0.007001,0.016942,0.999940,0.002041,-0.010646,-0.001369,-0.204502,-0.430965,0.110655,-0.871896
10563,NaN,1.806081,0.601605,1.595278,-0.101210,-0.661524,-7.420904,0.416248,-2.341331,-0.272041,-0.952393,-0.138672,-0.300537,0.017880,0.005958,0.016175,0.999928,0.002081,-0.011706,-0.001360,-0.203485,-0.441717,0.110639,-0.866741
10564,NaN,3.112566,0.819737,1.908519,-0.587363,-0.664809,-6.177476,0.356123,-2.538653,-0.213427,-0.960938,-0.136475,-0.277344,0.030889,0.008130,0.019493,0.999917,0.001781,-0.012693,-0.001067,-0.204143,-0.453638,0.112853,-0.860118
10565,NaN,4.702742,1.016499,2.769297,-0.733629,-0.814324,-4.370733,0.185495,-2.716878,-0.169772,-0.969238,-0.140869,-0.253906,0.046654,0.010099,0.028338,0.999907,0.000927,-0.013584,-0.000849,-0.202905,-0.465564,0.114431,-0.853806
10566,NaN,6.167662,1.131699,2.652188,-1.416043,-0.593523,-3.179882,0.000721,-2.992476,-0.168498,-0.967041,-0.136719,-0.224365,0.061280,0.011265,0.027441,0.999888,0.000004,-0.014962,-0.000842,-0.202844,-0.478914,0.118172,-0.845891
10567,NaN,7.535631,1.692042,2.175973,-2.460464,-0.675533,-2.205576,0.141469,-3.160313,-0.249239,-0.970947,-0.138916,-0.194824,0.075021,0.016811,0.022959,0.999874,0.000707,-0.015801,-0.001246,-0.201670,-0.492510,0.120166,-0.838047
10568,NaN,8.773078,2.200265,2.382667,-2.799232,-1.041869,-0.949551,0.645920,-3.409923,-0.328560,-0.979492,-0.139160,-0.160889,0.087343,0.021779,0.025389,0.999848,0.003229,-0.017049,-0.001643,-0.199687,-0.508071,0.120782,-0.829096
10569,NaN,9.743367,1.509657,3.985864,-1.272813,-0.971738,0.700303,1.228760,-3.393968,-0.273158,-0.976807,-0.149902,-0.126953,0.096758,0.014712,0.041596,0.999836,0.006143,-0.016969,-0.001366,-0.195620,-0.523448,0.118363,-0.820808
10570,NaN,11.327451,0.257460,6.319420,0.989963,-0.574420,3.109693,1.480569,-3.106940,-0.072434,-0.980957,-0.145752,-0.095215,0.112275,0.002057,0.064960,0.999852,0.007402,-0.015534,-0.000362,-0.190348,-0.538162,0.115564,-0.812893
10571,NaN,11.436025,-0.547902,8.230299,3.269400,-0.649523,3.887628,1.204874,-2.527890,-0.043444,-0.980957,-0.147949,-0.076172,0.113307,-0.006005,0.083704,0.999902,0.006024,-0.012639,-0.000217,-0.185806,-0.549554,0.112944,-0.806666
10572,NaN,11.001538,-0.497061,9.413582,4.706173,-1.279034,3.829380,0.816551,-1.843017,-0.076839,-0.978760,-0.141602,-0.061523,0.109140,-0.005400,0.095123,0.999949,0.004083,-0.009215,-0.000384,-0.182726,-0.558138,0.111342,-0.801684
10573,NaN,10.203088,-0.600193,9.470658,5.251162,-1.358295,3.022215,0.542115,-1.106107,-0.090452,-0.980713,-0.145752,-0.051025,0.101502,-0.006306,0.095252,0.999981,0.002711,-0.005530,-0.000452,-0.180959,-0.563105,0.109924,-0.798801
10574,NaN,9.196626,-0.579333,7.385824,3.863634,-0.747857,1.321790,0.501886,-0.492496,-0.071917,-0.974365,-0.145996,-0.044678,0.091782,-0.006012,0.074070,0.999994,0.002509,-0.002462,-0.000360,-0.179398,-0.565705,0.108173,-0.797554
10575,NaN,8.751804,-0.191006,3.675805,0.685136,0.241100,-0.346202,0.910545,-0.278952,-0.092930,-0.970215,-0.143799,-0.038330,0.087466,-0.002118,0.036871,0.999989,0.004553,-0.001395,-0.000465,-0.177043,-0.567677,0.104528,-0.797166
10576,NaN,7.979720,-1.399212,2.395940,0.313321,1.718443,-1.546917,1.235636,-0.221322,-0.011472,-0.974365,-0.143799,-0.038330,0.079770,-0.014145,0.023961,0.999980,0.006178,-0.001107,-0.000057,-0.173494,-0.569733,0.099789,-0.797086
10577,NaN,8.147179,-2.279035,2.881238,1.045221,2.403961,-1.268654,0.762615,-0.248210,0.014715,-0.974365,-0.147949,-0.031982,0.081438,-0.022894,0.028826,0.999992,0.003813,-0.001241,0.000074,-0.171140,-0.571370,0.097006,-0.796767
10578,NaN,7.807227,-1.743560,4.538923,2.414444,1.290663,-1.032076,0.468275,-0.412265,-0.017716,-0.983154,-0.137451,-0.025635,0.077977,-0.017549,0.045509,0.999995,0.002341,-0.002061,-0.000089,-0.168639,-0.573627,0.094871,-0.795935
10579,NaN,8.215186,-1.322653,4.739747,2.364320,0.909142,-0.577592,0.649538,-0.633106,-0.072827,-0.974365,-0.143799,-0.017090,0.081996,-0.013411,0.047614,0.999990,0.003248,-0.003166,-0.000364,-0.166767,-0.576721,0.092610,-0.794358
10580,NaN,9.533006,-0.727757,3.391956,0.639992,1.035936,0.258560,0.870926,-0.652515,-0.075680,-0.972412,-0.137451,-0.006592,0.095216,-0.007462,0.034198,0.999985,0.004355,-0.003263,-0.000378,-0.161785,-0.580322,0.087945,-0.793296
10581,NaN,10.345233,-0.907070,2.995162,0.189302,1.472590,0.893059,0.768560,-0.476010,-0.107019,-0.972412,-0.139648,-0.002441,0.103376,-0.009242,0.030162,0.999990,0.003843,-0.002380,-0.000535,-0.159771,-0.582871,0.084970,-0.792158
10582,NaN,10.003193,-1.735848,3.412717,0.984662,2.076503,0.648767,0.298304,-0.424504,-0.218702,-0.976562,-0.139648,0.001953,0.099940,-0.017519,0.034313,0.999996,0.001492,-0.002123,-0.001094,-0.156876,-0.585137,0.081839,-0.791395
10583,NaN,9.467697,-1.972338,4.181971,1.952283,1.980797,0.350042,-0.359911,-0.415917,-0.304064,-0.976318,-0.143799,0.003906,0.094560,-0.019792,0.042052,0.999995,-0.001800,-0.002080,-0.001520,-0.158964,-0.586620,0.082699,-0.789790
10584,NaN,9.624960,-0.171515,6.154085,3.112678,-0.336394,1.175461,-1.521624,-0.676036,-0.490870,-0.972168,-0.145996,0.010254,0.096037,-0.001481,0.061878,0.999962,-0.007608,-0.003380,-0.002454,-0.162816,-0.588440,0.086606,-0.787228
10585,NaN,12.216297,0.914590,6.456948,2.390655,-1.134567,3.780066,-2.282235,-0.801308,-0.599275,-0.969727,-0.156738,0.006104,0.121931,0.009520,0.064951,0.999922,-0.011411,-0.004006,-0.002996,-0.171533,-0.589948,0.094471,-0.783334
10586,NaN,14.199500,0.381971,0.266154,-3.350326,1.783364,3.878058,-2.202909,-0.657298,-0.501719,-0.965332,-0.161133,0.010498,0.141994,0.003496,0.003089,0.999931,-0.011014,-0.003286,-0.002509,-0.178234,-0.590837,0.101515,-0.780282
10587,NaN,15.606705,-1.039239,-5.557425,-8.157415,5.493818,3.559169,-1.348245,-0.728322,-0.124466,-0.963135,-0.161133,0.018799,0.156261,-0.010861,-0.054933,0.999970,-0.006741,-0.003642,-0.000622,-0.182330,-0.592521,0.107053,-0.777312
10588,NaN,15.739723,-2.164477,-5.216090,-7.306999,6.411558,3.793565,-1.204320,-0.484089,0.214781,-0.967529,-0.154541,0.016846,0.157546,-0.021788,-0.051649,0.999978,-0.006022,-0.002420,0.001074,-0.184436,-0.593308,0.113132,-0.775351
10589,NaN,15.506700,-3.205783,-2.675174,-4.507948,6.293158,4.257330,-1.706884,-0.145639,0.385185,-0.965576,-0.152588,0.010498,0.155148,-0.031985,-0.026366,0.999961,-0.008534,-0.000728,0.001926,-0.187920,-0.592056,0.121021,-0.774280
10590,NaN,14.396881,-4.857176,-0.851313,-1.880938,6.785737,3.678122,-1.970558,0.018354,0.459225,-0.972168,-0.143799,0.008301,0.144079,-0.048322,-0.008049,0.999949,-0.009853,0.000092,0.002296,-0.191681,-0.590206,0.130680,-0.773200
10591,NaN,13.839764,-4.942927,1.862335,0.657321,5.524834,3.916217,-1.724596,0.129444,0.465606,-0.968018,-0.141846,0.001953,0.138524,-0.048944,0.018957,0.999960,-0.008623,0.000647,0.002328,-0.195050,-0.587724,0.138591,-0.772871
10592,NaN,13.078288,-4.656750,6.027286,4.257171,3.162147,4.362319,-1.411465,0.263079,0.358810,-0.976562,-0.141846,0.001953,0.130945,-0.045907,0.060426,0.999973,-0.007057,0.001315,0.001794,-0.198001,-0.585425,0.146079,-0.772486
10593,NaN,11.728472,-4.248387,7.768443,5.799450,1.724744,3.579296,-0.867350,0.424427,0.256500,-0.970215,-0.137451,-0.008789,0.117504,-0.041997,0.077618,0.999988,-0.004337,0.002122,0.001282,-0.199859,-0.582730,0.149757,-0.773340
10594,NaN,11.175560,-3.230912,7.210604,4.908666,0.928252,2.929669,-0.212636,0.483277,0.224304,-0.976807,-0.135254,-0.008789,0.111966,-0.032107,0.071870,0.999996,-0.001063,0.002416,0.001122,-0.201027,-0.580438,0.152870,-0.774152
10595,NaN,11.664944,-2.106831,6.019296,3.164121,0.580642,3.086618,-0.102209,0.677183,0.137041,-0.972412,-0.135254,-0.012939,0.116867,-0.020958,0.059808,0.999994,-0.000511,0.003386,0.000685,-0.201312,-0.577604,0.152981,-0.776172
10596,NaN,12.441143,-0.592597,6.031337,2.140150,-0.638503,3.844589,0.078081,0.827724,0.058837,-0.972412,-0.135254,-0.023438,0.124661,-0.005913,0.059795,0.999991,0.000390,0.004139,0.000294,-0.202171,-0.574303,0.153823,-0.778229
10597,NaN,13.100333,3.366119,5.549407,-0.488260,-3.697307,4.323612,0.269974,1.126556,-0.007883,-0.970459,-0.133057,-0.038330,0.131315,0.033582,0.054800,0.999983,0.001350,0.005633,-0.000039,-0.202293,-0.570188,0.151608,-0.781651
10598,NaN,11.691651,4.580075,3.216198,-2.785776,-3.783193,2.267895,0.339052,1.416186,-0.107152,-0.979004,-0.139404,-0.052979,0.117165,0.045684,0.031410,0.999973,0.001695,0.007081,-0.000536,-0.203985,-0.564819,0.150462,-0.785322
10599,NaN,9.717523,4.057533,0.099753,-4.643927,-2.104444,-0.598099,0.732179,1.008016,-0.007123,-0.972900,-0.130859,-0.059570,0.097181,0.040569,0.000656,0.999981,0.003661,0.005040,-0.000036,-0.202702,-0.561601,0.146536,-0.788697
10600,NaN,8.155663,3.244616,-0.787866,-4.575047,-1.208516,-2.378207,0.960892,0.552207,0.056705,-0.977051,-0.133057,-0.055176,0.081526,0.032507,-0.007948,0.999985,0.004804,0.002761,0.000284,-0.201193,-0.560258,0.143851,-0.790531
10601,NaN,7.737597,2.888652,0.177387,-3.479637,-1.407221,-2.453477,0.700577,-0.093721,0.002654,-0.976807,-0.135254,-0.055176,0.077375,0.028881,0.001911,0.999994,0.003503,-0.000469,0.000013,-0.199154,-0.561326,0.141183,-0.790770
10602,NaN,8.968927,3.004061,2.090491,-2.247833,-2.204626,-0.651767,0.154090,-0.866467,-0.026448,-0.972656,-0.133057,-0.040527,0.089601,0.030012,0.021316,0.999990,0.000770,-0.004332,-0.000132,-0.197914,-0.565185,0.141772,-0.788224
10603,NaN,9.886018,2.833125,3.820822,-0.887078,-2.735094,0.774552,-0.226151,-1.271512,-0.108472,-0.976807,-0.133057,-0.025635,0.098630,0.028321,0.038804,0.999979,-0.001131,-0.006358,-0.000542,-0.198078,-0.570036,0.143612,-0.784347
10604,NaN,10.488413,1.894435,4.730865,0.291810,-2.301815,1.614971,-0.344235,-1.372010,-0.214326,-0.978760,-0.137451,-0.021484,0.104577,0.018914,0.047994,0.999974,-0.001721,-0.006860,-0.001072,-0.197715,-0.575672,0.145262,-0.780007
10605,NaN,9.627218,0.642020,5.156139,1.595554,-1.584137,0.893586,-0.684021,-1.359398,-0.298646,-0.976562,-0.139648,-0.008789,0.095928,0.006455,0.052192,0.999970,-0.003420,-0.006797,-0.001493,-0.199858,-0.580495,0.148409,-0.775279
10606,NaN,9.270973,-0.162174,4.413039,1.565687,-0.681256,0.313253,-1.339853,-1.444379,-0.228350,-0.972168,-0.139648,0.006104,0.092386,-0.001429,0.044808,0.999951,-0.006699,-0.007222,-0.001142,-0.203520,-0.585081,0.154665,-0.769636
10607,NaN,9.982112,-0.546632,3.409127,0.856909,0.112351,0.714159,-1.632536,-1.343662,-0.038960,-0.972168,-0.139648,0.008301,0.099588,-0.005204,0.034804,0.999944,-0.008163,-0.006718,-0.000195,-0.207398,-0.588586,0.162192,-0.764360
10608,NaN,10.249064,-0.802634,2.618179,0.355124,0.642584,0.770426,-1.642013,-0.845829,0.062615,-0.976562,-0.139648,0.012451,0.102381,-0.007777,0.026679,0.999957,-0.008210,-0.004229,0.000313,-0.211069,-0.590219,0.169629,-0.760472
10609,NaN,9.206109,-0.872076,1.718965,-0.085015,0.963735,-0.456856,-1.099927,-0.355126,0.037509,-0.972168,-0.141846,0.020996,0.092032,-0.008608,0.017401,0.999983,-0.005500,-0.001776,0.000188,-0.213870,-0.590366,0.174294,-0.758518
10610,NaN,7.447927,-3.082191,2.822006,2.374108,2.030414,-1.864338,0.079594,0.120347,0.120872,-0.978516,-0.139648,0.016602,0.074515,-0.030788,0.028163,1.000000,0.000398,0.000602,0.000604,-0.213694,-0.589913,0.174842,-0.758794
10611,NaN,6.651415,-4.132722,2.733934,3.017679,2.866863,-2.638442,-0.180971,0.081573,0.136542,-0.976562,-0.135254,0.016602,0.066553,-0.041257,0.027350,0.999999,-0.000905,0.000408,0.000683,-0.213783,-0.589289,0.175845,-0.759022
10612,NaN,6.702885,-3.073537,2.752678,2.443468,1.951819,-2.589645,-0.291904,0.398681,0.129295,-0.978760,-0.133301,0.006104,0.067103,-0.030652,0.027438,0.999997,-0.001460,0.001993,0.000646,-0.214581,-0.587374,0.177388,-0.759922
10613,NaN,7.058513,-1.857066,3.491707,2.287486,0.585721,-2.073984,0.092464,0.470452,0.154326,-0.976562,-0.135254,0.008301,0.070681,-0.018532,0.034742,0.999997,0.000462,0.002352,0.000772,-0.214142,-0.585545,0.176985,-0.761549
10614,NaN,7.259017,-1.491087,3.083096,1.675982,0.530523,-1.981243,0.830713,0.525504,0.190162,-0.979004,-0.126709,0.001709,0.072685,-0.014969,0.030578,0.999987,0.004154,0.002628,0.000951,-0.211807,-0.584156,0.174558,-0.763825
10615,NaN,7.486135,-0.910039,1.778305,0.214179,0.768441,-2.105792,1.531645,0.364464,0.263912,-0.983154,-0.126709,0.003906,0.074906,-0.009137,0.017577,0.999968,0.007658,0.001822,0.001320,-0.206639,-0.584136,0.169088,-0.766482
10616,NaN,8.310429,-0.741732,-0.504662,-1.985997,1.864950,-1.910425,1.923943,0.125532,0.227115,-0.983398,-0.124512,0.008057,0.083109,-0.007274,-0.005169,0.999953,0.009620,0.000628,0.001136,-0.199525,-0.585533,0.162168,-0.768793
10617,NaN,8.551209,-0.155084,-1.051899,-2.813424,1.631681,-1.832967,1.704848,-0.058644,0.056075,-0.981201,-0.124512,0.010254,0.085516,-0.001437,-0.010506,0.999964,0.008524,-0.000293,0.000280,-0.194266,-0.587391,0.155832,-0.770032
10618,NaN,8.894591,0.480898,0.710218,-1.705901,0.272777,-1.045427,0.529477,-0.193259,-0.138522,-0.979004,-0.122559,0.010254,0.088942,0.004728,0.007201,0.999996,0.002647,-0.000966,-0.000693,-0.192530,-0.588895,0.153644,-0.769759
10619,NaN,9.370158,1.016552,2.383787,-0.637857,-0.913579,-0.154831,-0.890148,-0.142538,-0.307027,-0.983398,-0.124512,0.010254,0.093700,0.010128,0.023860,0.999989,-0.004451,-0.000713,-0.001535,-0.196224,-0.588814,0.156302,-0.768351
10620,NaN,8.470444,0.744279,2.478100,-0.224311,-0.820127,-0.996772,-0.953033,0.229312,-0.371854,-0.985352,-0.126709,0.003906,0.084747,0.007403,0.024649,0.999986,-0.004765,0.001147,-0.001859,-0.199873,-0.587494,0.158504,-0.767970
10621,NaN,7.183919,-0.871714,3.258844,1.494751,0.086474,-2.018674,0.041246,0.660533,-0.198964,-0.981201,-0.126709,0.003906,0.071938,-0.008795,0.032349,0.999994,0.000206,0.003303,-0.000995,-0.201041,-0.585152,0.157101,-0.769740
10622,NaN,7.238773,-1.340667,1.925149,0.542741,1.174854,-2.314149,1.058015,0.824760,0.197634,-0.985596,-0.122314,-0.004639,0.072479,-0.013436,0.018882,0.999977,0.005290,0.004124,0.000988,-0.196537,-0.583165,0.152206,-0.773385
10623,NaN,8.204002,-1.030527,0.598825,-1.040129,1.668454,-1.759133,1.866754,0.923371,0.596403,-0.985596,-0.118164,-0.006592,0.082097,-0.010113,0.005514,0.999941,0.009334,0.004617,0.002982,-0.189481,-0.580940,0.145811,-0.778039
10624,NaN,10.123363,-0.894530,2.303727,-0.262502,1.035243,0.553011,1.881659,1.052805,0.816210,-0.986084,-0.103027,-0.017334,0.101389,-0.008745,0.022421,0.999934,0.009408,0.005264,0.004081,-0.179656,-0.578384,0.138855,-0.783527
10625,NaN,11.356981,-0.267805,3.996427,0.431166,-0.068767,2.221890,1.342470,1.362324,0.838700,-0.990479,-0.100830,-0.025879,0.113849,-0.002466,0.039172,0.999945,0.006712,0.006811,0.004193,-0.173427,-0.573638,0.134790,-0.789110
10626,NaN,11.863314,0.524729,3.857294,-0.352421,-0.647560,2.651071,0.836589,1.604665,0.801674,-0.992920,-0.092285,-0.040771,0.118916,0.005565,0.037642,0.999951,0.004183,0.008023,0.004008,-0.166446,-0.567919,0.131032,-0.795358
10627,NaN,12.558392,1.433883,2.919247,-1.953565,-0.998065,2.973032,0.746502,1.726518,0.723133,-0.997559,-0.085938,-0.057617,0.125777,0.014687,0.028162,0.999949,0.003732,0.008632,0.003616,-0.162575,-0.561170,0.128675,-0.801312
10628,NaN,12.904867,1.057948,1.709389,-3.166631,-0.134727,2.857226,0.739934,1.790668,0.535051,-0.993896,-0.070801,-0.074707,0.129166,0.010864,0.015978,0.999949,0.003700,0.008953,0.002675,-0.157701,-0.554570,0.124868,-0.807459
10629,NaN,13.266182,-0.397872,1.461225,-3.149440,1.382012,3.088923,0.614576,1.709626,0.380254,-0.998047,-0.074951,-0.091553,0.132787,-0.003769,0.013466,0.999957,0.003073,0.008548,0.001901,-0.155525,-0.547890,0.122089,-0.812848
10630,NaN,14.756689,-1.554639,3.346644,-1.880602,1.977276,5.151365,0.082671,1.977857,0.230772,-0.998047,-0.072754,-0.112793,0.147906,-0.015389,0.031998,0.999950,0.000413,0.009889,0.001154,-0.152711,-0.540307,0.119297,-0.818851
10631,NaN,15.166241,-3.040706,4.038591,-1.208144,3.251598,5.792632,-0.433274,2.529624,0.119410,-0.994141,-0.070557,-0.138184,0.152176,-0.030231,0.038529,0.999917,-0.002166,0.012648,0.000597,-0.154891,-0.529502,0.119454,-0.825450
10632,NaN,13.239314,-3.718693,2.043975,-2.272598,4.458511,3.157449,-0.638709,3.662277,0.245679,-0.989990,-0.070557,-0.178223,0.132785,-0.036964,0.018129,0.999826,-0.003193,0.018310,0.001228,-0.156424,-0.514023,0.119466,-0.834889
10633,NaN,12.349789,-4.577206,0.413590,-3.351824,5.828028,1.519460,-1.038927,4.339229,0.782025,-0.984131,-0.061768,-0.218506,0.123730,-0.045276,0.001689,0.999744,-0.005194,0.021694,0.003910,-0.158384,-0.494498,0.122390,-0.845817
10634,NaN,14.178908,-2.459348,2.081405,-4.226109,3.636064,3.614954,-0.787186,4.786956,0.988938,-0.976074,-0.050781,-0.265137,0.142354,-0.023817,0.017506,0.999694,-0.003936,0.023932,0.004944,-0.159252,-0.473103,0.124957,-0.857437
10635,NaN,13.622168,-0.223516,1.119853,-6.216878,1.983077,2.197096,-0.722453,5.602911,1.009632,-0.964111,-0.035645,-0.316162,0.136473,-0.001515,0.007384,0.999588,-0.003612,0.028011,0.005047,-0.160069,-0.447684,0.125931,-0.870689
10636,NaN,12.229199,0.179880,-4.308796,-10.116293,3.518345,-2.505419,-0.652618,5.135286,0.161008,-0.953613,-0.039795,-0.364746,0.121131,0.001749,-0.046214,0.999665,-0.003263,0.025674,0.000805,-0.163841,-0.424971,0.125416,-0.881378
10637,NaN,7.944877,1.235108,-0.756854,-5.810266,0.663190,-4.244484,0.751838,5.517939,-0.085548,-0.934570,-0.039795,-0.407227,0.079206,0.012351,-0.009710,0.999612,0.003759,0.027586,-0.000428,-0.166018,-0.401161,0.117355,-0.893160
10638,NaN,2.414768,-1.101893,3.458857,1.221377,0.312066,-5.639107,-0.715883,2.582259,0.283423,-0.928467,-0.031250,-0.422119,0.024607,-0.010861,0.034312,0.999909,-0.003579,0.012911,0.001417,-0.167948,-0.389379,0.119578,-0.897707
10639,NaN,1.963031,0.915891,15.549551,8.549742,-5.797211,2.009832,-0.193233,1.251018,0.723939,-0.918213,-0.024658,-0.434814,0.020569,0.009382,0.155360,0.999973,-0.000966,0.006255,0.003620,-0.165820,-0.383158,0.120803,-0.900611
10640,NaN,6.847561,2.887450,4.990339,-2.380489,-2.960661,-1.707340,0.046395,1.370924,0.406825,-0.924561,-0.026855,-0.449463,0.068757,0.029003,0.049439,0.999974,0.000232,0.006855,0.002034,-0.162713,-0.377466,0.119812,-0.903708
10641,NaN,6.496510,0.200994,5.394048,-0.948828,-0.679716,-1.447407,0.073431,0.995823,0.187678,-0.918457,-0.020264,-0.456055,0.065231,0.002051,0.053617,0.999987,0.000367,0.004979,0.000938,-0.162322,-0.372908,0.119025,-0.905773
10642,NaN,4.511429,-0.424251,5.726949,0.770296,-0.614588,-2.576695,-0.242761,0.742661,0.081616,-0.914062,-0.020264,-0.460205,0.045328,-0.004155,0.057107,0.999992,-0.001214,0.003713,0.000408,-0.161839,-0.369869,0.119596,-0.907029
10643,NaN,3.514127,-0.476363,4.313972,0.532521,-0.293093,-4.261394,-0.126828,0.300339,-0.014145,-0.912109,-0.018066,-0.460205,0.035206,-0.004739,0.043090,0.999999,-0.000634,0.001502,-0.000071,-0.162318,-0.368412,0.119904,-0.907496
10644,NaN,3.998231,0.102103,4.252305,-0.050989,-0.706093,-4.018104,0.067887,-0.168544,-0.105222,-0.912109,-0.020264,-0.458008,0.039947,0.000986,0.042557,0.999999,0.000339,-0.000843,-0.000526,-0.161154,-0.369882,0.119266,-0.907189
10645,NaN,4.251310,0.156786,4.461462,-0.084585,-0.772168,-3.697188,0.207349,-0.573932,-0.195914,-0.920410,-0.024658,-0.449463,0.042386,0.001480,0.044738,0.999995,0.001037,-0.002870,-0.000980,-0.161318,-0.372767,0.118428,-0.906088
10646,NaN,2.925864,-0.267355,4.358030,0.949494,-0.616017,-4.680110,0.338567,-0.897563,-0.213558,-0.922607,-0.022461,-0.441162,0.029060,-0.002779,0.043706,0.999988,0.001693,-0.004488,-0.001068,-0.159896,-0.377768,0.116975,-0.904457
10647,NaN,1.774962,-0.391936,4.440493,1.869835,-0.758167,-5.459459,0.399888,-1.337920,-0.208834,-0.932861,-0.031006,-0.430420,0.017448,-0.004027,0.044514,0.999975,0.001999,-0.006690,-0.001044,-0.159300,-0.384250,0.115841,-0.901973
10648,NaN,0.573769,0.196605,4.113789,2.286106,-1.425694,-6.645381,0.348074,-1.665643,-0.227743,-0.934814,-0.035400,-0.413574,0.005397,0.001888,0.041187,0.999963,0.001740,-0.008328,-0.001139,-0.157006,-0.392699,0.114665,-0.898882
10649,NaN,-0.395303,0.973153,4.038283,2.622233,-2.307085,-7.529757,0.315072,-1.958497,-0.230989,-0.945312,-0.035400,-0.392334,-0.004337,0.009673,0.040357,0.999950,0.001575,-0.009792,-0.001155,-0.156296,-0.401862,0.114329,-0.894990
10650,NaN,-0.562497,2.196935,4.181203,2.431893,-3.515737,-7.726970,0.310558,-2.179075,-0.161670,-0.955566,-0.044189,-0.371094,-0.006063,0.021909,0.041782,0.999939,0.001553,-0.010895,-0.000808,-0.154047,-0.412317,0.113998,-0.890656
10651,NaN,-0.192430,3.192599,4.654058,2.227845,-4.536439,-7.293458,0.079616,-2.328853,-0.149884,-0.963867,-0.046387,-0.352051,-0.002442,0.031909,0.046527,0.999932,0.000398,-0.011644,-0.000749,-0.153214,-0.422806,0.115123,-0.885724
10652,NaN,1.207938,3.937569,5.280531,1.628264,-5.222342,-5.949731,-0.567404,-2.250030,-0.266993,-0.970459,-0.040039,-0.333008,0.011538,0.039510,0.052825,0.999932,-0.002837,-0.011250,-0.001335,-0.154202,-0.432656,0.118837,-0.880289
10653,NaN,2.963383,4.573740,5.010188,0.233167,-5.476547,-4.837271,-1.130787,-2.291151,-0.344110,-0.978760,-0.040039,-0.311768,0.029138,0.045971,0.050178,0.999917,-0.005654,-0.011455,-0.001721,-0.156789,-0.442037,0.124829,-0.874322
10654,NaN,4.033827,4.303944,4.370529,-0.637275,-4.892999,-4.376866,-0.889000,-2.828329,-0.348936,-0.991211,-0.042236,-0.282227,0.039792,0.043165,0.044079,0.999889,-0.004445,-0.014141,-0.001745,-0.157216,-0.454206,0.129440,-0.867309
10655,NaN,5.195622,3.296653,3.719913,-1.211071,-3.621975,-3.720766,-0.472481,-3.402562,-0.353676,-0.993164,-0.044434,-0.252441,0.051373,0.032964,0.037999,0.999851,-0.002362,-0.017012,-0.001768,-0.157599,-0.468751,0.133343,-0.858868
10656,NaN,6.024089,0.787682,3.827015,-0.344542,-1.325026,-2.764534,0.043821,-3.524579,-0.294562,-1.001465,-0.046875,-0.212402,0.059566,0.007780,0.039326,0.999844,0.000219,-0.017622,-0.001473,-0.155565,-0.484316,0.134611,-0.850363
10657,NaN,8.259390,-2.033138,3.321478,-0.433915,1.663094,-0.844922,0.628461,-3.654452,-0.214544,-1.011963,-0.049072,-0.176270,0.081948,-0.020527,0.034652,0.999828,0.003142,-0.018271,-0.001073,-0.152470,-0.500404,0.134241,-0.841622
10658,NaN,12.021849,-3.126279,4.308634,-0.531669,2.654529,3.052519,1.623571,-4.135251,-0.158450,-1.013672,-0.053467,-0.135986,0.119272,-0.031719,0.045303,0.999753,0.008117,-0.020675,-0.000792,-0.145188,-0.519333,0.129327,-0.832159
10659,NaN,16.332283,-3.422287,7.963185,1.419747,1.966814,8.515823,2.433317,-4.466268,-0.138068,-1.019531,-0.062256,-0.085205,0.161473,-0.035330,0.082826,0.999676,0.012165,-0.022329,-0.000690,-0.136512,-0.539602,0.122047,-0.821766
10660,NaN,18.293959,-2.231708,10.910239,3.588331,-0.013645,11.299918,2.170456,-4.055224,-0.337137,-1.017334,-0.062256,-0.047119,0.180642,-0.023832,0.112528,0.999734,0.010851,-0.020274,-0.001686,-0.129237,-0.557975,0.114681,-0.811671
10661,NaN,16.629590,-3.446700,14.800827,8.666195,-0.218988,10.979377,1.387252,-2.270482,-0.524691,-1.021240,-0.070801,-0.030273,0.164510,-0.035934,0.149637,0.999908,0.006936,-0.011352,-0.002623,-0.126184,-0.568336,0.109046,-0.805718
10662,NaN,13.460309,-3.541256,14.504443,9.791526,-0.137303,7.742985,0.696662,-0.711337,-0.674374,-1.020996,-0.072998,-0.023926,0.133965,-0.036371,0.145396,0.999982,0.003483,-0.003557,-0.003372,-0.126423,-0.572033,0.104640,-0.803646
10663,NaN,9.507259,-2.295103,5.724072,2.870607,1.244907,1.078989,1.372866,0.187530,-0.568626,-1.018555,-0.085938,-0.025879,0.095060,-0.023613,0.056991,0.999972,0.006864,0.000938,-0.002843,-0.124878,-0.572429,0.097377,-0.804517
10664,NaN,6.631327,-1.275944,1.802420,-0.075520,1.300930,-2.945909,1.646197,0.361780,-0.464453,-1.022949,-0.085938,-0.028076,0.066316,-0.013061,0.017798,0.999962,0.008231,0.001809,-0.002322,-0.122389,-0.572104,0.089304,-0.806066
10665,NaN,5.946850,-1.311251,-0.419916,-1.865884,1.949188,-4.337306,1.085758,0.094878,-0.453613,-1.022705,-0.092285,-0.025879,0.059437,-0.013224,-0.004299,0.999983,0.005429,0.000474,-0.002268,-0.121154,-0.572579,0.083573,-0.806530
10666,NaN,10.058237,-1.288193,0.197422,-2.590318,2.187335,-0.253811,0.768213,-0.573129,-0.269089,-1.020508,-0.094482,-0.013184,0.100559,-0.013025,0.002213,0.999988,0.003841,-0.002866,-0.001345,-0.119631,-0.575418,0.079945,-0.805103
10667,NaN,11.795620,-1.011507,0.168524,-3.152415,2.107648,1.403695,-0.422481,-0.893252,-0.197883,-1.018066,-0.098877,-0.008789,0.117937,-0.010227,0.002234,0.999987,-0.002112,-0.004466,-0.000989,-0.121286,-0.578834,0.081612,-0.802235
10668,NaN,12.380611,-0.589233,0.461547,-3.086135,1.690023,2.080949,-1.194777,-0.590977,-0.450821,-1.024414,-0.101074,-0.000244,0.123778,-0.006142,0.005017,0.999975,-0.005974,-0.002955,-0.002254,-0.126277,-0.580642,0.085489,-0.799750
10669,NaN,10.457878,-0.690254,1.230656,-1.706453,1.390928,0.507725,-1.254059,-0.638295,-0.527351,-1.019775,-0.111816,0.001709,0.104520,-0.007099,0.012684,0.999972,-0.006270,-0.003191,-0.002637,-0.131752,-0.582612,0.089375,-0.797005
10670,NaN,10.061536,-0.916969,1.674628,-1.034872,1.439984,0.273671,-1.180208,-0.656809,-0.466167,-1.021973,-0.109619,0.006104,0.100538,-0.009304,0.017131,0.999974,-0.005901,-0.003284,-0.002331,-0.137035,-0.584640,0.093441,-0.794157
10671,NaN,10.265656,-1.453040,2.273947,-0.293637,1.779064,0.647428,-0.978603,-0.614046,-0.385506,-1.027832,-0.124512,0.014648,0.102558,-0.014616,0.023126,0.999981,-0.004893,-0.003070,-0.001928,-0.141139,-0.586578,0.096621,-0.791625
10672,NaN,12.510661,-3.166055,2.135329,-0.357884,3.660185,2.740172,-0.569610,-0.661261,-0.117161,-1.019531,-0.115967,0.016602,0.125016,-0.031672,0.021857,0.999990,-0.002848,-0.003306,-0.000586,-0.143415,-0.588824,0.099454,-0.789194
10673,NaN,13.520939,-3.594427,1.962423,-0.550091,4.189901,3.667976,-0.200763,-0.579635,0.108724,-1.023926,-0.116211,0.025146,0.135171,-0.035851,0.020052,0.999995,-0.001004,-0.002898,0.000544,-0.143290,-0.590911,0.100984,-0.787461
10674,NaN,13.406278,-3.538230,-0.288849,-2.516339,4.814423,2.947401,-0.107934,-0.352967,0.225107,-1.021729,-0.116211,0.027344,0.134107,-0.035233,-0.002633,0.999998,-0.000540,-0.001765,0.001126,-0.142369,-0.592178,0.102385,-0.786494
10675,NaN,13.762349,-2.770713,-0.617825,-3.144908,4.199483,3.223207,-0.705366,-0.083587,0.231135,-1.025879,-0.122559,0.025146,0.137658,-0.027569,-0.006023,0.999993,-0.003527,-0.000418,0.001156,-0.143507,-0.591883,0.105905,-0.786044
10676,NaN,13.964546,-2.735272,2.363199,-0.497598,3.123787,4.261004,-1.943147,0.097508,0.152627,-1.028076,-0.118164,0.022949,0.139678,-0.027015,0.023827,0.999952,-0.009716,0.000488,0.000763,-0.150192,-0.589869,0.115304,-0.784985
10677,NaN,12.214103,-2.748262,5.495121,2.736280,1.715054,3.472728,-2.874048,0.358913,0.141938,-1.028076,-0.120361,0.008301,0.122259,-0.026605,0.055118,0.999895,-0.014370,0.001795,0.000710,-0.158304,-0.586159,0.126723,-0.784410
10678,NaN,10.279984,-1.535199,6.544862,3.605171,-0.147621,1.928209,-2.254349,0.837181,0.057055,-1.023682,-0.124512,-0.006592,0.103077,-0.014587,0.065185,0.999928,-0.011271,0.004186,0.000285,-0.165405,-0.581052,0.135511,-0.785275
10679,NaN,9.233297,-2.342471,5.826113,3.483787,0.711793,0.772206,-0.743055,1.107559,0.053057,-1.023926,-0.122314,-0.012939,0.092660,-0.023185,0.057835,0.999978,-0.003715,0.005538,0.000265,-0.168104,-0.576040,0.137666,-0.788015
10680,NaN,9.267623,-3.959412,4.016187,2.499557,2.928383,0.329873,0.058787,0.909493,0.181411,-1.025879,-0.122314,-0.019287,0.092893,-0.039522,0.039728,0.999989,0.000294,0.004547,0.000907,-0.167998,-0.572370,0.137608,-0.790717
10681,NaN,8.865495,-4.353904,2.973912,1.809158,3.691539,-0.352415,0.420915,0.464769,0.264811,-1.034668,-0.115967,-0.025635,0.088781,-0.043484,0.029441,0.999994,0.002105,0.002324,0.001324,-0.166067,-0.570702,0.136313,-0.792553
10682,NaN,9.413334,-1.434402,3.787955,1.073733,0.769880,0.349557,-0.311393,0.379875,0.090169,-1.032471,-0.120117,-0.029785,0.094212,-0.014243,0.037723,0.999997,-0.001557,0.001899,0.000451,-0.167001,-0.568849,0.137960,-0.793403
10683,NaN,9.763113,2.372325,5.029008,0.366667,-3.145393,0.967328,-0.669425,0.566848,-0.109079,-1.028076,-0.122314,-0.038330,0.097786,0.023837,0.049933,0.999990,-0.003347,0.002834,-0.000545,-0.169728,-0.566111,0.139833,-0.794454
10684,NaN,10.942481,5.201472,2.868490,-3.112160,-4.646154,1.311550,-0.025988,0.594315,-0.221378,-1.036865,-0.120117,-0.040283,0.109567,0.051897,0.028353,0.999995,-0.000130,0.002972,-0.001107,-0.171219,-0.563847,0.139221,-0.795851
10685,NaN,11.247046,6.304734,0.662896,-5.585395,-4.646500,0.859631,0.843697,0.647908,-0.235844,-1.028076,-0.124512,-0.044678,0.112566,0.062887,0.006530,0.999985,0.004218,0.003240,-0.001179,-0.170228,-0.562147,0.134645,-0.798050
10686,NaN,11.253187,5.117003,0.035601,-5.616202,-3.289438,0.697166,0.885041,0.286929,-0.171541,-1.034424,-0.130859,-0.044434,0.112576,0.051072,0.000421,0.999989,0.004425,0.001435,-0.000858,-0.168735,-0.561887,0.130685,-0.799208
10687,NaN,10.889588,2.748044,1.957999,-2.850415,-1.932301,1.055149,0.034062,-0.211928,-0.247347,-1.034180,-0.135254,-0.046631,0.108909,0.027342,0.019700,0.999999,0.000170,-0.001060,-0.001237,-0.169490,-0.562924,0.130036,-0.798424
10688,NaN,9.904035,0.501071,3.979286,0.135529,-0.822759,0.840029,-1.636828,-0.144525,-0.481124,-1.030029,-0.137207,-0.050781,0.099024,0.005098,0.039823,0.999963,-0.008184,-0.000723,-0.002406,-0.176064,-0.562473,0.135577,-0.796395
10689,NaN,7.246253,-0.633695,4.896062,2.199802,-0.572644,-1.344310,-2.874501,0.087901,-0.675864,-1.034180,-0.141602,-0.054932,0.072464,-0.005878,0.049015,0.999891,-0.014372,0.000439,-0.003379,-0.186880,-0.559990,0.145033,-0.794010
10690,NaN,4.797212,-0.214034,4.880430,2.704127,-1.365196,-3.672605,-2.849086,-0.208566,-0.676058,-1.035889,-0.152344,-0.056885,0.047915,-0.001606,0.048880,0.999892,-0.014245,-0.001043,-0.003380,-0.197487,-0.558633,0.154838,-0.790540
10691,NaN,4.474914,-0.206071,4.803284,2.704512,-1.472814,-4.011420,-2.057457,-0.269994,-0.385397,-1.031494,-0.156494,-0.067627,0.044681,-0.001652,0.048112,0.999944,-0.010287,-0.001350,-0.001927,-0.204538,-0.557936,0.162155,-0.787767
10692,NaN,5.976750,-2.252484,3.559038,2.266147,1.044270,-2.939852,-1.141269,0.142918,0.042698,-1.027588,-0.150146,-0.069824,0.059798,-0.022309,0.035675,0.999983,-0.005706,0.000715,0.000213,-0.207738,-0.556180,0.166773,-0.787208
10693,NaN,7.718067,-1.692384,5.340478,2.869284,-0.101095,-0.718178,-0.028821,0.388707,0.549386,-1.034180,-0.143555,-0.076172,0.077330,-0.016704,0.053257,0.999994,-0.000144,0.001944,0.002747,-0.205979,-0.554159,0.168013,-0.788829
10694,NaN,9.618070,-0.798802,5.903600,2.230532,-0.887816,1.243257,0.814039,0.543470,0.742284,-1.034424,-0.132812,-0.076172,0.096370,-0.007870,0.058742,0.999981,0.004070,0.002717,0.003711,-0.201287,-0.552210,0.166444,-0.791735
10695,NaN,10.496110,-0.486561,6.042948,1.849317,-1.083097,2.117476,1.155386,0.523134,0.668360,-1.036377,-0.137207,-0.078369,0.105135,-0.004862,0.060127,0.999974,0.005777,0.002616,0.003342,-0.195882,-0.550732,0.163188,-0.794792
10696,NaN,10.718532,-0.459598,5.493898,1.273173,-0.791645,2.146965,0.957691,0.273785,0.467081,-1.038818,-0.130859,-0.076172,0.107271,-0.004608,0.054770,0.999985,0.004788,0.001369,0.002335,-0.191614,-0.550167,0.160508,-0.796767
10697,NaN,10.306714,-0.413327,3.396612,-0.337748,0.094240,1.041491,0.454741,-0.177716,0.264713,-1.034424,-0.128662,-0.074219,0.103042,-0.004074,0.034048,0.999996,0.002274,-0.000889,0.001324,-0.189167,-0.551097,0.159598,-0.796892
10698,NaN,9.935535,0.030930,1.170100,-2.224288,0.653511,-0.080781,-0.256459,-0.666103,0.166034,-1.039062,-0.122314,-0.067871,0.099315,0.000407,0.012031,0.999993,-0.001282,-0.003331,0.000830,-0.188676,-0.553343,0.161802,-0.795005
10699,NaN,9.978009,0.757546,1.449343,-2.298771,-0.159267,0.032350,-0.633869,-0.918995,0.030207,-1.038818,-0.124268,-0.063477,0.099711,0.007637,0.014928,0.999984,-0.003169,-0.004595,0.000151,-0.189564,-0.556366,0.165273,-0.791964
10700,NaN,10.071686,1.633258,2.441068,-1.871831,-1.423669,0.411508,-0.502717,-0.788242,-0.213539,-1.040771,-0.126465,-0.052979,0.100637,0.016287,0.024766,0.999989,-0.002514,-0.003941,-0.001068,-0.191176,-0.559172,0.167522,-0.789123
10701,NaN,9.408389,1.225954,3.553720,-0.496876,-1.686156,0.165255,0.016197,-0.511474,-0.407891,-1.034424,-0.130859,-0.046631,0.094017,0.012065,0.035779,0.999995,0.000081,-0.002557,-0.002039,-0.192311,-0.561545,0.166809,-0.787311
10702,NaN,8.279214,-0.819956,3.263944,0.657189,0.116547,-0.900598,0.414013,-0.385813,-0.328284,-1.036377,-0.135010,-0.052979,0.082715,-0.008403,0.032782,0.999995,0.002070,-0.001929,-0.001641,-0.192144,-0.563737,0.164703,-0.786228
10703,NaN,8.425524,-1.962244,2.695924,0.740889,1.417374,-0.893611,0.924216,-0.359536,-0.006265,-1.036621,-0.128662,-0.042480,0.084206,-0.019750,0.027020,0.999988,0.004621,-0.001798,-0.000031,-0.189266,-0.566037,0.161399,-0.785959
10704,NaN,9.766394,-1.519515,2.190620,-0.264069,1.428244,0.206323,1.493759,-0.201596,0.308289,-1.040771,-0.124512,-0.036133,0.097665,-0.015208,0.021891,0.999970,0.007469,-0.001008,0.001541,-0.183678,-0.567971,0.156674,-0.786844
10705,NaN,10.928916,-1.817477,1.700559,-0.905877,2.050772,1.169552,1.947655,0.301360,0.527685,-1.038818,-0.124512,-0.042480,0.109362,-0.018050,0.016665,0.999948,0.009738,0.001507,0.002638,-0.176299,-0.568132,0.150229,-0.789668
10706,NaN,12.590541,-3.191090,2.838161,0.061369,2.992207,3.141073,1.821963,0.976032,0.596997,-1.047607,-0.113770,-0.048828,0.126136,-0.031788,0.027476,0.999942,0.009110,0.004880,0.002985,-0.169519,-0.565407,0.143981,-0.794259
10707,NaN,14.013874,-4.324254,5.380724,2.050534,3.190561,5.341447,1.233548,1.666441,0.496437,-1.035156,-0.104980,-0.070068,0.140686,-0.043220,0.052370,0.999943,0.006168,0.008332,0.002482,-0.165251,-0.559446,0.139069,-0.800233
10708,NaN,13.663166,-4.486816,5.410094,1.937999,3.411309,5.042543,0.396703,2.414100,0.394908,-1.037598,-0.102783,-0.095459,0.137359,-0.044702,0.052357,0.999923,0.001983,0.012070,0.001974,-0.164262,-0.549790,0.136750,-0.807496
10709,NaN,12.584293,-3.728778,2.506179,-0.809969,3.876037,2.948905,-0.321494,2.879572,0.416787,-1.035645,-0.102783,-0.125000,0.126264,-0.036987,0.023305,0.999893,-0.001607,0.014397,0.002084,-0.165415,-0.537557,0.136818,-0.815446
10710,NaN,13.748034,-3.460359,3.230844,-1.135344,3.589515,4.231185,-0.166188,3.161190,0.477637,-1.033691,-0.096191,-0.163086,0.138050,-0.034249,0.030158,0.999872,-0.000831,0.015805,0.002388,-0.166111,-0.524123,0.136373,-0.824078
10711,NaN,14.004005,-3.722126,5.041651,-0.117102,3.278802,5.173840,-0.396500,3.658596,0.375990,-1.031982,-0.093994,-0.197021,0.141001,-0.036860,0.047916,0.999829,-0.001982,0.018292,0.001880,-0.168068,-0.508374,0.135934,-0.833565
10712,NaN,13.752803,-3.473782,3.229891,-2.118281,3.926656,4.032814,-0.528253,4.705361,0.249924,-1.026123,-0.085205,-0.258301,0.138282,-0.034486,0.029143,0.999719,-0.002641,0.023525,0.001250,-0.171606,-0.488005,0.135057,-0.845081
10713,NaN,10.470697,-3.217187,3.875964,-0.829843,3.152289,1.338080,0.149200,6.331722,0.769606,-1.011719,-0.074219,-0.313477,0.105986,-0.031793,0.035394,0.999491,0.000746,0.031653,0.003847,-0.172178,-0.460616,0.130807,-0.860858
10714,NaN,9.155900,-0.705618,0.998041,-3.887254,1.920669,-1.657538,-0.655089,5.051955,0.837094,-0.999268,-0.067871,-0.355957,0.091801,-0.006645,0.007686,0.999667,-0.003275,0.025257,0.004185,-0.173463,-0.437623,0.131491,-0.872414
10715,NaN,10.057648,3.018964,-3.962895,-9.800711,0.730975,-4.393106,-0.951472,3.630633,0.248956,-0.986816,-0.063232,-0.394043,0.099796,0.030119,-0.041589,0.999823,-0.004757,0.018152,0.001245,-0.176815,-0.420721,0.133018,-0.879793
10716,NaN,9.195717,5.365403,-2.939704,-9.765333,-1.802796,-4.978835,-0.485760,3.802148,-0.189457,-0.972168,-0.067627,-0.421631,0.091425,0.053493,-0.031269,0.999816,-0.002429,0.019010,-0.000947,-0.181392,-0.403704,0.131719,-0.887001
10717,NaN,1.291294,5.136119,3.783845,-0.460468,-5.751762,-6.801274,1.605831,3.165156,0.386090,-0.965820,-0.067383,-0.447021,0.013415,0.051082,0.038040,0.999841,0.008029,0.015825,0.001930,-0.178494,-0.390806,0.122490,-0.894655
10718,NaN,-0.061024,1.806722,9.256650,5.300213,-4.937534,-3.772961,0.425314,2.260267,0.081349,-0.955322,-0.063232,-0.461914,0.000429,0.017870,0.092604,0.999934,0.002127,0.011301,0.000407,-0.178928,-0.381138,0.119004,-0.899198
10719,NaN,3.073857,3.024163,8.046250,1.858107,-4.852892,-2.307308,-0.749705,1.769756,0.090837,-0.949219,-0.058838,-0.485107,0.031434,0.030556,0.080072,0.999954,-0.003748,0.008849,0.000454,-0.180992,-0.372440,0.120964,-0.902163
10720,NaN,6.816732,3.069522,2.192974,-4.427814,-1.925737,-3.698459,-0.763142,1.298236,0.026406,-0.951416,-0.056641,-0.493652,0.068303,0.030786,0.021369,0.999972,-0.003816,0.006491,0.000132,-0.183248,-0.365962,0.123461,-0.904019
10721,NaN,6.409236,1.395488,2.849738,-3.130455,-0.730015,-3.424145,-0.830961,0.939473,0.073571,-0.940918,-0.052246,-0.500000,0.064220,0.014096,0.028138,0.999980,-0.004155,0.004697,0.000368,-0.185012,-0.360903,0.126493,-0.905273
10722,NaN,4.608478,0.460628,3.571368,-1.143020,-0.595098,-4.107945,-0.853504,0.527035,0.090273,-0.943359,-0.048096,-0.508545,0.046177,0.004779,0.035572,0.999987,-0.004268,0.002635,0.000451,-0.186678,-0.357793,0.130192,-0.905641
10723,NaN,4.182566,-0.123681,3.032325,-0.955157,0.001348,-4.734130,-0.919573,-0.009588,0.061908,-0.939453,-0.035156,-0.493896,0.041825,-0.001084,0.030330,0.999989,-0.004598,-0.000048,0.000310,-0.188034,-0.356936,0.134479,-0.905072
10724,NaN,4.077062,-1.361784,1.659447,-1.158547,1.573382,-5.639821,-0.737154,-0.403150,0.052369,-0.941406,-0.037354,-0.498047,0.040741,-0.013546,0.016727,0.999991,-0.003686,-0.002016,0.000262,-0.189046,-0.358160,0.138440,-0.903779
10725,NaN,3.141955,-1.986906,1.017084,-0.621646,2.130863,-6.661965,-0.418978,-0.552454,0.011614,-0.945557,-0.039551,-0.491699,0.031392,-0.019846,0.010299,0.999994,-0.002095,-0.002762,0.000058,-0.189360,-0.360252,0.140880,-0.902504
10726,NaN,1.955295,-3.068646,2.988959,1.856831,2.022336,-5.987003,0.140171,-1.041861,-0.099893,-0.956299,-0.035156,-0.480957,0.019382,-0.030717,0.029969,0.999986,0.000701,-0.005209,-0.000499,-0.189041,-0.365287,0.141232,-0.900490
10727,NaN,1.556535,-2.615532,4.427153,2.840733,0.955678,-5.354003,0.481994,-1.592084,-0.209804,-0.960449,-0.037354,-0.461914,0.015185,-0.026278,0.044330,0.999965,0.002410,-0.007960,-0.001049,-0.187974,-0.373048,0.140183,-0.897691
10728,NaN,0.918679,-2.075734,5.686954,3.883276,-0.167686,-5.081455,0.694017,-2.158536,-0.376088,-0.968506,-0.046143,-0.438721,0.008534,-0.020971,0.056891,0.999934,0.003470,-0.010792,-0.001880,-0.187031,-0.383738,0.138580,-0.893622
10729,NaN,1.431360,-1.912120,7.465021,4.754976,-0.883000,-3.645203,0.933517,-2.690996,-0.457603,-0.976807,-0.048340,-0.417480,0.013264,-0.019501,0.074743,0.999896,0.004667,-0.013455,-0.002288,-0.185399,-0.396913,0.136038,-0.888583
10730,NaN,2.977130,-1.216975,7.903702,3.991244,-1.328310,-2.388898,0.952856,-2.878467,-0.581717,-0.993164,-0.063477,-0.387695,0.028594,-0.012632,0.079395,0.999881,0.004764,-0.014392,-0.002908,-0.184237,-0.411001,0.133476,-0.882791
10731,NaN,4.015580,0.867061,6.620457,1.820158,-2.481308,-2.654944,0.701050,-2.673426,-0.701118,-0.999268,-0.067871,-0.355957,0.039295,0.008298,0.066763,0.999898,0.003505,-0.013367,-0.003505,-0.184087,-0.423875,0.131395,-0.877028
10732,NaN,3.712689,2.688060,5.963739,0.939486,-3.942573,-3.476550,0.605826,-2.506865,-0.639510,-1.005371,-0.076416,-0.332520,0.036460,0.026582,0.060178,0.999912,0.003029,-0.012534,-0.003197,-0.184018,-0.435847,0.129814,-0.871392
10733,NaN,2.224748,3.580487,5.358748,1.099954,-4.833292,-5.131527,0.717650,-2.293773,-0.320366,-1.013428,-0.087158,-0.311279,0.021687,0.035577,0.053966,0.999927,0.003588,-0.011469,-0.001602,-0.182347,-0.446679,0.128096,-0.866498
10734,NaN,2.199006,3.797381,3.814672,0.027981,-4.458827,-6.081193,0.751724,-2.582890,0.004357,-1.024170,-0.080811,-0.281738,0.021493,0.037830,0.038569,0.999910,0.003759,-0.012914,0.000022,-0.179018,-0.458537,0.127258,-0.861105
10735,NaN,4.115450,3.109796,2.433325,-1.542323,-2.991654,-5.208678,0.951975,-3.421432,0.361435,-1.030518,-0.076660,-0.245850,0.040672,0.031053,0.025180,0.999841,0.004760,-0.017106,0.001807,-0.173073,-0.473818,0.127036,-0.854052
10736,NaN,8.240444,3.699885,2.813139,-3.262336,-3.073970,-1.481838,1.213946,-3.897753,0.602883,-1.041016,-0.074707,-0.207764,0.081721,0.037068,0.029953,0.999787,0.006069,-0.019487,0.003014,-0.165144,-0.491057,0.126642,-0.845904
10737,NaN,12.478444,2.136560,5.414899,-2.120383,-2.155800,3.619724,1.667758,-3.699368,0.577571,-1.042969,-0.070557,-0.159180,0.123691,0.021259,0.056621,0.999790,0.008338,-0.018496,0.002888,-0.156229,-0.507612,0.124040,-0.838174
10738,NaN,15.399319,0.334211,6.928201,-0.915718,-0.836673,7.030127,1.869094,-3.593343,0.371680,-1.053467,-0.072754,-0.125244,0.152709,0.002962,0.072062,0.999793,0.009345,-0.017965,0.001858,-0.147720,-0.523843,0.119924,-0.830292
10739,NaN,16.395590,-1.452949,9.497263,2.076353,-0.076305,9.075881,1.771943,-3.123819,0.010311,-1.053223,-0.070801,-0.093506,0.162448,-0.015377,0.097384,0.999839,0.008859,-0.015618,0.000052,-0.141140,-0.538031,0.114888,-0.823045
10740,NaN,14.948274,-2.352504,11.001753,4.760813,0.079092,8.279655,0.990283,-2.478329,-0.446268,-1.054932,-0.081543,-0.065918,0.148051,-0.024407,0.111739,0.999908,0.004951,-0.012391,-0.002231,-0.138921,-0.549177,0.111336,-0.816523
10741,NaN,11.989481,-2.891195,8.440236,4.166348,1.144877,4.493522,0.456016,-1.900672,-0.579771,-1.048828,-0.075195,-0.053223,0.119001,-0.029452,0.085469,0.999948,0.002280,-0.009503,-0.002899,-0.138971,-0.557550,0.109202,-0.811110
10742,NaN,8.711391,-2.875305,9.563912,6.463456,0.448290,1.747800,0.670343,-1.020634,-0.292672,-1.052734,-0.085938,-0.042725,0.086582,-0.029201,0.095984,0.999980,0.003352,-0.005103,-0.001463,-0.137732,-0.562310,0.106349,-0.808411
10743,NaN,10.329762,-1.903460,5.084944,1.749559,1.194966,1.663139,0.018311,-0.448418,-0.255940,-1.054932,-0.083740,-0.040527,0.103159,-0.019171,0.051079,0.999997,0.000092,-0.002242,-0.001280,-0.138476,-0.564271,0.105869,-0.806978
10744,NaN,11.178028,-1.767968,3.262157,-0.126993,1.756264,1.832694,-0.283922,-0.330198,-0.225449,-1.061035,-0.088135,-0.038330,0.111706,-0.017759,0.032831,0.999997,-0.001420,-0.001651,-0.001127,-0.139977,-0.565499,0.106575,-0.805766
10745,NaN,11.882674,-1.661871,1.695849,-1.723599,2.254871,1.967814,-0.443674,-0.256160,-0.318465,-1.056641,-0.090088,-0.034180,0.118778,-0.016770,0.017148,0.999995,-0.002218,-0.001281,-0.001592,-0.142378,-0.566390,0.107645,-0.804577
10746,NaN,11.164945,-1.627071,1.566094,-1.576275,2.212957,1.249587,-0.407209,-0.197310,-0.487226,-1.065186,-0.092285,-0.031982,0.111594,-0.016511,0.015805,0.999994,-0.002036,-0.000987,-0.002436,-0.145360,-0.567136,0.108044,-0.803464
10747,NaN,10.584786,-1.467950,2.130903,-0.906463,1.840975,0.888816,-0.867619,-0.177706,-0.609483,-1.060547,-0.100830,-0.031982,0.105784,-0.014909,0.021467,0.999986,-0.004338,-0.000889,-0.003047,-0.150171,-0.567542,0.109933,-0.802034
10748,NaN,12.369870,-1.342524,3.455133,-0.284529,1.493542,3.010803,-1.176863,-0.353819,-0.649299,-1.060547,-0.105225,-0.027588,0.123593,-0.013622,0.034850,0.999976,-0.005884,-0.001769,-0.003246,-0.155906,-0.568415,0.113105,-0.799878
10749,NaN,14.078780,-2.173962,2.753125,-1.021335,2.742082,4.398397,-1.048947,-0.354020,-0.650591,-1.057861,-0.120117,-0.023438,0.140667,-0.022052,0.027895,0.999979,-0.005245,-0.001770,-0.003253,-0.161286,-0.569372,0.115730,-0.797753
10750,NaN,15.769011,-3.388732,0.193669,-3.194617,5.046029,5.171105,-0.388350,-0.318320,-0.415528,-1.060059,-0.120117,-0.025391,0.157616,-0.034211,0.002254,0.999995,-0.001942,-0.001592,-0.002078,-0.163860,-0.570567,0.116412,-0.796274
10751,NaN,15.848641,-2.795910,-3.001165,-6.168327,5.722557,4.230369,-0.208512,-0.212533,-0.121964,-1.066406,-0.115967,-0.019043,0.158501,-0.028087,-0.029814,0.999999,-0.001043,-0.001063,-0.000610,-0.164817,-0.571314,0.117073,-0.795443
10752,NaN,15.218200,-2.369819,-1.655367,-4.946858,4.758152,4.073940,-1.175581,0.110946,-0.035133,-1.062256,-0.118164,-0.027588,0.152169,-0.023822,-0.016498,0.999983,-0.005878,0.000555,-0.000176,-0.168416,-0.569953,0.121700,-0.794971
10753,NaN,14.171115,-2.132597,1.656412,-1.883309,3.135274,4.142068,-2.245346,0.609449,-0.084567,-1.060059,-0.122314,-0.035889,0.141752,-0.021201,0.016371,0.999932,-0.011226,0.003047,-0.000423,-0.175511,-0.565655,0.129867,-0.795214
10754,NaN,11.204301,-2.328172,4.540443,1.479202,1.706054,2.289890,-2.978966,1.008939,-0.213667,-1.060303,-0.117920,-0.048828,0.112247,-0.022727,0.045180,0.999876,-0.014894,0.005044,-0.001068,-0.185490,-0.559162,0.140404,-0.795750
10755,NaN,6.673663,-2.622089,5.865849,4.015382,0.675868,-1.491673,-2.657687,1.121072,-0.228926,-1.064453,-0.124268,-0.067627,0.067036,-0.025518,0.058626,0.999895,-0.013288,0.005605,-0.001145,-0.194598,-0.552341,0.149289,-0.796721
10756,NaN,3.648816,-3.798915,6.203290,5.753175,1.009305,-4.146312,-1.493481,0.272953,-0.030200,-1.066650,-0.122314,-0.065674,0.036567,-0.037530,0.062264,0.999971,-0.007467,0.001365,-0.000151,-0.199085,-0.549852,0.155079,-0.796228
10757,NaN,4.227449,-5.205865,10.527394,9.776127,0.236546,-2.055782,-0.213694,-0.318358,0.200357,-1.066650,-0.120117,-0.067627,0.042159,-0.051904,0.105397,0.999998,-0.001068,-0.001592,0.001002,-0.198627,-0.550752,0.156803,-0.795382
10758,NaN,6.002741,-4.766196,2.692874,2.606973,3.763765,-3.101608,0.482356,0.461485,0.309700,-1.068848,-0.115723,-0.072021,0.060163,-0.047633,0.026675,0.999993,0.002412,0.002307,0.001548,-0.196396,-0.549142,0.155445,-0.797313
10759,NaN,6.643051,-1.713322,-2.149436,-3.058276,3.428193,-4.282768,0.749110,-0.083123,0.275610,-1.071045,-0.113770,-0.063477,0.066463,-0.016961,-0.021530,0.999992,0.003746,-0.000416,0.001378,-0.193173,-0.549992,0.153301,-0.797929
10760,NaN,9.194474,0.615778,2.134321,-1.470697,-0.258004,-0.472290,0.100060,-0.638548,0.215860,-1.071289,-0.107178,-0.050781,0.091869,0.006246,0.021640,0.999994,0.000500,-0.003193,0.001079,-0.191513,-0.552465,0.154315,-0.796424
10761,NaN,14.013220,3.572052,0.655740,-5.547184,-1.595110,3.462966,0.354684,-0.761906,0.220064,-1.071045,-0.109375,-0.044434,0.140066,0.035862,0.007155,0.999991,0.001773,-0.003810,0.001100,-0.189067,-0.555666,0.154244,-0.794794
10762,NaN,17.612455,3.668859,0.033590,-7.102756,-1.048023,6.683030,1.126412,-0.976786,0.286247,-1.075195,-0.111572,-0.033936,0.176067,0.036935,0.001403,0.999971,0.005632,-0.004884,0.001431,-0.184037,-0.560395,0.151682,-0.793146
10763,NaN,18.168772,4.770242,3.746280,-4.506097,-3.748194,8.422865,0.771014,-1.092766,0.237822,-1.075195,-0.107422,-0.023438,0.181422,0.047771,0.038639,0.999977,0.003855,-0.005464,0.001189,-0.180100,-0.565246,0.150299,-0.790867
10764,NaN,15.066869,4.185884,7.234151,-0.250764,-5.207300,6.609421,-0.124324,-0.536427,-0.085563,-1.079590,-0.103027,-0.021240,0.150492,0.041840,0.072719,0.999996,-0.000622,-0.002682,-0.000428,-0.180433,-0.567371,0.151220,-0.789092
10765,NaN,10.816206,0.509488,6.492752,2.029582,-2.102497,2.470031,-1.461055,0.683654,-0.553211,-1.079346,-0.115967,-0.035889,0.108397,0.005268,0.064519,0.999964,-0.007305,0.003418,-0.002766,-0.187270,-0.563755,0.154799,-0.789397
10766,NaN,7.704093,-0.474780,4.789879,1.890006,-0.857110,-0.968849,-3.103451,0.950517,-0.716310,-1.083496,-0.124512,-0.048584,0.077252,-0.004284,0.047601,0.999862,-0.015517,0.004752,-0.003581,-0.199595,-0.557619,0.164255,-0.788824
10767,NaN,5.657588,2.032012,4.592506,0.955926,-3.261672,-3.054468,-3.548878,0.540651,-0.358740,-1.079102,-0.126465,-0.057129,0.056736,0.021027,0.045403,0.999837,-0.017743,0.002703,-0.001794,-0.211315,-0.552151,0.176692,-0.786928
10768,NaN,4.821434,3.513264,3.314532,-0.738973,-4.012562,-4.342117,-2.204770,0.702541,-0.052513,-1.083496,-0.122314,-0.069824,0.048339,0.035481,0.032586,0.999933,-0.011024,0.003513,-0.000263,-0.218243,-0.547100,0.184573,-0.786756
10769,NaN,3.789793,2.335152,0.453084,-2.098812,-1.650607,-6.222271,-0.613317,0.720168,0.193683,-1.083496,-0.124268,-0.073975,0.037891,0.023402,0.004323,0.999988,-0.003067,0.003601,0.000968,-0.219819,-0.543414,0.186734,-0.788360
10770,NaN,4.159831,2.760788,0.467685,-2.453004,-1.965565,-5.905753,0.889299,0.246083,0.529333,-1.087891,-0.120117,-0.073975,0.041531,0.027697,0.004749,0.999986,0.004446,0.001230,0.002647,-0.215586,-0.542957,0.184471,-0.790374
10771,NaN,6.739322,0.945369,2.275559,-0.852015,-1.054398,-2.766243,2.350906,-0.487763,0.656945,-1.083984,-0.109375,-0.061279,0.067306,0.009405,0.023031,0.999923,0.011754,-0.002439,0.003285,-0.206140,-0.546773,0.177483,-0.791862
10772,NaN,11.469653,-2.016477,5.184422,1.546473,0.618599,2.825466,2.358160,-0.621031,0.734503,-1.090576,-0.098633,-0.052979,0.114610,-0.020356,0.051961,0.999919,0.011790,-0.003105,0.003672,-0.196274,-0.551012,0.170847,-0.792889
10773,NaN,12.931647,-3.687453,7.269765,3.634254,1.260257,4.981839,1.390140,-0.324389,0.383450,-1.092529,-0.105225,-0.044434,0.129270,-0.037132,0.072650,0.999973,0.006951,-0.001622,0.001917,-0.190640,-0.553322,0.166713,-0.793535
10774,NaN,11.193070,-2.446845,7.693537,3.969783,-0.218160,3.403027,0.188300,-0.600348,0.023483,-1.094727,-0.100830,-0.031738,0.111702,-0.024528,0.077248,0.999995,0.000941,-0.003002,0.000117,-0.189554,-0.555892,0.166669,-0.792007
10775,NaN,11.590308,-0.815760,6.810968,2.414928,-1.222866,3.380552,-0.348941,-0.837548,-0.076345,-1.096680,-0.105225,-0.027588,0.115613,-0.008082,0.068608,0.999990,-0.001745,-0.004188,-0.000382,-0.190125,-0.558938,0.168637,-0.789305
10776,NaN,10.007455,0.478289,5.377827,1.181847,-1.900874,1.335760,-0.595853,-0.977027,-0.313700,-1.094238,-0.111572,-0.014893,0.099818,0.004787,0.054252,0.999982,-0.002979,-0.004885,-0.001568,-0.192202,-0.562492,0.171084,-0.785742
10777,NaN,9.596211,0.642151,2.859663,-0.708317,-0.922565,0.153345,-0.409135,-1.790984,-0.458823,-1.096191,-0.113770,0.000000,0.095715,0.006261,0.029442,0.999955,-0.002046,-0.008955,-0.002294,-0.193614,-0.569505,0.173121,-0.779876
10778,NaN,9.374734,0.724750,3.144719,-0.310695,-1.212180,0.022600,0.027326,-1.288529,-0.165074,-1.100586,-0.109619,0.016846,0.093548,0.007166,0.032051,0.999979,0.000137,-0.006443,-0.000825,-0.193060,-0.574694,0.173819,-0.776043
10779,NaN,10.423652,1.548067,1.968449,-1.870216,-1.286260,0.664476,0.526743,-0.780772,0.043036,-1.096191,-0.115967,0.021240,0.104155,0.015450,0.020132,0.999989,0.002634,-0.003904,0.000215,-0.190698,-0.578190,0.172657,-0.774287
10780,NaN,10.653931,0.921139,1.612404,-1.857061,-0.578816,0.825487,0.956456,-0.299481,0.181139,-1.098389,-0.111816,0.021240,0.106507,0.009230,0.016328,0.999987,0.004782,-0.001497,0.000906,-0.186982,-0.580110,0.169783,-0.774393
10781,NaN,10.589486,-0.458242,3.221334,0.185293,-0.166367,1.262608,0.736516,0.049332,0.291220,-1.106934,-0.111816,0.019043,0.105909,-0.004547,0.032170,0.999992,0.003683,0.000247,0.001456,-0.183757,-0.580358,0.167735,-0.775424
10782,NaN,11.410682,-0.505523,5.240807,1.650254,-1.007400,2.604506,0.242922,0.461328,0.374290,-1.107178,-0.103271,0.012695,0.114237,-0.004905,0.052139,0.999995,0.001215,0.002307,0.001871,-0.182006,-0.578493,0.167476,-0.777285
10783,NaN,11.690160,-1.375032,5.268247,1.906471,-0.209222,2.939744,0.311158,1.153387,0.396174,-1.109375,-0.101074,0.002197,0.117230,-0.013600,0.051986,0.999980,0.001556,0.005767,0.001981,-0.180527,-0.573952,0.166366,-0.781224
10784,NaN,10.623023,-2.526836,3.592084,1.161441,1.551200,1.517670,0.495552,1.889699,0.465144,-1.109619,-0.096680,-0.021240,0.106621,-0.025108,0.034852,0.999950,0.002478,0.009448,0.002326,-0.178856,-0.566609,0.164060,-0.787432
10785,NaN,9.718225,-2.471408,1.943406,-0.202307,2.256877,0.146660,0.445235,2.438114,0.503583,-1.112061,-0.090088,-0.050781,0.097471,-0.024510,0.018192,0.999920,0.002226,0.012190,0.002518,-0.177596,-0.556952,0.161547,-0.795089
10786,NaN,10.333880,-2.613344,2.033089,-0.527034,2.501233,0.732913,0.114780,2.952989,0.426892,-1.114502,-0.087891,-0.086914,0.103679,-0.025923,0.018787,0.999889,0.000574,0.014764,0.002134,-0.177942,-0.544913,0.159663,-0.803688
10787,NaN,12.719405,-4.914460,1.681403,-0.919025,5.102140,2.910127,-0.727885,3.645218,0.232811,-1.110352,-0.089844,-0.129150,0.127532,-0.048940,0.014670,0.999827,-0.003639,0.018225,0.001164,-0.181867,-0.529340,0.159958,-0.813103
10788,NaN,15.109873,-7.775368,3.833229,0.694575,7.189015,6.037957,-1.285166,5.592183,0.149735,-1.108643,-0.081055,-0.205322,0.152159,-0.077410,0.034585,0.999588,-0.006425,0.027957,0.000749,-0.189055,-0.505115,0.160489,-0.826656
10789,NaN,9.245650,-4.671094,5.871269,2.547240,2.891215,1.451458,-2.988709,7.473551,0.082918,-1.094238,-0.080811,-0.277344,0.094600,-0.045823,0.055893,0.999190,-0.014940,0.037358,0.000414,-0.202099,-0.470936,0.165862,-0.842535
10790,NaN,7.457864,-1.170466,2.657330,-1.252065,1.207525,-2.002035,-3.002930,6.273834,0.396311,-1.077881,-0.065674,-0.344971,0.075389,-0.011179,0.024387,0.999393,-0.015012,0.031363,0.001981,-0.212561,-0.440874,0.173105,-0.854683
10791,NaN,8.484930,-0.627568,0.136335,-4.142462,2.319520,-2.751877,-2.258997,4.440322,0.659743,-1.065674,-0.059082,-0.385254,0.084873,-0.005994,-0.000452,0.999684,-0.011294,0.022199,0.003298,-0.218495,-0.418792,0.179445,-0.862944
10792,NaN,8.602864,2.286639,-2.955322,-7.940337,1.558776,-5.070956,-1.733788,3.197587,0.407832,-1.060059,-0.037598,-0.417236,0.085493,0.022776,-0.031121,0.999833,-0.008668,0.015987,0.002039,-0.223206,-0.402695,0.184374,-0.868344
10793,NaN,2.028855,6.663881,-3.903031,-7.160631,-3.028971,-11.630000,-2.441234,2.449474,0.010119,-1.051514,-0.037598,-0.440430,0.019799,0.066155,-0.040084,0.999851,-0.012206,0.012247,0.000051,-0.230299,-0.389270,0.192239,-0.870905
10794,NaN,-3.926416,4.560911,-2.382440,-1.621096,-3.457774,-15.038543,-2.260346,0.108132,-0.394937,-1.058105,-0.031006,-0.434082,-0.039187,0.045414,-0.024317,0.999934,-0.011301,0.000541,-0.001975,-0.236585,-0.386623,0.201294,-0.868349
10795,NaN,-0.982749,2.346500,11.241264,5.719460,-8.157760,-4.018206,-0.530346,-0.518145,-0.256797,-1.060059,-0.035400,-0.432129,-0.010088,0.023776,0.112324,0.999992,-0.002652,-0.002591,-0.001284,-0.238199,-0.388504,0.203719,-0.866501
10796,NaN,9.474363,2.370423,1.098714,-6.250866,-0.055998,-2.228964,-0.532070,0.003287,-0.662683,-1.064209,-0.039551,-0.434082,0.094822,0.023419,0.010923,0.999991,-0.002660,0.000016,-0.003313,-0.242165,-0.388579,0.204793,-0.865114
10797,NaN,7.932713,-0.208937,0.911437,-3.939982,1.749217,-3.088196,-0.431402,-0.267384,-0.747316,-1.061768,-0.048096,-0.431885,0.079306,-0.002366,0.009225,0.999990,-0.002157,-0.001337,-0.003737,-0.245957,-0.389978,0.205536,-0.863237
10798,NaN,5.891331,-0.765615,1.144909,-2.251891,1.545080,-4.413973,-0.330132,-0.674335,-0.875465,-1.065918,-0.056885,-0.429688,0.058840,-0.007895,0.011660,0.999983,-0.001651,-0.003372,-0.004377,-0.249785,-0.393457,0.206154,-0.860407
10799,NaN,4.414190,-1.042280,0.852867,-1.362657,1.537759,-5.680256,0.071997,-0.869567,-0.885415,-1.069580,-0.071777,-0.416992,0.044058,-0.010621,0.008717,0.999981,0.000360,-0.004348,-0.004427,-0.252549,-0.398196,0.205192,-0.857646
10800,NaN,3.662357,-1.228204,1.175059,-0.592853,1.304477,-6.037938,0.180674,-1.085060,-0.770576,-1.077637,-0.084717,-0.408447,0.036511,-0.012434,0.011938,0.999977,0.000903,-0.005425,-0.003853,-0.254487,-0.403951,0.204336,-0.854580
10801,NaN,3.972893,-0.878743,1.855000,-0.515759,0.730972,-5.431314,0.190065,-1.183223,-0.736959,-1.079590,-0.091309,-0.387207,0.039586,-0.008951,0.018776,0.999975,0.000950,-0.005916,-0.003685,-0.256034,-0.409994,0.203544,-0.851423
10802,NaN,3.723003,-1.434902,2.577951,0.448566,0.688593,-5.134038,0.063354,-1.214507,-0.818516,-1.085449,-0.102051,-0.382812,0.037013,-0.014509,0.026000,0.999973,0.000317,-0.006072,-0.004093,-0.258257,-0.416163,0.203241,-0.847823
10803,NaN,2.613145,-0.953813,3.308436,1.237553,-0.407848,-5.691305,0.141766,-1.323082,-0.754797,-1.091553,-0.112793,-0.367920,0.025876,-0.009660,0.033249,0.999971,0.000709,-0.006615,-0.003774,-0.259807,-0.422713,0.202780,-0.844212
10804,NaN,2.316887,-1.232619,3.644141,1.826531,-0.469342,-5.737134,0.530918,-1.498006,-0.459152,-1.099854,-0.119141,-0.353027,0.022867,-0.012476,0.036580,0.999966,0.002655,-0.007490,-0.002296,-0.259193,-0.430265,0.201602,-0.840861
10805,NaN,3.507228,-0.888711,4.207465,1.455487,-0.761265,-4.512273,0.613937,-1.798114,-0.171113,-1.103760,-0.127930,-0.333984,0.034685,-0.009047,0.042360,0.999955,0.003070,-0.008990,-0.000856,-0.256765,-0.438777,0.200982,-0.837349
10806,NaN,5.389171,-0.329789,2.816903,-0.564048,0.014098,-3.749102,0.797279,-2.162946,-0.087458,-1.109619,-0.134277,-0.302246,0.053581,-0.003435,0.028736,0.999933,0.003986,-0.010814,-0.000437,-0.253270,-0.448990,0.200303,-0.833151
10807,NaN,6.242442,-0.937329,1.728705,-1.178674,1.244434,-3.496423,1.586186,-2.600685,0.138450,-1.120361,-0.130127,-0.266113,0.062200,-0.009471,0.018022,0.999884,0.007931,-0.013003,0.000692,-0.246496,-0.461645,0.197284,-0.828977
10808,NaN,7.981799,-2.175514,1.308084,-1.358443,2.752354,-2.019916,1.310462,-3.371864,0.224680,-1.132568,-0.138916,-0.236572,0.079608,-0.021757,0.014282,0.999836,0.006552,-0.016858,0.001123,-0.239253,-0.477017,0.196590,-0.822536
10809,NaN,13.332058,-3.511945,4.997711,-0.067225,2.691024,4.602282,0.682008,-3.373128,0.331862,-1.145020,-0.143311,-0.198242,0.132512,-0.035074,0.052097,0.999851,0.003410,-0.016865,0.001659,-0.232908,-0.491311,0.198590,-0.815432
10810,NaN,13.162267,-4.182121,8.145046,2.958536,1.241451,5.896302,0.793486,-2.505536,0.174882,-1.146973,-0.143311,-0.172852,0.130627,-0.042034,0.082925,0.999913,0.003967,-0.012527,0.000874,-0.227811,-0.502316,0.198804,-0.810097
10811,NaN,13.362038,-2.750394,10.417712,4.025081,-1.266975,6.825270,1.244085,-2.038372,0.153792,-1.151123,-0.147705,-0.151855,0.132572,-0.028055,0.105358,0.999928,0.006220,-0.010192,0.000769,-0.222019,-0.511804,0.196466,-0.806328
10812,NaN,14.531961,-0.920646,13.677589,5.305806,-4.461160,8.923250,0.809812,-1.950959,0.081114,-1.153076,-0.152100,-0.126221,0.143980,-0.009705,0.138146,0.999944,0.004049,-0.009755,0.000406,-0.217729,-0.520523,0.195673,-0.802098
10813,NaN,14.268980,-0.783741,14.506718,6.234013,-5.143536,8.877933,0.297527,-1.131119,-0.145536,-1.156982,-0.158447,-0.119873,0.141861,-0.008157,0.145859,0.999983,0.001488,-0.005656,-0.000728,-0.216426,-0.525520,0.195337,-0.799270
10814,NaN,11.240699,-0.394191,10.593654,4.268129,-3.794482,4.544153,0.125259,-0.170429,-0.373156,-1.158936,-0.169189,-0.122070,0.112309,-0.004218,0.106030,0.999998,0.000626,-0.000852,-0.001866,-0.217425,-0.526726,0.194097,-0.798507
10815,NaN,9.101784,-0.475260,5.666815,1.363618,-1.321626,0.750194,0.425561,0.341146,-0.499782,-1.160889,-0.175537,-0.128174,0.091102,-0.005101,0.056502,0.999993,0.002128,0.001706,-0.002499,-0.218627,-0.526312,0.190717,-0.799265
10816,NaN,8.063958,-1.683712,0.930215,-1.194299,2.137688,-1.892392,0.896184,0.383730,-0.622212,-1.158203,-0.190674,-0.128174,0.080604,-0.017129,0.009071,0.999983,0.004481,0.001919,-0.003111,-0.219107,-0.526350,0.185105,-0.800427
10817,NaN,7.226112,-0.804984,0.637564,-1.592635,1.478907,-2.845091,1.006287,-0.107011,-0.442435,-1.155762,-0.199219,-0.128174,0.072240,-0.008242,0.006373,0.999985,0.005031,-0.000535,-0.002212,-0.218125,-0.528286,0.180036,-0.800576
10818,NaN,9.177539,1.196775,0.838366,-3.145665,0.006777,-1.068174,0.675688,-0.797478,-0.181867,-1.164307,-0.201416,-0.117432,0.091752,0.011855,0.008790,0.999986,0.003378,-0.003987,-0.000909,-0.216341,-0.532389,0.177764,-0.798848
10819,NaN,10.043617,2.010567,0.092057,-4.360530,-0.188635,-0.545863,0.721788,-1.037533,-0.312853,-1.159424,-0.214355,-0.100586,0.100461,0.019944,0.001514,0.999979,0.003609,-0.005188,-0.001564,-0.214740,-0.537585,0.175175,-0.796369
10820,NaN,8.243783,1.507643,-0.248339,-3.661831,0.104266,-2.271224,1.006519,-1.133757,-0.427292,-1.155029,-0.218506,-0.085693,0.082482,0.014911,-0.001941,0.999969,0.005033,-0.005669,-0.002136,-0.212758,-0.543574,0.171285,-0.793677
10821,NaN,8.229119,1.540212,1.007836,-2.568104,-0.590645,-1.802647,0.942333,-1.459097,-0.300142,-1.161133,-0.222900,-0.066650,0.082237,0.015229,0.010750,0.999961,0.004712,-0.007295,-0.001501,-0.210128,-0.550607,0.168283,-0.790164
10822,NaN,10.787043,0.811130,1.165152,-2.693891,0.265159,0.725106,0.887192,-1.779827,-0.041110,-1.156738,-0.231445,-0.047607,0.107762,0.008035,0.012647,0.999951,0.004436,-0.008899,-0.000206,-0.206384,-0.558629,0.166587,-0.785868
10823,NaN,12.892098,0.059943,0.783725,-3.041621,1.274302,2.675034,0.583116,-1.983154,0.157139,-1.149902,-0.238037,-0.028320,0.128834,0.000675,0.009117,0.999946,0.002916,-0.009916,0.000786,-0.202473,-0.566866,0.166780,-0.780930
10824,NaN,14.952154,-0.122045,1.760679,-2.500105,1.063489,4.995882,-0.277005,-1.850123,0.111524,-1.156250,-0.238037,-0.009277,0.149351,-0.001111,0.018991,0.999956,-0.001385,-0.009250,0.000558,-0.201330,-0.573757,0.170117,-0.775454
10825,NaN,14.942066,-0.194992,3.071859,-1.210430,0.348440,5.390967,-1.692000,-0.986079,-0.214207,-1.153809,-0.248779,-0.013428,0.149265,-0.001846,0.031471,0.999951,-0.008460,-0.004930,-0.001071,-0.206164,-0.576035,0.177055,-0.770929
10826,NaN,13.363368,-0.686425,5.281671,1.306893,-0.636229,4.499314,-2.622703,-0.203643,-0.456195,-1.155762,-0.255127,-0.024170,0.133565,-0.006474,0.053039,0.999911,-0.013113,-0.001018,-0.002281,-0.215346,-0.574541,0.186125,-0.767389
10827,NaN,10.374475,-0.814245,5.469811,2.226068,-1.078432,1.680426,-3.473744,0.282548,-0.540250,-1.145020,-0.261475,-0.038818,0.103801,-0.007473,0.054685,0.999845,-0.017368,0.001413,-0.002701,-0.227625,-0.570135,0.197576,-0.764262
10828,NaN,6.773905,-2.432703,7.612478,5.642330,-1.543427,-1.121739,-2.851402,0.270656,-0.500161,-1.146973,-0.270020,-0.055664,0.067783,-0.023409,0.076371,0.999894,-0.014257,0.001353,-0.002501,-0.237966,-0.566349,0.206782,-0.761487
10829,NaN,4.269377,-5.597244,7.994333,8.393264,0.294266,-3.260502,-1.628868,0.446024,-0.417157,-1.146973,-0.272217,-0.068359,0.042757,-0.055409,0.080301,0.999962,-0.008144,0.002230,-0.002086,-0.244617,-0.563127,0.211273,-0.760536
10830,NaN,2.188226,-6.344043,4.152221,6.458114,2.827260,-6.266494,-0.292956,0.439677,-0.097680,-1.140625,-0.276367,-0.076904,0.021943,-0.063390,0.041567,0.999996,-0.001465,0.002198,-0.000488,-0.246285,-0.561224,0.211615,-0.761308
10831,NaN,5.756120,-5.276859,-3.251112,-0.664880,6.904732,-4.972208,0.752752,0.129174,0.055162,-1.138184,-0.280762,-0.072510,0.057555,-0.052630,-0.032747,0.999993,0.003764,0.000646,0.000276,-0.244096,-0.561600,0.208753,-0.762525
10832,NaN,10.560979,-4.123988,-4.023025,-3.198061,7.098286,-0.641385,1.025236,-0.203141,0.073067,-1.138184,-0.282959,-0.068359,0.105666,-0.040995,-0.040334,0.999986,0.005126,-0.001016,0.000365,-0.240690,-0.563562,0.205359,-0.763081
10833,NaN,20.897737,-2.312673,6.851563,1.483528,0.580276,12.243248,-0.713323,-1.110228,0.061526,-1.134033,-0.282959,-0.066162,0.208599,-0.022815,0.069756,0.999978,-0.003567,-0.005551,0.000308,-0.241318,-0.566869,0.209595,-0.759273
10834,NaN,26.143065,2.886461,15.463752,3.687924,-8.216095,19.338781,-1.328578,-0.554672,0.098448,-1.135986,-0.285156,-0.066162,0.260986,0.030023,0.155165,0.999974,-0.006643,-0.002773,0.000492,-0.244080,-0.567283,0.215671,-0.756373
10835,NaN,21.619964,6.462057,10.729416,-1.098478,-8.796763,13.547697,0.379765,1.022056,0.096916,-1.132080,-0.280762,-0.087402,0.216713,0.064523,0.106310,0.999985,0.001899,0.005110,0.000485,-0.243733,-0.563773,0.213268,-0.759784
10836,NaN,11.385640,2.742791,-1.368015,-5.594751,0.195955,0.564318,1.264459,2.493275,-0.016027,-1.127930,-0.278564,-0.112793,0.113678,0.027511,-0.014924,0.999902,0.006322,0.012466,-0.000080,-0.242847,-0.555814,0.205392,-0.768056
10837,NaN,5.851896,-2.120369,-3.324465,-2.809509,4.532837,-5.192061,-0.379375,2.610522,-0.340928,-1.130127,-0.282715,-0.148682,0.058042,-0.021367,-0.033964,0.999912,-0.001897,0.013052,-0.001705,-0.247868,-0.545634,0.202723,-0.774434
10838,NaN,2.041394,0.743740,-0.771638,-1.610076,0.217593,-8.176885,-2.099720,1.917596,-0.512162,-1.117432,-0.286865,-0.171875,0.020357,0.007302,-0.007989,0.999896,-0.010498,0.009588,-0.002561,-0.257501,-0.536103,0.207113,-0.776782
10839,NaN,0.943429,4.187036,2.411946,-1.187022,-4.534194,-8.306138,-2.306295,0.706596,-0.187277,-1.113281,-0.282471,-0.182617,0.009558,0.042136,0.023601,0.999927,-0.011531,0.003533,-0.000936,-0.265121,-0.530549,0.214653,-0.775985
10840,NaN,1.301545,5.097152,4.784000,-0.309655,-6.618169,-7.231177,-1.869889,-0.211083,0.028619,-1.111328,-0.278320,-0.186768,0.012958,0.051418,0.047374,0.999956,-0.009349,-0.001055,0.000143,-0.269755,-0.528871,0.222296,-0.773377
10841,NaN,7.788080,1.102321,1.616916,-1.870083,-0.462908,-2.017061,-0.107772,-0.864767,0.269362,-1.109131,-0.276123,-0.176270,0.077795,0.011137,0.016500,0.999990,-0.000539,-0.004324,0.001347,-0.268031,-0.531769,0.224599,-0.771321
10842,NaN,11.881550,0.272234,3.083321,-1.434869,-0.128672,2.380568,0.663372,-0.993192,0.393919,-1.109619,-0.263428,-0.167969,0.118655,0.002853,0.031432,0.999980,0.003317,-0.004966,0.001970,-0.263671,-0.536069,0.224437,-0.769893
10843,NaN,13.062507,0.240105,5.748340,0.210031,-1.666954,4.361459,0.557370,-0.713453,0.244602,-1.103027,-0.265381,-0.163818,0.130416,0.002400,0.057956,0.999989,0.002787,-0.003567,0.001223,-0.260429,-0.539274,0.223895,-0.768916
10844,NaN,12.134507,0.432340,6.386823,0.877390,-2.395250,3.667568,0.528887,-0.366749,-0.044189,-1.103027,-0.263428,-0.159424,0.121229,0.004127,0.064102,0.999995,0.002644,-0.001834,-0.000221,-0.258811,-0.541454,0.222238,-0.768411
10845,NaN,10.820261,-0.315032,4.549303,0.450725,-0.869997,1.888306,0.376239,0.002408,-0.251015,-1.098877,-0.261230,-0.151123,0.108199,-0.003372,0.045486,0.999997,0.001881,0.000012,-0.001255,-0.258756,-0.542213,0.220118,-0.768504
10846,NaN,9.830789,-1.105004,4.088333,0.928339,-0.110866,0.850600,-0.040206,-0.152354,-0.325234,-1.096680,-0.263428,-0.159424,0.098259,-0.011202,0.040960,0.999998,-0.000201,-0.000762,-0.001626,-0.259998,-0.543132,0.219595,-0.767585
10847,NaN,9.104885,-1.962743,5.123106,2.452271,-0.222119,0.528218,-0.831689,-0.300143,-0.379441,-1.094238,-0.271973,-0.155273,0.090935,-0.019586,0.051449,0.999988,-0.004158,-0.001501,-0.001897,-0.263378,-0.543617,0.222153,-0.765350
10848,NaN,7.677740,-1.982274,5.417553,3.098350,-0.681536,-0.748362,-1.163597,-0.665155,-0.349637,-1.088135,-0.269775,-0.153076,0.076562,-0.019640,0.054545,0.999976,-0.005818,-0.003326,-0.001748,-0.267172,-0.545025,0.226530,-0.761742
10849,NaN,6.936081,-1.628541,4.257021,2.295444,-0.404567,-1.847139,-0.671666,-1.120587,-0.315457,-1.090332,-0.261230,-0.138428,0.069095,-0.016251,0.043012,0.999977,-0.003358,-0.005603,-0.001577,-0.268926,-0.548745,0.229729,-0.757484
10850,NaN,7.250888,-1.745828,3.515584,1.859306,0.157189,-1.781513,0.724333,-1.450800,-0.272733,-1.087891,-0.265625,-0.119385,0.072228,-0.017685,0.035617,0.999966,0.003622,-0.007254,-0.001364,-0.266319,-0.555515,0.228177,-0.753932
10851,NaN,7.888592,-3.258054,3.278193,2.618437,1.541383,-1.189540,2.074662,-1.208669,-0.019438,-1.083740,-0.265625,-0.098145,0.078684,-0.032929,0.032917,0.999928,0.010373,-0.006043,-0.000097,-0.259229,-0.562820,0.221904,-0.752856
10852,NaN,9.077229,-3.742287,2.574111,2.179683,2.559812,-0.235476,2.639759,-0.803018,0.265763,-1.090332,-0.257080,-0.085693,0.090719,-0.037641,0.025610,0.999904,0.013198,-0.004015,0.001329,-0.249888,-0.568914,0.213732,-0.753798
10853,NaN,10.871557,-2.513033,1.400033,0.094487,2.592245,1.129748,3.115003,0.054596,0.542946,-1.083984,-0.255127,-0.081299,0.108787,-0.025049,0.013580,0.999875,0.015574,0.000273,0.002715,-0.239006,-0.571953,0.203450,-0.757861
10854,NaN,12.403141,-2.160395,1.711319,-0.333510,2.379337,2.663672,2.970545,0.633851,0.586062,-1.086182,-0.246582,-0.079346,0.124147,-0.021487,0.016400,0.999880,0.014852,0.003169,0.002930,-0.228891,-0.572435,0.193097,-0.763309
10855,NaN,12.980120,-2.768495,2.946757,0.699329,2.370280,3.555939,2.453933,1.120930,0.339209,-1.080078,-0.244385,-0.087891,0.130009,-0.027817,0.028399,0.999908,0.012269,0.005604,0.001696,-0.221632,-0.570589,0.183410,-0.769199
10856,NaN,13.741245,-3.610724,5.155213,2.537268,2.174860,4.927031,1.379708,1.780070,0.042289,-1.082275,-0.242188,-0.108887,0.137870,-0.036427,0.050076,0.999937,0.006898,0.008900,0.000211,-0.219125,-0.565198,0.176262,-0.775543
10857,NaN,14.548014,-4.321572,6.771398,3.708860,2.279022,6.224990,0.087394,2.703257,-0.079088,-1.072021,-0.235596,-0.142822,0.146360,-0.043302,0.065721,0.999908,0.000437,0.013516,-0.000395,-0.221545,-0.554835,0.172730,-0.783097
10858,NaN,13.827337,-5.174888,5.755836,3.162777,3.659367,5.276629,-0.822175,3.759115,-0.108704,-1.070068,-0.237549,-0.183105,0.139297,-0.051594,0.055159,0.999815,-0.004111,0.018794,-0.000543,-0.227401,-0.539187,0.171480,-0.792566
10859,NaN,10.966067,-3.968387,3.091149,0.894252,3.760022,1.615392,-1.076479,4.553373,0.198058,-1.062012,-0.224609,-0.227539,0.110369,-0.039417,0.028617,0.999726,-0.005382,0.022765,0.000990,-0.233357,-0.519608,0.171064,-0.803921
10860,NaN,10.354376,-1.075666,2.128460,-1.670043,1.929006,0.500798,-0.670150,4.836644,0.944390,-1.056152,-0.218018,-0.286865,0.104068,-0.010200,0.018807,0.999691,-0.003350,0.024181,0.004721,-0.235282,-0.498403,0.170564,-0.816789
10861,NaN,13.451126,5.681676,-0.713940,-9.222110,-1.354377,1.447855,-1.160365,4.697235,0.973887,-1.046143,-0.205078,-0.327148,0.134010,0.057415,-0.010623,0.999696,-0.005801,0.023484,0.004869,-0.238128,-0.476880,0.172160,-0.828397
10862,NaN,15.265944,6.565025,0.927794,-9.810571,-2.266160,3.438773,0.525632,3.833560,0.278142,-1.033691,-0.198486,-0.367432,0.152711,0.065843,0.006524,0.999812,0.002628,0.019167,0.001391,-0.238931,-0.461313,0.166110,-0.838159
10863,NaN,9.002188,5.441605,9.432874,-0.831635,-6.893937,2.491410,-0.407890,3.757374,0.275838,-1.019287,-0.187500,-0.401367,0.091696,0.054732,0.092505,0.999821,-0.002039,0.018786,0.001379,-0.241790,-0.444773,0.163946,-0.846662
10864,NaN,4.796482,2.647956,4.312081,-1.048753,-3.057362,-3.635531,-3.262050,2.793154,0.594552,-1.015869,-0.163818,-0.435547,0.048476,0.027314,0.042005,0.999765,-0.016309,0.013965,0.002973,-0.248768,-0.428449,0.175700,-0.850691
10865,NaN,7.404454,2.610253,1.762184,-4.247347,-0.986789,-3.050641,-2.738893,2.253975,0.746229,-1.007812,-0.153076,-0.454590,0.074135,0.026609,0.016425,0.999836,-0.013694,0.011269,0.003731,-0.253397,-0.414735,0.186124,-0.853898
10866,NaN,7.010381,2.024761,4.643658,-2.118111,-2.109357,-1.696627,-0.938798,1.689092,0.454586,-0.999756,-0.144531,-0.469482,0.070446,0.020623,0.045746,0.999951,-0.004694,0.008445,0.002273,-0.254996,-0.405934,0.188954,-0.857024
10867,NaN,5.697664,-1.642962,6.462088,1.721348,-0.476175,-1.226034,0.282704,1.100823,0.437452,-1.000000,-0.131592,-0.475830,0.057367,-0.016395,0.064283,0.999981,0.001414,0.005504,0.002187,-0.253579,-0.401162,0.187232,-0.860064
10868,NaN,7.183042,-3.403778,6.582084,1.930118,1.322749,0.238687,-0.197675,0.588180,0.381550,-0.991455,-0.133789,-0.478027,0.072088,-0.033835,0.065643,0.999993,-0.000988,0.002941,0.001908,-0.252923,-0.398065,0.188120,-0.861502
10869,NaN,7.554280,-2.341302,5.634235,0.490504,1.069780,-0.173791,-0.243328,0.198010,0.176039,-0.993896,-0.129639,-0.476074,0.075619,-0.023278,0.056296,0.999998,-0.001217,0.000990,0.000880,-0.252831,-0.396743,0.189277,-0.861885
10870,NaN,7.128289,-2.216117,3.924228,-0.365233,1.740053,-1.568777,-0.129794,-0.000927,-0.025241,-0.996094,-0.125244,-0.473877,0.071280,-0.022145,0.039257,1.000000,-0.000649,-0.000005,-0.000126,-0.253222,-0.396644,0.189812,-0.861698
10871,NaN,6.364941,-2.428253,3.061686,-0.318169,2.147974,-2.666516,-0.050100,0.020820,-0.177556,-0.989502,-0.129639,-0.478027,0.063631,-0.024331,0.030616,1.000000,-0.000251,0.000104,-0.000888,-0.254102,-0.396665,0.189659,-0.861463
10872,NaN,5.449144,-2.738966,3.449477,0.613557,1.937876,-3.107306,0.061366,0.003614,-0.310273,-0.995850,-0.133789,-0.478027,0.054449,-0.027485,0.034485,0.999999,0.000307,0.000018,-0.001551,-0.255339,-0.397064,0.188810,-0.861100
10873,NaN,4.164879,-4.508744,4.371829,2.933335,2.508563,-3.340409,0.368974,-0.248367,-0.371823,-0.991455,-0.135986,-0.471680,0.041511,-0.045245,0.043687,0.999996,0.001845,-0.001242,-0.001859,-0.255968,-0.398959,0.186809,-0.860473
10874,NaN,3.598668,-4.372198,4.207004,3.102573,2.345389,-3.927256,0.683424,-0.498528,-0.405876,-0.993408,-0.140381,-0.469482,0.035793,-0.043938,0.042010,0.999989,0.003417,-0.002493,-0.002029,-0.255881,-0.402390,0.183742,-0.859562
10875,NaN,3.353131,-2.998011,3.251615,1.898084,1.701094,-4.882390,0.960411,-0.630750,-0.452508,-0.997314,-0.151123,-0.454590,0.033361,-0.030212,0.032477,0.999981,0.004802,-0.003154,-0.002263,-0.255305,-0.406743,0.179517,-0.858576
10876,NaN,2.616625,-1.830711,2.682955,1.308845,0.870442,-5.949338,1.350999,-0.792159,-0.447219,-0.993164,-0.148926,-0.439941,0.026019,-0.018547,0.026808,0.999967,0.006755,-0.003961,-0.002236,-0.253730,-0.412284,0.173869,-0.857562
10877,NaN,2.200984,-0.574558,2.108816,0.488321,0.047814,-6.749905,1.520079,-0.911066,-0.294016,-0.994629,-0.164062,-0.422852,0.021905,-0.005938,0.021143,0.999960,0.007600,-0.004555,-0.001470,-0.251051,-0.418363,0.167904,-0.856594
10878,NaN,3.169587,0.159121,1.450957,-0.807250,0.065026,-6.418464,1.619708,-1.226554,-0.222103,-1.002930,-0.172607,-0.407959,0.031608,0.001437,0.014716,0.999948,0.008098,-0.006133,-0.001110,-0.247535,-0.425837,0.162090,-0.855053
10879,NaN,4.073652,-0.164907,1.693587,-0.867780,0.468146,-5.509511,1.825833,-1.657469,-0.201145,-1.010986,-0.177002,-0.384521,0.040593,-0.001847,0.017256,0.999923,0.009129,-0.008287,-0.001006,-0.243142,-0.435319,0.155905,-0.852686
10880,NaN,5.539283,0.166217,1.722608,-1.667798,0.566116,-4.283204,1.824227,-2.116072,-0.145836,-1.015137,-0.181396,-0.361328,0.055207,0.001461,0.017825,0.999902,0.009121,-0.010580,-0.000729,-0.238085,-0.446657,0.150424,-0.849226
10881,NaN,6.873873,-0.360279,1.977993,-1.719017,1.205682,-2.965709,1.954096,-2.489936,-0.036352,-1.023193,-0.192139,-0.325195,0.068485,-0.003814,0.020597,0.999875,0.009770,-0.012449,-0.000182,-0.231970,-0.459533,0.145001,-0.844982
10882,NaN,7.056159,-0.315055,2.165946,-1.528027,1.070604,-2.664546,2.015546,-2.579388,0.039656,-1.031494,-0.196533,-0.297607,0.070275,-0.003361,0.022534,0.999866,0.010077,-0.012896,0.000198,-0.225238,-0.472715,0.139613,-0.840426
10883,NaN,6.641981,-0.676396,3.551109,0.042536,0.618172,-2.276337,2.371099,-2.603699,0.070614,-1.039551,-0.198730,-0.268066,0.065953,-0.007168,0.036288,0.999845,0.011855,-0.013018,0.000353,-0.217482,-0.486209,0.132737,-0.835873
10884,NaN,6.938297,-1.318768,5.389216,1.844764,0.443031,-1.134109,2.642192,-2.858323,0.144475,-1.043701,-0.203125,-0.227783,0.068615,-0.013857,0.054696,0.999810,0.013210,-0.014291,0.000722,-0.208485,-0.500878,0.125198,-0.830651
10885,NaN,7.334439,-1.153144,7.453588,3.498479,-0.455523,0.098088,2.504563,-2.952911,0.190507,-1.045654,-0.203369,-0.191895,0.072246,-0.012403,0.075456,0.999812,0.012522,-0.014764,0.000952,-0.199531,-0.515545,0.118338,-0.824861
10886,NaN,8.801237,-0.061030,8.803988,3.875102,-1.656261,1.900627,2.173069,-3.036891,0.204539,-1.056152,-0.201172,-0.153809,0.086663,-0.001487,0.089350,0.999825,0.010865,-0.015184,0.001023,-0.191200,-0.530053,0.112976,-0.818366
10887,NaN,10.765447,1.211936,9.651554,3.729824,-2.776655,3.930528,1.880825,-2.969083,0.245228,-1.060059,-0.203613,-0.119873,0.106191,0.011332,0.098208,0.999845,0.009404,-0.014845,0.001226,-0.183502,-0.543785,0.108761,-0.811662
10888,NaN,11.514398,3.251803,11.634653,4.760496,-5.283586,5.284370,1.624831,-2.633485,0.197763,-1.055908,-0.201416,-0.092529,0.113565,0.031676,0.118108,0.999880,0.008124,-0.013167,0.000989,-0.176758,-0.555792,0.105150,-0.805478
10889,NaN,11.786944,4.028134,13.127971,6.095033,-6.527736,5.926520,1.273211,-2.276937,0.171171,-1.055908,-0.197266,-0.064941,0.116329,0.039539,0.132863,0.999915,0.006366,-0.011384,0.000856,-0.171316,-0.565956,0.102511,-0.799898
10890,NaN,12.234274,3.358378,12.847944,6.378850,-5.742105,6.072868,1.485907,-1.819095,0.141225,-1.057861,-0.195068,-0.046143,0.121143,0.032708,0.129830,0.999931,0.007429,-0.009095,0.000706,-0.165554,-0.574354,0.098522,-0.795615
10891,NaN,12.185346,1.997961,11.608888,6.140220,-4.002268,5.468430,1.629103,-1.283313,0.004247,-1.055908,-0.188721,-0.029053,0.121104,0.019031,0.117025,0.999946,0.008145,-0.006416,0.000021,-0.160216,-0.580780,0.093120,-0.792688
10892,NaN,11.913006,0.706283,9.176109,4.749871,-1.946476,4.338836,1.350715,-1.053354,-0.112990,-1.055664,-0.190918,-0.016357,0.118648,0.006373,0.092431,0.999963,0.006753,-0.005267,-0.000565,-0.156187,-0.585996,0.088240,-0.790208
10893,NaN,11.317655,0.605435,7.693850,3.771227,-1.408986,3.280912,0.681712,-0.787350,-0.192952,-1.055664,-0.190918,-0.008057,0.112878,0.005682,0.077403,0.999986,0.003409,-0.003937,-0.000965,-0.154601,-0.589722,0.085605,-0.788035
10894,NaN,10.909634,1.497305,8.197300,4.115640,-2.443731,3.053822,-0.125483,-0.491115,-0.347695,-1.057617,-0.195312,-0.003662,0.108920,0.014835,0.082231,0.999995,-0.000627,-0.002456,-0.001738,-0.156064,-0.591612,0.085397,-0.786350
10895,NaN,10.626164,2.370025,9.778731,5.335942,-3.812283,3.269748,-0.892667,-0.077891,-0.616041,-1.053467,-0.197510,-0.010010,0.106297,0.023809,0.097723,0.999985,-0.004463,-0.000389,-0.003080,-0.161089,-0.591482,0.087154,-0.785241
10896,NaN,9.113353,3.343973,10.472989,5.923208,-5.177985,2.104598,-1.116158,0.496654,-0.864808,-1.050781,-0.214600,-0.020508,0.091538,0.033627,0.104316,0.999972,-0.005581,0.002483,-0.004324,-0.167927,-0.588872,0.088499,-0.785619
10897,NaN,6.606379,2.683414,9.191876,5.543542,-4.512202,-0.634272,-0.735449,0.864045,-0.951051,-1.050781,-0.220947,-0.029053,0.066587,0.026855,0.091533,0.999973,-0.003677,0.004320,-0.004755,-0.174204,-0.585271,0.087869,-0.787013
10898,NaN,4.664402,1.810021,6.310531,3.734481,-3.006395,-3.341949,-0.135296,0.638374,-0.817807,-1.048340,-0.225098,-0.031006,0.046919,0.017951,0.062944,0.999986,-0.000676,0.003192,-0.004089,-0.178026,-0.582837,0.085345,-0.788241
10899,NaN,4.851255,0.753185,3.662913,1.727034,-1.048362,-4.030211,0.325430,0.061631,-0.623234,-1.054688,-0.229492,-0.033203,0.048547,0.007321,0.036626,0.999994,0.001627,0.000308,-0.003116,-0.179557,-0.583151,0.082201,-0.787995
10900,NaN,6.923663,-0.414481,1.986098,0.165713,1.022256,-2.672599,0.378307,-0.188992,-0.479491,-1.046143,-0.227295,-0.018311,0.069208,-0.004348,0.019918,0.999995,0.001892,-0.000945,-0.002397,-0.180197,-0.584259,0.079364,-0.787319
10901,NaN,6.896723,-0.611468,0.328839,-1.212356,1.788313,-3.226426,0.285466,0.056175,-0.508814,-1.048096,-0.240234,-0.024658,0.068952,-0.006295,0.003260,0.999996,0.001427,0.000281,-0.002544,-0.181385,-0.584499,0.076713,-0.787131
10902,NaN,6.041769,-0.949336,-1.884215,-2.841437,2.703920,-4.756068,0.106572,0.183129,-0.625213,-1.047852,-0.242432,-0.024658,0.060370,-0.009672,-0.018903,0.999995,0.000533,0.000916,-0.003126,-0.183534,-0.583947,0.074193,-0.787284
10903,NaN,7.057814,-2.193752,-5.344355,-5.698878,5.238961,-4.989484,-0.028995,-0.143576,-0.644026,-1.043457,-0.248779,-0.018066,0.070545,-0.022172,-0.053390,0.999995,-0.000145,-0.000718,-0.003220,-0.186097,-0.584726,0.072568,-0.786255
10904,NaN,11.384770,-3.060641,-3.293778,-4.543152,6.278838,-0.338292,-0.304736,-0.920218,-0.312037,-1.047852,-0.246582,-0.016113,0.113950,-0.030834,-0.032367,0.999987,-0.001524,-0.004601,-0.001560,-0.187810,-0.588030,0.073632,-0.783279
10905,NaN,11.779635,-0.642360,0.268699,-2.287091,2.929598,1.386905,-1.431005,-0.528355,0.032628,-1.047607,-0.246582,-0.009766,0.117790,-0.006383,0.003044,0.999971,-0.007155,-0.002642,0.000163,-0.191688,-0.588730,0.079836,-0.781203
10906,NaN,15.974519,-0.735182,-1.513473,-4.646437,4.437066,4.909090,-1.058344,-1.963406,0.013113,-1.049805,-0.242432,0.007080,0.159884,-0.007416,-0.013526,0.999938,-0.005292,-0.009817,0.000066,-0.193879,-0.595235,0.085837,-0.775073
10907,NaN,19.886582,-3.043836,-0.076250,-2.922989,6.681571,8.936750,-0.985898,-2.185739,-0.276244,-1.047363,-0.251221,0.028320,0.198815,-0.030709,0.001561,0.999927,-0.004929,-0.010928,-0.001381,-0.196930,-0.602829,0.090958,-0.767817
10908,NaN,17.856334,-3.468911,-2.383996,-4.047575,7.483694,6.440610,-0.445674,-1.433596,-0.578713,-1.047363,-0.253418,0.043213,0.178626,-0.035257,-0.022482,0.999968,-0.002228,-0.007168,-0.002894,-0.199748,-0.608059,0.092316,-0.762786
10909,NaN,13.834704,-2.859842,-1.084507,-2.180461,5.653631,2.994845,0.062995,-1.329734,-0.432599,-1.040771,-0.259766,0.051758,0.138353,-0.028894,-0.009934,0.999976,0.000315,-0.006649,-0.002163,-0.200586,-0.613381,0.092096,-0.758318
10910,NaN,13.986730,-0.951813,1.850107,-0.184454,2.783196,4.049964,0.204663,-1.587163,-0.130018,-1.036377,-0.257568,0.072754,0.139708,-0.009629,0.019600,0.999968,0.001023,-0.007936,-0.000650,-0.199604,-0.619593,0.092526,-0.753460
10911,NaN,17.146743,0.340981,2.972688,0.088927,1.661091,7.513137,0.473868,-2.223331,-0.012789,-1.029785,-0.260010,0.100342,0.171123,0.003325,0.031638,0.999935,0.002369,-0.011116,-0.000064,-0.197141,-0.628410,0.092924,-0.746727
10912,NaN,19.960382,1.054929,3.074848,-0.076633,1.329204,10.366314,0.567498,-2.358357,-0.220309,-1.031982,-0.255615,0.121338,0.199234,0.010238,0.033129,0.999926,0.002837,-0.011791,-0.001102,-0.194950,-0.637784,0.092452,-0.739377
10913,NaN,18.227816,-0.480981,2.086386,0.166652,2.730868,8.335298,0.769539,-0.965639,-0.255134,-1.031982,-0.257812,0.132080,0.182168,-0.005125,0.021724,0.999980,0.003848,-0.004828,-0.001276,-0.192988,-0.642212,0.089743,-0.736387
10914,NaN,13.207112,-1.727922,3.762542,2.764530,2.418564,3.531872,2.516955,0.252044,0.187150,-1.030029,-0.247070,0.135986,0.132135,-0.017626,0.037239,0.999920,0.012584,0.001260,0.000936,-0.184185,-0.643532,0.080854,-0.738515
10915,NaN,6.925063,-4.948631,-6.394088,-4.818591,7.926407,-4.589703,2.110837,-0.348456,0.651615,-1.034668,-0.236572,0.148682,0.069522,-0.048582,-0.064336,0.999937,0.010554,-0.001742,0.003258,-0.174833,-0.646462,0.075483,-0.738798
10916,NaN,11.460352,-5.491295,-10.689906,-9.183026,10.390266,-0.676630,2.230249,-1.919056,0.788979,-1.030518,-0.225830,0.180420,0.115838,-0.053269,-0.106392,0.999884,0.011151,-0.009595,0.003945,-0.163813,-0.655092,0.071509,-0.734103
10917,NaN,10.374367,-3.173322,-8.648767,-7.969964,7.079980,-0.933789,3.564484,-2.465637,0.563785,-1.028564,-0.217529,0.216309,0.104890,-0.029906,-0.085743,0.999761,0.017821,-0.012327,0.002819,-0.149147,-0.666706,0.062286,-0.727585
10918,NaN,9.667095,-4.103077,-9.587125,-8.689344,7.688076,-1.593488,5.826767,-1.130225,0.594319,-1.025146,-0.187500,0.232910,0.097331,-0.037937,-0.096458,0.999555,0.029130,-0.005650,0.002971,-0.126976,-0.674687,0.043980,-0.725768
10919,NaN,11.020198,-9.613405,-6.200084,-4.560926,11.975648,-0.428899,5.063792,-0.228190,0.533695,-1.027344,-0.176758,0.247559,0.110528,-0.094231,-0.064277,0.999675,0.025316,-0.001141,0.002668,-0.107866,-0.678397,0.027547,-0.726212
10920,NaN,11.804444,-8.951598,-3.711350,-2.675521,10.789512,0.659825,1.837354,0.357806,0.368905,-1.027832,-0.166016,0.245361,0.118141,-0.088951,-0.038144,0.999955,0.009187,0.001789,0.001844,-0.100136,-0.678048,0.022076,-0.727830
10921,NaN,10.866118,-5.316538,-5.313351,-4.989217,7.330546,-0.017806,0.321071,0.598924,0.432733,-1.034180,-0.163818,0.237061,0.108616,-0.052845,-0.053544,0.999992,0.001605,0.002995,0.002164,-0.097536,-0.675980,0.022085,-0.730103
10922,NaN,12.529473,-2.241170,-5.284821,-5.688995,4.449652,1.925075,0.199962,0.589195,0.270733,-1.036621,-0.159668,0.232666,0.125168,-0.022189,-0.053239,0.999994,0.001000,0.002946,0.001354,-0.095695,-0.673957,0.022166,-0.732211
10923,NaN,11.993736,-2.826504,-1.114362,-1.458797,4.270332,1.707573,0.349390,-0.663477,-0.054697,-1.025879,-0.157471,0.245361,0.119966,-0.028279,-0.010795,0.999993,0.001747,-0.003317,-0.000273,-0.094642,-0.676559,0.021032,-0.729979
10924,NaN,11.845890,-0.985206,2.590273,2.031583,1.840329,2.040041,0.588651,-1.825789,-0.073595,-1.030029,-0.155518,0.264404,0.118212,-0.009974,0.026953,0.999954,0.002943,-0.009129,-0.000368,-0.092468,-0.683560,0.019699,-0.723745
10925,NaN,10.607919,0.078964,1.695541,1.241665,0.792735,0.828542,0.978610,-1.773860,-0.127850,-1.017578,-0.149170,0.287598,0.105924,0.000636,0.017899,0.999948,0.004893,-0.008869,-0.000639,-0.089405,-0.690413,0.016552,-0.717678
10926,NaN,9.454624,1.860326,1.605871,1.102868,-1.076754,-0.166376,1.165026,-1.573302,-0.052206,-1.021729,-0.144775,0.298096,0.094420,0.018482,0.016910,0.999952,0.005825,-0.007866,-0.000261,-0.085167,-0.696622,0.013089,-0.712245
10927,NaN,9.117133,4.164239,0.363897,-0.262065,-3.224953,-0.319354,1.253932,-1.525236,0.033783,-1.009033,-0.144775,0.314941,0.091132,0.041631,0.004595,0.999951,0.006270,-0.007626,0.000169,-0.080573,-0.702556,0.009402,-0.706990
10928,NaN,8.038621,4.933557,1.757815,1.222334,-4.290848,-1.319150,1.511720,-1.637031,0.084922,-1.002686,-0.136475,0.335938,0.080216,0.049232,0.018608,0.999938,0.007558,-0.008185,0.000425,-0.074623,-0.708968,0.005195,-0.701263
10929,NaN,7.783377,5.255228,3.567420,3.208678,-4.832159,-1.610637,1.858987,-1.928058,0.139844,-0.996582,-0.125732,0.361328,0.077445,0.052267,0.036909,0.999910,0.009295,-0.009640,0.000699,-0.067485,-0.716359,-0.000095,-0.694460
10930,NaN,8.093199,6.063986,2.491909,2.339727,-5.490529,-1.277216,2.012230,-1.950569,0.151877,-0.990479,-0.117188,0.386475,0.080634,0.060441,0.026315,0.999902,0.010061,-0.009753,0.000759,-0.059508,-0.723786,-0.005728,-0.687430
10931,NaN,8.352721,5.289377,0.679716,0.876678,-4.561203,-1.058917,2.046080,-1.863240,0.135009,-0.982178,-0.106445,0.399170,0.083420,0.052872,0.008116,0.999904,0.010230,-0.009316,0.000675,-0.051686,-0.730739,-0.011704,-0.680597
10932,NaN,8.338642,4.923177,0.053048,0.526239,-4.186584,-1.096964,1.792659,-1.930504,0.158934,-0.978271,-0.093750,0.422363,0.083334,0.049286,0.001777,0.999913,0.008963,-0.009652,0.000795,-0.044496,-0.737749,-0.016598,-0.673403
10933,NaN,8.077263,4.108189,1.082397,1.788095,-3.459377,-1.559070,1.348839,-2.072952,0.158615,-0.958984,-0.091797,0.441162,0.080620,0.041068,0.011937,0.999923,0.006744,-0.010364,0.000793,-0.039154,-0.744991,-0.020078,-0.665622
10934,NaN,7.592931,2.337298,2.315027,3.192649,-1.779834,-2.388995,1.052318,-2.031778,0.163848,-0.952881,-0.081055,0.466553,0.075669,0.023310,0.024043,0.999934,0.005261,-0.010159,0.000819,-0.034703,-0.751949,-0.022465,-0.657924
10935,NaN,7.022792,1.790814,3.848418,4.802537,-1.307194,-3.288804,0.880389,-2.070270,0.153734,-0.940186,-0.078857,0.485352,0.069810,0.017790,0.039287,0.999936,0.004402,-0.010351,0.000769,-0.031117,-0.758887,-0.024409,-0.650020
10936,NaN,7.739956,2.493919,3.887822,5.092450,-1.946982,-2.635253,0.592328,-1.771803,0.157809,-0.929688,-0.072510,0.495850,0.077031,0.024883,0.039635,0.999956,0.002962,-0.008859,0.000789,-0.028385,-0.764728,-0.025375,-0.643228
10937,NaN,8.917300,-0.419894,2.458485,4.020472,1.071292,-1.540768,0.875322,-1.779705,0.023691,-0.921143,-0.068359,0.517090,0.088950,-0.004298,0.025358,0.999951,0.004377,-0.008898,0.000118,-0.025186,-0.770547,-0.027831,-0.636277
10938,NaN,9.883415,0.183875,0.075857,2.005164,0.546575,-0.148289,1.118633,-1.299592,0.156303,-0.919434,-0.055420,0.525391,0.098825,0.001909,0.001411,0.999963,0.005593,-0.006498,0.000782,-0.020365,-0.774798,-0.030559,-0.631141
10939,NaN,11.747116,-1.207397,0.604131,2.987776,2.058261,1.441341,1.334841,-1.111748,0.220116,-0.908936,-0.047119,0.538086,0.117449,-0.011988,0.006614,0.999962,0.006674,-0.005559,0.001101,-0.014668,-0.778452,-0.033790,-0.626622
10940,NaN,12.257302,-2.895684,2.273973,4.747461,3.804997,1.447009,1.544210,-0.797342,0.192892,-0.917725,-0.040527,0.546387,0.122510,-0.029016,0.023004,0.999962,0.007721,-0.003987,0.000964,-0.007983,-0.781036,-0.037762,-0.623292
10941,NaN,11.584012,-4.114472,3.050881,5.305841,5.024994,0.532524,1.765768,-0.392512,0.128886,-0.909668,-0.025635,0.546387,0.115807,-0.041339,0.030372,0.999959,0.008829,-0.001963,0.000644,-0.000759,-0.782329,-0.042729,-0.621398
10942,NaN,11.016418,-4.298956,1.408042,3.511496,5.111836,0.354072,2.040440,-0.076409,-0.001048,-0.907715,-0.014893,0.543945,0.110159,-0.043131,0.013683,0.999948,0.010202,-0.000382,-0.000005,0.007444,-0.782478,-0.049023,-0.620701
10943,NaN,11.158020,-3.197704,0.954821,3.109973,4.017846,0.666936,2.314020,0.200634,-0.120134,-0.912598,0.002197,0.546143,0.111570,-0.032151,0.009065,0.999932,0.011570,0.001003,-0.000601,0.016174,-0.781693,-0.056648,-0.620874
10944,NaN,11.282329,-1.468764,1.420749,3.678620,2.386801,0.781496,2.686872,0.455195,-0.167976,-0.910645,0.012939,0.545898,0.112842,-0.014969,0.013751,0.999907,0.013434,0.002276,-0.000840,0.026554,-0.779867,-0.065558,-0.621936
10945,NaN,11.208855,-0.729788,1.731394,3.964090,1.742854,0.695209,3.036969,0.679825,-0.212043,-0.917725,0.030273,0.537354,0.112138,-0.007675,0.016818,0.999878,0.015184,0.003399,-0.001060,0.037956,-0.777193,-0.075715,-0.623537
10946,NaN,10.980728,-0.499002,2.026303,4.122082,1.605942,0.451763,3.200779,0.895273,-0.208497,-0.918213,0.049561,0.524658,0.109891,-0.005423,0.019687,0.999861,0.016003,0.004476,-0.001042,0.050364,-0.773507,-0.086287,-0.625864
10947,NaN,11.316450,1.110471,0.730853,3.154927,-0.139770,1.135160,3.215686,1.110363,-0.224772,-0.933594,0.064453,0.513916,0.113216,0.010865,0.006856,0.999855,0.016078,0.005552,-0.001124,0.062569,-0.769021,-0.096910,-0.628729
10948,NaN,12.001014,1.665565,-1.147509,1.510464,-1.052373,2.217482,3.316660,1.467415,-0.219990,-0.938477,0.079590,0.503174,0.119941,0.016721,-0.012078,0.999835,0.016582,0.007337,-0.001100,0.075620,-0.763012,-0.107682,-0.632850
10949,NaN,12.669057,0.786701,-0.540653,1.822810,-0.046154,2.760625,3.498296,1.772885,-0.253090,-0.947266,0.092529,0.475830,0.126647,0.007813,-0.006392,0.999807,0.017490,0.008864,-0.001265,0.089105,-0.755805,-0.119009,-0.637697
10950,NaN,12.840198,0.504161,0.799404,2.802379,0.591880,2.739384,3.622590,2.101628,-0.364591,-0.962891,0.114014,0.456543,0.128486,0.004678,0.006731,0.999779,0.018112,0.010507,-0.001823,0.103141,-0.746964,-0.130954,-0.643629
10951,NaN,12.852115,-1.241918,2.360925,3.346235,2.737500,2.580266,3.695008,2.925545,-0.372975,-0.976318,0.133301,0.424805,0.128822,-0.013069,0.021489,0.999721,0.018473,0.014626,-0.001865,0.117628,-0.735201,-0.142675,-0.652140
10952,NaN,11.957335,-0.699901,-1.544689,-0.580236,0.687075,2.230182,3.050246,3.262250,-0.379937,-0.993896,0.142090,0.393066,0.119286,-0.006969,-0.017501,0.999749,0.015250,0.016310,-0.001900,0.130183,-0.722147,-0.152044,-0.662147
10953,NaN,10.942438,-1.462014,-5.716605,-5.141653,-0.515818,1.493590,3.201544,3.384305,-0.405384,-1.000732,0.152832,0.363525,0.108405,-0.013903,-0.059233,0.999727,0.016006,0.016920,-0.002027,0.142939,-0.708364,-0.161845,-0.672008
10954,NaN,11.120697,-4.201628,-4.187934,-5.280965,2.306498,1.395823,3.198630,3.254753,-0.387250,-1.018066,0.159424,0.323242,0.110418,-0.041534,-0.044348,0.999738,0.015992,0.016272,-0.001936,0.155832,-0.694481,-0.171559,-0.681161
10955,NaN,11.014590,-4.910886,-1.390775,-3.520877,3.930496,1.119258,2.717939,3.140617,-0.291485,-1.031006,0.163818,0.289551,0.109831,-0.049058,-0.016301,0.999783,0.013589,0.015702,-0.001457,0.166938,-0.681279,-0.179326,-0.689807
10956,NaN,11.038346,-3.904834,-0.893660,-3.010835,3.049137,1.119500,2.719500,3.040801,-0.140355,-1.037842,0.174561,0.259766,0.110198,-0.038984,-0.011143,0.999792,0.013597,0.015203,-0.000702,0.178681,-0.668103,-0.186542,-0.697792
10957,NaN,12.699122,-2.475678,-0.760087,-2.631277,1.642154,2.770526,2.977814,2.953800,-0.021125,-1.046631,0.178955,0.219727,0.126854,-0.024635,-0.009843,0.999780,0.014888,0.014768,-0.000106,0.191272,-0.654983,-0.194305,-0.704739
10958,NaN,14.864552,-1.867699,-0.609366,-2.723903,0.896961,4.903629,2.825134,2.966635,0.035397,-1.053467,0.187744,0.185791,0.148534,-0.018541,-0.008560,0.999790,0.014125,0.014832,0.000177,0.203761,-0.641580,-0.201177,-0.711607
10959,NaN,16.652897,-1.662785,-0.048151,-2.736766,0.681646,6.682974,1.738439,3.101644,0.010313,-1.062012,0.189941,0.156250,0.166494,-0.016599,-0.003208,0.999842,0.008692,0.015507,0.000052,0.212465,-0.628695,-0.204120,-0.719677
10960,NaN,17.921933,0.957988,1.337879,-0.743502,-1.104963,8.134474,0.557143,3.310651,0.129124,-1.071045,0.198730,0.113770,0.179402,0.009664,0.010437,0.999859,0.002786,0.016552,0.000646,0.218294,-0.616101,-0.202067,-0.729340
10961,NaN,18.501537,-2.006225,7.835690,2.220122,4.597504,9.722416,0.838460,3.512783,0.186581,-1.064941,0.198730,0.082031,0.186371,-0.020208,0.075007,0.999837,0.004192,0.017563,0.000933,0.225074,-0.602477,-0.200665,-0.738983
10962,NaN,15.801011,-4.799252,7.201060,-0.000195,6.438002,7.012322,1.979478,2.946134,0.291400,-1.071533,0.207520,0.043945,0.159114,-0.048455,0.069194,0.999841,0.009897,0.014730,0.001457,0.235300,-0.589418,-0.203638,-0.745488
10963,NaN,12.955614,-4.075054,4.866162,-1.310819,4.583433,3.803181,2.738738,2.268695,0.412375,-1.076172,0.213867,0.029053,0.130177,-0.041130,0.046626,0.999840,0.013693,0.011343,0.002062,0.247185,-0.578079,-0.209912,-0.748773
10964,NaN,11.583049,-1.271586,3.683877,-0.503648,1.670405,2.283025,2.273779,1.704188,0.444347,-1.078613,0.218262,0.003662,0.116166,-0.012868,0.035704,0.999897,0.011369,0.008521,0.002222,0.257470,-0.569141,-0.214874,-0.750744
10965,NaN,11.180511,-0.378684,4.551706,0.599224,1.458138,2.161296,2.061703,1.661454,0.480188,-1.072510,0.227051,-0.015381,0.112187,-0.003980,0.044546,0.999909,0.010308,0.008307,0.002401,0.266906,-0.560730,-0.219071,-0.752563
10966,NaN,10.692087,-1.109546,4.487536,0.018003,1.906617,1.678600,1.081173,1.886351,0.717242,-1.072754,0.233398,-0.038574,0.107377,-0.010950,0.043805,0.999934,0.005406,0.009432,0.003586,0.274971,-0.552778,-0.218452,-0.755716
10967,NaN,10.704013,-0.945528,0.372646,-2.945520,-0.997839,0.479728,-0.265574,1.748996,0.574240,-1.064697,0.241943,-0.051514,0.107094,-0.009144,0.002802,0.999957,-0.001328,0.008745,0.002871,0.278311,-0.547153,-0.213430,-0.760010
10968,NaN,9.460984,0.056342,-3.097782,-4.542348,-3.838140,-1.828742,-0.586453,1.554281,0.379870,-1.058350,0.239990,-0.070557,0.094364,0.000651,-0.031714,0.999964,-0.002932,0.007771,0.001899,0.280080,-0.542299,-0.207838,-0.764376
10969,NaN,8.683899,0.879831,-4.823992,-5.105481,-5.451542,-3.204459,-0.201490,1.178074,0.130729,-1.064697,0.244385,-0.078857,0.086547,0.008806,-0.048759,0.999982,-0.001007,0.005890,0.000654,0.281259,-0.538221,-0.205042,-0.767574
10970,NaN,8.142945,-0.578107,-4.199853,-5.542303,-3.919741,-3.632356,0.113443,1.900090,-0.009671,-1.064941,0.244385,-0.104248,0.081025,-0.005761,-0.042773,0.999955,0.000567,0.009500,-0.000048,0.283707,-0.530626,-0.202666,-0.772576
10971,NaN,8.047975,-1.783366,-3.525516,-5.938405,-2.667081,-3.648557,-0.296165,2.863906,0.031540,-1.058838,0.246582,-0.134033,0.079967,-0.017874,-0.036376,0.999896,-0.001481,0.014319,0.000158,0.285923,-0.519976,-0.197337,-0.780340
10972,NaN,8.287349,-1.434111,-2.792468,-5.427380,-2.672483,-3.337495,-0.336895,3.577254,-0.099274,-1.054688,0.244629,-0.167725,0.082350,-0.014431,-0.029377,0.999839,-0.001684,0.017885,-0.000496,0.288354,-0.506252,-0.190968,-0.789995
10973,NaN,4.750036,-2.342568,1.223346,-2.252484,1.216745,-5.017766,-0.493646,3.065782,-0.038659,-1.056641,0.242432,-0.193115,0.047676,-0.023406,0.011561,0.999879,-0.002468,0.015328,-0.000193,0.289852,-0.494773,-0.184655,-0.798178
10974,NaN,4.243658,-3.139866,3.844560,-0.891648,3.370894,-4.291150,-0.921018,3.012127,0.657525,-1.038330,0.257568,-0.225098,0.043113,-0.031082,0.037943,0.999871,-0.004605,0.015060,0.003287,0.293135,-0.484590,-0.174783,-0.805416
10975,NaN,7.015802,-2.065598,5.430910,-0.217134,2.377535,-1.022157,-1.634327,3.523140,1.026299,-1.036621,0.272705,-0.254639,0.071205,-0.019854,0.053225,0.999798,-0.008171,0.017615,0.005131,0.296337,-0.473614,-0.160499,-0.813704
10976,NaN,6.517037,0.197478,2.389873,-0.774731,-1.144283,-3.007895,-2.716545,3.880610,0.864468,-1.028564,0.283447,-0.286621,0.065607,0.002571,0.022596,0.999710,-0.013581,0.019401,0.004322,0.296649,-0.462369,-0.141408,-0.823540
10977,NaN,3.878825,1.206737,3.140510,1.315631,-0.810105,-4.916221,-1.663930,2.182631,0.750964,-1.014404,0.300781,-0.299561,0.039081,0.012472,0.030877,0.999899,-0.008319,0.010913,0.003755,0.297418,-0.456351,-0.129551,-0.828555
10978,NaN,3.857614,2.112166,0.961586,0.353823,-2.685813,-6.217219,-1.429729,1.734723,0.619921,-1.012451,0.307129,-0.314209,0.038591,0.021308,0.009129,0.999932,-0.007148,0.008673,0.003100,0.298019,-0.451626,-0.119433,-0.832439
10979,NaN,3.036485,1.371813,0.929138,0.190844,-1.859866,-6.902444,-1.371321,1.328632,0.588859,-1.006348,0.315674,-0.318604,0.030385,0.013870,0.008995,0.999950,-0.006856,0.006643,0.002944,0.298164,-0.448484,-0.110392,-0.835329
10980,NaN,4.512063,0.142854,1.150272,-1.028624,-1.419238,-5.496468,-1.203683,0.798906,0.355950,-1.004395,0.322266,-0.327148,0.045163,0.001577,0.011313,0.999972,-0.006018,0.003994,0.001780,0.297563,-0.447096,-0.103192,-0.837205
10981,NaN,4.678858,-0.884996,1.671588,-1.356135,-0.471075,-4.974501,-0.803334,0.551593,0.159756,-1.000244,0.320068,-0.322998,0.046842,-0.008746,0.016622,0.999988,-0.004017,0.002758,0.000799,0.296729,-0.446076,-0.098632,-0.838594
10982,NaN,4.025656,-1.323347,1.725633,-1.298679,0.147436,-5.427869,-0.505850,0.302780,0.126311,-0.996094,0.324219,-0.327148,0.040291,-0.013164,0.017229,0.999995,-0.002529,0.001514,0.000632,0.296447,-0.445597,-0.095601,-0.839299
10983,NaN,3.861865,-1.301021,2.346248,-0.783878,0.449455,-5.198030,-0.149575,0.025042,0.080410,-0.996094,0.326416,-0.322998,0.038627,-0.012977,0.023467,1.000000,-0.000748,0.000125,0.000402,0.296476,-0.445769,-0.094739,-0.839295
10984,NaN,3.800562,-1.045670,3.278226,0.040602,0.662297,-4.728971,0.147096,-0.189015,0.029051,-1.000488,0.328613,-0.325195,0.037976,-0.010475,0.032810,0.999999,0.000735,-0.000945,0.000145,0.297002,-0.446344,-0.095392,-0.838729
10985,NaN,3.278000,-0.824351,3.957595,0.867373,1.006062,-4.780507,0.410253,-0.467609,-0.045422,-0.998291,0.330811,-0.316650,0.032685,-0.008332,0.039635,0.999995,0.002051,-0.002338,-0.000227,0.297516,-0.447689,-0.097889,-0.837542
10986,NaN,3.391506,-0.604491,4.261470,1.167066,0.949641,-4.543554,0.657496,-0.767300,-0.139544,-1.002197,0.317871,-0.316650,0.033747,-0.006209,0.042724,0.999987,0.003287,-0.003836,-0.000698,0.298194,-0.449834,-0.101917,-0.835669
10987,NaN,3.444484,-0.875475,4.091413,0.878158,1.128531,-4.585313,0.898519,-1.030946,-0.248815,-1.004150,0.315674,-0.301758,0.034222,-0.008982,0.041051,0.999976,0.004493,-0.005155,-0.001244,0.298655,-0.452681,-0.107747,-0.833232
10988,NaN,3.595908,-1.165241,4.357370,0.837332,1.494261,-4.304480,1.180922,-1.293131,-0.321104,-1.008057,0.307129,-0.297363,0.035658,-0.011968,0.043735,0.999960,0.005905,-0.006466,-0.001605,0.299459,-0.456090,-0.115146,-0.830089
10989,NaN,5.061752,-1.024708,5.092744,0.851827,1.258990,-2.720776,1.336058,-1.528795,-0.377419,-1.014404,0.300537,-0.286865,0.050207,-0.010684,0.051242,0.999947,0.006680,-0.007644,-0.001887,0.300056,-0.460211,-0.123815,-0.826343
10990,NaN,5.093472,-0.846918,5.839409,1.479274,1.603332,-2.329475,1.455196,-1.502852,-0.462131,-1.022461,0.294189,-0.273926,0.050474,-0.009013,0.058710,0.999943,0.007276,-0.007514,-0.002311,0.300732,-0.463894,-0.132965,-0.822607
10991,NaN,4.962557,-1.445096,6.613625,1.689152,2.665860,-2.034985,1.700237,-1.433415,-0.507448,-1.020264,0.287598,-0.263428,0.049113,-0.015140,0.066363,0.999935,0.008501,-0.007167,-0.002537,0.301628,-0.466884,-0.143263,-0.818850
10992,NaN,5.253265,0.344585,7.868050,3.541042,2.002816,-1.264722,1.726303,-1.407714,-0.547915,-1.021973,0.281250,-0.257080,0.051985,0.002622,0.079073,0.999934,0.008631,-0.007038,-0.002740,0.302583,-0.469577,-0.153551,-0.815085
10993,NaN,6.403096,-0.264933,9.368164,3.713377,3.109688,0.452135,1.807167,-1.523400,-0.760062,-1.031982,0.257568,-0.244141,0.063302,-0.003740,0.094135,0.999923,0.009036,-0.007617,-0.003800,0.302548,-0.472451,-0.164973,-0.811196
10994,NaN,6.945981,-0.520829,10.904490,4.342002,4.245462,1.612775,1.674546,-1.460032,-0.808177,-1.033936,0.255371,-0.235596,0.068637,-0.006402,0.109498,0.999930,0.008373,-0.007300,-0.004041,0.302214,-0.475071,-0.175705,-0.807528
10995,NaN,8.456778,-1.277561,13.113882,4.712920,5.885235,3.908353,1.484645,-1.241794,-0.734382,-1.035889,0.246826,-0.224854,0.083702,-0.014060,0.131559,0.999946,0.007423,-0.006209,-0.003672,0.301680,-0.477191,-0.185291,-0.804329
10996,NaN,9.921679,-0.518025,12.912129,4.535838,4.988629,5.018597,0.652174,-1.012884,-0.562364,-1.037842,0.242676,-0.220703,0.098545,-0.005880,0.129603,0.999978,0.003261,-0.005064,-0.002812,0.300273,-0.479648,-0.190611,-0.802148
10997,NaN,13.144340,0.094191,11.713069,3.034035,3.031981,7.262970,0.249290,-0.803454,-0.382395,-1.041748,0.233887,-0.216309,0.130973,0.000545,0.117658,0.999989,0.001246,-0.004017,-0.001912,0.298580,-0.482147,-0.193712,-0.800537
