// Start Time: Unknown
// Update Rate: 100.0Hz
// Filter Profile: human (46.1)
// Firmware Version: 4.4.0
PacketCounter,SampleTimeFine,Acc_X,Acc_Y,Acc_Z,FreeAcc_X,FreeAcc_Y,FreeAcc_Z,Gyr_X,Gyr_Y,Gyr_Z,Mag_X,Mag_Y,Mag_Z,VelInc_X,VelInc_Y,VelInc_Z,OriInc_q0,OriInc_q1,OriInc_q2,OriInc_q3,Quat_q0,Quat_q1,Quat_q2,Quat_q3
58319,NaN,13.093897,-0.399008,0.954879,0.000000,0.000000,3.321874,0.877424,1.678300,-0.360092,-0.953857,-0.011719,0.243896,0.131005,-0.004265,0.008431,0.999954,0.004387,0.008391,-0.001800,-0.046147,-0.680896,0.065461,-0.727988
58320,NaN,12.251762,-1.749112,2.605142,1.879734,2.370396,2.467251,1.220163,1.190612,-0.284547,-0.966797,-0.007568,0.237549,0.122644,-0.017821,0.025213,0.999963,0.006101,0.005953,-0.001423,0.012230,-0.687299,-0.040192,-0.725158
58321,NaN,11.929121,-2.339457,2.789163,1.892321,3.015710,2.140539,1.130274,0.724943,-0.270214,-0.960205,-0.013916,0.233398,0.119359,-0.023711,0.027326,0.999977,0.005651,0.003625,-0.001351,0.015280,-0.684531,-0.045174,-0.727422
58322,NaN,12.010979,-2.181366,1.723771,0.740365,2.794187,2.172171,0.632185,0.645289,-0.347563,-0.960205,-0.011719,0.224854,0.120126,-0.022076,0.016781,0.999988,0.003161,0.003226,-0.001738,0.016973,-0.682214,-0.047804,-0.729390
58323,NaN,12.662059,-1.257424,0.950448,-0.113455,1.874367,2.808088,0.086488,1.156722,-0.462133,-0.966309,-0.022461,0.214600,0.126643,-0.012871,0.008767,0.999981,0.000432,0.005784,-0.002311,0.015858,-0.677865,-0.049597,-0.733340
58324,NaN,12.136790,-1.465775,-0.052898,-1.275216,1.993678,2.180960,-0.832262,1.925702,-0.535710,-0.968506,-0.024414,0.193359,0.121316,-0.014988,-0.001635,0.999941,-0.004161,0.009628,-0.002678,0.010837,-0.670539,-0.046485,-0.740337
58325,NaN,10.317939,-0.685862,-0.739161,-1.943634,1.128211,0.307628,-1.510115,2.405536,-0.657432,-0.968262,-0.039307,0.168213,0.103058,-0.007259,-0.008578,0.999894,-0.007550,0.012027,-0.003287,0.003898,-0.661492,-0.042964,-0.748710
58326,NaN,10.045992,-1.307581,-0.232408,-1.659512,1.809136,0.018557,-1.323332,2.585488,-0.731272,-0.972168,-0.050049,0.146973,0.100371,-0.013464,-0.003534,0.999888,-0.006616,0.012927,-0.003656,-0.004089,-0.652349,-0.037073,-0.757001
58327,NaN,7.457547,-1.223054,0.287849,-0.981245,1.643066,-2.496435,-1.519031,3.056644,-0.235922,-0.980713,-0.050049,0.115479,0.074594,-0.012302,0.001832,0.999854,-0.007595,0.015282,-0.001180,-0.009369,-0.640610,-0.032150,-0.767136
58328,NaN,8.257356,-0.997680,-1.833729,-3.363437,1.410329,-2.116161,-2.840601,2.696438,-0.028235,-0.978516,-0.056396,0.087891,0.082316,-0.010258,-0.019304,0.999808,-0.014202,0.013481,-0.000141,-0.021052,-0.631185,-0.015957,-0.775182
58329,NaN,8.209586,0.972596,-2.927244,-4.633702,-0.484473,-2.382925,-3.205921,2.156306,-0.039490,-0.982910,-0.060547,0.066895,0.081775,0.009230,-0.030306,0.999813,-0.016029,0.010781,-0.000197,-0.031146,-0.622370,-0.003880,-0.782094
58330,NaN,8.235525,2.158711,-2.132216,-4.106970,-1.606717,-2.224884,-2.783909,2.618976,0.334613,-0.985352,-0.056152,0.035156,0.082028,0.021415,-0.022697,0.999816,-0.013919,0.013094,0.001673,-0.042043,-0.614204,0.013189,-0.787916
58331,NaN,10.575065,2.070634,-3.222047,-6.002133,-1.261595,-0.385483,-2.279928,2.935540,0.189703,-0.989502,-0.056152,0.005615,0.105241,0.020425,-0.034002,0.999827,-0.011399,0.014677,0.000948,-0.048483,-0.602042,0.022133,-0.796684
58332,NaN,9.903132,1.001930,-0.778250,-3.582821,-0.371994,-0.501560,-1.143854,3.247059,-0.411764,-0.985107,-0.071045,-0.023926,0.098907,0.009765,-0.009445,0.999850,-0.005719,0.016234,-0.002059,-0.055953,-0.593035,0.026429,-0.802795
58333,NaN,8.044370,-1.105605,-0.949302,-3.225170,1.707562,-2.497550,-0.723235,3.544470,-0.478639,-0.987305,-0.070801,-0.062012,0.080232,-0.011286,-0.010876,0.999834,-0.003616,0.017721,-0.002393,-0.060478,-0.578571,0.026916,-0.812941
58334,NaN,5.690540,-0.989082,0.370193,-1.373174,1.340726,-4.352680,-0.831734,3.323028,-0.201367,-0.985352,-0.072998,-0.087402,0.056947,-0.009935,0.002797,0.999853,-0.004158,0.016614,-0.001007,-0.067528,-0.569542,0.031334,-0.818584
58335,NaN,5.115630,-1.670412,1.085860,-0.556005,1.897139,-4.691201,-1.156579,2.575695,0.030245,-0.983398,-0.070557,-0.112793,0.051294,-0.016636,0.010295,0.999900,-0.005783,0.012878,0.000151,-0.071095,-0.558549,0.035281,-0.825666
58336,NaN,5.207925,-1.375655,1.500434,-0.292690,1.529485,-4.442396,-1.156729,2.370951,0.320033,-0.981201,-0.072754,-0.131836,0.052275,-0.013588,0.014464,0.999912,-0.005783,0.011854,0.001600,-0.078841,-0.552428,0.046049,-0.828545
58337,NaN,5.742311,-0.744435,0.193108,-1.908479,1.156911,-4.466303,-1.461856,2.097136,0.342918,-0.977295,-0.066162,-0.150879,0.057452,-0.007334,0.001383,0.999917,-0.007309,0.010485,0.001715,-0.081935,-0.543039,0.052222,-0.834067
58338,NaN,5.720050,-0.124944,-1.007553,-3.132131,0.805076,-4.986679,-1.411233,1.913470,0.131134,-0.977295,-0.068359,-0.174072,0.057102,-0.001286,-0.010613,0.999929,-0.007056,0.009567,0.000656,-0.092881,-0.537980,0.065170,-0.835287
58339,NaN,4.786059,-1.147847,0.637088,-1.148186,1.399958,-5.191971,-0.826308,1.894477,-0.050078,-0.971191,-0.063965,-0.187012,0.047916,-0.011465,0.005965,0.999947,-0.004131,0.009472,-0.000250,-0.095925,-0.529672,0.067603,-0.840045
58340,NaN,4.459426,-2.178672,1.395275,-0.083005,2.194987,-5.148500,-0.679056,1.748631,-0.038927,-0.966797,-0.068115,-0.203857,0.044710,-0.021749,0.013636,0.999956,-0.003395,0.008743,-0.000195,-0.106839,-0.525465,0.077759,-0.840491
58341,NaN,3.448474,-2.813628,1.929971,0.920975,2.584756,-5.812194,-0.605776,1.471207,-0.062214,-0.960449,-0.066162,-0.214355,0.034617,-0.028089,0.019131,0.999968,-0.003029,0.007356,-0.000311,-0.109260,-0.518966,0.079353,-0.844061
58342,NaN,3.466045,-2.501686,2.688984,1.540092,2.013776,-5.445164,-0.414447,0.924263,-0.041356,-0.960449,-0.068115,-0.220703,0.034779,-0.024968,0.026781,0.999987,-0.002072,0.004621,-0.000207,-0.121991,-0.517118,0.091762,-0.842192
58343,NaN,4.345878,-1.764635,3.225195,1.352490,1.266365,-4.430367,-0.095266,0.949556,-0.153196,-0.960449,-0.070312,-0.231201,0.043598,-0.017664,0.032054,0.999988,-0.000476,0.004748,-0.000766,-0.123316,-0.513126,0.091187,-0.844500
58344,NaN,4.540256,-2.123570,2.728282,0.998365,1.711962,-4.461123,0.201601,0.872780,-0.210222,-0.960449,-0.072510,-0.237549,0.045499,-0.021311,0.027063,0.999989,0.001008,0.004364,-0.001051,-0.136218,-0.510772,0.101421,-0.842775
58345,NaN,4.809308,-2.039157,3.019584,1.060108,1.607767,-4.094595,0.407039,0.569751,-0.199621,-0.956299,-0.072510,-0.239746,0.048158,-0.020501,0.030017,0.999993,0.002035,0.002849,-0.000998,-0.136308,-0.508747,0.098807,-0.844295
58346,NaN,5.325916,-1.936038,2.875737,0.728012,1.570288,-3.698153,0.481015,0.477172,-0.135460,-0.956299,-0.072510,-0.241943,0.053314,-0.019465,0.028583,0.999994,0.002405,0.002386,-0.000677,-0.148569,-0.507526,0.108936,-0.841711
58347,NaN,4.460453,-1.576789,3.883956,1.793251,0.813613,-4.017071,0.674391,0.182282,-0.185216,-0.951660,-0.081055,-0.246094,0.044625,-0.015940,0.038745,0.999993,0.003372,0.000911,-0.000926,-0.147736,-0.507357,0.105492,-0.842398
58348,NaN,4.648268,-0.672520,3.464634,1.062274,0.081193,-4.074460,0.610190,-0.002711,-0.291320,-0.949463,-0.083008,-0.239746,0.046472,-0.006899,0.034626,0.999994,0.003051,-0.000014,-0.001457,-0.159422,-0.507753,0.114433,-0.838855
58349,NaN,4.375559,0.139213,4.039101,1.356840,-0.878556,-4.079783,0.687705,-0.202781,-0.343716,-0.949219,-0.091797,-0.239746,0.043717,0.001178,0.040440,0.999992,0.003439,-0.001014,-0.001719,-0.159000,-0.509344,0.110837,-0.838453
58350,NaN,4.097419,0.823598,4.459451,1.554568,-1.746282,-4.165790,0.613349,-0.411154,-0.409109,-0.945068,-0.089600,-0.233398,0.040899,0.008015,0.044703,0.999991,0.003067,-0.002056,-0.002046,-0.168635,-0.511173,0.117058,-0.834603
58351,NaN,5.061174,0.970221,4.296003,0.995970,-1.631734,-3.381690,0.494839,-0.246065,-0.504721,-0.950928,-0.102539,-0.229004,0.050583,0.009468,0.043046,0.999993,0.002474,-0.001230,-0.002524,-0.169331,-0.512908,0.113910,-0.833832
58352,NaN,3.276839,0.952431,5.892472,3.046335,-2.528982,-4.272836,0.360360,-0.401172,-0.481264,-0.944580,-0.106689,-0.224609,0.032673,0.009339,0.059007,0.999993,0.001802,-0.002006,-0.002406,-0.176139,-0.514585,0.117028,-0.830953
58353,NaN,3.663385,1.452186,6.321100,3.069989,-3.062085,-3.755941,0.100424,-0.596175,-0.506451,-0.948486,-0.113281,-0.218262,0.036482,0.014398,0.063327,0.999992,0.000502,-0.002981,-0.002532,-0.177634,-0.517442,0.115832,-0.829025
58354,NaN,4.772291,1.544950,7.426986,3.508500,-3.380928,-2.290641,-0.123828,-0.762364,-0.523170,-0.942139,-0.113281,-0.211914,0.047480,0.015371,0.074442,0.999989,-0.000619,-0.003812,-0.002616,-0.181861,-0.519785,0.116872,-0.826493
58355,NaN,6.017101,1.822169,9.124486,4.349281,-4.077517,-0.472505,-0.372252,-0.919616,-0.574939,-0.942139,-0.115479,-0.205566,0.059803,0.018220,0.091486,0.999984,-0.001861,-0.004598,-0.002875,-0.184664,-0.523574,0.117750,-0.823349
58356,NaN,8.055124,1.549349,10.604972,4.965345,-3.993328,1.983431,-0.830147,-0.980324,-0.655480,-0.941650,-0.126221,-0.195068,0.080082,0.015672,0.106378,0.999974,-0.004151,-0.004902,-0.003277,-0.186226,-0.525996,0.116528,-0.821626
58357,NaN,10.465771,2.889893,11.451892,4.221662,-5.173856,4.485480,-1.288820,-0.670610,-0.678429,-0.941650,-0.126221,-0.188721,0.104372,0.029283,0.114681,0.999968,-0.006444,-0.003353,-0.003392,-0.192006,-0.527929,0.120659,-0.818454
58358,NaN,10.675725,2.865126,13.074930,5.535274,-5.649735,5.371953,-1.335205,-0.730046,-0.544122,-0.939453,-0.130371,-0.182373,0.106359,0.029235,0.130944,0.999967,-0.006676,-0.003650,-0.002721,-0.190937,-0.528410,0.117457,-0.818859
58359,NaN,13.612727,2.612115,11.598368,3.358347,-4.404109,7.391268,-1.367711,-0.487878,-0.513349,-0.935059,-0.130371,-0.186523,0.135912,0.026566,0.116135,0.999970,-0.006838,-0.002439,-0.002567,-0.196360,-0.529388,0.122162,-0.816252
58360,NaN,13.390883,1.976185,10.780480,3.041481,-3.350149,6.889568,-1.268607,-0.088299,-0.528945,-0.935059,-0.136963,-0.188477,0.133914,0.020091,0.107737,0.999976,-0.006343,-0.000441,-0.002645,-0.191710,-0.527081,0.114143,-0.820003
58361,NaN,12.934869,0.330399,9.831484,3.098268,-1.621600,6.057061,-1.032130,0.267297,-0.485407,-0.932617,-0.143311,-0.194824,0.129488,0.003497,0.098124,0.999983,-0.005161,0.001336,-0.002427,-0.196569,-0.525263,0.116838,-0.819639
58362,NaN,11.754902,0.030198,10.704571,4.254396,-1.639960,5.418073,-0.717069,0.686795,-0.440572,-0.924316,-0.141113,-0.199219,0.117917,0.000425,0.106640,0.999985,-0.003585,0.003434,-0.002203,-0.190744,-0.519954,0.106385,-0.825800
58363,NaN,10.436515,-1.130947,11.616173,5.891548,-1.159394,4.646881,-0.347442,0.959565,-0.394869,-0.922119,-0.143311,-0.213867,0.104899,-0.011315,0.115679,0.999985,-0.001737,0.004798,-0.001974,-0.193786,-0.515863,0.105876,-0.827721
58364,NaN,9.020067,-3.219797,11.944780,7.374516,0.733678,3.584418,-0.002754,1.141808,-0.377640,-0.917725,-0.153809,-0.220215,0.090820,-0.032367,0.118931,0.999982,-0.000014,0.005709,-0.001888,-0.185791,-0.508615,0.092838,-0.835568
58365,NaN,7.527955,-4.562273,11.443682,8.012179,1.899664,2.046347,0.072167,1.139077,-0.324233,-0.915283,-0.158203,-0.228760,0.075855,-0.045787,0.113989,0.999982,0.000361,0.005695,-0.001621,-0.187487,-0.504065,0.090652,-0.838182
58366,NaN,6.241128,-5.102715,9.531643,6.987374,3.039105,0.075768,-0.059803,0.783845,-0.317999,-0.913330,-0.160400,-0.232910,0.062703,-0.051098,0.095086,0.999991,-0.000299,0.003919,-0.001590,-0.181998,-0.497099,0.082058,-0.844415
58367,NaN,5.407349,-5.899186,7.365931,5.876964,4.295319,-1.731334,-0.273111,0.354114,-0.269218,-0.911133,-0.158203,-0.237061,0.054125,-0.058964,0.073644,0.999997,-0.001366,0.001771,-0.001346,-0.183959,-0.495464,0.082219,-0.844935
58368,NaN,5.327268,-6.425705,5.542711,4.527645,5.401442,-2.691187,-0.545848,-0.103633,-0.186750,-0.904785,-0.160400,-0.230713,0.053184,-0.064155,0.055630,0.999996,-0.002729,-0.000518,-0.000934,-0.182053,-0.491107,0.081014,-0.848002
58369,NaN,6.946413,-6.721964,4.885887,3.436500,6.201818,-1.625110,-0.804331,-0.507952,-0.073581,-0.904785,-0.162354,-0.232910,0.069315,-0.067047,0.049305,0.999989,-0.004022,-0.002540,-0.000368,-0.184132,-0.492552,0.084705,-0.846352
58370,NaN,8.858101,-5.652360,4.112892,1.538072,5.823016,-0.270327,-0.809639,-0.724089,0.030121,-0.909180,-0.156006,-0.224365,0.088439,-0.056342,0.041678,0.999985,-0.004048,-0.003620,0.000151,-0.186498,-0.490315,0.091058,-0.846474
58371,NaN,9.020710,-5.134996,3.978628,1.234963,5.367418,-0.156826,-0.397744,-0.850796,-0.017712,-0.904785,-0.158203,-0.220215,0.090032,-0.051278,0.040272,0.999989,-0.001989,-0.004254,-0.000089,-0.187159,-0.493547,0.093490,-0.844181
58372,NaN,10.655240,-3.726179,3.927559,-0.053955,4.375719,1.309061,0.077771,-1.029545,-0.101118,-0.906494,-0.164795,-0.205322,0.106330,-0.037331,0.039809,0.999987,0.000389,-0.005148,-0.000506,-0.191136,-0.493652,0.099898,-0.842493
58373,NaN,13.900127,-3.373578,4.484570,-1.049931,4.547119,4.432484,0.338751,-1.187441,-0.155595,-0.908691,-0.164795,-0.194824,0.138706,-0.033921,0.045612,0.999981,0.001694,-0.005937,-0.000778,-0.190359,-0.499046,0.099219,-0.839567
58374,NaN,16.590007,-0.873389,3.765404,-3.726125,3.064083,6.524189,0.386623,-1.158938,-0.143605,-0.902100,-0.173340,-0.186279,0.165672,-0.008927,0.038597,0.999981,0.001933,-0.005795,-0.000718,-0.196055,-0.500365,0.106902,-0.836522
58375,NaN,18.816095,0.109204,4.218736,-4.548603,2.457809,8.764753,0.448115,-0.985854,-0.122083,-0.901855,-0.179688,-0.175781,0.187951,0.000881,0.043116,0.999985,0.002241,-0.004929,-0.000610,-0.194914,-0.504985,0.105687,-0.834163
58376,NaN,18.985229,0.407820,7.220235,-2.317404,0.986527,10.346503,0.082541,-0.378622,0.000783,-0.899902,-0.173340,-0.175781,0.189715,0.004049,0.072563,0.999998,0.000413,-0.001893,0.000004,-0.202218,-0.503403,0.115123,-0.832130
58377,NaN,12.390129,0.952618,7.650608,0.473656,-1.133339,4.728457,-0.541564,0.636679,-0.039751,-0.897705,-0.175537,-0.186279,0.124146,0.009708,0.076085,0.999991,-0.002708,0.003183,-0.000199,-0.204111,-0.500224,0.116631,-0.833374
58378,NaN,2.918077,-0.675964,2.509020,1.032104,0.218048,-6.050461,-0.343899,1.138221,-0.112499,-0.897461,-0.186279,-0.190430,0.029319,-0.006733,0.024935,0.999982,-0.001719,0.005691,-0.000562,-0.212673,-0.492346,0.124493,-0.834786
58379,NaN,-4.697425,0.184126,-5.054784,-1.980812,0.830732,-16.372916,0.643158,0.328615,-0.241191,-0.893066,-0.188232,-0.186279,-0.047055,0.002060,-0.050464,0.999993,0.003216,0.001643,-0.001206,-0.212300,-0.491804,0.120864,-0.835733
58380,NaN,-1.764427,0.084234,-7.399687,-4.989179,2.636958,-14.914361,1.794753,-1.830601,-0.118371,-0.895020,-0.188477,-0.163086,-0.016965,0.001517,-0.074143,0.999918,0.008974,-0.009153,-0.000592,-0.213775,-0.498838,0.122563,-0.830926
58381,NaN,3.686969,0.497116,-2.256979,-3.480501,1.337700,-7.569902,1.023993,-2.853528,-0.006463,-0.898926,-0.194824,-0.135498,0.037187,0.005084,-0.022015,0.999885,0.005120,-0.014267,-0.000032,-0.209475,-0.511734,0.121328,-0.824335
58382,NaN,9.136417,4.248390,-1.422610,-6.585323,-1.153696,-2.142045,0.308649,-3.699735,0.031807,-0.896729,-0.197266,-0.101562,0.091599,0.042519,-0.012467,0.999828,0.001543,-0.018498,0.000159,-0.210744,-0.525514,0.130380,-0.813894
58383,NaN,15.613383,7.625123,-0.942632,-9.767021,-3.183412,4.231766,0.405100,-3.833293,-0.193053,-0.902832,-0.197266,-0.067627,0.156348,0.076115,-0.006277,0.999814,0.002025,-0.019165,-0.000965,-0.207928,-0.541567,0.132239,-0.803732
58384,NaN,16.512553,6.313070,-2.271689,-10.047838,-1.435833,4.837479,1.104538,-3.230532,-0.589152,-0.889893,-0.205811,-0.042236,0.165645,0.062758,-0.019697,0.999850,0.005522,-0.016152,-0.002946,-0.208235,-0.555314,0.134037,-0.793913
58385,NaN,13.492507,1.862629,-3.161869,-7.342643,2.165044,1.887673,1.241806,-2.783632,-0.654628,-0.887207,-0.214600,-0.008545,0.135407,0.018372,-0.029622,0.999879,0.006209,-0.013918,-0.003273,-0.205495,-0.568028,0.130172,-0.786239
58386,NaN,11.537191,-1.153534,-0.194442,-2.548462,3.073038,1.074400,0.916933,-2.776044,-0.578852,-0.887207,-0.214600,0.014893,0.115351,-0.011865,-0.000397,0.999889,0.004584,-0.013880,-0.002894,-0.206304,-0.580338,0.131909,-0.776689
58387,NaN,10.119238,-1.311558,2.184746,0.174814,1.831159,0.458674,0.651015,-2.957084,-0.406471,-0.882568,-0.218994,0.038086,0.100828,-0.013395,0.023297,0.999883,0.003255,-0.014785,-0.002032,-0.204019,-0.592693,0.131237,-0.768029
58388,NaN,8.409751,-0.510239,0.965009,-0.595418,1.285187,-1.451803,1.180663,-2.894579,-0.308655,-0.878418,-0.217041,0.065430,0.083938,-0.005294,0.010835,0.999877,0.005903,-0.014472,-0.001543,-0.203040,-0.605275,0.133588,-0.758005
58389,NaN,6.816699,-2.244870,-2.222572,-2.068778,3.932438,-3.754594,1.195214,-2.631018,-0.072814,-0.876221,-0.217041,0.088867,0.068445,-0.022344,-0.021460,0.999896,0.005976,-0.013155,-0.000364,-0.197920,-0.616444,0.131495,-0.750688
58390,NaN,8.522302,-2.527973,-1.271095,-1.218294,3.879014,-1.806267,1.942586,-2.279991,0.426230,-0.869873,-0.208496,0.107666,0.085416,-0.024979,-0.011982,0.999886,0.009713,-0.011400,0.002131,-0.192318,-0.626698,0.133290,-0.743302
58391,NaN,8.677592,-3.100277,2.000612,1.964768,2.905578,-1.059863,3.136463,-1.570545,0.691200,-0.874268,-0.199951,0.133057,0.086725,-0.031019,0.020201,0.999840,0.015681,-0.007852,0.003456,-0.178844,-0.634989,0.125289,-0.741017
58392,NaN,7.220051,-3.759318,2.610896,3.048006,3.024298,-2.420695,3.626176,-1.546332,0.924714,-0.870361,-0.185059,0.154053,0.072174,-0.037731,0.025984,0.999795,0.018130,-0.007731,0.004623,-0.166775,-0.643253,0.122586,-0.737146
58393,NaN,7.065938,-2.823266,1.058917,1.274521,2.758230,-2.756691,3.410300,-1.695668,1.241152,-0.866943,-0.159424,0.172852,0.070743,-0.027976,0.010710,0.999799,0.017050,-0.008478,0.006205,-0.150161,-0.651456,0.115399,-0.734670
58394,NaN,7.673167,-0.991172,-1.063440,-1.374251,1.745115,-2.325760,3.257964,-1.787557,1.433081,-0.867188,-0.148682,0.189697,0.076891,-0.009194,-0.010101,0.999802,0.016289,-0.008937,0.007165,-0.137184,-0.659258,0.116369,-0.730081
58395,NaN,10.267555,-0.123487,-0.765008,-1.570217,0.765361,0.334599,3.133739,-1.719390,1.231991,-0.861084,-0.129639,0.214844,0.102741,-0.000491,-0.006779,0.999821,0.015668,-0.008596,0.006160,-0.121333,-0.666848,0.110150,-0.726952
58396,NaN,9.172278,1.940548,-2.113775,-3.294449,-0.958903,-0.835634,2.046171,-1.706421,0.609555,-0.865479,-0.125244,0.227539,0.091837,0.019895,-0.020153,0.999907,0.010231,-0.008532,0.003048,-0.115039,-0.673712,0.112465,-0.721269
58397,NaN,7.866630,0.099042,-4.550739,-4.789103,1.373429,-2.211640,1.569715,-2.334708,0.732323,-0.846680,-0.114746,0.250732,0.079185,0.001632,-0.044574,0.999894,0.007848,-0.011673,0.003661,-0.105786,-0.682551,0.110602,-0.714633
58398,NaN,9.452974,1.588408,-0.815532,-1.611761,-1.348167,-0.425034,0.775516,-1.902402,0.678407,-0.844727,-0.106201,0.261230,0.094547,0.016234,-0.007194,0.999941,0.003878,-0.009512,0.003392,-0.102920,-0.689382,0.117225,-0.707402
58399,NaN,8.937176,1.431919,0.565295,-0.094507,-1.719158,-0.908932,0.419687,-1.498587,0.462769,-0.842529,-0.104004,0.278076,0.089292,0.014513,0.006353,0.999967,0.002098,-0.007493,0.002314,-0.098955,-0.694604,0.118103,-0.702698
58400,NaN,8.986205,1.320702,1.919634,1.353282,-2.150042,-0.883817,0.426247,-1.716002,0.464102,-0.833984,-0.102051,0.288574,0.089662,0.013373,0.019995,0.999958,0.002131,-0.008580,0.002320,-0.097346,-0.700637,0.123861,-0.695909
58401,NaN,9.972068,1.458726,2.018055,1.556131,-2.430067,0.052044,0.471065,-1.724016,0.396017,-0.823730,-0.093506,0.296875,0.099513,0.014736,0.021074,0.999958,0.002355,-0.008620,0.001980,-0.093246,-0.706591,0.124444,-0.690325
58402,NaN,10.355966,1.496804,1.819100,1.516593,-2.535274,0.388547,0.393490,-1.653075,0.247146,-0.823486,-0.095459,0.305420,0.103386,0.015059,0.019076,0.999963,0.001967,-0.008265,0.001236,-0.091692,-0.712362,0.128113,-0.683900
58403,NaN,10.290688,1.140652,1.837159,1.802621,-2.260373,0.297370,0.375691,-1.623030,0.098964,-0.815186,-0.089111,0.320068,0.102748,0.011422,0.019227,0.999965,0.001878,-0.008115,0.000495,-0.088973,-0.717996,0.127921,-0.678382
58404,NaN,9.683074,1.191171,2.232361,2.286692,-2.462011,-0.385516,0.324778,-1.602776,0.048363,-0.810791,-0.089355,0.332764,0.096645,0.011898,0.023118,0.999967,0.001624,-0.008014,0.000242,-0.087665,-0.723568,0.129834,-0.672240
58405,NaN,9.383912,1.016748,1.518698,1.778855,-2.102421,-0.657794,0.228585,-1.365335,0.079210,-0.802490,-0.087158,0.343262,0.093728,0.010187,0.015839,0.999976,0.001143,-0.006827,0.000396,-0.085683,-0.728189,0.129948,-0.667468
58406,NaN,9.126705,0.691395,1.872117,2.305851,-1.929960,-0.967531,0.428034,-1.208755,0.143203,-0.802734,-0.078613,0.349609,0.091147,0.006938,0.019287,0.999979,0.002140,-0.006044,0.000716,-0.083378,-0.732315,0.130640,-0.663096
58407,NaN,8.649157,-0.305588,1.664823,2.468881,-0.915192,-1.402036,0.749788,-1.230341,0.178411,-0.796387,-0.070068,0.357910,0.086390,-0.003043,0.017168,0.999974,0.003749,-0.006152,0.000892,-0.079235,-0.736570,0.129317,-0.659138
58408,NaN,8.720375,0.178620,1.552458,2.314889,-1.389416,-1.374855,0.894324,-1.053602,0.288908,-0.794434,-0.070068,0.366455,0.087118,0.001841,0.015992,0.999975,0.004472,-0.005268,0.001445,-0.074503,-0.740141,0.128304,-0.655880
58409,NaN,8.473244,0.229345,1.036235,1.864108,-1.310430,-1.582901,0.895856,-1.041785,0.341797,-0.786133,-0.059326,0.372803,0.084673,0.002390,0.010814,0.999975,0.004479,-0.005209,0.001709,-0.069397,-0.743653,0.127016,-0.652710
58410,NaN,8.466347,0.059480,1.199757,2.144292,-1.234384,-1.627365,0.767137,-1.098241,0.383763,-0.781982,-0.057129,0.378906,0.084595,0.000710,0.012465,0.999976,0.003836,-0.005491,0.001919,-0.064538,-0.747144,0.126255,-0.649361
58411,NaN,8.790346,0.065372,1.279081,2.346533,-1.345174,-1.351382,0.745603,-1.241720,0.451358,-0.779785,-0.052979,0.395752,0.087820,0.000803,0.013339,0.999971,0.003728,-0.006209,0.002257,-0.059502,-0.751110,0.125918,-0.645320
58412,NaN,9.743714,0.289342,1.530418,2.756541,-1.786917,-0.508248,0.481031,-1.365082,0.482410,-0.771729,-0.042236,0.395752,0.097322,0.003090,0.015976,0.999971,0.002405,-0.006825,0.002412,-0.055017,-0.755189,0.126082,-0.640911
58413,NaN,10.372354,0.393518,1.664833,3.074691,-2.067305,0.025123,0.421229,-1.500007,0.470148,-0.765381,-0.038086,0.402100,0.103585,0.004143,0.017434,0.999967,0.002106,-0.007500,0.002351,-0.050972,-0.759790,0.126916,-0.635620
58414,NaN,10.322910,-0.063273,1.602030,3.255012,-1.663352,-0.026529,0.392148,-1.535681,0.403727,-0.763672,-0.025146,0.414551,0.103103,-0.000457,0.016811,0.999967,0.001961,-0.007678,0.002019,-0.046706,-0.764303,0.126511,-0.630598
58415,NaN,10.272089,-0.425194,2.443563,4.270731,-1.561354,-0.273884,0.569428,-1.433839,0.359675,-0.755127,-0.025146,0.423096,0.102550,-0.004138,0.025159,0.999969,0.002847,-0.007169,0.001798,-0.042488,-0.768706,0.126421,-0.625543
58416,NaN,9.960425,-0.287273,2.767906,4.591239,-1.739348,-0.710601,0.712739,-1.130988,0.303818,-0.750977,-0.020996,0.431396,0.099450,-0.002822,0.028232,0.999977,0.003564,-0.005655,0.001519,-0.037369,-0.771920,0.124074,-0.622373
58417,NaN,9.659012,0.143733,2.034822,3.814799,-1.981057,-0.925624,0.852698,-0.774856,0.240234,-0.746826,-0.012451,0.431396,0.096509,0.001465,0.020728,0.999983,0.004263,-0.003874,0.001201,-0.032850,-0.774328,0.122491,-0.619946
58418,NaN,9.542805,1.189206,0.150234,1.807449,-2.596546,-0.730137,0.978477,-0.437819,0.177224,-0.743164,0.000488,0.433350,0.095414,0.011968,0.001770,0.999985,0.004892,-0.002189,0.000886,-0.027324,-0.775375,0.118227,-0.619733
58419,NaN,10.110509,2.134830,-1.201896,0.474280,-3.373146,0.016916,1.183626,-0.291759,0.099748,-0.740967,0.000488,0.431152,0.101112,0.021469,-0.011745,0.999981,0.005918,-0.001459,0.000499,-0.022253,-0.776367,0.114985,-0.619304
58420,NaN,10.423021,2.642258,-1.212586,0.477192,-3.923591,0.260478,1.297059,-0.244310,0.019341,-0.743408,0.009033,0.437500,0.104242,0.026510,-0.011827,0.999978,0.006485,-0.001222,0.000097,-0.015871,-0.776940,0.108461,-0.619958
58421,NaN,10.173076,2.359740,-0.762410,0.958514,-3.701426,-0.064782,1.132542,-0.164528,-0.047608,-0.741455,0.019775,0.435303,0.101743,0.023616,-0.007407,0.999984,0.005663,-0.000823,-0.000238,-0.011530,-0.777553,0.104777,-0.619920
58422,NaN,10.512515,3.032026,-0.403124,1.309088,-4.440985,0.108626,0.906846,-0.128389,-0.031150,-0.743652,0.021973,0.433105,0.105132,0.030322,-0.003826,0.999990,0.004534,-0.000642,-0.000156,-0.006624,-0.777778,0.098519,-0.620734
58423,NaN,10.778911,3.147874,-0.557522,1.233950,-4.577942,0.381653,0.634463,-0.130511,-0.037109,-0.739746,0.028320,0.433105,0.107799,0.031476,-0.005405,0.999995,0.003172,-0.000653,-0.000186,-0.004207,-0.778218,0.096410,-0.620535
58424,NaN,11.477225,2.556572,-0.457213,1.615770,-4.071921,1.108872,0.425924,-0.158891,-0.038358,-0.739746,0.030518,0.439453,0.114781,0.025553,-0.004427,0.999997,0.002130,-0.000794,-0.000192,-0.000882,-0.778553,0.090810,-0.620974
58425,NaN,12.416859,1.768032,-0.268855,2.138538,-3.452705,2.056685,0.414110,-0.181911,0.001850,-0.739746,0.030518,0.431152,0.124171,0.017687,-0.002539,0.999997,0.002071,-0.000910,0.000009,0.000818,-0.779116,0.089533,-0.620452
58426,NaN,12.891194,0.488898,0.890878,3.568438,-2.324627,2.397056,0.520828,-0.254701,0.080440,-0.746338,0.036865,0.433105,0.128898,0.004917,0.009086,0.999996,0.002604,-0.001274,0.000402,0.005124,-0.779681,0.083559,-0.620556
58427,NaN,12.541733,-0.758839,2.294758,5.038253,-1.189126,1.863729,0.550549,-0.286253,0.143472,-0.744385,0.043213,0.433105,0.125390,-0.007562,0.023106,0.999995,0.002753,-0.001431,0.000717,0.007835,-0.780491,0.082403,-0.619663
58428,NaN,12.385703,-0.630918,2.688910,5.382692,-1.248931,1.611002,0.626030,-0.226528,0.167800,-0.740234,0.045410,0.430908,0.123832,-0.006290,0.027010,0.999994,0.003130,-0.001133,0.000839,0.012856,-0.780791,0.076354,-0.619976
58429,NaN,12.498171,0.865876,2.367017,4.958489,-2.722526,1.613511,0.737019,-0.072007,0.150347,-0.742676,0.062500,0.432861,0.124967,0.008665,0.023747,0.999993,0.003685,-0.000360,0.000752,0.016227,-0.780904,0.074652,-0.619962
58430,NaN,13.090822,3.274933,1.256709,3.811928,-5.036817,2.177883,0.974155,0.133404,0.091139,-0.749268,0.066895,0.422363,0.130902,0.032748,0.012639,0.999988,0.004871,0.000667,0.000456,0.022318,-0.779921,0.067106,-0.621870
58431,NaN,14.031509,3.320280,1.628467,4.383509,-5.214098,2.999705,1.156475,0.266413,-0.020786,-0.749512,0.073242,0.422363,0.140340,0.033094,0.016289,0.999982,0.005782,0.001332,-0.000104,0.026673,-0.778956,0.063458,-0.623289
58432,NaN,13.913102,2.143006,3.176448,5.930567,-3.948247,2.737052,0.759131,0.531680,-0.122321,-0.753906,0.077637,0.420166,0.139228,0.021225,0.031475,0.999989,0.003796,0.002658,-0.000612,0.031450,-0.776704,0.055069,-0.626666
58433,NaN,13.564928,2.641453,2.067674,4.680478,-4.342052,2.617058,0.142616,0.767435,-0.205166,-0.756104,0.077637,0.411621,0.135754,0.026261,0.020175,0.999992,0.000713,0.003837,-0.001026,0.031149,-0.774326,0.053946,-0.629714
58434,NaN,13.647754,3.398942,0.597831,3.128358,-4.954936,2.986974,-0.064346,1.095316,-0.268830,-0.762451,0.077637,0.401123,0.136553,0.033808,0.005220,0.999984,-0.000322,0.005477,-0.001344,0.032394,-0.770291,0.047221,-0.635116
58435,NaN,14.358009,4.221821,-1.183372,1.317707,-5.787722,3.976396,-0.420293,1.281814,-0.366484,-0.775146,0.073486,0.394775,0.143577,0.041929,-0.012842,0.999976,-0.002101,0.006409,-0.001832,0.029308,-0.766356,0.047351,-0.639999
58436,NaN,14.295762,3.751079,-1.340262,0.977816,-5.171095,4.062970,-0.757683,1.514379,-0.457508,-0.781494,0.069092,0.380127,0.142935,0.037130,-0.014626,0.999962,-0.003788,0.007572,-0.002288,0.027538,-0.761015,0.041670,-0.646809
58437,NaN,13.082724,2.067023,-0.634800,1.279804,-3.305832,2.964665,-0.998693,1.824921,-0.519533,-0.793945,0.060547,0.371826,0.130814,0.020294,-0.007644,0.999943,-0.004993,0.009124,-0.002598,0.021676,-0.755314,0.043172,-0.653580
58438,NaN,12.952015,-1.185140,-0.933842,0.783692,0.103437,3.202679,-1.021612,2.167640,-0.576758,-0.804443,0.054199,0.350830,0.129374,-0.012277,-0.010679,0.999924,-0.005108,0.010838,-0.002884,0.018663,-0.747705,0.037809,-0.662691
58439,NaN,12.026562,-4.125252,-2.039620,-0.600708,3.227463,2.638474,-0.883614,2.548974,-0.560910,-0.817139,0.050049,0.327637,0.119878,-0.041683,-0.021742,0.999905,-0.004418,0.012744,-0.002804,0.013017,-0.739376,0.038874,-0.672044
58440,NaN,11.267086,-6.859666,-2.613196,-1.522003,6.147909,2.049434,-0.343862,2.672699,-0.558117,-0.827881,0.045898,0.308594,0.112117,-0.068957,-0.027514,0.999905,-0.001719,0.013363,-0.002790,0.012327,-0.729708,0.032301,-0.682884
58441,NaN,10.498704,-7.228889,-2.267414,-1.487102,6.635997,1.203950,-0.065612,2.485852,-0.565588,-0.834229,0.041748,0.283203,0.104490,-0.072593,-0.023951,0.999919,-0.000328,0.012429,-0.002828,0.009753,-0.721255,0.030612,-0.691924
58442,NaN,11.164948,-6.299816,-3.107930,-2.661934,5.778658,1.742308,-0.206005,2.294104,-0.565857,-0.849121,0.041748,0.272705,0.111105,-0.063346,-0.032291,0.999930,-0.001030,0.011470,-0.002829,0.009019,-0.712611,0.025180,-0.701049
58443,NaN,13.015461,-5.698097,-2.004819,-1.808980,5.140436,3.460809,0.008067,2.200157,-0.496757,-0.855469,0.039551,0.253906,0.129781,-0.057303,-0.021480,0.999936,0.000040,0.011001,-0.002484,0.007029,-0.704914,0.023479,-0.708869
58444,NaN,14.275187,-4.728273,-0.392496,-0.609395,4.175491,4.625942,0.576582,2.361607,-0.457967,-0.866211,0.041748,0.228516,0.142582,-0.047595,-0.005746,0.999924,0.002883,0.011808,-0.002290,0.008889,-0.695818,0.016974,-0.717962
58445,NaN,15.161565,-4.065118,2.500890,1.851218,3.521940,5.575802,0.975592,2.562687,-0.372438,-0.870605,0.041992,0.211426,0.151842,-0.041049,0.022865,0.999904,0.004878,0.012813,-0.001862,0.010727,-0.686538,0.012289,-0.726911
58446,NaN,14.295196,-2.911447,4.172590,3.092500,2.515000,4.827448,1.293041,2.755926,-0.336950,-0.883545,0.046143,0.190430,0.143457,-0.029616,0.039561,0.999883,0.006465,0.013779,-0.001685,0.015105,-0.675661,0.004495,-0.737044
58447,NaN,14.148520,-1.823694,4.928746,3.456922,1.551823,4.796401,1.573659,2.527016,-0.403386,-0.890137,0.048340,0.169189,0.142054,-0.018901,0.047348,0.999887,0.007868,0.012635,-0.002017,0.018876,-0.666160,-0.002477,-0.745566
58448,NaN,13.135353,-1.783235,5.288040,3.513536,1.692850,3.915306,1.792342,2.351007,-0.278055,-0.892334,0.052734,0.145996,0.131936,-0.018479,0.051168,0.999890,0.008961,0.011755,-0.001390,0.024966,-0.656323,-0.011507,-0.753979
58449,NaN,12.243648,-1.014760,5.246611,3.299811,1.058087,3.088693,1.632873,2.243972,-0.399720,-0.896729,0.052979,0.129150,0.122993,-0.010813,0.051002,0.999902,0.008164,0.011219,-0.001999,0.028943,-0.647569,-0.018693,-0.761227
58450,NaN,12.691928,-1.197985,4.117683,1.765540,1.262936,3.406831,0.945152,2.114276,-0.377493,-0.898682,0.044434,0.112305,0.127322,-0.012410,0.039774,0.999931,0.004726,0.010571,-0.001887,0.031744,-0.638397,-0.024553,-0.768660
58451,NaN,12.568003,-1.297294,2.606156,-0.005445,1.281704,3.023930,-0.480298,2.483644,-0.357210,-0.903076,0.046631,0.089111,0.125968,-0.013138,0.024530,0.999918,-0.002401,0.012418,-0.001786,0.029140,-0.628829,-0.023451,-0.776643
58452,NaN,12.241197,-0.639887,-1.030303,-3.749673,0.402602,1.895815,-2.538921,2.322592,-0.517679,-0.911377,0.035889,0.067871,0.122265,-0.006858,-0.011638,0.999849,-0.012694,0.011612,-0.002588,0.020254,-0.619143,-0.015922,-0.784855
58453,NaN,9.852659,1.272335,-4.120083,-6.342445,-1.501613,-1.258251,-3.272144,2.111644,-0.639108,-0.909180,0.027344,0.051025,0.098121,0.011722,-0.042436,0.999805,-0.016360,0.010558,-0.003195,0.007781,-0.611014,-0.004843,-0.791567
58454,NaN,9.118970,2.583011,-4.459589,-6.713595,-2.641267,-2.219527,-3.200909,2.354296,-0.386539,-0.915283,0.020996,0.027832,0.090702,0.024925,-0.046069,0.999801,-0.016003,0.011771,-0.001933,-0.002668,-0.601020,0.005792,-0.799208
58455,NaN,8.853545,2.774056,-1.516296,-4.089727,-2.734385,-1.802175,-3.297684,2.495950,-0.355925,-0.919678,0.023193,0.008789,0.088382,0.027316,-0.016719,0.999785,-0.016487,0.012479,-0.001779,-0.014071,-0.590881,0.017865,-0.806438
58456,NaN,9.466822,3.649949,-1.539374,-4.625301,-3.499342,-1.347221,-3.674158,1.934706,-0.663208,-0.925781,0.010498,-0.016357,0.094629,0.035883,-0.016972,0.999779,-0.018369,0.009673,-0.003316,-0.026811,-0.582296,0.029454,-0.812000
58457,NaN,8.413881,2.930260,-2.249017,-5.188049,-2.589947,-2.685001,-2.595109,2.973671,-0.773414,-0.921631,0.008301,-0.043945,0.083900,0.028672,-0.024114,0.999798,-0.012975,0.014867,-0.003867,-0.037939,-0.569869,0.037333,-0.820010
58458,NaN,8.384684,0.919798,-2.550394,-5.516137,-0.433930,-2.954996,-1.459918,3.574828,-0.641576,-0.923828,0.001953,-0.069092,0.083401,0.008736,-0.027062,0.999808,-0.007299,0.017873,-0.003208,-0.044235,-0.554668,0.039475,-0.829957
58459,NaN,6.350804,-1.511726,-1.272942,-3.485156,1.864393,-4.463602,-0.800409,3.232331,-0.432386,-0.924072,0.006348,-0.100830,0.063259,-0.015308,-0.013692,0.999859,-0.004002,0.016161,-0.002162,-0.048882,-0.541082,0.040876,-0.838553
58460,NaN,6.657705,-2.207041,0.978290,-1.654101,2.334699,-3.334734,-1.096194,2.865441,-0.205917,-0.928223,0.000000,-0.124023,0.066687,-0.022088,0.008949,0.999882,-0.005481,0.014327,-0.001030,-0.052297,-0.528639,0.043107,-0.846137
58461,NaN,6.332261,-1.163228,0.686908,-2.062624,1.340230,-3.823538,-1.798857,2.703796,0.012043,-0.930420,0.004395,-0.149414,0.063409,-0.011571,0.006116,0.999868,-0.008994,0.013518,0.000060,-0.057577,-0.516654,0.050036,-0.852790
58462,NaN,5.757095,-0.178848,0.314849,-2.411800,0.375335,-4.586212,-1.918086,2.436420,-0.064189,-0.926514,0.008789,-0.166504,0.057603,-0.001781,0.002464,0.999880,-0.009590,0.012182,-0.000321,-0.057089,-0.505947,0.053247,-0.859025
58463,NaN,4.300105,-0.897629,-0.636432,-2.513133,1.184363,-6.351103,-1.479410,2.165377,-0.102038,-0.930664,0.006592,-0.179199,0.042925,-0.009047,-0.006763,0.999914,-0.007397,0.010827,-0.000510,-0.061842,-0.496204,0.058720,-0.864007
58464,NaN,3.918453,-2.675249,-0.492378,-1.988542,2.891964,-6.582251,-1.173745,1.922557,-0.165585,-0.924561,0.010986,-0.200439,0.039114,-0.026815,-0.005143,0.999936,-0.005869,0.009613,-0.000828,-0.060409,-0.487896,0.059311,-0.868787
58465,NaN,3.371458,-3.801081,-0.228694,-1.312082,3.947049,-6.885834,-1.361616,1.587725,-0.194660,-0.922607,0.010986,-0.219482,0.033659,-0.038059,-0.002295,0.999945,-0.006808,0.007938,-0.000973,-0.065044,-0.480614,0.064268,-0.872152
58466,NaN,4.063496,-3.634362,0.279573,-1.325337,3.723983,-6.047826,-1.352383,1.440814,-0.154939,-0.922607,0.010986,-0.219482,0.040627,-0.036356,0.002749,0.999951,-0.006762,0.007204,-0.000775,-0.064887,-0.474272,0.066723,-0.875445
58467,NaN,3.620809,-3.318112,1.001320,-0.552341,3.261766,-6.047244,-1.394230,1.223678,-0.251850,-0.922607,0.011230,-0.231934,0.036228,-0.033157,0.010023,0.999956,-0.006971,0.006118,-0.001259,-0.069701,-0.468523,0.071828,-0.877764
58468,NaN,3.440013,-2.326648,0.622138,-0.964081,2.344244,-6.464688,-1.306165,0.808162,-0.303600,-0.922852,0.017578,-0.240479,0.034390,-0.023278,0.006234,0.999969,-0.006531,0.004041,-0.001518,-0.071261,-0.464917,0.074936,-0.879295
58469,NaN,3.757220,-1.882891,0.643220,-1.209928,1.928041,-6.221805,-0.830232,0.583458,-0.315360,-0.922607,0.009033,-0.242676,0.037561,-0.018862,0.006401,0.999986,-0.004151,0.002917,-0.001577,-0.074796,-0.462163,0.077644,-0.880217
58470,NaN,4.008790,-1.845934,2.350677,-0.001927,1.559792,-5.061835,-0.432146,0.303084,-0.299431,-0.920410,0.011230,-0.242676,0.040096,-0.018469,0.023486,0.999995,-0.002161,0.001515,-0.001497,-0.074359,-0.461100,0.077342,-0.880838
58471,NaN,4.183214,-1.151661,2.454055,-0.161331,0.873373,-4.907672,-0.408074,0.186355,-0.283209,-0.924805,0.013428,-0.246826,0.041839,-0.011526,0.024525,0.999996,-0.002040,0.000932,-0.001416,-0.076620,-0.460232,0.078416,-0.881003
58472,NaN,4.359468,-0.675897,1.447351,-1.167536,0.627011,-5.362931,-0.243546,0.049341,-0.278344,-0.928955,0.011230,-0.246826,0.043589,-0.006802,0.014471,0.999998,-0.001218,0.000247,-0.001392,-0.075545,-0.460350,0.077468,-0.881119
58473,NaN,2.662367,-0.653692,2.193612,0.387331,0.354832,-6.341160,0.036796,-0.116537,-0.306735,-0.927002,0.013428,-0.242676,0.026601,-0.006582,0.021950,0.999999,0.000184,-0.000583,-0.001534,-0.076767,-0.460991,0.076643,-0.880749
58474,NaN,2.037464,-0.184766,2.836677,1.176745,-0.262128,-6.529606,0.105663,-0.783987,-0.227721,-0.933105,0.009033,-0.231934,0.020261,-0.001886,0.028445,0.999992,0.000528,-0.003920,-0.001139,-0.073725,-0.464939,0.074250,-0.879138
58475,NaN,3.067497,0.244456,2.996424,0.685364,-0.648664,-5.622562,0.180423,-1.156497,-0.210866,-0.932861,0.002441,-0.217041,0.030504,0.002385,0.030143,0.999982,0.000902,-0.005782,-0.001054,-0.073802,-0.470155,0.073392,-0.876425
58476,NaN,3.891760,0.222992,3.716476,0.893104,-0.711789,-4.549331,0.289034,-1.408530,-0.265194,-0.939209,0.004639,-0.206543,0.038657,0.002125,0.037441,0.999973,0.001445,-0.007043,-0.001326,-0.071043,-0.476785,0.070658,-0.873291
58477,NaN,4.478136,0.331608,4.749251,1.499950,-0.972878,-3.526058,0.341538,-1.609653,-0.325042,-0.947510,0.002441,-0.185303,0.044402,0.003162,0.047856,0.999965,0.001708,-0.008048,-0.001625,-0.071077,-0.484029,0.068961,-0.869430
58478,NaN,5.647993,0.811210,5.501872,1.557737,-1.493836,-2.185841,0.282698,-1.694120,-0.429528,-0.951660,-0.004150,-0.172607,0.056028,0.007913,0.055506,0.999961,0.001413,-0.008470,-0.002148,-0.068244,-0.491898,0.065426,-0.865505
58479,NaN,7.068497,0.697155,6.918840,2.198333,-1.541331,-0.267558,0.158742,-1.567790,-0.546675,-0.955566,-0.010498,-0.155762,0.070158,0.006724,0.069745,0.999965,0.000794,-0.007839,-0.002733,-0.069704,-0.498895,0.063927,-0.861486
58480,NaN,7.878527,0.682205,10.079528,4.677585,-2.000426,1.945213,0.095413,-1.614502,-0.600256,-0.955322,-0.017090,-0.138672,0.077988,0.006539,0.101430,0.999963,0.000477,-0.008072,-0.003001,-0.069145,-0.506195,0.061203,-0.857462
58481,NaN,9.833457,0.792565,12.330039,5.880375,-2.384487,4.647060,-0.218722,-1.724575,-0.602315,-0.961670,-0.019287,-0.128174,0.097290,0.007767,0.124134,0.999958,-0.001094,-0.008623,-0.003012,-0.071750,-0.513672,0.061210,-0.852787
58482,NaN,13.089980,0.952945,14.246414,6.254487,-2.692597,8.321313,-0.674880,-1.347586,-0.579744,-0.957031,-0.030029,-0.111084,0.129964,0.009634,0.143310,0.999967,-0.003374,-0.006738,-0.002899,-0.073410,-0.519344,0.061747,-0.849164
58483,NaN,15.349409,1.609412,14.708146,5.678298,-3.345409,10.462621,-0.727288,-0.574229,-0.411089,-0.965576,-0.025635,-0.102539,0.153104,0.016315,0.147462,0.999987,-0.003636,-0.002871,-0.002055,-0.076866,-0.521632,0.063978,-0.847289
58484,NaN,17.511606,0.273079,13.286701,3.771903,-1.646345,11.781979,-0.539079,0.048086,-0.308951,-0.963135,-0.031982,-0.113281,0.175152,0.002818,0.132817,0.999995,-0.002695,0.000240,-0.001545,-0.077734,-0.521189,0.064179,-0.847467
58485,NaN,17.134524,-1.190547,9.941859,1.236551,0.406030,9.990204,-0.421448,0.700732,-0.271695,-0.967529,-0.030029,-0.115234,0.171676,-0.011930,0.098843,0.999991,-0.002107,0.003504,-0.001358,-0.080208,-0.518135,0.064984,-0.849047
58486,NaN,14.689654,-2.577850,8.837788,1.486552,1.859065,7.359063,-0.361517,1.133996,-0.282743,-0.969482,-0.036377,-0.132080,0.147358,-0.025828,0.087590,0.999981,-0.001808,0.005670,-0.001414,-0.080892,-0.513085,0.064119,-0.852109
58487,NaN,12.065148,-3.029256,9.713727,3.342680,1.986900,5.483550,-0.411776,1.601647,-0.291865,-0.967285,-0.040527,-0.146973,0.121380,-0.030271,0.096230,0.999965,-0.002059,0.008008,-0.001459,-0.083703,-0.506166,0.064475,-0.855940
58488,NaN,9.870138,-3.423583,10.790905,5.132348,2.042053,4.153950,-0.351817,1.973125,-0.286588,-0.967529,-0.042725,-0.166016,0.099711,-0.034189,0.106989,0.999949,-0.001759,0.009865,-0.001433,-0.085864,-0.497342,0.064059,-0.860915
58489,NaN,7.624844,-3.552890,11.590878,6.685984,1.865466,2.714116,-0.231862,2.106911,-0.244917,-0.963135,-0.046875,-0.178711,0.077421,-0.035489,0.115138,0.999943,-0.001159,0.010534,-0.001225,-0.088165,-0.488219,0.063539,-0.865928
58490,NaN,5.793773,-3.620411,11.425529,7.255133,1.838192,1.196266,-0.152974,1.961783,-0.172741,-0.967285,-0.049072,-0.195557,0.059024,-0.036168,0.113708,0.999951,-0.000765,0.009809,-0.000864,-0.089762,-0.479256,0.062892,-0.870805
58491,NaN,6.119827,-3.332353,9.191260,5.008013,2.052310,0.372686,-0.251380,1.536937,-0.203446,-0.960938,-0.051025,-0.210205,0.061869,-0.033271,0.091481,0.999969,-0.001257,0.007685,-0.001017,-0.091731,-0.472496,0.062807,-0.874293
58492,NaN,5.603906,-3.254317,6.491976,2.954825,2.463260,-1.485559,-0.375847,0.948375,-0.221190,-0.967285,-0.053223,-0.216553,0.056310,-0.032484,0.064714,0.999986,-0.001879,0.004742,-0.001106,-0.093999,-0.467693,0.063692,-0.876567
58493,NaN,7.844745,-2.068209,6.971260,1.822598,1.432044,0.629691,-0.527862,0.013865,-0.053775,-0.971680,-0.046875,-0.210205,0.078447,-0.020519,0.069761,0.999996,-0.002639,0.000069,-0.000269,-0.095474,-0.467395,0.065873,-0.876406
58494,NaN,10.587521,-1.400017,7.935800,0.967459,0.799202,3.433310,-0.984642,-0.587950,0.167297,-0.969482,-0.051025,-0.208252,0.105653,-0.013520,0.079736,0.999983,-0.004923,-0.002940,0.000836,-0.096222,-0.468935,0.070726,-0.875122
58495,NaN,16.074277,-1.794671,6.555825,-2.940366,1.895858,7.285222,-1.177071,-0.772167,0.382595,-0.978027,-0.046875,-0.195557,0.160521,-0.017251,0.066281,0.999973,-0.005885,-0.003861,0.001913,-0.097033,-0.471595,0.077143,-0.873059
58496,NaN,21.186624,-2.211377,3.191550,-8.254960,3.400740,9.789294,-0.850751,-0.243635,0.556927,-0.973877,-0.040283,-0.197754,0.211887,-0.021387,0.032266,0.999986,-0.004254,-0.001218,0.002785,-0.097177,-0.471454,0.082881,-0.872593
58497,NaN,18.764933,-3.245890,-1.229041,-10.290428,5.116243,5.422123,0.050759,0.286000,0.404645,-0.975830,-0.046875,-0.199707,0.187697,-0.032076,-0.012567,0.999997,0.000254,0.001430,0.002023,-0.095411,-0.470056,0.083474,-0.873485
58498,NaN,10.588966,-3.740236,1.876750,-3.282519,4.125259,0.279142,0.268756,0.080291,0.100241,-0.976074,-0.042480,-0.203857,0.105916,-0.037374,0.018675,0.999999,0.001344,0.000401,0.000501,-0.096668,-0.469264,0.084046,-0.873718
58499,NaN,5.323230,-1.054510,5.511102,1.806945,0.191883,-2.294766,-0.137522,0.164624,-0.175613,-0.980225,-0.042480,-0.206055,0.053268,-0.010554,0.055074,0.999999,-0.000688,0.000823,-0.000878,-0.097827,-0.468547,0.084155,-0.873963
58500,NaN,0.375397,-1.208640,0.599384,0.584157,1.058230,-9.105648,0.366608,0.092304,-0.252512,-0.979980,-0.051025,-0.208008,0.003741,-0.012102,0.005970,0.999997,0.001833,0.000462,-0.001263,-0.100365,-0.467936,0.083483,-0.874067
58501,NaN,-5.162010,-1.611058,-1.163853,2.256062,1.325751,-14.685964,0.819848,-0.429830,-0.272978,-0.979736,-0.061768,-0.186768,-0.051617,-0.015992,-0.011815,0.999988,0.004099,-0.002149,-0.001365,-0.099459,-0.470329,0.079476,-0.873259
58502,NaN,-5.073555,-1.660827,-2.288941,1.256488,1.627882,-15.244875,1.026669,-1.748543,-0.212650,-0.981689,-0.066162,-0.176270,-0.050550,-0.016435,-0.023417,0.999948,0.005133,-0.008743,-0.001063,-0.100404,-0.477971,0.077460,-0.869174
58503,NaN,5.812061,2.000412,1.502147,-2.225360,-1.718354,-4.144330,0.751598,-2.851630,0.087326,-0.989990,-0.064209,-0.146729,0.057889,0.019971,0.015923,0.999891,0.003758,-0.014258,0.000437,-0.097113,-0.490649,0.075825,-0.862602
58504,NaN,12.684644,5.459575,2.493848,-5.434826,-4.698633,2.241242,0.179232,-3.168833,0.112278,-0.991943,-0.068604,-0.116943,0.126399,0.054643,0.026993,0.999874,0.000896,-0.015843,0.000561,-0.097934,-0.503762,0.078963,-0.854633
58505,NaN,20.277304,9.705028,0.003133,-11.726987,-7.672898,7.763689,0.560358,-2.784230,-0.161425,-0.987305,-0.074951,-0.087402,0.202822,0.096881,0.003126,0.999899,0.002802,-0.013921,-0.000807,-0.096104,-0.515941,0.077517,-0.847679
58506,NaN,16.773385,9.659353,-7.534363,-16.178766,-6.221270,1.629003,2.192606,-2.913087,-0.388737,-0.995605,-0.079346,-0.047119,0.168986,0.097066,-0.071826,0.999832,0.010962,-0.014565,-0.001944,-0.094372,-0.529000,0.070909,-0.840372
58507,NaN,14.027054,4.416779,-6.919443,-12.810716,-1.691581,0.042763,1.967339,-3.795772,-0.508045,-0.990967,-0.088135,-0.017578,0.141657,0.044469,-0.066078,0.999768,0.009836,-0.018977,-0.002540,-0.089935,-0.545929,0.063074,-0.830599
58508,NaN,11.527203,-0.510322,-0.316432,-4.418888,1.501939,0.743684,-0.009833,-3.956667,-0.484369,-0.990479,-0.094727,0.020508,0.115292,-0.005383,-0.000883,0.999801,-0.000049,-0.019782,-0.002422,-0.093529,-0.562286,0.065485,-0.819023
58509,NaN,9.798816,-0.726886,2.649458,-0.675348,0.883327,0.302478,-1.346287,-3.615087,-0.409204,-0.990479,-0.096924,0.043945,0.097472,-0.007282,0.028309,0.999812,-0.006731,-0.018074,-0.002046,-0.097788,-0.576483,0.071526,-0.808078
58510,NaN,6.794997,0.395668,2.776646,0.383981,-0.537811,-2.491547,-0.521621,-2.378331,0.053210,-0.983887,-0.099121,0.067139,0.067612,0.004049,0.028561,0.999926,-0.002608,-0.011891,0.000266,-0.101476,-0.585607,0.077341,-0.800491
58511,NaN,7.271080,0.228634,0.108202,-2.028348,0.241677,-2.829987,1.592131,-1.962890,0.477505,-0.983887,-0.092773,0.088135,0.072690,0.002447,0.001815,0.999917,0.007960,-0.009814,0.002387,-0.094136,-0.594033,0.073356,-0.795539
58512,NaN,7.303843,-0.214139,-1.519405,-3.327874,0.975071,-3.204159,3.168148,-1.904066,0.750694,-0.986328,-0.077881,0.113525,0.073186,-0.001633,-0.014526,0.999822,0.015840,-0.009520,0.003753,-0.084160,-0.602603,0.066269,-0.790819
58513,NaN,7.594402,-3.914812,-4.779201,-5.667490,5.096638,-3.669515,3.522414,-2.218466,0.979747,-0.984619,-0.058594,0.138672,0.076661,-0.037934,-0.047620,0.999771,0.017611,-0.011091,0.004898,-0.068920,-0.612389,0.056213,-0.785538
58514,NaN,8.667536,-5.060701,-3.288231,-4.328616,5.804059,-2.123688,3.612224,-2.272954,0.942319,-0.976562,-0.045898,0.159668,0.087284,-0.049604,-0.032795,0.999761,0.018060,-0.011364,0.004711,-0.054625,-0.622284,0.046674,-0.779488
58515,NaN,9.094724,-5.049518,-2.027400,-3.228261,5.457875,-1.320955,3.296671,-2.289442,0.803947,-0.972412,-0.032959,0.182861,0.091379,-0.049797,-0.020054,0.999791,0.016482,-0.011446,0.004019,-0.040689,-0.631784,0.036943,-0.773194
58516,NaN,8.408706,-3.509436,-0.588393,-1.808429,3.640855,-1.637053,2.809278,-2.142338,0.919262,-0.968506,-0.024414,0.208252,0.084307,-0.034628,-0.005470,0.999833,0.014046,-0.010711,0.004596,-0.029018,-0.640556,0.030643,-0.766751
58517,NaN,9.891037,-2.887575,1.367779,-0.113108,2.786021,0.200567,2.170094,-1.927895,0.767830,-0.973145,-0.009521,0.225098,0.098885,-0.028649,0.014319,0.999887,0.010850,-0.009639,0.003839,-0.018826,-0.648067,0.025060,-0.760938
58518,NaN,10.054605,-2.151685,1.286317,-0.117301,2.003921,0.353350,1.003556,-1.588454,0.441669,-0.962646,-0.003174,0.237549,0.100488,-0.021362,0.013554,0.999953,0.005018,-0.007942,0.002208,-0.015586,-0.654296,0.024806,-0.755671
58519,NaN,10.153874,-0.601003,-0.651312,-1.986998,0.529241,0.170102,0.566170,-1.618274,0.229075,-0.956055,-0.005371,0.252441,0.101594,-0.005877,-0.005708,0.999963,0.002831,-0.008091,0.001145,-0.012667,-0.660397,0.023542,-0.750440
58520,NaN,10.728959,0.594922,-3.246494,-4.512705,-0.553068,0.450365,0.160591,-1.833736,-0.134403,-0.951660,-0.007568,0.269287,0.107585,0.005903,-0.031475,0.999957,0.000803,-0.009169,-0.000672,-0.012925,-0.667496,0.023430,-0.744133
58521,NaN,6.334965,-0.354032,1.021766,0.380688,0.214534,-3.401002,0.561325,-1.174011,0.333625,-0.947510,-0.003418,0.277832,0.063294,-0.003464,0.010580,0.999977,0.002807,-0.005870,0.001668,-0.009672,-0.671842,0.022532,-0.740289
58522,NaN,7.304928,0.615959,1.046785,0.353259,-0.807913,-2.460221,0.457870,-1.212278,0.646811,-0.943359,0.005127,0.292480,0.072964,0.006371,0.010925,0.999974,0.002289,-0.006061,0.003234,-0.006064,-0.676493,0.023845,-0.736038
58523,NaN,8.206814,0.586001,2.548261,1.888783,-0.907582,-1.458304,0.578608,-1.658864,0.622272,-0.941406,0.009521,0.300781,0.081834,0.006040,0.026179,0.999957,0.002893,-0.008294,0.003111,-0.001619,-0.682508,0.023871,-0.730486
58524,NaN,9.075129,0.754479,1.774840,1.203887,-1.122518,-0.682207,0.634443,-1.640241,0.577166,-0.931152,0.020020,0.319824,0.090579,0.007748,0.018516,0.999957,0.003172,-0.008201,0.002886,0.002451,-0.688611,0.024237,-0.724721
58525,NaN,9.469285,2.004477,1.305422,0.821958,-2.415665,-0.385246,0.544542,-1.309591,0.517372,-0.926758,0.024414,0.330322,0.094552,0.020253,0.013729,0.999972,0.002723,-0.006548,0.002587,0.006360,-0.693264,0.024029,-0.720255
58526,NaN,9.339540,2.132133,1.083421,0.726348,-2.574593,-0.550421,0.333548,-1.098626,0.361032,-0.931152,0.026611,0.338623,0.093295,0.021471,0.011383,0.999982,0.001668,-0.005493,0.001805,0.008631,-0.697338,0.024619,-0.716268
58527,NaN,8.499656,1.464150,1.495553,1.282632,-1.906915,-1.366263,0.194643,-1.193632,0.327964,-0.922852,0.032959,0.349121,0.084881,0.014766,0.015477,0.999980,0.000973,-0.005968,0.001640,0.010632,-0.701547,0.025014,-0.712105
58528,NaN,8.802201,1.064173,1.601181,1.504341,-1.553829,-1.066468,0.327137,-1.273530,0.321452,-0.918457,0.032959,0.355469,0.087900,0.010756,0.016589,0.999977,0.001636,-0.006368,0.001607,0.012855,-0.706174,0.025334,-0.707469
58529,NaN,9.000011,0.474037,1.124740,1.155817,-0.991760,-0.858964,0.420891,-1.324130,0.327400,-0.910156,0.037109,0.368164,0.089915,0.004863,0.011853,0.999975,0.002104,-0.006621,0.001637,0.015667,-0.710768,0.024917,-0.702811
58530,NaN,9.064365,-0.087077,0.665743,0.833002,-0.461448,-0.773594,0.534704,-1.431601,0.374269,-0.908203,0.047852,0.378662,0.090594,-0.000720,0.007304,0.999969,0.002673,-0.007158,0.001871,0.018515,-0.715818,0.024985,-0.697594
58531,NaN,9.094935,-0.636199,0.471002,0.776335,0.052498,-0.716681,0.554336,-1.528303,0.425464,-0.895508,0.047852,0.391357,0.090923,-0.006183,0.005388,0.999965,0.002772,-0.007641,0.002127,0.022173,-0.721016,0.024433,-0.692133
58532,NaN,9.025367,-0.371395,0.119908,0.563213,-0.250252,-0.800037,0.524197,-1.598026,0.513336,-0.891357,0.058350,0.401855,0.090249,-0.003487,0.001911,0.999961,0.002621,-0.007990,0.002567,0.025577,-0.726512,0.024934,-0.686224
58533,NaN,9.049634,-0.598501,0.434038,1.024521,-0.071323,-0.791288,0.543001,-1.702366,0.570445,-0.885254,0.064697,0.422852,0.090472,-0.005740,0.005095,0.999956,0.002715,-0.008512,0.002852,0.029719,-0.732178,0.024926,-0.680008
58534,NaN,9.188817,-0.910737,0.585985,1.344357,0.178835,-0.660337,0.577188,-1.817272,0.591802,-0.874756,0.073242,0.435547,0.091856,-0.008854,0.006669,0.999950,0.002886,-0.009086,0.002959,0.033654,-0.738260,0.025466,-0.673194
58535,NaN,9.580933,-1.251670,0.779754,1.739384,0.441547,-0.286633,0.676218,-1.939576,0.584150,-0.864258,0.079590,0.452148,0.095764,-0.012265,0.008685,0.999943,0.003381,-0.009698,0.002921,0.038361,-0.744556,0.025019,-0.665987
58536,NaN,9.672903,-1.075352,1.424399,2.575158,0.227441,-0.322476,0.698495,-1.999538,0.529627,-0.855957,0.088135,0.467041,0.096609,-0.010549,0.015173,0.999940,0.003492,-0.009997,0.002648,0.042573,-0.751046,0.024895,-0.658405
58537,NaN,9.565652,-1.694724,1.883362,3.174250,0.841208,-0.478073,0.784610,-1.836914,0.450466,-0.843506,0.098877,0.475342,0.095517,-0.016808,0.019645,0.999948,0.003923,-0.009184,0.002252,0.047229,-0.756828,0.023612,-0.651478
58538,NaN,9.806222,-1.360942,2.240711,3.720849,0.478510,-0.380853,0.873407,-1.555333,0.400499,-0.839355,0.101074,0.485840,0.097911,-0.013513,0.023110,0.999958,0.004367,-0.007777,0.002002,0.051673,-0.761654,0.022493,-0.645528
58539,NaN,10.114203,-0.408740,1.552133,3.250131,-0.544684,-0.116711,0.921665,-1.241641,0.355997,-0.829102,0.115967,0.494141,0.101050,-0.003981,0.016130,0.999969,0.004608,-0.006208,0.001780,0.056470,-0.765357,0.020554,-0.640794
58540,NaN,10.618141,0.774473,0.379748,2.347736,-1.862658,0.410154,1.093872,-0.969907,0.285661,-0.820557,0.118164,0.498291,0.106150,0.007874,0.004355,0.999972,0.005469,-0.004849,0.001428,0.061351,-0.768117,0.018413,-0.637098
58541,NaN,11.115492,1.976207,-0.933613,1.324101,-3.223918,0.966139,1.392939,-0.771983,0.220975,-0.822998,0.128906,0.500488,0.111168,0.019947,-0.008769,0.999968,0.006965,-0.003860,0.001105,0.067474,-0.770101,0.014588,-0.634176
58542,NaN,11.371631,1.876769,-0.481535,1.910267,-3.141960,1.121037,1.636899,-0.533970,0.188784,-0.821289,0.139404,0.508789,0.113711,0.018912,-0.004357,0.999962,0.008184,-0.002670,0.000944,0.074164,-0.771201,0.010335,-0.632173
58543,NaN,11.471801,2.505285,-0.034091,2.500029,-3.749636,1.030252,1.393281,-0.367796,0.258181,-0.817139,0.148193,0.500244,0.114686,0.025201,0.000045,0.999973,0.006966,-0.001839,0.001291,0.080370,-0.771810,0.006791,-0.630717
58544,NaN,11.500961,4.048719,0.225986,2.969948,-5.268982,0.776553,1.109968,-0.225407,0.306164,-0.819580,0.156738,0.504395,0.114945,0.040649,0.002615,0.999983,0.005550,-0.001127,0.001531,0.085474,-0.772041,0.004562,-0.629782
58545,NaN,11.974513,5.047789,0.205763,3.205879,-6.331841,1.074982,0.828019,-0.035194,0.254799,-0.815430,0.160889,0.493652,0.119680,0.050621,0.002288,0.999991,0.004140,-0.000176,0.001274,0.089473,-0.771783,0.002925,-0.629554
58546,NaN,12.606863,5.190846,0.829683,3.998195,-6.477643,1.528419,0.630208,-0.019929,0.206432,-0.817871,0.165283,0.500000,0.126014,0.052012,0.008473,0.999994,0.003151,-0.000100,0.001032,0.092523,-0.771525,0.001608,-0.629434
58547,NaN,13.124671,5.674652,1.923051,5.251748,-6.873862,1.733995,0.490817,0.028066,0.198564,-0.817871,0.171631,0.495850,0.131193,0.056829,0.019351,0.999996,0.002454,0.000140,0.000993,0.095041,-0.771203,0.000844,-0.629455
58548,NaN,13.570066,4.788072,2.022588,5.354896,-6.040866,2.270201,0.224601,-0.016027,0.062816,-0.813965,0.176025,0.493652,0.135684,0.047901,0.020291,0.999999,0.001123,-0.000080,0.000314,0.096166,-0.771089,-0.000026,-0.629423
58549,NaN,13.850383,3.352462,2.701322,5.909680,-4.557601,2.624080,0.332557,-0.013763,-0.043837,-0.820312,0.176025,0.491455,0.138509,0.033449,0.027078,0.999999,0.001663,-0.000069,-0.000219,0.097310,-0.770969,-0.001247,-0.629394
58550,NaN,14.201949,2.790103,1.555607,4.797468,-4.192459,3.275760,0.301587,0.189507,-0.104917,-0.813965,0.178223,0.495850,0.142049,0.027803,0.015463,0.999998,0.001508,0.000948,-0.000525,0.098354,-0.770124,-0.003207,-0.630258
58551,NaN,15.247570,2.332803,1.793461,5.157694,-3.810680,4.330282,0.012957,0.211856,-0.212968,-0.820068,0.169678,0.485352,0.152519,0.023164,0.017775,0.999999,0.000065,0.001059,-0.001065,0.097737,-0.769443,-0.003962,-0.631181
58552,NaN,15.617134,1.193136,2.868397,6.075662,-2.523938,4.687717,-0.299875,0.392009,-0.315960,-0.824219,0.169678,0.483154,0.156246,0.011727,0.028360,0.999996,-0.001499,0.001960,-0.001580,0.095800,-0.768214,-0.004819,-0.632966
58553,NaN,15.217871,1.690055,2.276756,5.391582,-3.032333,4.377372,-0.591227,0.754720,-0.373329,-0.826172,0.158936,0.474854,0.152294,0.016682,0.022143,0.999987,-0.002956,0.003774,-0.001867,0.092365,-0.766086,-0.004019,-0.636053
58554,NaN,14.831405,2.960853,0.812162,3.887155,-4.413181,4.144644,-0.740292,1.181576,-0.442607,-0.838867,0.154785,0.455811,0.148423,0.029308,0.007136,0.999973,-0.003701,0.005908,-0.002213,0.088330,-0.762461,-0.003612,-0.640967
58555,NaN,14.676110,3.646010,-0.668870,2.263575,-5.241111,4.206215,-0.878449,1.574797,-0.519084,-0.844971,0.146240,0.453857,0.146795,0.036046,-0.008003,0.999956,-0.004392,0.007874,-0.002595,0.083342,-0.757756,-0.002079,-0.647191
58556,NaN,14.124251,2.839322,-1.678478,0.805263,-4.452018,3.967594,-1.004912,1.935689,-0.581173,-0.855469,0.133301,0.428467,0.141152,0.027894,-0.018292,0.999936,-0.005024,0.009678,-0.002906,0.077960,-0.751654,-0.001204,-0.654933
58557,NaN,12.837044,0.754128,-2.223491,-0.444517,-2.258336,3.032381,-1.157490,2.303293,-0.641720,-0.869873,0.122803,0.409668,0.128126,0.006995,-0.023753,0.999912,-0.005787,0.011516,-0.003209,0.071515,-0.744490,0.001073,-0.663792
58558,NaN,11.689846,-2.320039,-1.978344,-0.937587,1.010853,2.188999,-1.318091,2.601259,-0.683478,-0.878174,0.109863,0.392822,0.116549,-0.023735,-0.021146,0.999888,-0.006590,0.013006,-0.003417,0.064610,-0.736051,0.002841,-0.673830
58559,NaN,11.282959,-4.383933,-2.480488,-1.931450,3.135319,1.981728,-1.266412,2.905312,-0.638844,-0.890869,0.105713,0.369629,0.112315,-0.044361,-0.026159,0.999869,-0.006332,0.014526,-0.003194,0.057747,-0.726581,0.005695,-0.684626
58560,NaN,11.226204,-7.025425,-2.633269,-2.580328,5.844919,2.082210,-0.895752,3.055955,-0.642707,-0.901123,0.090820,0.346680,0.111619,-0.070736,-0.027725,0.999868,-0.004479,0.015279,-0.003213,0.052515,-0.716116,0.006403,-0.695973
58561,NaN,11.613178,-7.241398,-3.690987,-3.921979,6.049697,2.391311,-0.801337,2.820979,-0.634624,-0.916016,0.086670,0.314941,0.115368,-0.072932,-0.038249,0.999887,-0.004007,0.014104,-0.003173,0.047341,-0.706446,0.007660,-0.706141
58562,NaN,12.544552,-6.644939,-3.990542,-4.496132,5.457810,3.126859,-0.365853,2.709022,-0.561029,-0.916016,0.078125,0.291748,0.124704,-0.066875,-0.041476,0.999903,-0.001829,0.013545,-0.002805,0.044179,-0.696755,0.006973,-0.715913
58563,NaN,14.122172,-6.116936,-0.306026,-1.163703,5.074107,4.672990,-0.142963,2.533151,-0.500240,-0.926514,0.075928,0.274902,0.141015,-0.061525,-0.004803,0.999916,-0.000715,0.012665,-0.002501,0.041798,-0.687674,0.006301,-0.724788
58564,NaN,15.561608,-5.191935,4.144947,2.851280,4.326168,6.294428,-0.069787,2.721545,-0.455217,-0.935059,0.069580,0.241211,0.156042,-0.052260,0.039346,0.999905,-0.000349,0.013607,-0.002276,0.039981,-0.677630,0.005109,-0.734298
58565,NaN,14.682340,-4.511442,5.218536,3.581892,3.800073,5.545324,0.323445,2.917400,-0.407087,-0.941162,0.061035,0.222168,0.147471,-0.045496,0.049964,0.999890,0.001617,0.014586,-0.002035,0.039503,-0.666785,0.003125,-0.744196
58566,NaN,13.369212,-4.753276,4.005879,2.053489,4.134490,4.189078,1.333309,2.662948,-0.416536,-0.947754,0.067627,0.201172,0.134107,-0.048069,0.037956,0.999887,0.006666,0.013314,-0.002083,0.042349,-0.656366,-0.002907,-0.753248
58567,NaN,13.197500,-4.415094,2.993241,0.687076,3.823389,3.881220,1.797326,2.273172,-0.357473,-0.949951,0.067627,0.179932,0.132221,-0.044645,0.028031,0.999893,0.008986,0.011365,-0.001787,0.046929,-0.647344,-0.010368,-0.760681
58568,NaN,12.287186,-3.483248,3.228857,0.779911,3.035291,2.981974,1.761513,2.007176,-0.277614,-0.956543,0.069824,0.158691,0.123137,-0.035279,0.030744,0.999910,0.008807,0.010036,-0.001388,0.051654,-0.639038,-0.017606,-0.767237
58569,NaN,14.109808,-2.423305,3.864962,0.857080,2.010540,4.853943,1.512256,2.005186,-0.447750,-0.950195,0.063477,0.141846,0.141420,-0.024834,0.037047,0.999919,0.007561,0.010026,-0.002239,0.054940,-0.630859,-0.024319,-0.773568
58570,NaN,11.812607,-1.786645,4.380555,1.581198,1.626131,2.708037,0.600640,1.973540,-0.456224,-0.958496,0.061523,0.127197,0.118509,-0.018266,0.042583,0.999944,0.003003,0.009868,-0.002281,0.055210,-0.622779,-0.027546,-0.779961
58571,NaN,11.219953,-1.541338,3.125849,0.255813,1.294803,1.861460,-0.589013,2.442140,-0.407637,-0.962646,0.050781,0.104004,0.112539,-0.015553,0.029931,0.999919,-0.002945,0.012210,-0.002038,0.052117,-0.613305,-0.025842,-0.787701
58572,NaN,10.554979,0.469467,0.737316,-1.921251,-0.904054,0.563144,-1.828061,2.221525,-0.657288,-0.964355,0.038086,0.084961,0.105638,0.004408,0.006159,0.999891,-0.009140,0.011107,-0.003286,0.043953,-0.604693,-0.019941,-0.794995
58573,NaN,9.974744,3.340283,-3.458935,-5.792607,-3.991678,-1.261724,-2.294353,2.221279,-1.090802,-0.961914,0.025146,0.068115,0.099531,0.032451,-0.036072,0.999858,-0.011471,0.011106,-0.005454,0.032895,-0.596168,-0.013629,-0.802070
58574,NaN,7.518104,5.091351,-8.210414,-9.804849,-5.689883,-5.194795,-2.983059,2.431497,-1.058011,-0.966064,0.012451,0.045166,0.074433,0.049277,-0.083755,0.999801,-0.014914,0.012157,-0.005290,0.019540,-0.586566,-0.004242,-0.809655
58575,NaN,8.294258,3.086796,-7.976315,-10.185109,-3.353479,-4.622717,-4.147657,2.826091,-0.592914,-0.963867,0.008301,0.017578,0.081886,0.028945,-0.081539,0.999681,-0.020736,0.014129,-0.002964,0.005029,-0.575325,0.011086,-0.817834
58576,NaN,7.414068,1.458736,-1.046324,-3.608452,-1.548705,-3.273112,-2.347753,2.805557,-0.937067,-0.967773,-0.008789,-0.009766,0.074049,0.014108,-0.011670,0.999822,-0.011738,0.014027,-0.004685,-0.005891,-0.563800,0.018021,-0.825694
58577,NaN,8.561021,0.420298,2.054962,-1.349305,-0.561666,-1.120827,-2.450740,2.914466,-1.014574,-0.959229,-0.015137,-0.035156,0.085918,0.004009,0.019249,0.999806,-0.012253,0.014571,-0.005073,-0.017251,-0.551671,0.025188,-0.833503
58578,NaN,7.704197,0.776341,-1.033704,-4.114513,-0.648521,-3.204369,-2.884035,3.061741,-0.740582,-0.965576,-0.021484,-0.066650,0.076898,0.007317,-0.011623,0.999772,-0.014419,0.015308,-0.003703,-0.028900,-0.538584,0.034852,-0.841354
58579,NaN,6.253440,1.075502,-1.177987,-3.864367,-0.850648,-4.714822,-2.169054,3.225494,-0.705579,-0.963379,-0.027832,-0.102539,0.062369,0.010399,-0.012901,0.999805,-0.010845,0.016126,-0.003528,-0.038267,-0.524714,0.041602,-0.849400
58580,NaN,5.092260,-0.160965,-0.556197,-2.801138,0.361532,-5.536274,-1.763614,2.608471,-0.678566,-0.960938,-0.036377,-0.121582,0.050838,-0.001835,-0.006210,0.999870,-0.008818,0.013042,-0.003393,-0.046469,-0.513350,0.046714,-0.855646
58581,NaN,4.853599,-0.175567,0.008082,-2.288172,0.347055,-5.542890,-1.913222,2.209876,-0.582636,-0.952637,-0.038330,-0.142822,0.048528,-0.001900,-0.000438,0.999889,-0.009566,0.011049,-0.002913,-0.054386,-0.503524,0.052883,-0.860645
58582,NaN,3.435800,-0.483912,-0.871013,-2.369745,0.766954,-7.244963,-1.909879,2.019317,-0.536098,-0.952393,-0.044678,-0.163818,0.034255,-0.005016,-0.009009,0.999900,-0.009549,0.010096,-0.002680,-0.062244,-0.494421,0.059135,-0.864972
58583,NaN,3.172270,-1.470031,-1.460283,-2.593831,1.865170,-7.775641,-1.537658,1.854580,-0.528983,-0.950439,-0.046875,-0.178711,0.031547,-0.014897,-0.014782,0.999924,-0.007688,0.009273,-0.002645,-0.068879,-0.486034,0.063894,-0.868875
58584,NaN,3.564756,-2.501184,-1.075326,-2.285873,2.872454,-7.235220,-1.432428,1.493933,-0.503094,-0.941895,-0.046875,-0.189209,0.035504,-0.025179,-0.010839,0.999943,-0.007162,0.007470,-0.002515,-0.075278,-0.479207,0.068359,-0.871792
58585,NaN,3.683993,-3.112346,-0.456035,-1.702900,3.390244,-6.800591,-1.628108,1.241046,-0.582623,-0.944092,-0.051025,-0.208252,0.036721,-0.031268,-0.004534,0.999943,-0.008140,0.006205,-0.002913,-0.082141,-0.473350,0.073586,-0.873944
58586,NaN,2.816002,-2.653439,-0.466226,-1.312688,2.902906,-7.568172,-1.696861,0.889024,-0.555190,-0.946045,-0.053223,-0.210449,0.028066,-0.026651,-0.004561,0.999950,-0.008484,0.004445,-0.002776,-0.089184,-0.468981,0.079373,-0.875102
58587,NaN,2.784227,-2.531297,-0.306553,-1.162844,2.761248,-7.515610,-1.287814,0.337816,-0.589006,-0.939697,-0.055420,-0.214600,0.027762,-0.025414,-0.002949,0.999974,-0.006439,0.001689,-0.002945,-0.094916,-0.467144,0.083472,-0.875100
58588,NaN,3.252499,-2.211160,0.152782,-1.095688,2.398251,-6.890512,-0.870501,-0.027594,-0.606589,-0.939453,-0.059570,-0.214600,0.032458,-0.022203,0.001629,0.999986,-0.004352,-0.000138,-0.003033,-0.099961,-0.467130,0.086021,-0.874298
58589,NaN,3.997541,-1.636503,0.683775,-1.194110,1.797495,-6.008867,-0.482830,-0.332348,-0.619380,-0.941406,-0.066162,-0.214355,0.039913,-0.016472,0.006944,0.999991,-0.002414,-0.001662,-0.003097,-0.103656,-0.468598,0.086848,-0.873000
58590,NaN,4.098619,-1.237702,2.253715,-0.066622,1.049144,-5.089915,0.049944,-0.405865,-0.574785,-0.939209,-0.072510,-0.206055,0.040905,-0.012500,0.022617,0.999994,0.000250,-0.002029,-0.002874,-0.106310,-0.470666,0.085704,-0.871680
58591,NaN,3.044227,-1.481646,3.532725,1.618255,0.874240,-5.278424,0.341068,-0.579611,-0.537662,-0.937012,-0.072510,-0.199707,0.030300,-0.014958,0.035390,0.999991,0.001705,-0.002898,-0.002688,-0.107605,-0.473594,0.083257,-0.870172
58592,NaN,3.031468,-1.251530,3.344684,1.448373,0.719001,-5.416313,0.488614,-0.765929,-0.461062,-0.934570,-0.081055,-0.193359,0.030157,-0.012667,0.033532,0.999987,0.002443,-0.003830,-0.002305,-0.108149,-0.477437,0.080451,-0.868266
58593,NaN,3.183684,-0.890532,3.367789,1.333052,0.404048,-5.303763,0.574901,-0.858277,-0.389571,-0.936768,-0.079102,-0.182617,0.031674,-0.009064,0.033788,0.999985,0.002874,-0.004291,-0.001948,-0.108125,-0.481618,0.077486,-0.866227
58594,NaN,3.171652,-0.823768,3.657561,1.606175,0.289633,-5.181083,0.622351,-0.983033,-0.376651,-0.934326,-0.085449,-0.174072,0.031521,-0.008411,0.036705,0.999981,0.003112,-0.004915,-0.001883,-0.108351,-0.486352,0.074685,-0.863796
58595,NaN,3.888814,-0.789473,3.929762,1.519793,0.294180,-4.446831,0.407267,-1.177862,-0.422925,-0.932373,-0.079102,-0.163574,0.038639,-0.008057,0.039509,0.999978,0.002036,-0.005889,-0.002115,-0.108749,-0.491801,0.072532,-0.860840
58596,NaN,4.892050,0.065490,4.341774,1.230350,-0.499721,-3.407758,0.215786,-1.451172,-0.507646,-0.938232,-0.092041,-0.148682,0.048605,0.000484,0.043772,0.999970,0.001079,-0.007256,-0.002538,-0.110249,-0.498329,0.071379,-0.856982
58597,NaN,6.583702,0.057002,5.161813,1.234412,-0.471937,-1.551679,0.210105,-1.725029,-0.607219,-0.936035,-0.089844,-0.135986,0.065390,0.000316,0.052184,0.999958,0.001051,-0.008625,-0.003036,-0.111711,-0.506026,0.069912,-0.852391
58598,NaN,8.775354,-0.332134,6.715031,1.808973,-0.185085,1.091393,-0.015237,-1.666387,-0.702481,-0.937988,-0.098389,-0.123291,0.087178,-0.003623,0.067879,0.999959,-0.000076,-0.008332,-0.003512,-0.114486,-0.513332,0.069339,-0.847688
58599,NaN,10.218262,0.117759,11.148658,5.027648,-1.495374,4.371887,-0.489256,-1.406707,-0.734949,-0.935791,-0.100586,-0.108398,0.101399,0.001078,0.112199,0.999966,-0.002446,-0.007033,-0.003675,-0.118368,-0.519245,0.070327,-0.843462
58600,NaN,13.670910,1.735358,13.530971,5.380625,-3.255886,8.447430,-0.606892,-1.745490,-0.543260,-0.939941,-0.100830,-0.093750,0.135569,0.017397,0.136443,0.999954,-0.003034,-0.008727,-0.002716,-0.121813,-0.526371,0.072645,-0.838343
58601,NaN,20.032368,1.597150,14.017027,3.459783,-2.526818,14.311218,-0.722099,-1.143640,-0.388949,-0.933594,-0.100830,-0.093750,0.199549,0.016092,0.141255,0.999975,-0.003610,-0.005718,-0.001945,-0.124928,-0.530847,0.075340,-0.834816
58602,NaN,22.343623,2.042502,12.653505,1.303116,-2.371937,15.803634,-0.979596,0.073101,-0.316458,-0.933350,-0.102783,-0.097900,0.223515,0.020691,0.126352,0.999987,-0.004898,0.000366,-0.001582,-0.128831,-0.529967,0.078528,-0.834488
58603,NaN,19.389033,0.912148,10.056079,0.421167,-1.000113,12.020929,-1.278013,1.222083,-0.278209,-0.929443,-0.100586,-0.108643,0.194513,0.009488,0.099314,0.999960,-0.006390,0.006110,-0.001391,-0.133856,-0.524127,0.082331,-0.837015
58604,NaN,15.711582,-0.632125,8.515480,0.777200,0.405907,8.047516,-1.631045,2.022282,-0.248273,-0.929199,-0.104980,-0.133789,0.157959,-0.005831,0.083609,0.999915,-0.008155,0.010111,-0.001241,-0.139900,-0.514536,0.087086,-0.841485
58605,NaN,11.152956,-0.946566,10.296059,3.963964,-0.487961,4.861372,-1.895544,2.581689,-0.273170,-0.925293,-0.104736,-0.161377,0.112835,-0.008652,0.101594,0.999871,-0.009477,0.012908,-0.001366,-0.147035,-0.502394,0.092539,-0.847005
58606,NaN,7.317564,-0.425666,13.149764,7.475495,-2.494126,3.014000,-1.627008,2.704359,-0.271884,-0.927490,-0.104736,-0.184570,0.074940,-0.003293,0.130522,0.999875,-0.008135,0.013521,-0.001359,-0.153514,-0.489691,0.096728,-0.852807
58607,NaN,5.496959,-1.021222,12.951122,8.060305,-2.204366,1.551908,-0.691697,2.327890,-0.163163,-0.923340,-0.104736,-0.205811,0.056464,-0.009811,0.128894,0.999926,-0.003458,0.011639,-0.000816,-0.157021,-0.479270,0.097482,-0.857987
58608,NaN,5.086452,-1.741018,12.056919,7.595547,-1.257469,0.910853,0.353869,1.737323,-0.044683,-0.921143,-0.106689,-0.216309,0.051905,-0.017634,0.120090,0.999961,0.001769,0.008687,-0.000223,-0.157167,-0.471956,0.094426,-0.862345
58609,NaN,5.154971,-1.782691,10.216065,6.010801,-0.532252,0.071906,0.507966,1.029328,-0.129929,-0.921143,-0.108887,-0.222656,0.052063,-0.018120,0.101848,0.999983,0.002540,0.005147,-0.000650,-0.157015,-0.467964,0.091116,-0.864901
58610,NaN,6.809935,-1.457594,7.012317,2.496688,0.506605,-0.263748,0.021265,0.173799,-0.211359,-0.914551,-0.117432,-0.216309,0.068145,-0.014655,0.070062,0.999999,0.000106,0.000869,-0.001057,-0.157892,-0.467164,0.090312,-0.865258
58611,NaN,9.862770,-1.512358,5.534159,-0.179095,1.568488,1.487562,-0.670282,-0.571029,-0.120579,-0.916748,-0.113281,-0.214111,0.098460,-0.014997,0.055673,0.999990,-0.003351,-0.002855,-0.000603,-0.159723,-0.469148,0.093377,-0.863521
58612,NaN,13.852970,-2.216212,6.183842,-1.367204,2.687423,5.219359,-1.246293,-0.822573,-0.001183,-0.920898,-0.111084,-0.203613,0.138273,-0.021775,0.062544,0.999972,-0.006231,-0.004113,-0.000006,-0.162268,-0.471547,0.099355,-0.861070
58613,NaN,18.297662,-3.087382,4.968294,-4.133276,4.589296,8.377219,-1.453464,-0.439600,0.083259,-0.921143,-0.108887,-0.209961,0.182879,-0.030434,0.050307,0.999971,-0.007267,-0.002198,0.000416,-0.165117,-0.472198,0.106160,-0.859358
58614,NaN,18.743104,-3.157406,-0.232041,-8.345709,6.436862,6.006379,-0.941266,0.306223,0.039514,-0.921143,-0.102539,-0.212158,0.187434,-0.031548,-0.002459,0.999988,-0.004706,0.001531,0.000198,-0.167383,-0.469945,0.110063,-0.859663
58615,NaN,13.723756,-4.413581,-4.976875,-8.999321,8.319909,-0.736246,-0.046883,-0.003898,-0.090683,-0.921143,-0.108887,-0.207764,0.137218,-0.044210,-0.049756,1.000000,-0.000234,-0.000019,-0.000453,-0.167884,-0.469966,0.110051,-0.859556
58616,NaN,10.111751,-5.452212,-0.443342,-3.249594,7.032381,-1.318214,0.153515,-0.730305,-0.097850,-0.920898,-0.111084,-0.201416,0.101106,-0.054568,-0.004106,0.999993,0.000768,-0.003652,-0.000489,-0.167706,-0.473207,0.109926,-0.857826
58617,NaN,5.025299,-2.463436,3.780675,1.427668,1.873005,-3.482676,0.047319,-0.715920,-0.257861,-0.923096,-0.108887,-0.195068,0.050085,-0.024708,0.037980,0.999993,0.000237,-0.003580,-0.001289,-0.168309,-0.476449,0.109710,-0.855939
58618,NaN,-0.012575,-0.377015,0.968064,0.910007,0.008131,-9.311428,0.464200,-0.626932,-0.423811,-0.929199,-0.115479,-0.182373,-0.000164,-0.003792,0.009671,0.999990,0.002321,-0.003135,-0.002119,-0.168933,-0.479683,0.107482,-0.854291
58619,NaN,-3.888498,-2.105796,-0.064838,2.626703,1.238296,-13.148212,0.851132,-1.048318,-0.481662,-0.924561,-0.126221,-0.176025,-0.038931,-0.020961,-0.000942,0.999974,0.004256,-0.005242,-0.002408,-0.168385,-0.485119,0.103571,-0.851809
58620,NaN,-0.516558,-1.857033,-0.032048,0.927726,1.629836,-10.259127,1.135065,-1.926485,-0.281105,-0.924316,-0.132812,-0.148438,-0.005188,-0.018561,-0.000476,0.999937,0.005675,-0.009632,-0.001405,-0.166108,-0.494349,0.099926,-0.847374
58621,NaN,7.982802,0.482583,1.318472,-2.664703,0.530322,-2.176577,1.058730,-2.745760,0.217085,-0.935059,-0.126465,-0.123047,0.079632,0.004839,0.014304,0.999891,0.005293,-0.013728,0.001085,-0.161185,-0.506693,0.098243,-0.841208
58622,NaN,15.285732,4.723749,-0.842599,-8.891222,-1.602789,3.417296,0.801334,-3.083189,0.495310,-0.937012,-0.126465,-0.093506,0.152843,0.047643,-0.005879,0.999870,0.004006,-0.015415,0.002476,-0.155864,-0.519994,0.098880,-0.833988
58623,NaN,18.065075,7.783124,-5.835192,-14.902873,-2.694990,4.028302,2.044376,-2.818440,0.426331,-0.939209,-0.117920,-0.061768,0.181274,0.078791,-0.054998,0.999846,0.010221,-0.014091,0.002132,-0.147358,-0.533042,0.093642,-0.827878
58624,NaN,13.188483,4.921705,-7.017350,-12.637199,-0.724174,-0.477858,2.809092,-3.523505,0.506540,-0.939209,-0.111572,-0.025879,0.132959,0.050510,-0.067134,0.999743,0.014044,-0.017616,0.002532,-0.136323,-0.549414,0.086159,-0.819839
58625,NaN,12.791152,1.536750,-1.261964,-5.978464,0.436147,1.659498,1.703318,-3.940813,0.635211,-0.941162,-0.109619,0.014160,0.128075,0.015867,-0.009963,0.999765,0.008516,-0.019703,0.003176,-0.127314,-0.566320,0.083585,-0.809992
58626,NaN,11.126596,2.446539,2.405146,-2.022961,-1.827392,1.506637,1.443619,-3.091808,0.398881,-0.941162,-0.105469,0.043701,0.110826,0.024504,0.025944,0.999852,0.007218,-0.015458,0.001994,-0.120445,-0.579673,0.081035,-0.801814
58627,NaN,9.699098,3.025099,1.184464,-2.554838,-2.292857,-0.177571,2.160500,-2.256781,0.242812,-0.945557,-0.103271,0.067139,0.096810,0.030230,0.013264,0.999877,0.010802,-0.011283,0.001214,-0.112284,-0.589847,0.074424,-0.796199
58628,NaN,8.519745,1.871092,0.815273,-1.992394,-1.261581,-1.375595,3.873382,-2.276815,0.271091,-0.937012,-0.094971,0.098633,0.085069,0.018651,0.009483,0.999747,0.019365,-0.011383,0.001355,-0.099051,-0.600986,0.061225,-0.790731
58629,NaN,6.758337,-1.695931,-3.604591,-4.708049,2.895402,-4.245791,4.119225,-2.927527,0.395190,-0.930908,-0.082031,0.125977,0.068137,-0.016092,-0.035389,0.999679,0.020594,-0.014636,0.001976,-0.084187,-0.614281,0.047556,-0.783141
58630,NaN,5.700062,-3.402290,-5.476449,-5.910917,4.613611,-5.590734,3.440087,-2.948846,1.037044,-0.935303,-0.071533,0.159668,0.057978,-0.032785,-0.054485,0.999730,0.017199,-0.014743,0.005185,-0.068924,-0.627060,0.038693,-0.774950
58631,NaN,8.736395,-3.844722,-3.884156,-4.908061,4.741153,-2.091567,3.705198,-3.224810,1.332053,-0.927490,-0.048096,0.193359,0.088233,-0.037151,-0.038120,0.999676,0.018524,-0.016122,0.006660,-0.051503,-0.640367,0.029610,-0.765768
58632,NaN,8.743841,-3.238728,-0.692365,-1.755386,3.576831,-1.354280,3.575239,-3.076853,1.235255,-0.919434,-0.031006,0.220703,0.087734,-0.031731,-0.006147,0.999703,0.017874,-0.015383,0.006176,-0.034957,-0.652895,0.020928,-0.756352
58633,NaN,9.214815,-3.038995,2.197198,1.168538,3.078104,-0.424785,2.803964,-2.952217,0.877772,-0.913330,-0.013916,0.250244,0.091948,-0.030303,0.022905,0.999783,0.014019,-0.014760,0.004389,-0.022170,-0.664313,0.013700,-0.747000
58634,NaN,11.426666,-2.365315,0.888587,-0.229391,2.461019,1.625878,1.579357,-1.947444,0.462459,-0.911133,-0.013916,0.260742,0.114229,-0.023464,0.009812,0.999919,0.007897,-0.009737,0.002312,-0.015186,-0.671832,0.009879,-0.740482
58635,NaN,9.583256,-2.104231,-1.191494,-1.992985,2.219156,-0.389906,0.425785,-1.057842,0.203167,-0.906982,-0.011963,0.273438,0.095915,-0.020920,-0.011452,0.999983,0.002129,-0.005289,0.001016,-0.012952,-0.675757,0.009064,-0.736955
58636,NaN,8.376691,-0.761615,-2.882592,-3.538747,0.883417,-1.703763,0.150574,-0.728344,0.509418,-0.907227,-0.001221,0.273438,0.083890,-0.007381,-0.028526,0.999990,0.000753,-0.003642,0.002547,-0.010686,-0.678537,0.010580,-0.734412
58637,NaN,8.716437,-0.029581,-3.857295,-4.505683,0.130282,-1.414044,0.086032,-0.616554,0.559408,-0.900879,-0.001221,0.283936,0.087283,-0.000035,-0.038304,0.999991,0.000430,-0.003083,0.002797,-0.008309,-0.680767,0.012194,-0.732351
58638,NaN,8.497789,0.039300,-3.315260,-3.893737,0.006873,-1.563853,-0.266035,-0.724030,0.388484,-0.903076,0.007324,0.288086,0.085096,0.000514,-0.032845,0.999991,-0.001330,-0.003620,0.001942,-0.007897,-0.683510,0.014855,-0.729747
58639,NaN,8.998980,0.993485,-1.554070,-2.143441,-1.031441,-0.939961,-0.608305,-0.694239,0.303994,-0.900879,-0.001221,0.290283,0.090028,0.010025,-0.015259,0.999988,-0.003042,-0.003471,0.001520,-0.008816,-0.685986,0.018139,-0.727335
58640,NaN,9.437353,1.429071,1.143073,0.558511,-1.603173,-0.350651,-1.230596,-0.684550,0.140912,-0.900635,-0.003418,0.302979,0.094324,0.014428,0.011665,0.999975,-0.006153,-0.003423,0.000705,-0.012607,-0.688531,0.023437,-0.724718
58641,NaN,9.062562,-0.834318,5.002774,4.622068,0.419044,-0.522203,-0.928439,-1.181846,0.100206,-0.898438,-0.005615,0.313477,0.090332,-0.008064,0.050600,0.999972,-0.004642,-0.005909,0.000501,-0.015303,-0.692722,0.027218,-0.720528
58642,NaN,8.929497,0.126198,1.883115,1.572607,-0.396894,-0.831247,-0.038835,-1.216010,0.246924,-0.894287,-0.001221,0.323975,0.089177,0.001376,0.019373,0.999981,-0.000194,-0.006080,0.001235,-0.014560,-0.697192,0.028610,-0.716166
58643,NaN,8.952435,0.954224,0.460100,0.208164,-1.163651,-0.875689,0.101583,-1.177006,0.220125,-0.883789,0.007324,0.336670,0.089485,0.009638,0.005133,0.999982,0.000508,-0.005885,0.001101,-0.013251,-0.701368,0.029097,-0.712082
58644,NaN,8.356970,0.930327,1.013570,0.884303,-1.185952,-1.473494,0.247329,-1.364565,0.205733,-0.885986,0.009277,0.343018,0.083488,0.009376,0.010717,0.999975,0.001237,-0.006823,0.001029,-0.011587,-0.706330,0.029335,-0.707180
58645,NaN,8.001356,0.462858,0.671115,0.680611,-0.712173,-1.830525,0.376484,-1.312276,0.233659,-0.881836,0.011475,0.364014,0.079962,0.004709,0.007245,0.999976,0.001882,-0.006561,0.001168,-0.009239,-0.710939,0.028903,-0.702599
58646,NaN,8.255209,0.817123,0.166721,0.273678,-1.073539,-1.589830,0.499365,-1.369957,0.293101,-0.877686,0.015625,0.372559,0.082526,0.008287,0.002253,0.999972,0.002497,-0.006850,0.001465,-0.006337,-0.715832,0.028530,-0.697661
58647,NaN,8.681351,0.449021,0.390018,0.646304,-0.762375,-1.168658,0.535980,-1.443139,0.355150,-0.873291,0.020020,0.385010,0.086774,0.004633,0.004539,0.999969,0.002680,-0.007216,0.001776,-0.002974,-0.720808,0.027975,-0.692563
58648,NaN,8.956886,-0.349254,0.530289,0.969188,-0.019365,-0.885902,0.633280,-1.619492,0.390400,-0.862793,0.024170,0.397705,0.089529,-0.003336,0.006017,0.999960,0.003166,-0.008097,0.001952,0.000791,-0.726459,0.027460,-0.686661
58649,NaN,8.936625,0.120713,0.016355,0.579670,-0.510421,-0.908776,0.489112,-1.630632,0.460566,-0.858643,0.030518,0.414551,0.089358,0.001411,0.000895,0.999961,0.002446,-0.008153,0.002303,0.004372,-0.731963,0.027445,-0.680777
58650,NaN,9.150922,-0.154403,0.456346,1.195769,-0.307863,-0.732787,0.484648,-1.728723,0.494262,-0.850342,0.032715,0.429199,0.091469,-0.001330,0.005351,0.999957,0.002423,-0.008643,0.002471,0.007961,-0.737850,0.027803,-0.674345
58651,NaN,9.459263,-0.136799,0.617743,1.542805,-0.394171,-0.467109,0.409923,-1.773994,0.523016,-0.843994,0.039062,0.444092,0.094536,-0.001135,0.007014,0.999955,0.002050,-0.008870,0.002615,0.011482,-0.743709,0.028278,-0.667807
58652,NaN,9.783356,0.020984,0.939675,2.063847,-0.629263,-0.224191,0.452753,-1.795438,0.540093,-0.835693,0.049561,0.456543,0.097743,0.000451,0.010275,0.999953,0.002264,-0.008977,0.002700,0.015091,-0.749675,0.028888,-0.661003
58653,NaN,10.261974,-0.256098,1.539353,2.900619,-0.441605,0.143796,0.483680,-1.831494,0.533639,-0.816895,0.062500,0.473389,0.102479,-0.002326,0.016327,0.999952,0.002418,-0.009157,0.002668,0.018930,-0.755578,0.029149,-0.654136
58654,NaN,10.486112,-0.105812,2.121159,3.686554,-0.660549,0.209236,0.559604,-1.767298,0.513019,-0.814941,0.064697,0.479736,0.104671,-0.000851,0.022135,0.999954,0.002798,-0.008836,0.002565,0.022919,-0.761285,0.029338,-0.647347
58655,NaN,10.850815,0.040027,2.517772,4.301581,-0.870599,0.425323,0.735508,-1.544332,0.497953,-0.812988,0.073242,0.496582,0.108308,0.000575,0.026016,0.999960,0.003677,-0.007722,0.002490,0.027555,-0.766096,0.028673,-0.641494
58656,NaN,10.952231,0.460524,1.839500,3.792471,-1.334308,0.549857,0.933082,-1.206928,0.440880,-0.802246,0.075195,0.502930,0.109398,0.004759,0.019077,0.999968,0.004665,-0.006035,0.002204,0.032677,-0.769770,0.027378,-0.636897
58657,NaN,11.168031,0.771224,0.442410,2.579958,-1.712702,0.954148,1.096962,-0.935341,0.347179,-0.796387,0.090332,0.506836,0.111644,0.007880,0.004989,0.999973,0.005485,-0.004677,0.001736,0.038131,-0.772500,0.025067,-0.633373
58658,NaN,11.445957,0.940066,0.039189,2.341804,-1.947533,1.260588,1.236652,-0.727643,0.290889,-0.790283,0.096680,0.513184,0.114443,0.009563,0.000867,0.999973,0.006183,-0.003638,0.001454,0.043868,-0.774513,0.022265,-0.630642
58659,NaN,11.531045,1.195991,0.457207,2.853994,-2.217046,1.211985,1.217556,-0.479406,0.242396,-0.792725,0.109375,0.521484,0.115284,0.012070,0.004922,0.999978,0.006088,-0.002397,0.001212,0.049399,-0.775714,0.019258,-0.628854
58660,NaN,11.612850,2.251508,0.792577,3.292741,-3.273168,1.096012,1.223383,-0.225015,0.206124,-0.790527,0.111572,0.519287,0.116096,0.022585,0.008194,0.999980,0.006117,-0.001125,0.001031,0.054802,-0.776099,0.016276,-0.628014
58661,NaN,11.633758,3.440424,0.686993,3.292089,-4.474099,0.994589,1.108907,-0.038677,0.197949,-0.788574,0.118164,0.519287,0.116302,0.034480,0.007083,0.999984,0.005545,-0.000193,0.000990,0.059728,-0.775888,0.013551,-0.627890
58662,NaN,11.756927,4.214384,0.510612,3.220558,-5.278259,1.050784,0.959915,0.119792,0.152656,-0.799561,0.128662,0.521484,0.117540,0.042209,0.005238,0.999988,0.004800,0.000599,0.000763,0.063879,-0.775213,0.011190,-0.628362
58663,NaN,12.368659,3.820170,1.250784,4.059790,-4.892160,1.533094,0.811255,0.238013,0.131861,-0.797607,0.130859,0.512939,0.123676,0.038232,0.012516,0.999991,0.004056,0.001190,0.000659,0.067423,-0.774192,0.009228,-0.629282
58664,NaN,12.655679,2.896185,2.125045,4.892407,-3.927995,1.750402,0.589105,0.381599,0.116021,-0.799805,0.133057,0.519287,0.126580,0.028973,0.021094,0.999994,0.002946,0.001908,0.000580,0.070057,-0.772748,0.007866,-0.630786
58665,NaN,12.922800,2.264992,2.851506,5.579330,-3.259269,1.956263,0.586263,0.329397,0.068836,-0.797607,0.135254,0.508789,0.129267,0.022611,0.028368,0.999994,0.002931,0.001647,0.000344,0.072526,-0.771496,0.006397,-0.632055
58666,NaN,12.575806,1.389573,3.646495,6.181642,-2.266829,1.590267,0.573458,0.380325,0.072012,-0.800049,0.139404,0.510742,0.125822,0.013837,0.036265,0.999994,0.002867,0.001902,0.000360,0.074898,-0.770083,0.004879,-0.633513
58667,NaN,12.594043,1.986852,3.636903,6.181851,-2.854167,1.563721,0.585921,0.559724,0.052126,-0.802246,0.141602,0.504395,0.126037,0.019795,0.036074,0.999992,0.002930,0.002799,0.000261,0.077304,-0.768083,0.003432,-0.635658
58668,NaN,12.883244,2.174625,2.817304,5.385167,-3.152590,2.006983,0.463151,0.756424,-0.056724,-0.810791,0.148193,0.498047,0.128944,0.021645,0.027736,0.999990,0.002316,0.003782,-0.000284,0.078825,-0.765498,0.001894,-0.638589
58669,NaN,13.961786,1.644303,2.718920,5.334178,-2.740961,3.189618,0.347256,0.935782,-0.169209,-0.817139,0.143799,0.496094,0.139757,0.016278,0.026564,0.999987,0.001736,0.004679,-0.000846,0.079602,-0.762365,0.000506,-0.642233
58670,NaN,14.261143,1.838818,3.292307,5.826648,-2.872295,3.431110,0.065810,1.177278,-0.300724,-0.825439,0.139648,0.485596,0.142829,0.018163,0.032089,0.999981,0.000329,0.005886,-0.001504,0.078838,-0.758524,-0.000558,-0.646858
58671,NaN,13.608350,2.451176,2.547233,4.865269,-3.480891,2.910990,-0.360959,1.547722,-0.444024,-0.833984,0.133301,0.470703,0.136329,0.024254,0.024374,0.999966,-0.001805,0.007739,-0.002220,0.076033,-0.753634,-0.000466,-0.652882
58672,NaN,12.259084,3.049086,0.379854,2.354340,-4.155062,1.888284,-0.674132,1.972861,-0.566518,-0.844238,0.118164,0.454102,0.122705,0.030153,0.002486,0.999942,-0.003371,0.009864,-0.002833,0.071511,-0.747356,0.000106,-0.660564
58673,NaN,11.401859,3.180665,-1.919007,-0.292932,-4.403017,1.337266,-0.706718,2.362453,-0.641472,-0.852539,0.114014,0.437256,0.113882,0.031370,-0.020647,0.999919,-0.003533,0.011812,-0.003207,0.066741,-0.739746,0.000886,-0.669567
58674,NaN,10.765445,2.212994,-3.683953,-2.501412,-3.487512,0.954626,-0.536502,2.688373,-0.649189,-0.864990,0.101318,0.411865,0.107217,0.021680,-0.038341,0.999901,-0.002682,0.013441,-0.003246,0.062350,-0.730799,0.000854,-0.679739
58675,NaN,11.093299,0.372951,-5.010858,-4.277916,-1.737407,1.455782,-0.418373,2.953759,-0.644813,-0.886230,0.092773,0.388916,0.110188,0.003266,-0.051747,0.999884,-0.002092,0.014768,-0.003224,0.058606,-0.720808,0.000838,-0.690652
58676,NaN,12.786056,-2.559916,-5.071248,-4.863402,1.129120,3.256784,-0.428812,3.016252,-0.734092,-0.896729,0.086426,0.363525,0.126982,-0.026178,-0.052576,0.999877,-0.002144,0.015081,-0.003670,0.054238,-0.710368,0.000193,-0.701738
58677,NaN,13.715571,-5.476396,-4.043373,-4.411617,4.151952,4.249406,-0.851684,2.777624,-0.811639,-0.908936,0.069336,0.342529,0.136355,-0.055495,-0.042096,0.999886,-0.004258,0.013888,-0.004058,0.048350,-0.700773,0.001049,-0.711743
58678,NaN,15.368926,-7.978843,-2.671788,-3.530900,6.778503,5.953738,-1.382879,2.302071,-0.861665,-0.917480,0.065186,0.332031,0.153026,-0.080639,-0.027926,0.999901,-0.006914,0.011510,-0.004308,0.040082,-0.692833,0.003271,-0.719976
58679,NaN,15.868243,-8.300981,-0.079488,-1.227012,7.343957,6.474354,-1.232413,2.177594,-0.817699,-0.929688,0.045898,0.309082,0.158324,-0.083667,-0.002006,0.999913,-0.006162,0.010888,-0.004088,0.032822,-0.685194,0.005308,-0.727602
58680,NaN,16.442145,-8.322400,3.819248,2.329729,7.587156,7.251590,-0.561509,2.408572,-0.702798,-0.936035,0.037354,0.285889,0.164574,-0.083698,0.036446,0.999917,-0.002807,0.012043,-0.003514,0.028091,-0.676512,0.005252,-0.735877
58681,NaN,16.696055,-8.681733,5.866497,3.900748,8.075986,7.739690,0.335955,2.835645,-0.486813,-0.940186,0.037354,0.269043,0.167556,-0.087320,0.056146,0.999895,0.001680,0.014178,-0.002434,0.027351,-0.665973,0.002764,-0.745469
58682,NaN,15.610615,-8.118560,4.695424,2.338790,7.609233,6.565713,1.338307,2.810952,-0.317693,-0.946777,0.039551,0.243652,0.156611,-0.081736,0.044210,0.999878,0.006691,0.014054,-0.001588,0.030543,-0.655174,-0.002936,-0.754854
58683,NaN,14.676836,-6.007645,2.602032,-0.025458,5.521496,5.279140,2.292132,2.415346,-0.189196,-0.959961,0.046143,0.224609,0.147006,-0.060495,0.023554,0.999861,0.011460,0.012076,-0.000946,0.037360,-0.645614,-0.011840,-0.762657
58684,NaN,13.482901,-2.780847,2.875252,0.247177,2.439178,4.035333,2.609741,1.941278,-0.230051,-0.964355,0.048340,0.203369,0.135065,-0.028324,0.027075,0.999867,0.013048,0.009706,-0.001150,0.044975,-0.637542,-0.022112,-0.768784
58685,NaN,14.223157,-0.523289,4.169979,1.268120,0.379017,4.958890,2.651063,1.938978,-0.298667,-0.970703,0.050537,0.192871,0.142618,-0.005986,0.040242,0.999864,0.013255,0.009694,-0.001493,0.052477,-0.629372,-0.032818,-0.774635
58686,NaN,13.778582,0.847634,6.401167,3.391206,-0.568545,5.009935,2.046306,1.870464,-0.429463,-0.972900,0.048340,0.177979,0.138394,0.007533,0.062800,0.999902,0.010231,0.009352,-0.002147,0.057502,-0.621367,-0.041529,-0.780302
58687,NaN,12.414659,1.272283,5.634899,2.731058,-0.947772,3.571283,0.361300,2.059348,-0.433144,-0.977051,0.044189,0.156982,0.124745,0.012353,0.055089,0.999943,0.001806,0.010297,-0.002166,0.057350,-0.613102,-0.043692,-0.786707
58688,NaN,10.796266,1.398060,2.447919,-0.218811,-1.442765,1.249345,-0.769794,2.708122,-0.525463,-0.985596,0.042236,0.131592,0.108317,0.013787,0.022961,0.999897,-0.003849,0.013540,-0.002627,0.053459,-0.602384,-0.041437,-0.795335
58689,NaN,9.300523,2.428310,-2.015885,-4.220327,-2.956284,-1.451907,-1.785511,2.343440,-0.802403,-0.991455,0.025146,0.112793,0.092855,0.023723,-0.021461,0.999883,-0.008927,0.011717,-0.004012,0.045362,-0.593305,-0.036124,-0.802886
58690,NaN,6.547765,3.708463,-5.402300,-6.703108,-4.412118,-5.185959,-1.913213,1.876402,-0.904591,-0.993408,0.014404,0.100098,0.065130,0.036267,-0.054985,0.999900,-0.009566,0.009382,-0.004523,0.036360,-0.585886,-0.030674,-0.808996
58691,NaN,6.796332,2.888069,-5.152820,-6.798784,-3.427172,-5.005646,-2.754081,1.662097,-0.447292,-0.993164,0.003662,0.087646,0.067593,0.028011,-0.052481,0.999868,-0.013770,0.008310,-0.002236,0.026725,-0.579516,-0.020540,-0.814263
58692,NaN,10.173439,1.037919,-4.029945,-7.157967,-1.403054,-1.590557,-4.106773,1.854460,-0.303667,-0.997314,-0.006836,0.064453,0.101368,0.009382,-0.041440,0.999745,-0.020532,0.009272,-0.001518,0.013780,-0.572277,-0.004481,-0.819932
58693,NaN,9.983311,2.153800,-2.550932,-5.933339,-2.297890,-1.427328,-3.780863,2.759351,-0.834085,-0.996826,-0.023926,0.034912,0.099552,0.020618,-0.027280,0.999717,-0.018903,0.013795,-0.004170,-0.000407,-0.561044,0.008821,-0.827739
58694,NaN,8.462639,2.755494,-0.823399,-4.068557,-2.748285,-2.344639,-3.001813,2.548148,-1.333547,-1.002930,-0.038818,0.003418,0.084689,0.026852,-0.009719,0.999784,-0.015008,0.012740,-0.006667,-0.014434,-0.550408,0.017438,-0.834589
58695,NaN,7.366468,0.746409,-2.874162,-5.667037,-0.486363,-4.269911,-3.132024,3.155003,-1.148850,-1.002686,-0.051758,-0.026123,0.073237,0.006579,-0.030007,0.999736,-0.015659,0.015774,-0.005744,-0.028126,-0.536971,0.027111,-0.842695
58696,NaN,5.975150,1.161406,-3.311147,-5.670042,-0.726355,-5.897053,-2.309549,3.097280,-0.860867,-1.000488,-0.058105,-0.051514,0.059276,0.010968,-0.034161,0.999804,-0.011547,0.015485,-0.004304,-0.038329,-0.523616,0.034010,-0.850412
58697,NaN,4.645805,0.104825,-1.455162,-3.432923,0.211595,-6.365892,-1.775742,2.779383,-0.732603,-1.002441,-0.064453,-0.076904,0.046253,0.000746,-0.015203,0.999857,-0.008878,0.013896,-0.003663,-0.046569,-0.511506,0.039104,-0.857125
58698,NaN,3.008229,-1.330439,-1.361643,-2.458537,1.618638,-7.810502,-1.713465,2.263198,-0.594727,-1.008545,-0.077148,-0.102051,0.029887,-0.013511,-0.013840,0.999895,-0.008567,0.011316,-0.002974,-0.053896,-0.501505,0.044312,-0.862336
58699,NaN,1.424060,-1.569871,-1.601925,-1.850431,1.848355,-9.345923,-1.723648,2.040532,-0.406968,-1.006592,-0.077148,-0.125244,0.014045,-0.015866,-0.016027,0.999909,-0.008618,0.010202,-0.002035,-0.060429,-0.492286,0.050169,-0.866883
58700,NaN,1.965255,-2.366307,-1.883765,-2.212859,2.740211,-9.035254,-1.775707,1.761884,-0.396326,-1.000244,-0.074951,-0.135986,0.019440,-0.023869,-0.018798,0.999920,-0.008878,0.008809,-0.001982,-0.066929,-0.484220,0.056295,-0.870565
58701,NaN,2.357959,-4.104862,-0.532532,-0.951100,4.279741,-7.949223,-1.834564,1.612370,-0.325037,-1.004395,-0.081299,-0.152832,0.023471,-0.041135,-0.005138,0.999924,-0.009173,0.008062,-0.001625,-0.073244,-0.476641,0.062949,-0.873777
58702,NaN,2.029436,-3.550827,0.795644,0.254357,3.469887,-7.520300,-1.935873,1.180706,-0.202527,-0.998047,-0.081299,-0.165527,0.020306,-0.035450,0.008180,0.999935,-0.009679,0.005903,-0.001013,-0.079117,-0.470862,0.070475,-0.875821
58703,NaN,2.431441,-2.676559,-0.045317,-0.797124,2.801424,-7.669216,-1.800024,0.839238,-0.261134,-0.994141,-0.076904,-0.171875,0.024278,-0.026801,-0.000314,0.999950,-0.009000,0.004196,-0.001306,-0.084799,-0.466542,0.077406,-0.877015
58704,NaN,3.498455,-2.606572,-0.222895,-1.515287,2.857839,-6.876758,-1.454349,0.476712,-0.325882,-1.000244,-0.081055,-0.176025,0.034937,-0.026138,-0.002122,0.999969,-0.007272,0.002384,-0.001629,-0.089840,-0.464002,0.082847,-0.877364
58705,NaN,4.770248,-2.454678,0.244204,-1.858326,2.717032,-5.569497,-1.251876,0.362922,-0.420071,-1.000244,-0.085449,-0.182373,0.047655,-0.024631,0.002510,0.999977,-0.006259,0.001815,-0.002100,-0.094744,-0.462010,0.087198,-0.877478
58706,NaN,3.842125,-2.210287,1.864979,-0.096114,2.017072,-5.448332,-0.821213,0.092784,-0.506250,-0.991455,-0.093994,-0.180176,0.038374,-0.022123,0.018723,0.999988,-0.004106,0.000464,-0.002531,-0.098964,-0.461492,0.089647,-0.877037
58707,NaN,4.513876,-1.729179,1.672481,-0.723111,1.666950,-5.031406,-0.623067,-0.135327,-0.590466,-0.997559,-0.102539,-0.180176,0.045076,-0.017373,0.016809,0.999991,-0.003115,-0.000677,-0.002952,-0.102938,-0.462037,0.091083,-0.876145
58708,NaN,4.701253,-1.335327,1.036367,-1.409545,1.484878,-5.255586,-0.184425,-0.176814,-0.650247,-0.990967,-0.111084,-0.177979,0.046960,-0.013496,0.010418,0.999994,-0.000922,-0.000884,-0.003251,-0.106208,-0.463074,0.090560,-0.875261
58709,NaN,2.675212,-1.787142,2.421756,0.943165,1.378168,-6.148463,0.148550,-0.342943,-0.782691,-0.992920,-0.115479,-0.171631,0.026640,-0.017994,0.024250,0.999991,0.000743,-0.001715,-0.003913,-0.109142,-0.465003,0.088279,-0.874110
58710,NaN,1.974694,-0.779255,3.813100,2.192475,-0.008764,-6.039221,0.224239,-1.264565,-0.664304,-0.994629,-0.122070,-0.154541,0.019479,-0.007900,0.038246,0.999974,0.001121,-0.006323,-0.003321,-0.111047,-0.470997,0.086539,-0.870828
58711,NaN,3.581319,-0.370696,3.252681,0.843239,-0.066300,-5.034906,0.424419,-1.515297,-0.608989,-0.988037,-0.126221,-0.135498,0.035554,-0.003885,0.032789,0.999964,0.002122,-0.007576,-0.003045,-0.112049,-0.478077,0.084095,-0.867073
58712,NaN,5.330560,-0.024151,3.948832,0.510968,-0.357279,-3.208252,0.622673,-1.767305,-0.633239,-0.994141,-0.139160,-0.120605,0.052953,-0.000533,0.039956,0.999951,0.003113,-0.008836,-0.003166,-0.112636,-0.486385,0.080965,-0.862663
58713,NaN,7.660508,0.734469,5.033825,0.191046,-1.057817,-0.680149,0.650931,-1.998341,-0.735902,-0.989502,-0.147949,-0.097412,0.076123,0.006898,0.051123,0.999938,0.003255,-0.009992,-0.003679,-0.113420,-0.495638,0.077487,-0.857598
58714,NaN,10.011513,1.182508,6.589869,0.463216,-1.551923,2.121552,0.486778,-2.005574,-0.882655,-0.989258,-0.154297,-0.076172,0.099498,0.011223,0.066926,0.999937,0.002434,-0.010028,-0.004413,-0.115284,-0.504876,0.074433,-0.852214
58715,NaN,10.925587,1.541121,9.315215,2.528203,-2.415541,4.197371,0.094807,-2.142843,-0.835719,-0.984375,-0.167236,-0.057129,0.108312,0.014913,0.094323,0.999934,0.000474,-0.010714,-0.004179,-0.117809,-0.514339,0.073148,-0.846301
58716,NaN,12.767163,0.680385,14.438318,6.654476,-2.665469,8.090618,-0.583888,-2.101132,-0.573007,-0.984375,-0.169434,-0.035889,0.126165,0.006865,0.145694,0.999936,-0.002919,-0.010505,-0.002865,-0.121009,-0.523105,0.075441,-0.840254
58717,NaN,18.887020,1.804383,19.063000,7.987921,-4.259378,15.513594,-0.652119,-0.805344,-0.423475,-0.982178,-0.167236,-0.033936,0.188139,0.018268,0.191329,0.999984,-0.003261,-0.004027,-0.002117,-0.124197,-0.526245,0.077558,-0.837631
58718,NaN,19.799233,1.981418,15.352144,4.334640,-3.368445,14.712487,-0.633563,0.843314,-0.435087,-0.984131,-0.175781,-0.050781,0.198680,0.019867,0.152622,0.999984,-0.003168,0.004217,-0.002175,-0.128034,-0.522481,0.078565,-0.839314
58719,NaN,16.938602,0.271806,12.108897,2.991906,-1.189001,10.760112,-0.698558,1.664396,-0.327192,-0.979736,-0.186523,-0.067627,0.170390,0.002859,0.119664,0.999958,-0.003493,0.008322,-0.001636,-0.131889,-0.515155,0.079572,-0.843142
58720,NaN,13.446436,-1.306544,9.571286,2.522634,0.564620,6.540701,-0.834418,1.831602,-0.163098,-0.977539,-0.186523,-0.086670,0.135323,-0.012780,0.094530,0.999949,-0.004172,0.009158,-0.000815,-0.135453,-0.506902,0.081457,-0.847388
58721,NaN,10.756342,-2.409649,9.349863,3.625770,1.295052,4.119178,-0.893113,1.755762,-0.076049,-0.975586,-0.190674,-0.105469,0.108370,-0.023723,0.092656,0.999951,-0.004465,0.008779,-0.000380,-0.138756,-0.498864,0.083854,-0.851381
58722,NaN,9.536522,-2.815704,9.989872,4.613372,1.316163,3.440628,-0.768969,1.839946,-0.074109,-0.973633,-0.188477,-0.126709,0.096269,-0.027810,0.099123,0.999950,-0.003845,0.009200,-0.000371,-0.141765,-0.490468,0.085676,-0.855572
58723,NaN,8.852922,-3.218455,10.556348,5.293209,1.454406,3.226859,-0.435786,2.027251,-0.140055,-0.971191,-0.197021,-0.145752,0.089571,-0.032018,0.104729,0.999946,-0.002179,0.010136,-0.000700,-0.144302,-0.481520,0.085755,-0.860210
58724,NaN,7.430726,-3.843617,10.662467,6.053601,1.849913,2.170778,0.022405,2.028624,-0.199607,-0.969238,-0.198975,-0.164795,0.075345,-0.038523,0.105860,0.999948,0.000112,0.010143,-0.000998,-0.145989,-0.472806,0.083745,-0.864945
58725,NaN,5.918079,-4.496051,9.587789,5.997226,2.606744,0.404869,0.346754,1.771532,-0.188990,-0.962646,-0.203369,-0.179443,0.059984,-0.045182,0.095271,0.999959,0.001734,0.008858,-0.000945,-0.146730,-0.465456,0.080502,-0.869103
58726,NaN,5.514051,-3.752432,8.482987,4.953584,2.225427,-0.487758,0.255313,1.397415,-0.176274,-0.962646,-0.207520,-0.183838,0.055698,-0.037681,0.084394,0.999974,0.001277,0.006987,-0.000881,-0.147496,-0.459530,0.078022,-0.872347
58727,NaN,4.358321,-3.777932,6.228956,3.742260,2.694865,-2.685236,-0.011134,0.760496,-0.119465,-0.964600,-0.209717,-0.185791,0.043797,-0.037802,0.062125,0.999993,-0.000056,0.003802,-0.000597,-0.148346,-0.456247,0.077234,-0.873995
58728,NaN,7.454475,-3.359996,5.997654,1.732478,2.940603,-0.263766,-0.445409,-0.062449,0.022247,-0.964600,-0.214111,-0.187988,0.074530,-0.033458,0.060074,0.999997,-0.002227,-0.000312,0.000111,-0.149291,-0.456056,0.079376,-0.873742
58729,NaN,10.135842,-3.786871,5.896001,0.379240,3.812481,1.898787,-0.956100,-0.464245,0.156961,-0.966553,-0.220459,-0.181396,0.101250,-0.037506,0.059375,0.999986,-0.004780,-0.002321,0.000785,-0.150608,-0.457301,0.084256,-0.872407
58730,NaN,13.851179,-3.170053,5.594036,-1.989747,3.883596,4.821294,-1.277311,-0.732300,0.287042,-0.960449,-0.209717,-0.179443,0.138350,-0.031142,0.056647,0.999972,-0.006386,-0.003661,0.001435,-0.152034,-0.459271,0.091169,-0.870428
58731,NaN,17.706748,-1.598281,3.456980,-6.154763,3.601002,6.836140,-1.096217,-0.659682,0.355274,-0.964600,-0.211914,-0.175293,0.176980,-0.015476,0.035239,0.999978,-0.005481,-0.003298,0.001776,-0.152710,-0.461135,0.097255,-0.868663
58732,NaN,18.867114,-2.310646,-1.578047,-10.311346,5.924118,5.099594,-0.310337,-0.792983,0.194774,-0.964600,-0.209717,-0.173096,0.188754,-0.022946,-0.014996,0.999990,-0.001552,-0.003965,0.000974,-0.152286,-0.464139,0.099829,-0.866844
58733,NaN,15.275088,-2.367788,-0.619046,-7.569370,4.994008,2.720499,0.384723,-0.995554,0.082866,-0.968750,-0.214111,-0.162598,0.152789,-0.023604,-0.005475,0.999986,0.001924,-0.004978,0.000414,-0.150543,-0.468697,0.099110,-0.864776
58734,NaN,9.482635,-1.150566,5.372776,-0.252368,0.987710,1.099290,0.387447,-0.565372,-0.142614,-0.964111,-0.222656,-0.156006,0.094666,-0.011678,0.053973,0.999994,0.001937,-0.002827,-0.000713,-0.150100,-0.471449,0.097746,-0.863511
58735,NaN,5.262342,0.897052,3.790726,-0.014033,-1.126780,-3.363142,0.299743,-0.224570,-0.300460,-0.966064,-0.227051,-0.154053,0.052594,0.008835,0.037980,0.999997,0.001499,-0.001123,-0.001502,-0.150589,-0.472788,0.095912,-0.862900
58736,NaN,-0.873787,-0.648278,-0.525888,0.252758,0.618129,-10.819834,1.016084,-0.215256,-0.417699,-0.965820,-0.233398,-0.145508,-0.008746,-0.006438,-0.005301,0.999984,0.005080,-0.001076,-0.002088,-0.150009,-0.474626,0.090917,-0.862532
58737,NaN,-4.394122,-1.489739,-5.572119,-1.744189,2.270198,-16.474390,1.875800,-1.110917,-0.220966,-0.963623,-0.237793,-0.124268,-0.043646,-0.014324,-0.056100,0.999940,0.009379,-0.005554,-0.001105,-0.146004,-0.480894,0.083131,-0.860531
58738,NaN,3.170561,0.443940,-1.586865,-2.969955,0.547147,-7.903050,1.929702,-2.614553,0.267734,-0.965332,-0.242188,-0.096680,0.031903,0.004632,-0.015408,0.999867,0.009648,-0.013072,0.001339,-0.139233,-0.493334,0.077599,-0.855110
58739,NaN,8.664971,1.949898,2.839865,-2.245384,-1.268025,-0.852169,0.974532,-3.201771,0.380086,-0.961182,-0.235840,-0.062988,0.086142,0.019520,0.029876,0.999858,0.004872,-0.016008,0.001900,-0.133950,-0.507482,0.076588,-0.847734
58740,NaN,17.374370,6.389294,0.641553,-8.952032,-3.764331,5.959527,0.435626,-3.367987,0.251222,-0.965088,-0.246582,-0.035400,0.173521,0.064093,0.009478,0.999855,0.002178,-0.016839,0.001256,-0.130586,-0.521852,0.077845,-0.839380
58741,NaN,17.382418,8.007128,-5.976882,-14.611140,-3.758129,3.391000,1.498203,-3.083850,-0.018147,-0.960693,-0.244629,-0.003662,0.174719,0.080487,-0.056477,0.999853,0.007491,-0.015418,-0.000091,-0.125541,-0.535700,0.073512,-0.831782
58742,NaN,12.750011,5.235809,-5.358575,-11.027792,-2.076352,-0.182506,1.898169,-3.380420,-0.088540,-0.964600,-0.249023,0.040771,0.128399,0.052793,-0.050921,0.999812,0.009490,-0.016901,-0.000443,-0.119646,-0.550919,0.067656,-0.823162
58743,NaN,11.336530,1.035127,-0.456877,-4.633836,0.455422,0.584558,0.975474,-3.596335,-0.072388,-0.953857,-0.251221,0.068115,0.113426,0.010326,-0.002479,0.999826,0.004877,-0.017981,-0.000362,-0.116027,-0.566231,0.065581,-0.813400
58744,NaN,10.221189,0.382271,2.993230,-0.624493,0.062388,0.825743,1.196163,-2.880646,0.038156,-0.945312,-0.244873,0.087158,0.101766,0.003657,0.031422,0.999878,0.005981,-0.014403,0.000191,-0.111603,-0.578636,0.062637,-0.805483
58745,NaN,7.617011,1.446444,0.929251,-1.754275,-0.815197,-2.247640,1.319608,-2.046179,0.126757,-0.947510,-0.244873,0.114746,0.076060,0.014448,0.010166,0.999926,0.006598,-0.010231,0.000634,-0.106633,-0.587528,0.058827,-0.799987
58746,NaN,7.207681,0.981180,-2.986531,-4.997544,0.379940,-3.753918,1.888281,-2.516453,0.279895,-0.941162,-0.238525,0.142090,0.072430,0.010189,-0.028860,0.999875,0.009441,-0.012582,0.001399,-0.099280,-0.598526,0.053575,-0.793120
58747,NaN,8.504531,0.251833,-2.930089,-4.971421,1.069837,-2.389013,2.688578,-2.423729,0.474715,-0.937012,-0.230225,0.171631,0.085385,0.003105,-0.028228,0.999833,0.013442,-0.012118,0.002373,-0.088694,-0.609244,0.045528,-0.786691
58748,NaN,8.275015,-2.056536,-1.387978,-2.882911,2.902695,-2.203945,3.442713,-2.090216,0.666486,-0.935303,-0.210938,0.203125,0.082959,-0.020056,-0.013362,0.999792,0.017212,-0.010450,0.003332,-0.075154,-0.618818,0.035085,-0.781144
58749,NaN,8.049012,-3.810634,-1.934974,-3.028354,4.575953,-2.536750,3.099826,-2.248770,0.817121,-0.927002,-0.198242,0.230469,0.080859,-0.037480,-0.019026,0.999808,0.015498,-0.011243,0.004085,-0.061971,-0.628502,0.026345,-0.774888
58750,NaN,9.089410,-4.084456,-1.183845,-2.415644,4.696103,-1.279789,2.826857,-2.494544,0.929473,-0.923096,-0.181152,0.253662,0.091225,-0.040259,-0.011274,0.999812,0.014133,-0.012472,0.004647,-0.049215,-0.638918,0.019277,-0.767457
58751,NaN,10.061153,-2.397887,2.262505,0.730854,2.674271,0.405327,2.371976,-2.030268,0.657069,-0.912842,-0.168213,0.270264,0.100456,-0.023923,0.023361,0.999873,0.011859,-0.010151,0.003285,-0.038921,-0.647147,0.012771,-0.761264
58752,NaN,8.865509,-1.711741,1.494563,0.244490,1.963073,-0.876995,1.993639,-1.591817,0.587287,-0.915283,-0.159912,0.293701,0.088583,-0.017010,0.015481,0.999914,0.009968,-0.007959,0.002936,-0.030203,-0.653619,0.007629,-0.756183
58753,NaN,8.975404,-0.516932,-0.735656,-1.912715,0.841923,-1.037917,1.578314,-1.849699,0.510058,-0.904541,-0.157715,0.308350,0.089830,-0.004886,-0.006565,0.999923,0.007891,-0.009248,0.002550,-0.023051,-0.660780,0.003608,-0.750217
58754,NaN,8.816202,0.121371,-4.182263,-5.169681,0.249278,-1.539863,0.998036,-2.110018,0.443128,-0.896484,-0.142822,0.329346,0.088593,0.001615,-0.040882,0.999929,0.004990,-0.010550,0.002216,-0.018120,-0.668873,0.001822,-0.743153
58755,NaN,7.349429,-1.157300,-0.425396,-1.104884,1.314609,-2.561199,0.990204,-1.636453,0.821890,-0.892090,-0.140625,0.335693,0.073573,-0.011252,-0.003708,0.999946,0.004951,-0.008182,0.004109,-0.011745,-0.675000,0.001040,-0.737724
58756,NaN,8.106956,1.027256,-0.496528,-1.173057,-0.928004,-1.763726,0.979263,-1.262542,0.829735,-0.892578,-0.127930,0.352539,0.081055,0.010631,-0.004402,0.999959,0.004896,-0.006313,0.004149,-0.005437,-0.679811,0.000559,-0.733367
58757,NaN,8.377043,1.336888,-0.171591,-0.754528,-1.309331,-1.463661,1.105162,-1.304725,0.790489,-0.877930,-0.117188,0.360840,0.083725,0.013707,-0.001094,0.999956,0.005526,-0.006524,0.003952,0.001216,-0.684593,-0.000770,-0.728924
58758,NaN,9.459614,1.573438,0.240226,-0.293360,-1.613396,-0.361373,0.815157,-0.963944,0.689153,-0.880371,-0.106445,0.362793,0.094528,0.016049,0.002923,0.999974,0.004076,-0.004820,0.003446,0.006459,-0.688215,-0.001147,-0.725477
58759,NaN,9.413151,1.242091,1.151437,0.709484,-1.325846,-0.367370,0.222195,-0.841176,0.520097,-0.874023,-0.106445,0.371338,0.094049,0.012652,0.011924,0.999987,0.001111,-0.004206,0.002600,0.009099,-0.691254,-0.000190,-0.722555
58760,NaN,9.735247,0.606595,1.576077,1.211093,-0.732205,-0.033987,-0.079246,-1.131671,0.365352,-0.871826,-0.100098,0.385986,0.097250,0.006250,0.016309,0.999982,-0.000396,-0.005658,0.001827,0.010096,-0.695458,0.001528,-0.718494
58761,NaN,9.450854,1.292482,0.969676,0.735990,-1.450527,-0.363744,-0.197074,-1.242543,0.263048,-0.865479,-0.104492,0.394531,0.094429,0.013059,0.010271,0.999979,-0.000985,-0.006213,0.001315,0.010359,-0.699916,0.003088,-0.714143
58762,NaN,8.999268,1.686075,0.900424,0.799667,-1.862298,-0.838749,-0.116266,-1.341915,0.254926,-0.854736,-0.102295,0.396484,0.089908,0.016981,0.009598,0.999977,-0.000581,-0.006710,0.001275,0.010842,-0.704809,0.004530,-0.709299
58763,NaN,8.670982,0.641014,1.423723,1.435401,-0.827791,-1.159542,0.082392,-1.379893,0.281882,-0.850586,-0.100098,0.411377,0.086600,0.006526,0.014838,0.999975,0.000412,-0.006899,0.001409,0.012157,-0.709676,0.005157,-0.704405
58764,NaN,8.377498,0.295403,1.378287,1.507336,-0.500063,-1.467270,0.297444,-1.430260,0.345526,-0.846436,-0.095947,0.415527,0.083668,0.003078,0.014386,0.999972,0.001487,-0.007151,0.001728,0.014431,-0.714774,0.005433,-0.699185
58765,NaN,8.454806,0.449418,0.762605,1.018920,-0.689802,-1.401276,0.308651,-1.476604,0.390635,-0.838135,-0.087402,0.426025,0.084480,0.004647,0.008257,0.999970,0.001543,-0.007383,0.001953,0.016934,-0.719883,0.005644,-0.693866
58766,NaN,8.032788,-0.167286,0.611868,0.968431,-0.096126,-1.813960,0.401506,-1.495948,0.496362,-0.821289,-0.083252,0.436523,0.080283,-0.001487,0.006716,0.999967,0.002008,-0.007480,0.002482,0.020113,-0.725100,0.006087,-0.688323
58767,NaN,8.312192,-0.270806,0.672935,1.169615,-0.038681,-1.551481,0.440275,-1.642635,0.551298,-0.815186,-0.072510,0.451172,0.083070,-0.002495,0.007406,0.999960,0.002201,-0.008213,0.002756,0.023650,-0.730664,0.006406,-0.682297
58768,NaN,8.698960,-0.579286,0.226560,0.889252,0.196745,-1.139324,0.439808,-1.748060,0.601276,-0.806885,-0.066162,0.455322,0.086982,-0.005537,0.003014,0.999955,0.002199,-0.008740,0.003006,0.027337,-0.736614,0.007068,-0.675724
58769,NaN,9.270365,-0.698458,0.249419,1.120920,0.240436,-0.583784,0.478367,-1.913059,0.626720,-0.791992,-0.061768,0.474121,0.092696,-0.006701,0.003365,0.999946,0.002392,-0.009565,0.003134,0.031277,-0.742952,0.007498,-0.668571
58770,NaN,10.012709,-0.860597,0.762594,1.895110,0.330788,0.080341,0.672962,-2.072835,0.597152,-0.779297,-0.057617,0.489014,0.100066,-0.008335,0.008635,0.999936,0.003365,-0.010364,0.002986,0.035827,-0.749788,0.007315,-0.660667
58771,NaN,10.117106,-0.812652,1.971766,3.309089,0.292246,-0.021627,0.633333,-2.079072,0.541105,-0.771240,-0.042725,0.497314,0.100981,-0.007918,0.020743,0.999937,0.003167,-0.010395,0.002705,0.040056,-0.756478,0.006879,-0.652755
58772,NaN,10.211726,-0.708744,2.501663,4.041823,0.183918,-0.083004,0.691588,-1.862804,0.458686,-0.758545,-0.040527,0.509766,0.101895,-0.006942,0.025942,0.999948,0.003458,-0.009314,0.002293,0.044214,-0.762432,0.006156,-0.645527
58773,NaN,10.521272,-0.191153,2.408622,4.188257,-0.371174,0.129836,0.777688,-1.475129,0.396224,-0.752441,-0.029785,0.520264,0.105035,-0.001799,0.024854,0.999963,0.003888,-0.007376,0.001981,0.048495,-0.766983,0.004831,-0.639814
58774,NaN,10.862975,0.206790,0.656463,2.683094,-0.927729,0.695265,0.823607,-1.052501,0.303802,-0.752686,-0.023438,0.520264,0.108590,0.002204,0.007145,0.999977,0.004118,-0.005262,0.001519,0.052635,-0.770174,0.003274,-0.635650
58775,NaN,11.588812,0.431213,-0.391088,1.916842,-1.305124,1.556610,0.987975,-0.815340,0.248047,-0.744141,-0.017090,0.526611,0.115897,0.004474,-0.003417,0.999979,0.004940,-0.004077,0.001240,0.057234,-0.772487,0.000876,-0.632445
58776,NaN,11.577955,1.098092,-0.189231,2.251272,-1.974630,1.426647,1.069065,-0.611706,0.237322,-0.738281,-0.006348,0.522217,0.115771,0.011127,-0.001479,0.999980,0.005345,-0.003059,0.001187,0.062103,-0.774139,-0.001611,-0.629960
58777,NaN,12.136161,1.933143,0.243695,2.935259,-2.822037,1.784840,1.062848,-0.463512,0.229547,-0.738281,-0.004150,0.532715,0.121333,0.019456,0.002821,0.999983,0.005314,-0.002318,0.001148,0.066930,-0.775259,-0.004213,-0.628073
58778,NaN,12.121609,3.454795,0.412043,3.308153,-4.325744,1.561949,0.968198,-0.333440,0.186712,-0.734375,0.006592,0.528564,0.121177,0.034640,0.004490,0.999986,0.004841,-0.001667,0.000934,0.071251,-0.776005,-0.006518,-0.626655
58779,NaN,12.166976,4.591761,0.631942,3.710214,-5.433555,1.422498,0.809933,-0.199893,0.115340,-0.734619,0.015137,0.526367,0.121637,0.045961,0.006627,0.999991,0.004050,-0.000999,0.000577,0.074742,-0.776342,-0.008678,-0.625804
58780,NaN,12.472942,4.791806,0.692743,3.909063,-5.647258,1.669608,0.722535,-0.098645,0.051868,-0.730469,0.019531,0.521973,0.124713,0.047925,0.007162,0.999993,0.003613,-0.000493,0.000259,0.077697,-0.776395,-0.010706,-0.625348
58781,NaN,12.904446,4.005484,1.017767,4.267619,-4.852777,2.097071,0.677231,-0.062196,-0.010416,-0.724365,0.030273,0.519775,0.129043,0.040013,0.010353,0.999994,0.003386,-0.000311,-0.000052,0.080284,-0.776324,-0.012887,-0.625068
58782,NaN,13.102762,2.613261,1.540893,4.676780,-3.406452,2.328548,0.631958,-0.050059,-0.030781,-0.730713,0.025879,0.517822,0.131028,0.026064,0.015524,0.999995,0.003160,-0.000250,-0.000154,0.082631,-0.776223,-0.014992,-0.624840
58783,NaN,12.979767,1.476094,2.317083,5.271220,-2.146747,2.171793,0.562975,-0.009430,0.016423,-0.724609,0.034424,0.513428,0.129795,0.014706,0.023218,0.999996,0.002815,-0.000047,0.000082,0.084861,-0.776021,-0.016690,-0.624750
58784,NaN,12.479185,1.292563,3.020970,5.822191,-1.806831,1.561164,0.573321,0.033603,0.061151,-0.722656,0.036621,0.511230,0.124793,0.012877,0.030226,0.999996,0.002867,0.000168,0.000306,0.087272,-0.775658,-0.018251,-0.624824
58785,NaN,12.939357,2.463068,2.553223,5.624300,-3.060264,1.977759,0.616677,0.246668,0.025431,-0.724854,0.041016,0.502686,0.129422,0.024569,0.025448,0.999994,0.003083,0.001233,0.000127,0.089760,-0.774619,-0.019970,-0.625707
58786,NaN,13.481401,2.873348,1.678548,4.923935,-3.639419,2.650503,0.638266,0.465250,-0.075730,-0.725098,0.047363,0.500732,0.134864,0.028629,0.016563,0.999992,0.003191,0.002326,-0.000379,0.092033,-0.772826,-0.022099,-0.627520
58787,NaN,14.186643,1.890545,1.989233,5.169295,-2.660492,3.415754,0.491822,0.555469,-0.198706,-0.731445,0.045166,0.489990,0.141940,0.018716,0.019544,0.999993,0.002459,0.002777,-0.000994,0.093365,-0.770832,-0.024154,-0.629697
58788,NaN,14.176148,0.657769,3.121233,5.985060,-1.225644,3.371159,0.098083,0.684760,-0.296343,-0.735596,0.045410,0.483643,0.141877,0.006352,0.030730,0.999993,0.000490,0.003424,-0.001482,0.092885,-0.768533,-0.025367,-0.632524
58789,NaN,13.871935,1.207386,2.602789,5.389168,-1.814700,3.161308,-0.360372,1.044891,-0.338908,-0.735596,0.045410,0.477539,0.138873,0.011885,0.025281,0.999983,-0.001802,0.005224,-0.001695,0.090553,-0.765342,-0.025043,-0.636730
58790,NaN,13.786404,2.875287,0.490275,3.393655,-3.793417,3.327373,-0.525782,1.516452,-0.410615,-0.741943,0.038818,0.462646,0.137954,0.028481,0.003782,0.999966,-0.002629,0.007582,-0.002053,0.087413,-0.760596,-0.024350,-0.642853
58791,NaN,13.567186,3.776174,-1.940939,0.869790,-5.038414,3.451784,-0.605123,1.872411,-0.488839,-0.754639,0.034668,0.447998,0.135573,0.037369,-0.020792,0.999949,-0.003026,0.009362,-0.002444,0.083758,-0.754745,-0.023443,-0.650226
58792,NaN,11.717023,3.169966,-2.798740,-0.626539,-4.400360,1.823793,-0.605219,2.154982,-0.549840,-0.758789,0.024170,0.422607,0.116945,0.031291,-0.029343,0.999934,-0.003026,0.010775,-0.002749,0.079929,-0.747790,-0.022785,-0.658712
58793,NaN,11.403680,0.626587,-2.076332,-0.606455,-1.719358,1.650990,-0.801474,2.505397,-0.580716,-0.773438,0.021973,0.405762,0.113782,0.005848,-0.022214,0.999909,-0.004007,0.012527,-0.002903,0.075293,-0.739727,-0.021313,-0.668342
58794,NaN,11.593777,-1.939450,-2.612142,-1.775647,0.775313,2.071615,-0.841753,2.892331,-0.563237,-0.780029,0.020020,0.380615,0.115489,-0.019835,-0.027711,0.999883,-0.004209,0.014461,-0.002816,0.070598,-0.730145,-0.019657,-0.679351
58795,NaN,12.659047,-4.698242,-2.756529,-2.533375,3.465230,3.282553,-0.565140,3.020160,-0.596898,-0.794434,0.004883,0.357422,0.126015,-0.047440,-0.029338,0.999878,-0.002826,0.015100,-0.002984,0.066790,-0.719940,-0.018847,-0.690558
58796,NaN,12.595209,-6.745614,-2.592917,-2.983876,5.570840,3.260822,-0.230626,2.830044,-0.631781,-0.796387,-0.003418,0.338379,0.125355,-0.067884,-0.027628,0.999894,-0.001153,0.014150,-0.003159,0.064042,-0.710030,-0.019516,-0.700982
58797,NaN,13.477092,-7.011445,-3.105244,-3.845037,5.778314,4.052797,-0.201521,2.405018,-0.673081,-0.807129,-0.005615,0.315186,0.134148,-0.070599,-0.032597,0.999922,-0.001008,0.012025,-0.003365,0.061191,-0.701545,-0.020427,-0.709699
58798,NaN,13.889584,-6.735469,-2.110767,-3.134916,5.663352,4.358879,-0.142165,2.076530,-0.661192,-0.813477,-0.009766,0.302734,0.138443,-0.067829,-0.022499,0.999940,-0.000711,0.010382,-0.003306,0.058554,-0.694043,-0.021683,-0.717220
58799,NaN,14.933426,-6.483198,0.058928,-1.282420,5.664054,5.396117,-0.051766,2.079056,-0.617751,-0.823975,-0.016113,0.283691,0.149129,-0.065293,-0.000945,0.999941,-0.000259,0.010395,-0.003089,0.056375,-0.686497,-0.023030,-0.724578
58800,NaN,14.466460,-6.222480,3.230187,1.567314,5.826766,5.087374,0.209443,2.490387,-0.490570,-0.830322,-0.018311,0.266846,0.144898,-0.062613,0.030433,0.999919,0.001047,0.012452,-0.002453,0.055592,-0.677244,-0.024791,-0.733236
58801,NaN,13.172487,-5.018939,4.914061,3.075390,4.917154,3.942345,0.572696,2.790951,-0.450898,-0.834717,-0.016113,0.243652,0.132278,-0.050624,0.047153,0.999896,0.002863,0.013954,-0.002254,0.056213,-0.666728,-0.027637,-0.742664
58802,NaN,13.190719,-3.597055,4.501655,2.426209,3.504072,3.935750,1.222925,2.586502,-0.413664,-0.836670,-0.022461,0.228760,0.132398,-0.036511,0.043084,0.999896,0.006114,0.012932,-0.002068,0.059089,-0.656583,-0.032798,-0.751220
58803,NaN,13.076297,-2.668874,4.253588,1.952352,2.623362,3.807229,1.760501,2.000378,-0.339780,-0.839111,-0.018066,0.214111,0.131132,-0.027277,0.040987,0.999910,0.008802,0.010002,-0.001699,0.063909,-0.648435,-0.039930,-0.757531
58804,NaN,13.875149,-1.154966,4.776482,2.223758,1.235911,4.685069,1.651297,2.203577,-0.335501,-0.843262,-0.018066,0.195068,0.139246,-0.012168,0.046134,0.999904,0.008256,0.011018,-0.001677,0.068403,-0.639351,-0.046508,-0.764453
58805,NaN,13.048946,-0.490679,4.049823,1.418646,0.548324,3.773822,1.027591,2.481094,-0.297401,-0.847412,-0.024414,0.184570,0.130971,-0.005304,0.038849,0.999909,0.005138,0.012405,-0.001487,0.071116,-0.629390,-0.050532,-0.772177
58806,NaN,11.441661,-0.990399,3.425152,0.703336,0.978910,2.110461,-0.689308,2.914940,-0.010455,-0.851807,-0.024414,0.161133,0.114899,-0.009796,0.032613,0.999888,-0.003446,0.014574,-0.000052,0.069609,-0.618217,-0.046799,-0.781519
58807,NaN,11.278214,0.850908,0.206915,-2.363680,-1.402263,1.160140,-2.274966,2.692455,-0.092279,-0.855957,-0.035156,0.135986,0.112799,0.008468,0.000454,0.999845,-0.011374,0.013462,-0.000461,0.062830,-0.608372,-0.037249,-0.790284
58808,NaN,9.150338,2.509456,-2.766274,-4.735236,-3.326980,-1.801564,-1.959002,2.839703,-0.338282,-0.855713,-0.041504,0.114746,0.091138,0.024659,-0.029202,0.999850,-0.009795,0.014198,-0.001691,0.056030,-0.597525,-0.029578,-0.799344
58809,NaN,8.029999,2.881666,-3.731755,-5.548833,-3.694445,-3.311455,-1.337778,2.646566,-0.310726,-0.862061,-0.047852,0.087402,0.079840,0.028437,-0.038567,0.999889,-0.006689,0.013232,-0.001554,0.051171,-0.587211,-0.024413,-0.807446
58810,NaN,9.500061,2.511421,-3.463185,-6.034600,-3.323655,-1.997359,-1.789711,2.848568,-0.218708,-0.859863,-0.056152,0.070557,0.094520,0.024691,-0.036203,0.999858,-0.008948,0.014242,-0.001093,0.045359,-0.575996,-0.017068,-0.816015
58811,NaN,9.600832,1.681773,-4.664341,-7.525569,-2.473769,-2.464431,-3.041031,2.171508,-0.663557,-0.859375,-0.069092,0.053711,0.095546,0.015778,-0.047928,0.999820,-0.015204,0.010857,-0.003318,0.034066,-0.567666,-0.006074,-0.822531
58812,NaN,10.989152,1.158794,-3.745410,-7.443270,-1.760018,-1.002546,-3.125316,2.536175,-1.167454,-0.861328,-0.083984,0.026367,0.109466,0.010347,-0.039012,0.999780,-0.015625,0.012680,-0.005837,0.020459,-0.557580,0.003904,-0.829862
58813,NaN,7.688889,1.758318,-2.255332,-5.054347,-2.026010,-3.677679,-1.947159,3.107019,-1.057566,-0.856934,-0.092529,-0.005371,0.076615,0.016949,-0.023912,0.999818,-0.009735,0.015534,-0.005288,0.010573,-0.544807,0.009354,-0.838442
58814,NaN,6.547212,0.409216,1.084702,-1.764514,-0.577551,-3.428386,-1.178350,3.022486,-0.756071,-0.858887,-0.098877,-0.024170,0.065641,0.003904,0.009832,0.999861,-0.005891,0.015112,-0.003780,0.004050,-0.532162,0.012382,-0.846542
58815,NaN,6.165781,-0.519593,-0.255238,-2.970498,0.422315,-4.395361,-1.507075,2.765015,-0.596661,-0.858643,-0.109375,-0.058105,0.061599,-0.005403,-0.003364,0.999872,-0.007535,0.013824,-0.002983,-0.002662,-0.520459,0.017230,-0.853709
58816,NaN,5.494749,0.170796,-1.159404,-3.607237,-0.176019,-5.509142,-1.987005,2.526832,-0.600536,-0.854492,-0.109375,-0.079102,0.054800,0.001423,-0.012302,0.999866,-0.009935,0.012634,-0.003003,-0.010614,-0.509645,0.024101,-0.859982
58817,NaN,3.963936,0.350163,-1.249992,-3.050080,-0.284501,-6.981984,-1.925033,2.378215,-0.495907,-0.854492,-0.120117,-0.100098,0.039495,0.003280,-0.013002,0.999880,-0.009625,0.011891,-0.002479,-0.017942,-0.499316,0.030988,-0.865680
58818,NaN,2.539486,-0.797109,-1.071948,-2.158066,0.886396,-8.142285,-1.494733,2.104503,-0.377237,-0.847900,-0.126465,-0.117188,0.025265,-0.008100,-0.010926,0.999915,-0.007473,0.010522,-0.001886,-0.023632,-0.490122,0.036310,-0.870577
58819,NaN,2.441978,-2.624320,0.241407,-0.860671,2.610162,-7.498626,-1.263391,1.662278,-0.344053,-0.847900,-0.124268,-0.129883,0.024394,-0.026270,0.002377,0.999944,-0.006317,0.008311,-0.001720,-0.028531,-0.482772,0.040770,-0.874331
58820,NaN,3.112203,-2.843366,0.126914,-1.288014,2.852742,-6.986116,-1.771932,1.229862,-0.325771,-0.845947,-0.126221,-0.146729,0.031084,-0.028473,0.001330,0.999941,-0.008859,0.006149,-0.001629,-0.034488,-0.477222,0.047552,-0.876817
58821,NaN,3.961701,-2.364469,-0.712426,-2.483192,2.504734,-6.754369,-1.842948,0.973499,-0.399862,-0.833008,-0.128418,-0.150879,0.039535,-0.023789,-0.007098,0.999944,-0.009215,0.004867,-0.001999,-0.040873,-0.472705,0.054510,-0.878583
58822,NaN,4.416755,-2.450429,-0.635996,-2.644660,2.619305,-6.339690,-1.557043,0.930730,-0.533558,-0.833008,-0.132568,-0.172119,0.044072,-0.024672,-0.006374,0.999955,-0.007785,0.004654,-0.002668,-0.047163,-0.468473,0.059917,-0.880181
58823,NaN,3.248126,-2.450117,0.599049,-0.967098,2.423483,-6.634060,-1.354148,0.607858,-0.585100,-0.830811,-0.134766,-0.174072,0.032428,-0.024555,0.006058,0.999968,-0.006771,0.003039,-0.002925,-0.053096,-0.465640,0.064364,-0.881032
58824,NaN,3.074150,-1.857312,0.525581,-1.000366,1.853397,-6.856272,-1.142494,0.174849,-0.578811,-0.830811,-0.134766,-0.176270,0.030692,-0.018632,0.005335,0.999979,-0.005712,0.000874,-0.002894,-0.058383,-0.464803,0.068041,-0.880863
58825,NaN,3.442259,-1.195915,1.017801,-0.898675,1.139685,-6.318585,-0.850510,-0.109999,-0.565286,-0.822266,-0.143311,-0.176270,0.034383,-0.012013,0.010248,0.999987,-0.004253,-0.000550,-0.002826,-0.062816,-0.465226,0.070508,-0.880141
58826,NaN,3.816332,-1.122203,1.824578,-0.445506,0.943976,-5.562606,-0.566756,-0.336268,-0.570753,-0.820068,-0.145508,-0.169922,0.038100,-0.011279,0.018342,0.999990,-0.002834,-0.001681,-0.002854,-0.066553,-0.466789,0.071829,-0.878931
58827,NaN,4.535084,-0.740328,1.535551,-1.123615,0.671946,-5.148045,-0.359773,-0.397419,-0.611911,-0.815430,-0.151855,-0.174072,0.045297,-0.007514,0.015459,0.999992,-0.001799,-0.001987,-0.003060,-0.069944,-0.468632,0.072117,-0.877662
58828,NaN,2.822562,-1.160409,2.146883,0.421039,0.887665,-6.213072,-0.076671,-0.336047,-0.725923,-0.813477,-0.151855,-0.169922,0.028147,-0.011698,0.021521,0.999992,-0.000383,-0.001680,-0.003630,-0.073215,-0.470406,0.070925,-0.876543
58829,NaN,1.469133,-0.512028,3.679102,2.309749,-0.118437,-6.555818,-0.057699,-0.980710,-0.584254,-0.811035,-0.158447,-0.165527,0.014496,-0.005152,0.036864,0.999984,-0.000288,-0.004904,-0.002921,-0.075567,-0.474883,0.070165,-0.873986
58830,NaN,3.438351,-0.050619,3.923910,1.413386,-0.486387,-4.813967,-0.002757,-1.364040,-0.527642,-0.811035,-0.160645,-0.157227,0.034113,-0.000596,0.039472,0.999973,-0.000014,-0.006820,-0.002638,-0.077425,-0.481075,0.069495,-0.870484
58831,NaN,5.283545,0.446278,4.373916,0.809358,-0.928858,-3.050499,-0.007143,-1.661998,-0.581853,-0.808838,-0.160645,-0.140137,0.052482,0.004311,0.044176,0.999961,-0.000036,-0.008310,-0.002909,-0.079399,-0.488491,0.068771,-0.866224
58832,NaN,6.813292,0.727117,5.838046,1.334962,-1.371825,-1.016887,0.043225,-1.795589,-0.703832,-0.802246,-0.166992,-0.129639,0.067630,0.007020,0.058991,0.999953,0.000216,-0.008978,-0.003519,-0.081743,-0.496557,0.067626,-0.861497
58833,NaN,8.620852,0.716833,8.225937,2.656341,-1.673556,1.704148,0.103000,-1.866340,-0.844656,-0.799805,-0.169189,-0.114746,0.085465,0.006764,0.083063,0.999947,0.000515,-0.009332,-0.004223,-0.084495,-0.504898,0.065847,-0.856506
58834,NaN,10.294482,0.237886,10.997162,4.593565,-1.590078,4.446793,0.023877,-2.042361,-0.898627,-0.795410,-0.173584,-0.106445,0.101824,0.001906,0.111016,0.999938,0.000119,-0.010212,-0.004493,-0.087622,-0.513961,0.064375,-0.850895
58835,NaN,13.190821,0.903585,13.156084,5.290120,-2.421183,7.908531,-0.444671,-1.655091,-0.811440,-0.793213,-0.173584,-0.102051,0.130850,0.008798,0.132627,0.999955,-0.002223,-0.008275,-0.004057,-0.091685,-0.521046,0.064907,-0.846104
58836,NaN,16.402936,1.585446,15.543279,6.043189,-3.336988,11.762854,-0.737264,-1.009509,-0.558971,-0.795166,-0.182129,-0.095703,0.163287,0.015972,0.156200,0.999977,-0.003686,-0.005048,-0.002795,-0.095652,-0.525163,0.067057,-0.842946
58837,NaN,18.519369,0.795488,15.071145,4.987522,-2.337649,13.433795,-0.947080,0.016393,-0.443840,-0.786865,-0.179932,-0.097900,0.185224,0.008257,0.150658,0.999986,-0.004735,0.000082,-0.002219,-0.100018,-0.524784,0.069878,-0.842446
58838,NaN,17.398389,-0.165983,11.828501,2.755214,-0.818725,11.029080,-1.068909,1.032683,-0.402716,-0.776123,-0.179932,-0.116943,0.174589,-0.001382,0.117392,0.999970,-0.005344,0.005163,-0.002014,-0.104881,-0.520011,0.072811,-0.844563
58839,NaN,14.642303,-0.961233,9.712167,2.086477,0.162191,7.659035,-1.219750,1.597306,-0.341610,-0.778320,-0.186279,-0.133789,0.147177,-0.009275,0.096005,0.999948,-0.006099,0.007986,-0.001708,-0.110076,-0.512724,0.076236,-0.848048
58840,NaN,11.772263,-1.172084,9.832656,3.256161,0.012942,5.221649,-1.375049,1.875469,-0.290258,-0.774170,-0.182129,-0.152832,0.118622,-0.011221,0.097295,0.999931,-0.006875,0.009377,-0.001451,-0.115541,-0.504065,0.080291,-0.852128
