// Start Time: Unknown
// Update Rate: 100.0Hz
// Filter Profile: human (46.1)
// Firmware Version: 4.4.0
PacketCounter,SampleTimeFine,Acc_X,Acc_Y,Acc_Z,FreeAcc_X,FreeAcc_Y,FreeAcc_Z,Gyr_X,Gyr_Y,Gyr_Z,Mag_X,Mag_Y,Mag_Z,VelInc_X,VelInc_Y,VelInc_Z,OriInc_q0,OriInc_q1,OriInc_q2,OriInc_q3,Quat_q0,Quat_q1,Quat_q2,Quat_q3
19276,NaN,12.744809,3.211924,-1.504672,0.000000,-0.000000,3.416311,-0.101864,0.286056,1.694397,-0.683838,-0.200928,-0.138184,0.127148,0.033190,-0.015245,0.999963,-0.000509,0.001430,0.008472,0.662529,0.124207,-0.736338,-0.058604
19277,NaN,14.349752,3.513003,-2.510769,1.023994,-0.056086,5.137304,-0.016304,0.342863,1.862560,-0.688477,-0.186035,-0.140625,0.143119,0.036462,-0.025356,0.999955,-0.000082,0.001714,0.009313,0.668802,0.111624,-0.732656,-0.058814
19278,NaN,16.369832,5.355393,-3.905261,2.124076,1.637974,7.642913,-0.091604,0.298016,1.990560,-0.689209,-0.170898,-0.147217,0.163096,0.055161,-0.039321,0.999949,-0.000458,0.001490,0.009953,0.670496,0.104108,-0.732706,-0.052324
19279,NaN,19.763782,1.583183,-6.316975,4.562635,-2.266081,10.362792,-0.495755,0.196121,2.277628,-0.698486,-0.151611,-0.145508,0.197380,0.017924,-0.063406,0.999932,-0.002479,0.000981,0.011388,0.671528,0.094367,-0.733468,-0.046579
19280,NaN,23.143111,-1.107220,-5.704442,3.883389,-5.120011,13.166589,-0.312077,0.104365,2.569772,-0.700928,-0.138916,-0.145752,0.231519,-0.008187,-0.057151,0.999916,-0.001560,0.000522,0.012849,0.672600,0.083912,-0.734196,-0.039042
19281,NaN,22.761778,-0.414511,-5.657103,3.376348,-3.450901,13.142308,-0.215222,-0.063228,2.811541,-0.703613,-0.121582,-0.141602,0.227664,-0.001006,-0.056497,0.999901,-0.001076,-0.000316,0.014057,0.666972,0.068417,-0.741540,-0.024226
19282,NaN,22.733463,-4.353751,-4.640919,2.572359,-6.744968,12.662790,-0.010763,-0.072726,3.169099,-0.706543,-0.100342,-0.148438,0.228003,-0.039931,-0.046324,0.999874,-0.000054,-0.000364,0.015845,0.667006,0.056614,-0.742772,-0.013720
19283,NaN,23.947042,-5.493715,-4.085279,1.107972,-6.213262,14.279658,0.477838,-0.083548,3.311212,-0.711670,-0.078857,-0.142334,0.240352,-0.050865,-0.040877,0.999860,0.002389,-0.000418,0.016555,0.655025,0.031580,-0.754754,0.017069
19284,NaN,21.884283,-3.120863,-5.184011,2.233505,-2.930480,12.590602,0.925767,-0.204041,3.349899,-0.714600,-0.055176,-0.140625,0.219375,-0.027297,-0.051749,0.999848,0.004629,-0.001020,0.016749,0.653724,0.021983,-0.755758,0.031498
19285,NaN,20.089940,-0.092879,-5.387269,1.586670,2.256243,10.802435,1.092078,-0.306679,3.373675,-0.717529,-0.031738,-0.143066,0.200956,0.002754,-0.053556,0.999842,0.005460,-0.001533,0.016867,0.637524,-0.009321,-0.766866,0.073432
19286,NaN,18.107585,1.751312,-4.751451,1.060436,4.479128,8.416542,0.969315,-0.417485,3.338462,-0.720459,-0.014404,-0.143311,0.180846,0.020762,-0.047041,0.999847,0.004846,-0.002087,0.016691,0.634645,-0.018877,-0.767568,0.087798
19287,NaN,16.224138,2.174388,-3.427802,-0.604678,5.358636,6.017433,0.744930,-0.547990,3.281759,-0.716797,0.006836,-0.139404,0.161947,0.024529,-0.033746,0.999855,0.003724,-0.002740,0.016408,0.617121,-0.036168,-0.778569,0.108089
19288,NaN,14.513064,2.456982,-2.189652,-1.552556,5.628027,3.875127,0.559360,-0.663875,3.086981,-0.721680,0.021973,-0.135254,0.144799,0.026867,-0.021342,0.999871,0.002797,-0.003319,0.015434,0.612890,-0.046095,-0.779657,0.119897
19289,NaN,12.343568,3.109161,-1.533017,-1.974892,5.744395,1.477595,0.353969,-0.783491,2.831606,-0.722412,0.041260,-0.129150,0.123037,0.032862,-0.014791,0.999891,0.001770,-0.003917,0.014158,0.603531,-0.048113,-0.787045,0.118304
19290,NaN,10.180452,4.093313,-0.880939,-2.183973,6.408112,-1.133293,0.066381,-0.877542,2.593903,-0.729492,0.060547,-0.120850,0.101300,0.042252,-0.008350,0.999906,0.000332,-0.004388,0.012969,0.598503,-0.057596,-0.788956,0.126593
19291,NaN,8.681118,4.646015,-0.228336,-2.442548,6.292807,-2.641273,-0.222641,-0.986930,2.318157,-0.725586,0.073242,-0.118896,0.086275,0.047460,-0.001909,0.999920,-0.001113,-0.004935,0.011590,0.596852,-0.050744,-0.793139,0.110108
19292,NaN,7.502333,5.039728,0.394034,-2.767691,6.496138,-4.157949,-0.508676,-1.078359,2.014002,-0.723877,0.083984,-0.108398,0.074488,0.051160,0.004213,0.999932,-0.002543,-0.005392,0.010070,0.591297,-0.059652,-0.796071,0.114367
19293,NaN,5.776991,4.936373,0.947721,-2.707790,5.771104,-5.570036,-0.803463,-1.177783,1.680688,-0.730713,0.094727,-0.100098,0.057296,0.049885,0.009616,0.999939,-0.004017,-0.005889,0.008403,0.594582,-0.048588,-0.797660,0.088607
19294,NaN,4.544137,4.677571,0.997388,-2.387459,5.357763,-6.793228,-1.088050,-1.259538,1.352027,-0.733398,0.105469,-0.091553,0.045061,0.047136,0.010003,0.999943,-0.005440,-0.006298,0.006760,0.588661,-0.056654,-0.801512,0.088587
19295,NaN,3.678871,5.011142,1.117303,-2.143627,5.413103,-7.363898,-1.359603,-1.296342,1.011304,-0.733398,0.109619,-0.083008,0.036462,0.050372,0.011068,0.999943,-0.006798,-0.006482,0.005056,0.593747,-0.045344,-0.801219,0.058782
19296,NaN,2.982969,5.130031,1.292896,-2.059621,5.464381,-8.143906,-1.673159,-1.323067,0.708144,-0.733643,0.114014,-0.070312,0.029563,0.051512,0.012695,0.999937,-0.008366,-0.006615,0.003541,0.587822,-0.052756,-0.805428,0.054478
19297,NaN,2.474272,4.805797,1.426664,-1.911006,5.027994,-8.289588,-1.972111,-1.322567,0.415374,-0.736084,0.120361,-0.061768,0.024550,0.048248,0.013954,0.999927,-0.009860,-0.006613,0.002077,0.592574,-0.043782,-0.804031,0.021774
19298,NaN,2.236962,4.324499,1.319028,-1.687959,4.555425,-8.454921,-2.207122,-1.293066,0.139605,-0.735840,0.115967,-0.042480,0.022256,0.043404,0.012856,0.999918,-0.011035,-0.006465,0.000698,0.586829,-0.050738,-0.808005,0.013596
19299,NaN,1.787987,3.851449,1.247635,-1.388972,4.012488,-8.564738,-2.362808,-1.238369,-0.138859,-0.738037,0.115967,-0.031738,0.017831,0.038647,0.012131,0.999911,-0.011814,-0.006192,-0.000694,0.590766,-0.044028,-0.805391,-0.020081
19300,NaN,1.725222,3.531549,0.997053,-1.094882,3.686347,-8.526601,-2.459895,-1.165017,-0.392162,-0.733643,0.111816,-0.023193,0.017265,0.035402,0.009636,0.999905,-0.012299,-0.005825,-0.001961,0.585438,-0.049828,-0.808595,-0.030886
19301,NaN,1.771429,3.198241,0.797461,-0.841551,3.281309,-8.222993,-2.502299,-1.076427,-0.633935,-0.733643,0.107422,-0.014404,0.017774,0.032023,0.007670,0.999902,-0.012511,-0.005382,-0.003170,0.588089,-0.045705,-0.804983,-0.063760
19302,NaN,1.888643,2.802854,0.606369,-0.707098,2.855785,-8.042122,-2.496818,-0.968545,-0.851066,-0.735596,0.098877,-0.001465,0.018977,0.028021,0.005806,0.999901,-0.012484,-0.004843,-0.004255,0.583291,-0.049925,-0.807149,-0.076084
19303,NaN,2.046854,2.421803,0.377663,-0.524515,2.350052,-7.715236,-2.469964,-0.854389,-1.058912,-0.739502,0.088135,0.005127,0.020581,0.024154,0.003566,0.999901,-0.012349,-0.004272,-0.005294,0.584612,-0.046145,-0.802995,-0.106292
19304,NaN,2.353258,1.882781,0.064922,-0.414782,1.711404,-7.366102,-2.423380,-0.733828,-1.241765,-0.739014,0.077393,0.011719,0.023647,0.018688,0.000509,0.999901,-0.012116,-0.003669,-0.006209,0.580388,-0.048628,-0.804059,-0.119471
19305,NaN,2.658139,1.077291,-0.208489,-0.400055,0.724723,-7.058730,-2.317843,-0.592001,-1.416399,-0.740723,0.064453,0.020264,0.026663,0.010560,-0.002129,0.999903,-0.011589,-0.002960,-0.007082,0.580937,-0.044070,-0.799449,-0.146464
19306,NaN,3.238169,0.161042,-0.344253,-0.698636,-0.293840,-6.641653,-2.141246,-0.445389,-1.566948,-0.744629,0.049561,0.020508,0.032400,0.001320,-0.003386,0.999910,-0.010706,-0.002227,-0.007835,0.577485,-0.044349,-0.799447,-0.159463
19307,NaN,3.827488,-0.976085,-0.451096,-1.097696,-1.592914,-6.339497,-1.863796,-0.266367,-1.694060,-0.741943,0.032227,0.022949,0.038196,-0.010126,-0.004367,0.999920,-0.009319,-0.001332,-0.008470,0.577866,-0.039718,-0.794673,-0.181628
19308,NaN,4.349658,-1.862582,-0.637258,-1.385624,-2.617860,-6.068243,-1.584812,-0.109213,-1.781348,-0.743652,0.019531,0.029541,0.043332,-0.019062,-0.006199,0.999929,-0.007924,-0.000546,-0.008907,0.575458,-0.037315,-0.793846,-0.193037
19309,NaN,4.808245,-2.311485,-0.816737,-1.534354,-3.273475,-5.805405,-1.333774,0.003179,-1.833491,-0.736572,0.002197,0.029785,0.047867,-0.023608,-0.008012,0.999936,-0.006669,0.000016,-0.009167,0.576276,-0.034084,-0.789130,-0.209803
19310,NaN,5.274862,-2.497564,-0.972127,-1.646855,-3.663669,-5.468587,-1.190273,0.079085,-1.839044,-0.736084,-0.008545,0.030029,0.052512,-0.025517,-0.009591,0.999940,-0.005951,0.000395,-0.009195,0.574422,-0.030172,-0.787920,-0.219799
19311,NaN,5.858083,-3.024599,-0.968497,-2.040323,-4.331475,-5.178327,-1.100941,0.130266,-1.797445,-0.739990,-0.023438,0.021729,0.058299,-0.030824,-0.009554,0.999944,-0.005505,0.000651,-0.008987,0.575400,-0.029928,-0.783497,-0.232703
19312,NaN,6.322437,-3.893023,-0.974083,-2.503532,-5.289431,-5.140397,-0.981845,0.194899,-1.726596,-0.735107,-0.040527,0.032715,0.062875,-0.039521,-0.009609,0.999950,-0.004909,0.000974,-0.008633,0.573979,-0.025761,-0.782014,-0.241534
19313,NaN,6.815601,-4.730202,-1.304757,-2.706503,-6.299073,-4.962501,-0.852478,0.255610,-1.634354,-0.734375,-0.055664,0.028564,0.067750,-0.047912,-0.012931,0.999957,-0.004262,0.001278,-0.008172,0.575482,-0.029317,-0.777757,-0.251107
19314,NaN,7.241456,-5.486633,-1.510318,-2.951305,-7.227207,-4.926148,-0.733622,0.331588,-1.524606,-0.736084,-0.068359,0.022461,0.071968,-0.055471,-0.015020,0.999963,-0.003668,0.001658,-0.007623,0.574729,-0.025082,-0.776076,-0.258386
19315,NaN,7.649736,-5.984857,-1.618320,-3.262323,-7.761470,-4.706717,-0.648961,0.387689,-1.394892,-0.727051,-0.081299,0.020508,0.076046,-0.060432,-0.016135,0.999969,-0.003245,0.001938,-0.006974,0.576729,-0.033556,-0.771959,-0.265213
19316,NaN,8.213575,-6.699873,-1.942428,-3.441065,-8.735299,-4.523455,-0.630306,0.429421,-1.238691,-0.726562,-0.094238,0.018555,0.081677,-0.067567,-0.019388,0.999974,-0.003152,0.002147,-0.006193,0.576623,-0.030022,-0.770072,-0.271283
19317,NaN,8.444822,-7.462021,-2.287707,-3.670664,-9.474409,-4.428402,-0.582443,0.462469,-1.094812,-0.728760,-0.098389,0.018555,0.083985,-0.075147,-0.022853,0.999978,-0.002912,0.002312,-0.005474,0.578705,-0.044361,-0.765966,-0.276459
19318,NaN,8.689288,-7.552583,-2.483783,-3.630086,-9.766482,-4.321656,-0.585631,0.479403,-0.921572,-0.717773,-0.100586,0.012207,0.086484,-0.075998,-0.024823,0.999982,-0.002928,0.002397,-0.004608,0.579127,-0.041862,-0.763960,-0.281470
19319,NaN,9.410253,-7.980568,-2.888247,-3.942061,-10.279645,-3.537952,-0.585877,0.470148,-0.728726,-0.717529,-0.106934,0.008057,0.093743,-0.080232,-0.028868,0.999986,-0.002929,0.002351,-0.003644,0.580712,-0.062564,-0.759807,-0.285573
19320,NaN,9.934098,-8.425227,-3.159879,-4.079151,-10.957755,-3.259589,-0.511876,0.479865,-0.495034,-0.717041,-0.119873,0.006104,0.099056,-0.084579,-0.031620,0.999991,-0.002559,0.002399,-0.002475,0.581663,-0.061484,-0.757831,-0.289102
19321,NaN,10.255701,-8.438912,-3.324467,-4.379962,-10.779249,-2.596719,-0.450223,0.455047,-0.236313,-0.717041,-0.119873,0.003906,0.102381,-0.084585,-0.033287,0.999994,-0.002251,0.002275,-0.001182,0.582544,-0.088407,-0.753475,-0.291723
19322,NaN,10.363412,-8.297224,-3.438597,-4.247121,-10.769057,-2.460305,-0.387591,0.432551,0.031991,-0.717285,-0.117676,-0.000244,0.103573,-0.083022,-0.034449,0.999996,-0.001938,0.002163,0.000160,0.584047,-0.089025,-0.751632,-0.293280
19323,NaN,10.152781,-7.779342,-3.327906,-4.368278,-9.786694,-2.078945,-0.319467,0.416969,0.295237,-0.713135,-0.113525,-0.006836,0.101573,-0.077697,-0.033367,0.999995,-0.001597,0.002085,0.001476,0.583936,-0.121720,-0.746528,-0.294788
19324,NaN,9.870788,-7.172827,-3.205129,-4.041082,-9.174434,-2.154100,-0.333730,0.413559,0.538201,-0.717529,-0.109131,-0.013428,0.098834,-0.071516,-0.032136,0.999993,-0.001669,0.002068,0.002691,0.586066,-0.124093,-0.744495,-0.294712
19325,NaN,9.295817,-7.427700,-3.061024,-4.463667,-8.680406,-2.350880,-0.282787,0.425743,0.730056,-0.719727,-0.104736,-0.009033,0.093163,-0.073981,-0.030704,0.999990,-0.001414,0.002129,0.003650,0.584784,-0.161007,-0.737801,-0.296233
19326,NaN,7.995211,-6.790408,-3.107786,-3.677303,-8.044174,-3.373775,-0.307783,0.406721,0.855733,-0.713379,-0.102783,-0.009033,0.080179,-0.067609,-0.031137,0.999988,-0.001539,0.002034,0.004279,0.587297,-0.164459,-0.735458,-0.295190
19327,NaN,7.168581,-5.764851,-3.233122,-3.046919,-6.825771,-3.551705,-0.469129,0.366762,0.932286,-0.713623,-0.093994,-0.015625,0.071894,-0.057390,-0.032328,0.999985,-0.002346,0.001834,0.004661,0.584340,-0.203459,-0.726991,-0.297718
19328,NaN,6.272445,-4.697369,-2.963521,-2.327902,-5.772380,-4.204521,-0.605153,0.326374,0.975795,-0.713867,-0.087646,-0.015869,0.062905,-0.046757,-0.029596,0.999982,-0.003026,0.001632,0.004879,0.586353,-0.208284,-0.724131,-0.297393
19329,NaN,5.136407,-3.495623,-2.267986,-1.960575,-4.060735,-4.974071,-0.741545,0.302102,1.000053,-0.716309,-0.081299,-0.020264,0.051504,-0.034783,-0.022628,0.999979,-0.003708,0.001510,0.005000,0.581205,-0.247688,-0.714029,-0.301687
19330,NaN,4.022680,-2.423572,-1.489241,-1.501086,-2.730134,-5.996078,-0.865656,0.262668,0.987558,-0.714355,-0.076904,-0.020264,0.040327,-0.024101,-0.014841,0.999978,-0.004328,0.001313,0.004938,0.582547,-0.253328,-0.710720,-0.302226
19331,NaN,1.427702,1.265093,-5.987226,4.469925,-3.687121,-7.381636,-1.509405,0.022613,0.781405,-0.712158,-0.074707,-0.022461,0.014222,0.012254,-0.059967,0.999964,-0.007547,0.000113,0.003907,0.573857,-0.291717,-0.699635,-0.310001
19332,NaN,4.116020,4.294055,-7.168342,6.993866,-2.656257,-4.263646,-2.851882,-0.405199,0.359089,-0.714111,-0.079102,-0.018066,0.041230,0.041987,-0.072203,0.999895,-0.014259,-0.002026,0.001795,0.568776,-0.301754,-0.695779,-0.318323
19333,NaN,8.055591,-8.994384,-9.770559,-3.298397,-12.332208,-0.965062,-2.741072,-0.420234,0.217149,-0.708252,-0.066162,-0.018311,0.080858,-0.091182,-0.096292,0.999903,-0.013705,-0.002101,0.001086,0.553784,-0.336994,-0.686114,-0.330159
19334,NaN,6.650486,-2.155227,-12.488799,3.697223,-10.921393,-1.334040,-2.552217,-0.566051,-0.217898,-0.709961,-0.074951,-0.009521,0.066833,-0.023215,-0.124410,0.999914,-0.012761,-0.002830,-0.001089,0.547135,-0.344219,-0.683777,-0.338535
19335,NaN,21.289254,-3.309449,-8.574890,-2.243683,-6.068654,12.454853,-0.664577,-0.523368,-0.994520,-0.711670,-0.089844,-0.013672,0.212947,-0.034437,-0.085079,0.999979,-0.003323,-0.002617,-0.004973,0.529392,-0.372600,-0.678538,-0.347130
19336,NaN,17.773293,7.583200,-1.036303,4.136226,5.201610,8.361500,0.667549,-0.051907,-0.892491,-0.705322,-0.089844,-0.011475,0.178072,0.075072,-0.010065,0.999984,0.003338,-0.000260,-0.004462,0.528903,-0.367890,-0.681486,-0.347125
19337,NaN,19.752031,5.997428,2.686126,1.081242,8.327400,9.234929,0.393691,-0.042985,-0.392399,-0.702881,-0.098389,-0.013428,0.197632,0.059534,0.027021,0.999996,0.001968,-0.000215,-0.001962,0.516116,-0.391313,-0.675988,-0.351481
19338,NaN,21.662548,3.966927,3.785926,-1.562378,8.680398,10.718879,0.390656,0.208356,-0.114890,-0.702881,-0.094238,-0.015625,0.216688,0.039471,0.037711,0.999997,0.001953,0.001042,-0.000574,0.517382,-0.389550,-0.676359,-0.350863
19339,NaN,21.065728,-1.898510,5.919799,-7.207860,8.366744,9.173016,0.293791,0.371594,0.199210,-0.700684,-0.096191,-0.015625,0.210786,-0.018862,0.058779,0.999997,0.001469,0.001858,0.000996,0.510465,-0.406730,-0.669857,-0.353960
19340,NaN,18.018117,-2.588310,5.910985,-7.313643,7.463321,6.221659,0.193821,0.385069,0.390496,-0.707275,-0.092041,-0.022217,0.180345,-0.025588,0.058738,0.999996,0.000969,0.001925,0.001952,0.512838,-0.406860,-0.668420,-0.353095
19341,NaN,12.572768,-0.323490,2.095986,-2.718449,4.181169,1.921857,-0.037982,0.433263,0.528161,-0.703125,-0.085449,-0.026367,0.125781,-0.002899,0.020688,0.999994,-0.000190,0.002166,0.002641,0.510567,-0.419593,-0.661176,-0.355118
19342,NaN,7.175557,-1.148404,-2.950871,-0.831749,-1.732799,-2.208703,-0.307840,0.420281,0.474053,-0.707520,-0.083252,-0.028564,0.071720,-0.011360,-0.029642,0.999994,-0.001539,0.002101,0.002370,0.512149,-0.421198,-0.658558,-0.355805
19343,NaN,6.050143,-3.376602,-5.260191,-1.915992,-4.829423,-2.835518,-0.278621,0.424149,0.327082,-0.707520,-0.081299,-0.030762,0.060445,-0.033740,-0.052683,0.999995,-0.001393,0.002121,0.001635,0.510238,-0.431347,-0.651981,-0.358494
19344,NaN,5.149527,-3.881376,-5.034207,-2.360183,-5.006972,-3.788930,-0.148749,0.459117,0.067294,-0.705566,-0.081299,-0.032959,0.051393,-0.038834,-0.050431,0.999997,-0.000744,0.002296,0.000336,0.511533,-0.431122,-0.650396,-0.359796
19345,NaN,6.700427,-3.388149,-3.347413,-2.694095,-2.900073,-2.607705,-0.075651,0.415859,-0.163763,-0.701172,-0.083252,-0.030762,0.066907,-0.033949,-0.033600,0.999997,-0.000378,0.002079,-0.000819,0.508145,-0.440415,-0.644729,-0.363522
19346,NaN,9.038601,-2.843343,-2.204572,-2.798761,-1.237862,-0.578215,-0.018318,0.382023,-0.331272,-0.707520,-0.081299,-0.035156,0.090296,-0.028585,-0.022216,0.999997,-0.000092,0.001910,-0.001656,0.508733,-0.438698,-0.644452,-0.365263
19347,NaN,11.052860,-1.317866,-2.029986,-1.591078,-0.086260,1.389279,0.075281,0.334198,-0.424781,-0.700684,-0.092041,-0.034912,0.110466,-0.013406,-0.020490,0.999996,0.000376,0.001671,-0.002124,0.505250,-0.446297,-0.639985,-0.368729
19348,NaN,11.922963,-0.109423,-2.679380,-0.355696,-0.165849,2.401802,0.141309,0.295080,-0.446914,-0.705078,-0.091797,-0.043457,0.119187,-0.001342,-0.026971,0.999996,0.000707,0.001475,-0.002235,0.505684,-0.443965,-0.640495,-0.370062
19349,NaN,12.612862,0.739057,-2.469432,0.347363,0.473262,3.047472,0.229979,0.240446,-0.411935,-0.700684,-0.096191,-0.045654,0.126114,0.007159,-0.024838,0.999996,0.001150,0.001202,-0.002060,0.502972,-0.449864,-0.637184,-0.372342
19350,NaN,12.939328,0.765358,-1.441248,-0.004540,1.463065,3.146804,0.254322,0.171871,-0.334895,-0.706787,-0.104736,-0.043457,0.129393,0.007455,-0.014514,0.999997,0.001272,0.000859,-0.001674,0.503467,-0.447837,-0.637976,-0.372759
19351,NaN,12.727243,0.054592,-0.676254,-0.841735,1.950011,2.754407,0.266689,0.121926,-0.231317,-0.696045,-0.102539,-0.041260,0.127269,0.000408,-0.006840,0.999998,0.001333,0.000610,-0.001157,0.501623,-0.452654,-0.635458,-0.373726
19352,NaN,12.242792,-0.061359,-0.565140,-0.960194,1.901400,2.256769,0.250374,0.079895,-0.147354,-0.702637,-0.098389,-0.043457,0.122425,-0.000697,-0.005701,0.999999,0.001252,0.000399,-0.000737,0.502168,-0.451409,-0.636058,-0.373480
19353,NaN,11.868785,-0.215137,-1.534399,-0.733860,0.910940,2.099506,0.231878,0.085054,-0.098556,-0.700439,-0.102539,-0.045410,0.118680,-0.002192,-0.015397,0.999999,0.001159,0.000425,-0.000493,0.501800,-0.454527,-0.634262,-0.373247
19354,NaN,11.331856,-0.631479,-2.776148,-0.716310,-0.494403,1.838886,0.297555,0.122445,-0.082577,-0.700439,-0.100586,-0.045410,0.113299,-0.006320,-0.027840,0.999999,0.001488,0.000612,-0.000413,0.502710,-0.453290,-0.634697,-0.372787
19355,NaN,10.763646,-0.821326,-3.040808,-0.726775,-0.897466,1.342736,0.434960,0.157929,-0.122772,-0.698242,-0.100586,-0.047607,0.107607,-0.008213,-0.030511,0.999997,0.002175,0.000790,-0.000614,0.503529,-0.454692,-0.633631,-0.371787
19356,NaN,10.489628,-0.589470,-2.579419,-0.617218,-0.473131,0.977508,0.550558,0.172674,-0.154892,-0.702637,-0.100586,-0.047607,0.104869,-0.005905,-0.025901,0.999996,0.002753,0.000863,-0.000774,0.505039,-0.452492,-0.634569,-0.370822
19357,NaN,10.397190,-0.376399,-1.843717,-0.592382,0.265334,0.733457,0.596163,0.167387,-0.198364,-0.700195,-0.109131,-0.049561,0.103953,-0.003812,-0.018535,0.999995,0.002981,0.000837,-0.000992,0.506220,-0.452879,-0.634148,-0.369457
19358,NaN,10.520372,-0.224703,-1.435067,-0.589469,0.693766,0.768395,0.592743,0.177662,-0.234265,-0.700195,-0.104736,-0.053955,0.105188,-0.002328,-0.014451,0.999995,0.002964,0.000888,-0.001171,0.507691,-0.450306,-0.635319,-0.368570
19359,NaN,10.153735,0.071882,-1.363503,-0.275075,0.779227,0.399057,0.556254,0.183892,-0.242511,-0.700195,-0.106934,-0.053955,0.101526,0.000634,-0.013727,0.999995,0.002781,0.000919,-0.001213,0.509273,-0.449691,-0.635323,-0.367130
19360,NaN,9.621316,0.190577,-1.598309,-0.057253,0.475047,-0.069400,0.529125,0.158765,-0.241959,-0.700195,-0.109131,-0.049561,0.096203,0.001832,-0.016055,0.999995,0.002646,0.000794,-0.001210,0.510521,-0.447282,-0.636431,-0.366419
19361,NaN,9.776054,0.150267,-1.749528,-0.036538,0.347275,0.113676,0.506621,0.151134,-0.239863,-0.702393,-0.109131,-0.051758,0.097749,0.001430,-0.017565,0.999996,0.002533,0.000756,-0.001199,0.512271,-0.446077,-0.636798,-0.364803
19362,NaN,9.463047,0.079053,-1.732341,-0.093855,0.260854,-0.196055,0.509502,0.138599,-0.238823,-0.706543,-0.111084,-0.049561,0.094619,0.000722,-0.017387,0.999996,0.002548,0.000693,-0.001194,0.513412,-0.443758,-0.637902,-0.364099
19363,NaN,9.606230,0.186942,-1.980377,0.098840,0.091525,-0.003594,0.523553,0.125861,-0.225318,-0.702393,-0.109131,-0.051758,0.096052,0.001813,-0.019859,0.999996,0.002618,0.000629,-0.001127,0.515306,-0.442138,-0.638560,-0.362235
19364,NaN,9.295912,0.331146,-2.132488,0.305177,-0.069087,-0.274699,0.521382,0.094818,-0.175658,-0.702148,-0.111084,-0.053955,0.092952,0.003285,-0.021360,0.999996,0.002607,0.000474,-0.000878,0.516442,-0.440062,-0.639645,-0.361230
19365,NaN,8.979683,0.756770,-2.518980,0.883060,-0.330577,-0.503359,0.399924,0.065210,-0.130650,-0.704102,-0.119629,-0.051758,0.089794,0.007559,-0.025204,0.999998,0.002000,0.000326,-0.000653,0.517976,-0.439024,-0.640115,-0.359460
19366,NaN,8.561938,1.387451,-2.790366,1.595360,-0.434874,-0.852573,0.067932,-0.022207,-0.099348,-0.704102,-0.117676,-0.051758,0.085629,0.013841,-0.027889,1.000000,0.000340,-0.000111,-0.000497,0.517876,-0.438571,-0.640512,-0.359450
19367,NaN,8.249963,0.433808,-1.861941,0.416472,0.026171,-1.354391,0.004134,-0.057061,-0.016084,-0.701904,-0.117676,-0.051758,0.082505,0.004332,-0.018596,1.000000,0.000021,-0.000285,-0.000080,0.517836,-0.439559,-0.640197,-0.358861
19368,NaN,8.045394,0.147369,-2.323366,0.325072,-0.532196,-1.460490,0.088051,-0.046767,0.033905,-0.702148,-0.111084,-0.053955,0.080459,0.001498,-0.023214,1.000000,0.000440,-0.000234,0.000170,0.517941,-0.439525,-0.640401,-0.358388
19369,NaN,7.690611,0.384950,-2.145483,0.528553,-0.337638,-1.843785,0.108628,-0.072930,0.081177,-0.702148,-0.113281,-0.058105,0.076912,0.003892,-0.021425,1.000000,0.000543,-0.000365,0.000406,0.518081,-0.440657,-0.640087,-0.357354
19370,NaN,7.714297,0.135645,-1.997083,0.249860,-0.275086,-1.851595,0.104372,-0.113600,0.150710,-0.706543,-0.111084,-0.056152,0.077153,0.001425,-0.019926,0.999999,0.000522,-0.000568,0.000754,0.518218,-0.441072,-0.640235,-0.356378
19371,NaN,8.033820,0.446262,-2.048165,0.556505,-0.124907,-1.529509,0.055802,-0.130982,0.233750,-0.704346,-0.109131,-0.053955,0.080346,0.004562,-0.020428,0.999999,0.000279,-0.000655,0.001169,0.518142,-0.443048,-0.639599,-0.355177
19372,NaN,8.167375,0.971565,-2.105184,1.074833,0.054779,-1.391083,-0.025823,-0.154341,0.310000,-0.706543,-0.109131,-0.051758,0.081675,0.009840,-0.020990,0.999998,-0.000129,-0.000772,0.001550,0.518141,-0.444381,-0.639265,-0.354113
19373,NaN,8.647000,1.309379,-2.410878,1.493668,0.019186,-0.864732,-0.177980,-0.179760,0.393101,-0.706787,-0.104736,-0.045410,0.086466,0.013242,-0.024043,0.999997,-0.000890,-0.000899,0.001966,0.517481,-0.447644,-0.637948,-0.353343
19374,NaN,8.633466,1.492674,-2.378614,1.681084,0.133304,-0.891999,-0.314185,-0.213207,0.494836,-0.702637,-0.096191,-0.043457,0.086323,0.015103,-0.023718,0.999995,-0.001571,-0.001066,0.002474,0.516970,-0.450411,-0.636833,-0.352585
19375,NaN,8.332193,1.424840,-2.483961,1.705403,-0.020094,-1.168804,-0.463777,-0.262298,0.612306,-0.704834,-0.100586,-0.045654,0.083310,0.014446,-0.024764,0.999992,-0.002319,-0.001311,0.003062,0.515429,-0.455510,-0.634589,-0.352336
19376,NaN,9.254911,-0.780540,-2.430372,-0.403372,-0.480014,-0.232712,-0.463592,-0.252034,0.655198,-0.709473,-0.089844,-0.045654,0.092605,-0.007558,-0.024169,0.999991,-0.002318,-0.001260,0.003276,0.514724,-0.459224,-0.632923,-0.351540
19377,NaN,9.699355,-1.320036,-1.686404,-1.133489,0.183192,0.053680,-0.380154,-0.229863,0.677909,-0.711670,-0.089844,-0.041504,0.097057,-0.012903,-0.016728,0.999992,-0.001901,-0.001149,0.003390,0.513393,-0.464386,-0.630470,-0.351114
19378,NaN,9.677033,-0.701726,-1.011748,-0.714235,1.044022,-0.140020,-0.324550,-0.233154,0.706425,-0.703125,-0.085449,-0.041504,0.096806,-0.006692,-0.009994,0.999992,-0.001623,-0.001166,0.003532,0.513141,-0.467852,-0.628852,-0.349779
19379,NaN,10.213925,-1.291239,-0.701891,-1.326621,1.323209,0.334869,-0.285032,-0.232141,0.723782,-0.707764,-0.076904,-0.043701,0.102193,-0.012552,-0.006882,0.999992,-0.001425,-0.001161,0.003619,0.512643,-0.472150,-0.626798,-0.348420
19380,NaN,10.289998,-0.580728,-0.472850,-0.664217,1.822129,0.320576,-0.241080,-0.224673,0.753736,-0.705811,-0.070557,-0.035400,0.102926,-0.005425,-0.004606,0.999992,-0.001205,-0.001123,0.003769,0.512679,-0.475518,-0.625168,-0.346709
19381,NaN,10.717070,0.644043,-0.678541,0.628334,2.160966,0.707084,-0.312495,-0.243311,0.800773,-0.705811,-0.068359,-0.037354,0.107152,0.006859,-0.006666,0.999990,-0.001562,-0.001217,0.004004,0.512967,-0.479058,-0.623445,-0.344506
19382,NaN,11.105791,0.447073,-1.330749,0.712720,1.642828,1.237280,-0.448087,-0.225744,0.866671,-0.710693,-0.053467,-0.029053,0.111052,0.004922,-0.013193,0.999987,-0.002240,-0.001129,0.004333,0.512677,-0.483293,-0.621168,-0.343133
19383,NaN,11.281345,-0.763490,-2.112749,-0.115732,0.654460,1.670903,-0.461876,-0.206931,0.923833,-0.706299,-0.055420,-0.031250,0.112869,-0.007162,-0.020994,0.999986,-0.002309,-0.001035,0.004619,0.513242,-0.486915,-0.619105,-0.340889
19384,NaN,10.934797,-1.471439,-2.342870,-0.638614,0.202383,1.446724,-0.363442,-0.181255,0.941667,-0.706543,-0.049072,-0.031250,0.109437,-0.014242,-0.023303,0.999987,-0.001817,-0.000906,0.004708,0.513396,-0.491066,-0.616649,-0.339150
19385,NaN,9.890934,-1.143107,-2.815822,-0.104110,-0.360835,0.527738,-0.276413,-0.164892,0.961610,-0.707031,-0.038330,-0.027100,0.098986,-0.010994,-0.028061,0.999987,-0.001382,-0.000824,0.004808,0.514711,-0.494032,-0.614808,-0.336179
19386,NaN,9.732599,-1.272674,-2.905903,-0.125564,-0.474752,0.412067,-0.219442,-0.176864,0.966644,-0.705078,-0.029785,-0.027344,0.097412,-0.012288,-0.028959,0.999987,-0.001097,-0.000884,0.004833,0.515244,-0.497861,-0.612497,-0.333924
19387,NaN,9.891228,-0.528348,-2.939908,0.686834,-0.209077,0.494709,-0.162204,-0.161321,0.973918,-0.713867,-0.025391,-0.027344,0.098960,-0.004825,-0.029315,0.999987,-0.000811,-0.000807,0.004870,0.516664,-0.500775,-0.610665,-0.330713
19388,NaN,10.466597,-0.497727,-3.087583,0.867743,-0.137009,1.075744,-0.168165,-0.139268,1.008870,-0.709717,-0.021240,-0.023193,0.104711,-0.004475,-0.030799,0.999987,-0.000841,-0.000696,0.005044,0.517480,-0.504515,-0.608211,-0.328266
19389,NaN,10.629294,-1.218656,-2.882081,0.225549,-0.057333,1.265142,-0.141769,-0.106570,1.023341,-0.705566,-0.014893,-0.023193,0.106369,-0.011663,-0.028756,0.999987,-0.000709,-0.000533,0.005117,0.518879,-0.507747,-0.605929,-0.325281
19390,NaN,10.314199,-2.022207,-2.811673,-0.482103,-0.255283,1.053730,-0.077392,-0.077499,1.008239,-0.712402,-0.006104,-0.023438,0.103253,-0.019713,-0.028069,0.999987,-0.000387,-0.000387,0.005041,0.520082,-0.511123,-0.603435,-0.322698
19391,NaN,9.682623,-2.349132,-2.715585,-0.764857,-0.393044,0.478364,-0.006669,-0.072522,0.976291,-0.708252,0.000244,-0.027832,0.096949,-0.023019,-0.027120,0.999988,-0.000033,-0.000363,0.004881,0.521770,-0.513846,-0.601343,-0.319538
19392,NaN,9.662560,-2.241249,-2.372326,-0.679225,-0.015161,0.363456,0.036827,-0.096671,0.922402,-0.708496,0.006592,-0.023682,0.096739,-0.021962,-0.023681,0.999989,0.000184,-0.000483,0.004612,0.523043,-0.516673,-0.599277,-0.316768
19393,NaN,10.219874,-2.181292,-2.096420,-0.570358,0.452031,0.820678,0.070367,-0.105468,0.867616,-0.708740,0.010986,-0.023682,0.102303,-0.021362,-0.020918,0.999990,0.000352,-0.000527,0.004338,0.524702,-0.518821,-0.597708,-0.313461
19394,NaN,10.455626,-1.173468,-1.777082,0.396450,1.119979,0.791221,0.070787,-0.113062,0.883500,-0.713379,0.023682,-0.021729,0.104617,-0.011266,-0.017716,0.999990,0.000354,-0.000565,0.004417,0.525928,-0.521448,-0.595817,-0.310634
19395,NaN,10.700486,-1.012014,-2.058372,0.751073,1.014665,1.057776,0.068450,-0.104288,0.914698,-0.707031,0.025879,-0.021729,0.107060,-0.009624,-0.020531,0.999989,0.000342,-0.000521,0.004573,0.527778,-0.523479,-0.594257,-0.307047
19396,NaN,10.919868,-1.380387,-2.381629,0.619874,0.724820,1.408302,0.092881,-0.067764,0.939771,-0.713867,0.036621,-0.021973,0.109270,-0.013279,-0.023786,0.999989,0.000464,-0.000339,0.004699,0.529258,-0.526126,-0.592111,-0.304109
19397,NaN,10.793482,-2.097402,-2.538207,0.078258,0.387398,1.464890,0.087135,-0.009350,0.919609,-0.707764,0.045166,-0.026367,0.108031,-0.020466,-0.025386,0.999989,0.000436,-0.000047,0.004598,0.531409,-0.527901,-0.590334,-0.300717
19398,NaN,10.727760,-3.459746,-2.643032,-1.085620,-0.058296,1.713698,0.113967,0.068425,0.833585,-0.707764,0.047363,-0.021973,0.107411,-0.034135,-0.026487,0.999991,0.000570,0.000342,0.004168,0.533161,-0.529952,-0.588117,-0.298343
19399,NaN,10.339120,-3.228392,-2.868919,-0.753560,-0.314373,1.362435,0.178389,0.143439,0.713599,-0.705811,0.049561,-0.026367,0.103485,-0.031889,-0.028792,0.999993,0.000892,0.000717,0.003568,0.535742,-0.530532,-0.586673,-0.295518
19400,NaN,10.862686,-3.234158,-2.906044,-0.595750,-0.189601,1.871125,0.221881,0.227369,0.574707,-0.708008,0.055908,-0.028564,0.108686,-0.031997,-0.029220,0.999995,0.001109,0.001137,0.002874,0.537845,-0.531286,-0.584863,-0.293927
19401,NaN,11.362052,-3.297434,-3.047085,-0.460461,-0.203716,2.393872,0.280065,0.312512,0.415228,-0.708252,0.058105,-0.026611,0.113641,-0.032696,-0.030694,0.999996,0.001400,0.001563,0.002076,0.540745,-0.530461,-0.583902,-0.292000
19402,NaN,12.100759,-2.593364,-3.459408,0.502322,-0.203413,3.025819,0.358662,0.408498,0.252945,-0.710449,0.062500,-0.030762,0.120969,-0.025718,-0.034887,0.999996,0.001793,0.002042,0.001265,0.543256,-0.529632,-0.582646,-0.291350
19403,NaN,13.143700,-2.130539,-3.567836,1.185100,0.080719,3.920994,0.410108,0.492886,0.083577,-0.705811,0.055908,-0.037109,0.131357,-0.021177,-0.036046,0.999995,0.002051,0.002464,0.000418,0.546418,-0.527375,-0.582143,-0.290538
19404,NaN,15.012700,-1.927959,-3.468120,1.666142,0.702390,5.609888,0.534025,0.573984,-0.103948,-0.701904,0.064453,-0.039307,0.150017,-0.019264,-0.035163,0.999992,0.002670,0.002870,-0.000520,0.549342,-0.524777,-0.581619,-0.290778
19405,NaN,16.213020,-1.323597,-2.993813,2.275299,1.552247,6.496492,0.761582,0.600852,-0.315842,-0.703857,0.055908,-0.043701,0.162018,-0.013377,-0.030476,0.999987,0.003808,0.003004,-0.001579,0.552937,-0.520455,-0.582189,-0.290592
19406,NaN,16.739209,-0.266694,-2.136514,3.035336,2.676497,6.572025,1.086755,0.604231,-0.504227,-0.708008,0.058105,-0.054443,0.167319,-0.002971,-0.021886,0.999977,0.005434,0.003021,-0.002521,0.556780,-0.515094,-0.583395,-0.290387
19407,NaN,17.126686,1.494953,-1.404096,4.421152,3.873039,6.404017,1.420397,0.596167,-0.647563,-0.709961,0.051758,-0.060791,0.171272,0.014497,-0.014447,0.999965,0.007102,0.002981,-0.003238,0.561435,-0.507948,-0.585704,-0.289363
19408,NaN,17.239970,3.362095,-0.978957,5.934142,4.794746,6.038931,1.769893,0.611407,-0.722352,-0.712158,0.049561,-0.060791,0.172489,0.033086,-0.010022,0.999950,0.008849,0.003057,-0.003612,0.566648,-0.499955,-0.588352,-0.287745
19409,NaN,16.153645,5.627060,-1.253223,7.865051,4.980435,4.592527,2.187180,0.633061,-0.666268,-0.705322,0.043213,-0.064941,0.161684,0.055868,-0.012431,0.999930,0.010936,0.003165,-0.003331,0.573073,-0.490365,-0.591600,-0.284848
19410,NaN,13.775264,8.666132,-1.414274,10.277432,5.368964,1.694134,2.498517,0.666677,-0.555285,-0.707275,0.036865,-0.073242,0.137947,0.086450,-0.013521,0.999913,0.012492,0.003333,-0.002776,0.580331,-0.480572,-0.594557,-0.280657
19411,NaN,13.934398,9.556053,-0.964062,10.820451,6.242938,1.604686,2.632369,0.664345,-0.307612,-0.709473,0.036865,-0.081787,0.139461,0.095466,-0.008847,0.999907,0.013161,0.003322,-0.001538,0.587636,-0.471143,-0.596919,-0.276399
19412,NaN,15.707504,5.633013,-1.057420,7.581041,5.094879,4.192470,2.534668,0.618663,0.018761,-0.707031,0.032471,-0.092529,0.157038,0.056477,-0.010345,0.999915,0.012673,0.003093,0.000094,0.595430,-0.462858,-0.598508,-0.270212
19413,NaN,15.947188,-0.548237,-3.010427,3.143661,0.798952,6.098105,2.211301,0.451977,0.333410,-0.707275,0.034668,-0.094727,0.159412,-0.004881,-0.030521,0.999935,0.011056,0.002260,0.001667,0.601464,-0.456948,-0.599172,-0.265392
19414,NaN,14.987381,-4.656082,-4.299192,0.223538,-2.370359,6.284286,1.740179,0.098928,0.491057,-0.705078,0.036865,-0.092529,0.149965,-0.045816,-0.043467,0.999959,0.008701,0.000495,0.002455,0.606364,-0.453036,-0.600036,-0.258916
19415,NaN,14.563258,-5.081151,-5.350648,0.431603,-3.557855,6.114926,1.346703,-0.239067,0.632885,-0.707520,0.045410,-0.092773,0.145856,-0.049989,-0.053671,0.999972,0.006733,-0.001195,0.003164,0.608362,-0.452060,-0.600578,-0.254644
19416,NaN,12.882087,-4.717204,-4.582903,0.259692,-3.056673,4.322032,0.982449,-0.320116,0.837073,-0.707764,0.049561,-0.088623,0.129090,-0.046407,-0.045852,0.999978,0.004912,-0.001601,0.004185,0.610674,-0.451984,-0.600897,-0.248417
19417,NaN,13.010429,-5.103238,-2.938072,-0.784590,-1.716465,4.342948,0.828771,-0.401260,1.098866,-0.710205,0.062500,-0.095215,0.130440,-0.050195,-0.029328,0.999974,0.004144,-0.002006,0.005494,0.611324,-0.454736,-0.599880,-0.244217
19418,NaN,14.090406,-5.866584,-1.065424,-2.034015,-0.090828,5.351100,0.583454,-0.342838,1.645913,-0.710693,0.075439,-0.086670,0.141398,-0.057473,-0.010581,0.999960,0.002917,-0.001714,0.008229,0.613609,-0.458291,-0.597873,-0.236646
19419,NaN,12.728685,-5.408606,-1.414022,-1.489990,-0.367057,4.004277,0.597994,-0.129378,2.257363,-0.705078,0.096924,-0.093506,0.127895,-0.052602,-0.014216,0.999932,0.002990,-0.000647,0.011287,0.616206,-0.464371,-0.593240,-0.229599
19420,NaN,14.689321,-8.064760,-2.189809,-2.575462,-1.552644,6.817074,0.610202,0.152385,2.763689,-0.698975,0.111816,-0.093750,0.147971,-0.078540,-0.022252,0.999900,0.003051,0.000762,0.013818,0.621186,-0.470467,-0.586994,-0.219605
19421,NaN,19.083195,-13.125129,-4.284400,-4.230822,-4.154020,12.981883,0.658579,-0.007938,3.058435,-0.699951,0.137451,-0.102539,0.192809,-0.128171,-0.043262,0.999878,0.003293,-0.000040,0.015292,0.625246,-0.478131,-0.580071,-0.209703
19422,NaN,22.894623,-8.822445,-4.564636,1.004926,-0.961159,15.104166,0.283945,0.025136,3.166117,-0.698730,0.165527,-0.103027,0.230298,-0.084521,-0.045797,0.999874,0.001420,0.000126,0.015830,0.629239,-0.486339,-0.572647,-0.199014
19423,NaN,24.006515,-6.541776,-3.610949,3.310463,1.570098,15.060338,0.140798,0.143890,3.239862,-0.695312,0.186768,-0.109863,0.241056,-0.061493,-0.036327,0.999868,0.000704,0.000719,0.016199,0.632483,-0.495796,-0.563895,-0.190195
19424,NaN,24.240358,-4.429741,-3.115176,5.526264,3.361240,14.166972,-0.144682,0.147211,3.471722,-0.689697,0.216797,-0.116699,0.243101,-0.040104,-0.031301,0.999849,-0.000723,0.000736,0.017358,0.635746,-0.505827,-0.554600,-0.179960
19425,NaN,23.842658,-3.677240,-2.961176,6.638629,4.031747,13.217049,-0.124103,0.110259,3.756152,-0.679932,0.244629,-0.114746,0.239045,-0.032305,-0.029722,0.999823,-0.000620,0.000551,0.018780,0.638248,-0.517548,-0.543764,-0.170600
19426,NaN,22.870323,-3.862430,-3.007816,6.942439,3.982020,12.162102,0.223029,0.034543,3.969739,-0.676758,0.274658,-0.123779,0.229404,-0.034042,-0.030157,0.999802,0.001115,0.000173,0.019847,0.642179,-0.527498,-0.533463,-0.157381
19427,NaN,21.804335,-3.721154,-3.281064,7.527663,3.767937,10.902246,0.691801,-0.020559,4.037326,-0.669189,0.304688,-0.126465,0.218737,-0.032687,-0.032906,0.999790,0.003459,-0.000103,0.020185,0.646157,-0.537165,-0.522411,-0.144988
19428,NaN,19.494982,-2.627895,-2.884841,7.894743,4.008374,7.987117,1.122317,0.002688,3.978604,-0.656982,0.328369,-0.141602,0.195419,-0.022232,-0.028983,0.999786,0.005611,0.000013,0.019892,0.651925,-0.543815,-0.512418,-0.129179
19429,NaN,19.110249,-3.231817,-2.952759,7.952382,3.823587,7.693085,1.423307,-0.012586,3.884959,-0.649414,0.358398,-0.150635,0.191681,-0.028387,-0.029727,0.999786,0.007116,-0.000063,0.019423,0.657246,-0.550425,-0.501621,-0.115915
19430,NaN,18.126723,-4.563367,-2.718895,7.063262,3.414243,7.368755,1.393614,0.171655,3.754472,-0.639648,0.386230,-0.157471,0.182055,-0.042029,-0.027646,0.999799,0.006968,0.000858,0.018771,0.663556,-0.555052,-0.491431,-0.100532
19431,NaN,16.165321,-4.788134,-2.768560,6.530738,2.649754,5.750136,1.513627,0.200202,3.592609,-0.629395,0.405518,-0.162109,0.162448,-0.044756,-0.028195,0.999810,0.007568,0.001001,0.017962,0.669049,-0.560220,-0.480198,-0.089083
19432,NaN,15.081189,-5.213407,-3.079739,6.382928,1.974378,5.000767,1.309068,0.253435,3.364272,-0.614990,0.422607,-0.177246,0.151619,-0.049384,-0.031318,0.999836,0.006545,0.001267,0.016820,0.674714,-0.563714,-0.470431,-0.075382
19433,NaN,13.586991,-5.863875,-2.601133,5.324083,1.607986,4.144612,1.256845,0.160561,3.016272,-0.607178,0.446289,-0.186035,0.136711,-0.056416,-0.026480,0.999866,0.006284,0.000803,0.015081,0.678822,-0.568205,-0.460294,-0.066875
19434,NaN,12.021926,-4.102352,-2.209938,5.667183,2.000597,1.593849,1.214960,0.040676,2.681325,-0.594727,0.457031,-0.201172,0.120749,-0.039272,-0.022366,0.999892,0.006075,0.000203,0.013406,0.683191,-0.570177,-0.452894,-0.055087
19435,NaN,10.463292,-2.298477,-0.634532,5.191875,3.292796,-1.017071,0.847780,-0.119594,2.273533,-0.590820,0.471924,-0.205566,0.104889,-0.021766,-0.006377,0.999926,0.004239,-0.000598,0.011367,0.685096,-0.574347,-0.445315,-0.049641
19436,NaN,8.895284,0.796282,-0.714357,6.216167,3.659989,-4.499352,0.328636,-0.385991,1.932516,-0.591309,0.486816,-0.208008,0.088884,0.008833,-0.006958,0.999950,0.001643,-0.001930,0.009662,0.685626,-0.577591,-0.441146,-0.041179
19437,NaN,7.782654,3.680653,-0.346248,7.048710,4.399136,-7.532669,-0.265173,-0.566506,1.574487,-0.583008,0.495361,-0.201660,0.077543,0.037413,-0.003292,0.999964,-0.001326,-0.002832,0.007872,0.683156,-0.583984,-0.436693,-0.039488
19438,NaN,5.394771,3.500902,0.771523,4.874149,4.207308,-9.108595,-0.849618,-0.650126,1.181975,-0.583496,0.506104,-0.195312,0.053714,0.035360,0.007740,0.999968,-0.004248,-0.003251,0.005910,0.679468,-0.589577,-0.435281,-0.035408
19439,NaN,2.761447,3.651204,1.077171,3.211372,3.236855,-10.964538,-1.357364,-0.684958,0.742311,-0.583740,0.512695,-0.187012,0.027442,0.036687,0.010617,0.999964,-0.006787,-0.003425,0.003712,0.673357,-0.597761,-0.433333,-0.038658
19440,NaN,3.033531,4.182789,1.611861,3.420263,3.923268,-11.297764,-1.837516,-0.823839,0.403884,-0.586182,0.520996,-0.167725,0.030185,0.042035,0.015858,0.999947,-0.009187,-0.004119,0.002019,0.666123,-0.604950,-0.434522,-0.038817
19441,NaN,2.857617,4.998290,2.250970,3.543048,4.504200,-12.130859,-2.196050,-0.851193,-0.054088,-0.593018,0.529541,-0.150879,0.028495,0.050219,0.022081,0.999931,-0.010980,-0.004256,-0.000270,0.656882,-0.613945,-0.435294,-0.045793
19442,NaN,1.432358,4.997610,2.311381,2.709854,3.803103,-13.062610,-2.549608,-0.836501,-0.452896,-0.601562,0.527588,-0.133789,0.014342,0.050233,0.022534,0.999907,-0.012748,-0.004182,-0.002264,0.647071,-0.621467,-0.438808,-0.050260
19443,NaN,1.288690,4.251862,1.692680,2.604149,2.948844,-12.482143,-2.572427,-0.833605,-0.889436,-0.607910,0.525391,-0.118652,0.013007,0.042674,0.016433,0.999899,-0.012862,-0.004168,-0.004447,0.636280,-0.629439,-0.441923,-0.060484
19444,NaN,0.824720,4.852609,1.065244,3.103743,2.240857,-13.084769,-2.652353,-0.825584,-1.364421,-0.620850,0.523193,-0.099365,0.008536,0.048604,0.010043,0.999880,-0.013261,-0.004128,-0.006822,0.625620,-0.635036,-0.447989,-0.068082
19445,NaN,-0.457344,5.105394,0.604622,2.876818,1.177196,-13.932814,-2.810229,-0.842823,-1.769568,-0.631348,0.514648,-0.077881,-0.004144,0.051170,0.005310,0.999853,-0.014050,-0.004214,-0.008847,0.613371,-0.641450,-0.453539,-0.081361
19446,NaN,-1.288070,5.638829,0.616858,2.910502,0.786979,-14.786804,-2.989996,-0.805587,-2.037943,-0.645996,0.501709,-0.062744,-0.012327,0.056599,0.005273,0.999828,-0.014949,-0.004028,-0.010189,0.601021,-0.646215,-0.461252,-0.091796
19447,NaN,-1.449455,5.243951,0.094522,2.957517,0.092881,-14.378812,-3.058582,-0.678536,-2.402999,-0.662842,0.488770,-0.032715,-0.013864,0.052614,0.000094,0.999805,-0.015292,-0.003392,-0.012014,0.587457,-0.651547,-0.467677,-0.107975
19448,NaN,-0.940767,4.955590,-0.022893,3.226918,0.124444,-13.687138,-3.075461,-0.475594,-2.685591,-0.675293,0.471680,-0.015381,-0.008739,0.049665,-0.001013,0.999789,-0.015376,-0.002378,-0.013427,0.574752,-0.654418,-0.476065,-0.121486
19449,NaN,-1.948775,4.439665,-0.541017,2.670657,-0.953703,-13.782044,-3.067872,-0.324363,-2.946661,-0.687500,0.450195,0.004150,-0.018822,0.044587,-0.006124,0.999773,-0.015338,-0.001622,-0.014732,0.560892,-0.657955,-0.482497,-0.140326
19450,NaN,-1.498326,3.246936,-0.890366,2.199743,-1.203501,-12.512919,-2.985673,-0.252550,-3.149784,-0.699707,0.426514,0.015137,-0.014459,0.032562,-0.009408,0.999764,-0.014927,-0.001263,-0.015748,0.548118,-0.658750,-0.491360,-0.155501
19451,NaN,-1.902320,2.584488,-1.404400,1.722264,-1.943421,-12.163546,-2.745415,-0.012164,-3.390207,-0.720459,0.403076,0.032471,-0.018583,0.025966,-0.014401,0.999762,-0.013726,-0.000061,-0.016950,0.534893,-0.659676,-0.497891,-0.175558
19452,NaN,-1.955579,2.183282,-1.952203,1.599309,-2.493306,-11.717150,-2.545690,0.053966,-3.547402,-0.734375,0.373047,0.041504,-0.019173,0.021924,-0.019796,0.999762,-0.012727,0.000270,-0.017736,0.523389,-0.657447,-0.507096,-0.191523
19453,NaN,-0.873070,1.272079,-1.845748,1.248203,-1.971042,-10.399201,-2.263639,0.309777,-3.722702,-0.750732,0.345215,0.048340,-0.008523,0.012671,-0.018588,0.999762,-0.011317,0.001549,-0.018612,0.511432,-0.655497,-0.513696,-0.211841
19454,NaN,-0.987174,0.832413,-2.329417,0.941612,-2.478303,-10.067503,-2.048052,0.458046,-3.858757,-0.760254,0.312988,0.050781,-0.009765,0.008274,-0.023357,0.999759,-0.010239,0.002290,-0.019292,0.501685,-0.650178,-0.522880,-0.228423
19455,NaN,-0.597122,-0.148185,-2.481974,0.182273,-2.493185,-9.274696,-1.825859,0.577710,-3.928526,-0.770020,0.282959,0.055420,-0.006073,-0.001590,-0.024788,0.999761,-0.009129,0.002888,-0.019641,0.490908,-0.645706,-0.529523,-0.248354
19456,NaN,-0.904301,-0.728747,-2.423316,-0.489807,-2.604416,-9.367479,-1.683629,0.631778,-3.956738,-0.784180,0.255127,0.051514,-0.009264,-0.007309,-0.024143,0.999764,-0.008417,0.003159,-0.019782,0.482115,-0.638423,-0.538533,-0.264508
19457,NaN,-0.143054,-2.040381,-2.282382,-1.602285,-2.202573,-8.407960,-1.559601,0.774446,-3.989199,-0.793701,0.223145,0.052002,-0.001927,-0.020546,-0.022657,0.999763,-0.007797,0.003872,-0.019944,0.472069,-0.632198,-0.544962,-0.283714
19458,NaN,-0.271015,-4.050483,-2.123367,-3.646185,-2.208836,-8.135790,-1.432927,0.825630,-3.932824,-0.799072,0.193115,0.048096,-0.003595,-0.040591,-0.020929,0.999772,-0.007164,0.004128,-0.019663,0.464101,-0.623546,-0.553290,-0.299450
19459,NaN,-0.031373,-5.546872,-2.017813,-5.152422,-2.065195,-7.806981,-1.360471,0.883072,-3.853200,-0.810791,0.154541,0.048584,-0.001472,-0.055583,-0.019795,0.999782,-0.006802,0.004415,-0.019265,0.454851,-0.616214,-0.559274,-0.317181
19460,NaN,0.467327,-7.352172,-2.625509,-6.853552,-2.521033,-7.014267,-1.354199,0.880971,-3.681406,-0.818359,0.126709,0.044678,0.003203,-0.073765,-0.025772,0.999798,-0.006771,0.004405,-0.018406,0.447210,-0.607474,-0.566354,-0.331995
19461,NaN,1.278527,-9.814924,-3.402553,-9.233156,-3.009561,-5.910987,-1.279024,0.907027,-3.410494,-0.812988,0.098877,0.038818,0.010954,-0.098562,-0.033449,0.999824,-0.006395,0.004535,-0.017051,0.438944,-0.600234,-0.571188,-0.347552
19462,NaN,1.570125,-12.644207,-4.565579,-12.054015,-4.119319,-5.241037,-1.189411,0.894661,-3.066969,-0.816406,0.073242,0.026367,0.013555,-0.126930,-0.044966,0.999855,-0.005947,0.004473,-0.015334,0.432534,-0.592439,-0.576282,-0.360319
19463,NaN,2.992475,-14.878723,-6.017739,-14.251237,-5.024481,-3.633626,-1.138205,0.844237,-2.689867,-0.820068,0.053955,0.024414,0.027665,-0.149509,-0.059448,0.999884,-0.005691,0.004221,-0.013449,0.426015,-0.586178,-0.579639,-0.372726
19464,NaN,4.804253,-16.971348,-7.043617,-16.386271,-5.428930,-1.893335,-1.096201,0.814423,-2.250415,-0.817383,0.041016,0.022461,0.045841,-0.170621,-0.069692,0.999913,-0.005481,0.004072,-0.011252,0.420930,-0.580418,-0.582409,-0.383056
19465,NaN,6.172051,-19.003628,-7.413311,-18.568664,-5.365574,-0.835681,-1.071807,0.787611,-1.771779,-0.823242,0.023926,0.018311,0.059742,-0.190966,-0.073349,0.999939,-0.005359,0.003938,-0.008859,0.416622,-0.576012,-0.583744,-0.392275
19466,NaN,7.107001,-19.422269,-7.358088,-19.166823,-4.984240,-0.344115,-1.062712,0.764163,-1.262040,-0.820801,0.015381,0.012207,0.069562,-0.195053,-0.072814,0.999959,-0.005313,0.003821,-0.006310,0.413296,-0.573015,-0.583681,-0.400195
19467,NaN,8.297953,-19.207208,-7.003390,-19.101447,-4.230221,0.388015,-1.070084,0.714845,-0.683744,-0.820801,0.015381,-0.000732,0.082073,-0.192726,-0.069298,0.999973,-0.005350,0.003574,-0.003419,0.411523,-0.571235,-0.582548,-0.406175
19468,NaN,8.194510,-18.732921,-6.107571,-18.740241,-3.330230,-0.164586,-0.939104,0.734009,-0.102975,-0.820801,0.015381,0.001465,0.081626,-0.187656,-0.060495,0.999982,-0.004695,0.003670,-0.000515,0.410760,-0.571362,-0.579417,-0.411216
19469,NaN,5.907214,-15.945282,-5.075370,-15.962143,-3.043723,-2.681671,-0.897545,0.730364,0.396011,-0.822998,0.017578,-0.002930,0.059204,-0.159562,-0.050254,0.999981,-0.004488,0.003652,0.001980,0.412259,-0.571802,-0.575973,-0.413931
19470,NaN,4.449011,-13.182357,-4.299755,-13.202666,-2.654534,-4.272118,-0.896877,0.673009,0.883720,-0.823242,0.023926,-0.009521,0.044929,-0.131817,-0.042557,0.999975,-0.004484,0.003365,0.004419,0.413449,-0.574784,-0.570191,-0.416611
19471,NaN,0.799016,-10.414884,-1.680806,-10.418430,-1.262948,-8.473717,-0.879627,0.691305,1.245883,-0.819336,0.039062,-0.009766,0.008582,-0.104169,-0.016379,0.999965,-0.004398,0.003456,0.006229,0.416889,-0.577440,-0.564640,-0.417072
19472,NaN,-4.533428,-6.909150,0.086322,-7.003196,-1.133419,-14.051133,-1.002689,0.615185,1.439495,-0.822021,0.053955,-0.016357,-0.044832,-0.069409,0.001349,0.999957,-0.005013,0.003076,0.007197,0.418712,-0.582282,-0.557088,-0.418665
19473,NaN,-3.947251,-11.828433,-29.226604,-12.887860,-28.557763,-4.526731,-3.372778,-0.353549,0.898685,-0.815674,0.053955,-0.009766,-0.038411,-0.123365,-0.290283,0.999846,-0.016863,-0.001768,0.004493,0.411189,-0.591246,-0.549458,-0.423613
19474,NaN,-0.890305,-24.384445,-44.044332,-27.480909,-40.061249,3.405053,-4.538049,-1.414559,0.616805,-0.822266,0.058350,0.009277,-0.005042,-0.253773,-0.434805,0.999713,-0.022688,-0.007072,0.003084,0.395074,-0.605092,-0.540776,-0.430513
19475,NaN,27.271092,-19.806136,-4.553800,-18.898536,6.355437,17.740582,-0.892085,-0.122492,0.098822,-0.824219,0.051758,0.007324,0.272836,-0.198127,-0.044487,0.999990,-0.004460,-0.000612,0.000494,0.393319,-0.606686,-0.539916,-0.430956
19476,NaN,17.025094,20.716822,0.781086,21.365045,4.064455,5.892462,1.187182,-0.152268,-1.122562,-0.824219,0.053955,0.011475,0.171403,0.206157,0.009167,0.999966,0.005936,-0.000761,-0.005613,0.394075,-0.601625,-0.546163,-0.429487
19477,NaN,27.433263,6.745593,2.086008,7.816273,10.167560,15.445267,0.979206,-0.068065,-0.072503,-0.824219,0.049561,0.007324,0.274350,0.067253,0.021283,0.999988,0.004896,-0.000340,-0.000363,0.397667,-0.598914,-0.549632,-0.425521
19478,NaN,27.674613,-12.601849,8.303393,-11.035143,17.614429,13.885232,0.998593,0.233938,0.281873,-0.826416,0.051758,0.007324,0.277020,-0.126040,0.082081,0.999986,0.004993,0.001170,0.001409,0.401892,-0.597194,-0.550441,-0.422915
19479,NaN,25.159906,-3.620351,15.817864,-1.733748,23.176454,9.059969,0.270883,0.174940,0.626205,-0.824463,0.062500,0.000732,0.251849,-0.035629,0.157910,0.999994,0.001354,0.000875,0.003131,0.405682,-0.597009,-0.549956,-0.420181
19480,NaN,19.217344,-3.191528,7.796668,-1.855912,13.616095,6.043977,0.037012,0.509812,0.947906,-0.822754,0.071045,0.000488,0.192520,-0.031018,0.077470,0.999986,0.000185,0.002549,0.004740,0.409177,-0.598457,-0.546164,-0.419676
19481,NaN,11.285612,3.125755,-4.137383,3.529422,-0.651507,2.077257,-0.442349,0.279483,1.092494,-0.818604,0.077637,0.000488,0.112625,0.031781,-0.041601,0.999982,-0.002212,0.001397,0.005462,0.412304,-0.600479,-0.542740,-0.418166
19482,NaN,8.792670,-2.089226,-9.073790,-1.992819,-5.779036,1.440763,0.062937,0.249513,1.039060,-0.818848,0.086182,-0.003906,0.087920,-0.020407,-0.090854,0.999986,0.000315,0.001248,0.005195,0.415335,-0.602636,-0.539232,-0.416601
19483,NaN,5.399861,-2.599001,-8.515041,-2.586483,-6.281959,-1.921835,0.537297,0.181496,0.854543,-0.821289,0.092529,-0.003906,0.054031,-0.025530,-0.085268,0.999987,0.002686,0.000907,0.004273,0.420334,-0.602432,-0.538494,-0.412819
19484,NaN,5.285614,-2.904563,-3.262333,-2.594155,-1.323845,-3.605068,0.560468,0.107827,0.619028,-0.819092,0.094727,-0.010498,0.052928,-0.028790,-0.032733,0.999991,0.002802,0.000539,0.003095,0.423585,-0.602690,-0.537557,-0.410334
19485,NaN,6.027256,-4.402757,-0.627611,-3.881766,1.466362,-3.576701,0.418724,0.107263,0.379435,-0.817383,0.101074,-0.014893,0.060353,-0.043900,-0.006400,0.999996,0.002094,0.000536,0.001897,0.426871,-0.601738,-0.538007,-0.407727
19486,NaN,8.337417,-4.032260,-0.109611,-3.269891,2.614615,-1.551017,0.217891,0.053437,0.212942,-0.819336,0.101074,-0.008545,0.083417,-0.040233,-0.001162,0.999999,0.001089,0.000267,0.001065,0.428103,-0.601733,-0.537697,-0.406851
19487,NaN,10.307625,-2.629177,-1.779138,-1.725162,1.519089,0.724922,0.115648,0.041316,0.124964,-0.821533,0.101074,-0.012695,0.103089,-0.026217,-0.017828,1.000000,0.000578,0.000207,0.000625,0.429766,-0.600870,-0.538418,-0.405417
19488,NaN,11.360811,-1.427508,-4.262127,-0.476431,-0.602603,2.380810,0.205341,0.057967,0.091831,-0.817383,0.103271,-0.008545,0.113602,-0.014179,-0.042669,0.999999,0.001027,0.000290,0.000459,0.430723,-0.600555,-0.538435,-0.404844
19489,NaN,11.423696,-1.032352,-4.633595,-0.051340,-0.969440,2.519963,0.363137,0.058656,0.102338,-0.823486,0.096924,-0.016846,0.114229,-0.010181,-0.046388,0.999998,0.001816,0.000293,0.000512,0.433041,-0.599132,-0.539600,-0.402925
19490,NaN,11.320084,-1.479873,-3.548152,-0.459374,0.038685,2.133487,0.475999,0.096317,0.145471,-0.821777,0.107666,-0.017090,0.113194,-0.014632,-0.035571,0.999997,0.002380,0.000482,0.000727,0.435017,-0.598295,-0.539914,-0.401617
19491,NaN,10.950756,-1.795703,-2.257418,-0.757830,1.148521,1.427686,0.512586,0.138978,0.219917,-0.819580,0.103271,-0.017090,0.109511,-0.017779,-0.022696,0.999996,0.002563,0.000695,0.001100,0.438124,-0.596785,-0.540743,-0.399365
19492,NaN,10.426927,-2.023142,-2.078498,-0.997621,1.144223,0.903159,0.480503,0.206189,0.266969,-0.815186,0.103271,-0.017090,0.104275,-0.020042,-0.020941,0.999996,0.002403,0.001031,0.001335,0.440646,-0.596037,-0.540453,-0.398098
19493,NaN,9.826879,-2.115271,-2.260657,-1.108809,0.760684,0.402213,0.419709,0.259938,0.262787,-0.819580,0.109619,-0.021484,0.098267,-0.020976,-0.022778,0.999996,0.002099,0.001300,0.001314,0.443826,-0.594638,-0.540636,-0.396406
19494,NaN,9.536901,-1.712688,-2.360102,-0.704755,0.539829,0.120470,0.330156,0.271076,0.222701,-0.815430,0.109619,-0.025635,0.095356,-0.016982,-0.023758,0.999997,0.001651,0.001355,0.001114,0.445979,-0.593965,-0.540026,-0.395828
19495,NaN,9.212913,-1.727119,-2.984052,-0.714116,-0.183465,-0.003429,0.242454,0.265177,0.181326,-0.819824,0.116211,-0.025879,0.092105,-0.017151,-0.029983,0.999998,0.001212,0.001326,0.000907,0.448430,-0.592765,-0.540030,-0.394851
19496,NaN,9.066993,-2.442735,-3.858131,-1.404382,-1.080951,0.183394,0.217824,0.243133,0.145105,-0.817871,0.116211,-0.027832,0.090641,-0.024319,-0.038718,0.999998,0.001089,0.001216,0.000726,0.450017,-0.592185,-0.539485,-0.394661
19497,NaN,9.169061,-2.407208,-4.007959,-1.329192,-1.228201,0.319180,0.264692,0.229676,0.069583,-0.811035,0.111816,-0.027832,0.091653,-0.023987,-0.040217,0.999998,0.001323,0.001148,0.000348,0.452161,-0.590750,-0.539885,-0.393812
19498,NaN,9.053097,-2.279565,-3.923330,-1.203249,-1.210059,0.169064,0.312740,0.234682,-0.017549,-0.819824,0.111816,-0.034424,0.090483,-0.022742,-0.039375,0.999998,0.001564,0.001173,-0.000088,0.453682,-0.589530,-0.540023,-0.393704
19499,NaN,8.627755,-2.514601,-3.886598,-1.468752,-1.327708,-0.223794,0.343442,0.260217,-0.092405,-0.819824,0.114014,-0.036377,0.086215,-0.025119,-0.039021,0.999998,0.001717,0.001301,-0.000462,0.455772,-0.587460,-0.540934,-0.393132
19500,NaN,8.630510,-2.146015,-3.503420,-1.111478,-0.987118,-0.370485,0.371447,0.164656,-0.143994,-0.817627,0.109863,-0.036377,0.086261,-0.021457,-0.035145,0.999998,0.001857,0.000823,-0.000720,0.457024,-0.585896,-0.541712,-0.392942
19501,NaN,9.939685,-1.915834,-3.150627,-0.760758,-0.317065,0.756835,0.313254,0.264302,-0.245367,-0.819580,0.107666,-0.040771,0.099332,-0.019231,-0.031668,0.999997,0.001566,0.001322,-0.001227,0.458689,-0.583508,-0.542951,-0.392845
19502,NaN,8.139808,-2.298163,-2.993310,-1.343914,-0.691086,-0.968811,0.330294,0.174865,-0.276066,-0.815186,0.105469,-0.040527,0.081340,-0.023044,-0.030042,0.999997,0.001651,0.000874,-0.001380,0.459583,-0.581653,-0.544003,-0.393094
19503,NaN,9.824794,-1.736523,-2.817922,-0.641042,-0.081239,0.534541,0.349025,0.138572,-0.353415,-0.817139,0.101318,-0.042725,0.098198,-0.017489,-0.028278,0.999997,0.001745,0.000693,-0.001767,0.460753,-0.579167,-0.545862,-0.392820
19504,NaN,9.931324,-1.980705,-2.557379,-0.914447,0.164508,0.590731,0.296984,0.262769,-0.398663,-0.817139,0.099121,-0.049072,0.099240,-0.019967,-0.025734,0.999996,0.001485,0.001314,-0.001993,0.461544,-0.576874,-0.546993,-0.393691
19505,NaN,10.049353,-1.292699,-2.094257,-0.272571,0.631594,0.510740,0.310402,0.118740,-0.389723,-0.819092,0.094727,-0.044678,0.100456,-0.013090,-0.021022,0.999997,0.001552,0.000594,-0.001949,0.462429,-0.574444,-0.548872,-0.393591
19506,NaN,11.022396,-0.985260,-2.074592,0.083535,0.900392,1.410061,0.339961,0.123958,-0.389862,-0.821289,0.092773,-0.051270,0.110192,-0.010032,-0.020831,0.999996,0.001700,0.000620,-0.001949,0.462976,-0.572339,-0.550373,-0.393917
19507,NaN,10.393340,-1.205301,-2.604858,-0.184734,0.193888,0.966354,0.356858,0.147550,-0.344715,-0.818848,0.083984,-0.046631,0.103893,-0.012186,-0.026147,0.999997,0.001784,0.000738,-0.001724,0.464113,-0.569897,-0.552090,-0.393717
19508,NaN,11.385570,-0.718836,-2.617234,0.351763,0.438432,1.878409,0.410258,0.196147,-0.367528,-0.816650,0.083984,-0.053223,0.113817,-0.007344,-0.026299,0.999996,0.002051,0.000981,-0.001838,0.465098,-0.567540,-0.553488,-0.393997
19509,NaN,8.970795,-0.790208,-2.820172,0.088180,-0.414642,-0.385428,0.395815,0.125440,-0.326775,-0.818848,0.088379,-0.053223,0.089677,-0.007993,-0.028274,0.999997,0.001979,0.000627,-0.001634,0.466266,-0.565133,-0.555224,-0.393633
19510,NaN,8.900154,-1.235628,-2.541949,-0.397151,-0.200126,-0.485136,0.351124,0.026829,-0.284096,-0.814209,0.079834,-0.052979,0.088981,-0.012438,-0.025453,0.999997,0.001756,0.000134,-0.001420,0.466772,-0.563469,-0.556655,-0.393398
19511,NaN,8.921796,-1.565605,-2.161677,-0.767585,0.142853,-0.532990,0.368954,0.038917,-0.287410,-0.820557,0.077637,-0.059570,0.089191,-0.015744,-0.021663,0.999997,0.001845,0.000195,-0.001437,0.467653,-0.561438,-0.558378,-0.392813
19512,NaN,8.788426,-1.355382,-2.107931,-0.588705,0.161755,-0.694349,0.395823,0.039107,-0.285078,-0.816406,0.077637,-0.052979,0.087861,-0.013637,-0.021123,0.999997,0.001979,0.000196,-0.001425,0.468312,-0.559636,-0.559863,-0.392486
19513,NaN,8.289908,-1.388725,-2.369939,-0.643569,-0.232393,-1.106395,0.392096,0.015960,-0.249903,-0.818359,0.075439,-0.059570,0.082880,-0.013944,-0.023733,0.999997,0.001960,0.000080,-0.001250,0.469236,-0.557716,-0.561546,-0.391710
19514,NaN,7.862872,-1.121336,-2.419914,-0.409057,-0.378434,-1.528510,0.351095,-0.006322,-0.201129,-0.822510,0.071289,-0.057373,0.078618,-0.011250,-0.024216,0.999998,0.001755,-0.000032,-0.001006,0.469802,-0.556336,-0.562809,-0.391180
19515,NaN,7.688264,-1.104260,-2.769578,-0.372995,-0.761693,-1.610245,0.314676,-0.050635,-0.158928,-0.816162,0.069092,-0.052979,0.076881,-0.011060,-0.027694,0.999998,0.001573,-0.000253,-0.000795,0.470469,-0.555006,-0.564210,-0.390249
19516,NaN,7.673347,-1.453255,-3.072785,-0.692810,-1.085293,-1.519536,0.292366,-0.051652,-0.118093,-0.820312,0.069092,-0.055176,0.076733,-0.014533,-0.030729,0.999999,0.001462,-0.000258,-0.000590,0.470903,-0.554083,-0.565230,-0.389561
19517,NaN,8.361493,-1.348551,-3.120299,-0.540371,-0.943981,-0.852424,0.320701,-0.057323,-0.076279,-0.818115,0.066895,-0.050781,0.083619,-0.013467,-0.031201,0.999999,0.001604,-0.000287,-0.000381,0.471696,-0.553010,-0.566400,-0.388425
19518,NaN,9.183441,-0.593447,-2.763053,0.222926,-0.317557,-0.212078,0.288586,-0.081441,-0.022721,-0.820068,0.064697,-0.057129,0.091845,-0.005905,-0.027602,0.999999,0.001443,-0.000407,-0.000114,0.472219,-0.552420,-0.567215,-0.387439
19519,NaN,9.643367,-0.640353,-3.318890,0.274436,-0.731345,0.376003,0.277490,-0.026119,0.063385,-0.818115,0.069092,-0.055176,0.096440,-0.006327,-0.033185,0.999999,0.001387,-0.000131,0.000317,0.473221,-0.551809,-0.567813,-0.386209
19520,NaN,9.397349,-0.338957,-3.141781,0.558049,-0.593104,0.068234,0.217394,-0.049866,0.160547,-0.818359,0.073486,-0.052979,0.093984,-0.003280,-0.031398,0.999999,0.001087,-0.000249,0.000803,0.473988,-0.551844,-0.567908,-0.385077
19521,NaN,9.313852,0.457381,-2.635295,1.310253,-0.043692,-0.211485,0.072428,-0.088546,0.264489,-0.822754,0.073486,-0.055176,0.093144,0.004707,-0.026310,0.999999,0.000362,-0.000443,0.001322,0.474600,-0.552440,-0.567673,-0.383812
19522,NaN,8.797662,0.001576,-2.833230,0.876666,-0.400898,-0.620478,-0.111293,-0.107776,0.376388,-0.818359,0.075439,-0.059570,0.087992,0.000166,-0.028285,0.999998,-0.000556,-0.000539,0.001882,0.474708,-0.553976,-0.566675,-0.382939
19523,NaN,8.654445,-0.577402,-2.656143,0.305325,-0.308124,-0.751803,-0.234035,-0.116553,0.468548,-0.822998,0.082031,-0.053223,0.086573,-0.005602,-0.026504,0.999996,-0.001170,-0.000583,0.002343,0.474747,-0.555961,-0.565320,-0.382016
19524,NaN,8.761919,-0.856056,-2.720280,0.078680,-0.349424,-0.605324,-0.351792,-0.114254,0.544804,-0.818604,0.082031,-0.051025,0.087658,-0.008370,-0.027138,0.999995,-0.001759,-0.000571,0.002724,0.474484,-0.558549,-0.563402,-0.381400
19525,NaN,9.591005,-0.901896,-2.486702,0.114035,0.110830,0.135124,-0.396311,-0.090675,0.642462,-0.816895,0.090576,-0.044678,0.095950,-0.008760,-0.024806,0.999993,-0.001982,-0.000453,0.003212,0.474446,-0.561367,-0.561165,-0.380606
19526,NaN,9.855565,-0.629598,-2.147851,0.424562,0.545168,0.270171,-0.456466,-0.055784,0.711755,-0.816895,0.090576,-0.046875,0.098583,-0.005994,-0.021437,0.999991,-0.002282,-0.000279,0.003559,0.474359,-0.564546,-0.558426,-0.380041
19527,NaN,9.625267,-1.012443,-2.328579,0.105553,0.296601,0.136866,-0.510913,-0.045842,0.795761,-0.814941,0.101318,-0.049072,0.096297,-0.009801,-0.023238,0.999989,-0.002555,-0.000229,0.003979,0.474387,-0.567972,-0.555403,-0.379333
19528,NaN,9.457094,-1.320550,-2.253273,-0.158344,0.320220,-0.008111,-0.569319,-0.047015,0.832511,-0.815430,0.111816,-0.042969,0.094630,-0.012876,-0.022474,0.999987,-0.002847,-0.000235,0.004163,0.474212,-0.571714,-0.552063,-0.378804
19529,NaN,9.556219,-1.564186,-2.546221,-0.296283,0.070678,0.195213,-0.560260,-0.041425,0.848002,-0.813477,0.116211,-0.040771,0.095633,-0.015308,-0.025399,0.999987,-0.002801,-0.000207,0.004240,0.474181,-0.575372,-0.548755,-0.378112
19530,NaN,10.176190,-2.582424,-2.715021,-1.151091,0.046565,0.970050,-0.475014,-0.024752,0.835666,-0.811523,0.124756,-0.036621,0.101872,-0.025463,-0.027077,0.999988,-0.002375,-0.000124,0.004178,0.474321,-0.578829,-0.545505,-0.377361
19531,NaN,11.045527,-2.491217,-2.067226,-0.930502,0.930531,1.621950,-0.311277,0.002094,0.798274,-0.811768,0.133301,-0.045410,0.110553,-0.024503,-0.020635,0.999991,-0.001556,0.000010,0.003991,0.475012,-0.581653,-0.542685,-0.376214
19532,NaN,11.823830,-2.321091,-2.341973,-0.554785,0.896823,2.416888,-0.108906,0.052369,0.774642,-0.809814,0.133301,-0.038818,0.118321,-0.022765,-0.023438,0.999992,-0.000545,0.000262,0.003873,0.476291,-0.583908,-0.540099,-0.374822
19533,NaN,11.885964,-1.500639,-2.525637,0.366908,0.769756,2.401204,-0.018138,0.057131,0.719877,-0.810059,0.144043,-0.047607,0.118905,-0.014581,-0.025289,0.999993,-0.000091,0.000286,0.003599,0.477830,-0.585694,-0.537916,-0.373211
19534,NaN,12.032318,-1.839557,-2.993147,0.172210,0.346044,2.716065,0.029635,0.076449,0.649364,-0.814209,0.141846,-0.039062,0.120371,-0.018000,-0.029980,0.999995,0.000148,0.000382,0.003247,0.479332,-0.587222,-0.535885,-0.371804
19535,NaN,12.233087,-2.889034,-2.996896,-0.754810,0.353231,3.082325,0.210754,0.102167,0.528046,-0.808105,0.146240,-0.045410,0.122391,-0.028536,-0.030062,0.999996,0.001054,0.000511,0.002640,0.481288,-0.587856,-0.534564,-0.370174
19536,NaN,11.966386,-3.066546,-3.086956,-0.896851,0.168054,2.887487,0.430184,0.161056,0.372409,-0.803955,0.152588,-0.043457,0.119696,-0.030376,-0.031031,0.999996,0.002151,0.000805,0.001862,0.483670,-0.587514,-0.533876,-0.368602
19537,NaN,12.189879,-3.338198,-3.076641,-1.075976,0.191208,3.149095,0.634013,0.226642,0.182852,-0.805908,0.150391,-0.049805,0.121894,-0.033172,-0.031010,0.999994,0.003170,0.001133,0.000914,0.486559,-0.585959,-0.534044,-0.367027
19538,NaN,12.553176,-2.257080,-3.091964,0.083509,0.271344,3.308134,0.890323,0.283672,-0.012430,-0.808105,0.150391,-0.054199,0.125486,-0.022440,-0.031198,0.999989,0.004452,0.001418,-0.000062,0.489897,-0.583231,-0.535018,-0.365510
19539,NaN,13.262077,-1.271397,-3.176021,1.195547,0.374797,3.826086,1.093451,0.323920,-0.189304,-0.806152,0.154785,-0.056396,0.132557,-0.012665,-0.032044,0.999983,0.005467,0.001620,-0.000947,0.493686,-0.579356,-0.536852,-0.363883
19540,NaN,14.194883,-0.499884,-2.744193,2.057655,1.026095,4.469752,1.322740,0.364914,-0.331543,-0.805908,0.148438,-0.062744,0.141890,-0.005051,-0.027734,0.999975,0.006614,0.001825,-0.001658,0.497882,-0.574520,-0.539305,-0.362201
19541,NaN,14.528365,0.873951,-1.845098,3.328944,2.034026,4.330233,1.629918,0.372293,-0.466882,-0.807861,0.144043,-0.066895,0.145269,0.008552,-0.018651,0.999962,0.008149,0.001861,-0.002334,0.502770,-0.568438,-0.542713,-0.359948
19542,NaN,13.712849,2.940126,-0.619677,5.015431,3.178050,2.907992,1.904818,0.408139,-0.532501,-0.805420,0.137695,-0.073242,0.137194,0.029095,-0.006199,0.999949,0.009524,0.002041,-0.002662,0.508307,-0.561440,-0.546601,-0.357262
19543,NaN,13.928451,5.016709,0.625629,6.810205,4.684438,2.485151,2.101419,0.444890,-0.531233,-0.803223,0.133301,-0.081787,0.139431,0.049730,0.006470,0.999939,0.010507,0.002224,-0.002656,0.514471,-0.553781,-0.550703,-0.354079
19544,NaN,14.226492,5.083905,1.843998,6.614439,5.973975,2.524224,2.285978,0.489746,-0.350996,-0.811523,0.124756,-0.085938,0.142399,0.050377,0.018669,0.999930,0.011430,0.002449,-0.001755,0.521492,-0.546027,-0.554424,-0.350022
19545,NaN,14.710814,5.238947,2.321661,6.649547,6.606150,2.891103,2.437281,0.569135,-0.169583,-0.800781,0.126953,-0.092285,0.147219,0.051980,0.023433,0.999921,0.012186,0.002846,-0.000848,0.529368,-0.538166,-0.557595,-0.345303
19546,NaN,15.919457,4.294828,0.867988,6.178784,5.346000,4.535517,2.340878,0.625442,0.086277,-0.802979,0.126953,-0.098633,0.159203,0.042915,0.008684,0.999927,0.011704,0.003127,0.000431,0.537521,-0.531090,-0.559708,-0.340209
19547,NaN,15.667662,0.427453,-0.491250,2.785651,3.170441,5.289876,1.936712,0.537563,0.264610,-0.809326,0.126953,-0.109375,0.156657,0.004532,-0.005291,0.999949,0.009683,0.002688,0.001323,0.544539,-0.525716,-0.560759,-0.335632
19548,NaN,16.987080,-2.958948,-3.028205,0.496286,0.252522,7.685159,1.452746,0.206011,0.412123,-0.805176,0.133545,-0.109619,0.169900,-0.029018,-0.030669,0.999971,0.007264,0.001030,0.002061,0.549611,-0.522553,-0.561537,-0.330972
19549,NaN,15.784304,-4.366960,-5.239957,-0.304065,-2.453378,7.203749,0.766470,-0.137718,0.451614,-0.805176,0.135742,-0.107422,0.157977,-0.043112,-0.052457,0.999990,0.003832,-0.000689,0.002258,0.551913,-0.521975,-0.561927,-0.327372
19550,NaN,14.980608,-5.956540,-6.070664,-1.597470,-3.755845,6.923273,0.184137,-0.297589,0.628368,-0.803223,0.139893,-0.096680,0.150082,-0.059038,-0.060538,0.999994,0.000921,-0.001488,0.003142,0.552583,-0.523714,-0.561405,-0.324345
19551,NaN,13.728336,-6.994582,-5.328719,-2.891902,-3.509877,5.843063,-0.040970,-0.407266,0.802134,-0.803711,0.148438,-0.099121,0.137671,-0.069405,-0.052993,0.999990,-0.000205,-0.002036,0.004011,0.552569,-0.526781,-0.560288,-0.321318
19552,NaN,13.339008,-6.384651,-3.738088,-2.713673,-1.853011,5.082482,0.058878,-0.481038,1.014460,-0.797607,0.163330,-0.094971,0.133801,-0.063158,-0.037078,0.999984,0.000294,-0.002405,0.005072,0.552998,-0.530223,-0.559031,-0.317082
19553,NaN,12.516675,-6.286592,-2.804780,-2.869879,-1.046038,4.141550,0.264678,-0.386479,1.476427,-0.802246,0.172119,-0.093018,0.125680,-0.061902,-0.027888,0.999970,0.001323,-0.001932,0.007382,0.554905,-0.534247,-0.556540,-0.311327
19554,NaN,9.572843,-6.229649,-3.379625,-2.989168,-2.229311,1.499229,0.819400,-0.200988,1.951003,-0.798584,0.187012,-0.091064,0.096363,-0.061220,-0.033952,0.999944,0.004097,-0.001005,0.009755,0.559540,-0.537683,-0.553130,-0.303082
19555,NaN,12.268610,-11.073583,-3.109371,-6.722003,-2.425191,5.409926,1.685293,-0.082243,2.206747,-0.794922,0.208496,-0.095703,0.123909,-0.109106,-0.031967,0.999904,0.008426,-0.000411,0.011033,0.567120,-0.539151,-0.549906,-0.292053
19556,NaN,15.594296,-13.053234,-4.411238,-6.913725,-3.279179,9.537887,2.177548,-0.328232,2.334210,-0.789062,0.225586,-0.100098,0.157522,-0.128211,-0.045259,0.999871,0.010887,-0.001641,0.011671,0.575423,-0.539802,-0.547653,-0.278528
19557,NaN,18.147697,-6.829034,-3.685123,-0.311747,-0.225533,9.920123,1.798298,-0.394559,2.343302,-0.785400,0.242676,-0.098145,0.182331,-0.065825,-0.037091,0.999889,0.008991,-0.001973,0.011716,0.582434,-0.541481,-0.544945,-0.265714
19558,NaN,18.233080,-4.052835,-3.012287,2.454575,1.314603,8.900201,1.536191,-0.282058,2.322259,-0.779541,0.257812,-0.100586,0.182826,-0.038176,-0.030165,0.999902,0.007681,-0.001410,0.011611,0.588854,-0.543654,-0.541467,-0.253980
19559,NaN,18.602568,-2.053205,-2.278236,4.521307,2.805864,8.273934,1.068564,-0.124249,2.523613,-0.778076,0.283447,-0.103027,0.186278,-0.018061,-0.022768,0.999906,0.005343,-0.000621,0.012618,0.594599,-0.547405,-0.536306,-0.243262
19560,NaN,18.206265,-1.959004,-1.204876,4.545681,3.841602,7.545715,0.873058,0.028666,2.763448,-0.772461,0.307129,-0.107666,0.182308,-0.017019,-0.012153,0.999895,0.004365,0.000143,0.013817,0.600364,-0.552125,-0.529663,-0.232761
19561,NaN,16.955839,-3.035821,-0.982556,3.597860,3.496190,6.694617,0.821525,0.087280,2.999610,-0.760254,0.328369,-0.112305,0.169983,-0.027770,-0.010017,0.999879,0.004107,0.000436,0.014997,0.606285,-0.557422,-0.522006,-0.221829
19562,NaN,16.652391,-3.304431,-1.006111,3.761961,3.439890,6.411519,0.960811,0.096156,3.064347,-0.750488,0.352051,-0.112549,0.166999,-0.030439,-0.010292,0.999871,0.004804,0.000481,0.015321,0.612535,-0.562327,-0.514173,-0.210275
19563,NaN,15.357891,-3.309437,-1.083212,3.768902,3.075667,5.164157,1.173099,0.124512,3.042539,-0.742432,0.373535,-0.121338,0.154051,-0.030689,-0.011113,0.999867,0.005865,0.000623,0.015212,0.619262,-0.566355,-0.506373,-0.198350
19564,NaN,14.803542,-3.347464,-1.319445,4.053108,2.777899,4.607044,1.337456,0.128206,2.941610,-0.732422,0.390625,-0.132324,0.148497,-0.031203,-0.013503,0.999869,0.006687,0.000641,0.014707,0.626211,-0.569458,-0.498907,-0.186197
19565,NaN,14.406179,-3.567162,-1.615594,4.252133,2.413008,4.292367,1.501031,0.100529,2.850961,-0.722412,0.418457,-0.139160,0.144541,-0.033491,-0.016485,0.999870,0.007505,0.000503,0.014254,0.633288,-0.571728,-0.491753,-0.173933
19566,NaN,13.365947,-3.862525,-2.024480,4.121184,1.692136,3.521648,1.558773,0.161123,2.693360,-0.714355,0.431396,-0.152100,0.134145,-0.036661,-0.020644,0.999879,0.007794,0.000806,0.013466,0.640406,-0.573203,-0.484839,-0.162016
19567,NaN,12.784164,-4.071361,-2.434792,4.229330,1.130486,3.100946,1.234292,0.234606,2.548066,-0.702148,0.452637,-0.154541,0.128316,-0.038929,-0.024742,0.999899,0.006171,0.001173,0.012740,0.646478,-0.575235,-0.477649,-0.151734
19568,NaN,12.338171,-4.561893,-2.312390,3.922374,1.001506,2.914873,0.967983,0.268619,2.373626,-0.694092,0.465576,-0.165283,0.123879,-0.044038,-0.023506,0.999917,0.004840,0.001343,0.011868,0.651651,-0.577521,-0.470648,-0.142513
19569,NaN,11.422849,-5.719342,-2.392707,2.941052,0.317787,2.842717,0.747774,0.269425,2.151405,-0.688232,0.487061,-0.172119,0.114802,-0.055870,-0.024292,0.999934,0.003739,0.001347,0.010757,0.655886,-0.580006,-0.463936,-0.134795
19570,NaN,10.777939,-5.381585,-2.228193,3.024295,0.381585,2.052940,0.718396,0.146015,1.907827,-0.679932,0.497803,-0.174316,0.108269,-0.052704,-0.022551,0.999948,0.003592,0.000730,0.009539,0.659560,-0.581945,-0.458385,-0.127293
19571,NaN,9.959436,-4.728830,-2.403616,3.321270,0.166611,0.970061,0.597186,0.017058,1.672811,-0.671875,0.508545,-0.174561,0.099983,-0.046381,-0.024184,0.999961,0.002986,0.000085,0.008364,0.662319,-0.583889,-0.453673,-0.120785
19572,NaN,9.813585,-4.789276,-1.538658,2.963794,0.912053,0.769990,0.593441,-0.115321,1.369459,-0.667725,0.519043,-0.176758,0.098469,-0.047173,-0.015471,0.999972,0.002967,-0.000577,0.006847,0.664599,-0.585082,-0.450402,-0.114568
19573,NaN,8.251649,-1.468401,-0.421730,3.922586,2.314852,-2.764449,0.515927,-0.220432,1.190450,-0.665771,0.525635,-0.185303,0.082607,-0.014182,-0.004163,0.999978,0.002580,-0.001102,0.005952,0.666214,-0.586301,-0.447760,-0.109188
19574,NaN,5.848801,1.019743,-0.336132,4.217605,2.232238,-6.264451,0.086341,-0.259898,0.942534,-0.661865,0.536377,-0.181152,0.058443,0.010474,-0.003281,0.999988,0.000432,-0.001299,0.004713,0.666392,-0.588257,-0.445904,-0.105096
19575,NaN,3.767934,2.597745,-0.101252,3.966044,2.097269,-8.902872,-0.488177,-0.252904,0.582210,-0.666748,0.547119,-0.170654,0.037605,0.026084,-0.001029,0.999992,-0.002441,-0.001265,0.002911,0.664620,-0.591470,-0.444566,-0.103946
19576,NaN,2.530641,3.033650,-0.310335,3.639968,1.543066,-10.082913,-0.945669,-0.214548,0.204074,-0.666748,0.547119,-0.172852,0.025279,0.030347,-0.003220,0.999988,-0.004728,-0.001073,0.001020,0.661445,-0.595169,-0.444179,-0.104738
19577,NaN,2.464160,3.139250,0.140593,3.478781,1.912128,-10.246827,-1.419966,-0.324929,-0.116597,-0.662598,0.553467,-0.153564,0.024658,0.031387,0.001223,0.999973,-0.007100,-0.001625,-0.000583,0.656333,-0.599944,-0.444603,-0.107807
19578,NaN,2.873343,3.121389,0.803305,3.424478,2.622657,-10.010062,-1.631900,-0.426167,-0.424562,-0.675781,0.557617,-0.145264,0.028783,0.031217,0.007840,0.999962,-0.008159,-0.002131,-0.002123,0.650238,-0.604561,-0.446379,-0.111550
19579,NaN,1.414900,3.644399,1.532266,2.658090,2.781000,-11.495439,-1.826958,-0.348471,-0.659603,-0.682129,0.553467,-0.125977,0.014243,0.036535,0.015014,0.999951,-0.009135,-0.001742,-0.003298,0.643440,-0.609393,-0.448193,-0.117252
19580,NaN,0.752252,3.868209,1.527927,2.495499,2.520855,-12.110662,-1.984166,-0.434790,-0.937712,-0.690674,0.551270,-0.108887,0.007672,0.038796,0.014911,0.999937,-0.009921,-0.002174,-0.004688,0.635830,-0.613890,-0.451258,-0.123388
19581,NaN,1.060458,3.462547,1.464334,2.472641,2.453114,-11.580702,-1.932451,-0.372905,-1.291218,-0.701172,0.540527,-0.095703,0.010802,0.034696,0.014328,0.999931,-0.009662,-0.001864,-0.006456,0.628109,-0.617512,-0.454895,-0.131258
19582,NaN,0.271662,3.710648,1.093428,2.432889,1.820238,-12.222135,-1.893516,-0.362018,-1.479152,-0.709473,0.536133,-0.078613,0.002972,0.037186,0.010588,0.999926,-0.009467,-0.001810,-0.007396,0.620423,-0.620284,-0.459323,-0.139087
19583,NaN,-0.845695,4.420864,1.031672,2.469452,1.412982,-13.449672,-1.967557,-0.298602,-1.726250,-0.720215,0.531982,-0.070068,-0.008089,0.044378,0.009868,0.999913,-0.009838,-0.001493,-0.008631,0.612257,-0.622790,-0.463888,-0.148598
19584,NaN,-1.459658,4.722239,0.803044,2.574272,0.974554,-13.995588,-2.038623,-0.115420,-2.037897,-0.726318,0.516846,-0.050537,-0.014118,0.047446,0.007539,0.999896,-0.010193,-0.000577,-0.010189,0.604064,-0.624322,-0.469025,-0.159195
19585,NaN,-1.997240,4.507671,0.780554,2.272387,0.660531,-14.207604,-2.173210,-0.242157,-2.212712,-0.745117,0.499756,-0.037598,-0.019481,0.045375,0.007290,0.999879,-0.010866,-0.001211,-0.011063,0.594729,-0.626045,-0.474545,-0.170797
19586,NaN,-1.108188,3.953618,0.729027,2.408416,0.832646,-13.113489,-2.231150,-0.172369,-2.446127,-0.751221,0.489014,-0.022461,-0.010603,0.039746,0.006838,0.999863,-0.011155,-0.000862,-0.012230,0.585167,-0.626935,-0.480744,-0.182807
19587,NaN,-0.806980,2.962846,0.865337,1.798862,0.895553,-12.290504,-2.166232,-0.030265,-2.646432,-0.767578,0.467529,-0.009277,-0.007677,0.029823,0.008330,0.999854,-0.010831,-0.000151,-0.013232,0.575618,-0.627100,-0.486719,-0.196250
19588,NaN,-0.587840,2.609158,0.415837,1.823204,0.501719,-11.749080,-2.058620,0.130225,-2.889238,-0.781982,0.446045,-0.000488,-0.005498,0.026214,0.003893,0.999842,-0.010293,0.000651,-0.014445,0.566555,-0.625764,-0.493308,-0.209957
19589,NaN,-0.687043,2.288335,-0.281241,1.776513,-0.231557,-11.418115,-1.944687,0.267615,-3.114021,-0.794189,0.422607,0.016846,-0.006517,0.022958,-0.003027,0.999831,-0.009723,0.001338,-0.015569,0.557552,-0.623472,-0.499794,-0.224998
19590,NaN,-0.417441,1.572058,-0.801515,1.442033,-0.705803,-10.655406,-1.826479,0.389025,-3.276062,-0.800293,0.413818,0.021240,-0.003933,0.015712,-0.008151,0.999822,-0.009132,0.001945,-0.016379,0.549047,-0.619826,-0.506779,-0.239873
19591,NaN,-0.360300,0.602470,-0.974819,0.656454,-0.964248,-10.099606,-1.778313,0.460948,-3.429154,-0.824951,0.379639,0.025879,-0.003523,0.005999,-0.009793,0.999811,-0.008891,0.002305,-0.017145,0.540231,-0.615639,-0.513521,-0.255803
19592,NaN,0.150790,-0.432513,-1.534059,0.006552,-1.420580,-9.074507,-1.815466,0.540893,-3.572439,-0.832764,0.354004,0.032715,0.001387,-0.004490,-0.015304,0.999796,-0.009077,0.002704,-0.017861,0.531352,-0.610549,-0.520631,-0.271732
19593,NaN,1.024596,-2.184654,-2.514995,-1.207362,-2.224197,-7.416553,-1.901631,0.612671,-3.671603,-0.844482,0.323975,0.045898,0.009763,-0.022267,-0.024970,0.999782,-0.009507,0.003063,-0.018357,0.521746,-0.605380,-0.527123,-0.288856
19594,NaN,1.824138,-4.498364,-3.945213,-3.030307,-3.537666,-5.638449,-1.843226,0.773357,-3.748637,-0.858398,0.289795,0.044189,0.017238,-0.045674,-0.039101,0.999774,-0.009215,0.003866,-0.018742,0.512673,-0.599052,-0.533672,-0.305774
19595,NaN,2.459115,-6.730392,-5.064507,-5.034163,-4.610546,-4.300497,-1.655745,0.897431,-3.711609,-0.865967,0.261963,0.040283,0.023106,-0.068159,-0.050189,0.999783,-0.008278,0.004487,-0.018557,0.504014,-0.592186,-0.539478,-0.322877
19596,NaN,3.363222,-9.295718,-6.165732,-7.411459,-5.634360,-2.809457,-1.402026,0.921818,-3.563803,-0.875977,0.240479,0.044922,0.031681,-0.093963,-0.061150,0.999806,-0.007010,0.004609,-0.017818,0.496498,-0.584499,-0.545340,-0.338312
19597,NaN,4.143061,-11.446777,-7.235552,-9.519286,-6.642897,-1.702161,-1.175874,0.852532,-3.334145,-0.879395,0.214600,0.045166,0.039203,-0.115557,-0.071849,0.999835,-0.005879,0.004262,-0.016670,0.489384,-0.577040,-0.550600,-0.352658
19598,NaN,5.180985,-13.236993,-7.949265,-11.334127,-7.230403,-0.620975,-1.028020,0.724789,-2.994603,-0.883057,0.191162,0.045654,0.049529,-0.133530,-0.078991,0.999868,-0.005140,0.003624,-0.014972,0.483068,-0.569953,-0.555583,-0.364866
19599,NaN,6.282911,-14.611253,-8.585216,-12.789288,-7.687058,0.384970,-0.905815,0.610622,-2.563508,-0.890869,0.174072,0.043701,0.060685,-0.147287,-0.085374,0.999903,-0.004529,0.003053,-0.012817,0.477272,-0.564015,-0.559540,-0.375518
19600,NaN,6.626886,-15.784520,-8.298983,-14.217365,-7.452008,0.398007,-0.803347,0.503269,-2.079973,-0.894775,0.156982,0.046143,0.064412,-0.158854,-0.082517,0.999935,-0.004017,0.002516,-0.010400,0.472477,-0.559126,-0.562661,-0.384130
19601,NaN,6.367266,-16.550873,-7.691738,-15.273489,-7.005339,-0.259044,-0.754510,0.360724,-1.582317,-0.894531,0.150391,0.046143,0.062221,-0.166294,-0.076404,0.999960,-0.003773,0.001804,-0.007911,0.468286,-0.555783,-0.564746,-0.390993
19602,NaN,5.836991,-16.820760,-7.308047,-15.770640,-6.772261,-1.104445,-0.725117,0.280957,-1.143539,-0.894287,0.144043,0.052734,0.057304,-0.168801,-0.072550,0.999976,-0.003626,0.001405,-0.005718,0.464816,-0.553684,-0.565837,-0.396496
19603,NaN,4.425269,-16.135868,-6.142891,-15.363500,-5.926878,-2.992393,-0.683572,0.217924,-0.773924,-0.896240,0.137695,0.050537,0.043561,-0.161737,-0.060924,0.999986,-0.003418,0.001090,-0.003870,0.462156,-0.552526,-0.566275,-0.400575
19604,NaN,2.868488,-13.839610,-4.981912,-13.299356,-4.995761,-5.042901,-0.569923,0.201425,-0.490905,-0.887695,0.137451,0.052734,0.028295,-0.138607,-0.049453,0.999992,-0.002850,0.001007,-0.002455,0.460164,-0.552041,-0.566021,-0.403882
19605,NaN,1.804405,-12.397372,-8.031849,-11.711058,-8.077809,-5.446844,-0.610330,-0.010352,-0.300272,-0.889893,0.139648,0.063477,0.017862,-0.124245,-0.079939,0.999994,-0.003052,-0.000052,-0.001501,0.458187,-0.552346,-0.565970,-0.405780
19606,NaN,4.706657,-24.484595,-28.147435,-22.573133,-27.223516,2.962829,-1.880913,-0.684110,-0.207901,-0.889648,0.135498,0.065674,0.047767,-0.247527,-0.278992,0.999949,-0.009404,-0.003420,-0.001039,0.450610,-0.557422,-0.564268,-0.409675
19607,NaN,10.720695,-32.869889,-29.435312,-31.166419,-26.774064,9.514876,-1.470659,-0.957009,-0.235379,-0.883301,0.133301,0.072266,0.108217,-0.330976,-0.291409,0.999961,-0.007353,-0.004785,-0.001177,0.443792,-0.561668,-0.564550,-0.410926
19608,NaN,20.780314,-19.247209,-6.511767,-18.489484,-1.185198,12.579516,-0.916026,-0.030289,-0.032684,-0.880615,0.122559,0.074463,0.207781,-0.192802,-0.064204,0.999989,-0.004580,-0.000151,-0.000163,0.441061,-0.563660,-0.562823,-0.413501
19609,NaN,11.295466,16.444857,6.006518,16.437357,9.304243,-1.018427,0.319029,0.024158,-1.072855,-0.882324,0.111816,0.070312,0.113842,0.163743,0.060313,0.999984,0.001595,0.000121,-0.005364,0.440584,-0.559315,-0.567229,-0.413887
19610,NaN,22.338752,14.532480,1.896151,14.669331,8.420251,10.868499,0.919814,-0.302107,-0.719566,-0.875977,0.114014,0.072510,0.223879,0.144430,0.019965,0.999982,0.004599,-0.001511,-0.003598,0.440802,-0.555859,-0.571801,-0.412016
19611,NaN,21.966709,-4.294310,1.789814,-4.271931,7.518085,10.909504,0.458046,-0.089679,-0.349519,-0.880127,0.105225,0.076904,0.219584,-0.043368,0.017898,0.999996,0.002290,-0.000448,-0.001748,0.441674,-0.553614,-0.574493,-0.410359
19612,NaN,23.029340,-4.118182,9.372617,-4.551411,15.068191,9.869531,0.409591,0.203017,0.036082,-0.875977,0.109619,0.072510,0.230396,-0.041332,0.093408,0.999997,0.002048,0.001015,0.000180,0.443463,-0.552391,-0.574784,-0.409667
19613,NaN,16.386586,-2.426595,7.942891,-2.838140,11.919754,3.875337,0.240927,0.390888,0.122389,-0.888916,0.109619,0.066162,0.164035,-0.024261,0.079079,0.999997,0.001205,0.001954,0.000612,0.446243,-0.550822,-0.574737,-0.408827
19614,NaN,11.001399,-1.225635,0.965864,-1.205185,3.802350,0.558201,-0.341981,0.185111,0.372497,-0.878174,0.114014,0.068115,0.110045,-0.012035,0.009578,0.999996,-0.001710,0.000926,0.001862,0.446593,-0.552272,-0.572597,-0.409491
19615,NaN,9.588468,-1.891094,-3.297854,-1.581517,-0.726708,0.353994,-0.450527,0.207928,0.456302,-0.878418,0.120361,0.068115,0.095893,-0.018767,-0.033036,0.999994,-0.002253,0.001040,0.002282,0.447709,-0.553484,-0.570660,-0.409341
19616,NaN,5.955256,-1.476386,-6.715979,-1.007864,-4.972124,-2.262103,-0.284163,0.276475,0.196199,-0.878174,0.115967,0.066162,0.059474,-0.014801,-0.067221,0.999998,-0.001421,0.001382,0.000981,0.448112,-0.554109,-0.568916,-0.410480
19617,NaN,5.886976,-2.092432,-5.942034,-1.657817,-4.291146,-2.520212,-0.242656,0.198578,-0.010719,-0.882324,0.111816,0.063965,0.058810,-0.021000,-0.059453,0.999999,-0.001213,0.000993,-0.000054,0.448801,-0.553567,-0.568709,-0.410744
19618,NaN,7.798809,-3.703540,-4.078884,-3.357767,-2.091679,-1.122168,-0.099479,0.246190,-0.220473,-0.882324,0.109619,0.059570,0.077897,-0.037142,-0.040866,0.999999,-0.000497,0.001231,-0.001102,0.448773,-0.552654,-0.568562,-0.412206
19619,NaN,8.912453,-3.444944,-2.181904,-3.202985,0.007496,-0.549811,0.031004,0.242897,-0.307884,-0.880127,0.111816,0.057617,0.089045,-0.034583,-0.021933,0.999998,0.000155,0.001214,-0.001539,0.449740,-0.550566,-0.569645,-0.412451
19620,NaN,10.061954,-1.669193,-1.423844,-1.490243,1.102331,0.317484,0.089877,0.205326,-0.329907,-0.880127,0.111816,0.057617,0.100577,-0.016851,-0.014349,0.999998,0.000449,0.001027,-0.001650,0.449892,-0.548997,-0.570275,-0.413504
19621,NaN,11.796865,-0.945047,-2.130752,-0.734978,0.872275,2.158028,0.138748,0.242270,-0.304145,-0.877930,0.109619,0.055420,0.117928,-0.009615,-0.021457,0.999998,0.000694,0.001211,-0.001521,0.451199,-0.546643,-0.571580,-0.413398
19622,NaN,12.683020,-0.299880,-2.784671,-0.069205,0.468488,3.167256,0.270123,0.260712,-0.211146,-0.884277,0.105469,0.055420,0.126791,-0.003095,-0.028016,0.999998,0.001351,0.001304,-0.001056,0.452246,-0.544888,-0.572125,-0.413816
19623,NaN,12.225452,-0.034250,-2.671539,0.187946,0.449077,2.691827,0.364828,0.275294,-0.110208,-0.882080,0.101074,0.051270,0.122217,-0.000361,-0.026884,0.999997,0.001824,0.001376,-0.000551,0.454664,-0.542500,-0.573272,-0.412714
19624,NaN,11.940035,-0.908375,-1.764649,-0.749142,1.156709,2.212464,0.352695,0.295892,-0.033011,-0.886475,0.107666,0.049072,0.119373,-0.009072,-0.017839,0.999997,0.001763,0.001479,-0.000165,0.456401,-0.540991,-0.573415,-0.412581
19625,NaN,11.288897,-0.949484,-0.734558,-0.861393,1.951832,1.337582,0.280832,0.334223,0.001435,-0.884277,0.103271,0.044678,0.112877,-0.009484,-0.007548,0.999998,0.001404,0.001671,0.000007,0.458986,-0.538986,-0.573929,-0.411621
19626,NaN,10.711407,0.111076,-1.548589,0.266558,1.071571,0.954172,0.212372,0.356733,-0.023323,-0.882080,0.103271,0.042725,0.107086,0.001115,-0.015676,0.999998,0.001062,0.001784,-0.000117,0.460534,-0.537695,-0.573608,-0.412027
19627,NaN,10.408734,0.086105,-3.131248,0.391227,-0.572933,1.035003,0.140303,0.429772,-0.049863,-0.884033,0.101074,0.036133,0.104020,0.000857,-0.031535,0.999997,0.000702,0.002149,-0.000249,0.462914,-0.535658,-0.573733,-0.411840
19628,NaN,10.005104,-0.386937,-3.477925,-0.048557,-1.090203,0.730401,0.135294,0.427612,-0.095380,-0.879883,0.101074,0.036377,0.099975,-0.003893,-0.034996,0.999997,0.000676,0.002138,-0.000477,0.464307,-0.534189,-0.573274,-0.412818
19629,NaN,10.508024,0.117486,-3.142731,0.434646,-0.645198,1.128236,0.221880,0.375418,-0.119937,-0.888428,0.105469,0.029785,0.105022,0.001147,-0.031623,0.999997,0.001109,0.001877,-0.000600,0.466578,-0.531894,-0.573847,-0.412424
19630,NaN,10.797538,-0.036387,-2.929155,0.259105,-0.428171,1.363962,0.244408,0.358648,-0.123409,-0.884033,0.101074,0.023438,0.107922,-0.000395,-0.029486,0.999997,0.001222,0.001793,-0.000617,0.468003,-0.530228,-0.573840,-0.412963
19631,NaN,10.817680,-0.234922,-2.483512,0.026220,-0.046219,1.288767,0.234683,0.317608,-0.087908,-0.886230,0.099121,0.019043,0.108136,-0.002367,-0.025010,0.999998,0.001173,0.001588,-0.000440,0.470182,-0.528133,-0.574455,-0.412317
19632,NaN,10.546944,-0.344802,-1.997217,-0.134775,0.321787,0.921557,0.267970,0.272846,-0.096751,-0.890381,0.096924,0.019043,0.105440,-0.003472,-0.020121,0.999998,0.001340,0.001364,-0.000484,0.471475,-0.526661,-0.574619,-0.412494
19633,NaN,9.589269,-0.836891,-1.698617,-0.649398,0.323048,-0.065195,0.267527,0.274527,-0.097986,-0.886230,0.099121,0.014893,0.095865,-0.008393,-0.017129,0.999998,0.001338,0.001373,-0.000490,0.473584,-0.524553,-0.575406,-0.411668
19634,NaN,9.370339,-0.662794,-1.181154,-0.536502,0.771688,-0.391737,0.226785,0.220406,-0.078097,-0.894531,0.096924,0.010498,0.093688,-0.006651,-0.011922,0.999999,0.001134,0.001102,-0.000390,0.474654,-0.523338,-0.575553,-0.411777
19635,NaN,9.509004,-0.516259,-1.335739,-0.369528,0.644748,-0.225217,0.219645,0.239253,-0.097075,-0.888184,0.099121,0.008301,0.095071,-0.005194,-0.013477,0.999999,0.001098,0.001196,-0.000485,0.476533,-0.521415,-0.576304,-0.410995
19636,NaN,9.753278,-0.588648,-1.771333,-0.391031,0.241259,0.106960,0.219701,0.203655,-0.067906,-0.888184,0.099121,0.012695,0.097513,-0.005900,-0.017819,0.999999,0.001099,0.001018,-0.000340,0.477555,-0.520277,-0.576444,-0.411053
19637,NaN,9.990384,-0.507371,-2.333750,-0.230402,-0.266587,0.453149,0.260548,0.209734,-0.051692,-0.886230,0.103271,0.006104,0.099878,-0.005069,-0.023449,0.999999,0.001303,0.001049,-0.000258,0.479529,-0.518458,-0.577203,-0.409988
19638,NaN,9.402222,-0.945152,-2.492118,-0.639099,-0.616219,-0.080394,0.268373,0.153507,-0.058824,-0.890381,0.099121,0.010498,0.094000,-0.009446,-0.025006,0.999999,0.001342,0.000768,-0.000294,0.480550,-0.517330,-0.577535,-0.409750
19639,NaN,9.167186,-1.258085,-2.225751,-0.972258,-0.461965,-0.356719,0.305345,0.096582,-0.083895,-0.894775,0.099121,0.004150,0.091656,-0.012585,-0.022321,0.999999,0.001527,0.000483,-0.000419,0.482210,-0.515566,-0.578704,-0.408371
19640,NaN,8.543743,-1.195552,-2.001624,-0.937713,-0.375991,-1.014353,0.325041,0.109942,-0.080818,-0.896973,0.103516,0.001953,0.085422,-0.011957,-0.020083,0.999998,0.001625,0.000550,-0.000404,0.483204,-0.514324,-0.579307,-0.407907
19641,NaN,8.403172,-1.236261,-1.532538,-1.035662,0.034438,-1.244343,0.326122,0.010334,-0.068240,-0.894531,0.092773,0.001953,0.084027,-0.012366,-0.015350,0.999999,0.001631,0.000052,-0.000341,0.484665,-0.512750,-0.580653,-0.406237
19642,NaN,9.165076,-0.631941,-1.586299,-0.432504,0.217985,-0.502493,0.298920,0.036725,-0.044210,-0.896729,0.092773,-0.000244,0.091646,-0.006316,-0.015889,0.999999,0.001495,0.000184,-0.000221,0.485451,-0.511824,-0.581281,-0.405568
19643,NaN,8.447340,-0.175330,-2.333723,0.145771,-0.585213,-1.067927,0.237997,0.037460,-0.004915,-0.894531,0.096924,0.001953,0.084469,-0.001728,-0.023355,0.999999,0.001190,0.000187,-0.000025,0.486857,-0.510613,-0.582186,-0.404110
19644,NaN,8.678451,-0.098073,-2.480089,0.248320,-0.668501,-0.814498,0.066779,-0.029687,0.026765,-0.899170,0.101318,-0.000244,0.086788,-0.000961,-0.024788,1.000000,0.000334,-0.000148,0.000134,0.486999,-0.510590,-0.582322,-0.403772
19645,NaN,9.510227,-0.560429,-2.571545,-0.185093,-0.655787,0.031449,0.018523,-0.019774,0.047311,-0.898926,0.096924,0.004150,0.095106,-0.005579,-0.025707,1.000000,0.000093,-0.000099,0.000237,0.487722,-0.510229,-0.582744,-0.402744
19646,NaN,9.210270,-0.993699,-2.233961,-0.659089,-0.454404,-0.317099,0.033872,-0.016677,0.070977,-0.894775,0.101318,0.001953,0.092108,-0.009901,-0.022334,1.000000,0.000169,-0.000083,0.000355,0.487907,-0.510389,-0.582669,-0.402427
19647,NaN,9.734094,-1.115205,-1.813725,-0.830953,0.043804,0.116736,0.097257,-0.063142,0.110791,-0.886230,0.101318,-0.000244,0.097353,-0.011089,-0.018112,1.000000,0.000486,-0.000316,0.000554,0.488784,-0.510147,-0.583159,-0.400956
19648,NaN,10.126811,-0.334290,-1.991257,-0.017866,0.074153,0.513169,0.111544,0.116373,0.128964,-0.894775,0.099121,0.008301,0.101259,-0.003266,-0.019973,0.999999,0.000558,0.000582,0.000645,0.489670,-0.510019,-0.582766,-0.400609
19649,NaN,9.697571,-0.266909,-2.575396,0.168528,-0.574347,0.206718,0.089298,0.126025,0.144513,-0.894775,0.101318,0.006104,0.096961,-0.002588,-0.025816,0.999999,0.000446,0.000630,0.000723,0.491104,-0.509547,-0.582658,-0.399611
19650,NaN,10.286325,-0.234445,-2.744023,0.248408,-0.623442,0.814762,0.022066,0.121652,0.167942,-0.894775,0.101318,-0.000244,0.102848,-0.002255,-0.027503,0.999999,0.000110,0.000608,0.000840,0.491854,-0.509741,-0.581972,-0.399440
19651,NaN,10.256189,-0.968799,-2.788324,-0.440965,-0.801594,0.820548,0.049841,0.156400,0.159709,-0.895020,0.107666,0.006104,0.102548,-0.009599,-0.027966,0.999999,0.000249,0.000782,0.000799,0.493250,-0.509395,-0.581632,-0.398656
19652,NaN,9.796512,-1.387724,-2.325040,-0.913954,-0.527401,0.296206,0.157616,0.145645,0.139502,-0.896973,0.103516,0.006104,0.097958,-0.013791,-0.023333,0.999999,0.000788,0.000728,0.000698,0.494357,-0.509124,-0.581227,-0.398220
19653,NaN,10.059072,-0.636971,-1.305008,-0.320106,0.622306,0.326540,0.216302,0.133372,0.151861,-0.899414,0.114014,-0.000488,0.100587,-0.006279,-0.013124,0.999999,0.001082,0.000667,0.000759,0.496054,-0.508420,-0.581265,-0.396951
19654,NaN,10.542814,-0.381112,-1.408021,-0.023461,0.647532,0.810814,0.198465,0.179913,0.173291,-0.899414,0.112061,-0.009033,0.105419,-0.003706,-0.014179,0.999999,0.000992,0.000900,0.000866,0.497429,-0.508077,-0.580768,-0.396397
19655,NaN,11.005286,-0.374486,-1.346845,0.006476,0.783158,1.253346,0.206906,0.187195,0.170378,-0.897461,0.114258,-0.009033,0.110043,-0.003637,-0.013575,0.999999,0.001035,0.000936,0.000852,0.499260,-0.507365,-0.580575,-0.395288
19656,NaN,11.136869,-0.101238,-1.659147,0.358110,0.536624,1.429046,0.240711,0.196190,0.158414,-0.899414,0.109863,-0.015381,0.111353,-0.000904,-0.016702,0.999998,0.001204,0.000981,0.000792,0.500757,-0.506838,-0.580155,-0.394687
19657,NaN,11.046286,0.008307,-1.380134,0.442273,0.792604,1.282419,0.242622,0.177101,0.151679,-0.897217,0.112061,-0.013184,0.110450,0.000184,-0.013899,0.999999,0.001213,0.000886,0.000758,0.502574,-0.506025,-0.580073,-0.393539
19658,NaN,11.097733,-0.155459,-0.890331,0.215280,1.230578,1.251480,0.286115,0.169206,0.159114,-0.899902,0.125000,-0.015625,0.110971,-0.001453,-0.008999,0.999998,0.001431,0.000846,0.000796,0.504106,-0.505437,-0.579803,-0.392732
19659,NaN,11.166723,0.074571,-0.830477,0.459227,1.330439,1.296315,0.344226,0.162112,0.185289,-0.895264,0.116211,-0.015381,0.111660,0.000864,-0.008394,0.999998,0.001721,0.000811,0.000926,0.506167,-0.504513,-0.579843,-0.391207
19660,NaN,11.188389,0.483841,-0.858352,0.894846,1.372029,1.298912,0.387554,0.147189,0.215036,-0.901855,0.120605,-0.017822,0.111872,0.004975,-0.008656,0.999997,0.001938,0.000736,0.001075,0.507996,-0.503870,-0.579681,-0.389904
19661,NaN,11.286713,0.886182,-1.017482,1.359184,1.308360,1.396736,0.427500,0.130389,0.282352,-0.902100,0.125000,-0.015625,0.112848,0.009043,-0.010229,0.999997,0.002137,0.000652,0.001412,0.510328,-0.503092,-0.579686,-0.387851
19662,NaN,11.613637,0.994919,-1.281514,1.570030,1.134061,1.752667,0.514268,0.118030,0.340279,-0.902344,0.131348,-0.015625,0.116112,0.010180,-0.012858,0.999995,0.002571,0.000590,0.001701,0.512626,-0.502538,-0.579520,-0.385782
19663,NaN,11.639229,1.332770,-1.496577,2.000424,1.003757,1.783785,0.628524,0.115540,0.413809,-0.902344,0.133545,-0.020020,0.116356,0.013616,-0.014991,0.999993,0.003143,0.000578,0.002069,0.515623,-0.501672,-0.579579,-0.382815
19664,NaN,11.566343,1.996954,-1.372440,2.682111,1.254025,1.627811,0.751236,0.118703,0.512183,-0.896240,0.142090,-0.020264,0.115604,0.020317,-0.013717,0.999989,0.003756,0.000594,0.002561,0.518831,-0.500991,-0.579416,-0.379605
19665,NaN,11.979104,2.268276,-1.155108,2.987219,1.611930,1.954046,0.855267,0.180735,0.545625,-0.904785,0.146240,-0.024658,0.119718,0.023059,-0.011561,0.999987,0.004276,0.000904,0.002728,0.522766,-0.499810,-0.579349,-0.375846
19666,NaN,12.777058,2.532097,-0.560549,3.226724,2.402745,2.588652,1.000001,0.188490,0.710558,-0.900879,0.155029,-0.035400,0.127674,0.025803,-0.005598,0.999981,0.005000,0.000942,0.003553,0.527142,-0.498894,-0.578944,-0.371551
19667,NaN,13.641225,2.947551,0.665874,3.477109,3.852273,3.159716,1.122048,0.237997,0.806428,-0.905518,0.165771,-0.031250,0.136300,0.029988,0.006664,0.999975,0.005610,0.001190,0.004032,0.532309,-0.497655,-0.578495,-0.366511
19668,NaN,14.362287,3.017072,0.866900,3.646661,4.213514,3.791591,1.199138,0.299242,0.924199,-0.901611,0.174316,-0.037842,0.143495,0.030782,0.008638,0.999970,0.005996,0.001496,0.004621,0.537841,-0.496578,-0.577575,-0.361310
19669,NaN,14.876352,2.905183,0.330847,3.849406,3.790745,4.352966,1.079310,0.316248,1.041302,-0.904053,0.187012,-0.042236,0.148615,0.029808,0.003233,0.999971,0.005396,0.001581,0.005206,0.543461,-0.495949,-0.576165,-0.355975
19670,NaN,15.114301,1.112020,-0.536169,2.555897,2.570379,4.912244,0.679171,0.279434,1.228498,-0.902344,0.199951,-0.046875,0.151063,0.012067,-0.005533,0.999974,0.003396,0.001397,0.006142,0.548128,-0.497136,-0.573549,-0.351358
19671,NaN,15.888407,-1.411930,-2.385417,0.947111,0.331839,6.284315,0.304837,0.146850,1.419965,-0.902832,0.215088,-0.049072,0.158961,-0.012954,-0.023991,0.999973,0.001524,0.000734,0.007100,0.551919,-0.499972,-0.570210,-0.346805
19672,NaN,17.432011,-3.322107,-3.603637,-0.111024,-0.968998,8.268790,0.083501,-0.023993,1.554880,-0.901367,0.229980,-0.047119,0.174576,-0.031849,-0.036029,0.999970,0.000418,-0.000120,0.007774,0.554744,-0.504204,-0.566512,-0.342199
19673,NaN,17.739468,-4.320189,-3.906768,-0.653998,-1.355913,8.797554,-0.056036,-0.126233,1.727284,-0.902100,0.251465,-0.041016,0.177784,-0.041679,-0.038944,0.999962,-0.000280,-0.000631,0.008636,0.557295,-0.509337,-0.562456,-0.337108
19674,NaN,19.953720,-8.754084,-3.953260,-4.173328,-1.946023,11.848120,0.156915,-0.174832,2.148036,-0.896240,0.270752,-0.043457,0.200496,-0.085360,-0.039425,0.999942,0.000785,-0.000874,0.010740,0.560796,-0.515209,-0.557700,-0.330210
19675,NaN,19.780766,-12.935806,-4.774193,-7.389514,-3.638972,12.848318,0.662471,-0.208155,2.733799,-0.899170,0.294189,-0.045898,0.199599,-0.126479,-0.047957,0.999901,0.003312,-0.001041,0.013669,0.566497,-0.521154,-0.552354,-0.319976
19676,NaN,19.898342,-15.515087,-5.656437,-8.803101,-4.963079,13.987778,1.560744,-0.130413,3.186505,-0.894043,0.332764,-0.057373,0.201454,-0.151507,-0.057625,0.999842,0.007803,-0.000652,0.015932,0.575217,-0.525663,-0.546825,-0.306244
19677,NaN,20.846058,-15.539695,-5.806026,-7.608390,-4.868630,15.248294,2.707599,-0.050236,3.539375,-0.881836,0.354248,-0.063965,0.211172,-0.150871,-0.060070,0.999752,0.013537,-0.000251,0.017695,0.587624,-0.527355,-0.541790,-0.288200
19678,NaN,24.487164,-12.550789,-3.972653,-3.431759,-1.481301,17.734027,3.581658,-0.043856,3.832045,-0.867676,0.380127,-0.079346,0.247216,-0.120049,-0.041855,0.999656,0.017906,-0.000219,0.019158,0.602272,-0.527097,-0.536784,-0.267020
19679,NaN,25.346085,-14.219246,-5.378137,-2.798687,-3.060135,19.447565,4.014291,-0.007939,3.937381,-0.858154,0.414307,-0.094727,0.256182,-0.136050,-0.056543,0.999605,0.020069,-0.000040,0.019684,0.618002,-0.525219,-0.531705,-0.243944
19680,NaN,23.579837,-10.403405,-5.350579,1.295206,-2.170647,16.385292,3.974422,0.089383,4.069589,-0.841797,0.446533,-0.116455,0.237811,-0.098117,-0.055601,0.999595,0.019869,0.000447,0.020345,0.633392,-0.523439,-0.525370,-0.220935
19681,NaN,21.565821,-5.600621,-4.409119,5.336949,-0.015737,12.262526,3.316724,0.417604,3.972142,-0.825439,0.470215,-0.142578,0.216610,-0.050964,-0.045416,0.999663,0.016582,0.002088,0.019858,0.647463,-0.522599,-0.517245,-0.200351
19682,NaN,18.328400,-3.103769,-2.519062,6.099391,1.840766,7.829993,2.807361,0.612987,3.837682,-0.806885,0.495850,-0.157959,0.183751,-0.027152,-0.026153,0.999713,0.014035,0.003065,0.019187,0.660045,-0.522674,-0.507892,-0.182206
19683,NaN,16.866006,-0.223418,-2.016361,8.122869,3.130169,4.773627,2.026872,0.658002,3.716375,-0.798828,0.515137,-0.173096,0.168593,0.001107,-0.020718,0.999771,0.010134,0.003290,0.018580,0.670313,-0.524626,-0.497801,-0.166259
19684,NaN,13.675712,1.419251,-0.882530,7.814503,3.947593,0.824442,1.321349,0.586292,3.425970,-0.780518,0.542969,-0.188477,0.136460,0.016591,-0.009121,0.999827,0.006606,0.002931,0.017129,0.677974,-0.528149,-0.487856,-0.152990
19685,NaN,11.819721,3.089937,-0.737172,8.356510,4.271213,-1.957105,0.681773,0.384898,3.086662,-0.766113,0.560059,-0.192871,0.117687,0.032744,-0.007489,0.999873,0.003409,0.001924,0.015433,0.683015,-0.532975,-0.478883,-0.141770
19686,NaN,10.196825,5.724989,-0.549448,9.482980,5.016429,-5.127378,0.060631,0.291732,2.797948,-0.751953,0.585693,-0.197510,0.101146,0.058670,-0.005625,0.999901,0.000303,0.001459,0.013989,0.685794,-0.539211,-0.470420,-0.132826
19687,NaN,8.165765,6.487608,-0.105151,8.825363,5.045455,-7.482311,-0.341213,0.176323,2.446529,-0.745850,0.600830,-0.193359,0.080855,0.065866,-0.001235,0.999923,-0.001706,0.000882,0.012232,0.686859,-0.545985,-0.462942,-0.125740
19688,NaN,5.995723,7.467035,0.280677,8.177094,4.987502,-10.013613,-0.808350,0.047237,2.072050,-0.733643,0.617920,-0.191406,0.059180,0.075297,0.002489,0.999938,-0.004042,0.000236,0.010360,0.686025,-0.553496,-0.456580,-0.120608
19689,NaN,4.613827,6.788111,0.016178,7.115931,3.973370,-10.782140,-1.175370,-0.105103,1.723570,-0.729980,0.637207,-0.183105,0.045551,0.068275,-0.000215,0.999945,-0.005877,-0.000526,0.008618,0.683512,-0.561532,-0.451388,-0.117228
19690,NaN,2.847353,6.149403,-0.090450,5.764345,2.966902,-11.787370,-1.401701,-0.167815,1.311997,-0.721680,0.645752,-0.172607,0.028070,0.061671,-0.001313,0.999954,-0.007008,-0.000839,0.006560,0.679938,-0.569358,-0.447430,-0.115424
19691,NaN,1.294820,6.590367,-0.209436,5.245428,2.361350,-13.285700,-1.518255,-0.216231,0.849600,-0.724121,0.652100,-0.157715,0.012671,0.065940,-0.002581,0.999962,-0.007591,-0.001081,0.004248,0.675561,-0.576579,-0.444776,-0.115535
19692,NaN,-0.279102,7.784822,-0.278715,5.197005,1.988695,-15.271042,-1.733598,-0.329516,0.442375,-0.726807,0.665039,-0.145020,-0.002958,0.077814,-0.003467,0.999959,-0.008668,-0.001648,0.002212,0.670061,-0.583587,-0.443588,-0.116934
19693,NaN,-0.733444,8.493881,-0.274886,5.469798,1.887496,-16.079718,-2.004111,-0.434239,0.019120,-0.729004,0.664795,-0.127930,-0.007335,0.084905,-0.003616,0.999947,-0.010020,-0.002171,0.000096,0.663177,-0.590643,-0.443689,-0.120323
19694,NaN,-0.698677,8.150069,-0.107744,5.266625,1.801530,-15.807491,-2.195949,-0.498571,-0.382354,-0.742188,0.671387,-0.108643,-0.006827,0.081495,-0.001989,0.999935,-0.010980,-0.002493,-0.001912,0.655316,-0.597340,-0.445115,-0.124975
19695,NaN,-0.565403,7.523270,-0.438186,5.154901,1.248706,-15.195636,-2.295120,-0.448691,-0.783121,-0.741943,0.664795,-0.089355,-0.005348,0.075197,-0.005257,0.999924,-0.011475,-0.002243,-0.003916,0.646855,-0.603451,-0.447322,-0.131638
19696,NaN,-0.965316,6.850909,-0.388123,4.540583,0.857081,-14.976314,-2.392936,-0.554306,-1.119870,-0.750732,0.666992,-0.070068,-0.009257,0.068508,-0.004727,0.999909,-0.011964,-0.002771,-0.005599,0.637603,-0.608998,-0.450872,-0.138921
19697,NaN,-0.782417,6.618452,-0.330921,4.572673,0.802456,-14.605287,-2.534142,-0.533515,-1.487087,-0.763184,0.654053,-0.048584,-0.007322,0.066191,-0.004168,0.999889,-0.012670,-0.002667,-0.007435,0.627488,-0.614151,-0.455124,-0.148120
19698,NaN,-1.458383,6.601450,-0.226549,4.292833,0.524038,-15.013658,-2.712171,-0.440424,-1.890397,-0.786621,0.643311,-0.027100,-0.013953,0.066109,-0.003193,0.999861,-0.013560,-0.002202,-0.009452,0.616674,-0.618601,-0.460233,-0.158843
19699,NaN,-1.507965,6.034249,-0.104974,3.944382,0.395559,-14.606260,-2.868662,-0.387813,-2.172126,-0.801270,0.632568,-0.007812,-0.014420,0.060478,-0.001945,0.999836,-0.014343,-0.001939,-0.010860,0.604963,-0.622803,-0.465595,-0.171339
19700,NaN,-1.093555,4.944425,-0.124430,3.445614,0.254974,-13.516517,-2.910151,-0.204051,-2.457839,-0.817871,0.613281,0.022461,-0.010325,0.049548,-0.001976,0.999818,-0.014550,-0.001020,-0.012288,0.593215,-0.625948,-0.471282,-0.184875
19701,NaN,-1.304981,4.322132,-0.433255,3.062771,-0.279155,-13.145925,-2.905447,-0.154554,-2.696726,-0.830322,0.593994,0.044189,-0.012462,0.043323,-0.004971,0.999803,-0.014526,-0.000773,-0.013483,0.580997,-0.628399,-0.477177,-0.199646
19702,NaN,-1.132968,3.983708,-0.559898,3.007048,-0.443944,-12.680671,-2.913941,-0.079538,-2.886344,-0.851074,0.574707,0.061523,-0.010752,0.039908,-0.006184,0.999790,-0.014569,-0.000398,-0.014431,0.568654,-0.629927,-0.483462,-0.214685
19703,NaN,-0.657292,2.836316,-0.566522,2.320708,-0.464505,-11.600145,-2.950194,-0.015666,-3.057474,-0.872070,0.553223,0.081055,-0.006139,0.028372,-0.006084,0.999774,-0.014750,-0.000078,-0.015286,0.555729,-0.630987,-0.489612,-0.230870
19704,NaN,0.019682,0.985687,-1.044599,1.129950,-0.875603,-9.952146,-3.004364,0.093126,-3.222137,-0.892578,0.527588,0.100586,0.000349,0.009694,-0.010593,0.999757,-0.015021,0.000466,-0.016109,0.542629,-0.631189,-0.495926,-0.247410
19705,NaN,1.075497,-1.475070,-1.871418,-0.539690,-1.470741,-7.720003,-2.860185,0.326573,-3.375921,-0.915283,0.493164,0.124512,0.010471,-0.015195,-0.018516,0.999754,-0.014300,0.001633,-0.016878,0.529888,-0.630218,-0.501772,-0.265083
19706,NaN,1.322779,-2.661980,-3.185225,-1.416811,-2.677204,-6.681563,-2.656825,0.578987,-3.532316,-0.937988,0.467529,0.131104,0.012658,-0.027267,-0.031530,0.999752,-0.013283,0.002895,-0.017660,0.518161,-0.627474,-0.507717,-0.282860
19707,NaN,1.770812,-4.019510,-4.791459,-2.471928,-4.085199,-5.403048,-2.507221,0.713273,-3.595011,-0.954346,0.439697,0.144287,0.016805,-0.041100,-0.047464,0.999754,-0.012535,0.003566,-0.017974,0.506660,-0.623879,-0.513222,-0.301121
19708,NaN,3.223071,-5.916670,-6.900564,-3.836535,-5.646549,-3.001166,-2.406898,0.774608,-3.579078,-0.976807,0.409668,0.148926,0.030890,-0.060553,-0.068404,0.999760,-0.012034,0.003873,-0.017894,0.495635,-0.619479,-0.518672,-0.318703
19709,NaN,5.213017,-8.811797,-9.109491,-6.265248,-7.148994,0.057349,-2.274765,0.860953,-3.493914,-0.990967,0.377441,0.155762,0.050178,-0.090036,-0.090297,0.999773,-0.011373,0.004304,-0.017468,0.484893,-0.614746,-0.523379,-0.336215
19710,NaN,6.511634,-11.757773,-10.853682,-9.180215,-8.429561,2.148760,-2.077609,0.939187,-3.299667,-1.015625,0.343262,0.160400,0.062646,-0.119746,-0.107598,0.999799,-0.010387,0.004696,-0.016497,0.475326,-0.609449,-0.527641,-0.352466
19711,NaN,7.344958,-13.746357,-11.703488,-11.449635,-8.975013,3.156388,-1.805326,0.941703,-2.970122,-1.023193,0.315430,0.165283,0.070839,-0.139579,-0.116119,0.999838,-0.009026,0.004708,-0.014850,0.466762,-0.604341,-0.530990,-0.367361
19712,NaN,7.763911,-15.031925,-11.885484,-13.122422,-9.014583,3.378535,-1.466222,0.871463,-2.524033,-1.039551,0.291992,0.161133,0.075211,-0.152146,-0.118075,0.999884,-0.007331,0.004357,-0.012620,0.459960,-0.599394,-0.533824,-0.379731
19713,NaN,7.583575,-17.346810,-11.343557,-15.836288,-8.533708,2.972705,-0.856668,0.737475,-1.933540,-1.049805,0.279053,0.169922,0.073734,-0.174672,-0.112964,0.999937,-0.004283,0.003687,-0.009667,0.455485,-0.594930,-0.536141,-0.388772
19714,NaN,5.782843,-17.398024,-9.682034,-16.357002,-7.517127,0.473624,-0.052688,0.584466,-1.313068,-1.055908,0.266113,0.161377,0.056401,-0.174379,-0.096941,0.999974,-0.000263,0.002922,-0.006565,0.454335,-0.590381,-0.538596,-0.393629
19715,NaN,4.755473,-16.268512,-8.270961,-15.440662,-6.584359,-1.215226,0.613420,0.420753,-0.833779,-1.057861,0.261963,0.165771,0.046702,-0.162626,-0.083307,0.999984,0.003067,0.002104,-0.004169,0.455569,-0.586008,-0.541282,-0.395052
19716,NaN,2.447607,-15.875217,-4.390433,-15.392339,-3.656898,-4.617578,0.935129,0.375785,-0.552039,-1.062256,0.264160,0.163574,0.023955,-0.158611,-0.044691,0.999983,0.004676,0.001879,-0.002760,0.458233,-0.581634,-0.543877,-0.394869
19717,NaN,4.457452,-26.404597,-18.167249,-25.107640,-16.642308,2.009256,0.243557,0.029372,-0.548998,-1.068604,0.261963,0.165771,0.043823,-0.263945,-0.182000,0.999995,0.001218,0.000147,-0.002745,0.458000,-0.579547,-0.545967,-0.395324
19718,NaN,2.441978,-33.568389,-31.319846,-31.932309,-29.977541,4.165983,-0.342093,-0.043047,-0.491176,-1.057861,0.261963,0.182861,0.023662,-0.336278,-0.312618,0.999995,-0.001710,-0.000215,-0.002456,0.455923,-0.579075,-0.546806,-0.397253
19719,NaN,19.308162,-33.976814,-10.914131,-31.733787,-5.534043,14.858593,-0.501697,-1.224677,0.109015,-1.055664,0.257568,0.183105,0.193927,-0.339933,-0.107103,0.999978,-0.002508,-0.006123,0.000545,0.451521,-0.582926,-0.548491,-0.394313
19720,NaN,8.252531,5.430404,9.264992,5.793717,11.263776,-5.017535,-0.267665,0.273082,-0.453363,-1.055420,0.249023,0.187500,0.082775,0.054240,0.092464,0.999996,-0.001338,0.001365,-0.002267,0.450599,-0.581750,-0.548662,-0.396860
19721,NaN,14.281222,20.990553,7.800978,21.745421,11.777117,-0.125527,0.281605,-0.285164,-1.087718,-1.052734,0.236084,0.183350,0.143839,0.209015,0.078509,0.999983,0.001408,-0.001426,-0.005439,0.448821,-0.578556,-0.553336,-0.397055
19722,NaN,21.330160,2.251899,-3.421035,3.837193,2.823967,11.378095,-0.490557,-0.178333,-0.653422,-1.054688,0.229736,0.200684,0.213404,0.021738,-0.034074,0.999991,-0.002453,-0.000892,-0.003267,0.445612,-0.578201,-0.554644,-0.399354
19723,NaN,20.898362,-4.783284,3.850341,-3.522530,9.607196,9.415937,-0.749768,0.092477,-0.159033,-1.054688,0.231934,0.198486,0.208963,-0.047854,0.038586,0.999993,-0.003749,0.000462,-0.000795,0.443641,-0.579156,-0.553635,-0.401558
19724,NaN,19.806494,-3.181956,3.627402,-2.005171,9.070655,8.333447,-0.199978,0.354154,-0.182059,-1.052490,0.229736,0.194092,0.198100,-0.031964,0.035955,0.999998,-0.001000,0.001771,-0.000910,0.443681,-0.578387,-0.552969,-0.403535
19725,NaN,15.077577,-3.950177,1.287173,-3.017017,5.427304,4.541253,-0.163170,0.506298,0.065818,-1.046143,0.229736,0.189941,0.150821,-0.039442,0.012522,0.999996,-0.000816,0.002531,0.000329,0.445095,-0.577733,-0.551609,-0.404774
19726,NaN,12.740780,-0.772697,0.118125,0.052892,3.616298,2.428956,-0.452826,0.412148,0.207956,-1.052490,0.229736,0.187744,0.127418,-0.007592,0.000936,0.999995,-0.002264,0.002061,0.001040,0.445348,-0.578481,-0.549167,-0.406743
19727,NaN,11.425957,-2.614864,-2.421068,-1.800114,0.769712,1.994876,-0.341736,0.453424,0.143136,-1.054688,0.231934,0.185547,0.114223,-0.026108,-0.024425,0.999996,-0.001709,0.002267,0.000716,0.446292,-0.578498,-0.547350,-0.408131
19728,NaN,9.341062,-1.426595,-2.540157,-0.751065,0.054753,-0.056877,-0.337823,0.358117,0.058781,-1.052490,0.229736,0.185547,0.093369,-0.014282,-0.025545,0.999997,-0.001689,0.001791,0.000294,0.446419,-0.578684,-0.545685,-0.409953
19729,NaN,9.256796,-2.373244,-1.774623,-1.714449,0.748314,-0.274843,-0.388563,0.347904,-0.069442,-1.050293,0.229736,0.174805,0.092529,-0.023799,-0.017861,0.999997,-0.001943,0.001740,-0.000347,0.446509,-0.578431,-0.544618,-0.411628
19730,NaN,8.470502,-3.611667,-2.378735,-3.014182,-0.053366,-0.792505,-0.255924,0.319443,-0.165462,-1.054688,0.227539,0.174805,0.084637,-0.036217,-0.023876,0.999998,-0.001280,0.001597,-0.000827,0.446303,-0.577898,-0.543851,-0.413611
19731,NaN,9.239366,-1.596110,-2.520200,-0.969094,-0.033131,-0.152226,-0.232079,0.285876,-0.231114,-1.056641,0.223389,0.168457,0.092339,-0.016097,-0.025315,0.999998,-0.001160,0.001429,-0.001156,0.446363,-0.576966,-0.543717,-0.415021
19732,NaN,10.178519,-1.295473,-2.680539,-0.637424,0.022848,0.773095,-0.175515,0.301204,-0.265353,-1.056396,0.216797,0.168701,0.101727,-0.013113,-0.026947,0.999998,-0.000878,0.001506,-0.001327,0.446130,-0.576015,-0.543439,-0.416952
19733,NaN,11.078629,-1.135838,-2.459033,-0.446178,0.432446,1.575322,-0.093938,0.319143,-0.212658,-1.052246,0.221191,0.164307,0.110735,-0.011488,-0.024762,0.999998,-0.000470,0.001596,-0.001063,0.446716,-0.574754,-0.543457,-0.418039
19734,NaN,11.285855,-1.177470,-2.172975,-0.498397,0.725702,1.707017,0.003941,0.316985,-0.153360,-1.058594,0.218994,0.164307,0.112815,-0.011861,-0.021909,0.999998,0.000020,0.001585,-0.000767,0.447274,-0.573670,-0.543191,-0.419275
19735,NaN,11.682167,-1.103632,-1.843708,-0.409979,1.105123,2.006821,0.100855,0.330988,-0.082866,-1.062744,0.218994,0.157959,0.116786,-0.011075,-0.018636,0.999998,0.000504,0.001655,-0.000414,0.448725,-0.572297,-0.543209,-0.419578
19736,NaN,11.218788,-0.830300,-1.988140,-0.166183,0.809573,1.581177,0.167741,0.336946,-0.023198,-1.055908,0.208496,0.149414,0.112153,-0.008299,-0.020077,0.999998,0.000839,0.001685,-0.000116,0.450078,-0.571155,-0.542865,-0.420131
19737,NaN,10.803992,-1.093353,-1.876471,-0.443651,0.781240,1.170733,0.234586,0.322584,0.029286,-1.060547,0.218994,0.149170,0.108011,-0.010896,-0.018952,0.999998,0.001173,0.001613,0.000146,0.452124,-0.569797,-0.542851,-0.419795
19738,NaN,10.874972,-1.335497,-1.497269,-0.676528,1.128894,1.167211,0.336711,0.311206,0.049188,-1.060547,0.214844,0.145020,0.108730,-0.013303,-0.015164,0.999997,0.001684,0.001556,0.000246,0.454037,-0.568520,-0.542707,-0.419648
19739,NaN,10.607159,-1.222032,-1.446468,-0.563333,1.079074,0.893180,0.376712,0.290620,0.055748,-1.056152,0.212646,0.140869,0.106054,-0.012163,-0.014642,0.999997,0.001884,0.001453,0.000279,0.456457,-0.566968,-0.542979,-0.418770
19740,NaN,10.633428,-1.232230,-1.652620,-0.554582,0.850424,0.971025,0.435376,0.264540,0.056859,-1.058350,0.219238,0.136475,0.106316,-0.012256,-0.016694,0.999997,0.002177,0.001323,0.000284,0.458535,-0.565579,-0.543117,-0.418199
19741,NaN,10.630422,-0.931239,-2.108367,-0.221324,0.378803,1.055879,0.446856,0.241995,0.065153,-1.060791,0.221191,0.129883,0.106282,-0.009230,-0.021233,0.999997,0.002234,0.001210,0.000326,0.461041,-0.563979,-0.543609,-0.416963
19742,NaN,10.622376,-0.595625,-2.340114,0.135747,0.126808,1.079107,0.369262,0.260022,0.041604,-1.062988,0.223389,0.125732,0.106194,-0.005891,-0.023550,0.999997,0.001846,0.001300,0.000208,0.462882,-0.562703,-0.543654,-0.416587
19743,NaN,10.365540,-0.420229,-2.214022,0.308454,0.169207,0.789155,0.374388,0.220556,0.004912,-1.060547,0.221436,0.123535,0.103631,-0.004158,-0.022262,0.999998,0.001872,0.001103,0.000025,0.464990,-0.561148,-0.544197,-0.415628
19744,NaN,9.963957,-2.225976,-2.755131,-1.491702,-0.521642,0.643353,0.587226,0.189640,-0.186046,-1.056152,0.219238,0.117188,0.099593,-0.022271,-0.027711,0.999995,0.002936,0.000948,-0.000930,0.466772,-0.558886,-0.545490,-0.414984
19745,NaN,9.182871,1.966991,-2.741110,2.662391,-0.565819,-0.415917,0.357368,0.111873,0.223092,-1.060547,0.217041,0.119385,0.091791,0.019821,-0.027427,0.999998,0.001787,0.000559,0.001115,0.468979,-0.558187,-0.545628,-0.413250
19746,NaN,8.887768,0.033555,-2.740567,0.737901,-0.709267,-0.568410,-0.010627,0.187251,0.134045,-1.060791,0.225586,0.114990,0.088852,0.000394,-0.027489,0.999999,-0.000053,0.000936,0.000670,0.469745,-0.558197,-0.544786,-0.413478
19747,NaN,8.142332,-1.217624,-2.666590,-0.543774,-0.859807,-1.218742,0.029076,0.167819,0.100281,-1.062744,0.223389,0.110596,0.081407,-0.012132,-0.026736,1.000000,0.000145,0.000839,0.000501,0.470899,-0.557840,-0.544432,-0.413112
19748,NaN,9.581648,-1.587447,-2.807303,-0.795685,-0.712362,0.240585,0.213903,0.161965,0.128651,-1.062988,0.225586,0.116943,0.095804,-0.015783,-0.028168,0.999999,0.001070,0.000810,0.000643,0.472210,-0.557358,-0.544127,-0.412669
19749,NaN,8.902912,-0.668540,-2.570319,0.088317,-0.605753,-0.542275,0.190665,0.098182,0.186481,-1.058594,0.223633,0.099854,0.089023,-0.006578,-0.025753,0.999999,0.000953,0.000491,0.000932,0.473795,-0.557005,-0.544024,-0.411462
19750,NaN,9.116674,-0.512791,-2.866572,0.299477,-0.852710,-0.284988,0.285091,0.123828,0.191212,-1.061035,0.232178,0.104004,0.091154,-0.005000,-0.028729,0.999998,0.001425,0.000619,0.000956,0.475327,-0.556601,-0.543777,-0.410569
19751,NaN,9.011952,-1.091406,-2.921035,-0.247304,-0.964774,-0.328656,0.289396,0.121418,0.201159,-1.061279,0.238525,0.101807,0.090113,-0.010781,-0.029281,0.999998,0.001447,0.000607,0.001006,0.477261,-0.556016,-0.543765,-0.409130
19752,NaN,8.941503,-1.113671,-2.512119,-0.273177,-0.595560,-0.481445,0.265456,0.144510,0.224100,-1.061035,0.234131,0.099854,0.089409,-0.011003,-0.025200,0.999998,0.001327,0.000723,0.001121,0.478857,-0.555702,-0.543333,-0.408265
19753,NaN,8.666485,-1.073422,-2.072422,-0.252587,-0.235084,-0.844074,0.172844,0.128538,0.213485,-1.063232,0.234375,0.093262,0.086663,-0.010624,-0.020789,0.999999,0.000864,0.000643,0.001067,0.480497,-0.555422,-0.543020,-0.407134
19754,NaN,8.607323,-1.726378,-1.924248,-0.894013,-0.147499,-0.871320,0.161136,0.105676,0.213834,-1.061279,0.238525,0.095459,0.086081,-0.017156,-0.019302,0.999999,0.000806,0.000528,0.001069,0.481675,-0.555406,-0.542493,-0.406466
19755,NaN,8.459869,-1.155790,-1.475060,-0.344768,0.282162,-1.159219,0.012086,0.097938,0.224388,-1.059082,0.240723,0.101807,0.084604,-0.011462,-0.014793,0.999999,0.000060,0.000490,0.001122,0.482803,-0.555605,-0.541892,-0.405657
19756,NaN,8.239185,-1.626113,-1.619814,-0.800991,0.063519,-1.297609,-0.090085,0.092073,0.229904,-1.061279,0.242920,0.093262,0.082403,-0.016174,-0.016229,0.999999,-0.000450,0.000460,0.001150,0.483276,-0.556266,-0.540841,-0.405591
19757,NaN,8.544854,-1.512530,-1.997305,-0.610008,-0.237776,-0.932213,-0.152666,0.069532,0.270979,-1.061279,0.242920,0.099609,0.085462,-0.015025,-0.019991,0.999999,-0.000763,0.000348,0.001355,0.483963,-0.557044,-0.539843,-0.405032
19758,NaN,8.705969,-1.832198,-2.254169,-0.873184,-0.473355,-0.688786,-0.115259,0.073031,0.281853,-1.057129,0.249268,0.097412,0.087077,-0.018212,-0.022563,0.999999,-0.000576,0.000365,0.001409,0.484418,-0.557943,-0.538639,-0.404854
19759,NaN,8.837862,-1.401236,-2.668154,-0.374578,-0.830555,-0.519672,-0.109610,0.071086,0.290211,-1.057373,0.253418,0.093018,0.088389,-0.013899,-0.026705,0.999999,-0.000548,0.000355,0.001451,0.485264,-0.558667,-0.537668,-0.404131
19760,NaN,8.951030,-1.751319,-2.926907,-0.668917,-1.079967,-0.318425,-0.057182,0.067996,0.291454,-1.063721,0.253662,0.093018,0.089526,-0.017391,-0.029295,0.999999,-0.000286,0.000340,0.001457,0.485885,-0.559459,-0.536565,-0.403756
19761,NaN,9.165292,-1.676676,-2.639395,-0.560743,-0.753272,-0.174311,-0.011670,0.061026,0.300442,-1.059570,0.257812,0.093018,0.091670,-0.016631,-0.026421,0.999999,-0.000058,0.000305,0.001502,0.486986,-0.560002,-0.535781,-0.402717
19762,NaN,9.614760,-1.582912,-2.284482,-0.416588,-0.312997,0.182135,0.059565,0.074474,0.319729,-1.059570,0.257812,0.093018,0.096164,-0.015669,-0.022885,0.999999,0.000298,0.000372,0.001599,0.488005,-0.560570,-0.534816,-0.401975
19763,NaN,9.495292,-1.140313,-1.675751,0.007047,0.275160,-0.107372,0.059574,0.063393,0.375503,-1.059814,0.264160,0.088623,0.094969,-0.011220,-0.016791,0.999998,0.000298,0.000317,0.001878,0.489453,-0.561140,-0.533952,-0.400565
19764,NaN,10.066450,-1.541141,-1.097888,-0.328077,0.933046,0.382189,0.096141,0.086701,0.443931,-1.053711,0.270752,0.090576,0.100694,-0.015183,-0.011030,0.999997,0.000481,0.000434,0.002220,0.490851,-0.561922,-0.532678,-0.399453
19765,NaN,10.347409,-1.640417,-0.785427,-0.361965,1.283538,0.608349,0.159848,0.132612,0.507248,-1.053711,0.274902,0.088379,0.103510,-0.016135,-0.007936,0.999996,0.000799,0.000663,0.002536,0.493022,-0.562451,-0.531467,-0.397643
19766,NaN,10.603936,-1.407665,-0.533949,-0.060796,1.581371,0.780013,0.129249,0.157861,0.572263,-1.049805,0.283447,0.086182,0.106075,-0.013770,-0.005432,0.999995,0.000646,0.000789,0.002861,0.494950,-0.563345,-0.529715,-0.396319
19767,NaN,11.110618,-1.521894,-0.321295,-0.055056,1.871390,1.248941,0.120241,0.222585,0.627491,-1.050049,0.290039,0.079590,0.111150,-0.014868,-0.003346,0.999994,0.000601,0.001113,0.003137,0.497483,-0.564092,-0.527857,-0.394560
19768,NaN,11.670949,-1.564566,-0.974103,0.105120,1.319802,1.928448,0.154766,0.282298,0.643681,-1.052490,0.296387,0.075195,0.116745,-0.015262,-0.009918,0.999994,0.000774,0.001411,0.003218,0.499941,-0.564853,-0.525633,-0.393332
19769,NaN,12.405551,-1.448564,-1.424478,0.447235,1.003465,2.709991,0.147956,0.300332,0.664669,-1.052490,0.300781,0.077393,0.124081,-0.014063,-0.014442,0.999993,0.000740,0.001502,0.003323,0.502822,-0.565453,-0.523517,-0.391615
19770,NaN,13.270742,-0.807809,-1.635689,1.312924,0.967757,3.483156,0.212776,0.310772,0.657687,-1.050781,0.315674,0.068604,0.132707,-0.007624,-0.016571,0.999993,0.001064,0.001554,0.003288,0.505531,-0.566035,-0.521281,-0.390268
19771,NaN,14.352242,-0.392443,-2.025754,2.025357,0.783226,4.523559,0.287104,0.339884,0.670416,-1.042480,0.320068,0.062256,0.143500,-0.003414,-0.020507,0.999992,0.001436,0.001699,0.003352,0.508893,-0.566210,-0.519297,-0.388284
19772,NaN,15.045384,-0.352565,-1.811341,2.264054,1.081037,5.136325,0.424681,0.383710,0.669981,-1.044678,0.324219,0.062012,0.150429,-0.002983,-0.018409,0.999990,0.002123,0.001919,0.003350,0.512398,-0.566126,-0.517235,-0.386546
19773,NaN,15.255990,0.219654,-1.488568,2.949800,1.424378,5.163221,0.581618,0.388526,0.672653,-1.047119,0.333008,0.051270,0.152522,0.002753,-0.015175,0.999988,0.002908,0.001943,0.003363,0.516677,-0.565451,-0.515651,-0.383946
19774,NaN,15.780388,0.471145,-0.891211,3.342826,2.072193,5.502895,0.696702,0.405036,0.669681,-1.045166,0.339355,0.040527,0.157768,0.005272,-0.009214,0.999986,0.003483,0.002025,0.003348,0.520979,-0.564601,-0.514032,-0.381546
19775,NaN,16.070203,0.233557,-0.168526,3.204638,2.767598,5.692273,0.894291,0.404122,0.658931,-1.049561,0.343750,0.033936,0.160689,0.002873,-0.001998,0.999983,0.004471,0.002021,0.003295,0.526094,-0.563027,-0.512991,-0.378241
19776,NaN,16.288959,0.748300,0.606974,3.766044,3.557927,5.660373,1.157810,0.397327,0.635675,-1.049805,0.347900,0.027344,0.162876,0.007967,0.005791,0.999976,0.005789,0.001987,0.003178,0.531572,-0.560855,-0.512325,-0.374695
19777,NaN,16.147940,1.467926,1.134704,4.468397,4.076204,5.274247,1.431069,0.426749,0.606692,-1.043701,0.360840,0.014404,0.161458,0.015089,0.011110,0.999968,0.007155,0.002134,0.003033,0.538081,-0.557626,-0.512308,-0.370220
19778,NaN,15.370545,2.443392,1.494191,5.286827,4.365003,4.239079,1.703660,0.453677,0.624940,-1.052490,0.367432,0.001465,0.153662,0.024788,0.014803,0.999956,0.008518,0.002268,0.003125,0.545136,-0.553787,-0.512467,-0.365409
19779,NaN,14.307479,4.258798,2.164041,6.778350,5.060550,2.676061,1.982677,0.503766,0.726597,-1.054688,0.371582,-0.011475,0.142974,0.042893,0.021704,0.999941,0.009913,0.002519,0.003633,0.553468,-0.549124,-0.512804,-0.359400
19780,NaN,13.839902,6.810960,1.823775,9.245730,5.048693,1.601520,2.114103,0.545410,0.909023,-1.059326,0.382324,-0.026611,0.138138,0.068543,0.018584,0.999930,0.010570,0.002727,0.004545,0.562275,-0.544594,-0.512553,-0.352922
19781,NaN,12.763627,7.459465,0.506659,9.950091,3.777382,0.460342,2.055183,0.591583,1.101551,-1.051025,0.391113,-0.046143,0.127239,0.075241,0.005461,0.999928,0.010276,0.002958,0.005508,0.571489,-0.540396,-0.511572,-0.345928
19782,NaN,12.546431,6.470872,-1.751710,9.560503,1.445187,0.620799,1.757337,0.616675,1.336545,-1.044678,0.397461,-0.054688,0.124974,0.065698,-0.017329,0.999934,0.008786,0.003083,0.006683,0.580098,-0.537699,-0.509195,-0.339242
19783,NaN,14.730037,3.047269,-3.379059,7.462317,-0.436667,3.670401,0.854462,0.666574,1.690524,-1.051758,0.416748,-0.065674,0.146922,0.031861,-0.034147,0.999950,0.004272,0.003333,0.008452,0.587037,-0.538258,-0.504181,-0.333867
19784,NaN,16.247193,-0.623060,-2.316518,4.481745,0.065420,5.986872,-0.311653,0.626767,2.011649,-1.043945,0.438232,-0.066162,0.162450,-0.004633,-0.023666,0.999943,-0.001558,0.003134,0.010058,0.591112,-0.543174,-0.496370,-0.330401
19785,NaN,16.701106,-3.939981,-1.840502,1.746005,-0.035384,7.356428,-1.142810,0.405693,2.095889,-1.049072,0.459717,-0.064209,0.167375,-0.037753,-0.018525,0.999927,-0.005714,0.002028,0.010479,0.592473,-0.550984,-0.487558,-0.328147
19786,NaN,17.078140,-2.682874,-1.037138,3.210539,1.083630,7.170881,-1.563561,0.294344,2.371389,-1.036865,0.479004,-0.060303,0.171069,-0.024883,-0.010423,0.999898,-0.007818,0.001472,0.011857,0.592722,-0.560864,-0.477529,-0.325696
19787,NaN,17.335970,-4.813140,-0.605134,1.684153,1.299356,8.062472,-1.834833,0.325196,2.935505,-1.029541,0.517578,-0.062988,0.174032,-0.045635,-0.005908,0.999849,-0.009174,0.001626,0.014677,0.593063,-0.572649,-0.465263,-0.322304
19788,NaN,17.405394,-5.953966,-0.320835,1.177597,1.577758,8.479085,-2.063978,0.377683,3.565318,-1.017578,0.545410,-0.058838,0.175073,-0.056456,-0.002945,0.999786,-0.010319,0.001888,0.017825,0.593660,-0.586338,-0.450500,-0.317531
19789,NaN,16.956011,-4.928486,0.038496,2.534346,2.120038,7.531962,-2.381866,0.501134,4.079256,-0.999756,0.588135,-0.052979,0.170519,-0.045808,0.000518,0.999718,-0.011908,0.002505,0.020394,0.594136,-0.601581,-0.433134,-0.312247
19790,NaN,14.838392,-2.711697,-0.633361,4.361396,1.407519,4.571091,-2.929442,0.627188,4.503926,-0.973145,0.626709,-0.038574,0.148926,-0.023861,-0.006435,0.999634,-0.014645,0.003136,0.022517,0.593506,-0.618841,-0.412983,-0.306970
19791,NaN,13.995268,0.383185,-1.307384,7.331758,0.737389,2.161941,-3.364456,0.588213,4.788413,-0.950928,0.665039,-0.021729,0.139772,0.006954,-0.013585,0.999568,-0.016820,0.002941,0.023939,0.591414,-0.637488,-0.391052,-0.301523
19792,NaN,16.052681,-5.067809,-2.656773,4.463192,-0.314073,6.630001,-3.743231,0.540791,5.101063,-0.920410,0.712158,-0.003174,0.161687,-0.047055,-0.026101,0.999496,-0.018713,0.002704,0.025501,0.587942,-0.657396,-0.367346,-0.295316
19793,NaN,15.185646,-7.666150,-5.927300,2.665460,-3.386684,7.676977,-3.682260,0.300659,5.199630,-0.887451,0.752686,0.015869,0.153711,-0.073758,-0.058127,0.999491,-0.018408,0.001503,0.025994,0.583739,-0.676962,-0.343667,-0.287860
19794,NaN,15.132087,-5.044679,-4.474768,5.370100,-2.013407,5.728369,-3.294608,0.401049,4.986285,-0.858643,0.789062,0.039062,0.152439,-0.047387,-0.044255,0.999552,-0.016471,0.002005,0.024928,0.580201,-0.694266,-0.320714,-0.280184
19795,NaN,13.043987,-5.242111,-3.522197,4.475375,-1.251052,3.913599,-2.928869,0.518796,4.664703,-0.825439,0.825439,0.047119,0.131532,-0.049873,-0.034819,0.999617,-0.014642,0.002594,0.023321,0.577102,-0.709254,-0.298647,-0.273352
