// Start Time: Unknown
// Update Rate: 100.0Hz
// Filter Profile: human (46.1)
// Firmware Version: 4.4.0
PacketCounter,SampleTimeFine,Acc_X,Acc_Y,Acc_Z,FreeAcc_X,FreeAcc_Y,FreeAcc_Z,Gyr_X,Gyr_Y,Gyr_Z,Mag_X,Mag_Y,Mag_Z,VelInc_X,VelInc_Y,VelInc_Z,OriInc_q0,OriInc_q1,OriInc_q2,OriInc_q3,Quat_q0,Quat_q1,Quat_q2,Quat_q3
37125,NaN,3.646492,-3.846048,8.813222,1.509677,-0.002894,0.359813,-1.874509,1.004027,-0.044313,-0.483154,0.003174,-0.558350,0.036900,-0.037642,0.088303,0.999943,-0.009372,0.005020,-0.000222,-0.386126,-0.157473,0.225104,-0.880589
37126,NaN,4.169823,-4.496515,8.687330,1.474837,0.699900,0.694833,-1.903058,0.859443,-0.093374,-0.481689,0.018066,-0.560547,0.042052,-0.044157,0.087116,0.999945,-0.009515,0.004297,-0.000467,-0.388982,-0.150111,0.231738,-0.878896
37127,NaN,4.832760,-4.444396,8.198987,0.662055,1.233434,0.597390,-1.908286,0.695838,-0.187424,-0.479736,0.022461,-0.562744,0.048572,-0.043706,0.082241,0.999948,-0.009541,0.003479,-0.000937,-0.390223,-0.137574,0.242182,-0.877580
37128,NaN,3.439001,-3.770977,8.349944,0.937778,-0.181437,-0.073394,-1.895833,0.650855,-0.137677,-0.469238,0.030762,-0.568848,0.034637,-0.036941,0.083740,0.999950,-0.009479,0.003254,-0.000688,-0.392899,-0.131179,0.249124,-0.875419
37129,NaN,3.872179,-3.560062,8.114133,0.183038,-0.039865,-0.144715,-1.892813,0.529424,-0.101932,-0.465576,0.047852,-0.569092,0.038919,-0.034851,0.081371,0.999952,-0.009464,0.002647,-0.000510,-0.392852,-0.118968,0.261917,-0.873449
37130,NaN,3.954878,-3.612923,7.853874,0.032818,0.098555,-0.306650,-1.877744,0.447052,-0.050487,-0.464111,0.062744,-0.571533,0.039716,-0.035400,0.078785,0.999953,-0.009389,0.002235,-0.000252,-0.394757,-0.113388,0.269197,-0.871116
37131,NaN,4.036328,-3.962714,7.678349,0.001701,0.313839,-0.281075,-1.832620,0.379396,-0.026296,-0.459961,0.069092,-0.565430,0.040504,-0.038927,0.077066,0.999956,-0.009163,0.001897,-0.000131,-0.394627,-0.103670,0.280398,-0.868849
37132,NaN,4.536322,-4.487234,7.425498,-0.052202,0.958900,-0.069617,-1.786582,0.314214,-0.000316,-0.462402,0.075439,-0.567627,0.045480,-0.044207,0.074580,0.999959,-0.008933,0.001571,-0.000002,-0.395979,-0.098776,0.287528,-0.866471
37133,NaN,4.219199,-5.102981,7.275393,0.442352,1.007964,-0.037205,-1.633294,0.281133,0.053307,-0.460693,0.088135,-0.571777,0.042308,-0.050422,0.073108,0.999966,-0.008166,0.001406,0.000267,-0.395703,-0.092488,0.298472,-0.863585
37134,NaN,3.736229,-4.838755,7.333242,0.461128,0.451557,-0.287380,-1.473518,0.240731,0.056912,-0.460938,0.094482,-0.567871,0.037464,-0.047835,0.073641,0.999972,-0.007368,0.001204,0.000285,-0.396487,-0.088446,0.304376,-0.861586
37135,NaN,4.031658,-4.434150,7.382621,-0.204166,0.245793,-0.309227,-1.392431,0.203465,0.051174,-0.463135,0.100830,-0.568115,0.040403,-0.043816,0.074091,0.999975,-0.006962,0.001017,0.000256,-0.395870,-0.083342,0.315198,-0.858482
37136,NaN,4.596598,-4.290566,6.994298,-0.737307,0.694537,-0.462240,-1.349068,0.156852,0.042807,-0.457031,0.105225,-0.562012,0.046030,-0.042423,0.070194,0.999977,-0.006745,0.000784,0.000214,-0.396487,-0.079929,0.320689,-0.856486
37137,NaN,4.582085,-4.149435,6.764331,-0.896831,0.622006,-0.714476,-1.299990,0.123869,0.003090,-0.459717,0.120117,-0.566406,0.045863,-0.041053,0.067883,0.999979,-0.006500,0.000619,0.000015,-0.396756,-0.077669,0.329533,-0.853206
37138,NaN,4.566830,-3.926019,6.645748,-1.108625,0.514524,-0.927818,-1.360521,0.101066,-0.057713,-0.455566,0.126465,-0.566406,0.045691,-0.038820,0.066699,0.999977,-0.006803,0.000505,-0.000289,-0.397687,-0.074632,0.335106,-0.850869
37139,NaN,4.789644,-3.991119,6.188212,-1.181820,0.839349,-1.148868,-1.350115,0.080436,-0.118621,-0.455811,0.132812,-0.560303,0.047898,-0.039521,0.062131,0.999977,-0.006751,0.000402,-0.000593,-0.399585,-0.074807,0.343142,-0.846752
37140,NaN,4.707896,-3.799817,6.057174,-1.306335,0.721655,-1.382719,-1.320657,0.061775,-0.223681,-0.451904,0.141113,-0.560547,0.047055,-0.037650,0.060807,0.999978,-0.006603,0.000309,-0.001118,-0.401123,-0.072289,0.348518,-0.844043
37141,NaN,5.078215,-3.684276,5.655163,-1.560709,1.049720,-1.578317,-1.267544,0.024211,-0.321182,-0.460449,0.141113,-0.558594,0.050730,-0.036565,0.056778,0.999979,-0.006338,0.000121,-0.001606,-0.405314,-0.073981,0.355288,-0.839057
37142,NaN,4.778948,-3.764701,5.301389,-1.280946,1.068614,-1.917567,-1.215294,-0.000266,-0.437926,-0.458496,0.145508,-0.550293,0.047707,-0.037428,0.053242,0.999979,-0.006076,-0.000001,-0.002190,-0.407592,-0.072296,0.360218,-0.835993
37143,NaN,4.639015,-3.723848,5.061142,-1.122882,1.010461,-2.149758,-1.132334,-0.047700,-0.553620,-0.456543,0.151855,-0.550537,0.046275,-0.037079,0.050833,0.999980,-0.005662,-0.000238,-0.002768,-0.412177,-0.076623,0.365873,-0.830888
37144,NaN,4.905452,-3.462076,4.905985,-1.473968,1.122566,-2.283736,-1.126652,-0.116754,-0.655398,-0.460693,0.154053,-0.556641,0.048913,-0.034504,0.049283,0.999979,-0.005633,-0.000584,-0.003277,-0.415109,-0.075984,0.370535,-0.827414
37145,NaN,5.363793,-3.518626,4.782832,-1.641309,1.378550,-2.103484,-1.232194,-0.178285,-0.741475,-0.460938,0.156006,-0.554688,0.053465,-0.035089,0.048092,0.999974,-0.006161,-0.000891,-0.003707,-0.417673,-0.082364,0.377127,-0.822521
37146,NaN,5.498814,-3.986842,4.753263,-1.376234,1.580139,-1.791846,-1.480423,-0.213584,-0.764836,-0.467285,0.158203,-0.548584,0.054785,-0.039725,0.047886,0.999965,-0.007402,-0.001068,-0.003824,-0.421011,-0.081590,0.383333,-0.818015
37147,NaN,5.441048,-4.144396,4.836626,-1.203581,1.322206,-1.628782,-1.670817,-0.232630,-0.814855,-0.476074,0.164551,-0.548828,0.054186,-0.041259,0.048775,0.999956,-0.008354,-0.001163,-0.004074,-0.411577,-0.094583,0.390422,-0.818064
37148,NaN,5.922704,-4.359059,5.150512,-1.421702,1.353452,-1.051793,-1.906650,-0.283318,-0.829459,-0.474121,0.175293,-0.544922,0.058974,-0.043341,0.052003,0.999945,-0.009533,-0.001417,-0.004147,-0.415296,-0.093432,0.398390,-0.812457
37149,NaN,6.220735,-4.363433,4.828874,-1.539938,1.370617,-1.048934,-2.332151,-0.299355,-0.832896,-0.476562,0.185791,-0.541016,0.061954,-0.043325,0.048888,0.999922,-0.011660,-0.001497,-0.004164,-0.396076,-0.114310,0.409666,-0.813776
37150,NaN,5.981155,-4.976774,4.379906,-0.897019,1.639968,-1.081739,-2.648221,-0.300811,-0.850832,-0.483154,0.192139,-0.530762,0.059534,-0.049435,0.044545,0.999902,-0.013241,-0.001504,-0.004254,-0.400396,-0.112021,0.420510,-0.806415
37151,NaN,5.787244,-6.073575,3.702992,0.294159,2.103680,-0.892091,-2.790058,-0.357243,-0.885520,-0.489990,0.200684,-0.532959,0.057537,-0.060466,0.037978,0.999891,-0.013950,-0.001786,-0.004427,-0.416845,-0.112562,0.435716,-0.789761
37152,NaN,6.008443,-7.088267,3.144826,1.007280,2.731538,-0.444945,-2.620648,-0.428451,-0.970100,-0.490234,0.213379,-0.520996,0.059672,-0.070751,0.032504,0.999900,-0.013103,-0.002142,-0.004850,-0.421175,-0.110894,0.446368,-0.781710
37153,NaN,5.708229,-6.479573,3.025419,0.757390,2.186870,-0.960441,-2.525726,-0.464859,-1.048428,-0.499023,0.224121,-0.521240,0.056671,-0.064703,0.031204,0.999904,-0.012628,-0.002324,-0.005242,-0.413735,-0.124240,0.458679,-0.776531
37154,NaN,5.359540,-7.512834,2.644826,1.844984,2.349095,-0.689305,-2.190025,-0.623535,-1.136261,-0.501221,0.221924,-0.515137,0.053084,-0.075134,0.027437,0.999919,-0.010950,-0.003118,-0.005681,-0.418044,-0.124726,0.467729,-0.768708
37155,NaN,5.276900,-8.489605,2.190173,2.769474,2.603347,-0.311938,-1.774429,-0.750873,-1.221140,-0.510010,0.232666,-0.511230,0.052166,-0.085016,0.022852,0.999935,-0.008872,-0.003754,-0.006106,-0.410871,-0.141219,0.477682,-0.763585
37156,NaN,5.195172,-9.142930,2.167219,3.395754,2.511872,0.058246,-1.268550,-0.883282,-1.277088,-0.516113,0.224121,-0.504883,0.051269,-0.091617,0.022480,0.999950,-0.006343,-0.004416,-0.006385,-0.414512,-0.145028,0.483413,-0.757270
37157,NaN,5.140698,-9.409281,2.292634,3.716027,2.185814,0.268363,-0.814157,-1.006815,-1.285379,-0.524414,0.221924,-0.502930,0.050684,-0.094325,0.023566,0.999958,-0.004071,-0.005034,-0.006427,-0.409246,-0.161227,0.489945,-0.752647
37158,NaN,5.204790,-9.460581,2.597697,3.779916,1.802360,0.473286,-0.442915,-1.116296,-1.279006,-0.534912,0.217773,-0.500732,0.051295,-0.094877,0.026475,0.999962,-0.002215,-0.005581,-0.006395,-0.411666,-0.167648,0.492846,-0.748016
37159,NaN,5.305264,-9.654103,2.733772,3.945848,1.638740,0.702205,-0.144750,-1.207610,-1.277223,-0.549316,0.207275,-0.496582,0.052268,-0.096857,0.027725,0.999961,-0.000724,-0.006038,-0.006386,-0.400500,-0.186711,0.495513,-0.747801
37160,NaN,5.417336,-9.578742,2.970000,3.931694,1.345478,0.800951,0.062464,-1.256330,-1.279682,-0.555420,0.198730,-0.494385,0.053371,-0.096140,0.030007,0.999960,0.000312,-0.006282,-0.006398,-0.402098,-0.194695,0.496580,-0.744190
37161,NaN,5.506335,-9.199122,3.376791,3.646819,0.853072,0.785253,0.161478,-1.310173,-1.271517,-0.561523,0.192383,-0.492432,0.054254,-0.092365,0.034051,0.999958,0.000807,-0.006551,-0.006357,-0.387146,-0.215562,0.497945,-0.745454
37162,NaN,5.689311,-8.708572,3.988549,3.262402,0.163701,0.838270,0.122344,-1.345386,-1.252116,-0.578125,0.181885,-0.484131,0.056077,-0.087463,0.040211,0.999958,0.000612,-0.006727,-0.006260,-0.388316,-0.223920,0.498722,-0.741854
37163,NaN,5.674750,-8.542374,4.384683,3.258251,-0.371805,0.847652,-0.009611,-1.353744,-1.217248,-0.588623,0.179688,-0.481934,0.055928,-0.085764,0.044231,0.999959,-0.000048,-0.006769,-0.006086,-0.380975,-0.237803,0.501131,-0.739713
37164,NaN,5.603088,-8.813325,4.549903,3.661424,-0.607316,0.957308,-0.139649,-1.327113,-1.207545,-0.594727,0.169189,-0.475830,0.055194,-0.088436,0.045929,0.999960,-0.000698,-0.006635,-0.006038,-0.382267,-0.245459,0.502718,-0.735456
37165,NaN,5.531246,-9.021755,4.720446,3.886796,-0.908146,1.065461,-0.219181,-1.283294,-1.203205,-0.596680,0.166992,-0.463379,0.054464,-0.090495,0.047655,0.999961,-0.001096,-0.006416,-0.006016,-0.377064,-0.251439,0.508161,-0.732375
37166,NaN,5.406629,-9.127780,4.560273,4.189245,-0.896800,0.910509,-0.261012,-1.200100,-1.200869,-0.604980,0.158447,-0.465332,0.053242,-0.091539,0.046043,0.999963,-0.001305,-0.006000,-0.006004,-0.378728,-0.258381,0.509850,-0.727914
37167,NaN,5.260471,-9.325275,4.635349,4.414862,-1.107290,0.929735,-0.290025,-1.104225,-1.200013,-0.615234,0.152344,-0.461182,0.051787,-0.093497,0.046776,0.999966,-0.001450,-0.005521,-0.006000,-0.374497,-0.261453,0.514949,-0.725412
37168,NaN,5.160034,-9.297551,4.365544,4.582873,-1.000959,0.681167,-0.351558,-1.039006,-1.168812,-0.625732,0.147949,-0.457031,0.050828,-0.093197,0.044085,0.999968,-0.001758,-0.005195,-0.005844,-0.376509,-0.267561,0.516624,-0.720938
37169,NaN,5.102639,-9.480613,4.190099,4.729621,-0.931713,0.686640,-0.366747,-0.990373,-1.134139,-0.632080,0.145996,-0.446777,0.050279,-0.095015,0.042325,0.999970,-0.001834,-0.004952,-0.005671,-0.371801,-0.269870,0.521460,-0.719036
37170,NaN,5.047057,-9.830377,4.088772,5.166116,-0.898952,0.738508,-0.385862,-0.984808,-1.088919,-0.631836,0.141602,-0.446777,0.049732,-0.098496,0.041324,0.999971,-0.001929,-0.004924,-0.005445,-0.373659,-0.275522,0.523193,-0.714658
37171,NaN,5.205871,-9.439620,1.896169,4.695056,1.072997,0.016162,-0.255117,-0.958179,-1.051181,-0.644287,0.133301,-0.442627,0.051470,-0.094643,0.019330,0.999974,-0.001276,-0.004791,-0.005256,-0.368235,-0.277693,0.527253,-0.713648
37172,NaN,5.592994,-9.838554,4.553430,4.936437,-1.401268,1.254299,-0.224635,-0.840721,-1.065303,-0.642090,0.131104,-0.434326,0.055213,-0.098630,0.045878,0.999976,-0.001123,-0.004204,-0.005326,-0.370124,-0.283079,0.528110,-0.709912
37173,NaN,4.295740,-7.425272,6.975767,3.681034,-4.519430,-0.417365,-0.768316,-0.757850,-1.007068,-0.644043,0.131104,-0.430176,0.042318,-0.074198,0.070204,0.999973,-0.003842,-0.003789,-0.005035,-0.365613,-0.283535,0.533449,-0.708073
37174,NaN,5.090276,-6.294949,7.956104,2.348827,-5.601928,-0.224348,-1.303484,-0.509491,-0.920585,-0.652588,0.131104,-0.430420,0.050410,-0.062661,0.080099,0.999965,-0.006517,-0.002547,-0.004603,-0.369350,-0.285398,0.537670,-0.702167
37175,NaN,5.729412,-7.559584,7.907659,2.905147,-5.362138,0.925491,-1.876709,-0.322442,-0.937978,-0.650635,0.133057,-0.424316,0.056813,-0.075116,0.079875,0.999944,-0.009383,-0.001612,-0.004690,-0.367523,-0.282363,0.544948,-0.698734
37176,NaN,4.930101,-8.973395,7.421603,4.504266,-5.059732,0.865068,-1.873986,-0.174846,-0.981402,-0.661133,0.135254,-0.418213,0.048797,-0.089273,0.075097,0.999944,-0.009370,-0.000874,-0.004907,-0.373101,-0.282185,0.550399,-0.691540
37177,NaN,5.136064,-9.773608,7.039460,4.926261,-4.669718,1.384591,-1.574937,-0.065475,-0.972499,-0.657227,0.141602,-0.424316,0.050863,-0.097426,0.071179,0.999957,-0.007875,-0.000327,-0.004862,-0.371634,-0.279079,0.555136,-0.689802
37178,NaN,5.013169,-10.021451,6.312285,5.229612,-4.124551,1.189282,-1.303342,0.012614,-0.902579,-0.659180,0.139648,-0.420166,0.049684,-0.100025,0.063772,0.999969,-0.006517,0.000063,-0.004513,-0.376590,-0.279107,0.558330,-0.684505
37179,NaN,4.889876,-10.089901,6.024005,5.262551,-3.896819,1.101734,-1.011180,0.056114,-0.828864,-0.659180,0.137451,-0.426270,0.048498,-0.100794,0.060736,0.999979,-0.005056,0.000281,-0.004144,-0.373919,-0.276245,0.560576,-0.685294
37180,NaN,4.657551,-10.252965,5.203889,5.591603,-3.230906,0.779330,-0.743764,0.033191,-0.730876,-0.663574,0.139648,-0.414062,0.046210,-0.102505,0.052412,0.999986,-0.003719,0.000166,-0.003654,-0.377539,-0.276783,0.562044,-0.681881
37181,NaN,4.448028,-10.962946,4.465731,6.233534,-2.449128,0.913828,-0.407273,-0.036932,-0.616296,-0.661133,0.135254,-0.422363,0.044134,-0.109675,0.044889,0.999993,-0.002036,-0.000185,-0.003081,-0.372831,-0.274765,0.562398,-0.684989
37182,NaN,4.375067,-11.213509,3.849741,6.559142,-1.874478,0.825361,0.071106,-0.149543,-0.535328,-0.661133,0.135254,-0.424316,0.043422,-0.112265,0.038490,0.999996,0.000356,-0.000748,-0.002677,-0.374146,-0.276911,0.561694,-0.683985
37183,NaN,4.327492,-10.870382,3.530011,6.237633,-1.460204,0.594632,0.677417,-0.267403,-0.487793,-0.665039,0.124756,-0.420166,0.042963,-0.108928,0.034989,0.999990,0.003387,-0.001337,-0.002439,-0.366574,-0.277244,0.558875,-0.690230
37184,NaN,4.530715,-10.594397,3.752796,5.971535,-1.586412,0.612015,1.265722,-0.418946,-0.406663,-0.666992,0.116211,-0.419922,0.045013,-0.106271,0.036951,0.999976,0.006329,-0.002095,-0.002033,-0.365045,-0.282136,0.554697,-0.692426
37185,NaN,4.777327,-10.368455,3.953515,5.587168,-1.515842,0.791126,1.767612,-0.541807,-0.310050,-0.668457,0.101318,-0.413574,0.047506,-0.104103,0.038745,0.999956,0.008838,-0.002709,-0.001550,-0.354465,-0.284757,0.548675,-0.701587
37186,NaN,4.887286,-9.574766,4.880621,5.000381,-2.347289,0.621139,2.126494,-0.624791,-0.243060,-0.672607,0.092773,-0.411377,0.048605,-0.096320,0.047936,0.999938,0.010632,-0.003124,-0.001215,-0.350555,-0.291363,0.541941,-0.706058
37187,NaN,4.908481,-7.783261,5.742664,3.576324,-3.226335,-0.094266,2.215564,-0.634035,-0.209956,-0.676270,0.080078,-0.411133,0.048822,-0.078515,0.056714,0.999933,0.011078,-0.003170,-0.001050,-0.338808,-0.294627,0.534186,-0.716275
37188,NaN,5.236147,-7.116177,6.039515,2.999974,-3.442183,-0.133779,2.219277,-0.624682,-0.177718,-0.678223,0.071777,-0.413086,0.052110,-0.071874,0.059763,0.999933,0.011096,-0.003123,-0.000889,-0.334485,-0.301074,0.526998,-0.720935
37189,NaN,5.586315,-6.935254,6.212900,2.689237,-3.366025,0.154230,2.216649,-0.613019,-0.183793,-0.684082,0.058838,-0.402588,0.055610,-0.070088,0.061526,0.999933,0.011083,-0.003065,-0.000919,-0.323111,-0.304108,0.518483,-0.730953
37190,NaN,5.892369,-6.463287,6.145378,2.259162,-3.234492,0.121647,2.224361,-0.593930,-0.200449,-0.687988,0.050537,-0.400391,0.058677,-0.065371,0.060904,0.999933,0.011122,-0.002970,-0.001002,-0.318901,-0.310367,0.510973,-0.735446
37191,NaN,5.976698,-5.810269,5.698760,1.663224,-2.778657,-0.248876,2.116025,-0.586806,-0.197317,-0.689697,0.039795,-0.400391,0.059543,-0.058761,0.056543,0.999939,0.010580,-0.002934,-0.000987,-0.308297,-0.313157,0.502072,-0.744856
37192,NaN,5.900069,-5.759176,4.672855,1.614976,-1.730348,-0.636053,2.033015,-0.617444,-0.195577,-0.693604,0.027100,-0.391846,0.058801,-0.058122,0.046321,0.999943,0.010165,-0.003087,-0.000978,-0.304275,-0.319059,0.495117,-0.748650
37193,NaN,5.743699,-5.965310,3.941372,1.724601,-0.830263,-0.843600,1.984348,-0.694579,-0.195001,-0.695312,0.018555,-0.387695,0.057243,-0.060097,0.039018,0.999944,0.009922,-0.003473,-0.000975,-0.294179,-0.322114,0.486400,-0.757044
37194,NaN,5.743638,-5.939834,3.169219,1.620942,-0.031144,-1.112945,2.013211,-0.847332,-0.195045,-0.699463,0.012207,-0.379395,0.057245,-0.059771,0.031335,0.999940,0.010066,-0.004237,-0.000975,-0.289597,-0.328733,0.479683,-0.760245
37195,NaN,6.143209,-5.715395,2.497851,1.013915,0.691199,-1.144501,2.135373,-0.982110,-0.201718,-0.703125,-0.002686,-0.375000,0.061253,-0.057480,0.024667,0.999930,0.010677,-0.004910,-0.001009,-0.279110,-0.333192,0.470604,-0.767863
37196,NaN,6.628532,-4.998370,2.783710,0.314624,0.268718,-1.066359,2.160392,-1.057976,-0.224016,-0.711426,-0.009033,-0.368896,0.066082,-0.050357,0.027644,0.999927,0.010802,-0.005290,-0.001120,-0.273862,-0.340766,0.463378,-0.770817
37197,NaN,6.976713,-4.142867,3.151254,-0.439858,-0.302185,-1.124601,1.980061,-1.118500,-0.197231,-0.708740,-0.023926,-0.356201,0.069550,-0.041809,0.031489,0.999935,0.009900,-0.005592,-0.000986,-0.263906,-0.345658,0.454991,-0.777083
37198,NaN,7.201036,-4.069496,3.406396,-0.473662,-0.517175,-0.894907,1.749862,-1.205502,-0.151782,-0.717041,-0.030273,-0.345947,0.071774,-0.041048,0.034139,0.999943,0.008749,-0.006027,-0.000759,-0.258714,-0.352971,0.449495,-0.778738
37199,NaN,7.453269,-4.139584,3.221619,-0.629866,-0.261561,-0.724207,1.496447,-1.282245,-0.146526,-0.725342,-0.036621,-0.337646,0.074295,-0.041692,0.032382,0.999951,0.007482,-0.006411,-0.000733,-0.249677,-0.357972,0.443118,-0.783048
37200,NaN,7.668937,-4.543143,3.132847,-0.426076,0.015469,-0.374196,1.289657,-1.343951,-0.132434,-0.731445,-0.038818,-0.325439,0.076448,-0.045685,0.031549,0.999956,0.006448,-0.006720,-0.000662,-0.244898,-0.365116,0.439491,-0.783302
37201,NaN,7.770218,-5.251294,3.134654,0.015753,0.386951,0.067994,1.092091,-1.401910,-0.113706,-0.733398,-0.047363,-0.315186,0.077451,-0.052729,0.031602,0.999960,0.005460,-0.007009,-0.000569,-0.236759,-0.370248,0.434839,-0.785988
37202,NaN,7.790763,-5.526049,3.398151,0.377446,0.271715,0.314680,0.990714,-1.513459,-0.119157,-0.735352,-0.049316,-0.304932,0.077616,-0.055476,0.034295,0.999959,0.004954,-0.007567,-0.000596,-0.232093,-0.377607,0.432499,-0.785169
37203,NaN,7.986726,-4.761635,3.604154,-0.155210,-0.301247,0.154003,0.922495,-1.594327,-0.175253,-0.743652,-0.051514,-0.290527,0.079536,-0.047854,0.036456,0.999957,0.004612,-0.007972,-0.000876,-0.224496,-0.383601,0.428643,-0.786586
37204,NaN,7.990409,-4.138740,3.732438,-0.418589,-0.793671,-0.112153,0.803248,-1.634800,-0.231364,-0.750000,-0.057861,-0.280273,0.079548,-0.041631,0.037809,0.999958,0.004016,-0.008174,-0.001157,-0.220352,-0.391406,0.426858,-0.784881
37205,NaN,7.986769,-4.164849,3.861026,-0.275729,-0.919167,-0.059766,0.588009,-1.636123,-0.297883,-0.753906,-0.064209,-0.267822,0.079487,-0.041882,0.039139,0.999961,0.002940,-0.008181,-0.001489,-0.214184,-0.397632,0.424050,-0.784981
37206,NaN,7.895401,-4.429394,4.106145,0.190761,-1.043553,0.071146,0.395401,-1.609379,-0.379811,-0.758057,-0.064453,-0.249512,0.078536,-0.044525,0.041607,0.999964,0.001977,-0.008047,-0.001899,-0.211468,-0.405157,0.423452,-0.782187
37207,NaN,7.978161,-4.842623,4.347915,0.617245,-1.047924,0.411076,0.302840,-1.583357,-0.455892,-0.762207,-0.070801,-0.239258,0.079324,-0.048674,0.044035,0.999965,0.001514,-0.007917,-0.002279,-0.206905,-0.411352,0.421304,-0.781334
37208,NaN,8.119920,-4.975577,4.678716,0.921530,-1.314569,0.675419,0.187610,-1.543120,-0.535002,-0.766113,-0.077148,-0.228760,0.080702,-0.050016,0.047364,0.999966,0.000938,-0.007716,-0.002675,-0.205351,-0.418682,0.421054,-0.777978
37209,NaN,8.101381,-5.045701,4.588979,1.039604,-1.230606,0.654058,0.025070,-1.524633,-0.583597,-0.770264,-0.079346,-0.208496,0.080513,-0.050698,0.046498,0.999967,0.000125,-0.007623,-0.002918,-0.202175,-0.424711,0.419581,-0.776336
37210,NaN,8.221315,-5.379892,4.601128,1.351514,-1.126695,0.892697,-0.064254,-1.479538,-0.621819,-0.774170,-0.087646,-0.206299,0.081702,-0.054039,0.046634,0.999968,-0.000321,-0.007398,-0.003109,-0.201614,-0.431674,0.419993,-0.772408
37211,NaN,8.383191,-5.413575,4.674426,1.430123,-1.208856,1.046685,-0.155303,-1.416983,-0.654782,-0.776367,-0.089844,-0.187744,0.083320,-0.054372,0.047378,0.999969,-0.000777,-0.007085,-0.003274,-0.199453,-0.437302,0.418897,-0.770396
37212,NaN,8.524574,-5.116487,4.459203,1.194083,-1.286080,0.941337,-0.331162,-1.380465,-0.660484,-0.773926,-0.096436,-0.179443,0.084765,-0.051371,0.045263,0.999969,-0.001656,-0.006902,-0.003302,-0.199824,-0.443653,0.420093,-0.766005
37213,NaN,8.430997,-4.428747,3.500440,0.391256,-0.940014,0.282334,-0.622201,-1.421583,-0.668744,-0.778320,-0.094238,-0.173340,0.083909,-0.044458,0.035740,0.999964,-0.003111,-0.007108,-0.003344,-0.198837,-0.448899,0.420709,-0.762862
37214,NaN,8.757202,-3.525999,1.672338,-1.200745,-0.069480,-0.301162,-0.718354,-1.410286,-0.694365,-0.782227,-0.102783,-0.160889,0.087328,-0.035502,0.017467,0.999963,-0.003592,-0.007051,-0.003472,-0.200123,-0.455002,0.423278,-0.757470
37215,NaN,8.651588,-3.635586,0.773966,-1.441541,0.670996,-0.531738,-0.677760,-1.420578,-0.710729,-0.780029,-0.106934,-0.148682,0.086328,-0.036635,0.008477,0.999963,-0.003389,-0.007103,-0.003554,-0.199649,-0.460378,0.424038,-0.753913
37216,NaN,8.398935,-3.857726,-0.258237,-1.568733,1.582035,-0.839126,-0.592684,-1.519163,-0.757899,-0.786377,-0.106934,-0.132324,0.083858,-0.038901,-0.001830,0.999960,-0.002963,-0.007596,-0.003789,-0.200641,-0.467095,0.426028,-0.748376
37217,NaN,8.393934,-3.566870,-1.470725,-2.307851,2.349439,-1.181622,-0.389000,-1.635826,-0.836325,-0.788086,-0.115479,-0.119873,0.083905,-0.036047,-0.013951,0.999956,-0.001945,-0.008179,-0.004182,-0.199804,-0.473941,0.425798,-0.744415
37218,NaN,8.660332,-3.405674,-1.911724,-2.645611,2.512492,-1.041126,-0.103378,-1.733914,-0.896208,-0.790039,-0.122070,-0.103516,0.086611,-0.034454,-0.018349,0.999952,-0.000517,-0.008669,-0.004481,-0.199684,-0.482171,0.425772,-0.739159
37219,NaN,8.775348,-3.594598,-2.066929,-2.536754,2.656272,-0.829008,0.106145,-1.863300,-0.941668,-0.787598,-0.130371,-0.093018,0.087771,-0.036349,-0.019871,0.999945,0.000531,-0.009316,-0.004708,-0.197903,-0.490664,0.423928,-0.735098
37220,NaN,9.019942,-3.396266,-1.695140,-2.429309,2.121403,-0.573504,0.176174,-1.969867,-0.987331,-0.787354,-0.134766,-0.072510,0.090192,-0.034393,-0.016093,0.999939,0.000881,-0.009849,-0.004937,-0.196912,-0.500135,0.422783,-0.729620
37221,NaN,9.265522,-2.759186,-1.359138,-2.649509,1.365816,-0.516383,0.133032,-2.049737,-1.031874,-0.789307,-0.143311,-0.055908,0.092644,-0.028061,-0.012660,0.999934,0.000665,-0.010248,-0.005159,-0.195274,-0.509552,0.420988,-0.724564
37222,NaN,9.389376,-2.065688,-1.002567,-2.808258,0.566593,-0.581157,-0.147404,-2.048750,-1.094914,-0.791016,-0.154053,-0.043457,0.093875,-0.021178,-0.009048,0.999932,-0.000737,-0.010244,-0.005474,-0.195290,-0.519095,0.420706,-0.717920
37223,NaN,9.368522,-1.298475,-0.433269,-2.837040,-0.415919,-0.789548,-0.614504,-1.964377,-1.177735,-0.792725,-0.162598,-0.025146,0.093643,-0.013548,-0.003372,0.999930,-0.003072,-0.009822,-0.005889,-0.196506,-0.527781,0.421181,-0.710943
37224,NaN,9.481428,-1.298147,0.168829,-2.326506,-1.006434,-0.583308,-1.112832,-1.848721,-1.265468,-0.788330,-0.168945,-0.008545,0.094708,-0.013568,0.002638,0.999922,-0.005564,-0.009243,-0.006327,-0.200031,-0.535877,0.423582,-0.702425
37225,NaN,9.645470,-2.390063,1.014582,-0.881471,-1.185871,0.066024,-1.524636,-1.711482,-1.333459,-0.787842,-0.181641,-0.008301,0.096200,-0.024460,0.011155,0.999912,-0.007623,-0.008557,-0.006667,-0.204906,-0.543051,0.426481,-0.693702
37226,NaN,9.897915,-4.073177,1.238115,0.652746,-0.582748,0.926071,-1.744822,-1.554090,-1.390078,-0.785400,-0.192383,0.004150,0.098591,-0.041303,0.013507,0.999908,-0.008724,-0.007770,-0.006950,-0.211131,-0.549562,0.430313,-0.684278
37227,NaN,10.456490,-4.938874,1.033813,1.266912,-0.143018,1.727131,-1.799016,-1.367182,-1.429742,-0.782959,-0.200928,0.010498,0.104133,-0.050034,0.011499,0.999911,-0.008995,-0.006836,-0.007148,-0.217792,-0.555302,0.433366,-0.675574
37228,NaN,10.927549,-5.398554,0.854663,1.644278,0.062392,2.294017,-1.666947,-1.183094,-1.432648,-0.771973,-0.213623,0.016846,0.108831,-0.054689,0.009645,0.999922,-0.008335,-0.005915,-0.007163,-0.224678,-0.560538,0.436275,-0.667069
37229,NaN,11.042639,-5.989241,0.735918,2.254859,0.375784,2.561531,-1.431372,-1.015870,-1.365839,-0.776123,-0.218018,0.022949,0.109973,-0.060587,0.008351,0.999938,-0.007157,-0.005079,-0.006829,-0.230747,-0.565168,0.437798,-0.660055
37230,NaN,11.094019,-6.188396,1.116019,2.837287,0.079884,2.619449,-1.170796,-0.877672,-1.266002,-0.773682,-0.226318,0.023193,0.110494,-0.062516,0.012010,0.999953,-0.005854,-0.004388,-0.006330,-0.236302,-0.569453,0.439079,-0.653525
37231,NaN,11.289967,-5.138523,0.425822,1.762420,0.057089,2.472932,-0.980108,-0.777540,-1.164697,-0.773193,-0.241211,0.031738,0.112580,-0.052018,0.004950,0.999963,-0.004900,-0.003888,-0.005823,-0.240810,-0.573221,0.439385,-0.648358
37232,NaN,11.737365,-4.083595,-0.044091,0.730288,-0.190167,2.591808,-0.810352,-0.675636,-1.033713,-0.768799,-0.245605,0.035889,0.117161,-0.041442,0.000122,0.999973,-0.004052,-0.003378,-0.005169,-0.244993,-0.576685,0.439852,-0.643384
37233,NaN,11.696739,-3.516404,-0.380931,0.238254,-0.194094,2.403192,-0.865949,-0.581129,-0.857367,-0.768799,-0.247803,0.033691,0.116825,-0.035680,-0.003316,0.999977,-0.004330,-0.002906,-0.004287,-0.248566,-0.579204,0.440417,-0.639352
37234,NaN,11.411476,-2.810699,-1.357873,-0.662566,0.320165,1.995053,-1.082009,-0.508724,-0.695029,-0.760254,-0.250000,0.041992,0.114050,-0.028575,-0.013135,0.999976,-0.005410,-0.002544,-0.003475,-0.252795,-0.580996,0.442486,-0.634621
37235,NaN,10.987753,-2.065326,-2.535203,-1.695035,1.031972,1.478202,-1.200945,-0.484838,-0.586322,-0.761963,-0.256348,0.038086,0.109877,-0.021126,-0.024960,0.999975,-0.006005,-0.002424,-0.002932,-0.256713,-0.582159,0.444791,-0.630358
37236,NaN,11.039569,-1.232116,-3.428214,-2.739847,1.378117,1.400503,-0.996769,-0.505438,-0.592837,-0.760010,-0.256348,0.042236,0.110444,-0.012818,-0.033940,0.999980,-0.004984,-0.002527,-0.002964,-0.260354,-0.583773,0.446848,-0.625901
37237,NaN,11.086474,-1.417063,-3.705822,-2.623819,1.679801,1.542654,-0.622161,-0.574620,-0.619818,-0.761719,-0.266846,0.048584,0.110926,-0.014629,-0.036695,0.999986,-0.003111,-0.002873,-0.003099,-0.262603,-0.586054,0.447445,-0.622393
37238,NaN,10.705639,-1.343130,-3.830696,-2.575108,1.800964,1.197001,-0.309628,-0.676470,-0.625014,-0.757324,-0.269043,0.052734,0.107142,-0.013825,-0.037923,0.999988,-0.001548,-0.003382,-0.003125,-0.263939,-0.589138,0.447462,-0.618895
37239,NaN,10.200869,-0.715119,-4.789195,-3.406124,2.402220,0.681698,0.079652,-0.829059,-0.686180,-0.755127,-0.271240,0.060791,0.102181,-0.007483,-0.047472,0.999985,0.000398,-0.004145,-0.003431,-0.263882,-0.593301,0.446143,-0.615887
37240,NaN,9.867286,-0.779177,-4.785509,-3.209586,2.439624,0.415571,0.494612,-0.985812,-0.750301,-0.752930,-0.277588,0.073242,0.098877,-0.008045,-0.047388,0.999978,0.002473,-0.004929,-0.003751,-0.262521,-0.598644,0.443686,-0.613067
37241,NaN,9.634112,-1.742517,-4.007536,-1.883027,2.205070,0.360993,0.832982,-1.113087,-0.747295,-0.746338,-0.279785,0.081543,0.096497,-0.017620,-0.039612,0.999969,0.004165,-0.005565,-0.003736,-0.259897,-0.604807,0.440382,-0.610513
37242,NaN,8.839100,-2.135325,-3.081169,-0.898717,1.709946,-0.407872,0.975734,-1.202415,-0.719402,-0.741943,-0.286133,0.100098,0.088497,-0.021523,-0.030385,0.999964,0.004879,-0.006012,-0.003597,-0.256486,-0.611302,0.436776,-0.608072
37243,NaN,8.129564,-1.497880,-1.832166,-0.626398,0.441066,-1.380453,0.963970,-1.262945,-0.717951,-0.741943,-0.288330,0.110352,0.081355,-0.015184,-0.017881,0.999962,0.004820,-0.006315,-0.003590,-0.253057,-0.617953,0.433422,-0.605179
37244,NaN,7.996177,-1.194477,-0.268806,0.045230,-1.039667,-1.790593,0.802845,-1.239465,-0.702395,-0.735352,-0.292725,0.120605,0.079934,-0.012216,-0.002241,0.999967,0.004014,-0.006197,-0.003512,-0.250007,-0.624215,0.430378,-0.602185
37245,NaN,7.805046,-0.938634,0.949540,0.599227,-2.176614,-2.222972,0.514779,-1.106738,-0.717615,-0.733154,-0.292725,0.130859,0.077962,-0.009691,0.009902,0.999975,0.002574,-0.005534,-0.003588,-0.248277,-0.629753,0.428101,-0.598748
37246,NaN,8.036818,-0.505525,1.883823,0.819597,-3.252707,-2.253448,0.115216,-0.937101,-0.770531,-0.732910,-0.301270,0.139160,0.080258,-0.005376,0.019211,0.999981,0.000576,-0.004685,-0.003853,-0.248210,-0.634334,0.426487,-0.595081
37247,NaN,7.748451,-0.781760,1.783707,1.109068,-2.973887,-2.480800,-0.145184,-0.729320,-0.852832,-0.732666,-0.307617,0.147461,0.077385,-0.008135,0.018125,0.999984,-0.000726,-0.003647,-0.004264,-0.249723,-0.638168,0.425072,-0.591349
37248,NaN,7.630265,-1.561131,1.093905,1.478439,-1.983069,-2.347047,-0.310274,-0.564842,-0.890004,-0.724121,-0.309814,0.147461,0.076201,-0.015933,0.011179,0.999985,-0.001551,-0.002824,-0.004450,-0.252141,-0.641327,0.423850,-0.587772
37249,NaN,8.011806,-1.867586,0.216955,1.325653,-1.193922,-1.778972,-0.304028,-0.451417,-0.891596,-0.726318,-0.312012,0.149658,0.080029,-0.019029,0.002379,0.999986,-0.001520,-0.002257,-0.004458,-0.254807,-0.644178,0.422255,-0.584643
37250,NaN,7.828727,-1.973112,-0.244614,1.253475,-0.704998,-1.864528,-0.155992,-0.368774,-0.897159,-0.721680,-0.320557,0.151855,0.078202,-0.020084,-0.002286,0.999988,-0.000780,-0.001844,-0.004486,-0.257151,-0.646938,0.420288,-0.581981
37251,NaN,8.274767,-1.975267,-0.451199,1.210759,-0.622975,-1.403028,-0.161306,-0.346649,-0.941821,-0.715088,-0.329102,0.154053,0.082661,-0.020146,-0.004353,0.999987,-0.000807,-0.001733,-0.004709,-0.259671,-0.649718,0.417913,-0.579470
37252,NaN,7.538896,-1.066309,-0.908599,0.293913,-0.518347,-2.167955,-0.109838,-0.310053,-0.980838,-0.717041,-0.335449,0.162354,0.075349,-0.011038,-0.008963,0.999987,-0.000549,-0.001550,-0.004904,-0.262219,-0.652509,0.415444,-0.576957
37253,NaN,7.488728,0.436252,-1.349915,-1.133266,-0.902534,-2.329759,-0.074819,-0.417124,-0.994064,-0.708252,-0.341797,0.162598,0.074936,0.003985,-0.013344,0.999985,-0.000374,-0.002086,-0.004970,-0.264431,-0.655669,0.412698,-0.574329
37254,NaN,9.659879,0.988061,-1.378730,-1.520523,-1.672900,-0.269166,0.026246,-0.527532,-1.018468,-0.703857,-0.348145,0.168701,0.096683,0.009390,-0.013531,0.999984,0.000131,-0.002638,-0.005092,-0.266177,-0.659304,0.409977,-0.571303
37255,NaN,13.028439,0.874590,-1.295474,-1.205088,-2.468788,3.018290,0.114757,-0.623874,-1.093824,-0.697266,-0.356689,0.170898,0.130369,0.008040,-0.012543,0.999980,0.000574,-0.003119,-0.005469,-0.267658,-0.663494,0.406552,-0.568200
37256,NaN,14.208104,0.309516,-0.683077,-0.200229,-2.943153,4.105921,0.205803,-0.611498,-1.120521,-0.692871,-0.358887,0.177246,0.142115,0.002306,-0.006394,0.999979,0.001029,-0.003057,-0.005603,-0.268910,-0.667765,0.403062,-0.565083
37257,NaN,15.488813,0.310780,0.422173,0.626521,-4.110931,5.116574,0.203136,-0.462941,-1.126769,-0.684082,-0.367432,0.183594,0.154892,0.002231,0.004583,0.999981,0.001016,-0.002315,-0.005634,-0.270526,-0.671651,0.398897,-0.562656
37258,NaN,15.035976,-0.480313,0.415748,1.442293,-3.532579,4.744862,0.143356,-0.311979,-1.123055,-0.679443,-0.380127,0.181641,0.150323,-0.005650,0.004388,0.999983,0.000717,-0.001560,-0.005615,-0.272578,-0.674945,0.395139,-0.560371
37259,NaN,14.977230,-2.509621,-0.209795,2.955514,-1.830884,4.971435,0.202549,-0.107463,-1.061641,-0.675049,-0.382324,0.191895,0.149637,-0.025889,-0.002043,0.999985,0.001013,-0.000537,-0.005308,-0.274686,-0.677654,0.390501,-0.559322
37260,NaN,15.184666,-1.417453,-0.148645,2.224375,-2.426968,5.079087,0.438070,0.032202,-1.110806,-0.672852,-0.384521,0.192139,0.151765,-0.015014,-0.001543,0.999982,0.002190,0.000161,-0.005554,-0.276366,-0.680317,0.385463,-0.558756
37261,NaN,15.184954,0.333790,0.796050,1.416886,-4.018693,4.787572,0.528923,0.230290,-1.180832,-0.668701,-0.388672,0.187988,0.151875,0.002420,0.007793,0.999978,0.002645,0.001151,-0.005904,-0.278276,-0.682671,0.378935,-0.559402
37262,NaN,17.012287,0.731887,1.870534,1.966888,-5.329785,6.348170,0.271691,0.503893,-1.139113,-0.659912,-0.397217,0.194336,0.170207,0.006325,0.018286,0.999980,0.001358,0.002519,-0.005696,-0.281484,-0.683779,0.373580,-0.560046
37263,NaN,17.607692,0.677271,1.986782,2.232051,-5.288296,6.964805,-0.181578,0.782950,-1.059090,-0.655518,-0.401611,0.188232,0.176186,0.005858,0.019173,0.999978,-0.000908,0.003915,-0.005295,-0.286474,-0.683280,0.368445,-0.561525
37264,NaN,17.202730,1.290085,1.549993,1.498181,-4.984615,6.707137,-0.697294,1.034031,-1.009133,-0.655273,-0.403564,0.176025,0.172167,0.012084,0.014567,0.999968,-0.003486,0.005170,-0.005046,-0.293585,-0.681209,0.365464,-0.562315
37265,NaN,17.233316,1.511758,1.412947,1.253998,-4.720719,6.842793,-1.278843,1.253602,-0.900782,-0.644775,-0.405762,0.167969,0.172483,0.014426,0.012955,0.999950,-0.006394,0.006268,-0.004504,-0.302663,-0.677378,0.363019,-0.563712
37266,NaN,16.517485,1.672392,0.908271,0.735291,-4.019998,6.303799,-1.909895,1.453479,-0.684315,-0.642334,-0.416260,0.153809,0.165290,0.016237,0.007725,0.999922,-0.009549,0.007267,-0.003421,-0.313675,-0.671575,0.363858,-0.564094
37267,NaN,15.357014,1.787418,0.308313,0.120197,-3.120148,5.332291,-2.520008,1.646359,-0.422576,-0.642334,-0.412109,0.131348,0.153625,0.017576,0.001596,0.999885,-0.012600,0.008231,-0.002113,-0.326175,-0.663611,0.365677,-0.565253
37268,NaN,14.161498,2.005439,-0.406836,-0.662822,-2.207860,4.308682,-3.029486,1.784281,-0.120383,-0.637939,-0.418457,0.114990,0.141581,0.019892,-0.005634,0.999845,-0.015147,0.008921,-0.000602,-0.339779,-0.653740,0.370874,-0.565356
37269,NaN,12.850412,2.087202,-0.743174,-1.156413,-1.523472,3.085968,-3.371773,1.895730,0.233868,-0.646729,-0.411865,0.094482,0.128399,0.020879,-0.009001,0.999812,-0.016858,0.009478,0.001169,-0.353467,-0.642036,0.376608,-0.566585
37270,NaN,12.497009,1.741200,-0.957324,-1.140733,-0.878355,2.758811,-3.659893,1.955687,0.598325,-0.640381,-0.411865,0.069824,0.124814,0.017592,-0.011115,0.999780,-0.018298,0.009778,0.002991,-0.367124,-0.628755,0.385358,-0.566910
37271,NaN,11.760836,0.647275,-1.106818,-0.441199,0.036461,2.009296,-3.636052,1.992592,0.919273,-0.649170,-0.403320,0.049316,0.117459,0.006796,-0.012361,0.999775,-0.018179,0.009962,0.004596,-0.379579,-0.614475,0.393586,-0.568709
37272,NaN,10.865658,-0.574999,-1.213778,0.432413,0.849007,1.093951,-3.289359,1.970963,1.179505,-0.656006,-0.386230,0.028564,0.108563,-0.005320,-0.013118,0.999799,-0.016446,0.009854,0.005897,-0.390133,-0.600178,0.402743,-0.570421
37273,NaN,10.921636,-0.961776,-1.094773,0.662404,1.041755,1.136172,-2.673640,1.955253,1.362688,-0.658691,-0.373535,0.016113,0.109166,-0.009029,-0.011892,0.999840,-0.013367,0.009776,0.006813,-0.397988,-0.586505,0.409474,-0.574412
37274,NaN,10.844859,-0.371562,-1.035308,-0.060304,0.919271,1.048583,-2.058490,1.915466,1.492347,-0.663086,-0.364990,0.001465,0.108367,-0.003020,-0.011358,0.999873,-0.010292,0.009577,0.007461,-0.403610,-0.573772,0.415898,-0.578717
37275,NaN,10.751103,-0.153817,-1.182452,-0.523113,1.146717,0.930409,-1.535545,1.896091,1.581545,-0.672119,-0.349854,-0.013184,0.107401,-0.000785,-0.012835,0.999894,-0.007677,0.009480,0.007907,-0.407152,-0.561795,0.420026,-0.584971
37276,NaN,10.441299,-0.119110,-1.367077,-0.810594,1.448005,0.586583,-1.086100,1.862507,1.641979,-0.674561,-0.341309,-0.017334,0.104285,-0.000412,-0.014639,0.999908,-0.005430,0.009312,0.008210,-0.409275,-0.550631,0.423985,-0.591217
37277,NaN,10.140749,0.039379,-1.623607,-1.233321,1.783370,0.225537,-0.757345,1.823055,1.672867,-0.685547,-0.326416,-0.025879,0.101246,0.001177,-0.017163,0.999916,-0.003787,0.009115,0.008364,-0.410056,-0.540069,0.426194,-0.598780
37278,NaN,9.750821,0.238601,-2.019579,-1.707387,2.212619,-0.252421,-0.581189,1.770287,1.685516,-0.687988,-0.315918,-0.042480,0.097300,0.003146,-0.021066,0.999921,-0.002906,0.008851,0.008427,-0.410320,-0.529937,0.428822,-0.605736
37279,NaN,9.423417,0.479498,-2.535330,-2.244544,2.742717,-0.708074,-0.533530,1.693094,1.679359,-0.701416,-0.298828,-0.051025,0.093971,0.005516,-0.026164,0.999925,-0.002668,0.008465,0.008397,-0.410084,-0.520065,0.430637,-0.613119
37280,NaN,8.890135,0.089219,-2.695674,-2.025053,3.081482,-1.285709,-0.446450,1.577691,1.677527,-0.706055,-0.283936,-0.061523,0.088674,0.001575,-0.027660,0.999931,-0.002232,0.007888,0.008387,-0.409471,-0.510659,0.433102,-0.619664
37281,NaN,8.581359,-0.718744,-2.486892,-1.320677,3.186855,-1.539968,-0.314971,1.450663,1.668143,-0.710693,-0.270996,-0.067871,0.085686,-0.006512,-0.025480,0.999938,-0.001575,0.007253,0.008341,-0.408111,-0.501896,0.434739,-0.626537
37282,NaN,8.493528,-0.995053,-2.258579,-1.139578,3.113879,-1.613064,-0.179020,1.349843,1.644864,-0.715332,-0.262451,-0.073975,0.084858,-0.009273,-0.023150,0.999943,-0.000895,0.006749,0.008224,-0.406319,-0.493691,0.436647,-0.632862
37283,NaN,8.405732,-0.908247,-1.830801,-1.246853,2.743138,-1.703976,-0.087404,1.264695,1.606513,-0.715820,-0.249756,-0.084473,0.084009,-0.008416,-0.018836,0.999948,-0.000437,0.006323,0.008032,-0.404119,-0.486012,0.437841,-0.639355
37284,NaN,8.214269,-0.938135,-1.298346,-1.187478,2.285654,-1.850054,-0.027745,1.193815,1.566779,-0.730957,-0.236816,-0.091064,0.082133,-0.008740,-0.013473,0.999951,-0.000139,0.005969,0.007834,-0.401772,-0.478679,0.439303,-0.645336
37285,NaN,7.987911,-1.050539,-0.867907,-1.062241,1.943625,-2.018097,0.031545,1.125734,1.535020,-0.729248,-0.230469,-0.107422,0.079906,-0.009891,-0.009130,0.999955,0.000158,0.005629,0.007675,-0.399166,-0.471763,0.440248,-0.651374
37286,NaN,7.878009,-1.197099,-0.708951,-0.995252,1.872779,-2.099122,0.114365,1.057076,1.490698,-0.727539,-0.215576,-0.109619,0.078827,-0.011379,-0.007513,0.999958,0.000572,0.005285,0.007453,-0.396352,-0.465241,0.441262,-0.657073
37287,NaN,7.736977,-1.160144,-0.611725,-1.099972,1.801799,-2.254716,0.244922,0.997379,1.440306,-0.738281,-0.211426,-0.115967,0.077419,-0.011036,-0.006517,0.999961,0.001225,0.004987,0.007201,-0.393235,-0.459311,0.441549,-0.662899
37288,NaN,7.659517,-0.960266,-0.585674,-1.383050,1.749636,-2.399333,0.399183,0.938629,1.381855,-0.745117,-0.198486,-0.128418,0.076630,-0.009061,-0.006235,0.999963,0.001996,0.004693,0.006909,-0.389796,-0.453910,0.441536,-0.668634
37289,NaN,7.519726,-0.547573,-0.638601,-1.853999,1.695246,-2.675358,0.527279,0.892371,1.312404,-0.743164,-0.192139,-0.124512,0.075201,-0.004965,-0.006735,0.999965,0.002636,0.004462,0.006562,-0.386204,-0.449111,0.440800,-0.674419
37290,NaN,7.404459,-0.199290,-0.757802,-2.279158,1.715657,-2.935127,0.644793,0.840165,1.241012,-0.743408,-0.183594,-0.136963,0.074022,-0.001508,-0.007894,0.999967,0.003224,0.004201,0.006205,-0.382410,-0.444766,0.439774,-0.680106
37291,NaN,7.375508,-0.271616,-0.741330,-2.299412,1.747903,-2.980558,0.730635,0.785943,1.178020,-0.741455,-0.179443,-0.136963,0.073739,-0.002254,-0.007712,0.999968,0.003653,0.003930,0.005890,-0.378581,-0.440981,0.438251,-0.685673
37292,NaN,7.431512,-0.498249,-0.733241,-2.209194,1.847763,-2.904901,0.785704,0.743039,1.150069,-0.750244,-0.170898,-0.141357,0.074314,-0.004526,-0.007627,0.999969,0.003928,0.003715,0.005750,-0.374523,-0.437380,0.436671,-0.691194
37293,NaN,7.428497,-0.874875,-0.708646,-1.958281,1.976981,-2.833729,0.845538,0.691743,1.136818,-0.752441,-0.168701,-0.147461,0.074308,-0.008296,-0.007379,0.999969,0.004228,0.003459,0.005684,-0.370381,-0.434200,0.434838,-0.696566
37294,NaN,7.497122,-1.282145,-0.580959,-1.682699,2.034863,-2.656215,0.922180,0.655510,1.133057,-0.750488,-0.162354,-0.151611,0.075022,-0.012369,-0.006113,0.999968,0.004611,0.003278,0.005665,-0.365847,-0.431140,0.432857,-0.702075
37295,NaN,7.519882,-1.707613,-0.483224,-1.383955,2.127775,-2.515135,1.030952,0.630226,1.126710,-0.757324,-0.151611,-0.157959,0.075277,-0.016626,-0.005156,0.999966,0.005155,0.003151,0.005633,-0.361203,-0.428502,0.430472,-0.707540
37296,NaN,7.595901,-2.060749,-0.344768,-1.166361,2.173195,-2.330778,1.147631,0.609499,1.125584,-0.757080,-0.153809,-0.156006,0.076062,-0.020158,-0.003796,0.999963,0.005738,0.003047,0.005628,-0.356061,-0.425972,0.427705,-0.713328
37297,NaN,7.583956,-2.242678,-0.122377,-1.038063,2.072009,-2.250343,1.270925,0.595565,1.123955,-0.755127,-0.149658,-0.157959,0.075960,-0.021991,-0.001591,0.999960,0.006355,0.002978,0.005620,-0.350821,-0.423842,0.424528,-0.719068
37298,NaN,7.563643,-2.353172,0.074834,-0.980459,1.972240,-2.203512,1.385853,0.589651,1.119041,-0.755371,-0.143066,-0.160156,0.075768,-0.023111,0.000364,0.999956,0.006929,0.002948,0.005595,-0.345097,-0.421752,0.420863,-0.725195
37299,NaN,7.490004,-2.366271,0.245900,-0.985086,1.852176,-2.239194,1.496657,0.581488,1.113217,-0.761963,-0.134766,-0.164551,0.075037,-0.023262,0.002066,0.999952,0.007483,0.002907,0.005566,-0.339356,-0.420021,0.416861,-0.731195
37300,NaN,7.533160,-2.545362,0.487679,-0.876629,1.762552,-2.093298,1.624518,0.575527,1.109392,-0.759766,-0.136719,-0.158203,0.075485,-0.025073,0.004455,0.999947,0.008122,0.002878,0.005547,-0.333071,-0.418332,0.412252,-0.737638
37301,NaN,7.677980,-2.707497,0.757011,-0.810724,1.664435,-1.848634,1.738135,0.582986,1.101762,-0.758057,-0.126221,-0.158447,0.076949,-0.026715,0.007113,0.999943,0.008691,0.002915,0.005509,-0.326821,-0.416946,0.407305,-0.743940
37302,NaN,7.783890,-2.856637,1.032625,-0.743285,1.563237,-1.638451,1.833573,0.597025,1.104832,-0.756104,-0.126221,-0.164551,0.078025,-0.028227,0.009834,0.999938,0.009168,0.002985,0.005524,-0.320085,-0.415439,0.401787,-0.750683
37303,NaN,7.979406,-2.920882,1.427894,-0.735515,1.339678,-1.333050,1.902978,0.620522,1.112116,-0.762451,-0.121826,-0.166748,0.079999,-0.028897,0.013755,0.999934,0.009515,0.003103,0.005560,-0.313467,-0.414063,0.396133,-0.757211
37304,NaN,8.274140,-2.911140,1.837727,-0.833044,1.095413,-0.957293,1.899173,0.665084,1.132625,-0.766846,-0.117676,-0.168945,0.082965,-0.028813,0.017827,0.999933,0.009496,0.003325,0.005663,-0.306543,-0.412244,0.390218,-0.764079
37305,NaN,8.550319,-3.155781,2.128480,-0.764999,1.085122,-0.548084,1.895870,0.723996,1.166056,-0.756348,-0.113525,-0.175049,0.085762,-0.031256,0.020677,0.999932,0.009479,0.003620,0.005830,-0.299868,-0.410257,0.384471,-0.770682
37306,NaN,8.637919,-3.394419,2.428887,-0.625631,1.055503,-0.298086,1.892743,0.798925,1.212026,-0.760742,-0.109131,-0.166992,0.086679,-0.033645,0.023624,0.999929,0.009463,0.003995,0.006060,-0.292829,-0.407650,0.378437,-0.777726
37307,NaN,8.730547,-3.506474,2.740760,-0.582844,0.959482,-0.077856,1.875605,0.872239,1.232682,-0.758789,-0.102783,-0.179199,0.087638,-0.034778,0.026699,0.999928,0.009378,0.004361,0.006163,-0.286146,-0.404825,0.372604,-0.784476
37308,NaN,8.809108,-3.617093,2.987138,-0.574750,0.931237,0.107322,1.875000,0.949586,1.243300,-0.761230,-0.096436,-0.185547,0.088454,-0.035897,0.029115,0.999925,0.009375,0.004748,0.006216,-0.279222,-0.401429,0.366379,-0.791616
37309,NaN,8.818618,-3.677740,3.161056,-0.599147,0.928781,0.190391,1.867190,1.033183,1.267927,-0.759277,-0.092041,-0.187744,0.088579,-0.036507,0.030812,0.999923,0.009336,0.005166,0.006339,-0.272637,-0.397780,0.360334,-0.798498
37310,NaN,8.718954,-3.684982,3.298392,-0.633309,0.919759,0.148664,1.851155,1.117591,1.290425,-0.757568,-0.081543,-0.197998,0.087607,-0.036586,0.032156,0.999921,0.009256,0.005588,0.006452,-0.265795,-0.393479,0.353957,-0.805756
37311,NaN,8.575617,-3.626960,3.458581,-0.674343,0.846309,0.060693,1.830651,1.190988,1.296675,-0.755371,-0.081543,-0.204102,0.086193,-0.036023,0.033743,0.999919,0.009153,0.005955,0.006483,-0.259372,-0.388979,0.347809,-0.812681
37312,NaN,8.472826,-3.612891,3.754595,-0.653084,0.710296,0.087026,1.790587,1.258649,1.323031,-0.753662,-0.072998,-0.212402,0.085199,-0.035897,0.036689,0.999918,0.008953,0.006293,0.006615,-0.252681,-0.383848,0.341446,-0.819895
37313,NaN,8.603272,-3.668530,4.042464,-0.719928,0.661533,0.329122,1.739079,1.327484,1.345816,-0.753662,-0.070801,-0.218750,0.086543,-0.036450,0.039534,0.999918,0.008695,0.006637,0.006729,-0.246393,-0.378473,0.335491,-0.826737
37314,NaN,8.584142,-3.693080,4.273185,-0.762912,0.623347,0.415308,1.666933,1.402432,1.374685,-0.749756,-0.064453,-0.227051,0.086390,-0.036689,0.041821,0.999917,0.008334,0.007012,0.006873,-0.239888,-0.372386,0.329446,-0.833815
37315,NaN,8.494835,-3.695654,4.489056,-0.784384,0.569393,0.435632,1.624021,1.473671,1.397960,-0.750000,-0.055908,-0.237305,0.085532,-0.036720,0.043963,0.999915,0.008120,0.007368,0.006990,-0.233770,-0.366063,0.323785,-0.840543
37316,NaN,8.380112,-3.658499,4.802909,-0.780131,0.424924,0.477369,1.617697,1.536372,1.403889,-0.748047,-0.051758,-0.251709,0.084421,-0.036377,0.047087,0.999913,0.008088,0.007682,0.007019,-0.227375,-0.359186,0.317731,-0.847545
37317,NaN,8.392188,-3.528462,5.002976,-0.961248,0.316567,0.525584,1.580515,1.604676,1.403960,-0.743896,-0.047363,-0.260010,0.084565,-0.035083,0.049075,0.999912,0.007902,0.008023,0.007020,-0.221446,-0.352137,0.312003,-0.854175
37318,NaN,8.346249,-3.341454,5.204175,-1.146801,0.162347,0.510227,1.484774,1.661605,1.391290,-0.731445,-0.038818,-0.270264,0.084121,-0.033213,0.051098,0.999914,0.007424,0.008308,0.006956,-0.215462,-0.344478,0.306245,-0.860887
37319,NaN,8.245714,-3.056288,5.343429,-1.371843,-0.037895,0.385210,1.382115,1.721244,1.354023,-0.731689,-0.030273,-0.284668,0.083118,-0.030367,0.052511,0.999916,0.006910,0.008606,0.006770,-0.210202,-0.336687,0.301037,-0.867083
37320,NaN,8.126154,-3.004246,5.441642,-1.471982,-0.045497,0.311449,1.238218,1.767916,1.308810,-0.727783,-0.023926,-0.303223,0.081933,-0.029841,0.053509,0.999920,0.006191,0.008839,0.006544,-0.205086,-0.328321,0.295990,-0.873232
37321,NaN,8.042753,-2.989658,5.473913,-1.599767,0.011796,0.238379,1.023299,1.804853,1.278776,-0.725830,-0.015381,-0.307373,0.081106,-0.029657,0.053857,0.999926,0.005116,0.009024,0.006394,-0.200811,-0.319825,0.292018,-0.878699
37322,NaN,7.861949,-3.055390,5.468999,-1.640881,0.128746,0.104080,0.790199,1.838637,1.277957,-0.717773,-0.009033,-0.319824,0.079311,-0.030262,0.053843,0.999930,0.003951,0.009193,0.006390,-0.196602,-0.310646,0.288723,-0.884017
37323,NaN,7.859298,-3.392509,5.801972,-1.518129,0.253543,0.413118,0.609056,1.844704,1.238618,-0.709473,-0.002686,-0.330078,0.079332,-0.033610,0.057188,0.999934,0.003045,0.009223,0.006193,-0.193167,-0.301556,0.286374,-0.888673
37324,NaN,7.708802,-3.991216,5.956997,-1.248332,0.666584,0.619664,0.467873,1.848165,1.215765,-0.703125,0.001465,-0.346436,0.077875,-0.039578,0.058760,0.999936,0.002339,0.009241,0.006079,-0.189693,-0.292030,0.284324,-0.893250
37325,NaN,7.337103,-4.122002,5.937458,-1.119047,0.782560,0.395562,0.316871,1.856075,1.188227,-0.697021,0.007812,-0.356934,0.074161,-0.040874,0.058624,0.999938,0.001584,0.009280,0.005941,-0.186894,-0.282622,0.283111,-0.897242
37326,NaN,6.879023,-4.175204,6.035895,-0.914236,0.746310,0.176730,0.210102,1.851691,1.158808,-0.695312,0.016357,-0.369141,0.069585,-0.041413,0.059674,0.999940,0.001050,0.009258,0.005794,-0.184007,-0.272849,0.282058,-0.901187
37327,NaN,6.536972,-4.567196,6.342605,-0.541160,0.855977,0.325865,0.164748,1.845986,1.153328,-0.680664,0.022705,-0.383545,0.066213,-0.045344,0.062780,0.999940,0.000824,0.009230,0.005767,-0.181531,-0.263335,0.281420,-0.904712
37328,NaN,6.345758,-4.756565,6.428554,-0.481338,0.972380,0.338102,0.130825,1.830316,1.172229,-0.677002,0.035400,-0.392090,0.064320,-0.047232,0.063669,0.999941,0.000654,0.009151,0.005861,-0.178620,-0.253504,0.280694,-0.908318
37329,NaN,6.175052,-4.902867,6.542334,-0.441580,1.035039,0.370684,0.139743,1.807983,1.208433,-0.668701,0.041992,-0.404297,0.062633,-0.048697,0.064826,0.999941,0.000699,0.009040,0.006042,-0.175842,-0.243998,0.280213,-0.911606
37330,NaN,5.959800,-4.822910,6.570056,-0.508276,0.966969,0.224636,0.146008,1.782100,1.268684,-0.658203,0.048340,-0.420654,0.060485,-0.047895,0.065129,0.999940,0.000730,0.008910,0.006343,-0.172367,-0.234206,0.279511,-0.915047
37331,NaN,5.591279,-4.443473,6.471199,-0.607745,0.700706,-0.220024,0.146495,1.751045,1.329720,-0.650146,0.061035,-0.429199,0.056770,-0.044106,0.064185,0.999939,0.000732,0.008755,0.006648,-0.168918,-0.224736,0.279134,-0.918175
37332,NaN,5.180727,-4.103354,6.334120,-0.655276,0.478065,-0.694724,0.167248,1.704427,1.387781,-0.644287,0.069580,-0.445557,0.052628,-0.040723,0.062861,0.999939,0.000836,0.008522,0.006939,-0.164726,-0.215097,0.278469,-0.921441
37333,NaN,4.808883,-4.018928,6.245518,-0.585832,0.427003,-0.994806,0.205206,1.646748,1.447411,-0.629639,0.075928,-0.449707,0.048890,-0.039901,0.062014,0.999939,0.001026,0.008234,0.007237,-0.160492,-0.205937,0.277967,-0.924428
37334,NaN,4.656869,-4.034013,6.295098,-0.620366,0.418486,-1.036299,0.281337,1.583015,1.505037,-0.621582,0.086426,-0.460205,0.047367,-0.040074,0.062522,0.999939,0.001407,0.007915,0.007525,-0.155436,-0.196736,0.276929,-0.927602
37335,NaN,4.643059,-4.099738,6.583109,-0.680929,0.337618,-0.805888,0.390222,1.530697,1.562317,-0.617432,0.094971,-0.470459,0.047251,-0.040758,0.065392,0.999938,0.001951,0.007653,0.007811,-0.150286,-0.188050,0.275705,-0.930612
37336,NaN,4.651458,-4.080535,6.742372,-0.839810,0.275900,-0.704343,0.474457,1.478527,1.608729,-0.607178,0.101318,-0.480713,0.047338,-0.040586,0.066979,0.999938,0.002372,0.007392,0.008043,-0.144383,-0.179292,0.273881,-0.933808
37337,NaN,4.399084,-3.905882,6.779570,-0.844254,0.111274,-0.877227,0.537956,1.427124,1.627816,-0.596924,0.111816,-0.491211,0.044790,-0.038878,0.067373,0.999938,0.002690,0.007135,0.008139,-0.138614,-0.171064,0.272031,-0.936762
37338,NaN,4.533870,-4.198316,7.387097,-0.896496,0.084478,-0.224311,0.647263,1.402420,1.637616,-0.588623,0.118164,-0.493164,0.046198,-0.041845,0.073413,0.999937,0.003236,0.007012,0.008188,-0.132288,-0.162701,0.269410,-0.939918
37339,NaN,5.001066,-4.810522,7.869681,-1.192944,0.453588,0.601283,0.731912,1.402430,1.670213,-0.582764,0.126709,-0.507568,0.050961,-0.047969,0.078166,0.999934,0.003659,0.007012,0.008351,-0.126085,-0.154625,0.266623,-0.942924
37340,NaN,4.913114,-4.678196,7.723213,-1.393202,0.475613,0.360861,0.763870,1.407283,1.694528,-0.563721,0.133057,-0.513916,0.050068,-0.046654,0.076704,0.999932,0.003819,0.007036,0.008472,-0.119373,-0.146198,0.263426,-0.946035
37341,NaN,4.407902,-4.047258,7.625886,-1.323986,-0.013223,-0.210206,0.774773,1.402605,1.665500,-0.562012,0.139404,-0.522217,0.044948,-0.040395,0.075789,0.999933,0.003874,0.007013,0.008327,-0.113131,-0.138125,0.260361,-0.948860
37342,NaN,4.124305,-3.729514,7.595214,-1.337224,-0.242757,-0.498376,0.757204,1.397227,1.628377,-0.553467,0.137207,-0.528076,0.042075,-0.037241,0.075519,0.999935,0.003786,0.006986,0.008142,-0.106694,-0.129791,0.257086,-0.951671
37343,NaN,3.976254,-3.571188,7.395649,-1.444250,-0.241144,-0.806414,0.687610,1.381773,1.583805,-0.538818,0.147949,-0.540527,0.040554,-0.035646,0.073555,0.999939,0.003438,0.006909,0.007919,-0.100836,-0.121854,0.254311,-0.954101
37344,NaN,3.909001,-3.725789,7.598702,-1.473096,-0.170027,-0.609401,0.666737,1.364290,1.533263,-0.528564,0.152100,-0.548828,0.039892,-0.037207,0.075593,0.999942,0.003334,0.006821,0.007666,-0.094844,-0.113721,0.251362,-0.956498
37345,NaN,4.282551,-4.185945,7.991124,-1.821155,0.122046,0.004944,0.654603,1.351326,1.510659,-0.520020,0.154297,-0.554932,0.043679,-0.041792,0.079481,0.999943,0.003273,0.006757,0.007553,-0.089286,-0.105992,0.248643,-0.958630
37346,NaN,4.521295,-4.028272,7.832822,-2.290732,0.141055,-0.181909,0.597585,1.352231,1.497906,-0.507568,0.160645,-0.563232,0.046042,-0.040173,0.077899,0.999945,0.002988,0.006761,0.007489,-0.083465,-0.097906,0.245955,-0.960705
37347,NaN,4.136886,-3.881513,7.715484,-2.134478,0.066523,-0.477512,0.552902,1.361795,1.493293,-0.496826,0.158447,-0.571289,0.042182,-0.038715,0.076762,0.999945,0.002764,0.006809,0.007466,-0.078036,-0.090104,0.243647,-0.962511
37348,NaN,3.725347,-4.056810,7.813358,-1.861901,0.166142,-0.437860,0.498140,1.381880,1.484428,-0.489014,0.173340,-0.583740,0.038092,-0.040481,0.077771,0.999945,0.002491,0.006909,0.007422,-0.072347,-0.081831,0.241366,-0.964267
37349,NaN,3.425782,-4.323256,7.932714,-1.676567,0.344113,-0.303623,0.426077,1.375425,1.475746,-0.474121,0.175293,-0.583740,0.035120,-0.043144,0.078996,0.999947,0.002130,0.006877,0.007379,-0.067057,-0.073939,0.239597,-0.965728
37350,NaN,3.345444,-4.320696,8.147398,-1.754271,0.262005,-0.164291,0.331614,1.358178,1.449135,-0.461426,0.175293,-0.593750,0.034319,-0.043095,0.081171,0.999949,0.001658,0.006791,0.007246,-0.061561,-0.065749,0.238064,-0.967064
37351,NaN,3.211729,-4.128206,8.271311,-1.809208,0.038688,-0.195284,0.193527,1.350222,1.420375,-0.453369,0.185791,-0.593994,0.032967,-0.041130,0.082453,0.999952,0.000968,0.006751,0.007102,-0.056578,-0.057969,0.237356,-0.968040
37352,NaN,2.937736,-3.524544,7.940471,-1.818458,-0.356843,-0.831182,0.018670,1.333212,1.366774,-0.440918,0.190186,-0.604248,0.030146,-0.035049,0.079202,0.999954,0.000093,0.006666,0.006834,-0.051537,-0.049894,0.237274,-0.968791
37353,NaN,2.502006,-2.914629,7.550461,-1.634606,-0.757625,-1.535196,-0.129800,1.307841,1.286828,-0.430664,0.198486,-0.614502,0.025700,-0.028933,0.075357,0.999958,-0.000649,0.006539,0.006434,-0.047223,-0.042394,0.238053,-0.969177
37354,NaN,2.218289,-2.743903,7.320157,-1.522196,-0.837289,-1.874497,-0.218559,1.269351,1.193330,-0.420166,0.204834,-0.616699,0.022810,-0.027224,0.073088,0.999961,-0.001093,0.006347,0.005967,-0.042996,-0.034767,0.239057,-0.969430
37355,NaN,2.103739,-3.183093,7.405818,-1.483296,-0.516423,-1.631270,-0.180847,1.228641,1.117620,-0.405518,0.211182,-0.620850,0.021669,-0.031644,0.073955,0.999965,-0.000904,0.006143,0.005588,-0.039397,-0.027844,0.240010,-0.969571
37356,NaN,2.114888,-3.883864,7.450773,-1.561129,0.070026,-1.290502,-0.082532,1.181983,1.069336,-0.399414,0.219727,-0.627197,0.021796,-0.038693,0.074396,0.999968,-0.000413,0.005910,0.005347,-0.035642,-0.020812,0.240319,-0.969816
37357,NaN,1.954533,-3.654394,7.249028,-1.542868,-0.052986,-1.606672,0.005407,1.139582,1.005934,-0.386719,0.217529,-0.626953,0.020141,-0.036446,0.072376,0.999971,0.000027,0.005698,0.005030,-0.032443,-0.014495,0.240333,-0.970040
37358,NaN,1.857083,-3.703874,7.459478,-1.558488,-0.105385,-1.424001,0.174765,1.099848,0.935816,-0.382812,0.223877,-0.635254,0.019154,-0.037015,0.074458,0.999974,0.000874,0.005499,0.004679,-0.029213,-0.008062,0.239369,-0.970456
37359,NaN,1.823405,-3.713742,7.413831,-1.629413,-0.059442,-1.480702,0.287060,1.049686,0.862614,-0.370117,0.223877,-0.641357,0.018783,-0.037163,0.073987,0.999976,0.001435,0.005248,0.004313,-0.026575,-0.002406,0.237989,-0.970901
37360,NaN,1.599920,-3.157658,7.126800,-1.534882,-0.402926,-2.015074,0.376250,0.995768,0.763308,-0.355225,0.221680,-0.645264,0.016474,-0.031648,0.071127,0.999979,0.001881,0.004979,0.003817,-0.024050,0.003288,0.236035,-0.971441
37361,NaN,1.366435,-3.187701,7.219412,-1.384571,-0.395918,-1.933987,0.500411,0.930389,0.666148,-0.351074,0.225830,-0.651611,0.014106,-0.032011,0.072049,0.999981,0.002502,0.004652,0.003331,-0.022213,0.008095,0.233606,-0.972044
37362,NaN,1.451009,-3.302897,7.236471,-1.548345,-0.253114,-1.880544,0.568340,0.865015,0.600622,-0.346680,0.219482,-0.653320,0.014922,-0.033190,0.072207,0.999982,0.002842,0.004325,0.003003,-0.020328,0.012939,0.230720,-0.972722
37363,NaN,1.412778,-3.118039,7.064037,-1.578303,-0.295909,-2.128972,0.621699,0.801145,0.526874,-0.340332,0.221680,-0.659668,0.014493,-0.031362,0.070486,0.999984,0.003108,0.004006,0.002634,-0.019008,0.016933,0.227695,-0.973400
37364,NaN,1.106077,-2.902854,7.030018,-1.343586,-0.437539,-2.257959,0.633490,0.735695,0.461770,-0.329590,0.219482,-0.661621,0.011386,-0.029225,0.070166,0.999986,0.003167,0.003678,0.002309,-0.017653,0.020980,0.224501,-0.974088
37365,NaN,1.129648,-3.136852,7.381471,-1.432494,-0.327993,-1.847648,0.682259,0.688431,0.413274,-0.327393,0.213135,-0.665527,0.011615,-0.031596,0.073668,0.999986,0.003411,0.003442,0.002066,-0.016749,0.024280,0.221179,-0.974787
